File: 01_Data/Romex_Cable/STA/N2/10K_min/Romex_Cable_STA_N2_10KData_220718_R2.csv
##Temp./Â°C,Time/min,Mass loss(subtr.2)/mg,DSC(subtr.2)/(mW/mg),Sensit./(uV/mW)
49.649,10.01,0.03392,0.0008911272,1.07019
50.249,10.73972,0.03613079,0.0343577,1.07003
50.849,10.92941,0.03536582,0.06190935,1.06986
51.449,11.0702,0.03579508,0.08362733,1.0697
52.049,11.18891,0.03626644,0.10223,1.06953
52.649,11.29534,0.03686551,0.11856,1.06937
53.249,11.39286,0.03674351,0.13085,1.0692
53.849,11.48385,0.03510207,0.1479,1.06903
54.449,11.5699,0.03589409,0.15524,1.06886
55.049,11.65245,0.0361065,0.1655,1.0687
55.649,11.7319,0.03733858,0.17538,1.06853
56.249,11.80895,0.03766888,0.18405,1.06836
56.849,11.88355,0.03865658,0.19095,1.06819
57.449,11.95674,0.03704238,0.1952,1.06802
58.049,12.0288,0.03749766,0.2037,1.06785
58.649,12.10011,0.03775338,0.21064,1.06768
59.249,12.17044,0.03747513,0.21442,1.06751
59.849,12.2396,0.03678302,0.2192,1.06734
60.449,12.30826,0.03756418,0.22525,1.06717
61.049,12.37616,0.03939077,0.22826,1.067
61.649,12.44327,0.03840898,0.23213,1.06683
62.249,12.51018,0.03830538,0.23425,1.06665
62.849,12.5768,0.03941641,0.23917,1.06648
63.449,12.64358,0.03941604,0.24228,1.06631
64.049,12.7098,0.03943315,0.24492,1.06614
64.649,12.77548,0.04067584,0.2468,1.06596
65.249,12.84083,0.0400001,0.2498,1.06579
65.849,12.90616,0.03844782,0.2491,1.06561
66.449,12.9709,0.03941118,0.25234,1.06544
67.049,13.03594,0.03948903,0.25398,1.06526
67.649,13.10034,0.03941184,0.25484,1.06509
68.249,13.16514,0.0402764,0.25616,1.06491
68.849,13.2291,0.03940923,0.25763,1.06474
69.449,13.29311,0.03936672,0.25815,1.06456
70.049,13.3566,0.03992748,0.25818,1.06438
70.649,13.4203,0.0394087,0.26133,1.0642
71.249,13.4839,0.0391065,0.26184,1.06403
71.849,13.5476,0.03941543,0.2645,1.06385
72.449,13.61106,0.03942167,0.26323,1.06367
73.049,13.6747,0.03941814,0.26482,1.06349
73.649,13.73792,0.04071865,0.2665,1.06331
74.249,13.8008,0.03941559,0.26802,1.06313
74.849,13.86331,0.0392913,0.26922,1.06295
75.449,13.92575,0.03940951,0.27111,1.06277
76.049,13.9883,0.03909981,0.27226,1.06259
76.649,14.05074,0.03942008,0.27266,1.06241
77.249,14.11325,0.03961218,0.27322,1.06223
77.849,14.1756,0.04084099,0.27609,1.06204
78.449,14.2375,0.0395008,0.27674,1.06186
79.049,14.29946,0.03941066,0.27897,1.06168
79.649,14.36125,0.0394104,0.27826,1.0615
80.249,14.4229,0.04072162,0.28004,1.06131
80.849,14.4848,0.03941902,0.28005,1.06113
81.449,14.54686,0.03932493,0.28381,1.06095
82.049,14.60852,0.03941005,0.28482,1.06076
82.649,14.6698,0.04006005,0.28396,1.06058
83.249,14.73091,0.04006693,0.28493,1.06039
83.849,14.792,0.03941108,0.28652,1.0602
84.449,14.85254,0.0394065,0.28635,1.06002
85.049,14.91329,0.0407282,0.28873,1.05983
85.649,14.9739,0.04073038,0.28928,1.05964
86.249,15.03449,0.03945686,0.28999,1.05946
86.849,15.0951,0.04072994,0.29436,1.05927
87.449,15.15545,0.04197246,0.29169,1.05908
88.049,15.21587,0.04138112,0.29287,1.05889
88.649,15.27615,0.04144945,0.29255,1.0587
89.249,15.33637,0.04060541,0.2917,1.05852
89.849,15.39639,0.04072954,0.29572,1.05833
90.449,15.4565,0.04073,0.29782,1.05814
91.049,15.51649,0.0407282,0.29587,1.05795
91.649,15.57606,0.03940369,0.29788,1.05775
92.249,15.6356,0.04070773,0.29654,1.05756
92.849,15.6951,0.04072999,0.2982,1.05737
93.449,15.7546,0.04073045,0.30015,1.05718
94.049,15.81435,0.03955497,0.29907,1.05699
94.649,15.8739,0.04072973,0.2999,1.0568
95.249,15.93336,0.03935891,0.30079,1.0566
95.849,15.99266,0.0394138,0.30121,1.05641
96.449,16.05155,0.03810188,0.3025,1.05622
97.049,16.11066,0.0386972,0.30311,1.05602
97.649,16.16975,0.03809,0.30475,1.05583
98.249,16.22897,0.03869913,0.30394,1.05563
98.849,16.28809,0.03874996,0.30765,1.05544
99.449,16.34702,0.03874514,0.30686,1.05524
100.049,16.40589,0.03941362,0.30717,1.05504
100.649,16.4648,0.04072561,0.30726,1.05485
101.249,16.5234,0.03940468,0.30929,1.05465
101.849,16.58225,0.03886268,0.30845,1.05445
102.449,16.6413,0.03810008,0.31047,1.05426
103.049,16.70029,0.03809755,0.30836,1.05406
103.649,16.75937,0.03942037,0.31225,1.05386
104.249,16.81842,0.03857876,0.30888,1.05366
104.849,16.87724,0.0385256,0.31178,1.05346
105.449,16.93596,0.03938404,0.31141,1.05326
106.049,16.9948,0.03808951,0.31277,1.05306
106.649,17.05356,0.03809,0.31287,1.05286
107.249,17.1124,0.03809,0.31573,1.05266
107.849,17.1711,0.03809038,0.31511,1.05246
108.449,17.2299,0.03940951,0.31341,1.05226
109.049,17.28865,0.03941008,0.31569,1.05206
109.649,17.3475,0.04015624,0.3137,1.05185
110.249,17.40641,0.04054586,0.31648,1.05165
110.849,17.46506,0.04006988,0.31635,1.05145
111.449,17.5237,0.04007041,0.31619,1.05125
112.049,17.58223,0.04081007,0.31819,1.05104
112.649,17.6404,0.04073067,0.31836,1.05084
113.249,17.69857,0.03941785,0.31971,1.05063
113.849,17.75698,0.03941327,0.31947,1.05043
114.449,17.81551,0.04073516,0.32037,1.05022
115.049,17.87446,0.03941184,0.32234,1.05002
115.649,17.93323,0.03941003,0.32339,1.04981
116.249,17.99184,0.04071817,0.32291,1.0496
116.849,18.05056,0.03973989,0.32304,1.0494
117.449,18.1093,0.03844482,0.32266,1.04919
118.049,18.16774,0.03806819,0.32462,1.04898
118.649,18.2259,0.03939451,0.3256,1.04877
119.249,18.28386,0.03808628,0.3253,1.04857
119.849,18.34153,0.03809408,0.32719,1.04836
120.449,18.3998,0.03940961,0.32646,1.04815
121.049,18.45804,0.03941,0.32754,1.04794
121.649,18.5166,0.03941047,0.32988,1.04773
122.249,18.57518,0.03812373,0.32924,1.04752
122.849,18.6337,0.03810001,0.33112,1.04731
123.449,18.69193,0.03809999,0.33266,1.0471
124.049,18.75039,0.03846391,0.33483,1.04688
124.649,18.8087,0.03876475,0.33391,1.04667
125.249,18.86693,0.03876,0.33467,1.04646
125.849,18.92514,0.03876,0.33582,1.04625
126.449,18.98337,0.03875756,0.33562,1.04603
127.049,19.0416,0.04005987,0.33618,1.04582
127.649,19.09972,0.03941455,0.33766,1.04561
128.249,19.1578,0.03941003,0.34042,1.04539
128.849,19.21566,0.03944544,0.33966,1.04518
129.449,19.2738,0.03907975,0.34075,1.04496
130.049,19.3317,0.03900309,0.33995,1.04475
130.649,19.38983,0.0380895,0.34291,1.04453
131.249,19.44782,0.03857264,0.34399,1.04431
131.849,19.50592,0.03742946,0.34505,1.0441
132.449,19.56353,0.03790317,0.34379,1.04388
133.049,19.6216,0.0388798,0.34379,1.04366
133.649,19.6797,0.03940996,0.34477,1.04344
134.249,19.7381,0.03840759,0.34546,1.04323
134.849,19.79683,0.03843,0.34583,1.04301
135.449,19.855,0.03845389,0.34631,1.04279
136.049,19.91305,0.03974051,0.34583,1.04257
136.649,19.9707,0.03973998,0.34561,1.04235
137.249,20.02884,0.03979953,0.34765,1.04213
137.849,20.08663,0.03538838,0.34951,1.04191
138.449,20.14441,0.03642578,0.34972,1.04169
139.049,20.2023,0.03788625,0.35179,1.04147
139.649,20.25994,0.03832524,0.35061,1.04124
140.249,20.3179,0.03898097,0.35026,1.04102
140.849,20.37598,0.03897001,0.35177,1.0408
141.449,20.43391,0.03896997,0.35241,1.04058
142.049,20.49161,0.03945038,0.35434,1.04035
142.649,20.54905,0.03901382,0.35612,1.04013
143.249,20.60676,0.03792883,0.35429,1.0399
143.849,20.66455,0.0377052,0.35588,1.03968
144.449,20.72243,0.03742471,0.3557,1.03945
145.049,20.78019,0.03765048,0.35645,1.03923
145.649,20.83773,0.03830687,0.35508,1.039
146.249,20.89538,0.03831001,0.35744,1.03878
146.849,20.95305,0.03832609,0.35741,1.03855
147.449,21.01063,0.03962331,0.35784,1.03832
148.049,21.06844,0.03866469,0.35873,1.0381
148.649,21.12613,0.037784,0.36023,1.03787
149.249,21.18376,0.03567771,0.3594,1.03764
149.849,21.24109,0.03568,0.35998,1.03741
150.449,21.29844,0.03568,0.36169,1.03718
151.049,21.3557,0.03567624,0.3608,1.03695
151.649,21.4131,0.03303636,0.36276,1.03672
152.249,21.47072,0.0330533,0.36272,1.03649
152.849,21.5283,0.03435435,0.3656,1.03626
153.449,21.5861,0.03567838,0.3643,1.03603
154.049,21.6436,0.03568002,0.3654,1.0358
154.649,21.7012,0.03523763,0.36605,1.03557
155.249,21.75885,0.03435989,0.36627,1.03534
155.849,21.81624,0.03436002,0.36704,1.0351
156.449,21.87358,0.03439786,0.36723,1.03487
157.049,21.93109,0.03304053,0.36699,1.03464
157.649,21.98883,0.03303608,0.36853,1.0344
158.249,22.0465,0.03435876,0.36791,1.03417
158.849,22.10409,0.0343637,0.37105,1.03393
159.449,22.16191,0.03535351,0.36873,1.0337
160.049,22.21944,0.03536578,0.36915,1.03346
160.649,22.27702,0.03403047,0.37016,1.03323
161.249,22.33464,0.03262452,0.37019,1.03299
161.849,22.392,0.03139445,0.37002,1.03275
162.449,22.44962,0.0314,0.37135,1.03252
163.049,22.5072,0.03139888,0.37329,1.03228
163.649,22.56462,0.03039425,0.3748,1.03204
164.249,22.6222,0.03041015,0.37326,1.0318
164.849,22.67975,0.02976076,0.37372,1.03156
165.449,22.7372,0.02975006,0.37391,1.03133
166.049,22.7946,0.02974999,0.37545,1.03109
166.649,22.85207,0.02973959,0.37541,1.03085
167.249,22.90917,0.03041028,0.37628,1.03061
167.849,22.96686,0.03040819,0.37621,1.03036
168.449,23.02435,0.02909273,0.37799,1.03012
169.049,23.08181,0.02905162,0.37848,1.02988
169.649,23.13962,0.0287701,0.37992,1.02964
170.249,23.1969,0.02746624,0.37932,1.0294
170.849,23.25423,0.02745001,0.38109,1.02915
171.449,23.31171,0.02745,0.38263,1.02891
172.049,23.36882,0.02745003,0.38198,1.02867
172.649,23.42614,0.02765966,0.38334,1.02842
173.249,23.4836,0.02779193,0.38467,1.02818
173.849,23.54124,0.02679069,0.38464,1.02793
174.449,23.5987,0.02679,0.38723,1.02769
175.049,23.6562,0.02677603,0.38586,1.02744
175.649,23.71345,0.0254671,0.38679,1.0272
176.249,23.77066,0.0244879,0.38783,1.02695
176.849,23.82799,0.02514201,0.3889,1.0267
177.449,23.88533,0.02514,0.38937,1.02646
178.049,23.9429,0.02514,0.38953,1.02621
178.649,24.0003,0.02514,0.3893,1.02596
179.249,24.05761,0.02514046,0.3893,1.02571
179.849,24.11492,0.02384436,0.38811,1.02546
180.449,24.17224,0.02381995,0.38991,1.02521
181.049,24.22955,0.02384398,0.39175,1.02496
181.649,24.2868,0.02227534,0.38936,1.02471
182.249,24.344,0.02222064,0.39115,1.02446
182.849,24.4012,0.02086057,0.38958,1.02421
183.449,24.45852,0.02086,0.38985,1.02396
184.049,24.51588,0.02086004,0.38811,1.02371
184.649,24.57311,0.02092073,0.38821,1.02346
185.249,24.6304,0.01953894,0.3907,1.0232
185.849,24.68758,0.01856214,0.38972,1.02295
186.449,24.74475,0.01856003,0.38892,1.0227
187.049,24.80189,0.01804947,0.3905,1.02244
187.649,24.85898,0.01848237,0.3892,1.02219
188.249,24.91621,0.01844291,0.39,1.02194
188.849,24.9735,0.01591226,0.38977,1.02168
189.449,25.0306,0.01592301,0.38748,1.02142
190.049,25.08786,0.01673126,0.38702,1.02117
190.649,25.14501,0.01557639,0.38666,1.02091
191.249,25.20239,0.01426668,0.38759,1.02066
191.849,25.25955,0.01427,0.38823,1.0204
192.449,25.31671,0.01427,0.38775,1.02014
193.049,25.3738,0.01427043,0.38844,1.01988
193.649,25.4311,0.01324418,0.38932,1.01962
194.249,25.48842,0.01196891,0.39067,1.01937
194.849,25.54565,0.01196317,0.38951,1.01911
195.449,25.6025,0.01328798,0.38963,1.01885
196.049,25.65944,0.01295667,0.39139,1.01859
196.649,25.71637,0.01181287,0.39238,1.01833
197.249,25.77342,0.01160931,0.39345,1.01807
197.849,25.83054,0.01031986,0.39229,1.0178
198.449,25.88769,0.0103344,0.39302,1.01754
199.049,25.94484,0.009331124,0.39523,1.01728
199.649,26.002,0.009329999,0.39373,1.01702
200.249,26.0591,0.009331199,0.39434,1.01675
200.849,26.11625,0.00899804,0.39417,1.01649
201.449,26.17323,0.009,0.39495,1.01623
202.049,26.23017,0.009000127,0.3952,1.01596
202.649,26.2869,0.00776265,0.39656,1.0157
203.249,26.3441,0.007679935,0.39732,1.01543
203.849,26.4015,0.00629367,0.39759,1.01517
204.449,26.45885,0.006360049,0.3976,1.0149
205.049,26.51642,0.005351354,0.3977,1.01464
205.649,26.57344,0.00505527,0.40296,1.01437
206.249,26.63032,0.003740347,0.40325,1.0141
206.849,26.68727,0.003305378,0.4053,1.01383
207.449,26.744,0.002419733,0.40556,1.01357
208.049,26.801,0.00242,0.40677,1.0133
208.649,26.85835,0.002420489,0.41037,1.01303
209.249,26.9155,0.00274174,0.41182,1.01276
209.849,26.97278,0.00275027,0.41345,1.01249
210.449,27.02978,0.001778821,0.41605,1.01222
211.049,27.08687,0.001429967,0.41715,1.01195
211.649,27.14408,0.001409405,0.41913,1.01168
212.249,27.20127,-0.0006558104,0.42141,1.01141
212.849,27.2585,-0.00121008,0.42286,1.01113
213.449,27.3156,-0.001223545,0.426,1.01086
214.049,27.37296,-0.002523584,0.4294,1.01059
214.649,27.4301,-0.002520014,0.43194,1.01032
215.249,27.4873,-0.003722857,0.43796,1.01004
215.849,27.5445,-0.003839928,0.44112,1.00977
216.449,27.60169,-0.00383991,0.44687,1.00949
217.049,27.659,-0.004416444,0.45018,1.00922
217.649,27.71609,-0.005160278,0.45635,1.00894
218.249,27.7732,-0.005306442,0.46042,1.00867
218.849,27.83028,-0.006477136,0.4653,1.00839
219.449,27.88743,-0.007468292,0.46923,1.00812
220.049,27.94469,-0.00779916,0.47248,1.00784
220.649,28.0018,-0.009096881,0.47478,1.00756
221.249,28.05913,-0.01043115,0.4763,1.00728
221.849,28.11637,-0.01104769,0.47584,1.00701
222.449,28.1735,-0.01168265,0.46848,1.00673
223.049,28.23043,-0.01306997,0.4555,1.00645
223.649,28.28758,-0.01307,0.4434,1.00617
224.249,28.34484,-0.01307092,0.4346,1.00589
224.849,28.40202,-0.01443204,0.4253,1.00561
225.449,28.4594,-0.01498923,0.41977,1.00533
226.049,28.51657,-0.01569645,0.41485,1.00505
226.649,28.5738,-0.01698626,0.41151,1.00477
227.249,28.63076,-0.01871969,0.41012,1.00448
227.849,28.6879,-0.01899003,0.40741,1.0042
228.449,28.74475,-0.01902973,0.40669,1.00392
229.049,28.80177,-0.01898946,0.40692,1.00364
229.649,28.859,-0.01956602,0.40577,1.00335
230.249,28.9162,-0.02019719,0.40629,1.00307
230.849,28.97342,-0.02261851,0.40615,1.00278
231.449,29.0305,-0.02332309,0.40524,1.0025
232.049,29.0875,-0.02471426,0.40463,1.00221
232.649,29.1444,-0.02782092,0.40665,1.00193
233.249,29.2015,-0.02821048,0.40606,1.00164
233.849,29.25862,-0.02952136,0.40652,1.00135
234.449,29.3158,-0.0281089,0.4093,1.00107
235.049,29.37302,-0.02966596,0.40788,1.00078
235.649,29.42985,-0.03083993,0.40779,1.00049
236.249,29.4869,-0.03214391,0.40784,1.0002
236.849,29.544,-0.0332054,0.40857,0.99992
237.449,29.601,-0.03446775,0.40942,0.99963
238.049,29.6582,-0.03578969,0.40807,0.99934
238.649,29.7153,-0.03711247,0.40802,0.99905
239.249,29.7722,-0.03842022,0.40884,0.99876
239.849,29.82925,-0.03975284,0.40842,0.99847
240.449,29.8863,-0.04113144,0.41016,0.99817
241.049,29.9435,-0.04278834,0.40926,0.99788
241.649,30.0007,-0.04413621,0.40985,0.99759
242.249,30.05805,-0.04541399,0.41123,0.9973
242.849,30.11543,-0.04716299,0.41091,0.997
243.449,30.1727,-0.04819781,0.41107,0.99671
244.049,30.22996,-0.0495099,0.41079,0.99642
244.649,30.2871,-0.05081979,0.41181,0.99612
245.249,30.34415,-0.05329609,0.41259,0.99583
245.849,30.4012,-0.05612326,0.41288,0.99553
246.449,30.45849,-0.05772842,0.4137,0.99524
247.049,30.5157,-0.05937378,0.4128,0.99494
247.649,30.5731,-0.06151369,0.4144,0.99464
248.249,30.6303,-0.06337062,0.41394,0.99435
248.849,30.68755,-0.06482924,0.41543,0.99405
249.449,30.74473,-0.06797369,0.41439,0.99375
250.049,30.80201,-0.07067774,0.41441,0.99345
250.649,30.8591,-0.07282961,0.41688,0.99316
251.249,30.9164,-0.07527192,0.41752,0.99286
251.849,30.97356,-0.07648942,0.41855,0.99256
252.449,31.03071,-0.07782775,0.42077,0.99226
253.049,31.08783,-0.07932146,0.41977,0.99196
253.649,31.14485,-0.08224653,0.4196,0.99166
254.249,31.2017,-0.08417781,0.42141,0.99135
254.849,31.25875,-0.08859005,0.42342,0.99105
255.449,31.3156,-0.09258512,0.42335,0.99075
256.049,31.3727,-0.09495472,0.4258,0.99045
256.649,31.4301,-0.09760912,0.42726,0.99015
257.249,31.48728,-0.10022,0.42678,0.98984
257.849,31.5445,-0.10397,0.42822,0.98954
258.449,31.6017,-0.10506,0.42952,0.98923
259.049,31.65865,-0.10808,0.43145,0.98893
259.649,31.7158,-0.11127,0.4317,0.98862
260.249,31.7728,-0.11434,0.43304,0.98832
260.849,31.82957,-0.11799,0.43573,0.98801
261.449,31.88645,-0.12063,0.43539,0.98771
262.049,31.94352,-0.12465,0.4379,0.9874
262.649,32.00075,-0.1284,0.43861,0.98709
263.249,32.05836,-0.13354,0.4395,0.98678
263.849,32.11564,-0.13683,0.44272,0.98648
264.449,32.17283,-0.14052,0.44388,0.98617
265.049,32.2299,-0.1436,0.44807,0.98586
265.649,32.28715,-0.14852,0.44961,0.98555
266.249,32.3444,-0.15306,0.44934,0.98524
266.849,32.40144,-0.15825,0.45374,0.98493
267.449,32.4587,-0.1609,0.45442,0.98462
268.049,32.5157,-0.16635,0.4571,0.98431
268.649,32.57289,-0.17256,0.45947,0.984
269.249,32.63005,-0.17884,0.46012,0.98368
269.849,32.68727,-0.18247,0.46519,0.98337
270.449,32.74457,-0.18684,0.46706,0.98306
271.049,32.80192,-0.19226,0.46991,0.98274
271.649,32.85922,-0.1982,0.47317,0.98243
272.249,32.9168,-0.20478,0.47479,0.98212
272.849,32.97404,-0.21035,0.47912,0.9818
273.449,33.0313,-0.21622,0.48304,0.98149
274.049,33.08831,-0.22257,0.4885,0.98117
274.649,33.14539,-0.22969,0.49114,0.98086
275.249,33.20262,-0.23599,0.49635,0.98054
275.849,33.26,-0.24296,0.50008,0.98022
276.449,33.31752,-0.24946,0.50485,0.9799
277.049,33.37478,-0.25585,0.51085,0.97959
277.649,33.43217,-0.26353,0.51797,0.97927
278.249,33.48956,-0.27075,0.52324,0.97895
278.849,33.54678,-0.28168,0.52827,0.97863
279.449,33.60405,-0.29018,0.53486,0.97831
280.049,33.6614,-0.29958,0.53805,0.97799
280.649,33.7187,-0.30889,0.54315,0.97767
281.249,33.77626,-0.31807,0.55042,0.97735
281.849,33.83367,-0.32963,0.55572,0.97703
282.449,33.8911,-0.34039,0.56176,0.97671
283.049,33.94842,-0.35132,0.56728,0.97639
283.649,34.00578,-0.362,0.5698,0.97606
284.249,34.063,-0.37295,0.57745,0.97574
284.849,34.12044,-0.38441,0.58119,0.97542
285.449,34.1779,-0.39661,0.58479,0.97509
286.049,34.2353,-0.41017,0.58987,0.97477
286.649,34.2928,-0.42224,0.59519,0.97444
287.249,34.35025,-0.4371,0.59704,0.97412
287.849,34.40756,-0.44976,0.60396,0.97379
288.449,34.4649,-0.4635,0.60828,0.97347
289.049,34.5225,-0.47798,0.61394,0.97314
289.649,34.57985,-0.49496,0.61682,0.97281
290.249,34.6372,-0.50961,0.62174,0.97249
290.849,34.6947,-0.52482,0.62351,0.97216
291.449,34.75227,-0.54188,0.62714,0.97183
292.049,34.80983,-0.55468,0.62924,0.9715
292.649,34.8671,-0.5722,0.63314,0.97117
293.249,34.92438,-0.58797,0.63436,0.97084
293.849,34.98157,-0.60429,0.63844,0.97051
294.449,35.0389,-0.62166,0.6374,0.97018
295.049,35.0963,-0.63829,0.63937,0.96985
295.649,35.15357,-0.65792,0.63933,0.96952
296.249,35.211,-0.67455,0.6397,0.96919
296.849,35.26822,-0.6929,0.63569,0.96886
297.449,35.3257,-0.71143,0.63,0.96853
298.049,35.3832,-0.72976,0.61987,0.96819
298.649,35.44058,-0.7482,0.60742,0.96786
299.249,35.49795,-0.76475,0.59594,0.96752
299.849,35.55514,-0.78335,0.58724,0.96719
300.449,35.6124,-0.80084,0.58439,0.96686
301.049,35.66955,-0.82113,0.58214,0.96652
301.649,35.7269,-0.84029,0.58601,0.96619
302.249,35.7842,-0.86044,0.59013,0.96585
302.849,35.8417,-0.87926,0.59968,0.96551
303.449,35.8992,-0.90038,0.60646,0.96518
304.049,35.95665,-0.92232,0.61485,0.96484
304.649,36.01426,-0.94499,0.62319,0.9645
305.249,36.0717,-0.96741,0.62874,0.96416
305.849,36.12919,-0.99026,0.63737,0.96382
306.449,36.1868,-1.01478,0.64618,0.96348
307.049,36.24432,-1.03641,0.65378,0.96314
307.649,36.3018,-1.06006,0.66216,0.9628
308.249,36.3592,-1.08185,0.67098,0.96246
308.849,36.4169,-1.10564,0.68002,0.96212
309.449,36.47467,-1.13047,0.68586,0.96178
310.049,36.5325,-1.15594,0.69072,0.96144
310.649,36.59017,-1.18113,0.698,0.9611
311.249,36.64775,-1.20371,0.70459,0.96076
311.849,36.70517,-1.22913,0.71066,0.96041
312.449,36.76274,-1.25406,0.71413,0.96007
313.049,36.82051,-1.27978,0.72081,0.95972
313.649,36.87823,-1.30524,0.72033,0.95938
314.249,36.93584,-1.33087,0.72,0.95904
314.849,36.99348,-1.35628,0.71707,0.95869
315.449,37.05107,-1.38099,0.71408,0.95834
316.049,37.10882,-1.40615,0.71127,0.958
316.649,37.16645,-1.43016,0.70368,0.95765
317.249,37.22419,-1.45499,0.69762,0.9573
317.849,37.28181,-1.47627,0.68732,0.95696
318.449,37.3394,-1.49838,0.6759,0.95661
319.049,37.3971,-1.51937,0.66027,0.95626
319.649,37.4547,-1.53805,0.64481,0.95591
320.249,37.51254,-1.55851,0.63017,0.95556
320.849,37.5702,-1.5762,0.61276,0.95521
321.449,37.62792,-1.59404,0.598,0.95486
322.049,37.68537,-1.60907,0.58337,0.95451
322.649,37.74299,-1.62385,0.56884,0.95416
323.249,37.80082,-1.63878,0.55211,0.95381
323.849,37.85841,-1.65298,0.54148,0.95346
324.449,37.91638,-1.66562,0.52816,0.95311
325.049,37.97403,-1.67911,0.51576,0.95275
325.649,38.03148,-1.69266,0.50553,0.9524
326.249,38.08918,-1.70355,0.4948,0.95205
326.849,38.14651,-1.71355,0.48707,0.95169
327.449,38.2042,-1.72488,0.47524,0.95134
328.049,38.26185,-1.73484,0.46522,0.95098
328.649,38.3193,-1.74528,0.45558,0.95063
329.249,38.37705,-1.75245,0.44517,0.95027
329.849,38.43461,-1.76099,0.43647,0.94991
330.449,38.49227,-1.77016,0.42896,0.94956
331.049,38.54997,-1.77794,0.41957,0.9492
331.649,38.60756,-1.78741,0.41228,0.94884
332.249,38.66537,-1.79495,0.40533,0.94848
332.849,38.72312,-1.80097,0.3963,0.94813
333.449,38.78083,-1.8055,0.38819,0.94777
334.049,38.83838,-1.81606,0.38038,0.94741
334.649,38.89607,-1.82342,0.3742,0.94705
335.249,38.95377,-1.82774,0.36725,0.94669
335.849,39.01171,-1.83345,0.35889,0.94633
336.449,39.06947,-1.83991,0.35411,0.94597
337.049,39.12725,-1.84477,0.34645,0.9456
337.649,39.18508,-1.84976,0.34133,0.94524
338.249,39.24301,-1.85491,0.33373,0.94488
338.849,39.30076,-1.8601,0.32973,0.94452
339.449,39.35844,-1.86508,0.32341,0.94415
340.049,39.41602,-1.87027,0.31959,0.94379
340.649,39.47354,-1.8743,0.31467,0.94343
341.249,39.53113,-1.8777,0.30789,0.94306
341.849,39.58885,-1.88156,0.30229,0.9427
342.449,39.6464,-1.88629,0.29768,0.94233
343.049,39.70407,-1.88962,0.29208,0.94196
343.649,39.7616,-1.89319,0.28867,0.9416
344.249,39.8194,-1.89768,0.28339,0.94123
344.849,39.8773,-1.90174,0.27768,0.94086
345.449,39.9352,-1.90446,0.27332,0.9405
346.049,39.99305,-1.90698,0.27067,0.94013
346.649,40.05076,-1.9094,0.26556,0.93976
347.249,40.10856,-1.91388,0.26222,0.93939
347.849,40.16619,-1.91748,0.25933,0.93902
348.449,40.2239,-1.92065,0.2557,0.93865
349.049,40.2817,-1.92218,0.25278,0.93828
349.649,40.33936,-1.92459,0.24778,0.93791
350.249,40.39728,-1.92765,0.24332,0.93754
350.849,40.4547,-1.93028,0.23999,0.93717
351.449,40.51253,-1.93345,0.23799,0.93679
352.049,40.57047,-1.93371,0.23428,0.93642
352.649,40.62865,-1.93591,0.23397,0.93605
353.249,40.6869,-1.93777,0.23086,0.93568
353.849,40.74494,-1.94073,0.2301,0.9353
354.449,40.80279,-1.94358,0.22684,0.93493
355.049,40.86056,-1.94501,0.22735,0.93455
355.649,40.9185,-1.94742,0.22435,0.93418
356.249,40.9764,-1.9508,0.22293,0.9338
356.849,41.03445,-1.9518,0.22135,0.93343
357.449,41.09253,-1.95341,0.2191,0.93305
358.049,41.15044,-1.95545,0.21981,0.93267
358.649,41.20836,-1.95792,0.21694,0.93229
359.249,41.26638,-1.95994,0.21702,0.93192
359.849,41.3242,-1.96164,0.21704,0.93154
360.449,41.3822,-1.96402,0.21625,0.93116
361.049,41.44018,-1.96469,0.21746,0.93078
361.649,41.4983,-1.96668,0.21773,0.9304
362.249,41.55639,-1.96808,0.21578,0.93002
362.849,41.61453,-1.96943,0.21474,0.92964
363.449,41.6726,-1.97083,0.21415,0.92926
364.049,41.73068,-1.97136,0.21261,0.92888
364.649,41.7885,-1.97272,0.2126,0.9285
365.249,41.84657,-1.97475,0.21097,0.92811
365.849,41.90463,-1.97686,0.21265,0.92773
366.449,41.96282,-1.9783,0.21337,0.92735
367.049,42.021,-1.9796,0.2143,0.92697
367.649,42.07915,-1.98095,0.21487,0.92658
368.249,42.13697,-1.98251,0.21418,0.9262
368.849,42.19494,-1.98414,0.21301,0.92581
369.449,42.25295,-1.985,0.21516,0.92543
370.049,42.31107,-1.9863,0.21467,0.92504
370.649,42.36919,-1.98916,0.21232,0.92465
371.249,42.42735,-1.98946,0.21445,0.92427
371.849,42.4855,-1.98949,0.21473,0.92388
372.449,42.54368,-1.99072,0.21543,0.92349
373.049,42.6019,-1.99344,0.215,0.92311
373.649,42.65994,-1.99411,0.21375,0.92272
374.249,42.7178,-1.99623,0.21534,0.92233
374.849,42.77572,-1.99751,0.21624,0.92194
375.449,42.83392,-1.99883,0.21484,0.92155
376.049,42.89212,-2.00012,0.21615,0.92116
376.649,42.95085,-2.00219,0.21766,0.92077
377.249,43.00898,-2.00411,0.21606,0.92038
377.849,43.06711,-2.0054,0.21756,0.91999
378.449,43.1254,-2.00673,0.21782,0.91959
379.049,43.18374,-2.00669,0.21843,0.9192
379.649,43.24217,-2.00805,0.21775,0.91881
380.249,43.30064,-2.0094,0.21813,0.91842
380.849,43.35892,-2.01067,0.21924,0.91802
381.449,43.4174,-2.01337,0.21919,0.91763
382.049,43.47545,-2.01491,0.22004,0.91723
382.649,43.53372,-2.01661,0.22055,0.91684
383.249,43.59195,-2.01892,0.22105,0.91644
383.849,43.65033,-2.01882,0.22113,0.91605
384.449,43.70864,-2.02035,0.22101,0.91565
385.049,43.76698,-2.02144,0.22076,0.91526
385.649,43.82508,-2.02274,0.21896,0.91486
386.249,43.8836,-2.0241,0.22036,0.91446
386.849,43.94187,-2.02536,0.22148,0.91406
387.449,44.00019,-2.02706,0.22195,0.91367
388.049,44.05854,-2.02943,0.22365,0.91327
388.649,44.11685,-2.03078,0.22418,0.91287
389.249,44.17512,-2.03258,0.22414,0.91247
389.849,44.23316,-2.03498,0.22593,0.91207
390.449,44.29176,-2.0377,0.22392,0.91167
391.049,44.35002,-2.03901,0.22668,0.91127
391.649,44.40845,-2.03934,0.22539,0.91086
392.249,44.4666,-2.04195,0.22861,0.91046
392.849,44.52471,-2.04422,0.22908,0.91006
393.449,44.58283,-2.04495,0.22848,0.90966
394.049,44.6413,-2.0475,0.23005,0.90925
394.649,44.69985,-2.04878,0.23107,0.90885
395.249,44.75833,-2.04922,0.23069,0.90845
395.849,44.8168,-2.05054,0.22964,0.90804
396.449,44.87513,-2.05244,0.23289,0.90764
397.049,44.9337,-2.05548,0.23187,0.90723
397.649,44.99207,-2.057,0.23346,0.90683
398.249,45.05075,-2.05859,0.23252,0.90642
398.849,45.10924,-2.06137,0.23509,0.90601
399.449,45.1676,-2.06418,0.23457,0.90561
400.049,45.22595,-2.06584,0.236,0.9052
400.649,45.28423,-2.06732,0.23579,0.90479
401.249,45.34268,-2.0701,0.23564,0.90438
401.849,45.4012,-2.07136,0.23743,0.90398
402.449,45.4596,-2.07239,0.23623,0.90357
403.049,45.5182,-2.07407,0.23708,0.90316
403.649,45.57658,-2.07616,0.23751,0.90275
404.249,45.6351,-2.07997,0.23741,0.90234
404.849,45.6934,-2.08216,0.2386,0.90193
405.449,45.75182,-2.08439,0.23838,0.90151
406.049,45.81033,-2.08742,0.23668,0.9011
406.649,45.86887,-2.08885,0.23672,0.90069
407.249,45.92743,-2.09158,0.23964,0.90028
407.849,45.98597,-2.0943,0.23714,0.89986
408.449,46.04457,-2.09621,0.2365,0.89945
409.049,46.10314,-2.09887,0.23748,0.89904
409.649,46.16171,-2.10187,0.2364,0.89862
410.249,46.22016,-2.10511,0.23803,0.89821
410.849,46.2787,-2.10674,0.23511,0.89779
411.449,46.33724,-2.10956,0.23409,0.89738
412.049,46.39578,-2.11219,0.23453,0.89696
412.649,46.4544,-2.11529,0.23561,0.89655
413.249,46.51299,-2.11754,0.23282,0.89613
413.849,46.57162,-2.11931,0.23325,0.89571
414.449,46.6303,-2.12067,0.23351,0.89529
415.049,46.689,-2.1235,0.23187,0.89488
415.649,46.74743,-2.12658,0.23068,0.89446
416.249,46.80615,-2.12971,0.22879,0.89404
416.849,46.86488,-2.1326,0.22822,0.89362
417.449,46.92386,-2.13544,0.2268,0.8932
418.049,46.98273,-2.13853,0.2277,0.89278
418.649,47.0415,-2.13952,0.2266,0.89236
419.249,47.10018,-2.14233,0.22497,0.89194
419.849,47.1589,-2.14536,0.22473,0.89151
420.449,47.21747,-2.14837,0.22503,0.89109
421.049,47.27628,-2.15144,0.22319,0.89067
421.649,47.335,-2.1546,0.2205,0.89025
422.249,47.39353,-2.15767,0.22008,0.88982
422.849,47.45215,-2.15907,0.21778,0.8894
423.449,47.51072,-2.1627,0.21545,0.88898
424.049,47.56961,-2.16466,0.21597,0.88855
424.649,47.62842,-2.16798,0.21195,0.88813
425.249,47.68691,-2.17113,0.2127,0.8877
425.849,47.74536,-2.17226,0.21241,0.88728
426.449,47.804,-2.17771,0.20556,0.88685
427.049,47.8627,-2.18159,0.20507,0.88642
427.649,47.92133,-2.18458,0.20068,0.886
428.249,47.9803,-2.18645,0.19795,0.88557
428.849,48.0389,-2.18974,0.19633,0.88514
429.449,48.09776,-2.19328,0.19533,0.88471
430.049,48.15644,-2.19511,0.19382,0.88428
430.649,48.21524,-2.19869,0.1925,0.88386
431.249,48.27415,-2.20267,0.19041,0.88343
431.849,48.33298,-2.20597,0.19037,0.883
432.449,48.3917,-2.20816,0.18804,0.88257
433.049,48.4505,-2.20964,0.18809,0.88213
433.649,48.50906,-2.21366,0.18494,0.8817
434.249,48.5679,-2.21673,0.18462,0.88127
434.849,48.62639,-2.21986,0.18382,0.88084
435.449,48.68506,-2.22327,0.1847,0.88041
436.049,48.7436,-2.2263,0.18563,0.87997
436.649,48.80212,-2.22984,0.18378,0.87954
437.249,48.8608,-2.23401,0.18186,0.87911
437.849,48.91953,-2.23832,0.18191,0.87867
438.449,48.9782,-2.24058,0.1825,0.87824
439.049,49.03686,-2.24379,0.18218,0.8778
439.649,49.09554,-2.24802,0.18307,0.87737
440.249,49.1541,-2.25219,0.18482,0.87693
440.849,49.21275,-2.256,0.18609,0.8765
441.449,49.27134,-2.25943,0.18818,0.87606
442.049,49.33,-2.26417,0.19103,0.87562
442.649,49.3887,-2.26783,0.19248,0.87518
443.249,49.4475,-2.27207,0.19334,0.87475
443.849,49.50623,-2.27647,0.19514,0.87431
444.449,49.56485,-2.28049,0.19779,0.87387
445.049,49.62362,-2.28506,0.20053,0.87343
445.649,49.68246,-2.28958,0.20173,0.87299
446.249,49.74157,-2.29397,0.20321,0.87255
446.849,49.80068,-2.29758,0.20631,0.87211
447.449,49.85925,-2.30253,0.21027,0.87167
448.049,49.91826,-2.3064,0.21583,0.87123
448.649,49.97716,-2.31162,0.21675,0.87079
449.249,50.03626,-2.3152,0.21726,0.87035
449.849,50.0952,-2.32166,0.22053,0.8699
450.449,50.15413,-2.32705,0.22477,0.86946
451.049,50.2125,-2.33017,0.22692,0.86902
451.649,50.27131,-2.3347,0.22821,0.86857
452.249,50.33012,-2.33906,0.23113,0.86813
452.849,50.38895,-2.34534,0.23399,0.86768
453.449,50.4483,-2.35069,0.23662,0.86724
454.049,50.50727,-2.35512,0.23778,0.86679
454.649,50.56633,-2.36011,0.2382,0.86635
455.249,50.6255,-2.3651,0.23969,0.8659
455.849,50.68438,-2.36947,0.24141,0.86546
456.449,50.74329,-2.37484,0.24477,0.86501
457.049,50.80231,-2.37862,0.24556,0.86456
457.649,50.86136,-2.38428,0.24762,0.86411
458.249,50.92054,-2.39032,0.24675,0.86367
458.849,50.97958,-2.39357,0.24792,0.86322
459.449,51.0387,-2.39848,0.25042,0.86277
460.049,51.09791,-2.40324,0.25025,0.86232
460.649,51.1569,-2.40781,0.25116,0.86187
461.249,51.21588,-2.41322,0.25311,0.86142
461.849,51.27476,-2.41619,0.25336,0.86097
462.449,51.33364,-2.42311,0.25632,0.86052
463.049,51.39278,-2.42949,0.25621,0.86007
463.649,51.45193,-2.43233,0.25825,0.85961
464.249,51.51126,-2.43666,0.25917,0.85916
464.849,51.57039,-2.44053,0.25741,0.85871
465.449,51.62945,-2.44587,0.25776,0.85826
466.049,51.68853,-2.45065,0.25905,0.8578
466.649,51.74713,-2.45513,0.26057,0.85735
467.249,51.80608,-2.4593,0.26055,0.85689
467.849,51.86555,-2.46395,0.26039,0.85644
468.449,51.92498,-2.4674,0.25955,0.85599
469.049,51.9846,-2.47202,0.25988,0.85553
469.649,52.0439,-2.47813,0.26236,0.85507
470.249,52.1029,-2.48117,0.26171,0.85462
470.849,52.16189,-2.4861,0.26231,0.85416
471.449,52.22096,-2.49019,0.26231,0.8537
472.049,52.28006,-2.49374,0.26333,0.85325
472.649,52.3393,-2.49797,0.26326,0.85279
473.249,52.3981,-2.50263,0.26357,0.85233
473.849,52.4571,-2.50728,0.26435,0.85187
474.449,52.51625,-2.50938,0.26433,0.85141
475.049,52.57535,-2.51179,0.2655,0.85095
475.649,52.6346,-2.5151,0.26429,0.85049
476.249,52.69385,-2.52023,0.26291,0.85003
476.849,52.75297,-2.52436,0.26038,0.84957
477.449,52.81227,-2.52706,0.26233,0.84911
478.049,52.8716,-2.53033,0.26163,0.84865
478.649,52.93075,-2.53404,0.26107,0.84819
479.249,52.98976,-2.53707,0.26146,0.84773
479.849,53.04875,-2.53875,0.25778,0.84726
480.449,53.10781,-2.54205,0.25998,0.8468
481.049,53.16704,-2.54564,0.25688,0.84634
481.649,53.2261,-2.5482,0.25715,0.84587
482.249,53.28521,-2.55309,0.25496,0.84541
482.849,53.34417,-2.55541,0.25428,0.84495
483.449,53.40325,-2.55746,0.25285,0.84448
484.049,53.46255,-2.56048,0.25257,0.84402
484.649,53.52188,-2.5634,0.24956,0.84355
485.249,53.5812,-2.56462,0.24889,0.84308
485.849,53.6405,-2.56645,0.24721,0.84262
486.449,53.69986,-2.56915,0.24663,0.84215
487.049,53.75917,-2.57093,0.24434,0.84168
487.649,53.81839,-2.574,0.24401,0.84121
488.249,53.87769,-2.57443,0.24241,0.84075
488.849,53.937,-2.57703,0.24052,0.84028
489.449,53.99638,-2.57828,0.24085,0.83981
490.049,54.05596,-2.58124,0.23845,0.83934
490.649,54.11512,-2.58446,0.23673,0.83887
491.249,54.1744,-2.58597,0.23537,0.8384
491.849,54.23364,-2.5888,0.2374,0.83793
492.449,54.29274,-2.59098,0.23447,0.83746
493.049,54.3521,-2.5924,0.23443,0.83699
493.649,54.41125,-2.59504,0.23559,0.83652
494.249,54.4707,-2.59687,0.23477,0.83605
494.849,54.52985,-2.59812,0.23285,0.83557
495.449,54.5891,-2.60047,0.23411,0.8351
496.049,54.6485,-2.60185,0.23322,0.83463
496.649,54.7077,-2.60262,0.23183,0.83415
497.249,54.76716,-2.60448,0.23252,0.83368
497.849,54.82625,-2.60563,0.23016,0.83321
498.449,54.8853,-2.60679,0.22961,0.83273
499.049,54.94452,-2.60736,0.2286,0.83226
499.649,55.0038,-2.60857,0.22885,0.83178
500.249,55.063,-2.60987,0.22836,0.8313
500.849,55.12262,-2.61125,0.22807,0.83083
501.449,55.18175,-2.61251,0.22677,0.83035
502.049,55.2408,-2.61252,0.22757,0.82988
502.649,55.30014,-2.61417,0.22767,0.8294
503.249,55.3595,-2.61515,0.22873,0.82892
503.849,55.41888,-2.61644,0.2293,0.82844
504.449,55.47846,-2.61779,0.22792,0.82796
505.049,55.5377,-2.61912,0.22862,0.82749
505.649,55.5969,-2.6195,0.22984,0.82701
506.249,55.65606,-2.621,0.22727,0.82653
506.849,55.71536,-2.62174,0.22855,0.82605
507.449,55.7749,-2.62322,0.22669,0.82557
508.049,55.83429,-2.62448,0.22675,0.82509
508.649,55.89394,-2.62447,0.22693,0.8246
509.249,55.9534,-2.6258,0.22506,0.82412
509.849,56.01302,-2.6258,0.22825,0.82364
510.449,56.0723,-2.6258,0.22682,0.82316
511.049,56.13174,-2.62712,0.22568,0.82268
511.649,56.1911,-2.62843,0.22753,0.82219
512.249,56.2505,-2.62971,0.23036,0.82171
512.849,56.3102,-2.62844,0.22899,0.82123
513.449,56.36948,-2.63133,0.23045,0.82074
514.049,56.4289,-2.63173,0.2332,0.82026
514.649,56.48815,-2.63173,0.23883,0.81977
515.249,56.54761,-2.63173,0.23931,0.81929
515.849,56.60719,-2.63293,0.241,0.8188
516.449,56.6666,-2.63305,0.24305,0.81832
517.049,56.72589,-2.63434,0.24497,0.81783
517.649,56.78526,-2.63566,0.24624,0.81735
518.249,56.84479,-2.63709,0.24443,0.81686
518.849,56.9042,-2.637,0.24699,0.81637
519.449,56.96355,-2.63688,0.2516,0.81588
520.049,57.02267,-2.637,0.24791,0.8154
520.649,57.08192,-2.637,0.2487,0.81491
521.249,57.14142,-2.6383,0.25299,0.81442
521.849,57.20086,-2.63831,0.25031,0.81393
522.449,57.2603,-2.63963,0.25582,0.81344
523.049,57.3196,-2.63959,0.25523,0.81295
523.649,57.3789,-2.64194,0.25687,0.81246
524.249,57.43844,-2.64194,0.25982,0.81197
524.849,57.4978,-2.64307,0.25949,0.81148
525.449,57.55737,-2.64193,0.26078,0.81099
526.049,57.61665,-2.64194,0.26311,0.81049
526.649,57.6758,-2.64325,0.26588,0.81
527.249,57.73526,-2.64325,0.26522,0.80951
527.849,57.7949,-2.64325,0.26589,0.80902
528.449,57.8545,-2.64478,0.26743,0.80852
529.049,57.91414,-2.64665,0.26856,0.80803
529.649,57.9736,-2.64655,0.26975,0.80754
530.249,58.03304,-2.64786,0.27094,0.80704
530.849,58.09251,-2.64653,0.27136,0.80655
531.449,58.15217,-2.64786,0.27227,0.80605
532.049,58.2119,-2.64931,0.27473,0.80556
532.649,58.2714,-2.65096,0.2747,0.80506
533.249,58.3311,-2.65182,0.27644,0.80457
533.849,58.39049,-2.65386,0.27661,0.80407
534.449,58.45001,-2.65598,0.27842,0.80357
535.049,58.50954,-2.6567,0.27811,0.80308
535.649,58.5691,-2.65239,0.27752,0.80258
536.249,58.6287,-2.65236,0.2775,0.80208
536.849,58.6883,-2.65236,0.27908,0.80158
537.449,58.7479,-2.65514,0.2788,0.80109
538.049,58.80726,-2.65512,0.27917,0.80059
538.649,58.86681,-2.65379,0.28041,0.80009
539.249,58.9265,-2.65407,0.28146,0.79959
539.849,58.9863,-2.65445,0.2814,0.79909
540.449,59.04648,-2.65577,0.28499,0.79859
541.049,59.106,-2.65566,0.28324,0.79809
541.649,59.16556,-2.65817,0.28515,0.79759
542.249,59.22509,-2.6584,0.28763,0.79709
542.849,59.28481,-2.65977,0.28531,0.79658
543.449,59.34469,-2.65972,0.28837,0.79608
544.049,59.40464,-2.65972,0.28779,0.79558
544.649,59.4644,-2.66103,0.28711,0.79508
545.249,59.5241,-2.66101,0.29115,0.79458
545.849,59.58385,-2.66225,0.28955,0.79407
546.449,59.64362,-2.66236,0.29353,0.79357
547.049,59.70312,-2.66401,0.29429,0.79306
547.649,59.7629,-2.664,0.29386,0.79256
548.249,59.8226,-2.66458,0.29699,0.79206
548.849,59.88221,-2.66532,0.29863,0.79155
549.449,59.9421,-2.66683,0.29861,0.79105
550.049,60.002,-2.66806,0.29841,0.79054
550.649,60.06185,-2.66806,0.29862,0.79003
551.249,60.12163,-2.66806,0.30059,0.78953
551.849,60.18136,-2.66883,0.30473,0.78902
552.449,60.24111,-2.67013,0.3062,0.78851
553.049,60.301,-2.6707,0.30649,0.78801
553.649,60.36088,-2.67241,0.30789,0.7875
554.249,60.4206,-2.673,0.31149,0.78699
554.849,60.4803,-2.673,0.31027,0.78648
555.449,60.54005,-2.673,0.31596,0.78597
556.049,60.59985,-2.673,0.31785,0.78547
556.649,60.65973,-2.67432,0.31999,0.78496
557.249,60.71945,-2.6743,0.32123,0.78445
557.849,60.779,-2.67432,0.32298,0.78394
558.449,60.83885,-2.67564,0.32875,0.78343
559.049,60.89875,-2.67566,0.3309,0.78292
559.649,60.95864,-2.67794,0.33349,0.7824
560.249,61.0188,-2.67795,0.33495,0.78189
560.849,61.0786,-2.6795,0.33986,0.78138
561.449,61.1384,-2.6808,0.33965,0.78087
562.049,61.19823,-2.68099,0.34275,0.78036
562.649,61.2581,-2.68236,0.34366,0.77985
563.249,61.31795,-2.68164,0.34833,0.77933
563.849,61.3779,-2.683,0.34802,0.77882
564.449,61.43775,-2.68431,0.34962,0.77831
565.049,61.4975,-2.68614,0.35188,0.77779
565.649,61.55731,-2.68806,0.35483,0.77728
566.249,61.61702,-2.68822,0.35638,0.77676
566.849,61.6769,-2.68892,0.35719,0.77625
567.449,61.73669,-2.68892,0.35935,0.77573
568.049,61.79667,-2.68937,0.35852,0.77522
568.649,61.8567,-2.69073,0.35894,0.7747
569.249,61.9167,-2.691,0.35923,0.77419
569.849,61.97682,-2.69232,0.36068,0.77367
570.449,62.0367,-2.69381,0.36176,0.77315
571.049,62.0964,-2.69617,0.36142,0.77264
571.649,62.1561,-2.69738,0.36139,0.77212
572.249,62.21589,-2.69747,0.3603,0.7716
572.849,62.27585,-2.69737,0.35945,0.77108
573.449,62.33577,-2.69737,0.35529,0.77056
574.049,62.3957,-2.6987,0.35455,0.77004
574.649,62.4556,-2.70001,0.35234,0.76953
575.249,62.5155,-2.70131,0.35031,0.76901
575.849,62.57532,-2.70162,0.34621,0.76849
576.449,62.63495,-2.70369,0.34191,0.76797
577.049,62.6946,-2.70401,0.34055,0.76745
577.649,62.75435,-2.70528,0.33624,0.76693
578.249,62.81426,-2.70605,0.33311,0.76641
578.849,62.8743,-2.70765,0.32593,0.76588
579.449,62.93404,-2.7068,0.32359,0.76536
580.049,62.9938,-2.70791,0.31958,0.76484
580.649,63.0535,-2.70794,0.31377,0.76432
581.249,63.1133,-2.70923,0.311,0.7638
581.849,63.173,-2.71056,0.30857,0.76327
582.449,63.23288,-2.71146,0.30329,0.76275
583.049,63.29283,-2.71287,0.30134,0.76223
583.649,63.35281,-2.71313,0.29612,0.7617
584.249,63.4128,-2.71389,0.29226,0.76118
584.849,63.4727,-2.7145,0.28919,0.76066
585.449,63.53284,-2.71567,0.28323,0.76013
586.049,63.5928,-2.71582,0.28229,0.75961
586.649,63.65276,-2.71723,0.28075,0.75908
587.249,63.7125,-2.71779,0.27797,0.75856
587.849,63.7725,-2.71843,0.27466,0.75803
588.449,63.8324,-2.71845,0.27214,0.7575
589.049,63.89236,-2.71846,0.27147,0.75698
589.649,63.9523,-2.71892,0.26966,0.75645
590.249,64.012,-2.71845,0.26606,0.75592
590.849,64.07185,-2.71845,0.26576,0.7554
591.449,64.1315,-2.71955,0.26315,0.75487
592.049,64.1915,-2.71978,0.26383,0.75434
592.649,64.25131,-2.71978,0.26244,0.75381
593.249,64.31126,-2.72086,0.26127,0.75329
593.849,64.37122,-2.72251,0.25951,0.75276
594.449,64.43136,-2.72252,0.25792,0.75223
595.049,64.49119,-2.7222,0.2593,0.7517
595.649,64.55125,-2.72219,0.25737,0.75117
596.249,64.61123,-2.72114,0.25769,0.75064
596.849,64.67143,-2.72198,0.25734,0.75011
597.449,64.73161,-2.72252,0.25682,0.74958
598.049,64.79173,-2.72385,0.25765,0.74905
598.649,64.85177,-2.72519,0.25753,0.74852
599.249,64.91165,-2.72647,0.25513,0.74799
599.849,64.97169,-2.72647,0.25919,0.74745
600.449,65.03183,-2.72647,0.25909,0.74692
601.049,65.09198,-2.72647,0.25895,0.74639
601.649,65.15207,-2.7278,0.26009,0.74586
602.249,65.2122,-2.72778,0.25944,0.74533
602.849,65.27229,-2.72647,0.2626,0.74479
603.449,65.3322,-2.72778,0.25983,0.74426
604.049,65.39215,-2.72779,0.26241,0.74373
604.649,65.45223,-2.72797,0.26241,0.74319
605.249,65.51245,-2.73041,0.26256,0.74266
605.849,65.5728,-2.72913,0.26426,0.74212
606.449,65.63296,-2.73042,0.2662,0.74159
607.049,65.693,-2.73042,0.26764,0.74105
607.649,65.75294,-2.7315,0.26746,0.74052
608.249,65.81303,-2.73207,0.26752,0.73998
608.849,65.87306,-2.73328,0.26846,0.73945
609.449,65.93298,-2.73328,0.27252,0.73891
610.049,65.99266,-2.73328,0.27195,0.73838
610.649,66.05269,-2.73328,0.27587,0.73784
611.249,66.1128,-2.73392,0.27415,0.7373
611.849,66.17336,-2.73265,0.2784,0.73677
612.449,66.2337,-2.7331,0.28011,0.73623
613.049,66.29389,-2.73362,0.28058,0.73569
613.649,66.35407,-2.73492,0.28098,0.73515
614.249,66.414,-2.73491,0.28289,0.73461
614.849,66.47391,-2.73624,0.2829,0.73408
615.449,66.5338,-2.73624,0.28903,0.73354
616.049,66.5939,-2.73628,0.28988,0.733
616.649,66.65398,-2.73775,0.29114,0.73246
617.249,66.7144,-2.73863,0.29083,0.73192
617.849,66.77441,-2.73789,0.29376,0.73138
618.449,66.83434,-2.73789,0.29652,0.73084
619.049,66.89437,-2.73893,0.29687,0.7303
619.649,66.9545,-2.73902,0.29776,0.72976
620.249,67.01477,-2.7392,0.30134,0.72922
620.849,67.07522,-2.74046,0.30356,0.72868
621.449,67.1354,-2.74051,0.30664,0.72814
622.049,67.1955,-2.74019,0.30954,0.72759
622.649,67.25542,-2.7401,0.31103,0.72705
623.249,67.31528,-2.74151,0.30931,0.72651
623.849,67.37519,-2.74276,0.31336,0.72597
624.449,67.43516,-2.74333,0.31485,0.72542
625.049,67.49511,-2.74512,0.31676,0.72488
625.649,67.55534,-2.74423,0.31632,0.72434
626.249,67.61551,-2.74381,0.32088,0.7238
626.849,67.6759,-2.74251,0.32367,0.72325
627.449,67.73623,-2.74261,0.32361,0.72271
628.049,67.7963,-2.74442,0.32471,0.72216
628.649,67.85648,-2.74644,0.3278,0.72162
629.249,67.9166,-2.74776,0.33089,0.72107
629.849,67.97681,-2.74645,0.33391,0.72053
630.449,68.03713,-2.74787,0.33808,0.71998
631.049,68.09741,-2.7491,0.34154,0.71944
631.649,68.15774,-2.75185,0.34492,0.71889
632.249,68.21813,-2.75194,0.34727,0.71835
632.849,68.27852,-2.75194,0.35044,0.7178
633.449,68.33889,-2.75194,0.35335,0.71726
634.049,68.39931,-2.75194,0.3587,0.71671
634.649,68.45954,-2.75063,0.36061,0.71616
635.249,68.5197,-2.75194,0.3627,0.71561
635.849,68.58,-2.75194,0.36596,0.71507
636.449,68.64013,-2.75327,0.36892,0.71452
637.049,68.70049,-2.75363,0.3721,0.71397
637.649,68.76082,-2.75458,0.3789,0.71342
638.249,68.82132,-2.7559,0.37868,0.71288
638.849,68.8817,-2.75668,0.38323,0.71233
639.449,68.9422,-2.75689,0.39099,0.71178
640.049,69.00238,-2.7583,0.39358,0.71123
640.649,69.06271,-2.75968,0.39726,0.71068
641.249,69.12299,-2.76182,0.4008,0.71013
641.849,69.18324,-2.7625,0.40511,0.70958
642.449,69.24325,-2.76324,0.4125,0.70903
643.049,69.30367,-2.76314,0.41724,0.70848
643.649,69.36405,-2.76315,0.41852,0.70793
644.249,69.42461,-2.76446,0.42429,0.70738
644.849,69.48524,-2.76684,0.42949,0.70683
645.449,69.54566,-2.76838,0.43507,0.70628
646.049,69.6058,-2.76829,0.44031,0.70573
646.649,69.66629,-2.76723,0.44356,0.70517
647.249,69.72651,-2.76764,0.45032,0.70462
647.849,69.78689,-2.76963,0.45591,0.70407
648.449,69.8471,-2.77089,0.45442,0.70352
649.049,69.90739,-2.77233,0.4632,0.70297
649.649,69.96772,-2.77378,0.46927,0.70241
650.249,70.02795,-2.77379,0.47411,0.70186
650.849,70.0883,-2.77375,0.48228,0.70131
651.449,70.14855,-2.7751,0.48949,0.70075
652.049,70.20877,-2.77642,0.49404,0.7002
652.649,70.26903,-2.77774,0.49957,0.69965
653.249,70.32929,-2.77906,0.50761,0.69909
653.849,70.3895,-2.77906,0.51494,0.69854
654.449,70.45,-2.78224,0.52139,0.69798
655.049,70.51037,-2.78378,0.53028,0.69743
655.649,70.57077,-2.78506,0.53519,0.69687
656.249,70.6311,-2.78509,0.54378,0.69632
656.849,70.69139,-2.78641,0.55018,0.69576
657.449,70.7516,-2.78906,0.55721,0.69521
658.049,70.81191,-2.79187,0.56565,0.69465
658.649,70.87224,-2.7931,0.5697,0.6941
659.249,70.9327,-2.79452,0.57894,0.69354
659.849,70.99303,-2.79486,0.58479,0.69298
660.449,71.0534,-2.79685,0.59531,0.69243
661.049,71.11376,-2.79887,0.60195,0.69187
661.649,71.17416,-2.80045,0.6096,0.69131
662.249,71.23442,-2.80148,0.61445,0.69076
662.849,71.29466,-2.80329,0.62014,0.6902
663.449,71.35486,-2.80562,0.62894,0.68964
664.049,71.4151,-2.80706,0.63758,0.68908
664.649,71.47539,-2.80906,0.64524,0.68853
665.249,71.53582,-2.81065,0.65132,0.68797
665.849,71.5962,-2.812,0.65707,0.68741
666.449,71.65666,-2.81346,0.66345,0.68685
667.049,71.71692,-2.81452,0.6707,0.68629
667.649,71.7774,-2.81674,0.67821,0.68573
668.249,71.83791,-2.81929,0.68239,0.68517
668.849,71.89841,-2.82081,0.68783,0.68461
669.449,71.9589,-2.82319,0.69587,0.68405
670.049,72.01929,-2.82506,0.69812,0.68349
670.649,72.07961,-2.82666,0.70041,0.68293
671.249,72.1399,-2.82922,0.70355,0.68237
671.849,72.20047,-2.83135,0.70329,0.68181
672.449,72.26096,-2.83209,0.70309,0.68125
673.049,72.32131,-2.8336,0.70434,0.68069
673.649,72.3817,-2.83634,0.70525,0.68013
674.249,72.44216,-2.8377,0.70263,0.67957
674.849,72.50272,-2.83908,0.69654,0.67901
675.449,72.56319,-2.84139,0.6925,0.67845
676.049,72.6234,-2.84429,0.68703,0.67789
676.649,72.68381,-2.84608,0.67717,0.67732
677.249,72.74426,-2.8493,0.66746,0.67676
677.849,72.8048,-2.85056,0.65646,0.6762
678.449,72.86492,-2.85187,0.64198,0.67564
679.049,72.92528,-2.85324,0.62465,0.67507
679.649,72.98563,-2.85598,0.60319,0.67451
680.249,73.04626,-2.85851,0.58441,0.67395
680.849,73.1066,-2.86015,0.56552,0.67339
681.449,73.16669,-2.86162,0.54093,0.67282
682.049,73.22703,-2.86299,0.51607,0.67226
682.649,73.28737,-2.86293,0.49028,0.67169
683.249,73.3477,-2.86425,0.46263,0.67113
683.849,73.40802,-2.86557,0.43299,0.67057
684.449,73.46859,-2.86745,0.41083,0.67
685.049,73.5295,-2.86788,0.38209,0.66944
685.649,73.59006,-2.86919,0.35842,0.66887
686.249,73.65056,-2.86907,0.33296,0.66831
686.849,73.71082,-2.86613,0.31339,0.66774
687.449,73.77126,-2.86741,0.29482,0.66718
688.049,73.83176,-2.86875,0.27865,0.66661
688.649,73.89203,-2.87022,0.2623,0.66605
689.249,73.95237,-2.87224,0.2496,0.66548
689.849,74.01262,-2.8727,0.23583,0.66492
690.449,74.0731,-2.8727,0.22592,0.66435
691.049,74.1337,-2.8727,0.22125,0.66378
691.649,74.19425,-2.8727,0.20969,0.66322
692.249,74.25475,-2.8727,0.20377,0.66265
692.849,74.31518,-2.87403,0.19792,0.66208
693.449,74.3755,-2.87402,0.19359,0.66152
694.049,74.43594,-2.87396,0.18656,0.66095
694.649,74.49653,-2.87599,0.18062,0.66038
695.249,74.55711,-2.87597,0.17898,0.65982
695.849,74.61762,-2.87568,0.176,0.65925
696.449,74.67786,-2.87566,0.17535,0.65868
697.049,74.7382,-2.87599,0.17271,0.65811
697.649,74.7987,-2.87468,0.17004,0.65755
698.249,74.85944,-2.87468,0.16808,0.65698
698.849,74.91995,-2.87599,0.16998,0.65641
699.449,74.9804,-2.876,0.16659,0.65584
699.649,74.9993,-2.87633,0.16833,0.65565