File: 01_Data/Excelsior/STA/N2/10K_min/Excelsior_STA_N2_10KData_2299_R2.csv
##Temp./Â°C,Time/min,Mass loss(subtr.2)/mg,DSC(subtr.2)/(mW/mg),Sensit./(uV/mW)
50.496,10.01,-0.01285,0.01815856,1.02681
50.996,10.7588,-0.01427661,0.04352596,1.02677
51.496,10.958,-0.01518169,0.05773419,1.02673
51.996,11.1084,-0.01463371,0.07219634,1.02668
52.496,11.2333,-0.01352826,0.08617164,1.02664
52.996,11.34333,-0.01458122,0.0958696,1.0266
53.496,11.44422,-0.01581315,0.10676,1.02655
53.996,11.5383,-0.01446286,0.11318,1.02651
54.496,11.62721,-0.01448965,0.1216,1.02646
54.996,11.71222,-0.0146559,0.1296,1.02642
55.496,11.7948,-0.01488164,0.13242,1.02638
55.996,11.87383,-0.01504148,0.13987,1.02633
56.496,11.9502,-0.01428068,0.14758,1.02629
56.996,12.0251,-0.01435101,0.14926,1.02624
57.496,12.09869,-0.01528414,0.1527,1.0262
57.996,12.17093,-0.01588873,0.15806,1.02615
58.496,12.24122,-0.01561638,0.16048,1.02611
58.996,12.31043,-0.01617535,0.16374,1.02606
59.496,12.37921,-0.01616216,0.16852,1.02602
59.996,12.44726,-0.01506257,0.1708,1.02597
60.496,12.5139,-0.01519935,0.17422,1.02592
60.996,12.5794,-0.01538052,0.17871,1.02588
61.496,12.64402,-0.0157098,0.18009,1.02583
61.996,12.7089,-0.01681515,0.18391,1.02578
62.496,12.77321,-0.01596137,0.18472,1.02574
62.996,12.83675,-0.01670443,0.18975,1.02569
63.496,12.90005,-0.01624588,0.19311,1.02564
63.996,12.96209,-0.01646026,0.19554,1.0256
64.496,13.02362,-0.01602068,0.19722,1.02555
64.996,13.08503,-0.01780192,0.19994,1.0255
65.496,13.14577,-0.0177943,0.20413,1.02545
65.996,13.20631,-0.01623283,0.20642,1.02541
66.496,13.2667,-0.01740314,0.20921,1.02536
66.996,13.3266,-0.0176919,0.21146,1.02531
67.496,13.38623,-0.01764682,0.21488,1.02526
67.996,13.4453,-0.0176688,0.21584,1.02521
68.496,13.50395,-0.0172384,0.21863,1.02517
68.996,13.56265,-0.01845792,0.22169,1.02512
69.496,13.6206,-0.01919779,0.22436,1.02507
69.996,13.67885,-0.01924427,0.22638,1.02502
70.496,13.7368,-0.01894563,0.22817,1.02497
70.996,13.79413,-0.01892458,0.22888,1.02492
71.496,13.85185,-0.01919114,0.23237,1.02487
71.996,13.9084,-0.0192846,0.23366,1.02482
72.496,13.96534,-0.01914003,0.235,1.02477
72.996,14.0221,-0.01939921,0.23915,1.02472
73.496,14.07845,-0.01914121,0.24132,1.02467
73.996,14.1349,-0.02007818,0.24185,1.02462
74.496,14.19064,-0.02053218,0.24347,1.02457
74.996,14.2462,-0.02079807,0.24484,1.02452
75.496,14.30166,-0.02060381,0.24753,1.02447
75.996,14.3572,-0.02065553,0.24921,1.02442
76.496,14.41245,-0.02185393,0.25007,1.02436
76.996,14.46746,-0.02189443,0.25245,1.02431
77.496,14.5221,-0.02259735,0.25431,1.02426
77.996,14.57652,-0.02176367,0.25475,1.02421
78.496,14.6309,-0.02317112,0.25733,1.02416
78.996,14.68524,-0.02183699,0.25646,1.0241
79.496,14.7395,-0.02317057,0.25893,1.02405
79.996,14.7935,-0.02315529,0.26118,1.024
80.496,14.84721,-0.02318339,0.26061,1.02395
80.996,14.90086,-0.024483,0.26159,1.02389
81.496,14.9544,-0.02448762,0.26105,1.02384
81.996,15.0077,-0.02446499,0.26258,1.02379
82.496,15.061,-0.02448005,0.26269,1.02373
82.996,15.1142,-0.02423082,0.26545,1.02368
83.496,15.16705,-0.02449403,0.26547,1.02363
83.996,15.21977,-0.02516178,0.26878,1.02357
84.496,15.27245,-0.02588624,0.26791,1.02352
84.996,15.32484,-0.02579693,0.26634,1.02346
85.496,15.37737,-0.02577635,0.26704,1.02341
85.996,15.4297,-0.02580003,0.26777,1.02335
86.496,15.4817,-0.02719009,0.26726,1.0233
86.996,15.53351,-0.02715182,0.26659,1.02324
87.496,15.58531,-0.02711929,0.26821,1.02319
87.996,15.6371,-0.02845946,0.26817,1.02313
88.496,15.6886,-0.02841348,0.26795,1.02308
88.996,15.7405,-0.02711985,0.26907,1.02302
89.496,15.792,-0.02719979,0.26803,1.02296
89.996,15.84319,-0.02843915,0.26866,1.02291
90.496,15.89471,-0.02726809,0.26701,1.02285
90.996,15.94555,-0.02843928,0.26463,1.02279
91.496,15.99654,-0.02841925,0.26468,1.02274
91.996,16.04748,-0.02845032,0.26375,1.02268
92.496,16.09835,-0.02843997,0.26483,1.02262
92.996,16.14933,-0.02844786,0.26377,1.02257
93.496,16.20022,-0.02811059,0.26404,1.02251
93.996,16.2509,-0.02843476,0.26326,1.02245
94.496,16.3017,-0.02974865,0.26131,1.02239
94.996,16.3522,-0.02975045,0.26048,1.02233
95.496,16.40254,-0.03060064,0.25977,1.02228
95.996,16.4528,-0.02976315,0.26014,1.02222
96.496,16.50273,-0.03085183,0.25917,1.02216
96.996,16.5528,-0.0297444,0.25765,1.0221
97.496,16.6031,-0.02978182,0.25794,1.02204
97.996,16.65325,-0.02942901,0.25703,1.02198
98.496,16.70338,-0.02975215,0.25469,1.02192
98.996,16.75333,-0.0295293,0.25341,1.02186
99.496,16.80307,-0.02979814,0.25459,1.0218
99.996,16.8527,-0.02974278,0.25314,1.02174
100.496,16.90257,-0.03111753,0.25232,1.02168
100.996,16.95244,-0.03106995,0.25089,1.02162
101.496,17.0021,-0.03105572,0.25133,1.02156
101.996,17.05179,-0.0297614,0.24811,1.0215
102.496,17.10127,-0.02976024,0.24902,1.02144
102.996,17.15075,-0.03048056,0.24702,1.02137
103.496,17.2003,-0.0297625,0.24663,1.02131
103.996,17.2498,-0.03072304,0.24777,1.02125
104.496,17.2993,-0.02975349,0.24614,1.02119
104.996,17.34883,-0.03102679,0.24649,1.02113
105.496,17.39828,-0.03107009,0.24535,1.02106
105.996,17.44772,-0.03107027,0.2453,1.021
106.496,17.49711,-0.03061293,0.24418,1.02094
106.996,17.54645,-0.03035172,0.24224,1.02087
107.496,17.5959,-0.0310694,0.24316,1.02081
107.996,17.64515,-0.03247715,0.24385,1.02075
108.496,17.6943,-0.03106268,0.24224,1.02068
108.996,17.74353,-0.03106509,0.2425,1.02062
109.496,17.79264,-0.03239615,0.24248,1.02056
109.996,17.84156,-0.03240785,0.24177,1.02049
110.496,17.8907,-0.03173814,0.24249,1.02043
110.996,17.9399,-0.03239003,0.24184,1.02036
111.496,17.98894,-0.03238993,0.24004,1.0203
111.996,18.0381,-0.03246688,0.24249,1.02023
112.496,18.0872,-0.03106312,0.24201,1.02017
112.996,18.13638,-0.0323956,0.24205,1.0201
113.496,18.18538,-0.03098739,0.24097,1.02003
113.996,18.23416,-0.03239593,0.24092,1.01997
114.496,18.28324,-0.03239032,0.24007,1.0199
114.996,18.33209,-0.03223084,0.23919,1.01984
115.496,18.38084,-0.03206711,0.2408,1.01977
115.996,18.42971,-0.03206,0.24052,1.0197
116.496,18.4786,-0.03206224,0.24005,1.01963
116.996,18.52745,-0.03097039,0.23988,1.01957
117.496,18.5764,-0.03143882,0.24019,1.0195
117.996,18.6254,-0.03238912,0.23989,1.01943
118.496,18.67426,-0.03238977,0.24002,1.01936
118.996,18.72326,-0.03254008,0.24065,1.01929
119.496,18.77195,-0.03356567,0.2405,1.01923
119.996,18.82047,-0.03239003,0.24237,1.01916
120.496,18.86918,-0.03239,0.24157,1.01909
120.996,18.9177,-0.03239335,0.24208,1.01902
121.496,18.96588,-0.0327724,0.24216,1.01895
121.996,19.01462,-0.03235631,0.24486,1.01888
122.496,19.0633,-0.03239005,0.24284,1.01881
122.996,19.11198,-0.03239,0.24232,1.01874
123.496,19.1606,-0.03239,0.24283,1.01867
123.996,19.2093,-0.03239005,0.24399,1.0186
124.496,19.25789,-0.0321473,0.2441,1.01853
124.996,19.30659,-0.03214637,0.24344,1.01846
125.496,19.35513,-0.03269071,0.24619,1.01839
125.996,19.4036,-0.03240945,0.24423,1.01832
126.496,19.45204,-0.03309803,0.24689,1.01824
126.996,19.50036,-0.03371023,0.24478,1.01817
127.496,19.54855,-0.03236367,0.2455,1.0181
127.996,19.5969,-0.03239012,0.24739,1.01803
128.496,19.64532,-0.03236548,0.2467,1.01795
128.996,19.69366,-0.0310449,0.24758,1.01788
129.496,19.7421,-0.03240354,0.24607,1.01781
129.996,19.79048,-0.03369957,0.2462,1.01774
130.496,19.8386,-0.03250099,0.24751,1.01766
130.996,19.88692,-0.0337134,0.24933,1.01759
131.496,19.9346,-0.03307177,0.24744,1.01751
131.996,19.9824,-0.03168423,0.24658,1.01744
132.496,20.03055,-0.03173002,0.24892,1.01737
132.996,20.07854,-0.03172875,0.24755,1.01729
133.496,20.12666,-0.03056313,0.24814,1.01722
133.996,20.17513,-0.03172823,0.24951,1.01714
134.496,20.22314,-0.03172635,0.24949,1.01706
134.996,20.27111,-0.03203085,0.2493,1.01699
135.496,20.31924,-0.03206003,0.25121,1.01691
135.996,20.36723,-0.03181062,0.25109,1.01684
136.496,20.41526,-0.0317297,0.25076,1.01676
136.996,20.4634,-0.03105786,0.25161,1.01668
137.496,20.51131,-0.03051105,0.25156,1.01661
137.996,20.55933,-0.03173005,0.25145,1.01653
138.496,20.6073,-0.03173,0.25346,1.01645
138.996,20.65532,-0.03173,0.25242,1.01638
139.496,20.70307,-0.03173063,0.25243,1.0163
139.996,20.75101,-0.03247438,0.25329,1.01622
140.496,20.79876,-0.03305381,0.25262,1.01614
140.996,20.84656,-0.0317251,0.25324,1.01606
141.496,20.8944,-0.03174194,0.25478,1.01598
141.996,20.94217,-0.03306032,0.25405,1.0159
142.496,20.98988,-0.03173026,0.25529,1.01583
142.996,21.0377,-0.03172999,0.2546,1.01575
143.496,21.08544,-0.03172996,0.25384,1.01567
143.996,21.13326,-0.03174702,0.25512,1.01559
144.496,21.1811,-0.03304925,0.25588,1.01551
144.996,21.22883,-0.03210987,0.2555,1.01543
145.496,21.27665,-0.03205997,0.2556,1.01534
145.996,21.32441,-0.03191809,0.25725,1.01526
146.496,21.3721,-0.03172985,0.25722,1.01518
146.996,21.41982,-0.0317301,0.25679,1.0151
147.496,21.46754,-0.0317858,0.25647,1.01502
147.996,21.51511,-0.03205868,0.25604,1.01494
148.496,21.56268,-0.03227374,0.25779,1.01485
148.996,21.6104,-0.03338229,0.25933,1.01477
149.496,21.65767,-0.03303652,0.25845,1.01469
149.996,21.7053,-0.03174267,0.25885,1.01461
150.496,21.75292,-0.03172998,0.25868,1.01452
150.996,21.8005,-0.03173,0.25917,1.01444
151.496,21.8481,-0.03172447,0.25867,1.01436
151.996,21.89599,-0.03305567,0.2593,1.01427
152.496,21.94357,-0.03305264,0.25928,1.01419
152.996,21.9912,-0.03170589,0.25858,1.0141
153.496,22.03854,-0.03305178,0.25996,1.01402
153.996,22.08611,-0.03304999,0.25813,1.01393
154.496,22.13373,-0.03305003,0.26017,1.01385
154.996,22.18129,-0.03304388,0.25956,1.01376
155.496,22.2291,-0.03172929,0.26252,1.01368
155.996,22.277,-0.03290318,0.26086,1.01359
156.496,22.3246,-0.03304026,0.26136,1.0135
156.996,22.37218,-0.03303996,0.26005,1.01342
157.496,22.41984,-0.03303853,0.26192,1.01333
157.996,22.46732,-0.03206239,0.26328,1.01324
158.496,22.51483,-0.03205133,0.26421,1.01316
158.996,22.5623,-0.03171602,0.26394,1.01307
159.496,22.60966,-0.0307117,0.26407,1.01298
159.996,22.6572,-0.03172897,0.26388,1.01289
160.496,22.7047,-0.03173,0.26513,1.0128
160.996,22.75222,-0.03173,0.26562,1.01271
161.496,22.79973,-0.03172992,0.26702,1.01262
161.996,22.84715,-0.03310634,0.26697,1.01254
162.496,22.8946,-0.03305152,0.26747,1.01245
162.996,22.9421,-0.03236882,0.26537,1.01236
163.496,22.9896,-0.03238999,0.26824,1.01227
163.996,23.03708,-0.03239178,0.26757,1.01218
164.496,23.08488,-0.03364154,0.26712,1.01208
164.996,23.1325,-0.03374508,0.26659,1.01199
165.496,23.18016,-0.03305012,0.26604,1.0119
165.996,23.2277,-0.03287467,0.26809,1.01181
166.496,23.27538,-0.03174163,0.27,1.01172
166.996,23.3229,-0.03173971,0.2705,1.01163
167.496,23.37047,-0.03307445,0.2688,1.01154
167.996,23.41801,-0.03305019,0.2695,1.01144
168.496,23.4656,-0.03305013,0.27017,1.01135
168.996,23.51309,-0.03368974,0.27311,1.01126
169.496,23.5607,-0.03437017,0.27264,1.01116
169.996,23.60823,-0.0343689,0.27147,1.01107
170.496,23.65569,-0.03271587,0.27092,1.01098
170.996,23.70335,-0.03238957,0.27249,1.01088
171.496,23.751,-0.03239499,0.2712,1.01079
171.996,23.79861,-0.03371182,0.27287,1.01069
172.496,23.84621,-0.03370552,0.27197,1.0106
172.996,23.89402,-0.03471634,0.27295,1.0105
173.496,23.94153,-0.03469944,0.27325,1.01041
173.996,23.9891,-0.03379077,0.27374,1.01031
174.496,24.03688,-0.03338009,0.27357,1.01021
174.996,24.08458,-0.03338,0.27412,1.01012
175.496,24.13229,-0.03338,0.27605,1.01002
175.996,24.17999,-0.03338,0.27543,1.00992
176.496,24.22775,-0.0333804,0.27457,1.00983
176.996,24.27531,-0.03295734,0.27567,1.00973
177.496,24.32299,-0.03336834,0.27468,1.00963
177.996,24.37066,-0.03337,0.2758,1.00953
178.496,24.41836,-0.03337095,0.27702,1.00943
178.996,24.466,-0.03410494,0.27585,1.00934
179.496,24.51362,-0.03469429,0.27582,1.00924
179.996,24.5611,-0.03393464,0.27783,1.00914
180.496,24.60859,-0.03337142,0.27857,1.00904
180.996,24.65614,-0.03467371,0.27701,1.00894
181.496,24.7038,-0.03332889,0.27779,1.00884
181.996,24.75135,-0.03338005,0.27836,1.00874
182.496,24.79911,-0.03338,0.27825,1.00864
182.996,24.84676,-0.03338,0.27614,1.00854
183.496,24.8942,-0.03337997,0.27819,1.00843
183.996,24.9417,-0.03339011,0.278,1.00833
184.496,24.98902,-0.03470121,0.27873,1.00823
184.996,25.03659,-0.03469999,0.27831,1.00813
185.496,25.08387,-0.03470003,0.2772,1.00803
185.996,25.13127,-0.03469385,0.27903,1.00792
186.496,25.1789,-0.03337855,0.27814,1.00782
186.996,25.2264,-0.03332973,0.27951,1.00772
187.496,25.27382,-0.03591844,0.27885,1.00761
187.996,25.32175,-0.03602004,0.27806,1.00751
188.496,25.36919,-0.03602288,0.28033,1.0074
188.996,25.41649,-0.0346951,0.27871,1.0073
189.496,25.46395,-0.03470001,0.27949,1.00719
189.996,25.51077,-0.03470002,0.28009,1.00709
190.496,25.55844,-0.03491735,0.28106,1.00698
190.996,25.60589,-0.03601036,0.28013,1.00688
191.496,25.65333,-0.03720631,0.2793,1.00677
191.996,25.70093,-0.03733062,0.28053,1.00667
192.496,25.74836,-0.03607329,0.27999,1.00656
192.996,25.79567,-0.03603566,0.28098,1.00645
193.496,25.84293,-0.03732825,0.28106,1.00634
193.996,25.89056,-0.03733,0.28079,1.00624
194.496,25.93796,-0.03733151,0.2821,1.00613
194.996,25.98539,-0.03859431,0.28167,1.00602
195.496,26.0331,-0.03864995,0.28064,1.00591
195.996,26.08054,-0.03827324,0.28258,1.0058
196.496,26.12784,-0.03733661,0.28459,1.00569
196.996,26.17524,-0.03595381,0.28406,1.00558
197.496,26.22273,-0.03733353,0.28219,1.00548
197.996,26.27014,-0.03732996,0.28275,1.00537
198.496,26.31751,-0.03793636,0.28358,1.00525
198.996,26.3649,-0.03799013,0.28168,1.00514
199.496,26.4123,-0.03798977,0.28174,1.00503
199.996,26.4597,-0.03797576,0.28323,1.00492
200.496,26.50729,-0.03931031,0.28282,1.00481
200.996,26.55472,-0.03925276,0.28364,1.0047
201.496,26.60187,-0.03799138,0.28354,1.00459
201.996,26.64925,-0.03798,0.28369,1.00447
202.496,26.69642,-0.03865133,0.28533,1.00436
202.996,26.74365,-0.03865,0.28447,1.00425
203.496,26.7911,-0.03865,0.28405,1.00413
203.996,26.83865,-0.03864997,0.28475,1.00402
204.496,26.8861,-0.03868797,0.28631,1.00391
204.996,26.93372,-0.039605,0.28598,1.00379
205.496,26.98136,-0.03963002,0.28738,1.00368
205.996,27.0287,-0.03963,0.28597,1.00356
206.496,27.07615,-0.03963,0.2871,1.00345
206.996,27.1236,-0.03963001,0.28825,1.00333
207.496,27.17107,-0.03962852,0.28863,1.00321
207.996,27.21845,-0.040653,0.28933,1.0031
208.496,27.2658,-0.04029772,0.28875,1.00298
208.996,27.31317,-0.04028999,0.28916,1.00286
209.496,27.36042,-0.04029,0.28934,1.00275
209.996,27.40783,-0.04029,0.2889,1.00263
210.496,27.45539,-0.04029065,0.28886,1.00251
210.996,27.50283,-0.04066192,0.28808,1.00239
211.496,27.55025,-0.04193905,0.28853,1.00228
211.996,27.5976,-0.04326331,0.2892,1.00216
212.496,27.64503,-0.04325999,0.28836,1.00204
212.996,27.69234,-0.04326,0.28856,1.00192
213.496,27.73985,-0.04326,0.28925,1.0018
213.996,27.7873,-0.04326,0.29184,1.00168
214.496,27.8347,-0.04326,0.29085,1.00156
214.996,27.88205,-0.04326004,0.29218,1.00144
215.496,27.92949,-0.04326511,0.29357,1.00132
215.996,27.9769,-0.04387233,0.29236,1.00119
216.496,28.02429,-0.04524368,0.29286,1.00107
216.996,28.072,-0.04524755,0.29188,1.00095
217.496,28.11944,-0.04589817,0.29424,1.00083
217.996,28.16687,-0.04590002,0.29452,1.0007
218.496,28.21425,-0.0459,0.29523,1.00058
218.996,28.26159,-0.04590057,0.29475,1.00046
219.496,28.3089,-0.046784,0.29704,1.00033
219.996,28.3564,-0.04720991,0.29821,1.00021
220.496,28.40395,-0.04720708,0.29858,1.00009
220.996,28.4514,-0.04855353,0.29835,0.99996
221.496,28.49918,-0.04852007,0.30072,0.99984
221.996,28.54663,-0.04846862,0.29787,0.99971
222.496,28.59403,-0.04984373,0.298,0.99958
222.996,28.6414,-0.04984,0.29892,0.99946
223.496,28.689,-0.04984,0.30031,0.99933
223.996,28.73653,-0.04984049,0.29961,0.9992
224.496,28.78402,-0.05033786,0.30189,0.99908
224.996,28.8315,-0.05115527,0.30203,0.99895
225.496,28.8789,-0.05112406,0.30482,0.99882
225.996,28.92635,-0.05383264,0.30424,0.99869
226.496,28.97328,-0.05379995,0.30578,0.99857
226.996,29.02044,-0.05379947,0.30411,0.99844
227.496,29.0679,-0.05509919,0.30613,0.99831
227.996,29.11482,-0.05511002,0.30665,0.99818
228.496,29.16222,-0.05511603,0.30762,0.99805
228.996,29.21015,-0.05642879,0.30886,0.99792
229.496,29.2576,-0.05640658,0.30912,0.99779
229.996,29.3054,-0.05907147,0.31076,0.99766
230.496,29.3534,-0.05906999,0.31072,0.99753
230.996,29.40077,-0.05907025,0.30937,0.99739
231.496,29.44834,-0.06042157,0.31167,0.99726
231.996,29.49565,-0.06147982,0.3122,0.99713
232.496,29.54307,-0.06166811,0.31313,0.997
232.996,29.5904,-0.06302255,0.31342,0.99686
233.496,29.63758,-0.06434286,0.31249,0.99673
233.996,29.68515,-0.06481782,0.3127,0.9966
234.496,29.73266,-0.06625226,0.31363,0.99646
234.996,29.78015,-0.06698003,0.31434,0.99633
235.496,29.8276,-0.06693503,0.31598,0.99619
235.996,29.87462,-0.0682931,0.31777,0.99606
236.496,29.9219,-0.0696857,0.31913,0.99592
236.996,29.9694,-0.06961857,0.31796,0.99579
237.496,30.01673,-0.0709245,0.31851,0.99565
237.996,30.0644,-0.07197556,0.3182,0.99552
238.496,30.11208,-0.07356213,0.3177,0.99538
238.996,30.1596,-0.07487086,0.31883,0.99524
239.496,30.20707,-0.07617128,0.32133,0.9951
239.996,30.25481,-0.07756036,0.32103,0.99497
240.496,30.3024,-0.07836282,0.32254,0.99483
240.996,30.34992,-0.0788177,0.32249,0.99469
241.496,30.3974,-0.07877696,0.32295,0.99455
241.996,30.445,-0.08010163,0.32307,0.99441
242.496,30.4925,-0.08278769,0.32566,0.99427
242.996,30.5401,-0.08409292,0.32613,0.99413
243.496,30.5877,-0.08523451,0.32614,0.99399
243.996,30.63512,-0.08773332,0.32634,0.99385
244.496,30.68249,-0.08946486,0.32829,0.99371
244.996,30.7301,-0.09067856,0.32898,0.99357
245.496,30.77755,-0.09227283,0.32875,0.99343
245.996,30.825,-0.09443583,0.32906,0.99328
246.496,30.87258,-0.09668152,0.32755,0.99314
246.996,30.9201,-0.09749363,0.32879,0.993
247.496,30.96775,-0.09928601,0.32866,0.99286
247.996,31.01525,-0.1012,0.33009,0.99271
248.496,31.06268,-0.10261,0.33048,0.99257
248.996,31.1102,-0.10377,0.33128,0.99242
249.496,31.1578,-0.10567,0.3312,0.99228
249.996,31.2053,-0.10705,0.33272,0.99213
250.496,31.25305,-0.10861,0.33366,0.99199
250.996,31.3006,-0.11017,0.33436,0.99184
251.496,31.3481,-0.11251,0.33316,0.9917
251.996,31.3956,-0.11493,0.33429,0.99155
252.496,31.44312,-0.11849,0.33365,0.9914
252.996,31.4906,-0.12105,0.33514,0.99126
253.496,31.53787,-0.12276,0.3361,0.99111
253.996,31.5853,-0.12407,0.33742,0.99096
254.496,31.6327,-0.12552,0.33848,0.99081
254.996,31.68,-0.12768,0.33955,0.99066
255.496,31.7274,-0.12928,0.33801,0.99052
255.996,31.77492,-0.1306,0.34016,0.99037
256.496,31.8223,-0.13365,0.34085,0.99022
256.996,31.8698,-0.13645,0.33898,0.99007
257.496,31.91747,-0.1395,0.34068,0.98992
257.996,31.96523,-0.14239,0.34349,0.98977
258.496,32.0129,-0.14415,0.34436,0.98961
258.996,32.0605,-0.14726,0.34475,0.98946
259.496,32.10807,-0.14979,0.34467,0.98931
259.996,32.15555,-0.15329,0.34566,0.98916
260.496,32.2031,-0.15375,0.34609,0.98901
260.996,32.25067,-0.15657,0.34767,0.98885
261.496,32.2982,-0.16129,0.34877,0.9887
261.996,32.3457,-0.16389,0.34765,0.98854
262.496,32.3932,-0.16588,0.34989,0.98839
262.996,32.44027,-0.16832,0.35059,0.98824
263.496,32.48787,-0.1721,0.35108,0.98808
263.996,32.53561,-0.17592,0.35052,0.98793
264.496,32.58324,-0.17762,0.35167,0.98777
264.996,32.63118,-0.18064,0.35112,0.98761
265.496,32.6788,-0.18608,0.35396,0.98746
265.996,32.72631,-0.18971,0.352,0.9873
266.496,32.7739,-0.19339,0.35211,0.98714
266.996,32.82158,-0.19715,0.35223,0.98699
267.496,32.86916,-0.20041,0.35416,0.98683
267.996,32.91707,-0.20375,0.35409,0.98667
268.496,32.96476,-0.20637,0.35449,0.98651
268.996,33.01245,-0.21138,0.35589,0.98635
269.496,33.06006,-0.21607,0.3571,0.98619
269.996,33.10773,-0.22054,0.35748,0.98603
270.496,33.1554,-0.2248,0.35791,0.98587
270.996,33.20317,-0.23049,0.35878,0.98571
271.496,33.25071,-0.2341,0.35853,0.98555
271.996,33.2984,-0.23757,0.35842,0.98539
272.496,33.3459,-0.24332,0.35748,0.98523
272.996,33.39325,-0.24783,0.35887,0.98506
273.496,33.4407,-0.25315,0.35797,0.9849
273.996,33.48832,-0.25745,0.35773,0.98474
274.496,33.53593,-0.26149,0.3581,0.98457
274.996,33.58354,-0.26726,0.35727,0.98441
275.496,33.63139,-0.27273,0.3591,0.98425
275.996,33.67906,-0.27791,0.35829,0.98408
276.496,33.7267,-0.28404,0.36,0.98392
276.996,33.77465,-0.28931,0.36038,0.98375
277.496,33.82237,-0.29499,0.3601,0.98359
277.996,33.87028,-0.30115,0.35965,0.98342
278.496,33.91793,-0.30653,0.35928,0.98325
278.996,33.96552,-0.31283,0.35892,0.98309
279.496,34.01334,-0.31865,0.35785,0.98292
279.996,34.06106,-0.32554,0.35815,0.98275
280.496,34.10884,-0.33149,0.35702,0.98258
280.996,34.1566,-0.33673,0.35722,0.98242
281.496,34.2044,-0.34312,0.35712,0.98225
281.996,34.2522,-0.34927,0.35616,0.98208
282.496,34.2998,-0.35524,0.35481,0.98191
282.996,34.3475,-0.36225,0.35331,0.98174
283.496,34.39529,-0.36965,0.35379,0.98157
283.996,34.44287,-0.37484,0.35399,0.9814
284.496,34.49049,-0.37929,0.35252,0.98122
284.996,34.53817,-0.39028,0.35415,0.98105
285.496,34.5858,-0.39925,0.35108,0.98088
285.996,34.6336,-0.40487,0.35196,0.98071
286.496,34.68125,-0.41158,0.35041,0.98054
286.996,34.72911,-0.41865,0.35004,0.98036
287.496,34.77686,-0.42545,0.34727,0.98019
287.996,34.82441,-0.43204,0.34845,0.98002
288.496,34.87232,-0.4402,0.34494,0.97984
288.996,34.92024,-0.44795,0.34352,0.97967
289.496,34.96798,-0.45511,0.34169,0.97949
289.996,35.01595,-0.46233,0.34293,0.97931
290.496,35.0638,-0.47062,0.34022,0.97914
290.996,35.11135,-0.47897,0.33663,0.97896
291.496,35.159,-0.48714,0.33311,0.97879
291.996,35.20674,-0.49535,0.33287,0.97861
292.496,35.25444,-0.50276,0.33012,0.97843
292.996,35.30237,-0.51033,0.32687,0.97825
293.496,35.35037,-0.51814,0.32361,0.97807
293.996,35.39835,-0.52644,0.32213,0.9779
294.496,35.44621,-0.53428,0.31839,0.97772
294.996,35.494,-0.54421,0.31325,0.97754
295.496,35.5417,-0.55194,0.30977,0.97736
295.996,35.58951,-0.55939,0.30724,0.97718
296.496,35.6372,-0.567,0.30362,0.977
296.996,35.6852,-0.57551,0.30063,0.97681
297.496,35.73305,-0.58386,0.29859,0.97663
297.996,35.78091,-0.59054,0.29686,0.97645
298.496,35.82877,-0.6011,0.2915,0.97627
298.996,35.87631,-0.61239,0.28751,0.97608
299.496,35.92414,-0.62052,0.28711,0.9759
299.996,35.97197,-0.62869,0.28749,0.97572
300.496,36.01998,-0.63752,0.28572,0.97553
300.996,36.0679,-0.64563,0.283,0.97535
301.496,36.11596,-0.65454,0.28479,0.97516
301.996,36.16382,-0.6642,0.28398,0.97498
302.496,36.2117,-0.67212,0.28369,0.97479
302.996,36.2595,-0.68023,0.28622,0.97461
303.496,36.30729,-0.68894,0.28473,0.97442
303.996,36.35521,-0.69828,0.28745,0.97423
304.496,36.4033,-0.70783,0.28656,0.97405
304.996,36.4511,-0.71593,0.28841,0.97386
305.496,36.49896,-0.72548,0.29006,0.97367
305.996,36.54692,-0.73459,0.29178,0.97348
306.496,36.59486,-0.74369,0.29287,0.97329
306.996,36.6426,-0.7527,0.29363,0.9731
307.496,36.6905,-0.76125,0.29666,0.97291
307.996,36.73838,-0.77065,0.29908,0.97272
308.496,36.78613,-0.77891,0.3004,0.97253
308.996,36.83412,-0.7892,0.3005,0.97234
309.496,36.8822,-0.79859,0.30538,0.97215
309.996,36.9303,-0.80717,0.30715,0.97196
310.496,36.97837,-0.81616,0.30971,0.97176
310.996,37.02646,-0.8267,0.31291,0.97157
311.496,37.07439,-0.83655,0.3142,0.97138
311.996,37.1224,-0.84677,0.31724,0.97118
312.496,37.1704,-0.85573,0.31983,0.97099
312.996,37.21833,-0.86345,0.32087,0.97079
313.496,37.26645,-0.87369,0.32384,0.9706
313.996,37.3145,-0.88557,0.32607,0.9704
314.496,37.36228,-0.89456,0.32858,0.97021
314.996,37.4104,-0.90393,0.3321,0.97001
315.496,37.45843,-0.91414,0.33523,0.96982
315.996,37.50639,-0.92399,0.33865,0.96962
316.496,37.55449,-0.93363,0.34024,0.96942
316.996,37.6026,-0.94292,0.34369,0.96922
317.496,37.6507,-0.95359,0.34465,0.96902
317.996,37.6987,-0.96414,0.34735,0.96883
318.496,37.74682,-0.97316,0.35146,0.96863
318.996,37.79497,-0.98229,0.35564,0.96843
319.496,37.84271,-0.99195,0.35633,0.96823
319.996,37.89059,-1.00325,0.35781,0.96803
320.496,37.9388,-1.01371,0.3617,0.96783
320.996,37.98709,-1.02441,0.36647,0.96762
321.496,38.03536,-1.03443,0.36889,0.96742
321.996,38.0841,-1.04257,0.37317,0.96722
322.496,38.1321,-1.05338,0.37787,0.96702
322.996,38.18015,-1.06471,0.37844,0.96681
323.496,38.2284,-1.07367,0.38165,0.96661
323.996,38.27648,-1.08412,0.38506,0.96641
324.496,38.32461,-1.09455,0.3872,0.9662
324.996,38.37274,-1.10565,0.39084,0.966
325.496,38.42086,-1.11586,0.3946,0.96579
325.996,38.46907,-1.12692,0.39828,0.96559
326.496,38.51741,-1.13842,0.40024,0.96538
326.996,38.56583,-1.14904,0.40521,0.96517
327.496,38.61405,-1.1595,0.4084,0.96497
327.996,38.66225,-1.17146,0.40977,0.96476
328.496,38.71035,-1.1821,0.41247,0.96455
328.996,38.75841,-1.19295,0.41793,0.96434
329.496,38.80643,-1.20378,0.42104,0.96414
329.996,38.85454,-1.21488,0.42536,0.96393
330.496,38.9027,-1.22598,0.42725,0.96372
330.996,38.95048,-1.23715,0.43191,0.96351
331.496,38.99872,-1.2482,0.43589,0.9633
331.996,39.04704,-1.26026,0.43923,0.96309
332.496,39.0953,-1.27179,0.44268,0.96287
332.996,39.14386,-1.2844,0.44843,0.96266
333.496,39.19218,-1.29606,0.45143,0.96245
333.996,39.2404,-1.30794,0.45383,0.96224
334.496,39.28861,-1.31982,0.45717,0.96203
334.996,39.3368,-1.33185,0.46332,0.96181
335.496,39.38518,-1.34523,0.46702,0.9616
335.996,39.43352,-1.35845,0.47126,0.96138
336.496,39.4818,-1.36977,0.47627,0.96117
336.996,39.52998,-1.38326,0.47953,0.96095
337.496,39.5781,-1.39584,0.48613,0.96074
337.996,39.62631,-1.40819,0.48836,0.96052
338.496,39.6746,-1.42105,0.49403,0.96031
338.996,39.72315,-1.43482,0.49993,0.96009
339.496,39.77143,-1.44843,0.5052,0.95987
339.996,39.82,-1.46165,0.50853,0.95965
340.496,39.8684,-1.4773,0.51421,0.95944
340.996,39.91656,-1.48966,0.51854,0.95922
341.496,39.96471,-1.5036,0.52428,0.959
341.996,40.01315,-1.51825,0.52859,0.95878
342.496,40.0614,-1.53273,0.53391,0.95856
342.996,40.10982,-1.54864,0.53939,0.95834
343.496,40.15845,-1.5636,0.54497,0.95812
343.996,40.20674,-1.5776,0.55145,0.9579
344.496,40.2553,-1.59148,0.55668,0.95767
344.996,40.3036,-1.60713,0.56193,0.95745
345.496,40.3519,-1.62395,0.56757,0.95723
345.996,40.40028,-1.63936,0.57516,0.95701
346.496,40.4486,-1.65544,0.58088,0.95678
346.996,40.49688,-1.67063,0.58827,0.95656
347.496,40.5454,-1.68762,0.59225,0.95633
347.996,40.59348,-1.70428,0.5971,0.95611
348.496,40.64188,-1.71999,0.60265,0.95588
348.996,40.69027,-1.7362,0.60824,0.95566
349.496,40.7387,-1.75325,0.61261,0.95543
349.996,40.78714,-1.77167,0.62102,0.9552
350.496,40.83551,-1.78846,0.6248,0.95498
350.996,40.8839,-1.80548,0.62987,0.95475
351.496,40.93203,-1.8228,0.63256,0.95452
351.996,40.9803,-1.84133,0.63983,0.95429
352.496,41.0285,-1.85977,0.64545,0.95406
352.996,41.0767,-1.87758,0.64883,0.95383
353.496,41.1252,-1.89523,0.65278,0.9536
353.996,41.17355,-1.91382,0.65941,0.95337
354.496,41.22208,-1.93286,0.66307,0.95314
354.996,41.27037,-1.95242,0.66613,0.95291
355.496,41.31857,-1.97071,0.67159,0.95268
355.996,41.36683,-1.99027,0.67455,0.95245
356.496,41.41509,-2.00942,0.6783,0.95222
356.996,41.46327,-2.02909,0.68086,0.95198
357.496,41.51167,-2.04902,0.68289,0.95175
357.996,41.55995,-2.06852,0.68264,0.95152
358.496,41.6083,-2.08807,0.68492,0.95128
358.996,41.65692,-2.10817,0.68625,0.95105
359.496,41.70511,-2.12913,0.68831,0.95081
359.996,41.75334,-2.14856,0.68814,0.95058
360.496,41.8017,-2.16869,0.68999,0.95034
360.996,41.84962,-2.18739,0.68768,0.9501
361.496,41.8979,-2.20686,0.68465,0.94987
361.996,41.94627,-2.22865,0.68336,0.94963
362.496,41.9944,-2.2488,0.68048,0.94939
362.996,42.04265,-2.26862,0.68004,0.94915
363.496,42.0912,-2.28762,0.67557,0.94891
363.996,42.1395,-2.30785,0.6708,0.94867
364.496,42.18782,-2.32841,0.66442,0.94843
364.996,42.23614,-2.34772,0.65855,0.94819
365.496,42.28422,-2.36617,0.65001,0.94795
365.996,42.3324,-2.38519,0.64303,0.94771
366.496,42.3805,-2.40505,0.63602,0.94747
366.996,42.42901,-2.42514,0.6257,0.94723
367.496,42.47749,-2.44346,0.61655,0.94699
367.996,42.52564,-2.46124,0.60586,0.94674
368.496,42.57403,-2.47856,0.59321,0.9465
368.996,42.6224,-2.49696,0.58066,0.94626
369.496,42.67071,-2.51485,0.56815,0.94601
369.996,42.71915,-2.53125,0.55094,0.94577
370.496,42.7677,-2.54712,0.53656,0.94552
370.996,42.81623,-2.56319,0.51942,0.94528
371.496,42.86459,-2.57854,0.50539,0.94503
371.996,42.91288,-2.59404,0.4848,0.94478
372.496,42.9612,-2.60775,0.46919,0.94454
372.996,43.00939,-2.62146,0.44762,0.94429
373.496,43.05771,-2.63444,0.42795,0.94404
373.996,43.106,-2.64692,0.40708,0.94379
374.496,43.1543,-2.65923,0.38766,0.94354
374.996,43.20277,-2.67013,0.36779,0.94329
375.496,43.25137,-2.68252,0.34694,0.94304
375.996,43.29974,-2.69263,0.32501,0.94279
376.496,43.34815,-2.70235,0.30428,0.94254
376.996,43.39626,-2.70971,0.28504,0.94229
377.496,43.44451,-2.718,0.26645,0.94204
377.996,43.4927,-2.72601,0.24959,0.94179
378.496,43.5411,-2.73291,0.22834,0.94153
378.996,43.58963,-2.73947,0.20955,0.94128
379.496,43.63813,-2.74605,0.19264,0.94103
379.996,43.68647,-2.75235,0.17708,0.94077
380.496,43.73475,-2.75616,0.1663,0.94052
380.996,43.78307,-2.76031,0.15044,0.94026
381.496,43.8315,-2.76443,0.13998,0.94001
381.996,43.87982,-2.76751,0.13021,0.93975
382.496,43.92835,-2.77056,0.11999,0.9395
382.996,43.9767,-2.77316,0.11072,0.93924
383.496,44.02519,-2.77809,0.10248,0.93898
383.996,44.07349,-2.78098,0.09924279,0.93872
384.496,44.12185,-2.78321,0.0891136,0.93847
384.996,44.1703,-2.78532,0.0847579,0.93821
385.496,44.2188,-2.78809,0.08411193,0.93795
385.996,44.2673,-2.78955,0.07988211,0.93769
386.496,44.31573,-2.78972,0.07571797,0.93743
386.996,44.36412,-2.79252,0.07363239,0.93717
387.496,44.41267,-2.79376,0.07278688,0.93691
387.996,44.4611,-2.79512,0.06968801,0.93665
388.496,44.50947,-2.79724,0.06953527,0.93638
388.996,44.55785,-2.79789,0.06769152,0.93612
389.496,44.60635,-2.79992,0.06651784,0.93586
389.996,44.65462,-2.80304,0.0680081,0.9356
390.496,44.7032,-2.80441,0.06587755,0.93533
390.996,44.752,-2.80568,0.06550289,0.93507
391.496,44.80065,-2.80705,0.06506639,0.9348
391.996,44.8495,-2.80703,0.06359621,0.93454
392.496,44.8981,-2.8099,0.06219389,0.93427
392.996,44.94628,-2.81115,0.06345409,0.93401
393.496,44.99471,-2.81124,0.06264323,0.93374
393.996,45.0432,-2.81262,0.06313995,0.93347
394.496,45.09165,-2.81408,0.0629774,0.9332
394.996,45.14069,-2.81537,0.06091076,0.93294
395.496,45.1894,-2.81605,0.06200306,0.93267
395.996,45.23796,-2.81737,0.06057313,0.9324
396.496,45.28645,-2.81868,0.06066417,0.93213
396.996,45.33506,-2.82096,0.06083898,0.93186
397.496,45.38363,-2.82128,0.06094344,0.93159
397.996,45.43229,-2.82265,0.06044401,0.93132
398.496,45.481,-2.82413,0.05988452,0.93105
398.996,45.5292,-2.82537,0.06047019,0.93078
399.496,45.5775,-2.82665,0.05926855,0.9305
399.996,45.62611,-2.82812,0.05967056,0.93023
400.496,45.67468,-2.82862,0.05994551,0.92996
400.996,45.72361,-2.82984,0.05918452,0.92968
401.496,45.77259,-2.831,0.06073782,0.92941
401.996,45.8212,-2.83228,0.06096736,0.92914
402.496,45.86981,-2.83404,0.06045004,0.92886
402.996,45.91836,-2.83506,0.0595931,0.92858
403.496,45.96687,-2.83636,0.06192421,0.92831
403.996,46.0154,-2.83766,0.06191232,0.92803
404.496,46.06393,-2.83897,0.06173248,0.92776
404.996,46.11254,-2.84035,0.06045219,0.92748
405.496,46.16111,-2.84166,0.06108246,0.9272
405.996,46.20981,-2.84294,0.06239928,0.92692
406.496,46.2583,-2.84296,0.06033661,0.92664
406.996,46.30707,-2.84426,0.05989761,0.92636
407.496,46.35573,-2.84422,0.06125383,0.92608
407.996,46.4043,-2.84562,0.06212567,0.9258
408.496,46.45277,-2.84703,0.06227375,0.92552
408.996,46.5013,-2.84832,0.06209813,0.92524
409.496,46.5499,-2.84964,0.06332945,0.92496
409.996,46.5987,-2.8521,0.06381768,0.92468
410.496,46.6475,-2.85296,0.06560964,0.9244
410.996,46.69638,-2.85426,0.06511496,0.92411
411.496,46.74512,-2.85417,0.06640286,0.92383
411.996,46.7939,-2.85559,0.06845434,0.92354
412.496,46.84255,-2.85695,0.06829196,0.92326
412.996,46.8914,-2.85831,0.06902565,0.92298
413.496,46.94032,-2.85964,0.06993222,0.92269
413.996,46.989,-2.86099,0.07012602,0.9224
414.496,47.0377,-2.86242,0.07184127,0.92212
414.996,47.08633,-2.86123,0.07213311,0.92183
415.496,47.13508,-2.86233,0.07321723,0.92154
415.996,47.18379,-2.86402,0.0715096,0.92126
416.496,47.23225,-2.86487,0.07384315,0.92097
416.996,47.28117,-2.86642,0.07489731,0.92068
417.496,47.3301,-2.86733,0.07732068,0.92039
417.996,47.37885,-2.86823,0.07876593,0.9201
418.496,47.42785,-2.86981,0.07831111,0.91981
418.996,47.47658,-2.87094,0.0795845,0.91952
419.496,47.5254,-2.87184,0.08134375,0.91923
419.996,47.57425,-2.87227,0.08331372,0.91894
420.496,47.6231,-2.87367,0.08439279,0.91864
420.996,47.67222,-2.87502,0.08587657,0.91835
421.496,47.72122,-2.8763,0.08578072,0.91806
421.996,47.77009,-2.87632,0.08892155,0.91776
422.496,47.8189,-2.87764,0.08794808,0.91747
422.996,47.86772,-2.87896,0.09079266,0.91718
423.496,47.91655,-2.87934,0.09036129,0.91688
423.996,47.96546,-2.88022,0.09186061,0.91659
424.496,48.0145,-2.88159,0.09544595,0.91629
424.996,48.0634,-2.88226,0.09440457,0.91599
425.496,48.11203,-2.88292,0.09820429,0.9157
425.996,48.16085,-2.88423,0.0987699,0.9154
426.496,48.20968,-2.88486,0.09936378,0.9151
426.996,48.25845,-2.8855,0.10063,0.9148
427.496,48.30758,-2.88686,0.10215,0.9145
427.996,48.35655,-2.88818,0.10374,0.9142
428.496,48.4052,-2.88951,0.10407,0.91391
428.996,48.45394,-2.88969,0.10515,0.91361
429.496,48.5028,-2.89081,0.10622,0.9133
429.996,48.5516,-2.89212,0.10809,0.913
430.496,48.6004,-2.89275,0.10856,0.9127
430.996,48.64973,-2.89345,0.11115,0.9124
431.496,48.6988,-2.89428,0.11229,0.9121
431.996,48.7479,-2.89534,0.11511,0.91179
432.496,48.79696,-2.89747,0.11518,0.91149
432.996,48.84605,-2.89872,0.11714,0.91119
433.496,48.89484,-2.89783,0.11848,0.91088
433.996,48.9437,-2.89872,0.11804,0.91058
434.496,48.9925,-2.90137,0.12007,0.91027
434.996,49.04135,-2.9014,0.12336,0.90997
435.496,49.0904,-2.90267,0.12359,0.90966
435.996,49.13943,-2.90267,0.12463,0.90935
436.496,49.18835,-2.90398,0.12829,0.90904
436.996,49.2374,-2.90534,0.13054,0.90874
437.496,49.2864,-2.90659,0.13234,0.90843
437.996,49.33538,-2.90671,0.13519,0.90812
438.496,49.38436,-2.90663,0.13502,0.90781
438.996,49.43329,-2.90677,0.13796,0.9075
439.496,49.48234,-2.90794,0.13696,0.90719
439.996,49.5313,-2.90839,0.14077,0.90688
440.496,49.5804,-2.90924,0.1419,0.90657
440.996,49.62944,-2.91153,0.14315,0.90626
441.496,49.67836,-2.91288,0.14453,0.90595
441.996,49.7273,-2.91151,0.14705,0.90563
442.496,49.77644,-2.91219,0.14884,0.90532
442.996,49.82562,-2.91288,0.15192,0.90501
443.496,49.87468,-2.9143,0.15301,0.90469
443.996,49.92414,-2.91562,0.15171,0.90438
444.496,49.97318,-2.91562,0.15365,0.90406
444.996,50.022,-2.91562,0.15667,0.90375
445.496,50.071,-2.91562,0.16093,0.90343
445.996,50.12001,-2.91562,0.16158,0.90311
446.496,50.16899,-2.91835,0.16049,0.9028
446.996,50.21802,-2.9213,0.16384,0.90248
447.496,50.2669,-2.92156,0.1671,0.90216
447.996,50.3159,-2.92144,0.17071,0.90184
448.496,50.36477,-2.92211,0.16935,0.90153
448.996,50.41386,-2.92376,0.17223,0.90121
449.496,50.46328,-2.92369,0.17119,0.90089
449.996,50.51226,-2.92506,0.17458,0.90057
450.496,50.56138,-2.92506,0.17705,0.90025
450.996,50.6104,-2.9264,0.17719,0.89992
451.496,50.6594,-2.92638,0.18086,0.8996
451.996,50.70852,-2.92771,0.18262,0.89928
452.496,50.75732,-2.92755,0.18383,0.89896
452.996,50.8061,-2.92697,0.18396,0.89863
453.496,50.8551,-2.929,0.18822,0.89831
453.996,50.90387,-2.92935,0.19025,0.89799
454.496,50.9527,-2.93033,0.19127,0.89766
454.996,51.002,-2.93032,0.19403,0.89734
455.496,51.05103,-2.93038,0.19555,0.89701
455.996,51.10007,-2.93033,0.19945,0.89669
456.496,51.14927,-2.9313,0.20162,0.89636
456.996,51.1983,-2.93165,0.20523,0.89603
457.496,51.24703,-2.933,0.20789,0.8957
457.996,51.29591,-2.93161,0.2112,0.89538
458.496,51.34492,-2.93252,0.21189,0.89505
458.996,51.39373,-2.93429,0.21465,0.89472
459.496,51.4428,-2.93559,0.21737,0.89439
459.996,51.4919,-2.93558,0.21723,0.89406
460.496,51.5408,-2.93692,0.22121,0.89373
460.996,51.58999,-2.93692,0.22553,0.8934
461.496,51.639,-2.93824,0.22706,0.89307
461.996,51.68807,-2.93824,0.22773,0.89274
462.496,51.73717,-2.93839,0.2292,0.8924
462.996,51.78622,-2.93955,0.23142,0.89207
463.496,51.83531,-2.94044,0.23388,0.89174
463.996,51.88436,-2.94087,0.23281,0.8914
464.496,51.93349,-2.94087,0.23696,0.89107
464.996,51.98258,-2.9422,0.23742,0.89074
465.496,52.03159,-2.94219,0.2383,0.8904
465.996,52.08067,-2.94218,0.24114,0.89007
466.496,52.12962,-2.94351,0.24184,0.88973
466.996,52.17864,-2.94353,0.24408,0.88939
467.496,52.22766,-2.94482,0.24745,0.88906
467.996,52.27659,-2.94356,0.2494,0.88872
468.496,52.32565,-2.94482,0.25279,0.88838
468.996,52.37471,-2.94482,0.25409,0.88804
469.496,52.42383,-2.94626,0.25499,0.8877
469.996,52.473,-2.94746,0.25788,0.88736
470.496,52.5222,-2.94755,0.25836,0.88702
470.996,52.57136,-2.94878,0.26192,0.88668
471.496,52.6205,-2.94874,0.26207,0.88634
471.996,52.66956,-2.94877,0.26411,0.886
472.496,52.7185,-2.94871,0.26598,0.88566
472.996,52.7676,-2.95008,0.26704,0.88532
473.496,52.81657,-2.95187,0.27024,0.88498
473.996,52.8657,-2.95207,0.26936,0.88463
474.496,52.91489,-2.9528,0.27127,0.88429
474.996,52.964,-2.95135,0.27116,0.88394
475.496,53.0132,-2.95273,0.2714,0.8836
475.996,53.06228,-2.95272,0.27657,0.88325
476.496,53.1114,-2.95281,0.27748,0.88291
476.996,53.1604,-2.95404,0.27829,0.88256
477.496,53.2095,-2.95534,0.27923,0.88222
477.996,53.2586,-2.95536,0.28018,0.88187
478.496,53.3079,-2.95536,0.28013,0.88152
478.996,53.35702,-2.9555,0.28282,0.88117
479.496,53.4063,-2.95668,0.28363,0.88083
479.996,53.45554,-2.95797,0.28345,0.88048
480.496,53.50465,-2.95799,0.28406,0.88013
480.996,53.55381,-2.95799,0.28537,0.87978
481.496,53.60278,-2.95802,0.28475,0.87943
481.996,53.6519,-2.95804,0.28529,0.87908
482.496,53.7012,-2.958,0.28463,0.87873
482.996,53.7504,-2.95801,0.28481,0.87837
483.496,53.79975,-2.95998,0.28581,0.87802
483.996,53.8488,-2.95998,0.28819,0.87767
484.496,53.89801,-2.96129,0.28872,0.87732
484.996,53.947,-2.9613,0.29056,0.87696
485.496,53.99609,-2.96242,0.29049,0.87661
485.996,54.0452,-2.96261,0.28968,0.87625
486.496,54.0942,-2.96261,0.29323,0.8759
486.996,54.14331,-2.96398,0.29275,0.87554
487.496,54.1924,-2.96393,0.29604,0.87519
487.996,54.24159,-2.96393,0.29706,0.87483
488.496,54.2908,-2.96393,0.29967,0.87447
488.996,54.3399,-2.96459,0.29971,0.87412
489.496,54.38904,-2.96459,0.30091,0.87376
489.996,54.43809,-2.9659,0.30284,0.8734
490.496,54.4873,-2.96591,0.3044,0.87304
490.996,54.53651,-2.96591,0.30207,0.87268
491.496,54.5858,-2.96762,0.30316,0.87232
491.996,54.63521,-2.96848,0.30451,0.87196
492.496,54.6844,-2.96899,0.30586,0.8716
492.996,54.7337,-2.96887,0.30449,0.87124
493.496,54.78289,-2.96887,0.30463,0.87088
493.996,54.83205,-2.97027,0.3072,0.87052
494.496,54.8813,-2.97019,0.30759,0.87015
494.996,54.93048,-2.97019,0.3076,0.86979
495.496,54.9797,-2.97017,0.30896,0.86943
495.996,55.029,-2.97151,0.30778,0.86906
496.496,55.07816,-2.97151,0.30863,0.8687
496.996,55.1275,-2.97151,0.30718,0.86833
497.496,55.177,-2.97151,0.30857,0.86797
497.996,55.2265,-2.97252,0.31021,0.8676
498.496,55.2758,-2.97282,0.3085,0.86724
498.996,55.3252,-2.97334,0.30814,0.86687
499.496,55.37445,-2.97381,0.30819,0.8665
499.996,55.42375,-2.9738,0.30876,0.86614
500.496,55.47319,-2.97514,0.30902,0.86577
500.996,55.52235,-2.975,0.31016,0.8654
501.496,55.57167,-2.97447,0.30982,0.86503
501.996,55.621,-2.97447,0.31076,0.86466
502.496,55.6703,-2.97579,0.31082,0.86429
502.996,55.71963,-2.97579,0.31028,0.86392
503.496,55.76888,-2.97579,0.31264,0.86355
503.996,55.81811,-2.9771,0.31176,0.86318
504.496,55.86733,-2.97709,0.31139,0.86281
504.996,55.9167,-2.97677,0.31155,0.86243
505.496,55.96601,-2.97735,0.31196,0.86206
505.996,56.0154,-2.97809,0.31358,0.86169
506.496,56.06469,-2.9781,0.31332,0.86131
506.996,56.114,-2.9794,0.31494,0.86094
507.496,56.1633,-2.97941,0.31508,0.86056
507.996,56.2126,-2.97941,0.31727,0.86019
508.496,56.26181,-2.98072,0.31703,0.85981
508.996,56.3105,-2.98072,0.31435,0.85944
509.496,56.3598,-2.98071,0.31382,0.85906
509.996,56.40909,-2.98171,0.31753,0.85868
510.496,56.4585,-2.98171,0.31923,0.85831
510.996,56.5082,-2.9817,0.31761,0.85793
511.496,56.55757,-2.9817,0.31809,0.85755
511.996,56.60677,-2.98237,0.3203,0.85717
512.496,56.65599,-2.98303,0.32042,0.85679
512.996,56.7052,-2.98303,0.32232,0.85641
513.496,56.7544,-2.98303,0.32014,0.85603
513.996,56.80384,-2.98432,0.32391,0.85565
514.496,56.8533,-2.98438,0.32206,0.85527
514.996,56.90263,-2.98566,0.32183,0.85489
515.496,56.95202,-2.98566,0.32127,0.8545
515.996,57.00108,-2.98564,0.3223,0.85412
516.496,57.05036,-2.98566,0.32556,0.85374
516.996,57.0998,-2.98566,0.32526,0.85336
517.496,57.14906,-2.98657,0.32567,0.85297
517.996,57.19849,-2.98698,0.32584,0.85259
518.496,57.24791,-2.98716,0.32811,0.8522
518.996,57.29727,-2.9883,0.32831,0.85182
519.496,57.3467,-2.98828,0.33003,0.85143
519.996,57.3961,-2.98811,0.32893,0.85104
520.496,57.4455,-2.9882,0.3298,0.85066
520.996,57.4949,-2.98929,0.33071,0.85027
521.496,57.5437,-2.98961,0.33056,0.84988
521.996,57.59315,-2.9906,0.33165,0.84949
522.496,57.6426,-2.9906,0.33277,0.84911
522.996,57.692,-2.9906,0.33666,0.84872
523.496,57.742,-2.99193,0.33488,0.84833
523.996,57.79164,-2.99192,0.33527,0.84794
524.496,57.84104,-2.99192,0.33335,0.84755
524.996,57.89056,-2.99153,0.33509,0.84716
525.496,57.94,-2.99192,0.33568,0.84677
525.996,57.9894,-2.99192,0.337,0.84637
526.496,58.0388,-2.99324,0.33781,0.84598
526.996,58.08843,-2.99324,0.33782,0.84559
527.496,58.1379,-2.99324,0.33785,0.8452
527.996,58.1875,-2.99369,0.33605,0.8448
528.496,58.23715,-2.99455,0.33942,0.84441
528.996,58.28679,-2.99446,0.33863,0.84401
529.496,58.3364,-2.99587,0.33847,0.84362
529.996,58.38613,-2.99587,0.33858,0.84322
530.496,58.4357,-2.99586,0.33865,0.84283
530.996,58.4853,-2.9972,0.34212,0.84243
531.496,58.53479,-2.99614,0.34103,0.84203
531.996,58.584,-2.9962,0.34099,0.84164
532.496,58.6335,-2.9962,0.34059,0.84124
532.996,58.68319,-2.99617,0.34249,0.84084
533.496,58.7328,-2.99752,0.34519,0.84044
533.996,58.7827,-2.99752,0.34531,0.84004
534.496,58.83235,-2.99752,0.34566,0.83964
534.996,58.8816,-2.99887,0.34616,0.83924
535.496,58.9309,-2.99883,0.34717,0.83884
535.996,58.98033,-2.99883,0.34765,0.83844
536.496,59.02985,-2.99851,0.34983,0.83804
536.996,59.0792,-2.99984,0.34906,0.83764
537.496,59.12908,-2.99983,0.35056,0.83724
537.996,59.17853,-2.99983,0.35097,0.83683
538.496,59.2277,-3.00117,0.35208,0.83643
538.996,59.2774,-3.00013,0.3516,0.83603
539.496,59.327,-3.00016,0.35458,0.83562
539.996,59.3767,-3.00017,0.35319,0.83522
540.496,59.4268,-3.00142,0.35627,0.83481
540.996,59.47648,-3.00316,0.35566,0.83441
541.496,59.52621,-3.0041,0.35499,0.834
541.996,59.5758,-3.00316,0.35545,0.8336
542.496,59.6253,-3.00279,0.35775,0.83319
542.996,59.67455,-3.00279,0.35768,0.83278
543.496,59.72379,-3.00279,0.35872,0.83237
543.996,59.77332,-3.00276,0.35948,0.83197
544.496,59.8228,-3.00147,0.35983,0.83156
544.996,59.87236,-3.00287,0.3607,0.83115
545.496,59.9223,-3.00279,0.36066,0.83074
545.996,59.9719,-3.00275,0.3635,0.83033
546.496,60.02134,-3.00411,0.36233,0.82992
546.996,60.07076,-3.00478,0.3631,0.82951
547.496,60.1203,-3.00477,0.36304,0.8291
547.996,60.16981,-3.00607,0.36413,0.82869
548.496,60.2195,-3.00608,0.36201,0.82827
548.996,60.2695,-3.00608,0.36403,0.82786
549.496,60.3191,-3.00741,0.36563,0.82745
549.996,60.36871,-3.00609,0.36417,0.82704
550.496,60.41831,-3.00608,0.36413,0.82662
550.996,60.4677,-3.00739,0.36512,0.82621
551.496,60.51739,-3.00861,0.36567,0.82579
551.996,60.567,-3.00872,0.36538,0.82538
552.496,60.61651,-3.00733,0.36685,0.82496
552.996,60.6662,-3.00879,0.36466,0.82455
553.496,60.7158,-3.01004,0.36871,0.82413
553.996,60.7652,-3.01004,0.36892,0.82371
554.496,60.8147,-3.01007,0.3681,0.8233
554.996,60.86411,-3.01003,0.36575,0.82288
555.496,60.91364,-3.01002,0.36818,0.82246
555.996,60.96314,-3.01136,0.37016,0.82204
556.496,61.0126,-3.01136,0.36889,0.82162
556.996,61.0624,-3.01136,0.36948,0.8212
557.496,61.11189,-3.01135,0.36771,0.82078
557.996,61.16155,-3.01135,0.36858,0.82036
558.496,61.2113,-3.01176,0.37037,0.81994
558.996,61.2608,-3.01234,0.37032,0.81952
559.496,61.3103,-3.01267,0.37071,0.8191
559.996,61.35989,-3.01267,0.37207,0.81868
560.496,61.4094,-3.01267,0.37197,0.81825
560.996,61.45887,-3.01268,0.37035,0.81783
561.496,61.50858,-3.0134,0.37158,0.81741
561.996,61.55831,-3.01333,0.37158,0.81698
562.496,61.60801,-3.01333,0.37407,0.81656
562.996,61.6578,-3.01332,0.37319,0.81613
563.496,61.70749,-3.01464,0.37189,0.81571
563.996,61.7571,-3.01439,0.37254,0.81528
564.496,61.80669,-3.01398,0.37271,0.81486
564.996,61.85638,-3.01401,0.3729,0.81443
565.496,61.90599,-3.0153,0.3741,0.814
565.996,61.95567,-3.01421,0.37389,0.81358
566.496,62.00549,-3.01399,0.37452,0.81315
566.996,62.05509,-3.01527,0.37389,0.81272
567.496,62.1045,-3.01667,0.37541,0.81229
567.996,62.15375,-3.01669,0.37563,0.81186
568.496,62.20332,-3.0153,0.37617,0.81143
568.996,62.25252,-3.01664,0.37411,0.811
569.496,62.30236,-3.01663,0.37425,0.81057
569.996,62.3523,-3.01665,0.37416,0.81014
570.496,62.40191,-3.01794,0.37418,0.80971
570.996,62.4519,-3.01808,0.37668,0.80928
571.496,62.50141,-3.01925,0.37621,0.80885
571.996,62.551,-3.01925,0.37851,0.80842
572.496,62.60029,-3.01926,0.37816,0.80798
572.996,62.64988,-3.01926,0.37767,0.80755
573.496,62.69945,-3.01926,0.37927,0.80712
573.996,62.7491,-3.01926,0.37761,0.80668
574.496,62.79923,-3.01796,0.37849,0.80625
574.996,62.84896,-3.01926,0.3816,0.80581
575.496,62.8986,-3.01927,0.38165,0.80538
575.996,62.94826,-3.02078,0.38064,0.80494
576.496,62.99804,-3.0219,0.38138,0.80451
576.996,63.04779,-3.0219,0.38228,0.80407
577.496,63.09751,-3.02095,0.38418,0.80363
577.996,63.1473,-3.02091,0.38428,0.80319
578.496,63.19684,-3.02225,0.38529,0.80276
578.996,63.2465,-3.02222,0.38445,0.80232
579.496,63.29615,-3.02222,0.38611,0.80188
579.996,63.34562,-3.02222,0.3866,0.80144
580.496,63.3953,-3.02363,0.38712,0.801
580.996,63.44511,-3.02354,0.38695,0.80056
581.496,63.49487,-3.02354,0.38772,0.80012
581.996,63.54473,-3.02397,0.38767,0.79968
582.496,63.5945,-3.02486,0.38592,0.79924
582.996,63.64419,-3.02489,0.39006,0.7988
583.496,63.69393,-3.02453,0.39017,0.79835
583.996,63.74363,-3.02453,0.39139,0.79791
584.496,63.79335,-3.02455,0.39035,0.79747
584.996,63.8431,-3.02585,0.39232,0.79703
585.496,63.8927,-3.02563,0.39159,0.79658
585.996,63.94249,-3.024,0.3945,0.79614
586.496,63.9923,-3.02486,0.39318,0.79569
586.996,64.04207,-3.02568,0.39478,0.79525
587.496,64.09188,-3.02581,0.39316,0.7948
587.996,64.14165,-3.02593,0.39809,0.79436
588.496,64.19096,-3.02683,0.39699,0.79391
588.996,64.24075,-3.02684,0.39683,0.79346
589.496,64.29046,-3.02617,0.39947,0.79302
589.996,64.34017,-3.02717,0.40017,0.79257
590.496,64.39024,-3.02749,0.40016,0.79212
590.996,64.43996,-3.02881,0.39894,0.79167
591.496,64.4896,-3.02881,0.40136,0.79123
591.996,64.53926,-3.02782,0.40251,0.79078
592.496,64.58865,-3.02782,0.40213,0.79033
592.996,64.6384,-3.02902,0.40225,0.78988
593.496,64.68806,-3.02913,0.40259,0.78943
593.996,64.73787,-3.02913,0.40542,0.78898
594.496,64.78785,-3.02913,0.40644,0.78853
594.996,64.83758,-3.02948,0.40301,0.78807
595.496,64.88747,-3.02998,0.40243,0.78762
595.996,64.93717,-3.03045,0.40625,0.78717
596.496,64.98699,-3.03045,0.40829,0.78672
596.596,64.9964,-3.03045,0.40858,0.78663