File: 01_Data/Excelsior/STA/N2/10K_min/Excelsior_STA_N2_10KData_2269_R1.csv
##Temp./Â°C,Time/min,Mass loss(subtr.2)/mg,DSC(subtr.2)/(mW/mg),Sensit./(uV/mW)
50.321,10.00917,-0.00395,0.007393106,1.02683
51.021,10.8444,-0.00423604,0.03550353,1.02677
51.721,11.07962,-0.00426813,0.05564594,1.02671
52.421,11.25607,-0.00321562,0.0711701,1.02665
53.121,11.40783,-0.005641665,0.08351147,1.02658
53.821,11.54229,-0.004160237,0.09570605,1.02652
54.521,11.66526,-0.005009876,0.10576,1.02646
55.221,11.7822,-0.005014328,0.11642,1.0264
55.921,11.89415,-0.00392732,0.12477,1.02634
56.621,12.00108,-0.004505813,0.13004,1.02628
57.321,12.10466,-0.0025352,0.13677,1.02621
58.021,12.20532,-0.004353104,0.14434,1.02615
58.721,12.30315,-0.004473839,0.14591,1.02609
59.421,12.39932,-0.006149341,0.15465,1.02602
60.121,12.49354,-0.00624383,0.15913,1.02596
60.821,12.58635,-0.00620034,0.16334,1.02589
61.521,12.67775,-0.006514654,0.16522,1.02583
62.221,12.76757,-0.007595951,0.1702,1.02576
62.921,12.85656,-0.00631612,0.1744,1.0257
63.621,12.94468,-0.006835644,0.17971,1.02563
64.321,13.03148,-0.00615796,0.18239,1.02557
65.021,13.1176,-0.005601447,0.18674,1.0255
65.721,13.2025,-0.00598847,0.18855,1.02543
66.421,13.2867,-0.007056714,0.19258,1.02537
67.121,13.3706,-0.00813998,0.19807,1.0253
67.821,13.45399,-0.008350185,0.20049,1.02523
68.521,13.53656,-0.0083485,0.20583,1.02516
69.221,13.61861,-0.008719431,0.20691,1.02509
69.921,13.70001,-0.008379739,0.20962,1.02503
70.621,13.78115,-0.009641693,0.21305,1.02496
71.321,13.86159,-0.00971323,0.21666,1.02489
72.021,13.94134,-0.00860152,0.22255,1.02482
72.721,14.0205,-0.009662178,0.22504,1.02475
73.421,14.0991,-0.009659934,0.22504,1.02468
74.121,14.1777,-0.009655737,0.22832,1.02461
74.821,14.25531,-0.01096888,0.23206,1.02454
75.521,14.33301,-0.01099976,0.23433,1.02446
76.221,14.4105,-0.01097173,0.23454,1.02439
76.921,14.48789,-0.01097492,0.23707,1.02432
77.621,14.56485,-0.01258912,0.24022,1.02425
78.321,14.64088,-0.01279034,0.24182,1.02418
79.021,14.71631,-0.01335529,0.24221,1.0241
79.721,14.7922,-0.01253536,0.24359,1.02403
80.421,14.86845,-0.01453629,0.24348,1.02395
81.121,14.94401,-0.01486188,0.24621,1.02388
81.821,15.01876,-0.01493158,0.24901,1.02381
82.521,15.0931,-0.01493849,0.25023,1.02373
83.221,15.1675,-0.01624939,0.24977,1.02366
83.921,15.2416,-0.01625002,0.25227,1.02358
84.621,15.3154,-0.01561098,0.24999,1.0235
85.321,15.38926,-0.01592792,0.25073,1.02343
86.021,15.4627,-0.01762181,0.25134,1.02335
86.721,15.53592,-0.01761177,0.24934,1.02327
87.421,15.60856,-0.01756728,0.25179,1.0232
88.121,15.68128,-0.01783451,0.24964,1.02312
88.821,15.7536,-0.01758208,0.24999,1.02304
89.521,15.82569,-0.01784763,0.2503,1.02296
90.221,15.89739,-0.01888017,0.24974,1.02288
90.921,15.96887,-0.01887708,0.24846,1.0228
91.621,16.0402,-0.01888505,0.24834,1.02272
92.321,16.1116,-0.02019992,0.24801,1.02264
93.021,16.18297,-0.0211681,0.24957,1.02256
93.721,16.25402,-0.02150716,0.24795,1.02248
94.421,16.32481,-0.02020085,0.24645,1.0224
95.121,16.39534,-0.02009659,0.24392,1.02232
95.821,16.46584,-0.02023487,0.24437,1.02224
96.521,16.5362,-0.02020174,0.24186,1.02215
97.221,16.60644,-0.02151883,0.23896,1.02207
97.921,16.67664,-0.02037545,0.23909,1.02199
98.621,16.7466,-0.02151218,0.23651,1.02191
99.321,16.81628,-0.02151493,0.23376,1.02182
100.021,16.88576,-0.0218884,0.23366,1.02174
100.721,16.9554,-0.02152071,0.23277,1.02165
101.421,17.02475,-0.02151955,0.23159,1.02157
102.121,17.09434,-0.02143895,0.22896,1.02148
102.821,17.16301,-0.02282815,0.23016,1.0214
103.521,17.23216,-0.02285458,0.22863,1.02131
104.221,17.30112,-0.0228503,0.22732,1.02122
104.921,17.371,-0.0241551,0.2245,1.02114
105.621,17.44033,-0.02416095,0.22383,1.02105
106.321,17.50962,-0.02283965,0.22195,1.02096
107.021,17.57801,-0.02415659,0.22132,1.02087
107.721,17.64689,-0.02331041,0.22053,1.02078
108.421,17.7154,-0.02425764,0.21977,1.02069
109.121,17.78406,-0.02316032,0.21828,1.0206
109.821,17.8528,-0.0228345,0.21558,1.02051
110.521,17.92182,-0.02420631,0.21931,1.02042
111.221,17.99125,-0.02310035,0.2161,1.02033
111.921,18.06012,-0.02415038,0.21854,1.02024
112.621,18.12881,-0.02451373,0.21539,1.02015
113.321,18.19718,-0.02414864,0.21616,1.02006
114.021,18.2655,-0.02413268,0.21497,1.01996
114.721,18.33391,-0.02415626,0.21528,1.01987
115.421,18.40267,-0.02282949,0.21507,1.01978
116.121,18.47125,-0.02279236,0.21505,1.01968
116.821,18.53959,-0.0228386,0.21765,1.01959
117.521,18.60792,-0.02285513,0.2161,1.0195
118.221,18.67614,-0.02415988,0.21655,1.0194
118.921,18.74445,-0.02555563,0.21588,1.01931
119.621,18.81246,-0.02547033,0.21776,1.01921
120.321,18.8805,-0.02414552,0.21656,1.01911
121.021,18.9485,-0.02419291,0.21568,1.01902
121.721,19.01679,-0.0234895,0.21595,1.01892
122.421,19.08478,-0.02283592,0.21451,1.01882
123.121,19.153,-0.02404738,0.21624,1.01872
123.821,19.22096,-0.02285926,0.21501,1.01862
124.521,19.28892,-0.02284002,0.21597,1.01853
125.221,19.357,-0.02414903,0.2161,1.01843
125.921,19.42517,-0.02415311,0.21521,1.01833
126.621,19.4931,-0.02551095,0.21545,1.01823
127.321,19.56083,-0.02415144,0.21789,1.01812
128.021,19.6283,-0.02348922,0.2176,1.01802
128.721,19.6962,-0.0239749,0.21724,1.01792
129.421,19.76399,-0.02419762,0.21626,1.01782
130.121,19.83147,-0.02282807,0.21658,1.01772
130.821,19.8992,-0.02414998,0.21783,1.01761
131.521,19.9668,-0.02414836,0.21796,1.01751
132.221,20.03461,-0.0229199,0.21811,1.01741
132.921,20.10204,-0.02415576,0.21878,1.0173
133.621,20.1694,-0.02445789,0.2174,1.0172
134.321,20.23704,-0.02415,0.21981,1.01709
135.021,20.3047,-0.02416363,0.21969,1.01699
135.721,20.372,-0.02485805,0.21811,1.01688
136.421,20.43927,-0.02415,0.22007,1.01677
137.121,20.50649,-0.02414999,0.21774,1.01667
137.821,20.57394,-0.02423118,0.21868,1.01656
138.521,20.6413,-0.02415036,0.21948,1.01645
139.221,20.70843,-0.02415,0.21994,1.01634
139.921,20.77569,-0.02415004,0.22142,1.01623
140.621,20.84274,-0.02384807,0.22166,1.01612
141.321,20.90997,-0.02284383,0.22213,1.01601
142.021,20.97703,-0.02416608,0.22164,1.0159
142.721,21.044,-0.02351831,0.22155,1.01579
143.421,21.11114,-0.02415017,0.22227,1.01568
144.121,21.17817,-0.02415591,0.22426,1.01557
144.821,21.24524,-0.02415074,0.22452,1.01545
145.521,21.31198,-0.02415,0.2244,1.01534
146.221,21.3786,-0.02415,0.22597,1.01523
146.921,21.4454,-0.02415,0.22651,1.01511
147.621,21.51216,-0.02415001,0.22771,1.015
148.321,21.579,-0.02446947,0.22757,1.01488
149.021,21.64534,-0.02513985,0.22919,1.01477
149.721,21.71186,-0.02434703,0.22753,1.01465
150.421,21.77852,-0.02416,0.22785,1.01454
151.121,21.8455,-0.02419594,0.22809,1.01442
151.821,21.91246,-0.02447331,0.22722,1.0143
152.521,21.97954,-0.02415194,0.22835,1.01418
153.221,22.04646,-0.02520011,0.22852,1.01406
153.921,22.1131,-0.02415015,0.22749,1.01395
154.621,22.17959,-0.02415,0.23166,1.01383
155.321,22.246,-0.02415013,0.23043,1.01371
156.021,22.31264,-0.02535131,0.23246,1.01359
156.721,22.37943,-0.02546889,0.23147,1.01346
157.421,22.44603,-0.02515001,0.23201,1.01334
158.121,22.51279,-0.02514,0.23351,1.01322
158.821,22.57933,-0.02513994,0.2336,1.0131
159.521,22.6462,-0.02555314,0.2337,1.01297
160.221,22.71285,-0.02418537,0.23441,1.01285
160.921,22.77955,-0.02547166,0.23187,1.01273
161.621,22.84614,-0.0267903,0.23317,1.0126
162.321,22.9127,-0.02675751,0.23364,1.01248
163.021,22.9792,-0.02547,0.23509,1.01235
163.721,23.04586,-0.02546951,0.23393,1.01223
164.421,23.11218,-0.02679343,0.23692,1.0121
165.121,23.17885,-0.02745026,0.23521,1.01197
165.821,23.24544,-0.02745,0.23622,1.01184
166.521,23.31242,-0.02742121,0.23637,1.01171
167.221,23.37925,-0.0267972,0.23715,1.01159
167.921,23.4461,-0.02645291,0.23708,1.01146
168.621,23.51275,-0.02765663,0.23867,1.01133
169.321,23.5795,-0.02777,0.23739,1.0112
170.021,23.64623,-0.02776078,0.23982,1.01106
170.721,23.71305,-0.02744126,0.24009,1.01093
171.421,23.77975,-0.02875925,0.24151,1.0108
172.121,23.84639,-0.02745923,0.23877,1.01067
172.821,23.91303,-0.02876898,0.24222,1.01053
173.521,23.97927,-0.02877018,0.24137,1.0104
174.221,24.0457,-0.02614087,0.24339,1.01027
174.921,24.1125,-0.02732544,0.24134,1.01013
175.621,24.17952,-0.02677616,0.24165,1.01
176.321,24.24654,-0.02678653,0.2428,1.00986
177.021,24.31336,-0.02808795,0.24383,1.00972
177.721,24.38008,-0.02743983,0.24443,1.00959
178.421,24.44659,-0.02744001,0.24461,1.00945
179.121,24.51292,-0.02736733,0.24395,1.00931
179.821,24.5792,-0.02876,0.24504,1.00917
180.521,24.64578,-0.02875814,0.24581,1.00903
181.221,24.71246,-0.02744306,0.24593,1.00889
181.921,24.77915,-0.02678971,0.24665,1.00875
182.621,24.8457,-0.02879563,0.2463,1.00861
183.321,24.91222,-0.02875969,0.24579,1.00847
184.021,24.97887,-0.0300787,0.24694,1.00833
184.721,25.0455,-0.03007997,0.24666,1.00818
185.421,25.112,-0.02963595,0.2464,1.00804
186.121,25.17837,-0.02943076,0.24777,1.0079
186.821,25.24493,-0.02876848,0.24872,1.00775
187.521,25.31157,-0.02736302,0.2476,1.00761
188.221,25.37814,-0.02745696,0.24716,1.00746
188.921,25.44458,-0.02879381,0.24818,1.00732
189.621,25.511,-0.02868546,0.24977,1.00717
190.321,25.5774,-0.02875996,0.24994,1.00702
191.021,25.64405,-0.02920795,0.25159,1.00687
191.721,25.71056,-0.03008013,0.24989,1.00672
192.421,25.77686,-0.02877189,0.25106,1.00657
193.121,25.84292,-0.02875997,0.2493,1.00642
193.821,25.90926,-0.03008506,0.25179,1.00627
194.521,25.97575,-0.03008002,0.24934,1.00612
195.221,26.0423,-0.03008,0.25116,1.00597
195.921,26.10866,-0.03008001,0.25116,1.00582
196.621,26.17531,-0.03085649,0.25305,1.00567
197.321,26.2418,-0.03107005,0.2506,1.00551
198.021,26.3084,-0.03138191,0.2551,1.00536
198.721,26.37462,-0.03140695,0.25485,1.0052
199.421,26.441,-0.03007943,0.25398,1.00505
200.121,26.50739,-0.03138921,0.25315,1.00489
200.821,26.57398,-0.03139998,0.25549,1.00474
201.521,26.6404,-0.03144578,0.25435,1.00458
202.221,26.70699,-0.0327117,0.25473,1.00442
202.921,26.7732,-0.03383199,0.25719,1.00426
203.621,26.8397,-0.03271002,0.25783,1.00411
204.321,26.9058,-0.03271,0.25604,1.00395
205.021,26.9722,-0.03271,0.25877,1.00379
205.721,27.0386,-0.03270992,0.25554,1.00363
206.421,27.10525,-0.03407066,0.25745,1.00346
207.121,27.17189,-0.03397729,0.25666,1.0033
207.821,27.23831,-0.03534998,0.25688,1.00314
208.521,27.30463,-0.03542819,0.25759,1.00298
209.221,27.3709,-0.03536284,0.25787,1.00281
209.921,27.4371,-0.03537188,0.25701,1.00265
210.621,27.50364,-0.03535,0.26067,1.00248
211.321,27.57018,-0.03533859,0.25997,1.00232
212.021,27.6365,-0.03633983,0.25945,1.00215
212.721,27.70273,-0.03634,0.26068,1.00198
213.421,27.76892,-0.03634,0.26258,1.00182
214.121,27.83533,-0.03633982,0.26227,1.00165
214.821,27.9017,-0.03665996,0.26437,1.00148
215.521,27.9678,-0.03897072,0.26413,1.00131
216.221,28.03445,-0.03896999,0.26438,1.00114
216.921,28.1007,-0.03900895,0.26441,1.00097
217.621,28.16762,-0.0398311,0.26598,1.0008
218.321,28.23374,-0.04186077,0.26657,1.00062
219.021,28.2999,-0.04194002,0.26803,1.00045
219.721,28.366,-0.04332197,0.2683,1.00028
220.421,28.43265,-0.04325999,0.27094,1.0001
221.121,28.49925,-0.04326003,0.27122,0.99993
221.821,28.5662,-0.04457424,0.27261,0.99975
222.521,28.6326,-0.04457001,0.2723,0.99958
223.221,28.69916,-0.04489971,0.27327,0.9994
223.921,28.7656,-0.04588944,0.27414,0.99922
224.621,28.8316,-0.04590677,0.27412,0.99905
225.321,28.8979,-0.04721012,0.27694,0.99887
226.021,28.96422,-0.04730899,0.27696,0.99869
226.721,29.0312,-0.04817904,0.2781,0.99851
227.421,29.09778,-0.04983726,0.27887,0.99833
228.121,29.16429,-0.05021046,0.28103,0.99815
228.821,29.23085,-0.05249432,0.28168,0.99796
229.521,29.29733,-0.05378508,0.28119,0.99778
230.221,29.3639,-0.05379165,0.28306,0.9976
230.921,29.43042,-0.055115,0.28388,0.99741
231.621,29.4971,-0.05642492,0.28704,0.99723
232.321,29.5634,-0.05642352,0.29038,0.99704
233.021,29.6299,-0.05788928,0.29092,0.99686
233.721,29.6962,-0.05917429,0.2912,0.99667
234.421,29.7628,-0.05916501,0.29458,0.99648
235.121,29.82944,-0.06117305,0.29777,0.9963
235.821,29.89617,-0.06313478,0.29881,0.99611
236.521,29.9629,-0.06442706,0.30054,0.99592
237.221,30.02951,-0.06414012,0.30057,0.99573
237.921,30.09582,-0.06582391,0.30302,0.99554
238.621,30.1622,-0.06834276,0.30556,0.99534
239.321,30.22894,-0.06970937,0.30704,0.99515
240.021,30.29573,-0.07283926,0.30902,0.99496
240.721,30.3622,-0.07384507,0.30887,0.99477
241.421,30.4287,-0.07572571,0.30995,0.99457
242.121,30.49517,-0.07854779,0.31114,0.99438
242.821,30.56178,-0.08048417,0.31456,0.99418
243.521,30.6284,-0.08368709,0.3133,0.99398
244.221,30.695,-0.08594142,0.31323,0.99379
244.921,30.7616,-0.08738107,0.31057,0.99359
245.621,30.8285,-0.09023558,0.30435,0.99339
246.321,30.89548,-0.09313055,0.29991,0.99319
247.021,30.96273,-0.09479161,0.29771,0.99299
247.721,31.0298,-0.09687502,0.29665,0.99279
248.421,31.0967,-0.09777055,0.29527,0.99259
249.121,31.1633,-0.09889949,0.29628,0.99239
249.821,31.23007,-0.10239,0.29628,0.99219
250.521,31.2966,-0.10678,0.29746,0.99198
251.221,31.3637,-0.11002,0.29925,0.99178
251.921,31.4305,-0.11254,0.30008,0.99157
252.621,31.49725,-0.11469,0.30005,0.99137
253.321,31.5638,-0.11909,0.30149,0.99116
254.021,31.6303,-0.12146,0.30414,0.99095
254.721,31.69675,-0.12429,0.30599,0.99075
255.421,31.76352,-0.12735,0.30655,0.99054
256.121,31.83033,-0.13077,0.3072,0.99033
256.821,31.8971,-0.13426,0.30732,0.99012
257.521,31.96385,-0.13771,0.31149,0.98991
258.221,32.03052,-0.14245,0.31187,0.9897
258.921,32.09714,-0.1464,0.31126,0.98949
259.621,32.16372,-0.15032,0.31416,0.98927
260.321,32.23035,-0.15391,0.31435,0.98906
261.021,32.29718,-0.15613,0.31602,0.98884
261.721,32.36399,-0.16029,0.31719,0.98863
262.421,32.43056,-0.16532,0.3195,0.98841
263.121,32.49702,-0.16983,0.32053,0.9882
263.821,32.5636,-0.1732,0.32147,0.98798
264.521,32.63027,-0.17873,0.32246,0.98776
265.221,32.6971,-0.18521,0.32712,0.98754
265.921,32.76365,-0.18962,0.32498,0.98732
266.621,32.83056,-0.1951,0.32573,0.9871
267.321,32.89697,-0.19946,0.32831,0.98688
268.021,32.96374,-0.20554,0.33131,0.98666
268.721,33.03022,-0.21241,0.33049,0.98644
269.421,33.09713,-0.21703,0.33167,0.98622
270.121,33.1638,-0.22326,0.33313,0.98599
270.821,33.23064,-0.23013,0.33425,0.98577
271.521,33.2973,-0.23793,0.33543,0.98554
272.221,33.36417,-0.24485,0.3356,0.98532
272.921,33.43095,-0.25095,0.33496,0.98509
273.621,33.49777,-0.25769,0.33709,0.98486
274.321,33.56455,-0.26419,0.33613,0.98463
275.021,33.63126,-0.27299,0.33596,0.9844
275.721,33.69798,-0.28014,0.33712,0.98417
276.421,33.76485,-0.28845,0.33492,0.98394
277.121,33.83155,-0.29667,0.33711,0.98371
277.821,33.8982,-0.30384,0.33652,0.98348
278.521,33.96492,-0.31281,0.33721,0.98325
279.221,34.0319,-0.3216,0.33592,0.98301
279.921,34.0987,-0.33039,0.33467,0.98278
280.621,34.16538,-0.33971,0.33611,0.98254
281.321,34.2322,-0.34883,0.33492,0.98231
282.021,34.2989,-0.35751,0.33317,0.98207
282.721,34.36586,-0.36895,0.33272,0.98183
283.421,34.4326,-0.37847,0.3329,0.98159
284.121,34.49923,-0.38843,0.33302,0.98135
284.821,34.56589,-0.39876,0.33282,0.98111
285.521,34.63285,-0.40929,0.33275,0.98087
286.221,34.6999,-0.41927,0.33131,0.98063
286.921,34.76683,-0.43,0.33069,0.98039
287.621,34.8335,-0.44171,0.33083,0.98015
288.321,34.90023,-0.452,0.32868,0.9799
289.021,34.96719,-0.46457,0.32882,0.97966
289.721,35.0343,-0.4753,0.32857,0.97941
290.421,35.1012,-0.48691,0.32673,0.97917
291.121,35.16812,-0.49796,0.32484,0.97892
291.821,35.23466,-0.51062,0.32616,0.97867
292.521,35.3016,-0.52191,0.32281,0.97842
293.221,35.36833,-0.53367,0.32285,0.97817
293.921,35.43543,-0.5455,0.32126,0.97792
294.621,35.50237,-0.55771,0.31933,0.97767
295.321,35.56929,-0.56946,0.31923,0.97742
296.021,35.63604,-0.58225,0.31811,0.97717
296.721,35.7027,-0.5949,0.31734,0.97691
297.421,35.76951,-0.60748,0.31693,0.97666
298.121,35.8363,-0.62093,0.31364,0.9764
298.821,35.9031,-0.63222,0.31279,0.97615
299.521,35.97011,-0.64422,0.31177,0.97589
300.221,36.0373,-0.65807,0.31101,0.97563
300.921,36.10438,-0.67004,0.30742,0.97538
301.621,36.17106,-0.68278,0.30689,0.97512
302.321,36.23809,-0.69687,0.3054,0.97486
303.021,36.30503,-0.71029,0.30295,0.9746
303.721,36.3724,-0.72277,0.30189,0.97434
304.421,36.43953,-0.7365,0.29924,0.97407
305.121,36.5067,-0.75006,0.29466,0.97381
305.821,36.57374,-0.76393,0.29261,0.97355
306.521,36.64056,-0.77649,0.28801,0.97328
307.221,36.70754,-0.79064,0.28665,0.97302
307.921,36.7745,-0.80327,0.28523,0.97275
308.621,36.84192,-0.81915,0.28481,0.97248
309.321,36.90915,-0.83315,0.28364,0.97221
310.021,36.97638,-0.84552,0.28464,0.97195
310.721,37.04355,-0.85826,0.28479,0.97168
311.421,37.11059,-0.87361,0.28825,0.97141
312.121,37.1777,-0.88625,0.29224,0.97113
312.821,37.24485,-0.90216,0.29519,0.97086
313.521,37.31214,-0.91789,0.29554,0.97059
314.221,37.3794,-0.93081,0.29985,0.97032
314.921,37.4465,-0.94439,0.30396,0.97004
315.621,37.5135,-0.96053,0.30656,0.96977
316.321,37.58058,-0.97419,0.31081,0.96949
317.021,37.64778,-0.98886,0.3151,0.96921
317.721,37.7152,-1.00494,0.31645,0.96894
318.421,37.78255,-1.019,0.32088,0.96866
319.121,37.84973,-1.03311,0.32863,0.96838
319.821,37.9169,-1.04796,0.32956,0.9681
320.521,37.98438,-1.06281,0.33567,0.96782
321.221,38.05185,-1.07711,0.33818,0.96753
321.921,38.11925,-1.09125,0.3416,0.96725
322.621,38.18616,-1.10827,0.34434,0.96697
323.321,38.25333,-1.1233,0.34939,0.96668
324.021,38.3206,-1.13934,0.35436,0.9664
324.721,38.38799,-1.15511,0.36077,0.96611
325.421,38.45537,-1.1705,0.36411,0.96582
326.121,38.52272,-1.18631,0.37046,0.96554
326.821,38.59028,-1.20214,0.37586,0.96525
327.521,38.6576,-1.21807,0.38235,0.96496
328.221,38.725,-1.23417,0.38607,0.96467
328.921,38.79237,-1.25067,0.39221,0.96438
329.621,38.8599,-1.26693,0.39677,0.96408
330.321,38.92712,-1.28414,0.39968,0.96379
331.021,38.9946,-1.30034,0.40617,0.9635
331.721,39.06197,-1.31734,0.40876,0.9632
332.421,39.12963,-1.33428,0.41555,0.96291
333.121,39.19678,-1.35089,0.41972,0.96261
333.821,39.26449,-1.36787,0.42554,0.96231
334.521,39.332,-1.38699,0.43226,0.96201
335.221,39.3996,-1.40327,0.4423,0.96172
335.921,39.46702,-1.42213,0.44888,0.96142
336.621,39.53474,-1.44148,0.4541,0.96112
337.321,39.60249,-1.45942,0.46219,0.96081
338.021,39.67023,-1.47888,0.46939,0.96051
338.721,39.73762,-1.49916,0.47787,0.96021
339.421,39.80523,-1.51875,0.48472,0.9599
340.121,39.8728,-1.53846,0.4923,0.9596
340.821,39.94064,-1.55841,0.49828,0.95929
341.521,40.0083,-1.58052,0.50691,0.95899
342.221,40.07598,-1.60085,0.51454,0.95868
342.921,40.14351,-1.6218,0.52236,0.95837
343.621,40.2113,-1.64422,0.52866,0.95806
344.321,40.27895,-1.66543,0.53621,0.95775
345.021,40.34686,-1.68786,0.54472,0.95744
345.721,40.4146,-1.71036,0.55113,0.95713
346.421,40.48216,-1.73335,0.55899,0.95682
347.121,40.54968,-1.75725,0.56829,0.9565
347.821,40.61727,-1.7808,0.57449,0.95619
348.521,40.68524,-1.80581,0.58371,0.95587
349.221,40.75316,-1.83018,0.59207,0.95556
349.921,40.82069,-1.8544,0.60042,0.95524
350.621,40.8882,-1.88043,0.60534,0.95492
351.321,40.95606,-1.9054,0.61446,0.9546
352.021,41.02422,-1.93235,0.62039,0.95428
352.721,41.09258,-1.961,0.62653,0.95396
353.421,41.16048,-1.98724,0.63471,0.95364
354.121,41.2283,-2.01399,0.6409,0.95332
354.821,41.29611,-2.04123,0.64746,0.95299
355.521,41.3641,-2.0702,0.65234,0.95267
356.221,41.4321,-2.0995,0.6581,0.95234
356.921,41.5,-2.12779,0.6648,0.95202
357.621,41.56776,-2.15746,0.66825,0.95169
358.321,41.6352,-2.18705,0.6694,0.95136
359.021,41.70323,-2.21709,0.67356,0.95103
359.721,41.77122,-2.24758,0.67522,0.95071
360.421,41.83974,-2.27709,0.67469,0.95037
361.121,41.90762,-2.30725,0.67506,0.95004
361.821,41.97545,-2.33828,0.67232,0.94971
362.521,42.04326,-2.36845,0.66746,0.94938
363.221,42.111,-2.39679,0.66031,0.94904
363.921,42.17893,-2.42612,0.65421,0.94871
364.621,42.24664,-2.45666,0.64484,0.94837
365.321,42.3147,-2.48587,0.63752,0.94804
366.021,42.38259,-2.51506,0.62335,0.9477
366.721,42.45066,-2.5446,0.61106,0.94736
367.421,42.5186,-2.57031,0.59635,0.94702
368.121,42.58665,-2.5986,0.57958,0.94668
368.821,42.65452,-2.62659,0.56304,0.94634
369.521,42.72252,-2.6524,0.53678,0.946
370.221,42.7903,-2.67581,0.51271,0.94566
370.921,42.85815,-2.70016,0.48875,0.94531
371.621,42.92587,-2.72329,0.46261,0.94497
372.321,42.9938,-2.74413,0.43552,0.94462
373.021,43.06177,-2.76522,0.40652,0.94428
373.721,43.12959,-2.78224,0.37458,0.94393
374.421,43.19712,-2.80034,0.34521,0.94358
375.121,43.26485,-2.81736,0.31376,0.94323
375.821,43.33259,-2.8341,0.27988,0.94288
376.521,43.40051,-2.84779,0.25216,0.94253
377.221,43.4683,-2.86118,0.22192,0.94218
377.921,43.53591,-2.87185,0.19532,0.94182
378.621,43.60375,-2.88216,0.16982,0.94147
379.321,43.67142,-2.89181,0.14864,0.94112
380.021,43.73966,-2.90001,0.12675,0.94076
380.721,43.80745,-2.90677,0.11017,0.9404
381.421,43.8753,-2.9136,0.09662736,0.94005
382.121,43.94299,-2.9183,0.0833385,0.93969
382.821,44.01068,-2.92364,0.07386968,0.93933
383.521,44.0784,-2.92537,0.06714681,0.93897
384.221,44.14607,-2.92977,0.06252016,0.93861
384.921,44.21392,-2.93306,0.0560786,0.93825
385.621,44.28168,-2.93668,0.05173781,0.93788
386.321,44.34933,-2.94022,0.0495867,0.93752
387.021,44.417,-2.94192,0.04658123,0.93716
387.721,44.48451,-2.94576,0.04302785,0.93679
388.421,44.5525,-2.94809,0.03885679,0.93642
389.121,44.62037,-2.94951,0.03736691,0.93606
389.821,44.6884,-2.95228,0.03335033,0.93569
390.521,44.75611,-2.9536,0.02768163,0.93532
391.221,44.8242,-2.95589,0.02479721,0.93495
391.921,44.8925,-2.95766,0.02129589,0.93458
392.621,44.96086,-2.95904,0.01602658,0.93421
393.321,45.02903,-2.96293,0.01484614,0.93383
394.021,45.09727,-2.96593,0.01067459,0.93346
394.721,45.1655,-2.96661,0.009907559,0.93308
395.421,45.23366,-2.96828,0.005085353,0.93271
396.121,45.3018,-2.96973,0.00511338,0.93233
396.821,45.36991,-2.97159,0.001860764,0.93195
397.521,45.43815,-2.97287,-0.002369369,0.93158
398.221,45.50631,-2.97566,-0.00310388,0.9312
398.921,45.57451,-2.97697,-0.007097376,0.93082
399.621,45.64268,-2.97983,-0.008510923,0.93044
400.321,45.71112,-2.98104,-0.010565,0.93005
401.021,45.77947,-2.98236,-0.01369989,0.92967
401.721,45.84794,-2.98546,-0.01292567,0.92929
402.421,45.91624,-2.98675,-0.01349171,0.9289
403.121,45.9845,-2.98836,-0.0188077,0.92852
403.821,46.05271,-2.98941,-0.01854815,0.92813
404.521,46.1211,-2.99325,-0.01705309,0.92774
405.221,46.18955,-2.99514,-0.01940833,0.92735
405.921,46.25809,-2.99616,-0.01840864,0.92696
406.621,46.32646,-2.99823,-0.02028768,0.92657
407.321,46.39495,-3.00046,-0.01981655,0.92618
408.021,46.4633,-3.0029,-0.02024685,0.92579
408.721,46.53157,-3.00422,-0.0185887,0.9254
409.421,46.5998,-3.00553,-0.0200646,0.925
410.121,46.66796,-3.00687,-0.01821858,0.92461
410.821,46.7361,-3.00819,-0.01163958,0.92421
411.521,46.80428,-3.00998,-0.008578313,0.92381
412.221,46.87253,-3.01192,-0.0064052,0.92342
412.921,46.94081,-3.01318,-0.0006102172,0.92302
413.621,47.00915,-3.01552,-0.000412287,0.92262
414.321,47.07741,-3.01716,0.003266041,0.92222
415.021,47.1458,-3.01846,0.004156343,0.92182
415.721,47.21379,-3.01983,0.00534897,0.92141
416.421,47.2819,-3.02112,0.008737567,0.92101
417.121,47.3502,-3.02244,0.008928859,0.92061
417.821,47.41859,-3.02508,0.0127222,0.9202
418.521,47.4871,-3.02637,0.01524333,0.91979
419.221,47.5554,-3.02938,0.01638158,0.91939
419.921,47.62376,-3.03181,0.01630696,0.91898
420.621,47.6922,-3.0321,0.0191286,0.91857
421.321,47.7605,-3.03341,0.02139129,0.91816
422.021,47.82853,-3.03474,0.02643552,0.91775
422.721,47.89679,-3.03604,0.02584123,0.91734
423.421,47.96506,-3.03736,0.02934776,0.91693
424.121,48.03392,-3.03869,0.03072214,0.91651
424.821,48.10235,-3.04015,0.0320911,0.9161
425.521,48.17102,-3.04134,0.03414222,0.91568
426.221,48.23953,-3.04121,0.03835197,0.91527
426.921,48.30778,-3.04287,0.04096084,0.91485
427.621,48.37611,-3.04491,0.04269218,0.91443
428.321,48.4445,-3.04704,0.04308783,0.91401
429.021,48.51303,-3.04852,0.04533543,0.91359
429.721,48.58144,-3.05047,0.04784768,0.91317
430.421,48.64976,-3.05175,0.04962025,0.91275
431.121,48.71835,-3.05244,0.05547148,0.91232
431.821,48.78682,-3.05371,0.05591609,0.9119
432.521,48.85528,-3.05503,0.05744755,0.91148
433.221,48.92364,-3.05634,0.05826022,0.91105
433.921,48.99176,-3.05773,0.05940084,0.91062
434.621,49.06015,-3.05907,0.06168964,0.9102
435.321,49.12842,-3.06025,0.06209016,0.90977
436.021,49.19715,-3.06146,0.06192289,0.90934
436.721,49.26577,-3.06331,0.06301726,0.90891
437.421,49.33447,-3.0652,0.06469702,0.90848
438.121,49.40299,-3.06757,0.06418407,0.90804
438.821,49.4718,-3.06759,0.06633496,0.90761
439.521,49.5405,-3.06754,0.06423502,0.90718
440.221,49.60928,-3.06898,0.06382506,0.90674
440.921,49.67791,-3.0713,0.06331896,0.9063
441.621,49.74631,-3.0726,0.06434077,0.90587
442.321,49.81485,-3.07304,0.06489528,0.90543
443.021,49.88342,-3.07326,0.0630297,0.90499
443.721,49.95194,-3.07463,0.06243575,0.90455
444.421,50.0205,-3.07415,0.06195155,0.90411
445.121,50.089,-3.07523,0.06238944,0.90367
445.821,50.15787,-3.07788,0.05916344,0.90323
446.521,50.22657,-3.08061,0.05963643,0.90278
447.221,50.29514,-3.08194,0.05910525,0.90234
447.921,50.36363,-3.08334,0.05773276,0.90189
448.621,50.43234,-3.08385,0.05579018,0.90145
449.321,50.50119,-3.08498,0.05464662,0.901
450.021,50.56991,-3.08488,0.05236624,0.90055
450.721,50.63847,-3.08881,0.051569,0.9001
451.421,50.70708,-3.08885,0.05000478,0.89965
452.121,50.7757,-3.08949,0.04769017,0.8992
452.821,50.8446,-3.09017,0.04691085,0.89875
453.521,50.91312,-3.09149,0.04611248,0.89829
454.221,50.98185,-3.09163,0.04445861,0.89784
454.921,51.05045,-3.09155,0.04232566,0.89739
455.621,51.1192,-3.0928,0.03956629,0.89693
456.321,51.18788,-3.09412,0.0394068,0.89647
457.021,51.25674,-3.09544,0.03870355,0.89602
457.721,51.32571,-3.09556,0.03751425,0.89556
458.421,51.39462,-3.09676,0.03175501,0.8951
459.121,51.46313,-3.09678,0.02928073,0.89464
459.821,51.53155,-3.09807,0.02615962,0.89418
460.521,51.60014,-3.10005,0.02346211,0.89371
461.221,51.66885,-3.10137,0.02212022,0.89325
461.921,51.73774,-3.10137,0.01967996,0.89279
462.621,51.8067,-3.10136,0.01866069,0.89232
463.321,51.87551,-3.10269,0.01867956,0.89186
464.021,51.9441,-3.104,0.01675086,0.89139
464.721,52.01285,-3.10532,0.01570896,0.89092
465.421,52.08169,-3.1059,0.01673598,0.89045
466.121,52.1507,-3.10793,0.01412497,0.88998
466.821,52.21955,-3.10928,0.01582397,0.88951
467.521,52.28843,-3.10925,0.01644742,0.88904
468.221,52.35716,-3.11058,0.01456426,0.88857
468.921,52.42601,-3.1106,0.01601245,0.88809
469.621,52.4948,-3.11169,0.01505222,0.88762
470.321,52.5637,-3.11191,0.01530175,0.88714
471.021,52.6321,-3.11191,0.01374185,0.88667
471.721,52.701,-3.11189,0.01403689,0.88619
472.421,52.77001,-3.11232,0.01564984,0.88571
473.121,52.83945,-3.11588,0.0124013,0.88523
473.821,52.9082,-3.11586,0.01448067,0.88475
474.521,52.97705,-3.11592,0.01417601,0.88427
475.221,53.04585,-3.11587,0.01540844,0.88379
475.921,53.1149,-3.11726,0.01456236,0.88331
476.621,53.18399,-3.11743,0.01303077,0.88282
477.321,53.253,-3.1185,0.01446066,0.88234
478.021,53.3218,-3.11987,0.01062468,0.88185
478.721,53.3908,-3.1208,0.007527572,0.88137
479.421,53.45991,-3.12212,0.005606244,0.88088
480.121,53.5291,-3.12147,0.003657847,0.88039
480.821,53.598,-3.12147,0.003562026,0.8799
481.521,53.66698,-3.12082,0.000416405,0.87941
482.221,53.73595,-3.12212,0.0004557933,0.87892
482.921,53.805,-3.12342,0.001326706,0.87843
483.621,53.87401,-3.12607,0.001180676,0.87793
484.321,53.943,-3.12739,-0.0001226966,0.87744
485.021,54.01195,-3.12739,0.0007308814,0.87695
485.721,54.08093,-3.12739,9.452448e-05,0.87645
486.421,54.14955,-3.1287,-0.002120449,0.87595
487.121,54.2185,-3.12871,-0.001091215,0.87545
487.821,54.28754,-3.13003,-0.001570955,0.87496
488.521,54.357,-3.13003,-0.001703965,0.87446
489.221,54.42586,-3.13042,-0.001069361,0.87396
489.921,54.49484,-3.13135,-0.002319427,0.87345
490.621,54.56403,-3.13233,-0.002304081,0.87295
491.321,54.63352,-3.13233,-0.000914259,0.87245
492.021,54.70287,-3.13273,0.0003815403,0.87194
492.721,54.77196,-3.13223,0.000504727,0.87144
493.421,54.8411,-3.13398,-0.0002146392,0.87093
494.121,54.91005,-3.13398,-0.00232472,0.87043
494.821,54.97902,-3.13528,-0.002620369,0.86992
495.521,55.04786,-3.13526,2.63466e-05,0.86941
496.221,55.1168,-3.13694,-0.002017451,0.8689
496.921,55.18585,-3.13797,-6.947206e-05,0.86839
497.621,55.2547,-3.13925,0.00157386,0.86788
498.321,55.32359,-3.13796,0.00181976,0.86737
499.021,55.39295,-3.13932,0.001213258,0.86685
499.721,55.4624,-3.14057,-3.799408e-05,0.86634
500.421,55.5319,-3.14188,0.001019421,0.86582
501.121,55.60094,-3.14121,0.001360556,0.86531
501.821,55.67,-3.14254,0.0002337129,0.86479
502.521,55.73885,-3.14254,-0.00262792,0.86427
503.221,55.8078,-3.14276,-0.00187496,0.86375
503.921,55.8769,-3.14397,-0.0002457295,0.86323
504.621,55.9462,-3.14529,-7.122055e-05,0.86271
505.321,56.0155,-3.14519,-0.0007855316,0.86219
506.021,56.0848,-3.1466,-0.000223093,0.86167
506.721,56.15416,-3.14801,0.0002922407,0.86114
507.421,56.2233,-3.14792,0.002300193,0.86062
508.121,56.29266,-3.14727,0.00100336,0.86009
508.821,56.3621,-3.14728,0.001717521,0.85957
509.521,56.43176,-3.14858,-0.00114643,0.85904
510.221,56.501,-3.1499,-0.000486349,0.85851
510.921,56.5702,-3.1499,0.0006483006,0.85798
511.621,56.6392,-3.15088,0.00110822,0.85745
512.321,56.70859,-3.15088,0.00201688,0.85692
513.021,56.77785,-3.15123,0.001381026,0.85639
513.721,56.84734,-3.15253,0.002477561,0.85586
514.421,56.91675,-3.15383,0.001628104,0.85533
515.121,56.9863,-3.15385,0.005003471,0.85479
515.821,57.05596,-3.15517,0.00303047,0.85426
516.521,57.12537,-3.15484,0.00333078,0.85372
517.221,57.19452,-3.1562,0.006531028,0.85318
517.921,57.2637,-3.15615,0.0030155,0.85264
518.621,57.33316,-3.15614,0.005689974,0.85211
519.321,57.4026,-3.15747,0.005446444,0.85157
520.021,57.472,-3.15884,0.006744509,0.85103
520.721,57.54115,-3.15863,0.006144219,0.85048
521.421,57.6106,-3.15915,0.01207959,0.84994
522.121,57.6799,-3.15912,0.01099156,0.8494
522.821,57.7495,-3.15912,0.01252441,0.84885
523.521,57.8188,-3.16042,0.01410358,0.84831
524.221,57.88808,-3.16068,0.0153212,0.84776
524.921,57.9571,-3.16307,0.01565242,0.84722
525.621,58.0266,-3.16307,0.01527271,0.84667
526.321,58.096,-3.16242,0.01654706,0.84612
527.021,58.1655,-3.16241,0.01694081,0.84557
527.721,58.23474,-3.16374,0.01812975,0.84502
528.421,58.304,-3.16373,0.01866087,0.84447
529.121,58.3729,-3.16406,0.02064391,0.84391
529.821,58.4422,-3.16504,0.0203582,0.84336
530.521,58.5115,-3.16637,0.02297111,0.84281
531.221,58.5814,-3.16573,0.02174386,0.84225
531.921,58.6509,-3.16695,0.02169555,0.8417
532.621,58.72042,-3.1657,0.02321918,0.84114
533.321,58.7898,-3.16702,0.02532024,0.84058
534.021,58.8593,-3.16834,0.02529252,0.84002
534.721,58.92867,-3.16833,0.02551345,0.83946
535.421,58.99805,-3.16702,0.0257466,0.8389
536.121,59.0674,-3.16833,0.02426491,0.83834
536.821,59.13671,-3.16833,0.02470932,0.83778
537.521,59.20576,-3.16963,0.026395,0.83722
538.221,59.275,-3.16965,0.02542046,0.83665
538.921,59.34445,-3.17224,0.02576693,0.83609
539.621,59.41425,-3.17097,0.02697223,0.83552
540.321,59.4838,-3.17103,0.02912844,0.83496
541.021,59.55319,-3.17229,0.028821,0.83439
541.721,59.6227,-3.17232,0.02931101,0.83382
542.421,59.69226,-3.1736,0.02949479,0.83325
543.121,59.76184,-3.17448,0.02996653,0.83268
543.821,59.83118,-3.17492,0.03132649,0.83211
544.521,59.90056,-3.17492,0.03078712,0.83154
545.221,59.97002,-3.17591,0.02969646,0.83097
545.921,60.03935,-3.17591,0.03220673,0.83039
546.621,60.10869,-3.17624,0.03450251,0.82982
547.321,60.17819,-3.17625,0.03367795,0.82924
548.021,60.24794,-3.17756,0.03272462,0.82867
548.721,60.31774,-3.1786,0.03695289,0.82809
549.421,60.3874,-3.17756,0.03572612,0.82751
550.121,60.45697,-3.17756,0.03711301,0.82693
550.821,60.52664,-3.1781,0.03604438,0.82635
551.521,60.59625,-3.17954,0.03776496,0.82577
552.221,60.66593,-3.17967,0.0381903,0.82519
552.921,60.73542,-3.18085,0.03961029,0.82461
553.621,60.805,-3.18091,0.04017354,0.82403
554.321,60.8745,-3.18086,0.04277577,0.82344
555.021,60.94401,-3.18085,0.04255583,0.82286
555.721,61.0134,-3.18217,0.04279278,0.82227
556.421,61.0829,-3.18254,0.04293971,0.82168
557.121,61.15209,-3.18283,0.04379462,0.8211
557.821,61.22152,-3.18281,0.04262057,0.82051
558.521,61.29095,-3.18334,0.04486552,0.81992
559.221,61.36055,-3.18284,0.04596622,0.81933
559.921,61.42994,-3.18415,0.04660188,0.81874
560.621,61.49941,-3.18547,0.04916716,0.81815
561.321,61.5689,-3.18547,0.0503717,0.81756
562.021,61.63856,-3.18547,0.05104918,0.81696
562.721,61.70815,-3.18679,0.05002111,0.81637
563.421,61.7777,-3.18804,0.05323585,0.81577
564.121,61.8471,-3.18711,0.05200694,0.81518
564.821,61.9164,-3.18844,0.05230571,0.81458
565.521,61.9857,-3.18942,0.05089325,0.81398
566.221,62.0553,-3.19077,0.05293499,0.81338
566.921,62.1249,-3.18942,0.05471837,0.81279
567.621,62.1945,-3.18834,0.05635768,0.81219
568.321,62.26401,-3.18942,0.05380155,0.81158
569.021,62.3335,-3.18801,0.05431274,0.81098
569.721,62.4031,-3.18937,0.05429004,0.81038
570.421,62.47263,-3.19073,0.05443698,0.80978
571.121,62.5423,-3.19073,0.05772974,0.80917
571.821,62.61184,-3.1921,0.05447791,0.80857
572.521,62.6813,-3.19341,0.05563285,0.80796
573.221,62.7507,-3.19238,0.05572134,0.80735
573.921,62.81975,-3.19238,0.05578428,0.80675
574.621,62.8893,-3.1937,0.05580917,0.80614
575.321,62.95899,-3.19435,0.05724097,0.80553
576.021,63.029,-3.19501,0.05731826,0.80492
576.721,63.0986,-3.19502,0.05994701,0.80431
577.421,63.1679,-3.19468,0.06078007,0.8037
578.121,63.2375,-3.19461,0.0586965,0.80308
578.821,63.3069,-3.19599,0.06035628,0.80247
579.521,63.3765,-3.19732,0.05952319,0.80186
580.221,63.44608,-3.19666,0.06105964,0.80124
580.921,63.5159,-3.19665,0.06194974,0.80063
581.621,63.5856,-3.19798,0.06155921,0.80001
582.321,63.65529,-3.19798,0.06381363,0.79939
583.021,63.7249,-3.19798,0.06302827,0.79877
583.721,63.79444,-3.19913,0.06546469,0.79816
584.421,63.86396,-3.19863,0.06713026,0.79754
585.121,63.93351,-3.19863,0.06740844,0.79691
585.821,64.003,-3.19995,0.06767136,0.79629
586.521,64.0724,-3.19982,0.06855593,0.79567
587.221,64.14185,-3.20259,0.07023806,0.79505
587.921,64.21136,-3.20259,0.07129799,0.79442
588.621,64.2807,-3.2012,0.07349325,0.7938
589.321,64.3502,-3.20264,0.07277288,0.79317
590.021,64.41941,-3.20259,0.07517374,0.79255
590.721,64.48908,-3.20324,0.07403338,0.79192
591.421,64.55866,-3.20329,0.07484098,0.79129
592.121,64.6284,-3.20259,0.07655001,0.79066
592.821,64.69799,-3.20259,0.07561049,0.79003
593.521,64.76767,-3.20386,0.0789932,0.7894
594.221,64.8374,-3.20522,0.07903116,0.78877
594.921,64.90715,-3.2066,0.08027136,0.78814
595.621,64.97674,-3.20523,0.07903944,0.78751
596.321,65.0463,-3.20523,0.07802636,0.78688
597.021,65.11575,-3.20513,0.0797934,0.78624
597.721,65.18559,-3.20516,0.08200367,0.78561
598.421,65.2555,-3.20658,0.08324372,0.78497
599.121,65.32544,-3.20654,0.0831505,0.78433
599.821,65.39505,-3.20654,0.08562553,0.7837
600.521,65.4648,-3.20654,0.08556112,0.78306
601.221,65.53453,-3.20744,0.08540145,0.78242
601.921,65.60383,-3.20786,0.08595318,0.78178
602.621,65.6733,-3.20819,0.08598879,0.78114
603.321,65.74297,-3.20952,0.08488954,0.7805
604.021,65.8129,-3.21072,0.08720947,0.77986
604.721,65.88269,-3.21083,0.08759285,0.77921
605.421,65.95244,-3.21082,0.08735447,0.77857
606.121,66.02231,-3.20951,0.08862395,0.77793
606.821,66.0917,-3.2108,0.08877081,0.77728
607.521,66.1614,-3.21214,0.0890063,0.77664
608.221,66.2312,-3.21214,0.08699171,0.77599
608.921,66.30151,-3.21214,0.08664801,0.77534
609.621,66.37129,-3.21214,0.08561993,0.77469
610.321,66.44105,-3.21214,0.08691989,0.77404
611.021,66.51074,-3.21346,0.08866645,0.77339
611.721,66.5807,-3.21346,0.09075163,0.77274
612.421,66.65061,-3.21478,0.09266105,0.77209
613.121,66.72038,-3.21343,0.09493425,0.77144
613.821,66.79016,-3.21477,0.09305187,0.77079
614.521,66.85978,-3.21478,0.09415437,0.77014
615.221,66.92944,-3.21578,0.09399698,0.76948
615.921,66.99899,-3.21609,0.09675089,0.76883
616.621,67.069,-3.21609,0.09561184,0.76817
617.321,67.1388,-3.21741,0.09618823,0.76751
618.021,67.2085,-3.21741,0.09670846,0.76686
618.721,67.27801,-3.21634,0.09965967,0.7662
619.421,67.34729,-3.21741,0.09746725,0.76554
620.121,67.41688,-3.21732,0.1012,0.76488
620.821,67.48662,-3.2184,0.10497,0.76422
621.521,67.55686,-3.2184,0.10468,0.76356
622.221,67.62685,-3.2184,0.10509,0.7629
622.921,67.69683,-3.21872,0.10322,0.76224
623.621,67.7668,-3.2176,0.1054,0.76157
624.321,67.83672,-3.21807,0.10799,0.76091
625.021,67.90649,-3.21873,0.10578,0.76025
625.721,67.97627,-3.21874,0.10593,0.75958
626.421,68.04603,-3.22018,0.10928,0.75892
627.121,68.11595,-3.22137,0.11271,0.75825
627.821,68.18593,-3.22137,0.11144,0.75758
628.521,68.25595,-3.22137,0.11366,0.75691
629.221,68.32599,-3.22105,0.11748,0.75624
629.921,68.396,-3.22104,0.11951,0.75557
630.621,68.46591,-3.22234,0.12191,0.7549
631.321,68.53571,-3.22463,0.12052,0.75423
632.021,68.60568,-3.22454,0.1216,0.75356
632.721,68.67572,-3.22334,0.12089,0.75289
633.421,68.74543,-3.22335,0.12201,0.75222
634.121,68.8149,-3.22507,0.12206,0.75154
634.821,68.88453,-3.22499,0.12402,0.75087
635.521,68.95455,-3.22409,0.12432,0.75019
636.221,69.02462,-3.22367,0.12805,0.74952
636.921,69.09442,-3.22508,0.12849,0.74884
637.621,69.16426,-3.22646,0.1278,0.74816
638.321,69.23408,-3.22729,0.12929,0.74749
639.021,69.30405,-3.22595,0.12998,0.74681
639.721,69.374,-3.22341,0.13038,0.74613
640.421,69.4441,-3.22467,0.131,0.74545
641.121,69.51403,-3.2257,0.13229,0.74477
641.821,69.58378,-3.22597,0.13233,0.74409
642.521,69.65363,-3.22491,0.13171,0.7434
643.221,69.72328,-3.2263,0.13394,0.74272
643.921,69.79313,-3.2263,0.13422,0.74204
644.621,69.8631,-3.2263,0.13644,0.74135
645.321,69.9332,-3.22597,0.13694,0.74067
646.021,70.00322,-3.22601,0.13765,0.73998
646.721,70.07292,-3.22729,0.14387,0.7393
647.421,70.14278,-3.22765,0.142,0.73861
648.121,70.2124,-3.22763,0.14481,0.73792
648.821,70.28219,-3.23035,0.14447,0.73724
649.521,70.35205,-3.23025,0.14324,0.73655
650.221,70.42214,-3.22926,0.14556,0.73586
650.921,70.49209,-3.22926,0.14987,0.73517
651.621,70.56194,-3.22894,0.15074,0.73448
652.321,70.63175,-3.22894,0.15215,0.73379
653.021,70.70169,-3.23025,0.15081,0.73309
653.721,70.77159,-3.23026,0.15451,0.7324
654.421,70.84187,-3.22993,0.15538,0.73171
655.121,70.91189,-3.22993,0.15258,0.73101
655.821,70.982,-3.2313,0.15587,0.73032
656.521,71.0519,-3.22993,0.15568,0.72962
657.221,71.122,-3.22993,0.15629,0.72893
657.921,71.19205,-3.22993,0.15775,0.72823
658.621,71.2622,-3.23125,0.15647,0.72753
659.321,71.3321,-3.23125,0.15848,0.72684
660.021,71.40209,-3.23125,0.15965,0.72614
660.721,71.47191,-3.23124,0.16034,0.72544
661.421,71.5419,-3.23133,0.16192,0.72474
662.121,71.6123,-3.23124,0.16033,0.72404
662.821,71.68254,-3.23256,0.15827,0.72334
663.521,71.75277,-3.23398,0.15785,0.72264
664.221,71.82273,-3.23388,0.16031,0.72193
664.921,71.89278,-3.23329,0.16173,0.72123
665.621,71.9627,-3.23289,0.16271,0.72053
666.321,72.03271,-3.23289,0.16204,0.71982
667.021,72.1026,-3.23421,0.16241,0.71912
667.721,72.17273,-3.23421,0.16077,0.71841
668.421,72.24275,-3.23388,0.16163,0.71771
669.121,72.3129,-3.23257,0.16309,0.717
669.821,72.38279,-3.23256,0.16597,0.71629
670.521,72.45267,-3.23387,0.16871,0.71558
671.221,72.5223,-3.2352,0.17107,0.71488
671.921,72.59246,-3.23519,0.17062,0.71417
672.621,72.66251,-3.23661,0.17062,0.71346
673.321,72.73276,-3.23509,0.17047,0.71275
674.021,72.8027,-3.23518,0.17353,0.71204
674.721,72.87291,-3.23618,0.1735,0.71133
675.421,72.9431,-3.23618,0.17301,0.71061
676.121,73.01311,-3.23653,0.17294,0.7099
676.821,73.08305,-3.23642,0.17301,0.70919
677.521,73.15312,-3.23652,0.17568,0.70847
678.221,73.2235,-3.23519,0.17729,0.70776
678.921,73.2937,-3.2352,0.1781,0.70704
679.621,73.36364,-3.23657,0.1788,0.70633
680.321,73.4337,-3.23651,0.18128,0.70561
681.021,73.50372,-3.23752,0.18199,0.7049
681.721,73.57422,-3.23882,0.18152,0.70418
682.421,73.64444,-3.23882,0.18364,0.70346
683.121,73.71484,-3.23753,0.1846,0.70274
683.821,73.78492,-3.23865,0.18293,0.70202
684.521,73.855,-3.23947,0.18253,0.7013
685.221,73.9252,-3.24075,0.18466,0.70058
685.921,73.99543,-3.23979,0.18433,0.69986
686.621,74.0656,-3.23948,0.18628,0.69914
687.321,74.1357,-3.23887,0.18517,0.69842
688.021,74.20567,-3.23882,0.18545,0.6977
688.721,74.2757,-3.2394,0.18933,0.69697
689.421,74.34572,-3.23943,0.19088,0.69625
690.121,74.41586,-3.24079,0.19436,0.69553
690.821,74.48567,-3.24002,0.19591,0.6948
691.521,74.55552,-3.24082,0.19808,0.69408
692.221,74.6255,-3.24113,0.19721,0.69335
692.921,74.6952,-3.24113,0.19963,0.69262
693.621,74.76535,-3.24113,0.20145,0.6919
694.321,74.8356,-3.24113,0.20233,0.69117
695.021,74.90611,-3.24157,0.20464,0.69044
695.721,74.97635,-3.24168,0.20965,0.68971
696.421,75.0462,-3.24079,0.20628,0.68898
697.121,75.11641,-3.24211,0.2098,0.68826
697.821,75.18651,-3.24211,0.20966,0.68753
698.521,75.25667,-3.24211,0.21282,0.68679
699.221,75.3268,-3.24211,0.21505,0.68606
699.921,75.39705,-3.24211,0.2164,0.68533
700.621,75.4674,-3.24345,0.21787,0.6846
701.321,75.53753,-3.24291,0.21861,0.68387
702.021,75.60758,-3.24211,0.21776,0.68313
702.721,75.6777,-3.24341,0.22402,0.6824
703.421,75.7479,-3.24212,0.22334,0.68167
704.121,75.81804,-3.24212,0.22564,0.68093
704.821,75.88838,-3.24437,0.22987,0.6802
705.521,75.9585,-3.24442,0.23343,0.67946
706.221,76.0289,-3.24442,0.23375,0.67872
706.921,76.0991,-3.24311,0.23682,0.67799
707.621,76.16936,-3.24573,0.23373,0.67725
708.321,76.23935,-3.24343,0.23565,0.67651
709.021,76.30922,-3.24343,0.23958,0.67577
709.721,76.37926,-3.24344,0.2432,0.67504
710.421,76.4495,-3.24475,0.24688,0.6743
711.121,76.51963,-3.24543,0.25078,0.67356
711.821,76.58967,-3.24409,0.24937,0.67282
712.521,76.6597,-3.24475,0.25102,0.67208
713.221,76.72991,-3.24475,0.25558,0.67133
713.921,76.80003,-3.24508,0.25757,0.67059
714.621,76.87014,-3.24607,0.25983,0.66985
715.321,76.94037,-3.24508,0.26208,0.66911
716.021,77.01051,-3.24508,0.26662,0.66837
716.721,77.0805,-3.24606,0.26728,0.66762
717.421,77.15066,-3.24671,0.27023,0.66688
718.121,77.22097,-3.24705,0.27307,0.66613
718.821,77.29126,-3.24705,0.27429,0.66539
719.521,77.3613,-3.24707,0.2761,0.66464
720.221,77.43133,-3.24709,0.27629,0.6639
720.921,77.50156,-3.24705,0.27908,0.66315
721.621,77.5718,-3.24705,0.2813,0.6624
722.321,77.64197,-3.24705,0.28474,0.66166
723.021,77.71225,-3.24741,0.28405,0.66091
723.721,77.7825,-3.24738,0.28609,0.66016
724.421,77.8531,-3.24739,0.28735,0.65941
725.121,77.9234,-3.2487,0.28997,0.65866
725.821,77.99378,-3.2487,0.29083,0.65791
726.521,78.06397,-3.2487,0.29379,0.65716
727.221,78.1344,-3.2487,0.29367,0.65641
727.921,78.2048,-3.24962,0.29563,0.65566
728.621,78.27513,-3.24981,0.2941,0.65491
729.321,78.34523,-3.24968,0.29265,0.65416
730.021,78.41537,-3.24958,0.29323,0.65341
730.721,78.48565,-3.25003,0.29833,0.65266
731.421,78.55617,-3.25003,0.29539,0.6519
732.121,78.62671,-3.24865,0.29477,0.65115
732.821,78.69711,-3.25068,0.29147,0.6504
733.521,78.7676,-3.24934,0.29343,0.64964
734.221,78.83797,-3.24941,0.29508,0.64889
734.921,78.90818,-3.24936,0.29928,0.64813
735.621,78.97808,-3.24936,0.29729,0.64738
736.321,79.04791,-3.24936,0.30081,0.64662
737.021,79.11783,-3.25023,0.3062,0.64586
737.721,79.18789,-3.25068,0.30824,0.64511
738.421,79.25801,-3.25201,0.31055,0.64435
739.121,79.32808,-3.25199,0.31291,0.64359
739.821,79.39828,-3.25199,0.31585,0.64284
740.521,79.46854,-3.25199,0.3174,0.64208
741.221,79.53877,-3.25199,0.32072,0.64132
741.921,79.60896,-3.25199,0.32646,0.64056
742.621,79.67907,-3.25099,0.32602,0.6398
743.321,79.74929,-3.25199,0.32608,0.63904
744.021,79.81954,-3.25298,0.3285,0.63828
744.721,79.88976,-3.25298,0.3287,0.63752
745.421,79.96005,-3.25225,0.32885,0.63676
745.721,79.9899,-3.25167,0.32868,0.63643