File: 01_Data/Excelsior/STA/N2/10K_min/Excelsior_STA_N2_10KData_2299_R3.csv
##Temp./Â°C,Time/min,Mass loss(subtr.2)/mg,DSC(subtr.2)/(mW/mg),Sensit./(uV/mW)
50.354,10.01,0.00132,0.01101447,1.02682
50.854,10.7606,0.001757521,0.03352291,1.02678
51.354,10.96009,0.001755107,0.04780164,1.02674
51.854,11.10874,0.0006105336,0.06078677,1.02669
52.354,11.2339,0.00138313,0.07280597,1.02665
52.854,11.34564,0.00113368,0.08076343,1.02661
53.354,11.44783,-0.0003039148,0.08946029,1.02656
53.854,11.54168,1.36873e-05,0.09934155,1.02652
54.354,11.63027,0.000458798,0.10407,1.02648
54.854,11.71547,0.001298224,0.10948,1.02643
55.354,11.79878,0.001512585,0.11846,1.02639
55.854,11.8782,0.00218242,0.1217,1.02634
56.354,11.9551,0.002301913,0.13086,1.0263
56.854,12.03021,0.0006667786,0.13467,1.02625
57.354,12.1036,0.001495947,0.13922,1.02621
57.854,12.17568,0.001963042,0.14304,1.02616
58.354,12.24653,0.001850378,0.14696,1.02612
58.854,12.3162,0.001986372,0.15118,1.02607
59.354,12.38439,0.003133715,0.15523,1.02603
59.854,12.45158,0.00266804,0.15606,1.02598
60.354,12.51812,0.00132061,0.1581,1.02594
60.854,12.58415,0.001821833,0.16395,1.02589
61.354,12.6496,0.001118146,0.16651,1.02584
61.854,12.7144,0.0007621102,0.16925,1.0258
62.354,12.77838,0.0009120807,0.17224,1.02575
62.854,12.8418,0.0005464933,0.17488,1.0257
63.354,12.90457,-0.0001467206,0.17855,1.02566
63.854,12.96669,0.001181438,0.18028,1.02561
64.354,13.02844,0.00178013,0.18188,1.02556
64.854,13.08934,0.0011141,0.18447,1.02552
65.354,13.15024,-0.0002265154,0.18769,1.02547
65.854,13.2111,-0.00017205,0.19096,1.02542
66.354,13.27118,-0.000217003,0.1928,1.02537
66.854,13.3317,6.502494e-06,0.19683,1.02532
67.354,13.3908,-0.0001384975,0.19953,1.02528
67.854,13.4499,0.001210119,0.20193,1.02523
68.354,13.5087,0.001194687,0.20359,1.02518
68.854,13.56724,0.001254297,0.20733,1.02513
69.354,13.62604,0.000643542,0.20997,1.02508
69.854,13.68418,-0.001477056,0.21211,1.02503
70.354,13.74204,-0.00143511,0.21469,1.02498
70.854,13.7997,-0.002394536,0.21561,1.02493
71.354,13.85716,-0.00279782,0.21879,1.02488
71.854,13.9142,-0.001379701,0.21968,1.02483
72.354,13.9709,-0.002330715,0.22279,1.02478
72.854,14.02726,-0.002701065,0.22419,1.02473
73.354,14.08334,-0.002716322,0.22568,1.02468
73.854,14.13928,-0.0014233,0.22847,1.02463
74.354,14.1951,-0.00133429,0.2333,1.02458
74.854,14.25085,-0.002762085,0.23362,1.02453
75.354,14.3064,-0.00273839,0.23582,1.02448
75.854,14.36201,-0.003870055,0.23716,1.02443
76.354,14.4173,-0.003976776,0.24003,1.02438
76.854,14.47248,-0.004061622,0.24214,1.02433
77.354,14.5273,-0.003969119,0.24435,1.02428
77.854,14.58187,-0.003986684,0.2453,1.02422
78.354,14.6361,-0.003324228,0.24758,1.02417
78.854,14.6905,-0.005397894,0.24784,1.02412
79.354,14.74465,-0.0053698,0.24941,1.02407
79.854,14.79856,-0.00538112,0.2497,1.02401
80.354,14.85271,-0.00658614,0.24966,1.02396
80.854,14.90635,-0.005382087,0.252,1.02391
81.354,14.95995,-0.006040581,0.2535,1.02386
81.854,15.0134,-0.006063324,0.25404,1.0238
82.354,15.06666,-0.006707153,0.25472,1.02375
82.854,15.11996,-0.00768289,0.25579,1.0237
83.354,15.1732,-0.006689503,0.25739,1.02364
83.854,15.226,-0.006690284,0.25856,1.02359
84.354,15.27865,-0.006699705,0.2588,1.02353
84.854,15.33109,-0.00777304,0.26002,1.02348
85.354,15.3833,-0.008020373,0.25957,1.02342
85.854,15.43556,-0.00664137,0.25816,1.02337
86.354,15.4877,-0.008008455,0.25889,1.02331
86.854,15.53972,-0.006683687,0.25871,1.02326
87.354,15.5916,-0.008009919,0.25892,1.0232
87.854,15.6434,-0.008075394,0.26045,1.02315
88.354,15.69491,-0.00660042,0.26059,1.02309
88.854,15.7465,-0.007961789,0.25865,1.02304
89.354,15.7979,-0.007989728,0.25966,1.02298
89.854,15.84927,-0.009342525,0.25841,1.02292
90.354,15.90056,-0.00933134,0.26011,1.02287
90.854,15.9517,-0.01063,0.2607,1.02281
91.354,16.00283,-0.009276277,0.25776,1.02275
91.854,16.05382,-0.01065049,0.25754,1.0227
92.354,16.10473,-0.01065595,0.25775,1.02264
92.854,16.1552,-0.00960157,0.25718,1.02258
93.354,16.2058,-0.01069029,0.25581,1.02252
93.854,16.2563,-0.009310143,0.25573,1.02247
94.354,16.30696,-0.01062129,0.25494,1.02241
94.854,16.35758,-0.01063837,0.25655,1.02235
95.354,16.40774,-0.01065013,0.25486,1.02229
95.854,16.458,-0.01057355,0.25257,1.02223
96.354,16.50815,-0.01115636,0.25325,1.02217
96.854,16.55806,-0.01115147,0.25158,1.02212
97.354,16.60773,-0.01265025,0.24934,1.02206
97.854,16.65766,-0.01271306,0.24838,1.022
98.354,16.7073,-0.01018008,0.24893,1.02194
98.854,16.7571,-0.01212799,0.24661,1.02188
99.354,16.80707,-0.01337188,0.24795,1.02182
99.854,16.85705,-0.0136103,0.24667,1.02176
100.354,16.9067,-0.01361102,0.24598,1.0217
100.854,16.95655,-0.01474245,0.24422,1.02164
101.354,17.00596,-0.0136054,0.24324,1.02158
101.854,17.05501,-0.01352926,0.24126,1.02151
102.354,17.10452,-0.01361011,0.24018,1.02145
102.854,17.15394,-0.01361277,0.23908,1.02139
103.354,17.20295,-0.01237567,0.2389,1.02133
103.854,17.25274,-0.01360912,0.23901,1.02127
104.354,17.30216,-0.01361066,0.23468,1.02121
104.854,17.3512,-0.01428099,0.23715,1.02114
105.354,17.4006,-0.01361271,0.23412,1.02108
105.854,17.45007,-0.01360984,0.23356,1.02102
106.354,17.49925,-0.01228388,0.23382,1.02096
106.854,17.54851,-0.01360161,0.23178,1.02089
107.354,17.59781,-0.01361007,0.23082,1.02083
107.854,17.64696,-0.01356838,0.23078,1.02077
108.354,17.69611,-0.01396482,0.23062,1.0207
108.854,17.74517,-0.01384039,0.22803,1.02064
109.354,17.79391,-0.01491681,0.22895,1.02057
109.854,17.84305,-0.01362338,0.22804,1.02051
110.354,17.89224,-0.01360388,0.22705,1.02044
110.854,17.94131,-0.01229844,0.22825,1.02038
111.354,17.99063,-0.01267549,0.22943,1.02032
111.854,18.03983,-0.01360997,0.22659,1.02025
112.354,18.08879,-0.01305184,0.22785,1.02018
112.854,18.13779,-0.01359908,0.22733,1.02012
113.354,18.18661,-0.01361002,0.22829,1.02005
113.854,18.2357,-0.01361012,0.2281,1.01999
114.354,18.28487,-0.01352778,0.22664,1.01992
114.854,18.3339,-0.01360356,0.22794,1.01985
115.354,18.38289,-0.01362639,0.22775,1.01979
115.854,18.4318,-0.01463978,0.22734,1.01972
116.354,18.4803,-0.01327978,0.22765,1.01965
116.854,18.5289,-0.01361736,0.22624,1.01959
117.354,18.5774,-0.01316589,0.22707,1.01952
117.854,18.62612,-0.01229146,0.22683,1.01945
118.354,18.67484,-0.01080138,0.22607,1.01938
118.854,18.7235,-0.01230201,0.22746,1.01931
119.354,18.77222,-0.01358975,0.22534,1.01925
119.854,18.82102,-0.01226644,0.22771,1.01918
120.354,18.86973,-0.01361225,0.22647,1.01911
120.854,18.9187,-0.01360872,0.2257,1.01904
121.354,18.9675,-0.01454935,0.22821,1.01897
121.854,19.01624,-0.0141498,0.22394,1.0189
122.354,19.06484,-0.01393969,0.22716,1.01883
122.854,19.11337,-0.01393998,0.22562,1.01876
123.354,19.16173,-0.01394864,0.2278,1.01869
123.854,19.21009,-0.01525805,0.22828,1.01862
124.354,19.2586,-0.01470563,0.22761,1.01855
124.854,19.30705,-0.01361096,0.22925,1.01848
125.354,19.35577,-0.01266757,0.22581,1.01841
125.854,19.40426,-0.0133057,0.22521,1.01834
126.354,19.45281,-0.0132886,0.22772,1.01826
126.854,19.50106,-0.01360458,0.22724,1.01819
127.354,19.54941,-0.01490995,0.22634,1.01812
127.854,19.5977,-0.01491582,0.22727,1.01805
128.354,19.64609,-0.01394348,0.22936,1.01798
128.854,19.69441,-0.01393999,0.22821,1.0179
129.354,19.74295,-0.01393971,0.23004,1.01783
129.854,19.7914,-0.01403743,0.23002,1.01776
130.354,19.8397,-0.01492814,0.2296,1.01768
130.854,19.88799,-0.01512559,0.232,1.01761
131.354,19.9358,-0.01492274,0.2323,1.01753
131.854,19.98401,-0.01494111,0.23224,1.01746
132.354,20.03218,-0.01625118,0.2307,1.01739
132.854,20.0803,-0.01491929,0.23198,1.01731
133.354,20.12864,-0.01358538,0.23376,1.01724
133.854,20.17684,-0.01360986,0.23317,1.01716
134.354,20.22478,-0.0137986,0.2337,1.01709
134.854,20.27265,-0.01361079,0.23378,1.01701
135.354,20.32069,-0.01360998,0.23452,1.01694
135.854,20.36882,-0.01359045,0.23463,1.01686
136.354,20.41681,-0.01393954,0.23616,1.01678
136.854,20.46509,-0.01396474,0.23595,1.01671
137.354,20.5132,-0.01525813,0.23661,1.01663
137.854,20.561,-0.01526118,0.23792,1.01655
138.354,20.60911,-0.01394424,0.23655,1.01648
138.854,20.65682,-0.01393998,0.23544,1.0164
139.354,20.7047,-0.01394,0.23743,1.01632
139.854,20.75243,-0.01393951,0.23625,1.01624
140.354,20.8002,-0.01329955,0.23564,1.01616
140.854,20.84789,-0.01313271,0.23719,1.01609
141.354,20.8958,-0.01295951,0.23755,1.01601
141.854,20.94386,-0.01299996,0.23954,1.01593
142.354,20.9918,-0.01426863,0.23854,1.01585
142.854,21.04,-0.01427,0.23816,1.01577
143.354,21.08778,-0.01430037,0.23826,1.01569
143.854,21.13543,-0.01391527,0.2388,1.01561
144.354,21.18306,-0.01262186,0.23934,1.01553
144.854,21.23065,-0.01261925,0.24071,1.01545
145.354,21.2783,-0.01393137,0.23964,1.01537
145.854,21.32594,-0.01394003,0.241,1.01529
146.354,21.3736,-0.01393925,0.2403,1.01521
146.854,21.42137,-0.01317401,0.24237,1.01512
147.354,21.46902,-0.01394141,0.24174,1.01504
147.854,21.51654,-0.01393998,0.24289,1.01496
148.354,21.56413,-0.01394577,0.24256,1.01488
148.854,21.6117,-0.0125954,0.24356,1.0148
149.354,21.65895,-0.0139135,0.24082,1.01471
149.854,21.70668,-0.01394012,0.24223,1.01463
150.354,21.75429,-0.01308611,0.24371,1.01455
150.854,21.80196,-0.01394004,0.24287,1.01446
151.354,21.84974,-0.01394,0.2447,1.01438
151.854,21.89751,-0.01394013,0.24437,1.0143
152.354,21.94501,-0.01384076,0.24513,1.01421
152.854,21.99191,-0.01492772,0.24591,1.01413
153.354,22.03944,-0.01360066,0.24709,1.01404
153.854,22.0869,-0.01361008,0.24534,1.01396
154.354,22.13393,-0.01361,0.24482,1.01387
154.854,22.1819,-0.01361,0.2458,1.01379
155.354,22.22984,-0.01360977,0.24678,1.0137
155.854,22.2773,-0.01378273,0.24641,1.01361
156.354,22.32526,-0.01262168,0.24795,1.01353
156.854,22.37302,-0.01262007,0.24737,1.01344
157.354,22.4206,-0.01261073,0.24762,1.01335
157.854,22.4684,-0.0126287,0.24863,1.01327
158.354,22.51618,-0.01369109,0.24816,1.01318
158.854,22.56387,-0.01360985,0.24812,1.01309
159.354,22.61113,-0.01361001,0.24825,1.013
159.854,22.65864,-0.01361589,0.24977,1.01292
160.354,22.70608,-0.01403764,0.24938,1.01283
160.854,22.75364,-0.01279945,0.2501,1.01274
161.354,22.80136,-0.01393937,0.24942,1.01265
161.854,22.8491,-0.01393961,0.25041,1.01256
162.354,22.8967,-0.013817,0.25018,1.01247
162.854,22.94428,-0.01392442,0.25054,1.01238
163.354,22.99166,-0.01327637,0.25232,1.01229
163.854,23.03929,-0.01327812,0.2518,1.0122
164.354,23.08676,-0.01392768,0.25191,1.01211
164.854,23.13438,-0.01396822,0.2523,1.01202
165.354,23.18185,-0.01393323,0.25402,1.01193
165.854,23.22932,-0.01393995,0.25179,1.01184
166.354,23.27695,-0.01403388,0.2537,1.01175
166.854,23.32443,-0.01261949,0.25265,1.01165
167.354,23.3721,-0.01262583,0.25215,1.01156
167.854,23.41984,-0.01393204,0.25244,1.01147
168.354,23.46744,-0.01296449,0.25395,1.01138
168.854,23.51507,-0.01294996,0.25308,1.01128
169.354,23.56269,-0.01295053,0.25398,1.01119
169.854,23.61038,-0.01364169,0.25461,1.0111
170.354,23.65813,-0.01426963,0.25671,1.011
170.854,23.70594,-0.01427251,0.25563,1.01091
171.354,23.75366,-0.01394941,0.2541,1.01081
171.854,23.80131,-0.01393999,0.25672,1.01072
172.354,23.84862,-0.01393992,0.25539,1.01062
172.854,23.8963,-0.01403406,0.25608,1.01053
173.354,23.9441,-0.01399099,0.25565,1.01043
173.854,23.99184,-0.01393995,0.25602,1.01034
174.354,24.0397,-0.01394,0.25632,1.01024
174.854,24.08736,-0.01394,0.25623,1.01014
175.354,24.1349,-0.01394171,0.25695,1.01005
175.854,24.18252,-0.01509794,0.25804,1.00995
176.354,24.2303,-0.01526001,0.25836,1.00985
176.854,24.27802,-0.01526,0.25735,1.00976
177.354,24.3256,-0.01526,0.25806,1.00966
177.854,24.37327,-0.01526,0.25913,1.00956
178.354,24.42097,-0.01526,0.25937,1.00946
178.854,24.46848,-0.01526017,0.25732,1.00936
179.354,24.51598,-0.01500371,0.25759,1.00926
179.854,24.56356,-0.01540279,0.25871,1.00917
180.354,24.6111,-0.01524985,0.25787,1.00907
180.854,24.65853,-0.01517958,0.26056,1.00897
181.354,24.70595,-0.01623838,0.25808,1.00887
181.854,24.75364,-0.01623987,0.26018,1.00877
182.354,24.80108,-0.01626648,0.2611,1.00866
182.854,24.84816,-0.01656976,0.25994,1.00856
183.354,24.89578,-0.01657,0.25998,1.00846
183.854,24.94334,-0.01657,0.26217,1.00836
184.354,24.9909,-0.01656992,0.2605,1.00826
184.854,25.03864,-0.01629682,0.26068,1.00816
185.354,25.08634,-0.01591037,0.25981,1.00805
185.854,25.1338,-0.01590807,0.26053,1.00795
186.354,25.1812,-0.01623673,0.26093,1.00785
186.854,25.2286,-0.01656307,0.26227,1.00775
187.354,25.27594,-0.01789534,0.26175,1.00764
187.854,25.32328,-0.01722797,0.26383,1.00754
188.354,25.37063,-0.01657135,0.26337,1.00743
188.854,25.41815,-0.01790884,0.26478,1.00733
189.354,25.46561,-0.01788994,0.26335,1.00722
189.854,25.51304,-0.01788996,0.26434,1.00712
190.354,25.56044,-0.01789374,0.26478,1.00701
190.854,25.60773,-0.01660843,0.26411,1.00691
191.354,25.65494,-0.01788817,0.26566,1.0068
191.854,25.70214,-0.01789002,0.2657,1.0067
192.354,25.74914,-0.01789303,0.26542,1.00659
192.854,25.79642,-0.01854501,0.26494,1.00648
193.354,25.84382,-0.01855001,0.26706,1.00637
193.854,25.89122,-0.01855,0.26788,1.00627
194.354,25.93863,-0.01854959,0.2682,1.00616
194.854,25.98646,-0.01795936,0.26633,1.00605
195.354,26.0337,-0.01788986,0.26696,1.00594
195.854,26.0806,-0.01789018,0.26936,1.00583
196.354,26.12716,-0.01926448,0.26945,1.00573
196.854,26.17424,-0.01920987,0.26839,1.00562
197.354,26.2214,-0.01921,0.26932,1.00551
197.854,26.269,-0.01921005,0.26967,1.0054
198.354,26.31682,-0.01913138,0.26954,1.00529
198.854,26.36445,-0.02151664,0.27232,1.00518
199.354,26.4118,-0.02012653,0.27153,1.00506
199.854,26.45917,-0.0201995,0.26989,1.00495
200.354,26.50647,-0.01904596,0.27049,1.00484
200.854,26.55385,-0.0188769,0.2706,1.00473
201.354,26.6011,-0.02022807,0.27074,1.00462
201.854,26.6484,-0.02020008,0.27096,1.00451
202.354,26.6957,-0.0202,0.27017,1.00439
202.854,26.7432,-0.02019988,0.27154,1.00428
203.354,26.79068,-0.02021581,0.27086,1.00417
203.854,26.83819,-0.02045796,0.27047,1.00405
204.354,26.8856,-0.02184074,0.27186,1.00394
204.854,26.93305,-0.02170215,0.27205,1.00382
205.354,26.9802,-0.02052013,0.26986,1.00371
205.854,27.02723,-0.02052,0.27165,1.00359
206.354,27.07436,-0.02051998,0.27177,1.00348
206.854,27.1215,-0.02052467,0.27145,1.00336
207.354,27.1689,-0.02151305,0.2732,1.00325
207.854,27.2167,-0.02216594,0.27153,1.00313
208.354,27.2646,-0.0228383,0.27145,1.00302
208.854,27.3122,-0.02316216,0.27124,1.0029
209.354,27.35952,-0.02316,0.27278,1.00278
209.854,27.4071,-0.02316012,0.27162,1.00266
210.354,27.4547,-0.02398231,0.27117,1.00255
210.854,27.50222,-0.02448042,0.27366,1.00243
211.354,27.55,-0.02448,0.27349,1.00231
211.854,27.59742,-0.02447997,0.27308,1.00219
212.354,27.64467,-0.02450268,0.27466,1.00207
212.854,27.69213,-0.02588003,0.2727,1.00195
213.354,27.7396,-0.02689823,0.27477,1.00183
213.854,27.78712,-0.02822415,0.27217,1.00171
214.354,27.8346,-0.02780097,0.27493,1.00159
214.854,27.8822,-0.02690013,0.27511,1.00147
215.354,27.92979,-0.02690116,0.27528,1.00135
215.854,27.9776,-0.02723124,0.27544,1.00123
216.354,28.0255,-0.02723013,0.27513,1.00111
216.854,28.07297,-0.02717219,0.27705,1.00098
217.354,28.12043,-0.02855012,0.27485,1.00086
217.854,28.16775,-0.02855,0.27684,1.00074
218.354,28.21515,-0.02855,0.27858,1.00062
218.854,28.2623,-0.02855,0.27958,1.00049
219.354,28.30963,-0.02854997,0.27902,1.00037
219.854,28.3569,-0.02877601,0.28032,1.00025
220.354,28.4043,-0.02964988,0.28024,1.00012
220.854,28.45182,-0.02986016,0.2815,1.0
221.354,28.49949,-0.02986001,0.28145,0.99987
221.854,28.54697,-0.0298273,0.28153,0.99975
222.354,28.5945,-0.03158816,0.28219,0.99962
222.854,28.6419,-0.03215716,0.2833,0.99949
223.354,28.6893,-0.03347674,0.28272,0.99937
223.854,28.7367,-0.03348003,0.28649,0.99924
224.354,28.78414,-0.0334743,0.2855,0.99911
224.854,28.83173,-0.03480513,0.28494,0.99899
225.354,28.87939,-0.03480002,0.28674,0.99886
225.854,28.9269,-0.03476216,0.28645,0.99873
226.354,28.97454,-0.03741994,0.2871,0.9986
226.854,29.02218,-0.03743575,0.28949,0.99847
227.354,29.06962,-0.03873272,0.28992,0.99834
227.854,29.1171,-0.04007025,0.28813,0.99822
228.354,29.1647,-0.04006956,0.29002,0.99809
228.854,29.2123,-0.04147438,0.29065,0.99796
229.354,29.2598,-0.04139001,0.2924,0.99782
229.854,29.3072,-0.04141446,0.29163,0.99769
230.354,29.3547,-0.04270821,0.29361,0.99756
230.854,29.4023,-0.04271165,0.29288,0.99743
231.354,29.45001,-0.04467,0.29332,0.9973
231.854,29.4977,-0.04467001,0.29522,0.99717
232.354,29.5452,-0.04466343,0.29662,0.99703
232.854,29.5927,-0.04599448,0.29766,0.9969
233.354,29.6401,-0.04731417,0.29848,0.99677
233.854,29.68753,-0.04722283,0.29942,0.99664
234.354,29.73497,-0.04863051,0.29835,0.9965
234.854,29.78254,-0.04860345,0.3004,0.99637
235.354,29.83,-0.04994003,0.2996,0.99623
235.854,29.87753,-0.04993957,0.30078,0.9961
236.354,29.92513,-0.05135264,0.30219,0.99596
236.854,29.9726,-0.05242247,0.30251,0.99583
237.354,30.02001,-0.05257992,0.3038,0.99569
237.854,30.0676,-0.05458799,0.30539,0.99555
238.354,30.11494,-0.05462399,0.30632,0.99542
238.854,30.1623,-0.05582405,0.3056,0.99528
239.354,30.20986,-0.05783934,0.30687,0.99514
239.854,30.25745,-0.05977439,0.30789,0.99501
240.354,30.30462,-0.0611532,0.30986,0.99487
240.854,30.3521,-0.06131101,0.30995,0.99473
241.354,30.39975,-0.06309914,0.31051,0.99459
241.854,30.4473,-0.06451362,0.30973,0.99445
242.354,30.49492,-0.06416962,0.31223,0.99431
242.854,30.5428,-0.06554989,0.3122,0.99417
243.354,30.5904,-0.06711468,0.31184,0.99403
243.854,30.63802,-0.0692311,0.31412,0.99389
244.354,30.68545,-0.07140465,0.31498,0.99375
244.854,30.73305,-0.07372255,0.31441,0.99361
245.354,30.7806,-0.07364935,0.3151,0.99347
245.854,30.8281,-0.07490094,0.31608,0.99333
246.354,30.8758,-0.07827984,0.31679,0.99318
246.854,30.92339,-0.07916339,0.31794,0.99304
247.354,30.971,-0.08273844,0.318,0.9929
247.854,31.01858,-0.08444648,0.31811,0.99275
248.354,31.06578,-0.08543752,0.31891,0.99261
248.854,31.11327,-0.08684639,0.31907,0.99247
249.354,31.16075,-0.08797694,0.32046,0.99232
249.854,31.20838,-0.09014844,0.3204,0.99218
250.354,31.2562,-0.09356743,0.32064,0.99203
250.854,31.3042,-0.09562785,0.32237,0.99189
251.354,31.3517,-0.0958465,0.32115,0.99174
251.854,31.3994,-0.09852921,0.32186,0.99159
252.354,31.44685,-0.10001,0.32338,0.99145
252.854,31.49437,-0.1012,0.32499,0.9913
253.354,31.5418,-0.10438,0.32427,0.99115
253.854,31.589,-0.10576,0.32785,0.991
254.354,31.6365,-0.10882,0.32913,0.99086
254.854,31.68395,-0.11064,0.32861,0.99071
255.354,31.73122,-0.11217,0.33069,0.99056
255.854,31.7792,-0.11515,0.32961,0.99041
256.354,31.8268,-0.11813,0.33045,0.99026
256.854,31.87455,-0.12006,0.33222,0.99011
257.354,31.92257,-0.12283,0.334,0.98996
257.854,31.9702,-0.12518,0.33407,0.98981
258.354,32.01794,-0.12766,0.33344,0.98966
258.854,32.06536,-0.13017,0.33418,0.98951
259.354,32.1128,-0.13337,0.33639,0.98935
259.854,32.15998,-0.1347,0.33622,0.9892
260.354,32.20707,-0.13899,0.33737,0.98905
260.854,32.25468,-0.14262,0.33837,0.9889
261.354,32.30218,-0.14532,0.33923,0.98874
261.854,32.34987,-0.14754,0.34032,0.98859
262.354,32.3979,-0.15056,0.34177,0.98843
262.854,32.44572,-0.1542,0.34113,0.98828
263.354,32.49349,-0.15738,0.34347,0.98812
263.854,32.5411,-0.16058,0.34558,0.98797
264.354,32.58869,-0.16445,0.34543,0.98781
264.854,32.6364,-0.16735,0.34585,0.98766
265.354,32.6841,-0.17049,0.34536,0.9875
265.854,32.73166,-0.17506,0.34785,0.98734
266.354,32.77917,-0.17857,0.34758,0.98719
266.854,32.8264,-0.18323,0.3492,0.98703
267.354,32.87381,-0.18713,0.34888,0.98687
267.854,32.9213,-0.19052,0.34991,0.98671
268.354,32.96894,-0.19388,0.35051,0.98656
268.854,33.0164,-0.19776,0.35199,0.9864
269.354,33.06427,-0.20242,0.3522,0.98624
269.854,33.11197,-0.20784,0.35374,0.98608
270.354,33.1597,-0.21208,0.35497,0.98592
270.854,33.2074,-0.21497,0.35659,0.98576
271.354,33.25524,-0.22086,0.3545,0.9856
271.854,33.303,-0.22566,0.35494,0.98543
272.354,33.3507,-0.22963,0.35531,0.98527
272.854,33.3984,-0.23485,0.35601,0.98511
273.354,33.446,-0.23919,0.35493,0.98495
273.854,33.49372,-0.24461,0.35643,0.98478
274.354,33.5415,-0.25087,0.35632,0.98462
274.854,33.58912,-0.25528,0.35463,0.98446
275.354,33.63686,-0.26104,0.35641,0.98429
275.854,33.6845,-0.26687,0.35457,0.98413
276.354,33.7318,-0.27324,0.35449,0.98396
276.854,33.77952,-0.27944,0.35449,0.9838
277.354,33.82696,-0.28526,0.35577,0.98363
277.854,33.87469,-0.29134,0.35552,0.98347
278.354,33.9226,-0.29693,0.35616,0.9833
278.854,33.9703,-0.30161,0.35548,0.98313
279.354,34.018,-0.30795,0.35581,0.98297
279.854,34.06609,-0.31444,0.35424,0.9828
280.354,34.11377,-0.32056,0.35444,0.98263
280.854,34.16163,-0.32743,0.35484,0.98246
281.354,34.20955,-0.33564,0.35435,0.98229
281.854,34.25724,-0.34263,0.35524,0.98213
282.354,34.305,-0.34851,0.35373,0.98196
282.854,34.35281,-0.35364,0.35283,0.98179
283.354,34.4005,-0.36112,0.35289,0.98162
283.854,34.4482,-0.36827,0.3507,0.98144
284.354,34.49597,-0.37589,0.34987,0.98127
284.854,34.54377,-0.38401,0.35036,0.9811
285.354,34.59147,-0.39266,0.34934,0.98093
285.854,34.63913,-0.40111,0.34885,0.98076
286.354,34.6867,-0.40704,0.34798,0.98059
286.854,34.7344,-0.41459,0.34812,0.98041
287.354,34.7821,-0.42122,0.3464,0.98024
287.854,34.83005,-0.42937,0.34483,0.98006
288.354,34.8778,-0.43688,0.34564,0.97989
288.854,34.9257,-0.44545,0.34318,0.97972
289.354,34.97348,-0.45341,0.34483,0.97954
289.854,35.0212,-0.46259,0.34467,0.97936
290.354,35.06906,-0.47049,0.34239,0.97919
290.854,35.11705,-0.47856,0.34201,0.97901
291.354,35.16487,-0.48671,0.34086,0.97884
291.854,35.21289,-0.49552,0.34003,0.97866
292.354,35.26078,-0.50286,0.34065,0.97848
292.854,35.30839,-0.51083,0.34051,0.9783
293.354,35.3561,-0.51986,0.34174,0.97813
293.854,35.40382,-0.52883,0.34013,0.97795
294.354,35.4514,-0.53739,0.3392,0.97777
294.854,35.49917,-0.54598,0.33959,0.97759
295.354,35.54696,-0.55466,0.34055,0.97741
295.854,35.5947,-0.56268,0.33937,0.97723
296.354,35.64257,-0.57138,0.33956,0.97705
296.854,35.69047,-0.57952,0.33785,0.97687
297.354,35.73842,-0.5883,0.33563,0.97668
297.854,35.78627,-0.59766,0.339,0.9765
298.354,35.8342,-0.60667,0.33792,0.97632
298.854,35.88193,-0.61563,0.3373,0.97614
299.354,35.92987,-0.62475,0.33489,0.97595
299.854,35.97759,-0.63362,0.33595,0.97577
300.354,36.02551,-0.64315,0.33638,0.97559
300.854,36.07333,-0.65153,0.33525,0.9754
301.354,36.1212,-0.66142,0.33449,0.97522
301.854,36.16898,-0.67073,0.33507,0.97503
302.354,36.2164,-0.67982,0.33662,0.97485
302.854,36.26384,-0.68895,0.33576,0.97466
303.354,36.31176,-0.69844,0.33935,0.97447
303.854,36.35966,-0.70767,0.33605,0.97429
304.354,36.40788,-0.71841,0.33637,0.9741
304.854,36.45642,-0.72701,0.33455,0.97391
305.354,36.50443,-0.73669,0.33598,0.97372
305.854,36.55245,-0.74571,0.33844,0.97353
306.354,36.60044,-0.7547,0.3374,0.97334
306.854,36.64828,-0.7653,0.33898,0.97316
307.354,36.6962,-0.77529,0.34058,0.97297
307.854,36.74416,-0.78473,0.33955,0.97278
308.354,36.79215,-0.79477,0.34045,0.97258
308.854,36.84015,-0.80574,0.34068,0.97239
309.354,36.88818,-0.81516,0.3414,0.9722
309.854,36.9362,-0.82365,0.34094,0.97201
310.354,36.9841,-0.83262,0.34168,0.97182
310.854,37.0321,-0.84157,0.3432,0.97163
311.354,37.08008,-0.8516,0.34355,0.97143
311.854,37.12777,-0.86191,0.34648,0.97124
312.354,37.17588,-0.87259,0.34619,0.97104
312.854,37.2239,-0.8838,0.34937,0.97085
313.354,37.27192,-0.89461,0.35188,0.97066
313.854,37.3202,-0.90453,0.35356,0.97046
314.354,37.36829,-0.91451,0.3552,0.97026
314.854,37.41649,-0.92345,0.35645,0.97007
315.354,37.46448,-0.93316,0.35852,0.96987
315.854,37.51259,-0.94321,0.35967,0.96967
316.354,37.56065,-0.95464,0.36184,0.96948
316.854,37.60868,-0.9654,0.36493,0.96928
317.354,37.6567,-0.97428,0.36568,0.96908
317.854,37.70486,-0.9851,0.36884,0.96888
318.354,37.753,-0.99785,0.37176,0.96868
318.854,37.80079,-1.00839,0.3733,0.96848
319.354,37.8489,-1.01779,0.37523,0.96828
319.854,37.897,-1.0288,0.37771,0.96808
320.354,37.94497,-1.041,0.38117,0.96788
320.854,37.99322,-1.05065,0.38256,0.96768
321.354,38.04126,-1.06138,0.38554,0.96748
321.854,38.0892,-1.07106,0.38727,0.96728
322.354,38.13731,-1.08197,0.38993,0.96708
322.854,38.18547,-1.09417,0.39304,0.96687
323.354,38.23353,-1.10555,0.39615,0.96667
323.854,38.28176,-1.11651,0.39942,0.96647
324.354,38.32997,-1.12713,0.40034,0.96626
324.854,38.37818,-1.13822,0.4028,0.96606
325.354,38.42658,-1.14883,0.40685,0.96585
325.854,38.47502,-1.16102,0.40885,0.96565
326.354,38.52315,-1.17173,0.41133,0.96544
326.854,38.57137,-1.18337,0.41424,0.96523
327.354,38.61932,-1.19491,0.41786,0.96503
327.854,38.66735,-1.20734,0.42195,0.96482
328.354,38.71545,-1.2194,0.42416,0.96461
328.854,38.76363,-1.23079,0.42764,0.9644
329.354,38.81194,-1.24209,0.43139,0.9642
329.854,38.86023,-1.25313,0.43356,0.96399
330.354,38.9084,-1.26553,0.43868,0.96378
330.854,38.95655,-1.27708,0.44003,0.96357
331.354,39.0047,-1.28808,0.44487,0.96336
331.854,39.05272,-1.29976,0.44793,0.96315
332.354,39.10085,-1.31277,0.45024,0.96293
332.854,39.14917,-1.32504,0.45491,0.96272
333.354,39.1974,-1.33792,0.45921,0.96251
333.854,39.24557,-1.34977,0.46466,0.9623
334.354,39.29384,-1.36208,0.46891,0.96209
334.854,39.3419,-1.37428,0.46944,0.96187
335.354,39.39004,-1.38855,0.47402,0.96166
335.854,39.43826,-1.40221,0.48075,0.96144
336.354,39.4863,-1.41345,0.48386,0.96123
336.854,39.53422,-1.42798,0.48814,0.96102
337.354,39.58234,-1.44151,0.49091,0.9608
337.854,39.63029,-1.45481,0.49853,0.96058
338.354,39.6787,-1.46814,0.50306,0.96037
338.854,39.72688,-1.48129,0.5056,0.96015
339.354,39.77539,-1.49528,0.51277,0.95993
339.854,39.8237,-1.50932,0.51583,0.95972
340.354,39.87193,-1.52389,0.5202,0.9595
340.854,39.92009,-1.53829,0.52677,0.95928
341.354,39.96822,-1.55274,0.53328,0.95906
341.854,40.01645,-1.56754,0.5385,0.95884
342.354,40.06443,-1.58287,0.54548,0.95862
342.854,40.11247,-1.59834,0.54998,0.9584
343.354,40.16041,-1.6134,0.55577,0.95818
343.854,40.20881,-1.62964,0.56084,0.95796
344.354,40.25741,-1.64471,0.56551,0.95774
344.854,40.3057,-1.6612,0.57164,0.95751
345.354,40.35427,-1.67801,0.57741,0.95729
345.854,40.4024,-1.69464,0.58616,0.95707
346.354,40.4505,-1.71013,0.59062,0.95685
346.854,40.4989,-1.72652,0.59674,0.95662
347.354,40.5475,-1.74338,0.6002,0.9564
347.854,40.59617,-1.76173,0.6066,0.95617
348.354,40.64464,-1.77975,0.61447,0.95595
348.854,40.6931,-1.7962,0.61801,0.95572
349.354,40.7413,-1.81276,0.62256,0.9555
349.854,40.78968,-1.83169,0.62887,0.95527
350.354,40.83804,-1.85079,0.63423,0.95504
350.854,40.88633,-1.8695,0.6414,0.95481
351.354,40.93485,-1.88571,0.64521,0.95459
351.854,40.98312,-1.90477,0.65219,0.95436
352.354,41.03136,-1.92488,0.65572,0.95413
352.854,41.07976,-1.94415,0.66177,0.9539
353.354,41.1282,-1.96377,0.66732,0.95367
353.854,41.17662,-1.98303,0.67177,0.95344
354.354,41.225,-2.00331,0.67529,0.95321
354.854,41.27335,-2.02338,0.67915,0.95298
355.354,41.32168,-2.04417,0.68403,0.95275
355.854,41.37005,-2.06394,0.68727,0.95251
356.354,41.4185,-2.08506,0.69073,0.95228
356.854,41.46695,-2.10531,0.69508,0.95205
357.354,41.5154,-2.12611,0.69544,0.95182
357.854,41.5638,-2.14689,0.69937,0.95158
358.354,41.6122,-2.16731,0.70253,0.95135
358.854,41.66063,-2.19013,0.70307,0.95111
359.354,41.709,-2.2114,0.7051,0.95088
359.854,41.75742,-2.23318,0.70547,0.95064
360.354,41.80581,-2.25447,0.70445,0.95041
360.854,41.85417,-2.27527,0.70353,0.95017
361.354,41.90249,-2.29668,0.70369,0.94993
361.854,41.95082,-2.31916,0.70268,0.9497
362.354,41.9992,-2.34195,0.69945,0.94946
362.854,42.04764,-2.36221,0.69499,0.94922
363.354,42.09613,-2.38301,0.69258,0.94898
363.854,42.1444,-2.4052,0.68767,0.94874
364.354,42.19278,-2.42654,0.67995,0.9485
364.854,42.24115,-2.4481,0.67368,0.94826
365.354,42.2894,-2.46867,0.667,0.94802
365.854,42.3378,-2.48859,0.6571,0.94778
366.354,42.38623,-2.51037,0.64855,0.94754
366.854,42.43455,-2.53151,0.63926,0.9473
367.354,42.48271,-2.55184,0.62579,0.94705
367.854,42.53119,-2.5705,0.61587,0.94681
368.354,42.5795,-2.58914,0.60126,0.94657
368.854,42.62748,-2.60835,0.58663,0.94632
369.354,42.67588,-2.62742,0.57153,0.94608
369.854,42.72426,-2.64558,0.55668,0.94584
370.354,42.77247,-2.66371,0.53994,0.94559
370.854,42.82113,-2.68196,0.5206,0.94534
371.354,42.8694,-2.69879,0.50121,0.9451
371.854,42.91774,-2.71429,0.48151,0.94485
372.354,42.96618,-2.72929,0.46123,0.94461
372.854,43.01446,-2.74338,0.43888,0.94436
373.354,43.06269,-2.75743,0.41665,0.94411
373.854,43.1111,-2.77075,0.39536,0.94386
374.354,43.1596,-2.78326,0.37477,0.94361
374.854,43.20787,-2.79584,0.3501,0.94336
375.354,43.25626,-2.80696,0.32601,0.94311
375.854,43.30454,-2.81777,0.30444,0.94286
376.354,43.35273,-2.82842,0.28159,0.94261
376.854,43.40103,-2.83793,0.25897,0.94236
377.354,43.4495,-2.84809,0.23465,0.94211
377.854,43.49777,-2.85707,0.21551,0.94186
378.354,43.546,-2.86417,0.1957,0.94161
378.854,43.59431,-2.87134,0.17725,0.94135
379.354,43.64265,-2.87724,0.15954,0.9411
379.854,43.69086,-2.88359,0.13904,0.94085
380.354,43.7393,-2.88953,0.12617,0.94059
380.854,43.78767,-2.89402,0.1099,0.94034
381.354,43.83602,-2.9008,0.09987847,0.94008
381.854,43.88451,-2.90582,0.08562388,0.93983
382.354,43.933,-2.9074,0.07678105,0.93957
382.854,43.98149,-2.91093,0.06608207,0.93931
383.354,44.02982,-2.91417,0.05415641,0.93906
383.854,44.07823,-2.91598,0.04824297,0.9388
384.354,44.1265,-2.91895,0.04033339,0.93854
384.854,44.1749,-2.9209,0.03557593,0.93828
385.354,44.22327,-2.92408,0.02943092,0.93802
385.854,44.27166,-2.92527,0.0255676,0.93776
386.354,44.32022,-2.9266,0.02064817,0.9375
386.854,44.3688,-2.92796,0.0173529,0.93724
387.354,44.41734,-2.93093,0.01454152,0.93698
387.854,44.46583,-2.93263,0.009798397,0.93672
388.354,44.51433,-2.93393,0.008613183,0.93646
388.854,44.56288,-2.93603,0.00605492,0.9362
389.354,44.61144,-2.93815,0.00445499,0.93593
389.854,44.65999,-2.93944,0.001640549,0.93567
390.354,44.70851,-2.94102,0.0001700996,0.93541
390.854,44.7569,-2.94364,-0.002498839,0.93514
391.354,44.80519,-2.945,-0.006042218,0.93488
391.854,44.85369,-2.94628,-0.007382621,0.93461
392.354,44.90233,-2.94678,-0.00907924,0.93435
392.854,44.9508,-2.94767,-0.01159432,0.93408
393.354,44.99949,-2.949,-0.01194564,0.93381
393.854,45.04811,-2.95141,-0.01306282,0.93355
394.354,45.0965,-2.95357,-0.01477061,0.93328
394.854,45.14506,-2.95539,-0.01565366,0.93301
395.354,45.19359,-2.95611,-0.01554532,0.93274
395.854,45.24218,-2.95686,-0.0166017,0.93248
396.354,45.29078,-2.95806,-0.019782,0.93221
396.854,45.33943,-2.96006,-0.01804372,0.93194
397.354,45.3881,-2.96144,-0.02162018,0.93167
397.854,45.43656,-2.9627,-0.02098689,0.9314
398.354,45.48513,-2.96406,-0.02341527,0.93112
398.854,45.5338,-2.96633,-0.02676214,0.93085
399.354,45.58243,-2.96817,-0.02824128,0.93058
399.854,45.63097,-2.96974,-0.02908236,0.93031
400.354,45.67967,-2.96974,-0.02929251,0.93004
400.854,45.72803,-2.97105,-0.03038226,0.92976
401.354,45.77666,-2.97238,-0.03426295,0.92949
401.854,45.82524,-2.97287,-0.03482174,0.92921
402.354,45.8739,-2.97402,-0.03557196,0.92894
402.854,45.92257,-2.97652,-0.03751601,0.92866
403.354,45.97149,-2.97741,-0.03738254,0.92839
403.854,46.02019,-2.97743,-0.03863725,0.92811
404.354,46.06884,-2.9794,-0.04026936,0.92783
404.854,46.11742,-2.98151,-0.04226183,0.92756
405.354,46.166,-2.98228,-0.04403618,0.92728
405.854,46.21456,-2.98326,-0.04520456,0.927
406.354,46.2633,-2.98437,-0.04704799,0.92672
406.854,46.3121,-2.98566,-0.04704694,0.92644
407.354,46.3609,-2.98701,-0.04803299,0.92616
407.854,46.40975,-2.98961,-0.05010169,0.92588
408.354,46.45823,-2.99092,-0.05091565,0.9256
408.854,46.50639,-2.99223,-0.05415211,0.92532
409.354,46.555,-2.99225,-0.05287094,0.92504
409.854,46.60347,-2.99362,-0.0528066,0.92476
410.354,46.65183,-2.99503,-0.05458758,0.92448
410.854,46.70095,-2.99799,-0.05684754,0.92419
411.354,46.7498,-2.99927,-0.0560201,0.92391
411.854,46.7984,-2.99927,-0.0586221,0.92363
412.354,46.84728,-3.00012,-0.05880696,0.92334
412.854,46.896,-3.0006,-0.05902804,0.92306
413.354,46.94467,-3.00141,-0.06101152,0.92277
413.854,46.99346,-3.00191,-0.05916609,0.92248
414.354,47.0422,-3.0038,-0.0596697,0.9222
414.854,47.09083,-3.00562,-0.06071611,0.92191
415.354,47.13949,-3.00658,-0.06401047,0.92162
415.854,47.18801,-3.00812,-0.06206739,0.92134
416.354,47.2367,-3.00956,-0.06360699,0.92105
416.854,47.2854,-3.01054,-0.06340521,0.92076
417.354,47.3341,-3.01239,-0.0639694,0.92047
417.854,47.38286,-3.01371,-0.06419468,0.92018
418.354,47.43163,-3.01507,-0.06260582,0.91989
418.854,47.4803,-3.01641,-0.06421283,0.9196
419.354,47.52905,-3.0167,-0.06459977,0.91931
419.854,47.57765,-3.01997,-0.06520418,0.91902
420.354,47.6265,-3.02128,-0.06588378,0.91873
420.854,47.6753,-3.01992,-0.06433814,0.91843
421.354,47.72388,-3.02123,-0.06570593,0.91814
421.854,47.77264,-3.02262,-0.06492733,0.91785
422.354,47.82134,-3.02397,-0.06534481,0.91755
422.854,47.87004,-3.02528,-0.06771072,0.91726
423.354,47.91892,-3.02492,-0.06523998,0.91696
423.854,47.96785,-3.02562,-0.06447646,0.91667
424.354,48.0169,-3.02557,-0.06323271,0.91637
424.854,48.06589,-3.02845,-0.06399114,0.91608
425.354,48.11488,-3.02967,-0.06414352,0.91578
425.854,48.16369,-3.03103,-0.06437894,0.91548
426.354,48.2125,-3.03231,-0.06334449,0.91519
426.854,48.26132,-3.03335,-0.0648065,0.91489
427.354,48.3102,-3.033,-0.06517048,0.91459
427.854,48.35924,-3.03364,-0.06497329,0.91429
428.354,48.40807,-3.03494,-0.06408368,0.91399
428.854,48.45694,-3.03509,-0.0634575,0.91369
429.354,48.5057,-3.03727,-0.06222971,0.91339
429.854,48.55446,-3.0381,-0.06149581,0.91309
430.354,48.60345,-3.03902,-0.06100453,0.91279
430.854,48.65247,-3.04016,-0.06089855,0.91249
431.354,48.7014,-3.04043,-0.06040508,0.91218
431.854,48.75047,-3.04167,-0.05989448,0.91188
432.354,48.79933,-3.04297,-0.05972767,0.91158
432.854,48.84817,-3.04378,-0.0589793,0.91127
433.354,48.89716,-3.04548,-0.05962413,0.91097
433.854,48.94634,-3.04699,-0.05678304,0.91066
434.354,48.9953,-3.04727,-0.05581063,0.91036
434.854,49.04445,-3.04971,-0.05538674,0.91005
435.354,49.0934,-3.05098,-0.05461963,0.90975
435.854,49.14227,-3.05097,-0.05339466,0.90944
436.354,49.19119,-3.0523,-0.05361806,0.90913
436.854,49.24015,-3.05297,-0.05315909,0.90882
437.354,49.28907,-3.05362,-0.05234037,0.90852
437.854,49.33794,-3.05493,-0.04978987,0.90821
438.354,49.38667,-3.05533,-0.05079191,0.9079
438.854,49.43571,-3.05762,-0.05092549,0.90759
439.354,49.4846,-3.05755,-0.04973873,0.90728
439.854,49.5337,-3.05889,-0.04838015,0.90697
440.354,49.583,-3.05907,-0.04894567,0.90666
440.854,49.632,-3.05887,-0.04754434,0.90635
441.354,49.68098,-3.0602,-0.04511032,0.90603
441.854,49.72978,-3.0602,-0.04573343,0.90572
442.354,49.77858,-3.06155,-0.04475372,0.90541
442.854,49.82752,-3.06032,-0.04325072,0.9051
443.354,49.8765,-3.06152,-0.04219394,0.90478
443.854,49.9258,-3.06393,-0.04085933,0.90447
444.354,49.97488,-3.06422,-0.03944281,0.90415
444.854,50.02395,-3.06679,-0.04145144,0.90384
445.354,50.07267,-3.06808,-0.04025692,0.90352
445.854,50.12149,-3.0681,-0.03668212,0.9032
446.354,50.17028,-3.06811,-0.0371451,0.90289
446.854,50.2191,-3.0704,-0.03484087,0.90257
447.354,50.2683,-3.07174,-0.03561519,0.90225
447.854,50.3174,-3.07171,-0.03374938,0.90193
448.354,50.36647,-3.07305,-0.03457147,0.90162
448.854,50.4155,-3.07395,-0.03219196,0.9013
449.354,50.4645,-3.07436,-0.03095467,0.90098
449.854,50.51338,-3.07533,-0.03115548,0.90066
450.354,50.56223,-3.07437,-0.02862502,0.90034
450.854,50.61116,-3.0748,-0.02896273,0.90002
451.354,50.6601,-3.07568,-0.0270403,0.89969
451.854,50.70874,-3.07701,-0.02414239,0.89937
452.354,50.7577,-3.07798,-0.0243956,0.89905
452.854,50.8067,-3.07915,-0.02362484,0.89873
453.354,50.85567,-3.07931,-0.01971616,0.8984
453.854,50.90509,-3.0806,-0.01981987,0.89808
454.354,50.9542,-3.08098,-0.01881332,0.89775
454.854,51.00307,-3.08193,-0.01702897,0.89743
455.354,51.05192,-3.08193,-0.01395578,0.8971
455.854,51.10078,-3.08325,-0.01257162,0.89678
456.354,51.1496,-3.08325,-0.01091878,0.89645
456.854,51.19862,-3.08319,-0.009002398,0.89613
457.354,51.24774,-3.08453,-0.0054673,0.8958
457.854,51.29663,-3.08588,-0.005632611,0.89547
458.354,51.3456,-3.08715,-0.003674017,0.89514
458.854,51.3945,-3.0872,-0.003282237,0.89481
459.354,51.4435,-3.08815,-0.002701738,0.89448
459.854,51.49241,-3.08852,0.002400588,0.89415
460.354,51.54143,-3.08883,0.001198659,0.89382
460.854,51.59032,-3.09148,0.002367364,0.89349
461.354,51.63945,-3.0915,0.004053529,0.89316
461.854,51.68867,-3.09072,0.006015822,0.89283
462.354,51.73768,-3.09149,0.006265474,0.8925
462.854,51.7868,-3.09149,0.008908819,0.89217
463.354,51.83582,-3.09285,0.0092045,0.89183
463.854,51.88482,-3.0928,0.01015009,0.8915
464.354,51.93393,-3.09414,0.01116546,0.89117
464.854,51.9831,-3.09413,0.01107623,0.89083
465.354,52.03223,-3.09496,0.01175443,0.8905
465.854,52.0813,-3.09545,0.01303688,0.89016
466.354,52.13051,-3.09676,0.01404388,0.88983
466.854,52.1796,-3.09676,0.01525123,0.88949
467.354,52.2286,-3.09748,0.01443549,0.88915
467.854,52.27754,-3.09742,0.01517669,0.88881
468.354,52.32635,-3.09742,0.01539191,0.88848
468.854,52.37525,-3.09781,0.01824272,0.88814
469.354,52.4245,-3.09972,0.01922965,0.8878
469.854,52.47367,-3.10105,0.01772798,0.88746
470.354,52.523,-3.10105,0.02210355,0.88712
470.854,52.5724,-3.10235,0.02084069,0.88678
471.354,52.6216,-3.10236,0.02157028,0.88644
471.854,52.6707,-3.101,0.02206188,0.8861
472.354,52.72,-3.10104,0.02250599,0.88576
472.854,52.76905,-3.10235,0.02528859,0.88542
473.354,52.8182,-3.10426,0.02463231,0.88507
473.854,52.86724,-3.10543,0.0240151,0.88473
474.354,52.9161,-3.10565,0.02727791,0.88439
474.854,52.96527,-3.10565,0.02616551,0.88404
475.354,53.0143,-3.10565,0.0270053,0.8837
475.854,53.0634,-3.10594,0.02676196,0.88335
476.354,53.1128,-3.10697,0.02572272,0.88301
476.854,53.1621,-3.10837,0.02627704,0.88266
477.354,53.21141,-3.10846,0.02397145,0.88232
477.854,53.2604,-3.11027,0.02367706,0.88197
478.354,53.3096,-3.11027,0.02623252,0.88162
478.854,53.35858,-3.11258,0.02690037,0.88127
479.354,53.40759,-3.11256,0.0264338,0.88093
479.854,53.45672,-3.11291,0.02765103,0.88058
480.354,53.50589,-3.11421,0.02832508,0.88023
480.854,53.55483,-3.11421,0.02878472,0.87988
481.354,53.60405,-3.11422,0.02955988,0.87953
481.854,53.65335,-3.11552,0.03152546,0.87918
482.354,53.70254,-3.11421,0.02992466,0.87883
482.854,53.75166,-3.11419,0.02934646,0.87847
483.354,53.80078,-3.11688,0.02768855,0.87812
483.854,53.84986,-3.11684,0.02837658,0.87777
484.354,53.8989,-3.11684,0.02725184,0.87742
484.854,53.94801,-3.11681,0.02863094,0.87706
485.354,53.99746,-3.11743,0.02897336,0.87671
485.854,54.0467,-3.11817,0.02824098,0.87635
486.354,54.0961,-3.11817,0.02829037,0.876
486.854,54.14538,-3.11817,0.0282764,0.87564
487.354,54.1945,-3.11817,0.02992884,0.87529
487.854,54.2437,-3.11817,0.02905235,0.87493
488.354,54.29295,-3.11957,0.03039027,0.87458
488.854,54.34215,-3.11957,0.02927935,0.87422
489.354,54.39115,-3.1208,0.02821686,0.87386
489.854,54.4404,-3.1208,0.02926477,0.8735
490.354,54.48969,-3.1208,0.03118519,0.87314
490.854,54.539,-3.1208,0.0283485,0.87278
491.354,54.58831,-3.12212,0.03102969,0.87243
491.854,54.637,-3.12215,0.02958697,0.87207
492.354,54.686,-3.12344,0.03095709,0.8717
492.854,54.73516,-3.12291,0.02677844,0.87134
493.354,54.78436,-3.12278,0.02814196,0.87098
493.854,54.8338,-3.12278,0.02751761,0.87062
494.354,54.8829,-3.12272,0.02705205,0.87026
494.854,54.93225,-3.1241,0.02755677,0.86989
495.354,54.98149,-3.12416,0.02689136,0.86953
495.854,55.0308,-3.12541,0.02798266,0.86917
496.354,55.0803,-3.12674,0.02846786,0.8688
496.854,55.1295,-3.12673,0.02342547,0.86844
497.354,55.1788,-3.12797,0.02528705,0.86807
497.854,55.22821,-3.12805,0.02281514,0.86771
498.354,55.2779,-3.1294,0.02285019,0.86734
498.854,55.32721,-3.12936,0.02141027,0.86697
499.354,55.37656,-3.12936,0.0190553,0.86661
499.854,55.42584,-3.12936,0.01624657,0.86624
500.354,55.4751,-3.12936,0.01575007,0.86587
500.854,55.52434,-3.12871,0.01415607,0.8655
501.354,55.57371,-3.12962,0.01439889,0.86513
501.854,55.6229,-3.131,0.01201229,0.86477
502.354,55.67204,-3.13208,0.01225034,0.8644
502.854,55.7212,-3.13208,0.01259827,0.86402
503.354,55.7705,-3.13331,0.01105474,0.86365
503.854,55.81986,-3.13331,0.01154865,0.86328
504.354,55.86919,-3.13331,0.008238588,0.86291
504.854,55.91868,-3.13331,0.008024969,0.86254
505.354,55.96804,-3.13331,0.007933653,0.86217
505.854,56.0171,-3.13328,0.00775063,0.86179
506.354,56.0665,-3.13236,0.00749957,0.86142
506.854,56.11569,-3.13426,0.00641169,0.86104
507.354,56.16494,-3.13593,0.004969043,0.86067
507.854,56.21436,-3.13728,0.004493691,0.86029
508.354,56.2636,-3.13726,0.004444738,0.85992
508.854,56.3129,-3.13825,0.00245649,0.85954
509.354,56.36226,-3.13825,0.0009404136,0.85917
509.854,56.4116,-3.13689,0.0004237461,0.85879
510.354,56.46099,-3.13693,0.001288612,0.85841
510.854,56.51031,-3.13693,0.002428567,0.85803
511.354,56.55939,-3.13693,0.00140513,0.85766
511.854,56.60861,-3.13722,-0.0005385084,0.85728
512.354,56.65791,-3.13722,-0.002182338,0.8569
512.854,56.70725,-3.13989,-0.0017119,0.85652
513.354,56.7569,-3.1399,-0.001232761,0.85614
513.854,56.80647,-3.14092,-0.000285821,0.85576
514.354,56.8558,-3.14122,-0.00247372,0.85538
514.854,56.905,-3.14259,-0.003378255,0.855
515.354,56.95397,-3.14253,-0.00377653,0.85461
515.854,57.00315,-3.14185,-0.00289179,0.85423
516.354,57.05265,-3.14319,-0.002352419,0.85385
516.854,57.102,-3.1432,-0.005959393,0.85346
517.354,57.15178,-3.14451,-0.00506469,0.85308
517.854,57.2014,-3.14451,-0.005541467,0.8527
518.354,57.2509,-3.14451,-0.00654022,0.85231
518.854,57.3004,-3.14583,-0.007170654,0.85193
519.354,57.3498,-3.14583,-0.00766508,0.85154
519.854,57.3991,-3.14583,-0.009130991,0.85115
520.354,57.4486,-3.14512,-0.01031733,0.85077
520.854,57.498,-3.14649,-0.009951323,0.85038
521.354,57.54747,-3.14649,-0.008227135,0.84999
521.854,57.5968,-3.14649,-0.009061509,0.84961
522.354,57.64615,-3.14708,-0.008805139,0.84922
522.854,57.6956,-3.1478,-0.01093651,0.84883
523.354,57.7451,-3.14782,-0.01053626,0.84844
523.854,57.79461,-3.14879,-0.01035024,0.84805
524.354,57.8442,-3.14912,-0.009525901,0.84766
524.854,57.8938,-3.14912,-0.0103585,0.84727
525.354,57.9434,-3.14912,-0.0116284,0.84688
525.854,57.99301,-3.14916,-0.01225248,0.84648
526.354,58.04263,-3.14847,-0.01308203,0.84609
526.854,58.09209,-3.14856,-0.01303812,0.8457
527.354,58.14165,-3.15022,-0.01286284,0.84531
527.854,58.1912,-3.15077,-0.01209194,0.84491
528.354,58.24058,-3.15077,-0.01274079,0.84452
528.854,58.28995,-3.15077,-0.01385062,0.84413
529.354,58.33954,-3.15209,-0.01634995,0.84373
529.854,58.38899,-3.15209,-0.01546193,0.84333
530.354,58.43874,-3.15335,-0.01561253,0.84294
530.854,58.4885,-3.1534,-0.01312873,0.84254
531.354,58.5382,-3.15368,-0.01608612,0.84215
531.854,58.5879,-3.15238,-0.016162,0.84175
532.354,58.6375,-3.15342,-0.01844011,0.84135
532.854,58.687,-3.15341,-0.01466431,0.84095
533.354,58.73645,-3.15456,-0.01666305,0.84056
533.854,58.78586,-3.15473,-0.01663666,0.84016
534.354,58.8354,-3.15473,-0.01672257,0.83976
534.854,58.88515,-3.15727,-0.01681133,0.83936
535.354,58.9349,-3.1586,-0.0188877,0.83896
535.854,58.9847,-3.15764,-0.01786117,0.83856
536.354,59.0343,-3.15736,-0.01844929,0.83815
536.854,59.08375,-3.15735,-0.0179029,0.83775
537.354,59.13325,-3.15869,-0.01944411,0.83735
537.854,59.18265,-3.15868,-0.01775293,0.83695
538.354,59.23205,-3.15951,-0.02043607,0.83655
538.854,59.28156,-3.15965,-0.02125235,0.83614
539.354,59.33099,-3.15967,-0.02145154,0.83574
539.854,59.3807,-3.15967,-0.02111607,0.83533
540.354,59.4303,-3.15967,-0.02366518,0.83493
540.854,59.47987,-3.15967,-0.02504639,0.83452
541.354,59.5294,-3.15967,-0.02319971,0.83412
541.854,59.5784,-3.15969,-0.02588942,0.83371
542.354,59.62785,-3.16097,-0.02620162,0.83331
542.854,59.6772,-3.1623,-0.02663304,0.8329
543.354,59.72675,-3.1623,-0.02755765,0.83249
543.854,59.7766,-3.1622,-0.02672662,0.83208
544.354,59.8262,-3.16362,-0.02752848,0.83167
544.854,59.8756,-3.16356,-0.02653444,0.83127
545.354,59.9251,-3.1641,-0.02796021,0.83086
545.854,59.9745,-3.16362,-0.02928293,0.83045
546.354,60.024,-3.16362,-0.0317007,0.83004
546.854,60.07376,-3.16362,-0.02929585,0.82963
547.354,60.12315,-3.16362,-0.03132263,0.82921
547.854,60.1725,-3.16362,-0.03101086,0.8288
548.354,60.22195,-3.1641,-0.03013923,0.82839
548.854,60.2714,-3.16526,-0.02985218,0.82798
549.354,60.3208,-3.16526,-0.03143923,0.82757
549.854,60.37034,-3.16526,-0.03080907,0.82715
550.354,60.42,-3.16658,-0.02990956,0.82674
550.854,60.4694,-3.16657,-0.03088421,0.82633
551.354,60.51889,-3.16559,-0.03406323,0.82591
551.854,60.5686,-3.16584,-0.03378912,0.8255
552.354,60.61809,-3.16694,-0.03337597,0.82508
552.854,60.6676,-3.16702,-0.03284246,0.82466
553.354,60.71715,-3.16702,-0.03469667,0.82425
553.854,60.7666,-3.16703,-0.03547373,0.82383
554.354,60.816,-3.16833,-0.03480457,0.82341
554.854,60.8654,-3.16959,-0.03399304,0.823
555.354,60.91494,-3.16965,-0.03541738,0.82258
555.854,60.9643,-3.16965,-0.03569147,0.82216
556.354,61.0136,-3.16965,-0.03789136,0.82174
556.854,61.06306,-3.16965,-0.03811445,0.82132
557.354,61.11251,-3.16965,-0.03717465,0.8209
557.854,61.1621,-3.1683,-0.03750513,0.82048
558.354,61.21179,-3.16966,-0.0382157,0.82006
558.854,61.26146,-3.17107,-0.03886423,0.81964
559.354,61.311,-3.17229,-0.03760416,0.81922
559.854,61.3604,-3.17229,-0.03723895,0.8188
560.354,61.40954,-3.17229,-0.03725551,0.81837
560.854,61.459,-3.1723,-0.03704793,0.81795
561.354,61.50849,-3.17357,-0.0377095,0.81753
561.854,61.55806,-3.1736,-0.04033709,0.8171
562.354,61.608,-3.17494,-0.03619755,0.81668
562.854,61.6577,-3.17491,-0.03878496,0.81626
563.354,61.70745,-3.17462,-0.03905207,0.81583
563.854,61.75708,-3.17426,-0.04137458,0.8154
564.354,61.8068,-3.17426,-0.03968015,0.81498
564.854,61.85638,-3.17426,-0.04147058,0.81455
565.354,61.90602,-3.17523,-0.04391075,0.81413
565.854,61.95561,-3.17558,-0.04437629,0.8137
566.354,62.0049,-3.17561,-0.04430905,0.81327
566.854,62.05437,-3.17723,-0.04192901,0.81284
567.354,62.10395,-3.17723,-0.04153078,0.81241
567.854,62.15344,-3.17629,-0.04060136,0.81199
568.354,62.2031,-3.17731,-0.04193132,0.81156
568.854,62.25283,-3.17722,-0.04179225,0.81113
569.354,62.3024,-3.17801,-0.0430457,0.8107
569.854,62.35193,-3.17821,-0.04309974,0.81027
570.354,62.40158,-3.17932,-0.04288301,0.80983
570.854,62.4512,-3.17953,-0.04603455,0.8094
571.354,62.50088,-3.17953,-0.04641889,0.80897
571.854,62.5506,-3.18087,-0.04725424,0.80854
572.354,62.6003,-3.18085,-0.0486189,0.80811
572.854,62.6499,-3.18085,-0.04628801,0.80767
573.354,62.69953,-3.18085,-0.04838438,0.80724
573.854,62.7492,-3.18085,-0.04916034,0.80681
574.354,62.7988,-3.18217,-0.05000188,0.80637
574.854,62.8485,-3.18215,-0.05048298,0.80594
575.354,62.89779,-3.18085,-0.04971889,0.8055
575.854,62.94715,-3.18085,-0.04880999,0.80507
576.354,62.99632,-3.18085,-0.05011679,0.80463
576.854,63.0461,-3.18143,-0.04787365,0.80419
577.354,63.09616,-3.18216,-0.05053642,0.80376
577.854,63.146,-3.18356,-0.05152864,0.80332
578.354,63.19624,-3.18348,-0.05341927,0.80288
578.854,63.2456,-3.18348,-0.05038033,0.80244
579.354,63.29538,-3.18223,-0.05209754,0.802
579.854,63.3449,-3.18358,-0.05129893,0.80156
580.354,63.39461,-3.18348,-0.0529092,0.80113
580.854,63.4444,-3.18482,-0.05418149,0.80069
581.354,63.4941,-3.18481,-0.05420716,0.80025
581.854,63.54379,-3.18339,-0.05296616,0.7998
582.354,63.5935,-3.18349,-0.05323733,0.79936
582.854,63.64343,-3.18352,-0.05347944,0.79892
583.354,63.69321,-3.18481,-0.05302548,0.79848
583.854,63.74301,-3.18481,-0.05491551,0.79804
584.354,63.7929,-3.18475,-0.05596476,0.79759
584.854,63.8426,-3.18613,-0.05470311,0.79715
585.354,63.89245,-3.18743,-0.05732919,0.79671
585.854,63.9421,-3.18744,-0.05518953,0.79626
586.354,63.99188,-3.18744,-0.05775484,0.79582
586.854,64.04168,-3.18748,-0.05662903,0.79537
587.354,64.0912,-3.18843,-0.05582731,0.79493
587.854,64.14092,-3.18843,-0.05762074,0.79448
588.354,64.19071,-3.18843,-0.05672451,0.79404
588.854,64.24056,-3.1891,-0.05745872,0.79359
589.354,64.2901,-3.1881,-0.06114439,0.79314
589.854,64.34003,-3.18942,-0.06142314,0.7927
590.354,64.38988,-3.18942,-0.06098571,0.79225
590.854,64.43961,-3.18942,-0.06149802,0.7918
591.354,64.4897,-3.1904,-0.05957975,0.79135
591.854,64.53939,-3.1904,-0.06176629,0.7909
592.354,64.5891,-3.19038,-0.06320359,0.79045
592.854,64.63884,-3.19073,-0.06308356,0.79001
593.354,64.6887,-3.19074,-0.06356696,0.78955
593.854,64.7385,-3.19073,-0.06375654,0.7891
594.354,64.7883,-3.19164,-0.06213708,0.78865
594.854,64.8382,-3.1917,-0.06555276,0.7882
595.354,64.88792,-3.19238,-0.06524271,0.78775
595.854,64.9377,-3.19238,-0.06411077,0.7873
596.354,64.98806,-3.19238,-0.0659812,0.78685
596.454,64.99829,-3.19238,-0.06604439,0.78676