File: 01_Data/Wool_Rug/STA/N2/30K_min/Wool_Rug_STA_N2_30KData_220119_R3.csv
##Temp./Â°C,Time/min,Mass loss(subtr.2)/mg,DSC(subtr.2)/(mW/mg),Sensit./(uV/mW)
48.518,10.00667,-0.00912,0.005740969,1.06963
49.218,10.55146,-0.009980807,0.04365371,1.06957
49.918,10.6778,-0.008839285,0.07634971,1.06951
50.618,10.76768,-0.01051457,0.10591,1.06945
51.318,10.84102,-0.01044954,0.12939,1.06938
52.018,10.90457,-0.0104758,0.15376,1.06931
52.718,10.9608,-0.009540121,0.17842,1.06925
53.418,11.01276,-0.009357664,0.19618,1.06918
54.118,11.0612,-0.008775114,0.21711,1.06911
54.818,11.10634,-0.007824042,0.23536,1.06903
55.518,11.14897,-0.008184297,0.25097,1.06896
56.218,11.1897,-0.008613518,0.27014,1.06888
56.918,11.22899,-0.00778309,0.28428,1.06881
57.618,11.26679,-0.00735993,0.29883,1.06873
58.318,11.30327,-0.007819777,0.3122,1.06865
59.018,11.33871,-0.008838253,0.32658,1.06857
59.718,11.37308,-0.01020171,0.33944,1.06849
60.418,11.40665,-0.01119756,0.35094,1.06841
61.118,11.43945,-0.01080352,0.36338,1.06832
61.818,11.47153,-0.01046751,0.37675,1.06824
62.518,11.50297,-0.01045009,0.38923,1.06815
63.218,11.53381,-0.01009948,0.3988,1.06806
63.918,11.56423,-0.01008356,0.40907,1.06797
64.618,11.59425,-0.009219627,0.42069,1.06788
65.318,11.62372,-0.0106041,0.43029,1.06779
66.018,11.65292,-0.01022351,0.43998,1.06769
66.718,11.68181,-0.01072661,0.44922,1.0676
67.418,11.7105,-0.01078894,0.46029,1.0675
68.118,11.73877,-0.01024892,0.46873,1.0674
68.818,11.76678,-0.01029946,0.47863,1.0673
69.518,11.7945,-0.009871843,0.48592,1.0672
70.218,11.82194,-0.01095036,0.49358,1.0671
70.918,11.8492,-0.01183584,0.50252,1.067
71.618,11.8763,-0.01209144,0.50978,1.06689
72.318,11.9033,-0.01245197,0.51662,1.06679
73.018,11.92999,-0.01113682,0.52699,1.06668
73.718,11.95664,-0.01138498,0.53559,1.06657
74.418,11.98305,-0.0118104,0.54228,1.06646
75.118,12.00933,-0.01087616,0.54922,1.06635
75.818,12.03548,-0.01034009,0.55668,1.06624
76.518,12.06134,-0.01113381,0.56321,1.06612
77.218,12.087,-0.01185311,0.56897,1.06601
77.918,12.11288,-0.01090803,0.57689,1.06589
78.618,12.13883,-0.01085092,0.58246,1.06577
79.318,12.16458,-0.01173168,0.59039,1.06565
80.018,12.19003,-0.01216948,0.59818,1.06553
80.718,12.21545,-0.01253638,0.60304,1.06541
81.418,12.2409,-0.01378507,0.61135,1.06529
82.118,12.2661,-0.01229928,0.61846,1.06516
82.818,12.29113,-0.01198192,0.62572,1.06504
83.518,12.31603,-0.01115757,0.63218,1.06491
84.218,12.34095,-0.01214961,0.63783,1.06478
84.918,12.36576,-0.01218331,0.64697,1.06465
85.618,12.39039,-0.01217547,0.65317,1.06452
86.318,12.41494,-0.0123742,0.65604,1.06439
87.018,12.43955,-0.01372544,0.66375,1.06425
87.718,12.4642,-0.01445582,0.67156,1.06412
88.418,12.4887,-0.01399822,0.67871,1.06398
89.118,12.51305,-0.01513498,0.68562,1.06384
89.818,12.53732,-0.01545063,0.6915,1.06371
90.518,12.56157,-0.01668478,0.6986,1.06357
91.218,12.58586,-0.01668059,0.70504,1.06342
91.918,12.61004,-0.01667016,0.7132,1.06328
92.618,12.63437,-0.01668398,0.71727,1.06314
93.318,12.65855,-0.01580791,0.72403,1.06299
94.018,12.6828,-0.01680581,0.73056,1.06284
94.718,12.70674,-0.01811331,0.7358,1.0627
95.418,12.7307,-0.01810788,0.74286,1.06255
96.118,12.75462,-0.01855719,0.74889,1.0624
96.818,12.77845,-0.01941768,0.75516,1.06224
97.518,12.80237,-0.01942022,0.75917,1.06209
98.218,12.82615,-0.01941293,0.76811,1.06194
98.918,12.84999,-0.02009905,0.77275,1.06178
99.618,12.87376,-0.01942015,0.77607,1.06162
100.318,12.89753,-0.02017004,0.78293,1.06146
101.018,12.92132,-0.0207411,0.78803,1.0613
101.718,12.9451,-0.02073999,0.79162,1.06114
102.418,12.96883,-0.02074005,0.79392,1.06098
103.118,12.99262,-0.02073806,0.80039,1.06082
103.818,13.01628,-0.02173189,0.80324,1.06065
104.518,13.03989,-0.02074507,0.80801,1.06049
105.218,13.06349,-0.0207409,0.81047,1.06032
105.918,13.08719,-0.02074,0.81437,1.06015
106.618,13.11077,-0.02074099,0.81782,1.05998
107.318,13.1344,-0.02079832,0.82105,1.05981
108.018,13.1578,-0.02205084,0.82227,1.05964
108.718,13.1815,-0.02205994,0.82748,1.05946
109.418,13.20515,-0.02206002,0.82836,1.05929
110.118,13.2286,-0.02206303,0.82861,1.05911
110.818,13.25208,-0.0229354,0.83284,1.05894
111.518,13.2755,-0.02335969,0.83416,1.05876
112.218,13.29901,-0.02464674,0.83569,1.05858
112.918,13.32244,-0.02601759,0.83621,1.0584
113.618,13.3458,-0.0262616,0.836,1.05821
114.318,13.3693,-0.02731463,0.83607,1.05803
115.018,13.3927,-0.02732673,0.83839,1.05784
115.718,13.4162,-0.02869129,0.83789,1.05766
116.418,13.43954,-0.02864037,0.83689,1.05747
117.118,13.463,-0.02801758,0.83589,1.05728
117.818,13.48642,-0.02732032,0.83542,1.05709
118.518,13.5098,-0.0273197,0.83335,1.0569
119.218,13.53307,-0.02732412,0.8326,1.05671
119.918,13.5563,-0.02599204,0.83165,1.05652
120.618,13.57954,-0.02601005,0.83152,1.05632
121.318,13.6028,-0.02601419,0.82998,1.05612
122.018,13.626,-0.02693015,0.82922,1.05593
122.718,13.6492,-0.02848074,0.82828,1.05573
123.418,13.6724,-0.02863035,0.82587,1.05553
124.118,13.6955,-0.02862998,0.82514,1.05533
124.818,13.71858,-0.02863167,0.82215,1.05513
125.518,13.7416,-0.02883196,0.82117,1.05492
126.218,13.7646,-0.03125283,0.81993,1.05472
126.918,13.78761,-0.03126991,0.81745,1.05451
127.618,13.8106,-0.03127,0.81863,1.0543
128.318,13.8336,-0.03127,0.81346,1.0541
129.018,13.85651,-0.03127,0.81312,1.05389
129.718,13.8794,-0.03127,0.81038,1.05367
130.418,13.9023,-0.03127005,0.80886,1.05346
131.118,13.9252,-0.03126676,0.80464,1.05325
131.818,13.94808,-0.0321062,0.80557,1.05303
132.518,13.97096,-0.03259266,0.80273,1.05282
133.218,13.99373,-0.03258963,0.80152,1.0526
133.918,14.01651,-0.03283167,0.80126,1.05238
134.618,14.03917,-0.03389673,0.79946,1.05216
135.318,14.0618,-0.03389993,0.7968,1.05194
136.018,14.0845,-0.03390003,0.79532,1.05172
136.718,14.10709,-0.03390054,0.79372,1.0515
137.418,14.12972,-0.03453233,0.79281,1.05128
138.118,14.1524,-0.03520917,0.79038,1.05105
138.818,14.17498,-0.03528,0.78838,1.05082
139.518,14.1975,-0.03554188,0.78832,1.0506
140.218,14.21999,-0.03554,0.78287,1.05037
140.918,14.24257,-0.03554,0.78275,1.05014
141.618,14.2651,-0.03554,0.78359,1.04991
142.318,14.2876,-0.03554,0.78213,1.04967
143.018,14.30998,-0.03553968,0.78079,1.04944
143.718,14.33245,-0.03555102,0.77969,1.0492
144.418,14.3549,-0.03420591,0.77845,1.04897
145.118,14.3773,-0.03527,0.77925,1.04873
145.818,14.39962,-0.03521988,0.77726,1.04849
146.518,14.4219,-0.03522,0.77856,1.04825
147.218,14.44425,-0.03522,0.77671,1.04801
147.918,14.46657,-0.03522,0.77682,1.04777
148.618,14.4889,-0.03522,0.77759,1.04753
149.318,14.5111,-0.03522007,0.77806,1.04728
150.018,14.53338,-0.03522017,0.77824,1.04704
150.718,14.5557,-0.03616165,0.77779,1.04679
151.418,14.57792,-0.03653232,0.77679,1.04654
152.118,14.6001,-0.03653012,0.77665,1.0463
152.818,14.62236,-0.03636247,0.77663,1.04605
153.518,14.64454,-0.03521891,0.7769,1.04579
154.218,14.6667,-0.03521,0.77795,1.04554
154.918,14.68888,-0.03521,0.78029,1.04529
155.618,14.71098,-0.03521,0.7793,1.04503
156.318,14.7332,-0.03521,0.77952,1.04478
157.018,14.7553,-0.03521,0.78295,1.04452
157.718,14.7774,-0.03521,0.78258,1.04426
158.418,14.7995,-0.03521001,0.78422,1.044
159.118,14.8217,-0.03521262,0.78612,1.04374
159.818,14.84389,-0.03592876,0.78579,1.04348
160.518,14.86597,-0.03652903,0.78693,1.04322
161.218,14.888,-0.03652998,0.7893,1.04296
161.918,14.91,-0.03653,0.78974,1.04269
162.618,14.9322,-0.03653,0.79117,1.04242
163.318,14.95421,-0.03653,0.79087,1.04216
164.018,14.9763,-0.03653,0.79507,1.04189
164.718,14.9983,-0.03653,0.79436,1.04162
165.418,15.02028,-0.03653,0.79619,1.04135
166.118,15.04225,-0.03653,0.79642,1.04108
166.818,15.06415,-0.03653,0.79976,1.0408
167.518,15.0861,-0.03653,0.80141,1.04053
168.218,15.108,-0.03653,0.8013,1.04026
168.918,15.13009,-0.03653,0.80394,1.03998
169.618,15.15209,-0.03653,0.80357,1.0397
170.318,15.17411,-0.03653,0.80522,1.03942
171.018,15.196,-0.03652975,0.80623,1.03914
171.718,15.21786,-0.03654605,0.8094,1.03886
172.418,15.23971,-0.03751534,0.80756,1.03858
173.118,15.2616,-0.03750272,0.81303,1.0383
173.818,15.2835,-0.03784139,0.81406,1.03801
174.518,15.30534,-0.03784992,0.81521,1.03773
175.218,15.32714,-0.03784559,0.81857,1.03744
175.918,15.34893,-0.03817056,0.82113,1.03716
176.618,15.37074,-0.03818014,0.82071,1.03687
177.318,15.3926,-0.03818,0.82285,1.03658
178.018,15.4144,-0.03818,0.82635,1.03629
178.718,15.4362,-0.03818,0.82609,1.036
179.418,15.45791,-0.03818,0.82701,1.0357
180.118,15.47966,-0.03818,0.83155,1.03541
180.818,15.5014,-0.03818,0.83302,1.03511
181.518,15.52312,-0.03818,0.83593,1.03482
182.218,15.54476,-0.03818,0.83874,1.03452
182.918,15.5664,-0.03818,0.83876,1.03422
183.618,15.5879,-0.03818,0.84108,1.03392
184.318,15.6096,-0.03818002,0.84492,1.03362
185.018,15.6313,-0.03817886,0.84619,1.03332
185.718,15.65289,-0.03846997,0.84843,1.03302
186.418,15.6746,-0.03917365,0.85171,1.03272
187.118,15.69615,-0.03915574,0.85346,1.03241
187.818,15.71773,-0.04019123,0.85604,1.03211
188.518,15.7393,-0.04014978,0.85987,1.0318
189.218,15.76084,-0.04015,0.86067,1.03149
189.918,15.7824,-0.04015,0.86236,1.03118
190.618,15.80393,-0.04015,0.86449,1.03087
191.318,15.8255,-0.04015007,0.86902,1.03056
192.018,15.847,-0.04015175,0.86846,1.03025
192.718,15.86858,-0.03901718,0.87222,1.02994
193.418,15.8902,-0.03883361,0.87617,1.02962
194.118,15.9117,-0.03966308,0.87934,1.02931
194.818,15.93314,-0.04014976,0.88228,1.02899
195.518,15.95457,-0.04015011,0.88402,1.02868
196.218,15.97599,-0.04013533,0.88695,1.02836
196.918,15.9974,-0.04138843,0.88838,1.02804
197.618,16.0188,-0.04146048,0.89311,1.02772
198.318,16.04025,-0.04146057,0.89505,1.0274
199.018,16.06168,-0.04183035,0.8984,1.02707
199.718,16.08316,-0.04267258,0.90073,1.02675
200.418,16.10455,-0.04278076,0.90248,1.02643
201.118,16.12589,-0.04278,0.90755,1.0261
201.818,16.14728,-0.04278,0.91047,1.02577
202.518,16.1688,-0.04278032,0.91348,1.02545
203.218,16.1904,-0.04275451,0.91751,1.02512
203.918,16.21181,-0.04345191,0.92147,1.02479
204.618,16.23321,-0.04343998,0.92508,1.02446
205.318,16.2546,-0.04344,0.9278,1.02413
206.018,16.27603,-0.04344,0.93233,1.02379
206.718,16.29745,-0.04344,0.93729,1.02346
207.418,16.31887,-0.04344,0.94203,1.02312
208.118,16.34025,-0.04344,0.94537,1.02279
208.818,16.36153,-0.04344031,0.95165,1.02245
209.518,16.38287,-0.04341027,0.9549,1.02211
210.218,16.40411,-0.04376794,0.96302,1.02178
210.918,16.42547,-0.04464984,0.96598,1.02144
211.618,16.4468,-0.04509008,0.97095,1.0211
212.318,16.4682,-0.04514817,0.97902,1.02075
213.018,16.48958,-0.04504749,0.98381,1.02041
213.718,16.51091,-0.04508046,0.99096,1.02007
214.418,16.5322,-0.04507999,0.99546,1.01972
215.118,16.55361,-0.04508,1.00339,1.01938
215.818,16.57497,-0.04508003,1.01107,1.01903
216.518,16.5963,-0.04507676,1.01463,1.01868
217.218,16.61767,-0.04545568,1.02545,1.01833
217.918,16.63898,-0.04636083,1.03161,1.01798
218.618,16.66027,-0.04771785,1.04093,1.01763
219.318,16.68157,-0.04857512,1.05101,1.01728
220.018,16.70281,-0.0490436,1.05895,1.01693
220.718,16.72416,-0.04904474,1.06912,1.01658
221.418,16.74549,-0.04991136,1.07763,1.01622
222.118,16.76685,-0.05035021,1.09233,1.01587
222.818,16.78814,-0.05035039,1.10185,1.01551
223.518,16.80946,-0.05030978,1.11646,1.01515
224.218,16.83075,-0.05182842,1.12933,1.01479
224.918,16.85206,-0.05179053,1.14447,1.01444
225.618,16.87334,-0.05309025,1.16064,1.01407
226.318,16.89461,-0.05309151,1.17541,1.01371
227.018,16.91591,-0.05361731,1.19257,1.01335
227.718,16.9372,-0.0538667,1.20927,1.01299
228.418,16.95845,-0.05478313,1.2301,1.01262
229.118,16.97972,-0.05539524,1.24988,1.01226
229.818,17.00103,-0.05684236,1.26918,1.01189
230.518,17.02235,-0.05740395,1.29536,1.01153
231.218,17.0437,-0.05829891,1.31821,1.01116
231.918,17.06494,-0.06004292,1.34011,1.01079
232.618,17.08621,-0.06094454,1.36817,1.01042
233.318,17.10749,-0.06185225,1.39478,1.01005
234.018,17.12876,-0.06420196,1.4195,1.00968
234.718,17.15,-0.06533763,1.44798,1.00931
235.418,17.17136,-0.06610913,1.47441,1.00893
236.118,17.19268,-0.06722074,1.50232,1.00856
236.818,17.21399,-0.06897989,1.5325,1.00818
237.518,17.2353,-0.07094438,1.56015,1.00781
238.218,17.25665,-0.07261009,1.58574,1.00743
238.918,17.2779,-0.07436278,1.61367,1.00705
239.618,17.2992,-0.07522637,1.63904,1.00667
240.318,17.32057,-0.07734131,1.66659,1.00629
241.018,17.34187,-0.0806721,1.68771,1.00591
241.718,17.3631,-0.08382973,1.71172,1.00553
242.418,17.38435,-0.08652021,1.73197,1.00515
243.118,17.4056,-0.08920476,1.75159,1.00476
243.818,17.4269,-0.09041541,1.77081,1.00438
244.518,17.4482,-0.09242145,1.78548,1.00399
245.218,17.46945,-0.09486703,1.80094,1.00361
245.918,17.49071,-0.09673314,1.81265,1.00322
246.618,17.51203,-0.10007,1.82425,1.00283
247.318,17.53333,-0.10202,1.83215,1.00244
248.018,17.5547,-0.10501,1.83646,1.00205
248.718,17.57585,-0.10779,1.84198,1.00166
249.418,17.5971,-0.11046,1.84691,1.00127
250.118,17.61831,-0.11159,1.85061,1.00088
250.818,17.63949,-0.11382,1.8518,1.00049
251.518,17.6607,-0.11656,1.85548,1.00009
252.218,17.682,-0.1193,1.85591,0.9997
252.918,17.70327,-0.1218,1.85662,0.9993
253.618,17.72447,-0.12459,1.85563,0.9989
254.318,17.7457,-0.12776,1.85126,0.99851
255.018,17.76686,-0.132,1.84814,0.99811
255.718,17.78803,-0.13583,1.84194,0.99771
256.418,17.80914,-0.13809,1.83624,0.99731
257.118,17.83033,-0.14101,1.83236,0.99691
257.818,17.85151,-0.14454,1.82612,0.99651
258.518,17.87268,-0.1476,1.82368,0.9961
259.218,17.8939,-0.14901,1.81943,0.9957
259.918,17.915,-0.15209,1.81347,0.99529
260.618,17.93618,-0.15562,1.81333,0.99489
261.318,17.95733,-0.15946,1.81001,0.99448
262.018,17.9785,-0.1623,1.80966,0.99408
262.718,17.9996,-0.16488,1.80834,0.99367
263.418,18.02074,-0.16782,1.80615,0.99326
264.118,18.0419,-0.17107,1.80516,0.99285
264.818,18.06306,-0.17462,1.80504,0.99244
265.518,18.08417,-0.17764,1.80631,0.99203
266.218,18.10523,-0.18117,1.80819,0.99161
266.918,18.12632,-0.18391,1.81143,0.9912
267.618,18.1474,-0.18756,1.81084,0.99079
268.318,18.16848,-0.19187,1.81406,0.99037
269.018,18.1896,-0.19575,1.81487,0.98996
269.718,18.21071,-0.19969,1.81812,0.98954
270.418,18.23186,-0.20305,1.81826,0.98912
271.118,18.253,-0.20681,1.82071,0.98871
271.818,18.27417,-0.21159,1.82387,0.98829
272.518,18.2953,-0.21525,1.8231,0.98787
273.218,18.31638,-0.21923,1.82705,0.98745
273.918,18.3375,-0.22344,1.82806,0.98703
274.618,18.35868,-0.2268,1.83105,0.9866
275.318,18.37987,-0.23044,1.83273,0.98618
276.018,18.40094,-0.23458,1.8351,0.98576
276.718,18.42202,-0.23867,1.83908,0.98533
277.418,18.44312,-0.24294,1.83862,0.98491
278.118,18.46422,-0.24732,1.84159,0.98448
278.818,18.48534,-0.25218,1.84385,0.98406
279.518,18.50646,-0.25641,1.84296,0.98363
280.218,18.5276,-0.25942,1.84698,0.9832
280.918,18.5488,-0.26223,1.84915,0.98277
281.618,18.5699,-0.26705,1.85,0.98234
282.318,18.59098,-0.27139,1.85294,0.98191
283.018,18.61212,-0.27484,1.85382,0.98148
283.718,18.63329,-0.27948,1.85581,0.98105
284.418,18.65454,-0.28392,1.85628,0.98061
285.118,18.6757,-0.28769,1.85674,0.98018
285.818,18.69695,-0.2908,1.85776,0.97974
286.518,18.71803,-0.29516,1.86087,0.97931
287.218,18.7392,-0.30016,1.86194,0.97887
287.918,18.76042,-0.30424,1.86568,0.97843
288.618,18.78161,-0.30854,1.86686,0.978
289.318,18.8028,-0.31384,1.86959,0.97756
290.018,18.82391,-0.31893,1.87091,0.97712
290.718,18.84506,-0.3237,1.87233,0.97668
291.418,18.86625,-0.32886,1.87499,0.97624
292.118,18.88746,-0.33384,1.87778,0.9758
292.818,18.90863,-0.33825,1.87832,0.97535
293.518,18.92977,-0.34306,1.88232,0.97491
294.218,18.9509,-0.34798,1.88273,0.97447
294.918,18.9721,-0.35368,1.88683,0.97402
295.618,18.99329,-0.35878,1.88857,0.97358
296.318,19.0145,-0.36381,1.88912,0.97313
297.018,19.03565,-0.36917,1.89051,0.97268
297.718,19.05678,-0.37378,1.89314,0.97224
298.418,19.07791,-0.3784,1.89623,0.97179
299.118,19.09906,-0.38394,1.89717,0.97134
299.818,19.1203,-0.39024,1.89927,0.97089
300.518,19.14154,-0.396,1.90051,0.97044
301.218,19.1628,-0.39979,1.90306,0.96999
301.918,19.184,-0.40447,1.90467,0.96954
302.618,19.20515,-0.41003,1.90563,0.96908
303.318,19.22631,-0.4154,1.90837,0.96863
304.018,19.24729,-0.42104,1.90975,0.96818
304.718,19.26829,-0.42681,1.91047,0.96772
305.418,19.2895,-0.43286,1.91448,0.96727
306.118,19.31075,-0.43869,1.91432,0.96681
306.818,19.33227,-0.4446,1.91778,0.96635
307.518,19.35357,-0.45078,1.91954,0.96589
308.218,19.3748,-0.45708,1.91858,0.96544
308.918,19.39605,-0.46327,1.92216,0.96498
309.618,19.4173,-0.46876,1.92345,0.96452
310.318,19.43855,-0.47481,1.92686,0.96406
311.018,19.4599,-0.48236,1.92959,0.9636
311.718,19.48109,-0.48958,1.93149,0.96313
312.418,19.5023,-0.49685,1.93387,0.96267
313.118,19.5234,-0.50328,1.93288,0.96221
313.818,19.5446,-0.50953,1.93814,0.96174
314.518,19.56585,-0.51655,1.94054,0.96128
315.218,19.58718,-0.52381,1.94425,0.96081
315.918,19.6084,-0.53103,1.94635,0.96035
316.618,19.62967,-0.53844,1.94906,0.95988
317.318,19.6509,-0.54599,1.95387,0.95941
318.018,19.67211,-0.5541,1.95644,0.95895
318.718,19.69339,-0.56183,1.96027,0.95848
319.418,19.71464,-0.56927,1.96444,0.95801
320.118,19.7359,-0.57666,1.96458,0.95754
320.818,19.7572,-0.5846,1.96863,0.95707
321.518,19.77845,-0.59243,1.9725,0.9566
322.218,19.79968,-0.59977,1.97569,0.95612
322.918,19.82094,-0.60781,1.97845,0.95565
323.618,19.84217,-0.61608,1.98393,0.95518
324.318,19.8634,-0.62426,1.98777,0.9547
325.018,19.8847,-0.6321,1.98867,0.95423
325.718,19.906,-0.63998,1.9914,0.95375
326.418,19.92732,-0.64872,1.99351,0.95328
327.118,19.94866,-0.6572,1.99429,0.9528
327.818,19.96999,-0.66624,1.99553,0.95232
328.518,19.9913,-0.6757,1.99639,0.95185
329.218,20.0126,-0.68535,1.99737,0.95137
329.918,20.03389,-0.69501,1.99713,0.95089
330.618,20.05517,-0.70429,1.99561,0.95041
331.318,20.07648,-0.71442,1.99581,0.94993
332.018,20.09787,-0.72567,1.99243,0.94945
332.718,20.1192,-0.73545,1.99014,0.94897
333.418,20.14059,-0.74469,1.98522,0.94848
334.118,20.1619,-0.75436,1.98226,0.948
334.818,20.18321,-0.76473,1.97676,0.94752
335.518,20.20448,-0.77555,1.96959,0.94703
336.218,20.22585,-0.78636,1.96533,0.94655
336.918,20.24711,-0.79741,1.95722,0.94606
337.618,20.26846,-0.80764,1.94742,0.94558
338.318,20.28988,-0.8184,1.93706,0.94509
339.018,20.31129,-0.83093,1.92806,0.9446
339.718,20.3327,-0.84219,1.91588,0.94411
340.418,20.3541,-0.85342,1.90343,0.94362
341.118,20.37535,-0.86418,1.89236,0.94314
341.818,20.39669,-0.87511,1.88075,0.94265
342.518,20.418,-0.88722,1.86528,0.94216
343.218,20.43945,-0.89892,1.851,0.94166
343.918,20.4608,-0.91084,1.83567,0.94117
344.618,20.48217,-0.92221,1.81858,0.94068
345.318,20.50354,-0.93348,1.80095,0.94019
346.018,20.52489,-0.94485,1.78628,0.93969
346.718,20.54632,-0.95587,1.76808,0.9392
347.418,20.56771,-0.96722,1.7509,0.93871
348.118,20.58908,-0.97904,1.72979,0.93821
348.818,20.61042,-0.99137,1.711,0.93772
349.518,20.63178,-1.00388,1.6942,0.93722
350.218,20.65316,-1.01659,1.67597,0.93672
350.918,20.6746,-1.02872,1.65412,0.93623
351.618,20.696,-1.04105,1.63875,0.93573
352.318,20.71738,-1.05379,1.61718,0.93523
353.018,20.7388,-1.06652,1.60106,0.93473
353.718,20.76014,-1.07874,1.57961,0.93423
354.418,20.78156,-1.09105,1.55892,0.93373
355.118,20.80293,-1.10378,1.53685,0.93323
355.818,20.82434,-1.11699,1.52019,0.93273
356.518,20.84579,-1.1297,1.50048,0.93223
357.218,20.86723,-1.1423,1.48186,0.93172
357.918,20.88871,-1.15534,1.46332,0.93122
358.618,20.9101,-1.16845,1.44532,0.93072
359.318,20.93149,-1.18114,1.42695,0.93021
360.018,20.95287,-1.19357,1.41085,0.92971
360.718,20.97428,-1.20544,1.39449,0.9292
361.418,20.9957,-1.21738,1.37657,0.9287
362.118,21.0172,-1.22908,1.35897,0.92819
362.818,21.03872,-1.24155,1.34625,0.92768
363.518,21.06019,-1.25493,1.33123,0.92718
364.218,21.08162,-1.26773,1.31736,0.92667
364.918,21.10302,-1.27993,1.30233,0.92616
365.618,21.1245,-1.29214,1.29073,0.92565
366.318,21.1461,-1.30406,1.27645,0.92514
367.018,21.16756,-1.31595,1.26521,0.92463
367.718,21.18907,-1.3274,1.25291,0.92412
368.418,21.2105,-1.33858,1.23872,0.92361
369.118,21.23199,-1.35016,1.22923,0.9231
369.818,21.2535,-1.36198,1.21953,0.92259
370.518,21.27515,-1.3739,1.21296,0.92207
371.218,21.2968,-1.38508,1.20307,0.92156
371.918,21.31835,-1.39605,1.19435,0.92105
372.618,21.33989,-1.40766,1.18587,0.92053
373.318,21.36138,-1.41781,1.17717,0.92002
374.018,21.3829,-1.42767,1.1698,0.9195
374.718,21.40448,-1.43768,1.1608,0.91899
375.418,21.42605,-1.4476,1.15263,0.91847
376.118,21.4476,-1.45741,1.14759,0.91795
376.818,21.46915,-1.46717,1.14307,0.91744
377.518,21.49074,-1.47557,1.13198,0.91692
378.218,21.51236,-1.48464,1.12883,0.9164
378.918,21.53399,-1.49355,1.12215,0.91588
379.618,21.55559,-1.50266,1.11889,0.91536
380.318,21.57705,-1.51176,1.11341,0.91484
381.018,21.59838,-1.5203,1.10969,0.91432
381.718,21.61992,-1.52867,1.10678,0.9138
382.418,21.6416,-1.537,1.10226,0.91328
383.118,21.66346,-1.54661,1.09642,0.91276
383.818,21.6854,-1.55498,1.09207,0.91224
384.518,21.7071,-1.56307,1.08758,0.91171
385.218,21.7288,-1.57092,1.08598,0.91119
385.918,21.75046,-1.5789,1.08087,0.91067
386.618,21.7721,-1.58631,1.07726,0.91014
387.318,21.7938,-1.59401,1.07208,0.90962
388.018,21.81546,-1.60091,1.07348,0.90909
388.718,21.83717,-1.60788,1.06589,0.90857
389.418,21.85886,-1.61488,1.06184,0.90804
390.118,21.8806,-1.6219,1.06042,0.90752
390.818,21.9023,-1.62779,1.05679,0.90699
391.518,21.92398,-1.6348,1.05366,0.90646
392.218,21.94569,-1.64118,1.05028,0.90593
392.918,21.96732,-1.64862,1.04767,0.90541
393.618,21.98901,-1.65502,1.04675,0.90488
394.318,22.0107,-1.66165,1.04195,0.90435
395.018,22.03247,-1.66787,1.03865,0.90382
395.718,22.05419,-1.67371,1.03645,0.90329
396.418,22.07591,-1.67944,1.03398,0.90276
397.118,22.09767,-1.68535,1.03165,0.90223
397.818,22.11944,-1.6909,1.02684,0.9017
398.518,22.14128,-1.69627,1.02612,0.90116
399.218,22.163,-1.70184,1.02223,0.90063
399.918,22.1848,-1.70785,1.01784,0.9001
400.618,22.20654,-1.71371,1.01399,0.89957
401.318,22.22835,-1.71947,1.01091,0.89903
402.018,22.25013,-1.7254,1.00807,0.8985
402.718,22.2719,-1.73248,1.00748,0.89797
403.418,22.29376,-1.73798,1.00637,0.89743
404.118,22.31559,-1.74384,1.00215,0.8969
404.818,22.33744,-1.74964,0.99952,0.89636
405.518,22.35926,-1.75436,0.99769,0.89582
406.218,22.3811,-1.75987,0.99676,0.89529
406.918,22.40289,-1.7654,0.99291,0.89475
407.618,22.42476,-1.77078,0.98891,0.89421
408.318,22.44656,-1.77613,0.98473,0.89368
409.018,22.4684,-1.78131,0.98463,0.89314
409.718,22.49026,-1.78675,0.98269,0.8926
410.418,22.51217,-1.79191,0.97772,0.89206
411.118,22.53404,-1.79694,0.97675,0.89152
411.818,22.5559,-1.80154,0.97643,0.89098
412.518,22.57771,-1.80563,0.9734,0.89044
413.218,22.59957,-1.81017,0.96885,0.8899
413.918,22.62141,-1.81494,0.9659,0.88936
414.618,22.6433,-1.81849,0.96338,0.88882
415.318,22.66516,-1.82371,0.96059,0.88828
416.018,22.6871,-1.82916,0.95978,0.88774
416.718,22.709,-1.83506,0.95648,0.88719
417.418,22.731,-1.83928,0.95378,0.88665
418.118,22.75287,-1.84373,0.951,0.88611
418.818,22.7747,-1.84838,0.94991,0.88557
419.518,22.7965,-1.85248,0.94558,0.88502
420.218,22.81839,-1.85714,0.94367,0.88448
420.918,22.8403,-1.86165,0.94022,0.88393
421.618,22.86223,-1.86477,0.93935,0.88339
422.318,22.88417,-1.86937,0.93418,0.88284
423.018,22.90611,-1.87421,0.93196,0.8823
423.718,22.9281,-1.8777,0.92801,0.88175
424.418,22.9498,-1.88239,0.92652,0.8812
425.118,22.97165,-1.88794,0.92163,0.88066
425.818,22.99359,-1.89135,0.92057,0.88011
426.518,23.01567,-1.89516,0.91458,0.87956
427.218,23.0377,-1.89997,0.91302,0.87901
427.918,23.0596,-1.90465,0.90666,0.87847
428.618,23.0816,-1.90864,0.90407,0.87792
429.318,23.10351,-1.91221,0.8988,0.87737
430.018,23.12552,-1.91595,0.89631,0.87682
430.718,23.14742,-1.92029,0.89134,0.87627
431.418,23.1694,-1.92519,0.88701,0.87572
432.118,23.19131,-1.92797,0.88392,0.87517
432.818,23.21324,-1.93179,0.87787,0.87462
433.518,23.23524,-1.93582,0.87183,0.87407
434.218,23.2572,-1.93918,0.86853,0.87352
434.918,23.2792,-1.94214,0.86221,0.87297
435.618,23.30118,-1.94558,0.86188,0.87241
436.318,23.32323,-1.9492,0.85555,0.87186
437.018,23.34519,-1.95209,0.85274,0.87131
437.718,23.3672,-1.9555,0.84736,0.87076
438.418,23.38925,-1.96027,0.84511,0.8702
439.118,23.41124,-1.96372,0.84066,0.86965
439.818,23.43323,-1.96709,0.83699,0.86909
440.518,23.45518,-1.97096,0.83422,0.86854
441.218,23.4772,-1.97424,0.83047,0.86799
441.918,23.49919,-1.97745,0.82499,0.86743
442.618,23.5212,-1.98118,0.82112,0.86688
443.318,23.5432,-1.984,0.81588,0.86632
444.018,23.56522,-1.9867,0.81189,0.86576
444.718,23.58725,-1.98979,0.80984,0.86521
445.418,23.60932,-1.9931,0.80566,0.86465
446.118,23.6314,-1.99577,0.80315,0.8641
446.818,23.6535,-1.99896,0.79794,0.86354
447.518,23.6755,-2.00222,0.79667,0.86298
448.218,23.69752,-2.00465,0.79324,0.86242
448.918,23.71954,-2.00704,0.78841,0.86187
449.618,23.74161,-2.00955,0.78452,0.86131
450.318,23.76367,-2.01319,0.78246,0.86075
451.018,23.7857,-2.01607,0.77774,0.86019
451.718,23.80782,-2.01827,0.7763,0.85963
452.418,23.82992,-2.02046,0.77203,0.85907
453.118,23.85202,-2.02185,0.77051,0.85851
453.818,23.87417,-2.02469,0.76828,0.85795
454.518,23.89627,-2.02761,0.7664,0.85739
455.218,23.91841,-2.03017,0.76119,0.85683
455.918,23.94046,-2.03267,0.75792,0.85627
456.618,23.96247,-2.03638,0.7546,0.85571
457.318,23.98455,-2.03922,0.75029,0.85515
458.018,24.0066,-2.04268,0.74577,0.85459
458.718,24.0288,-2.04484,0.74428,0.85402
459.418,24.05068,-2.04707,0.74378,0.85346
460.118,24.07283,-2.04928,0.73898,0.8529
460.818,24.09499,-2.05192,0.73616,0.85234
461.518,24.11723,-2.05436,0.73334,0.85177
462.218,24.1394,-2.05657,0.72913,0.85121
462.918,24.16159,-2.05866,0.72761,0.85065
463.618,24.1838,-2.06037,0.72694,0.85008
464.318,24.20595,-2.0622,0.72391,0.84952
465.018,24.22813,-2.0646,0.71971,0.84896
465.718,24.25027,-2.0673,0.71994,0.84839
466.418,24.27238,-2.06982,0.7143,0.84783
467.118,24.2945,-2.07217,0.71223,0.84726
467.818,24.31671,-2.07297,0.71336,0.8467
468.518,24.3389,-2.07415,0.70692,0.84613
469.218,24.36116,-2.07699,0.70521,0.84557
469.918,24.38336,-2.08174,0.70073,0.845
470.618,24.40557,-2.08586,0.69907,0.84443
471.318,24.42775,-2.08781,0.69385,0.84387
472.018,24.4499,-2.08975,0.69185,0.8433
472.718,24.47214,-2.09182,0.68792,0.84273
473.418,24.49438,-2.09427,0.68462,0.84217
474.118,24.51664,-2.09601,0.68462,0.8416
474.818,24.53892,-2.09761,0.68194,0.84103
475.518,24.56118,-2.09978,0.67836,0.84046
476.218,24.58341,-2.10195,0.67618,0.83989
476.918,24.6056,-2.10405,0.67361,0.83933
477.618,24.62787,-2.10663,0.66869,0.83876
478.318,24.65008,-2.10885,0.66913,0.83819
479.018,24.67236,-2.11103,0.66533,0.83762
479.718,24.69463,-2.11263,0.66112,0.83705
480.418,24.71689,-2.11465,0.66231,0.83648
481.118,24.7391,-2.11632,0.65972,0.83591
481.818,24.76134,-2.11768,0.65528,0.83534
482.518,24.78363,-2.11974,0.65359,0.83477
483.218,24.80592,-2.12226,0.64917,0.8342
483.918,24.82822,-2.12491,0.64673,0.83363
484.618,24.8505,-2.12638,0.64279,0.83306
485.318,24.87284,-2.12938,0.64166,0.83249
486.018,24.89515,-2.13165,0.64054,0.83192
486.718,24.91744,-2.13377,0.63844,0.83135
487.418,24.93969,-2.13451,0.63392,0.83078
488.118,24.96201,-2.13482,0.6336,0.8302
488.818,24.98433,-2.13616,0.62918,0.82963
489.518,25.00662,-2.13767,0.62733,0.82906
490.218,25.02895,-2.13914,0.62563,0.82849
490.918,25.0513,-2.14083,0.62202,0.82792
491.618,25.07358,-2.14249,0.62098,0.82734
492.318,25.0959,-2.1453,0.62077,0.82677
493.018,25.11816,-2.14724,0.61758,0.8262
493.718,25.14045,-2.14955,0.61769,0.82562
494.418,25.1628,-2.15116,0.61266,0.82505
495.118,25.18515,-2.15293,0.61283,0.82448
495.818,25.20755,-2.15493,0.61045,0.8239
496.518,25.22995,-2.15684,0.60715,0.82333
497.218,25.2523,-2.15854,0.60551,0.82275
497.918,25.2747,-2.16023,0.60621,0.82218
498.618,25.2971,-2.16139,0.60284,0.82161
499.318,25.31952,-2.16274,0.60012,0.82103
500.018,25.3418,-2.16432,0.59777,0.82046
500.718,25.3642,-2.16586,0.59593,0.81988
501.418,25.38654,-2.16707,0.59301,0.81931
502.118,25.40895,-2.16855,0.59448,0.81873
502.818,25.43134,-2.17005,0.59098,0.81816
503.518,25.45376,-2.1719,0.5901,0.81758
504.218,25.47612,-2.17416,0.58631,0.817
504.918,25.4985,-2.17599,0.58731,0.81643
505.618,25.52092,-2.17752,0.58154,0.81585
506.318,25.54336,-2.17777,0.58039,0.81528
507.018,25.56585,-2.1788,0.58097,0.8147
507.718,25.5883,-2.17969,0.57653,0.81412
508.418,25.61076,-2.18057,0.57556,0.81355
509.118,25.63326,-2.18209,0.57474,0.81297
509.818,25.6557,-2.18311,0.57165,0.81239
510.518,25.6782,-2.18416,0.5677,0.81182
511.218,25.70055,-2.18562,0.56756,0.81124
511.918,25.72299,-2.18723,0.56761,0.81066
512.618,25.74535,-2.18847,0.56366,0.81008
513.318,25.76774,-2.18864,0.56233,0.80951
514.018,25.79018,-2.19027,0.56051,0.80893
514.718,25.81269,-2.19188,0.56032,0.80835
515.418,25.83521,-2.1937,0.55532,0.80777
516.118,25.85773,-2.194,0.55578,0.80719
516.818,25.88019,-2.19562,0.55134,0.80661
517.518,25.90266,-2.19644,0.54817,0.80604
518.218,25.92519,-2.19778,0.54534,0.80546
518.918,25.9477,-2.19822,0.54336,0.80488
519.618,25.97028,-2.19943,0.54065,0.8043
520.318,25.99277,-2.20108,0.53911,0.80372
521.018,26.0152,-2.20274,0.54037,0.80314
521.718,26.03763,-2.20417,0.53453,0.80256
522.418,26.0601,-2.20537,0.5346,0.80198
523.118,26.08269,-2.20646,0.53536,0.8014
523.818,26.10523,-2.20866,0.53162,0.80082
524.518,26.1278,-2.2109,0.5294,0.80024
525.218,26.1503,-2.21272,0.52687,0.79966
525.918,26.1728,-2.21302,0.52522,0.79908
526.618,26.19535,-2.21434,0.52481,0.7985
527.318,26.2179,-2.21412,0.52112,0.79792
528.018,26.24038,-2.21435,0.52189,0.79734
528.718,26.2629,-2.21456,0.52132,0.79676
529.418,26.2854,-2.21566,0.51586,0.79618
530.118,26.308,-2.2165,0.5155,0.7956
530.818,26.3305,-2.217,0.51224,0.79502
531.518,26.3531,-2.21996,0.51267,0.79444
532.218,26.3756,-2.22096,0.51099,0.79386
532.918,26.39818,-2.22168,0.50847,0.79328
533.618,26.42077,-2.2229,0.50656,0.7927
534.318,26.44329,-2.22451,0.50863,0.79212
535.018,26.4658,-2.22498,0.50735,0.79153
535.718,26.48842,-2.22599,0.50555,0.79095
536.418,26.5111,-2.22675,0.49968,0.79037
537.118,26.5337,-2.2273,0.50339,0.78979
537.818,26.55625,-2.22731,0.50123,0.78921
538.518,26.57882,-2.22873,0.50109,0.78863
539.218,26.60143,-2.22881,0.49865,0.78804
539.918,26.62405,-2.23031,0.49914,0.78746
540.618,26.64664,-2.23026,0.49779,0.78688
541.318,26.66927,-2.23162,0.49924,0.7863
542.018,26.69187,-2.23179,0.49788,0.78572
542.718,26.71452,-2.23289,0.49678,0.78513
543.418,26.73713,-2.23296,0.49302,0.78455
544.118,26.7598,-2.23223,0.49225,0.78397
544.818,26.78241,-2.23239,0.4946,0.78339
545.518,26.80508,-2.23469,0.49426,0.7828
546.218,26.8277,-2.23704,0.49279,0.78222
546.918,26.85039,-2.23879,0.49155,0.78164
547.618,26.873,-2.24062,0.48775,0.78106
548.318,26.8957,-2.24182,0.49183,0.78047
549.018,26.9183,-2.2432,0.48955,0.77989
549.718,26.94095,-2.24455,0.4909,0.77931
550.418,26.96358,-2.24452,0.49019,0.77873
551.118,26.98622,-2.24452,0.48859,0.77814
551.818,27.00886,-2.24648,0.48686,0.77756
552.518,27.0315,-2.24682,0.48653,0.77698
553.218,27.05418,-2.24839,0.48555,0.77639
553.918,27.07692,-2.24847,0.48724,0.77581
554.618,27.09967,-2.24967,0.48562,0.77523
555.318,27.1224,-2.24973,0.48803,0.77464
556.018,27.14505,-2.25099,0.48716,0.77406
556.718,27.1678,-2.25104,0.48587,0.77348
557.418,27.1905,-2.2524,0.48816,0.77289
558.118,27.21323,-2.25349,0.48528,0.77231
558.818,27.23592,-2.25411,0.48744,0.77172
559.518,27.25859,-2.25548,0.48766,0.77114
560.218,27.28128,-2.25695,0.48658,0.77056
560.918,27.304,-2.25703,0.48918,0.76997
561.618,27.3267,-2.25844,0.48928,0.76939
562.318,27.3494,-2.25839,0.49063,0.76881
563.018,27.37217,-2.25854,0.48804,0.76822
563.718,27.3948,-2.25845,0.48963,0.76764
564.418,27.41747,-2.2584,0.49284,0.76705
565.118,27.4402,-2.25976,0.49238,0.76647
565.818,27.463,-2.25976,0.49215,0.76589
566.518,27.4858,-2.25975,0.4916,0.7653
567.218,27.5086,-2.2611,0.49408,0.76472
567.918,27.53135,-2.26148,0.49365,0.76413
568.618,27.5541,-2.26251,0.49625,0.76355
569.318,27.5769,-2.26364,0.49532,0.76297
570.018,27.5997,-2.26393,0.49966,0.76238
570.718,27.6225,-2.26549,0.50074,0.7618
571.418,27.6452,-2.26714,0.50253,0.76121
572.118,27.668,-2.26808,0.50245,0.76063
572.818,27.6908,-2.26957,0.50293,0.76005
573.518,27.7135,-2.27021,0.50597,0.75946
574.218,27.7364,-2.27106,0.50508,0.75888
574.918,27.7592,-2.2714,0.50368,0.75829
575.618,27.782,-2.27139,0.5063,0.75771
576.318,27.8047,-2.27219,0.50911,0.75712
577.018,27.8275,-2.27271,0.51114,0.75654
577.718,27.8503,-2.27411,0.5103,0.75596
578.418,27.87309,-2.27424,0.51028,0.75537
579.118,27.89589,-2.27581,0.51262,0.75479
579.818,27.9187,-2.27574,0.51265,0.7542
580.518,27.9415,-2.27723,0.51122,0.75362
581.218,27.9643,-2.27735,0.51097,0.75303
581.918,27.9872,-2.2783,0.51273,0.75245
582.618,28.01002,-2.27828,0.5108,0.75186
583.318,28.03286,-2.27972,0.51113,0.75128
584.018,28.0556,-2.27988,0.50947,0.7507
584.718,28.0785,-2.28115,0.50745,0.75011
585.418,28.1013,-2.28263,0.50676,0.74953
586.118,28.1242,-2.28259,0.50388,0.74894
586.818,28.14695,-2.2839,0.50449,0.74836
587.518,28.1698,-2.28398,0.50413,0.74777
588.218,28.19261,-2.2854,0.50129,0.74719
588.918,28.2155,-2.28609,0.49977,0.74661
589.618,28.2384,-2.2863,0.49624,0.74602
590.318,28.2613,-2.28741,0.49699,0.74544
591.018,28.28418,-2.28756,0.49459,0.74485
591.718,28.307,-2.28872,0.49301,0.74427
592.418,28.33,-2.28867,0.49115,0.74368
593.118,28.35282,-2.29016,0.49217,0.7431
593.818,28.37565,-2.29069,0.48858,0.74252
594.518,28.39855,-2.29155,0.4841,0.74193
595.218,28.4215,-2.29313,0.48666,0.74135
595.918,28.44435,-2.29325,0.48199,0.74076
596.618,28.4672,-2.29332,0.47728,0.74018
597.318,28.4901,-2.2944,0.47617,0.73959
598.018,28.51305,-2.29595,0.47814,0.73901
598.718,28.53592,-2.29757,0.47739,0.73843
599.418,28.55878,-2.298,0.47628,0.73784
600.118,28.5817,-2.29881,0.47193,0.73726
600.818,28.6046,-2.29882,0.47173,0.73667
601.518,28.62755,-2.2991,0.46978,0.73609
602.218,28.65049,-2.29882,0.46931,0.73551
602.918,28.6734,-2.30024,0.46641,0.73492
603.618,28.69636,-2.30045,0.46518,0.73434
604.318,28.71923,-2.30165,0.46142,0.73376
605.018,28.7421,-2.30265,0.45749,0.73317
605.718,28.76505,-2.30341,0.45291,0.73259
606.418,28.788,-2.30537,0.45106,0.732
607.118,28.81085,-2.30693,0.4496,0.73142
607.818,28.8338,-2.30788,0.44684,0.73084
608.518,28.8567,-2.30904,0.44263,0.73025
609.218,28.87973,-2.31033,0.44119,0.72967
609.918,28.90264,-2.31092,0.44073,0.72909
610.618,28.9256,-2.31164,0.4389,0.7285
611.318,28.94848,-2.31164,0.43791,0.72792
612.018,28.97137,-2.31243,0.43367,0.72734
612.718,28.9943,-2.31309,0.43277,0.72675
613.418,29.01727,-2.31463,0.42926,0.72617
614.118,29.0404,-2.31497,0.43164,0.72559
614.818,29.06335,-2.31594,0.42559,0.725
615.518,29.0863,-2.31623,0.4271,0.72442
616.218,29.10929,-2.31621,0.42332,0.72384
616.918,29.1322,-2.31759,0.42178,0.72325
617.618,29.15496,-2.31756,0.41888,0.72267
618.318,29.17776,-2.31882,0.41938,0.72209
619.018,29.20073,-2.31888,0.41308,0.72151
619.718,29.2238,-2.3192,0.41132,0.72092
620.418,29.2469,-2.3202,0.41412,0.72034
621.118,29.2699,-2.32168,0.41135,0.71976
621.818,29.2929,-2.32221,0.40935,0.71917
622.518,29.31588,-2.32317,0.40772,0.71859
623.218,29.33888,-2.32466,0.40667,0.71801
623.918,29.36187,-2.3259,0.40555,0.71743
624.618,29.3849,-2.32727,0.40594,0.71685
625.318,29.4079,-2.32746,0.40153,0.71626
626.018,29.4308,-2.32901,0.40047,0.71568
626.718,29.45386,-2.33054,0.40251,0.7151
627.418,29.47687,-2.33079,0.39877,0.71452
628.118,29.49993,-2.33183,0.39905,0.71393
628.818,29.52301,-2.33249,0.40015,0.71335
629.518,29.5461,-2.33336,0.3983,0.71277
630.218,29.56901,-2.33452,0.39896,0.71219
630.918,29.59201,-2.33472,0.3994,0.71161
631.618,29.615,-2.33335,0.39958,0.71103
632.318,29.63803,-2.33471,0.39753,0.71044
633.018,29.661,-2.3336,0.39743,0.70986
633.718,29.6841,-2.33466,0.39712,0.70928
634.418,29.7071,-2.33478,0.39679,0.7087
635.118,29.73009,-2.33611,0.39689,0.70812
635.818,29.7531,-2.33742,0.39742,0.70754
636.518,29.7762,-2.33743,0.39679,0.70696
637.218,29.79924,-2.33869,0.39762,0.70638
637.918,29.8223,-2.33872,0.39811,0.7058
638.618,29.84528,-2.34002,0.39978,0.70521
639.318,29.86832,-2.34016,0.39775,0.70463
640.018,29.8913,-2.3401,0.39903,0.70405
640.718,29.9144,-2.34111,0.40196,0.70347
641.418,29.9374,-2.34137,0.40117,0.70289
642.118,29.9604,-2.34238,0.40269,0.70231
642.818,29.98353,-2.34268,0.40283,0.70173
643.518,30.00658,-2.343,0.40472,0.70115
644.218,30.0297,-2.344,0.40576,0.70057
644.918,30.0527,-2.34398,0.40471,0.69999
645.618,30.0757,-2.3453,0.40752,0.69941
646.318,30.09882,-2.3453,0.40782,0.69883
647.018,30.1219,-2.34665,0.4113,0.69825
647.718,30.14497,-2.34658,0.41067,0.69767
648.418,30.16807,-2.34803,0.41844,0.69709
649.118,30.19117,-2.34926,0.41938,0.69651
649.818,30.21423,-2.35068,0.42042,0.69594
650.518,30.23729,-2.35064,0.42635,0.69536
651.218,30.2604,-2.35201,0.42957,0.69478
651.918,30.28345,-2.35196,0.43032,0.6942
652.618,30.30657,-2.35332,0.43511,0.69362
653.318,30.32974,-2.35236,0.43955,0.69304
654.018,30.35288,-2.35332,0.44479,0.69246
654.718,30.376,-2.3539,0.44897,0.69188
655.418,30.3991,-2.35473,0.45575,0.6913
656.118,30.4221,-2.35631,0.46227,0.69073
656.818,30.4452,-2.35714,0.46646,0.69015
657.518,30.4683,-2.35758,0.47125,0.68957
658.218,30.4915,-2.35917,0.47989,0.68899
658.918,30.51472,-2.35996,0.4885,0.68841
659.618,30.53789,-2.36046,0.49416,0.68784
660.318,30.56107,-2.3612,0.50286,0.68726
661.018,30.58417,-2.36208,0.50812,0.68668
661.718,30.60731,-2.36283,0.51674,0.6861
662.418,30.6305,-2.36343,0.51938,0.68553
663.118,30.65363,-2.36486,0.53285,0.68495
663.818,30.67677,-2.36509,0.53959,0.68437
664.518,30.69987,-2.36637,0.54661,0.6838
665.218,30.723,-2.36744,0.55836,0.68322
665.918,30.7462,-2.36779,0.56386,0.68264
666.618,30.7693,-2.36925,0.5763,0.68207
667.318,30.7924,-2.37012,0.58485,0.68149
668.018,30.8156,-2.37071,0.59424,0.68091
668.718,30.8389,-2.37198,0.60389,0.68034
669.418,30.8621,-2.37194,0.61685,0.67976
670.118,30.8852,-2.37342,0.62781,0.67919
670.818,30.90845,-2.37388,0.63741,0.67861
671.518,30.93165,-2.37477,0.64562,0.67803
672.218,30.95485,-2.37631,0.65916,0.67746
672.918,30.978,-2.37818,0.66954,0.67688
673.618,31.0012,-2.378,0.68062,0.67631
674.318,31.02435,-2.37916,0.69525,0.67573
675.018,31.0475,-2.38079,0.70678,0.67516
675.718,31.07071,-2.38224,0.7209,0.67458
676.418,31.09385,-2.38324,0.73217,0.67401
677.118,31.1171,-2.38485,0.74631,0.67343
677.818,31.1403,-2.3865,0.75793,0.67286
678.518,31.1636,-2.38764,0.77304,0.67228
679.218,31.18675,-2.38942,0.78323,0.67171
679.918,31.20996,-2.39117,0.79593,0.67114
680.618,31.2332,-2.39248,0.80687,0.67056
681.318,31.25644,-2.39398,0.82304,0.66999
682.018,31.2796,-2.39506,0.83659,0.66941
682.718,31.30286,-2.39693,0.85424,0.66884
683.418,31.32612,-2.39855,0.8711,0.66827
684.118,31.34938,-2.39987,0.88513,0.66769
684.818,31.3726,-2.40169,0.90057,0.66712
685.518,31.39582,-2.40408,0.91483,0.66655
686.218,31.419,-2.40632,0.92925,0.66598
686.918,31.44218,-2.40788,0.9463,0.6654
687.618,31.46537,-2.40991,0.96101,0.66483
688.318,31.48868,-2.41267,0.98123,0.66426
689.018,31.5119,-2.41439,0.99827,0.66369
689.718,31.53513,-2.4159,1.01285,0.66311
690.418,31.5583,-2.41701,1.03057,0.66254
691.118,31.5815,-2.41876,1.05181,0.66197
691.818,31.60462,-2.42043,1.07066,0.6614
692.518,31.62782,-2.42244,1.08594,0.66083
693.218,31.6511,-2.42415,1.1042,0.66026
693.918,31.67434,-2.42593,1.12652,0.65968
694.618,31.69765,-2.42764,1.14485,0.65911
695.318,31.72085,-2.42955,1.16525,0.65854
696.018,31.7441,-2.43132,1.18216,0.65797
696.718,31.76735,-2.43384,1.19962,0.6574
697.418,31.7906,-2.43629,1.21946,0.65683
698.118,31.8138,-2.43857,1.23874,0.65626
698.818,31.837,-2.44056,1.25994,0.65569
699.518,31.8603,-2.4425,1.27904,0.65512
700.218,31.8836,-2.44445,1.30423,0.65455
700.918,31.9069,-2.44683,1.32191,0.65398
701.618,31.93011,-2.44982,1.33987,0.65341
702.318,31.95332,-2.45281,1.36332,0.65284
703.018,31.97659,-2.45484,1.38326,0.65227
703.718,31.9998,-2.45676,1.40669,0.65171
704.418,32.02309,-2.45911,1.42473,0.65114
705.118,32.04639,-2.46101,1.44948,0.65057
705.818,32.06969,-2.46374,1.46762,0.65
706.518,32.09271,-2.46711,1.49339,0.64943
707.218,32.11573,-2.46971,1.5074,0.64886
707.918,32.13905,-2.47323,1.52807,0.6483
708.618,32.16259,-2.47654,1.55029,0.64773
709.318,32.18615,-2.47852,1.57445,0.64716
710.018,32.20944,-2.48104,1.59325,0.64659
710.718,32.23273,-2.48385,1.61316,0.64602
711.418,32.25605,-2.48687,1.6356,0.64546
712.118,32.27933,-2.48943,1.65685,0.64489
712.818,32.3026,-2.49303,1.6745,0.64432
713.518,32.32589,-2.49662,1.69876,0.64376
714.218,32.3492,-2.50021,1.72096,0.64319
714.918,32.37246,-2.50297,1.73972,0.64262
715.618,32.39577,-2.50568,1.76071,0.64206
716.318,32.41904,-2.50938,1.77893,0.64149
717.018,32.44235,-2.51207,1.79763,0.64093
717.718,32.46565,-2.5159,1.81894,0.64036
718.418,32.48897,-2.51917,1.83996,0.6398
719.118,32.51227,-2.52215,1.86045,0.63923
719.818,32.53561,-2.52551,1.88404,0.63867
720.518,32.55891,-2.52916,1.89876,0.6381
721.218,32.58225,-2.53306,1.92099,0.63754
721.918,32.60557,-2.53465,1.93715,0.63697
722.618,32.6288,-2.53758,1.95499,0.63641
723.318,32.65214,-2.54189,1.97614,0.63584
724.018,32.6755,-2.54499,1.99218,0.63528
724.718,32.69887,-2.54888,2.00989,0.63472
725.418,32.72227,-2.55247,2.02316,0.63415
726.118,32.7456,-2.55497,2.04107,0.63359
726.818,32.76897,-2.55822,2.05534,0.63303
727.518,32.7923,-2.56163,2.06977,0.63246
728.218,32.8157,-2.56553,2.07878,0.6319
728.918,32.83909,-2.56887,2.09418,0.63134
729.618,32.8624,-2.57273,2.10108,0.63077
730.318,32.88578,-2.57739,2.11157,0.63021
731.018,32.90915,-2.5803,2.12058,0.62965
731.718,32.93258,-2.58396,2.12498,0.62909
732.418,32.956,-2.58806,2.13108,0.62853
733.118,32.97934,-2.59141,2.13082,0.62796
733.818,33.00268,-2.59555,2.13313,0.6274
734.518,33.0261,-2.59897,2.13423,0.62684
735.218,33.04953,-2.60276,2.13074,0.62628
735.918,33.07298,-2.606,2.12432,0.62572
736.618,33.09645,-2.60998,2.12216,0.62516
737.318,33.11987,-2.61522,2.11145,0.6246
738.018,33.14327,-2.61843,2.10069,0.62404
738.718,33.1667,-2.62228,2.0877,0.62348
739.418,33.1901,-2.62658,2.07571,0.62292
740.118,33.21349,-2.63087,2.06233,0.62236
740.818,33.23682,-2.6351,2.04112,0.6218
741.518,33.2602,-2.63795,2.02345,0.62124
742.218,33.28371,-2.64116,1.99779,0.62068
742.918,33.30715,-2.64481,1.97529,0.62012
743.618,33.33063,-2.64862,1.94787,0.61956
744.318,33.35402,-2.65263,1.91661,0.61901
745.018,33.37748,-2.65591,1.88664,0.61845
745.718,33.4009,-2.65972,1.85247,0.61789
746.418,33.42437,-2.66234,1.81577,0.61733
747.118,33.44781,-2.66474,1.78015,0.61677
747.818,33.47125,-2.66831,1.74215,0.61622
748.518,33.49465,-2.6711,1.69818,0.61566
749.218,33.51809,-2.67396,1.66262,0.6151
749.918,33.54152,-2.67744,1.62188,0.61454
750.618,33.56494,-2.6792,1.58684,0.61399
751.318,33.58834,-2.68254,1.5469,0.61343
752.018,33.61183,-2.68414,1.507,0.61288
752.718,33.63531,-2.68693,1.4708,0.61232
753.418,33.6588,-2.68986,1.43719,0.61176
754.118,33.68213,-2.69176,1.40187,0.61121
754.818,33.7055,-2.69361,1.36859,0.61065
755.518,33.72886,-2.69628,1.33409,0.6101
756.218,33.75225,-2.69944,1.30501,0.60954
756.918,33.77564,-2.70139,1.27722,0.60899
757.618,33.79903,-2.7033,1.24517,0.60843
758.318,33.82249,-2.70613,1.21594,0.60788
759.018,33.84598,-2.70845,1.1876,0.60732
759.718,33.86946,-2.71009,1.15788,0.60677
760.418,33.8929,-2.71286,1.13533,0.60622
761.118,33.91628,-2.71494,1.10797,0.60566
761.818,33.93972,-2.71671,1.07975,0.60511
762.518,33.96313,-2.7188,1.0537,0.60456
763.218,33.98652,-2.72152,1.03199,0.604
763.918,34.00993,-2.72395,1.00583,0.60345
764.618,34.03333,-2.72647,0.97996,0.6029
765.318,34.05673,-2.72881,0.95871,0.60234
766.018,34.08015,-2.73076,0.93488,0.60179
766.718,34.10357,-2.73286,0.9138,0.60124
767.418,34.12699,-2.73506,0.89055,0.60069
768.118,34.15043,-2.73751,0.87049,0.60014
768.818,34.17386,-2.73871,0.84294,0.59959
769.518,34.19727,-2.74067,0.82515,0.59903
770.218,34.22067,-2.74134,0.80475,0.59848
770.918,34.24409,-2.74248,0.78111,0.59793
771.618,34.26755,-2.74428,0.76085,0.59738
772.318,34.29097,-2.74623,0.7388,0.59683
773.018,34.3144,-2.74762,0.71676,0.59628
773.718,34.33778,-2.74912,0.69688,0.59573
774.418,34.36123,-2.75066,0.67395,0.59518
775.118,34.38467,-2.75214,0.65509,0.59463
775.818,34.4082,-2.75323,0.63594,0.59408
776.518,34.4317,-2.7544,0.61765,0.59354
777.218,34.45515,-2.75576,0.59764,0.59299
777.918,34.4786,-2.75716,0.57389,0.59244
778.618,34.50201,-2.75884,0.55601,0.59189
779.318,34.52548,-2.76054,0.5389,0.59134
780.018,34.54895,-2.76219,0.51373,0.59079
780.718,34.57246,-2.76212,0.49573,0.59025
781.418,34.59592,-2.76116,0.48042,0.5897
782.118,34.61935,-2.7608,0.46249,0.58915
782.818,34.64278,-2.76291,0.44656,0.5886
783.518,34.66616,-2.76587,0.41961,0.58806
784.218,34.6896,-2.76855,0.40854,0.58751
784.918,34.713,-2.77042,0.38541,0.58696
785.618,34.73646,-2.77174,0.37385,0.58642
786.318,34.75991,-2.77265,0.35423,0.58587
787.018,34.78328,-2.77411,0.33855,0.58533
787.718,34.80679,-2.77409,0.32408,0.58478
788.418,34.8303,-2.7754,0.30703,0.58424
789.118,34.85382,-2.77707,0.2927,0.58369
789.818,34.87728,-2.77869,0.27728,0.58315
790.518,34.90072,-2.77909,0.2622,0.5826
791.218,34.92415,-2.78068,0.24823,0.58206
791.918,34.94763,-2.78108,0.23346,0.58151
792.618,34.9711,-2.78195,0.22278,0.58097
793.318,34.99471,-2.78353,0.20766,0.58043
794.018,35.0182,-2.78433,0.19037,0.57988
794.718,35.04172,-2.78483,0.1775,0.57934
795.418,35.0652,-2.78504,0.16687,0.5788
796.118,35.08866,-2.78613,0.14971,0.57825
796.818,35.11213,-2.78663,0.13846,0.57771
797.518,35.13563,-2.78767,0.12276,0.57717
798.218,35.15917,-2.78897,0.11542,0.57663
798.918,35.18265,-2.78957,0.10447,0.57609
799.618,35.2061,-2.79069,0.090288,0.57554
800.318,35.22952,-2.79223,0.08299929,0.575
801.018,35.25298,-2.79383,0.07237235,0.57446
801.718,35.27644,-2.79383,0.05834863,0.57392
802.418,35.29991,-2.79514,0.05066481,0.57338
803.118,35.3234,-2.79515,0.04040909,0.57284
803.818,35.34691,-2.79611,0.02840561,0.5723
804.518,35.3705,-2.79546,0.01639383,0.57176
805.218,35.39399,-2.7965,0.006061454,0.57122
805.918,35.41753,-2.79679,0.002024101,0.57068
806.618,35.44099,-2.79785,-0.01058723,0.57014
807.318,35.46441,-2.79809,-0.01823415,0.5696
808.018,35.4878,-2.7989,-0.02599809,0.56906
808.718,35.51127,-2.7994,-0.0322197,0.56852
809.418,35.53482,-2.80097,-0.04122484,0.56799
810.118,35.55839,-2.80139,-0.04949455,0.56745
810.818,35.58193,-2.80242,-0.06058035,0.56691
811.518,35.60542,-2.80393,-0.06645389,0.56637
812.218,35.62892,-2.80551,-0.07618945,0.56583
812.918,35.6524,-2.80543,-0.08497781,0.5653
813.618,35.67595,-2.80678,-0.09559336,0.56476
814.318,35.69944,-2.80676,-0.09868434,0.56422
815.018,35.72293,-2.80676,-0.1105,0.56369
815.718,35.74647,-2.80676,-0.1153,0.56315
816.418,35.76999,-2.80705,-0.12144,0.56261
817.118,35.79354,-2.80776,-0.13207,0.56208
817.818,35.817,-2.80649,-0.13766,0.56154
818.518,35.84052,-2.80785,-0.1429,0.56101
819.218,35.86399,-2.80832,-0.1544,0.56047
819.918,35.88751,-2.80796,-0.16022,0.55994
820.618,35.91104,-2.80931,-0.16679,0.5594
821.318,35.93459,-2.80925,-0.17487,0.55887
822.018,35.95821,-2.8112,-0.17796,0.55834
822.718,35.9818,-2.81126,-0.18763,0.5578
823.418,36.0053,-2.81126,-0.19574,0.55727
824.118,36.02879,-2.81131,-0.19884,0.55673
824.818,36.0523,-2.81281,-0.20768,0.5562
825.518,36.07589,-2.81376,-0.21279,0.55567
826.218,36.0995,-2.81473,-0.22019,0.55514
826.918,36.12304,-2.81579,-0.22602,0.5546
827.618,36.14653,-2.81609,-0.23069,0.55407
828.318,36.17007,-2.81635,-0.23885,0.55354
829.018,36.19361,-2.81607,-0.2431,0.55301
829.718,36.21723,-2.81732,-0.24858,0.55248
830.418,36.2408,-2.81739,-0.25429,0.55194
831.118,36.26439,-2.81876,-0.25925,0.55141
831.818,36.28795,-2.81871,-0.26463,0.55088
832.518,36.3115,-2.81998,-0.27058,0.55035
833.218,36.33484,-2.82003,-0.27645,0.54982
833.918,36.35815,-2.81998,-0.28266,0.54929
834.618,36.3817,-2.82134,-0.28434,0.54876
835.318,36.40533,-2.82135,-0.29088,0.54823
836.018,36.4292,-2.82135,-0.29819,0.5477
836.718,36.45282,-2.82195,-0.30381,0.54717
837.418,36.47637,-2.82266,-0.31023,0.54665
838.118,36.5,-2.82398,-0.30767,0.54612
838.818,36.5236,-2.82398,-0.31605,0.54559
839.518,36.54733,-2.82502,-0.32357,0.54506
840.218,36.571,-2.82416,-0.32554,0.54453
840.918,36.59454,-2.82399,-0.32826,0.544
841.618,36.6181,-2.82442,-0.33771,0.54348
842.318,36.64172,-2.8253,-0.34359,0.54295
843.018,36.66548,-2.8253,-0.34824,0.54242