File: 01_Data/Wool_Rug/STA/N2/30K_min/Wool_Rug_STA_N2_30KData_220119_R2.csv
##Temp./Â°C,Time/min,Mass loss(subtr.2)/mg,DSC(subtr.2)/(mW/mg),Sensit./(uV/mW)
48.623,10.00667,-0.00461,0.009653425,1.06962
49.323,10.5518,-0.00670338,0.05455366,1.06956
50.023,10.67837,-0.006166146,0.09291802,1.0695
50.723,10.7677,-0.00625878,0.12412,1.06944
51.423,10.8413,-0.00745562,0.15438,1.06937
52.123,10.9045,-0.006873405,0.18137,1.0693
52.823,10.96138,-0.007041615,0.20445,1.06924
53.523,11.0131,-0.00756837,0.23081,1.06917
54.223,11.0611,-0.005662458,0.2542,1.06909
54.923,11.10628,-0.007819553,0.27496,1.06902
55.623,11.14896,-0.008655837,0.29195,1.06895
56.323,11.1899,-0.007112492,0.31146,1.06887
57.023,11.22889,-0.006194557,0.32839,1.0688
57.723,11.26636,-0.006448808,0.34856,1.06872
58.423,11.30257,-0.00684208,0.36288,1.06864
59.123,11.33761,-0.007010186,0.3785,1.06856
59.823,11.372,-0.00732761,0.39441,1.06848
60.523,11.40574,-0.007465025,0.40661,1.06839
61.223,11.43844,-0.006570676,0.42082,1.06831
61.923,11.47032,-0.00763406,0.43448,1.06822
62.623,11.5017,-0.00750558,0.44887,1.06814
63.323,11.53262,-0.00767115,0.45957,1.06805
64.023,11.56323,-0.00735247,0.47262,1.06796
64.723,11.59305,-0.008881326,0.48448,1.06787
65.423,11.6226,-0.00994958,0.49955,1.06777
66.123,11.6517,-0.01000632,0.50661,1.06768
66.823,11.68058,-0.00919325,0.51848,1.06758
67.523,11.7091,-0.00748826,0.52716,1.06749
68.223,11.73742,-0.00648571,0.53975,1.06739
68.923,11.76521,-0.008061081,0.54983,1.06729
69.623,11.7929,-0.00803596,0.55868,1.06719
70.323,11.82041,-0.007873583,0.56944,1.06709
71.023,11.84769,-0.00812427,0.5774,1.06698
71.723,11.87486,-0.0075943,0.58834,1.06688
72.423,11.90173,-0.00722991,0.59746,1.06677
73.123,11.9286,-0.007084411,0.60712,1.06666
73.823,11.95513,-0.007357041,0.61518,1.06655
74.523,11.98152,-0.00666884,0.62224,1.06644
75.223,12.00773,-0.00543578,0.62923,1.06633
75.923,12.03373,-0.00568976,0.63557,1.06622
76.623,12.05958,-0.0074317,0.64543,1.06611
77.323,12.08557,-0.007583029,0.65239,1.06599
78.023,12.1115,-0.00730986,0.65996,1.06587
78.723,12.1372,-0.00781717,0.66953,1.06575
79.423,12.16269,-0.00712999,0.67878,1.06563
80.123,12.18815,-0.007229912,0.68468,1.06551
80.823,12.21347,-0.008233441,0.69371,1.06539
81.523,12.2387,-0.008667054,0.69802,1.06527
82.223,12.26372,-0.008867031,0.70741,1.06514
82.923,12.2888,-0.009834146,0.71609,1.06502
83.623,12.31371,-0.009434589,0.72345,1.06489
84.323,12.33859,-0.01030513,0.73044,1.06476
85.023,12.36335,-0.01096132,0.73844,1.06463
85.723,12.38809,-0.0116793,0.74281,1.0645
86.423,12.41276,-0.01195872,0.75521,1.06437
87.123,12.4374,-0.011982,0.7604,1.06423
87.823,12.4618,-0.01199143,0.76712,1.0641
88.523,12.48616,-0.01195927,0.7755,1.06396
89.223,12.51046,-0.01252681,0.78219,1.06382
89.923,12.53481,-0.01195562,0.78947,1.06368
90.623,12.55909,-0.01194019,0.79887,1.06354
91.323,12.5832,-0.01122351,0.80218,1.0634
92.023,12.6073,-0.01206818,0.81158,1.06326
92.723,12.6316,-0.01290494,0.81746,1.06311
93.423,12.65582,-0.01193391,0.82249,1.06297
94.123,12.67988,-0.01262316,0.829,1.06282
94.823,12.70387,-0.01208195,0.83483,1.06267
95.523,12.7279,-0.01326472,0.84272,1.06252
96.223,12.75195,-0.01374942,0.84748,1.06237
96.923,12.77587,-0.01451502,0.85392,1.06222
97.623,12.79975,-0.01326878,0.8598,1.06207
98.323,12.82351,-0.01327086,0.86467,1.06191
99.023,12.84723,-0.01329917,0.87113,1.06176
99.723,12.87092,-0.0145798,0.87651,1.0616
100.423,12.89462,-0.01458854,0.88096,1.06144
101.123,12.9184,-0.01505011,0.88719,1.06128
101.823,12.9422,-0.0159137,0.89188,1.06112
102.523,12.96592,-0.01590802,0.89354,1.06096
103.223,12.98959,-0.01691068,0.90028,1.06079
103.923,13.0133,-0.01722005,0.90249,1.06063
104.623,13.03697,-0.01734312,0.90709,1.06046
105.323,13.0606,-0.0185377,0.90987,1.06029
106.023,13.08423,-0.01854022,0.91564,1.06013
106.723,13.10791,-0.01855017,0.92022,1.05996
107.423,13.13153,-0.02092779,0.92288,1.05978
108.123,13.1551,-0.02115819,0.92391,1.05961
108.823,13.17857,-0.02116004,0.92573,1.05944
109.523,13.20209,-0.02116322,0.92732,1.05926
110.223,13.22565,-0.02205705,0.92859,1.05909
110.923,13.2492,-0.02247856,0.93206,1.05891
111.623,13.2726,-0.02305302,0.9321,1.05873
112.323,13.29611,-0.02380368,0.93253,1.05855
113.023,13.3195,-0.02379999,0.93359,1.05837
113.723,13.3429,-0.02379994,0.93467,1.05819
114.423,13.3664,-0.02380068,0.93364,1.058
115.123,13.39001,-0.02275354,0.93625,1.05782
115.823,13.41345,-0.02249024,0.93686,1.05763
116.523,13.4368,-0.02315891,0.94001,1.05744
117.223,13.4601,-0.02380014,0.93739,1.05725
117.923,13.4835,-0.02379998,0.93837,1.05706
118.623,13.5069,-0.0238,0.93841,1.05687
119.323,13.53025,-0.02379991,0.9383,1.05668
120.023,13.5535,-0.02379931,0.93674,1.05649
120.723,13.57674,-0.0250166,0.93757,1.05629
121.423,13.5999,-0.02512003,0.9348,1.05609
122.123,13.62309,-0.02512001,0.93311,1.0559
122.823,13.6462,-0.02512,0.93309,1.0557
123.523,13.66939,-0.02512,0.93184,1.0555
124.223,13.69244,-0.02511983,0.92999,1.0553
124.923,13.71544,-0.02508642,0.92883,1.05509
125.623,13.73843,-0.02645379,0.92588,1.05489
126.323,13.7614,-0.02646213,0.92504,1.05469
127.023,13.7842,-0.02776389,0.92679,1.05448
127.723,13.80725,-0.02775004,0.9256,1.05427
128.423,13.8303,-0.02774975,0.92373,1.05406
129.123,13.8535,-0.02774798,0.92352,1.05385
129.823,13.8764,-0.02911049,0.92198,1.05364
130.523,13.89936,-0.02905983,0.91904,1.05343
131.223,13.92235,-0.02906,0.91606,1.05322
131.923,13.9452,-0.02906,0.91607,1.053
132.623,13.968,-0.02906,0.91508,1.05279
133.323,13.9907,-0.02906,0.91127,1.05257
134.023,14.01349,-0.02906,0.91263,1.05235
134.723,14.0363,-0.02906,0.90951,1.05213
135.423,14.059,-0.02906,0.90715,1.05191
136.123,14.08172,-0.02906,0.90856,1.05169
136.823,14.10435,-0.02906,0.9065,1.05147
137.523,14.127,-0.02906,0.90404,1.05124
138.223,14.14966,-0.02906,0.90521,1.05102
138.923,14.1723,-0.02906,0.90335,1.05079
139.623,14.19481,-0.02906,0.90196,1.05056
140.323,14.2173,-0.02906007,0.90164,1.05033
141.023,14.23981,-0.02905941,0.90135,1.0501
141.723,14.26232,-0.03000359,0.90044,1.04987
142.423,14.2848,-0.03038206,0.89814,1.04964
143.123,14.30735,-0.03037999,0.8995,1.0494
143.823,14.32973,-0.03038456,0.89737,1.04917
144.523,14.3521,-0.03125111,0.89901,1.04893
145.223,14.3745,-0.03169106,0.89791,1.0487
145.923,14.397,-0.03168998,0.89831,1.04846
146.623,14.41939,-0.03169,0.8979,1.04822
147.323,14.44178,-0.03169001,0.89795,1.04798
148.023,14.4641,-0.03168932,0.89816,1.04773
148.723,14.48639,-0.03169815,0.89724,1.04749
149.423,14.50865,-0.03135753,0.89829,1.04725
150.123,14.53086,-0.03136004,0.89829,1.047
150.823,14.55304,-0.03136,0.90115,1.04676
151.523,14.5752,-0.03136,0.89892,1.04651
152.223,14.59743,-0.03136,0.90132,1.04626
152.923,14.6197,-0.03135998,0.90328,1.04601
153.623,14.6419,-0.03135059,0.90141,1.04576
154.323,14.66414,-0.03239731,0.90434,1.0455
155.023,14.68631,-0.03235009,0.90492,1.04525
155.723,14.70861,-0.0324357,0.90724,1.045
156.423,14.7308,-0.03268195,0.91006,1.04474
157.123,14.75293,-0.03268,0.90961,1.04448
157.823,14.775,-0.03267999,0.91066,1.04422
158.523,14.7971,-0.03268127,0.9113,1.04396
159.223,14.8192,-0.03242437,0.91393,1.0437
159.923,14.8413,-0.03137393,0.91576,1.04344
160.623,14.8634,-0.03137085,0.9165,1.04318
161.323,14.88548,-0.03133133,0.91725,1.04292
162.023,14.90746,-0.03268232,0.92045,1.04265
162.723,14.9296,-0.03269026,0.92117,1.04238
163.423,14.95168,-0.03269,0.92262,1.04212
164.123,14.97381,-0.03269,0.92489,1.04185
164.823,14.99586,-0.03269,0.92586,1.04158
165.523,15.01785,-0.03269,0.92846,1.04131
166.223,15.0398,-0.03269,0.92971,1.04104
166.923,15.06175,-0.03269,0.93157,1.04076
167.623,15.08375,-0.03269,0.93344,1.04049
168.323,15.1058,-0.03269,0.9367,1.04021
169.023,15.12773,-0.03269021,0.93751,1.03994
169.723,15.1498,-0.03265821,0.94141,1.03966
170.423,15.17174,-0.03301551,0.94191,1.03938
171.123,15.1937,-0.03302065,0.94375,1.0391
171.823,15.2156,-0.03349048,0.94767,1.03882
172.523,15.23753,-0.03367889,0.94873,1.03854
173.223,15.25939,-0.03397873,0.95085,1.03826
173.923,15.2812,-0.03399949,0.95307,1.03797
174.623,15.30306,-0.03399978,0.95493,1.03769
175.323,15.3249,-0.03401296,0.95779,1.0374
176.023,15.3467,-0.03531262,0.9591,1.03711
176.723,15.36854,-0.03530908,0.96375,1.03682
177.423,15.3903,-0.03531002,0.96353,1.03654
178.123,15.41206,-0.03531,0.96852,1.03624
178.823,15.4339,-0.03531,0.96922,1.03595
179.523,15.4558,-0.03531,0.97148,1.03566
180.223,15.47759,-0.03531,0.97273,1.03537
180.923,15.4993,-0.03531,0.97685,1.03507
181.623,15.5209,-0.03531001,0.97798,1.03477
182.323,15.54256,-0.03530925,0.98102,1.03448
183.023,15.56434,-0.03536054,0.98497,1.03418
183.723,15.5861,-0.03399168,0.98669,1.03388
184.423,15.6078,-0.0339998,0.98959,1.03358
185.123,15.62943,-0.034,0.99193,1.03328
185.823,15.65102,-0.03400037,0.99162,1.03298
186.523,15.67254,-0.03398912,0.99808,1.03267
187.223,15.69411,-0.03532002,0.9983,1.03237
187.923,15.7157,-0.03530965,1.0009,1.03206
188.623,15.7373,-0.03531001,1.00288,1.03175
189.323,15.75889,-0.03531,1.00523,1.03145
190.023,15.78038,-0.03531,1.00932,1.03114
190.723,15.80197,-0.03531002,1.01264,1.03083
191.423,15.8236,-0.03530872,1.01598,1.03052
192.123,15.84513,-0.03536943,1.01857,1.0302
192.823,15.8666,-0.03498617,1.01911,1.02989
193.523,15.88807,-0.03597581,1.02271,1.02958
194.223,15.90955,-0.0359801,1.02722,1.02926
194.923,15.931,-0.03598,1.02894,1.02894
195.623,15.95253,-0.03598,1.03419,1.02863
196.323,15.97406,-0.03598012,1.03469,1.02831
197.023,15.9956,-0.03595858,1.03657,1.02799
197.723,16.01707,-0.03610342,1.04281,1.02767
198.423,16.03854,-0.03596898,1.04278,1.02735
199.123,16.06,-0.03597,1.04561,1.02702
199.823,16.08145,-0.03597,1.05201,1.0267
200.523,16.1029,-0.03597006,1.05482,1.02638
201.223,16.12424,-0.03596627,1.05795,1.02605
201.923,16.1456,-0.0364973,1.06147,1.02572
202.623,16.16711,-0.03729088,1.06663,1.0254
203.323,16.1885,-0.03741153,1.06905,1.02507
204.023,16.20988,-0.03856951,1.07351,1.02474
204.723,16.2312,-0.03986383,1.07734,1.02441
205.423,16.25265,-0.03992025,1.08246,1.02408
206.123,16.27412,-0.03992008,1.08568,1.02374
206.823,16.2956,-0.03990693,1.09067,1.02341
207.523,16.31695,-0.04114623,1.09538,1.02307
208.223,16.33831,-0.04124068,1.09814,1.02274
208.923,16.35969,-0.04124,1.1036,1.0224
209.623,16.3811,-0.04124,1.10995,1.02206
210.323,16.40246,-0.04124026,1.11477,1.02172
211.023,16.42384,-0.04122151,1.11946,1.02138
211.723,16.44505,-0.04252085,1.12357,1.02104
212.423,16.46642,-0.04256008,1.13111,1.0207
213.123,16.48771,-0.04256,1.13541,1.02036
213.823,16.50913,-0.04256,1.14166,1.02002
214.523,16.53047,-0.04256003,1.14983,1.01967
215.223,16.55189,-0.04255884,1.15412,1.01933
215.923,16.57324,-0.0428818,1.16154,1.01898
216.623,16.59465,-0.04386593,1.17014,1.01863
217.323,16.61603,-0.0438701,1.17668,1.01828
218.023,16.6374,-0.04387,1.18788,1.01793
218.723,16.65879,-0.04387,1.19447,1.01758
219.423,16.6801,-0.04387,1.20215,1.01723
220.123,16.70138,-0.04387003,1.21217,1.01688
220.823,16.72264,-0.04386704,1.22246,1.01652
221.523,16.74385,-0.04419019,1.23194,1.01617
222.223,16.76515,-0.04518374,1.24401,1.01581
222.923,16.7865,-0.04519001,1.2572,1.01546
223.623,16.80789,-0.04518878,1.26962,1.0151
224.323,16.82917,-0.04535949,1.28229,1.01474
225.023,16.8505,-0.04691974,1.29866,1.01438
225.723,16.87174,-0.04838724,1.31415,1.01402
226.423,16.89307,-0.04924834,1.32852,1.01366
227.123,16.91442,-0.05006043,1.34647,1.0133
227.823,16.93574,-0.0506704,1.36492,1.01293
228.523,16.95699,-0.05189597,1.38019,1.01257
229.223,16.97824,-0.05198745,1.40153,1.0122
229.923,16.9995,-0.05258353,1.42006,1.01184
230.623,17.0208,-0.05265584,1.44158,1.01147
231.323,17.04205,-0.05359509,1.46529,1.0111
232.023,17.06331,-0.0546864,1.48999,1.01073
232.723,17.08465,-0.05591517,1.51568,1.01036
233.423,17.10594,-0.05733625,1.54078,1.00999
234.123,17.12718,-0.05980135,1.56719,1.00962
234.823,17.14854,-0.06220404,1.59336,1.00925
235.523,17.16987,-0.0633781,1.6176,1.00888
236.223,17.19128,-0.0648062,1.64714,1.0085
236.923,17.21258,-0.06646504,1.67439,1.00813
237.623,17.23379,-0.06811732,1.70454,1.00775
238.323,17.2549,-0.0701605,1.73064,1.00737
239.023,17.27619,-0.0719489,1.76067,1.00699
239.723,17.29747,-0.07403583,1.78667,1.00662
240.423,17.31881,-0.07603357,1.81061,1.00624
241.123,17.3401,-0.07634837,1.83685,1.00585
241.823,17.3614,-0.07725865,1.86136,1.00547
242.523,17.38276,-0.07824251,1.88576,1.00509
243.223,17.40403,-0.08192152,1.90656,1.00471
243.923,17.42529,-0.08584237,1.92357,1.00432
244.623,17.44655,-0.08828949,1.94473,1.00394
245.323,17.46779,-0.09071461,1.96092,1.00355
246.023,17.4891,-0.0930997,1.9742,1.00316
246.723,17.51032,-0.09572118,1.98684,1.00277
247.423,17.53145,-0.09788116,1.99776,1.00239
248.123,17.5524,-0.10069,2.00586,1.002
248.823,17.57365,-0.10314,2.01298,1.00161
249.523,17.59481,-0.10646,2.01824,1.00121
250.223,17.6163,-0.11006,2.02376,1.00082
250.923,17.6377,-0.11261,2.02612,1.00043
251.623,17.659,-0.1151,2.02859,1.00003
252.323,17.68026,-0.11771,2.02988,0.99964
253.023,17.70147,-0.12041,2.03339,0.99924
253.723,17.72256,-0.12305,2.03022,0.99884
254.423,17.7437,-0.12568,2.0315,0.99845
255.123,17.76491,-0.12834,2.02962,0.99805
255.823,17.78616,-0.13135,2.02456,0.99765
256.523,17.80735,-0.13344,2.01958,0.99725
257.223,17.8285,-0.13623,2.0149,0.99685
257.923,17.8496,-0.13869,2.00868,0.99644
258.623,17.87078,-0.14096,2.00597,0.99604
259.323,17.89198,-0.14473,2.00353,0.99564
260.023,17.9131,-0.14903,1.99873,0.99523
260.723,17.9343,-0.15361,1.99434,0.99483
261.423,17.95541,-0.15753,1.99188,0.99442
262.123,17.97666,-0.16023,1.98991,0.99401
262.823,17.99781,-0.16273,1.98763,0.99361
263.523,18.01892,-0.16552,1.98698,0.9932
264.223,18.04,-0.16837,1.9863,0.99279
264.923,18.0611,-0.17198,1.98706,0.99238
265.623,18.08224,-0.17582,1.98585,0.99197
266.323,18.10341,-0.1791,1.98614,0.99155
267.023,18.12456,-0.18193,1.98713,0.99114
267.723,18.14573,-0.18539,1.9878,0.99073
268.423,18.1668,-0.18934,1.99032,0.99031
269.123,18.1879,-0.19217,1.99187,0.9899
269.823,18.20901,-0.19528,1.99484,0.98948
270.523,18.23012,-0.19927,1.99476,0.98906
271.223,18.25122,-0.2031,1.99779,0.98864
271.923,18.2724,-0.20667,2.0013,0.98822
272.623,18.29349,-0.21054,2.00519,0.9878
273.323,18.31465,-0.21519,2.00565,0.98738
274.023,18.33585,-0.21972,2.00899,0.98696
274.723,18.357,-0.22294,2.01138,0.98654
275.423,18.3782,-0.22667,2.0109,0.98612
276.123,18.39926,-0.23106,2.01424,0.98569
276.823,18.4204,-0.23467,2.01409,0.98527
277.523,18.44152,-0.23869,2.01795,0.98484
278.223,18.4627,-0.24274,2.01992,0.98442
278.923,18.48382,-0.2464,2.02187,0.98399
279.623,18.5049,-0.25069,2.02367,0.98356
280.323,18.52607,-0.25495,2.02935,0.98313
281.023,18.54724,-0.25942,2.02981,0.98271
281.723,18.56846,-0.26309,2.03269,0.98228
282.423,18.5896,-0.26653,2.0326,0.98184
283.123,18.61071,-0.27162,2.036,0.98141
283.823,18.6318,-0.27737,2.03747,0.98098
284.523,18.65287,-0.28073,2.03997,0.98055
285.223,18.67396,-0.28497,2.04223,0.98011
285.923,18.69518,-0.29014,2.04547,0.97968
286.623,18.71641,-0.29469,2.0449,0.97924
287.323,18.73765,-0.29852,2.04773,0.97881
288.023,18.75885,-0.30237,2.04945,0.97837
288.723,18.78,-0.308,2.05364,0.97793
289.423,18.80115,-0.31239,2.05455,0.97749
290.123,18.82229,-0.31691,2.05578,0.97705
290.823,18.84349,-0.32086,2.05913,0.97661
291.523,18.86466,-0.32641,2.06172,0.97617
292.223,18.8858,-0.33098,2.06546,0.97573
292.923,18.90704,-0.33573,2.06646,0.97529
293.623,18.92824,-0.34056,2.06782,0.97484
294.323,18.94944,-0.3452,2.07334,0.9744
295.023,18.9706,-0.35067,2.07177,0.97396
295.723,18.99181,-0.35677,2.07328,0.97351
296.423,19.01295,-0.36284,2.07694,0.97306
297.123,19.0341,-0.36863,2.07881,0.97262
297.823,19.05526,-0.37368,2.08466,0.97217
298.523,19.07638,-0.37807,2.08512,0.97172
299.223,19.09753,-0.38296,2.08847,0.97127
299.923,19.11875,-0.3883,2.08916,0.97082
300.623,19.13991,-0.3932,2.08931,0.97037
301.323,19.16105,-0.39809,2.0898,0.96992
302.023,19.18222,-0.40349,2.09495,0.96947
302.723,19.20338,-0.40985,2.09627,0.96902
303.423,19.2246,-0.41625,2.09517,0.96856
304.123,19.2458,-0.42217,2.09743,0.96811
304.823,19.26705,-0.4281,2.10076,0.96765
305.523,19.2882,-0.43397,2.10021,0.9672
306.223,19.30946,-0.43974,2.10369,0.96674
306.923,19.33069,-0.4459,2.10463,0.96628
307.623,19.35189,-0.45234,2.10479,0.96583
308.323,19.3731,-0.4582,2.10753,0.96537
309.023,19.39426,-0.46413,2.10876,0.96491
309.723,19.4155,-0.47019,2.11297,0.96445
310.423,19.43659,-0.47645,2.11367,0.96399
311.123,19.45784,-0.48296,2.11804,0.96353
311.823,19.479,-0.4905,2.11841,0.96306
312.523,19.5002,-0.49706,2.11857,0.9626
313.223,19.52158,-0.50351,2.12228,0.96214
313.923,19.5428,-0.50984,2.12189,0.96167
314.623,19.564,-0.51629,2.12758,0.96121
315.323,19.5852,-0.52344,2.13138,0.96074
316.023,19.60641,-0.53134,2.13046,0.96028
316.723,19.62771,-0.53849,2.13345,0.95981
317.423,19.64894,-0.54562,2.13974,0.95934
318.123,19.6702,-0.55287,2.14247,0.95888
318.823,19.6914,-0.56035,2.1468,0.95841
319.523,19.71264,-0.56825,2.14851,0.95794
320.223,19.73387,-0.57605,2.15345,0.95747
320.923,19.7551,-0.58395,2.15709,0.957
321.623,19.77635,-0.59162,2.16022,0.95653
322.323,19.7976,-0.59966,2.16253,0.95605
323.023,19.8189,-0.60797,2.16541,0.95558
323.723,19.84021,-0.61652,2.16918,0.95511
324.423,19.86153,-0.62561,2.17233,0.95463
325.123,19.8828,-0.63443,2.17594,0.95416
325.823,19.9041,-0.64274,2.17748,0.95368
326.523,19.9254,-0.65247,2.18329,0.95321
327.223,19.94665,-0.66052,2.1812,0.95273
327.923,19.96796,-0.66799,2.18456,0.95225
328.623,19.98922,-0.67538,2.18603,0.95177
329.323,20.01054,-0.68529,2.18565,0.9513
330.023,20.03183,-0.69732,2.18629,0.95082
330.723,20.05314,-0.7087,2.18725,0.95034
331.423,20.0744,-0.7176,2.18578,0.94986
332.123,20.09571,-0.72712,2.18517,0.94937
332.823,20.117,-0.73707,2.18213,0.94889
333.523,20.13831,-0.74666,2.17893,0.94841
334.223,20.15958,-0.75576,2.17405,0.94793
334.923,20.1809,-0.76614,2.16962,0.94744
335.623,20.20221,-0.77683,2.16504,0.94696
336.323,20.22363,-0.78735,2.15874,0.94647
337.023,20.24501,-0.79822,2.15303,0.94599
337.723,20.2664,-0.80889,2.14198,0.9455
338.423,20.28772,-0.8199,2.1336,0.94502
339.123,20.3091,-0.83154,2.12333,0.94453
339.823,20.3305,-0.84362,2.11463,0.94404
340.523,20.35189,-0.85659,2.10257,0.94355
341.223,20.3733,-0.86802,2.0915,0.94306
341.923,20.39461,-0.87932,2.07827,0.94257
342.623,20.41595,-0.89002,2.06332,0.94208
343.323,20.4373,-0.9006,2.05118,0.94159
344.023,20.45861,-0.91154,2.03493,0.9411
344.723,20.48001,-0.92246,2.01945,0.94061
345.423,20.50145,-0.93419,2.00399,0.94011
346.123,20.5229,-0.94622,1.98805,0.93962
346.823,20.54419,-0.95748,1.96967,0.93913
347.523,20.5655,-0.96879,1.95194,0.93863
348.223,20.58691,-0.98029,1.93394,0.93814
348.923,20.6083,-0.99285,1.91581,0.93764
349.623,20.6297,-1.00554,1.89658,0.93715
350.323,20.6511,-1.01809,1.87691,0.93665
351.023,20.67249,-1.03045,1.85994,0.93615
351.723,20.6939,-1.0427,1.84054,0.93565
352.423,20.71537,-1.05512,1.81846,0.93515
353.123,20.7367,-1.0674,1.79906,0.93465
353.823,20.75812,-1.07985,1.78235,0.93415
354.523,20.7795,-1.09306,1.76191,0.93365
355.223,20.80094,-1.10543,1.74222,0.93315
355.923,20.82236,-1.11803,1.72599,0.93265
356.623,20.8437,-1.13022,1.70412,0.93215
357.323,20.86519,-1.14274,1.68692,0.93165
358.023,20.88658,-1.15537,1.66734,0.93114
358.723,20.90802,-1.16851,1.64981,0.93064
359.423,20.92936,-1.18125,1.63146,0.93014
360.123,20.95074,-1.19481,1.61282,0.92963
360.823,20.97224,-1.20798,1.59516,0.92913
361.523,20.99363,-1.22098,1.57958,0.92862
362.223,21.01507,-1.23301,1.56413,0.92811
362.923,21.0365,-1.24522,1.54496,0.92761
363.623,21.05796,-1.25763,1.52988,0.9271
364.323,21.07941,-1.27026,1.5144,0.92659
365.023,21.10089,-1.28295,1.50075,0.92608
365.723,21.1223,-1.29548,1.48597,0.92557
366.423,21.14382,-1.30728,1.47255,0.92506
367.123,21.16528,-1.31898,1.45844,0.92455
367.823,21.18675,-1.33055,1.44621,0.92404
368.523,21.20822,-1.34227,1.43213,0.92353
369.223,21.22974,-1.35349,1.4234,0.92302
369.923,21.25123,-1.36472,1.41124,0.92251
370.623,21.27273,-1.37624,1.39831,0.922
371.323,21.29424,-1.3888,1.38804,0.92148
372.023,21.31577,-1.39959,1.37859,0.92097
372.723,21.33726,-1.41027,1.36625,0.92045
373.423,21.3587,-1.42038,1.35931,0.91994
374.123,21.38019,-1.43039,1.34944,0.91942
374.823,21.4018,-1.43991,1.33951,0.91891
375.523,21.42334,-1.44983,1.32943,0.91839
376.223,21.4449,-1.45951,1.32363,0.91788
376.923,21.46645,-1.46893,1.31508,0.91736
377.623,21.4879,-1.47823,1.3079,0.91684
378.323,21.50949,-1.48768,1.30069,0.91632
379.023,21.53107,-1.49763,1.29101,0.9158
379.723,21.5526,-1.50754,1.28758,0.91528
380.423,21.5742,-1.51643,1.28262,0.91476
381.123,21.59575,-1.52464,1.27861,0.91424
381.823,21.61727,-1.53295,1.27043,0.91372
382.523,21.63884,-1.54162,1.26517,0.9132
383.223,21.6604,-1.54954,1.26018,0.91268
383.923,21.682,-1.55629,1.25388,0.91216
384.623,21.70362,-1.56423,1.24697,0.91164
385.323,21.72522,-1.57235,1.24534,0.91111
386.023,21.74682,-1.58019,1.24085,0.91059
386.723,21.7684,-1.58788,1.23543,0.91006
387.423,21.79006,-1.59542,1.22707,0.90954
388.123,21.81172,-1.60406,1.2252,0.90901
388.823,21.83336,-1.61141,1.22116,0.90849
389.523,21.85497,-1.61851,1.2134,0.90796
390.223,21.8766,-1.62529,1.20955,0.90744
390.923,21.89821,-1.63221,1.20717,0.90691
391.623,21.91972,-1.63895,1.20169,0.90638
392.323,21.94138,-1.64608,1.19823,0.90585
393.023,21.96304,-1.65104,1.19298,0.90533
393.723,21.9849,-1.65681,1.19005,0.9048
394.423,22.0066,-1.66294,1.18692,0.90427
395.123,22.0284,-1.66941,1.18248,0.90374
395.823,22.05009,-1.67565,1.17819,0.90321
396.523,22.07179,-1.68181,1.17307,0.90268
397.223,22.0934,-1.68842,1.17144,0.90215
397.923,22.1151,-1.69533,1.16773,0.90162
398.623,22.13668,-1.70117,1.16403,0.90108
399.323,22.15842,-1.70726,1.16209,0.90055
400.023,22.18015,-1.71333,1.15701,0.90002
400.723,22.20191,-1.71943,1.15516,0.89949
401.423,22.22365,-1.72539,1.15073,0.89895
402.123,22.2454,-1.73138,1.14605,0.89842
402.823,22.2671,-1.737,1.14286,0.89789
403.523,22.28891,-1.74283,1.14122,0.89735
404.223,22.31073,-1.74809,1.13851,0.89682
404.923,22.33249,-1.75356,1.13529,0.89628
405.623,22.35429,-1.75928,1.13038,0.89574
406.323,22.3761,-1.76487,1.1271,0.89521
407.023,22.39791,-1.77026,1.1251,0.89467
407.723,22.41972,-1.77553,1.12235,0.89413
408.423,22.44153,-1.78067,1.1199,0.8936
409.123,22.4633,-1.78551,1.11422,0.89306
409.823,22.48508,-1.79128,1.11171,0.89252
410.523,22.50689,-1.79627,1.10784,0.89198
411.223,22.52871,-1.80096,1.10677,0.89144
411.923,22.55055,-1.80474,1.1002,0.8909
412.623,22.5724,-1.80974,1.09982,0.89036
413.323,22.59394,-1.81515,1.10026,0.88982
414.023,22.61574,-1.81819,1.09543,0.88928
414.723,22.63757,-1.82272,1.09552,0.88874
415.423,22.65963,-1.82785,1.08951,0.8882
416.123,22.68167,-1.83133,1.08638,0.88766
416.823,22.70352,-1.83611,1.08281,0.88711
417.523,22.72531,-1.84172,1.08229,0.88657
418.223,22.74716,-1.84552,1.08017,0.88603
418.923,22.76905,-1.849,1.07561,0.88548
419.623,22.79095,-1.85392,1.07424,0.88494
420.323,22.81287,-1.85824,1.07112,0.8844
421.023,22.8348,-1.86265,1.06901,0.88385
421.723,22.85673,-1.86788,1.06352,0.88331
422.423,22.8786,-1.87382,1.06047,0.88276
423.123,22.90043,-1.87812,1.05931,0.88221
423.823,22.92227,-1.88267,1.05521,0.88167
424.523,22.94414,-1.88699,1.05197,0.88112
425.223,22.96614,-1.89125,1.04975,0.88058
425.923,22.98811,-1.89605,1.04479,0.88003
426.623,23.01015,-1.90055,1.04285,0.87948
427.323,23.03211,-1.90426,1.0387,0.87893
428.023,23.05412,-1.90808,1.0356,0.87838
428.723,23.07611,-1.91161,1.02948,0.87784
429.423,23.09805,-1.91509,1.02583,0.87729
430.123,23.11996,-1.91851,1.02134,0.87674
430.823,23.14197,-1.92273,1.01775,0.87619
431.523,23.16391,-1.92693,1.013,0.87564
432.223,23.18592,-1.9301,1.00674,0.87509
432.923,23.20789,-1.93388,1.0057,0.87454
433.623,23.22981,-1.93774,0.99601,0.87399
434.323,23.25178,-1.94122,0.99494,0.87343
435.023,23.27364,-1.94491,0.99072,0.87288
435.723,23.29559,-1.94844,0.98672,0.87233
436.423,23.3176,-1.95203,0.98262,0.87178
437.123,23.3397,-1.9563,0.97547,0.87123
437.823,23.36177,-1.95935,0.9732,0.87067
438.523,23.3838,-1.96233,0.96755,0.87012
439.223,23.40579,-1.96648,0.96462,0.86957
439.923,23.4278,-1.96996,0.95673,0.86901
440.623,23.44981,-1.97225,0.95617,0.86846
441.323,23.4718,-1.9754,0.9498,0.8679
442.023,23.49383,-1.9788,0.94645,0.86735
442.723,23.51579,-1.98103,0.9423,0.86679
443.423,23.53785,-1.98334,0.93676,0.86624
444.123,23.5599,-1.98574,0.93544,0.86568
444.823,23.58202,-1.9882,0.93105,0.86513
445.523,23.604,-1.99101,0.92682,0.86457
446.223,23.62603,-1.99381,0.92171,0.86401
446.923,23.64799,-1.99748,0.92015,0.86346
447.623,23.67009,-2.0016,0.9161,0.8629
448.323,23.6922,-2.00453,0.91502,0.86234
449.023,23.7143,-2.00759,0.91094,0.86178
449.723,23.73641,-2.01115,0.90848,0.86122
450.423,23.7585,-2.01392,0.90517,0.86067
451.123,23.78055,-2.01605,0.90283,0.86011
451.823,23.80265,-2.0186,0.89682,0.85955
452.523,23.82474,-2.02142,0.89538,0.85899
453.223,23.84691,-2.02495,0.89366,0.85843
453.923,23.86903,-2.02901,0.89073,0.85787
454.623,23.89113,-2.03186,0.8891,0.85731
455.323,23.9132,-2.03499,0.88292,0.85675
456.023,23.93529,-2.03747,0.88103,0.85619
456.723,23.95746,-2.03975,0.8766,0.85563
457.423,23.97964,-2.04229,0.87645,0.85506
458.123,24.0018,-2.04449,0.87248,0.8545
458.823,24.02392,-2.04721,0.87195,0.85394
459.523,24.04607,-2.04964,0.86854,0.85338
460.223,24.06823,-2.05162,0.86433,0.85282
460.923,24.09044,-2.05346,0.86244,0.85225
461.623,24.1126,-2.05538,0.85938,0.85169
462.323,24.13479,-2.05821,0.8557,0.85113
463.023,24.15705,-2.06085,0.8555,0.85056
463.723,24.17928,-2.06339,0.85225,0.85
464.423,24.20143,-2.06623,0.84972,0.84944
465.123,24.22356,-2.06911,0.85037,0.84887
465.823,24.24577,-2.07121,0.84678,0.84831
466.523,24.268,-2.07392,0.84317,0.84774
467.223,24.2902,-2.07664,0.83756,0.84718
467.923,24.31236,-2.07938,0.83824,0.84661
468.623,24.33446,-2.08233,0.83581,0.84605
469.323,24.35659,-2.08438,0.83169,0.84548
470.023,24.3789,-2.08628,0.83048,0.84491
470.723,24.40116,-2.08813,0.82718,0.84435
471.423,24.42345,-2.09023,0.82471,0.84378
472.123,24.44564,-2.09261,0.82267,0.84321
472.823,24.46785,-2.09481,0.82152,0.84265
473.523,24.49016,-2.09703,0.81705,0.84208
474.223,24.5125,-2.09936,0.8164,0.84151
474.923,24.53483,-2.10166,0.81462,0.84095
475.623,24.55708,-2.10349,0.81052,0.84038
476.323,24.57937,-2.10539,0.80872,0.83981
477.023,24.60156,-2.10724,0.80658,0.83924
477.723,24.62379,-2.10918,0.80336,0.83867
478.423,24.646,-2.1108,0.80204,0.8381
479.123,24.66819,-2.11109,0.79757,0.83753
479.823,24.69049,-2.11306,0.79854,0.83697
480.523,24.71275,-2.11482,0.79268,0.8364
481.223,24.73508,-2.11679,0.79132,0.83583
481.923,24.75734,-2.11841,0.78862,0.83526
482.623,24.7796,-2.12157,0.78363,0.83469
483.323,24.80193,-2.12488,0.7864,0.83412
484.023,24.8243,-2.12705,0.78227,0.83355
484.723,24.8466,-2.12758,0.77819,0.83297
485.423,24.86889,-2.12917,0.77627,0.8324
486.123,24.89118,-2.1293,0.77629,0.83183
486.823,24.91339,-2.1312,0.77427,0.83126
487.523,24.93573,-2.1328,0.76933,0.83069
488.223,24.95809,-2.1348,0.76768,0.83012
488.923,24.98057,-2.13738,0.76317,0.82955
489.623,25.00291,-2.1397,0.76557,0.82897
490.323,25.0252,-2.14173,0.76243,0.8284
491.023,25.04756,-2.14362,0.75757,0.82783
491.723,25.0699,-2.14536,0.75905,0.82726
492.423,25.0922,-2.14698,0.7548,0.82668
493.123,25.11456,-2.14863,0.7527,0.82611
493.823,25.137,-2.15004,0.75232,0.82554
494.523,25.1594,-2.1514,0.75019,0.82496
495.223,25.18178,-2.15444,0.74677,0.82439
495.923,25.20413,-2.15698,0.74794,0.82382
496.623,25.2265,-2.15861,0.74465,0.82324
497.323,25.24881,-2.15921,0.74013,0.82267
498.023,25.27117,-2.1604,0.73816,0.82209
498.723,25.29352,-2.16214,0.74015,0.82152
499.423,25.3159,-2.16402,0.73485,0.82095
500.123,25.33827,-2.16497,0.73622,0.82037
500.823,25.36065,-2.16675,0.73266,0.8198
501.523,25.38307,-2.16864,0.72999,0.81922
502.223,25.40549,-2.17046,0.72825,0.81864
502.923,25.42794,-2.17192,0.72544,0.81807
503.623,25.45032,-2.17291,0.72638,0.81749
504.323,25.47275,-2.17386,0.7235,0.81692
505.023,25.49513,-2.17532,0.7227,0.81634
505.723,25.51754,-2.17544,0.72327,0.81577
506.423,25.53988,-2.17683,0.71589,0.81519
507.123,25.5623,-2.179,0.71671,0.81461
507.823,25.58476,-2.18027,0.71464,0.81404
508.523,25.6072,-2.18117,0.7153,0.81346
509.223,25.62971,-2.1825,0.71277,0.81288
509.923,25.6521,-2.18398,0.70931,0.81231
510.623,25.6746,-2.18566,0.70966,0.81173
511.323,25.697,-2.18665,0.70695,0.81115
512.023,25.7195,-2.18874,0.70733,0.81057
512.723,25.742,-2.19004,0.70433,0.81
513.423,25.76438,-2.19151,0.70326,0.80942
514.123,25.78679,-2.19318,0.70003,0.80884
514.823,25.8093,-2.19496,0.70001,0.80826
515.523,25.8318,-2.19642,0.70376,0.80768
516.223,25.8542,-2.19788,0.69875,0.80711
516.923,25.87669,-2.19928,0.69612,0.80653
517.623,25.89912,-2.19997,0.69433,0.80595
518.323,25.92151,-2.20094,0.69103,0.80537
519.023,25.94399,-2.20245,0.69051,0.80479
519.723,25.96649,-2.20414,0.69051,0.80421
520.423,25.98905,-2.20575,0.68804,0.80363
521.123,26.01158,-2.20763,0.68796,0.80305
521.823,26.034,-2.20861,0.68369,0.80248
522.523,26.0565,-2.20925,0.68304,0.8019
523.223,26.07904,-2.21062,0.68007,0.80132
523.923,26.10158,-2.21062,0.67994,0.80074
524.623,26.1241,-2.21181,0.67791,0.80016
525.323,26.14668,-2.21236,0.67773,0.79958
526.023,26.1692,-2.21373,0.67617,0.799
526.723,26.19171,-2.21505,0.6755,0.79842
527.423,26.21425,-2.21663,0.67447,0.79784
528.123,26.23677,-2.21782,0.67262,0.79726
528.823,26.25934,-2.21816,0.66995,0.79668
529.523,26.28185,-2.21959,0.66821,0.7961
530.223,26.30435,-2.22056,0.66804,0.79551
530.923,26.3269,-2.22213,0.66883,0.79493
531.623,26.34948,-2.22313,0.67008,0.79435
532.323,26.37205,-2.22223,0.6706,0.79377
533.023,26.39465,-2.22232,0.66394,0.79319
533.723,26.41726,-2.22355,0.66724,0.79261
534.423,26.4399,-2.22465,0.66606,0.79203
535.123,26.4625,-2.22546,0.66347,0.79145
535.823,26.48503,-2.22649,0.66195,0.79087
536.523,26.50753,-2.22778,0.66083,0.79028
537.223,26.5301,-2.22925,0.66244,0.7897
537.923,26.5527,-2.23055,0.66364,0.78912
538.623,26.57528,-2.23059,0.66263,0.78854
539.323,26.5979,-2.23181,0.6632,0.78796
540.023,26.6206,-2.23333,0.66054,0.78738
540.723,26.6432,-2.23487,0.66282,0.78679
541.423,26.66586,-2.23541,0.66128,0.78621
542.123,26.68836,-2.23616,0.66201,0.78563
542.823,26.71092,-2.23611,0.66105,0.78505
543.523,26.73351,-2.23759,0.65938,0.78446
544.223,26.7562,-2.2376,0.66019,0.78388
544.923,26.77882,-2.2376,0.65981,0.7833
545.623,26.80139,-2.23759,0.66,0.78272
546.323,26.82406,-2.23902,0.65857,0.78213
547.023,26.8466,-2.23946,0.66181,0.78155
547.723,26.8692,-2.24045,0.66202,0.78097
548.423,26.89185,-2.24041,0.66,0.78039
549.123,26.91447,-2.24176,0.66021,0.7798
549.823,26.9372,-2.2419,0.65462,0.77922
550.523,26.95989,-2.24308,0.65986,0.77864
551.223,26.9826,-2.24365,0.65998,0.77805
551.923,27.00518,-2.24447,0.6586,0.77747
552.623,27.0278,-2.24603,0.66028,0.77689
553.323,27.05051,-2.24617,0.6625,0.77631
554.023,27.0732,-2.24736,0.66379,0.77572
554.723,27.09592,-2.24736,0.6617,0.77514
555.423,27.11859,-2.24996,0.66113,0.77455
556.123,27.14125,-2.25055,0.66358,0.77397
556.823,27.16395,-2.25162,0.66296,0.77339
557.523,27.18667,-2.25196,0.66459,0.7728
558.223,27.2094,-2.25294,0.66557,0.77222
558.923,27.232,-2.25295,0.66767,0.77164
559.623,27.25467,-2.25293,0.67071,0.77105
560.323,27.27722,-2.25442,0.67257,0.77047
561.023,27.3,-2.25503,0.67234,0.76989
561.723,27.3228,-2.25582,0.67345,0.7693
562.423,27.34569,-2.25705,0.67695,0.76872
563.123,27.36845,-2.25708,0.67429,0.76813
563.823,27.3911,-2.25846,0.67832,0.76755
564.523,27.4138,-2.25842,0.67809,0.76697
565.223,27.4365,-2.26005,0.67955,0.76638
565.923,27.4593,-2.26098,0.68287,0.7658
566.623,27.48198,-2.26147,0.68351,0.76521
567.323,27.50473,-2.26285,0.68709,0.76463
568.023,27.5275,-2.26287,0.68532,0.76405
568.723,27.55027,-2.26412,0.68637,0.76346
569.423,27.57305,-2.26412,0.69083,0.76288
570.123,27.59582,-2.26544,0.69034,0.76229
570.823,27.61856,-2.26545,0.69114,0.76171
571.523,27.64126,-2.26627,0.6942,0.76113
572.223,27.66403,-2.26679,0.69757,0.76054
572.923,27.6868,-2.2682,0.69998,0.75996
573.623,27.7097,-2.26885,0.70114,0.75937
574.323,27.7325,-2.26998,0.70295,0.75879
575.023,27.7552,-2.27123,0.70303,0.7582
575.723,27.77798,-2.27284,0.70564,0.75762
576.423,27.8007,-2.27319,0.70634,0.75704
577.123,27.8235,-2.27411,0.70752,0.75645
577.823,27.84621,-2.27441,0.70983,0.75587
578.523,27.8691,-2.2755,0.71369,0.75528
579.223,27.89195,-2.277,0.71538,0.7547
579.923,27.91475,-2.27697,0.71603,0.75411
580.623,27.9376,-2.27697,0.71638,0.75353
581.323,27.9604,-2.27697,0.71439,0.75295
582.023,27.9833,-2.27834,0.71746,0.75236
582.723,28.0062,-2.27829,0.7148,0.75178
583.423,28.0291,-2.27829,0.7164,0.75119
584.123,28.05183,-2.27824,0.72008,0.75061
584.823,28.07463,-2.2801,0.72163,0.75002
585.523,28.09742,-2.28179,0.72191,0.74944
586.223,28.12003,-2.28367,0.7244,0.74886
586.923,28.14262,-2.28612,0.72145,0.74827
587.623,28.1655,-2.28776,0.72405,0.74769
588.323,28.1886,-2.28886,0.72054,0.7471
589.023,28.21175,-2.28948,0.72204,0.74652
589.723,28.2347,-2.29083,0.71946,0.74593
590.423,28.25752,-2.29079,0.72121,0.74535
591.123,28.2804,-2.29116,0.71822,0.74476
591.823,28.30323,-2.2921,0.71774,0.74418
592.523,28.3261,-2.2921,0.7178,0.7436
593.223,28.3489,-2.29216,0.71786,0.74301
593.923,28.37177,-2.29343,0.71366,0.74243
594.623,28.39467,-2.29345,0.7205,0.74184
595.323,28.4176,-2.29487,0.71767,0.74126
596.023,28.4405,-2.29485,0.71726,0.74068
596.723,28.4634,-2.29485,0.71577,0.74009
597.423,28.4862,-2.29485,0.71444,0.73951
598.123,28.5091,-2.29502,0.71936,0.73892
598.823,28.53197,-2.29617,0.71784,0.73834
599.523,28.5549,-2.29487,0.72028,0.73776
600.223,28.5778,-2.29631,0.71962,0.73717
600.923,28.6007,-2.29733,0.71855,0.73659
601.623,28.62358,-2.29798,0.7196,0.736
602.323,28.64657,-2.29924,0.71762,0.73542
603.023,28.66955,-2.30072,0.72032,0.73484
603.723,28.6925,-2.3024,0.71911,0.73425
604.423,28.7154,-2.30317,0.71545,0.73367
605.123,28.73835,-2.30444,0.71542,0.73308
605.823,28.7613,-2.30602,0.71319,0.7325
606.523,28.7842,-2.30746,0.7151,0.73192
607.223,28.8072,-2.3085,0.71066,0.73133
607.923,28.8301,-2.3092,0.70814,0.73075
608.623,28.8531,-2.31054,0.70704,0.73017
609.323,28.87603,-2.31202,0.7086,0.72958
610.023,28.899,-2.31248,0.70714,0.729
610.723,28.922,-2.31347,0.71038,0.72842
611.423,28.94492,-2.31485,0.70921,0.72783
612.123,28.9679,-2.31482,0.70879,0.72725
612.823,28.9908,-2.31408,0.70886,0.72667
613.523,29.0138,-2.3135,0.70556,0.72608
614.223,29.03675,-2.31351,0.70694,0.7255
614.923,29.05978,-2.31481,0.70455,0.72492
615.623,29.0828,-2.31482,0.70732,0.72433
616.323,29.10582,-2.31535,0.70879,0.72375
617.023,29.1288,-2.3164,0.70514,0.72317
617.723,29.1518,-2.31791,0.70964,0.72258
618.423,29.1748,-2.31946,0.7039,0.722
619.123,29.1979,-2.32071,0.70702,0.72142
619.823,29.2209,-2.32204,0.70546,0.72084
620.523,29.2439,-2.32219,0.70463,0.72025
621.223,29.26683,-2.32337,0.70549,0.71967
621.923,29.2898,-2.32346,0.70612,0.71909
622.623,29.3128,-2.3249,0.70881,0.7185
623.323,29.3358,-2.32611,0.70823,0.71792
624.023,29.3588,-2.32564,0.70796,0.71734
624.723,29.3818,-2.32697,0.70756,0.71676
625.423,29.4049,-2.32742,0.7054,0.71618
626.123,29.4279,-2.3284,0.7064,0.71559
626.823,29.45092,-2.32977,0.71059,0.71501
627.523,29.4739,-2.32974,0.70841,0.71443
628.223,29.497,-2.3312,0.70999,0.71385
628.923,29.5201,-2.3327,0.71258,0.71327
629.623,29.5431,-2.3327,0.71236,0.71268
630.323,29.56612,-2.33421,0.71271,0.7121
631.023,29.5892,-2.3355,0.71052,0.71152
631.723,29.6123,-2.33699,0.70769,0.71094
632.423,29.63535,-2.33845,0.71456,0.71036
633.123,29.65833,-2.3386,0.71544,0.70978
633.823,29.68133,-2.33983,0.71629,0.70919
634.523,29.70437,-2.33931,0.71855,0.70861
635.223,29.72748,-2.34006,0.72043,0.70803
635.923,29.75057,-2.3415,0.71997,0.70745
636.623,29.77362,-2.34147,0.72178,0.70687
637.323,29.79666,-2.34268,0.72225,0.70629
638.023,29.81972,-2.34279,0.72764,0.70571
638.723,29.8428,-2.34279,0.72496,0.70513
639.423,29.8659,-2.34371,0.72798,0.70455
640.123,29.88898,-2.34337,0.73381,0.70397
640.823,29.91208,-2.34344,0.73177,0.70339
641.523,29.9351,-2.34344,0.73509,0.70281
642.223,29.95818,-2.34364,0.73667,0.70223
642.923,29.9812,-2.34487,0.73973,0.70164
643.623,30.0043,-2.34602,0.74592,0.70106
644.323,30.0274,-2.34619,0.74833,0.70048
645.023,30.05051,-2.34742,0.75504,0.6999
645.723,30.07365,-2.3475,0.76044,0.69933
646.423,30.0968,-2.3475,0.75865,0.69875
647.123,30.11993,-2.3475,0.77068,0.69817
647.823,30.143,-2.34813,0.77094,0.69759
648.523,30.1661,-2.34882,0.77641,0.69701
649.223,30.1892,-2.34978,0.78056,0.69643
649.923,30.2123,-2.35012,0.79302,0.69585
650.623,30.23542,-2.35147,0.79648,0.69527
651.323,30.25853,-2.35192,0.80163,0.69469
652.023,30.28163,-2.35292,0.81118,0.69411
652.723,30.3047,-2.35443,0.82018,0.69353
653.423,30.3278,-2.3555,0.8228,0.69295
654.123,30.3509,-2.3558,0.83434,0.69238
654.823,30.374,-2.35736,0.84254,0.6918
655.523,30.3971,-2.3586,0.85428,0.69122
656.223,30.42023,-2.35891,0.85925,0.69064
656.923,30.44345,-2.36028,0.8724,0.69006
657.623,30.4666,-2.36054,0.8794,0.68948
658.323,30.4897,-2.36182,0.88718,0.68891
659.023,30.5128,-2.36332,0.89953,0.68833
659.723,30.53593,-2.36261,0.9103,0.68775
660.423,30.5591,-2.36396,0.91834,0.68717
661.123,30.5822,-2.36395,0.92894,0.6866
661.823,30.60538,-2.36418,0.93958,0.68602
662.523,30.62847,-2.36526,0.95464,0.68544
663.223,30.6516,-2.36569,0.96532,0.68486
663.923,30.67472,-2.36678,0.97542,0.68429
664.623,30.69783,-2.36827,0.98447,0.68371
665.323,30.7209,-2.36914,1.00029,0.68313
666.023,30.74408,-2.37026,1.01307,0.68256
666.723,30.76724,-2.37203,1.02212,0.68198
667.423,30.7904,-2.37383,1.03579,0.6814
668.123,30.81356,-2.37525,1.05283,0.68083
668.823,30.83677,-2.37647,1.06152,0.68025
669.523,30.85991,-2.37657,1.07574,0.67967
670.223,30.8831,-2.37653,1.09098,0.6791
670.923,30.9062,-2.3781,1.10385,0.67852
671.623,30.92942,-2.37985,1.12086,0.67795
672.323,30.9527,-2.38162,1.13436,0.67737
673.023,30.97578,-2.38314,1.14959,0.6768
673.723,30.99898,-2.38471,1.16594,0.67622
674.423,31.0221,-2.38653,1.17729,0.67565
675.123,31.0453,-2.38747,1.19589,0.67507
675.823,31.0685,-2.3882,1.21243,0.6745
676.523,31.0916,-2.38857,1.22761,0.67392
677.223,31.1148,-2.39009,1.24382,0.67335
677.923,31.13788,-2.39022,1.26576,0.67277
678.623,31.1612,-2.3916,1.28013,0.6722
679.323,31.18432,-2.39371,1.29794,0.67162
680.023,31.2076,-2.39632,1.31202,0.67105
680.723,31.2307,-2.39896,1.3316,0.67048
681.423,31.25392,-2.40143,1.34869,0.6699
682.123,31.2771,-2.40349,1.37148,0.66933
682.823,31.30027,-2.40564,1.38695,0.66876
683.523,31.3235,-2.40837,1.40617,0.66818
684.223,31.3467,-2.4109,1.42666,0.66761
684.923,31.3699,-2.4133,1.44611,0.66704
685.623,31.3931,-2.41525,1.4641,0.66646
686.323,31.4163,-2.41613,1.48276,0.66589
687.023,31.43954,-2.4177,1.50545,0.66532
687.723,31.46268,-2.41955,1.52554,0.66474
688.423,31.4858,-2.42119,1.54385,0.66417
689.123,31.50902,-2.42299,1.56594,0.6636
689.823,31.5322,-2.42469,1.58594,0.66303
690.523,31.55548,-2.4266,1.61112,0.66246
691.223,31.5786,-2.42797,1.6312,0.66188
691.923,31.6017,-2.4289,1.65404,0.66131
692.623,31.62492,-2.43069,1.67197,0.66074
693.323,31.64818,-2.43291,1.69795,0.66017
694.023,31.6715,-2.4346,1.71751,0.6596
694.723,31.6947,-2.4365,1.74045,0.65903
695.423,31.718,-2.43877,1.76155,0.65846
696.123,31.74125,-2.44142,1.78272,0.65789
696.823,31.7645,-2.44391,1.80929,0.65732
697.523,31.7877,-2.44623,1.83217,0.65675
698.223,31.81089,-2.44839,1.8538,0.65618
698.923,31.8342,-2.45031,1.87687,0.65561
699.623,31.8574,-2.45312,1.90122,0.65504
700.323,31.8807,-2.45709,1.92246,0.65447
701.023,31.90395,-2.4609,1.94699,0.6539
701.723,31.92725,-2.464,1.97265,0.65333
702.423,31.95056,-2.46708,1.99672,0.65276
703.123,31.9737,-2.46926,2.02246,0.65219
703.823,31.997,-2.47118,2.04152,0.65162
704.523,32.02022,-2.4731,2.06449,0.65105
705.223,32.0435,-2.47507,2.08868,0.65048
705.923,32.06675,-2.47737,2.11193,0.64991
706.623,32.09001,-2.48094,2.13815,0.64935
707.323,32.11331,-2.48406,2.1633,0.64878
708.023,32.1366,-2.48753,2.1886,0.64821
708.723,32.1599,-2.49117,2.21452,0.64764
709.423,32.18318,-2.49242,2.23691,0.64707
710.123,32.20647,-2.49522,2.26336,0.64651
710.823,32.22975,-2.49816,2.28814,0.64594
711.523,32.25298,-2.50099,2.30949,0.64537
712.223,32.27618,-2.50578,2.33466,0.64481
712.923,32.2995,-2.5088,2.35575,0.64424
713.623,32.32284,-2.51236,2.38002,0.64367
714.323,32.34617,-2.51549,2.40283,0.64311
715.023,32.36943,-2.5187,2.4292,0.64254
715.723,32.3927,-2.52236,2.45085,0.64197
716.423,32.41602,-2.5243,2.4708,0.64141
717.123,32.4394,-2.52906,2.48932,0.64084
717.823,32.46278,-2.53438,2.51486,0.64028
718.523,32.4861,-2.53854,2.53824,0.63971
719.223,32.50946,-2.54354,2.55999,0.63915
719.923,32.53275,-2.54731,2.57971,0.63858
720.623,32.55612,-2.55073,2.59874,0.63802
721.323,32.57948,-2.55346,2.6197,0.63745
722.023,32.60287,-2.55557,2.63523,0.63689
722.723,32.62625,-2.55976,2.65115,0.63632
723.423,32.64958,-2.56349,2.66755,0.63576
724.123,32.67289,-2.56639,2.68558,0.63519
724.823,32.69613,-2.56886,2.70117,0.63463
725.523,32.71942,-2.57216,2.71741,0.63407
726.223,32.74275,-2.57407,2.72716,0.6335
726.923,32.7661,-2.57804,2.73943,0.63294
727.623,32.78938,-2.58239,2.74977,0.63238
728.323,32.81275,-2.58635,2.75749,0.63181
729.023,32.83615,-2.59085,2.76975,0.63125
729.723,32.85955,-2.59436,2.77189,0.63069
730.423,32.883,-2.59818,2.77266,0.63013
731.123,32.9063,-2.60183,2.77361,0.62957
731.823,32.92968,-2.60538,2.77434,0.629
732.523,32.95296,-2.60981,2.77203,0.62844
733.223,32.97635,-2.61246,2.76127,0.62788
733.923,32.99954,-2.61604,2.75876,0.62732
734.623,33.0229,-2.61937,2.74298,0.62676
735.323,33.04623,-2.62248,2.73124,0.6262
736.023,33.06967,-2.6274,2.71363,0.62564
736.723,33.09299,-2.63122,2.70237,0.62508
737.423,33.11638,-2.63607,2.68088,0.62452
738.123,33.1397,-2.6401,2.66237,0.62395
738.823,33.16312,-2.64326,2.63787,0.62339
739.523,33.1865,-2.64867,2.61018,0.62283
740.223,33.2099,-2.65219,2.58362,0.62228
740.923,33.23325,-2.65646,2.55715,0.62172
741.623,33.25659,-2.66009,2.52561,0.62116
742.323,33.27993,-2.66295,2.48627,0.6206
743.023,33.30327,-2.66613,2.44969,0.62004
743.723,33.32662,-2.66866,2.41045,0.61948
744.423,33.3498,-2.67113,2.3677,0.61892
745.123,33.3731,-2.67442,2.32707,0.61836
745.823,33.39653,-2.67891,2.2846,0.61781
746.523,33.4202,-2.68217,2.23744,0.61725
747.223,33.44357,-2.68549,2.20077,0.61669
747.923,33.467,-2.68832,2.15565,0.61613
748.623,33.4903,-2.69085,2.11788,0.61558
749.323,33.51375,-2.69375,2.07746,0.61502
750.023,33.5371,-2.69643,2.03574,0.61446
750.723,33.5605,-2.69885,1.99846,0.6139
751.423,33.58379,-2.70118,1.96395,0.61335
752.123,33.60707,-2.70311,1.9262,0.61279
752.823,33.63042,-2.70495,1.89366,0.61224
753.523,33.65385,-2.70663,1.86137,0.61168
754.223,33.67726,-2.70832,1.82695,0.61112
754.923,33.70064,-2.70991,1.79253,0.61057
755.623,33.72397,-2.7117,1.75979,0.61001
756.323,33.74738,-2.71363,1.73514,0.60946
757.023,33.77069,-2.71538,1.70673,0.6089
757.723,33.7941,-2.71701,1.67894,0.60835
758.423,33.8175,-2.71949,1.64908,0.60779
759.123,33.841,-2.722,1.6252,0.60724
759.823,33.86444,-2.72435,1.59698,0.60669
760.523,33.8878,-2.72652,1.56742,0.60613
761.223,33.91124,-2.7283,1.54399,0.60558
761.923,33.9347,-2.7302,1.51721,0.60503
762.623,33.95815,-2.73192,1.49482,0.60447
763.323,33.9816,-2.73383,1.46958,0.60392
764.023,34.00497,-2.73554,1.44543,0.60337
764.723,34.02843,-2.73743,1.42433,0.60281
765.423,34.0519,-2.73959,1.39637,0.60226
766.123,34.07542,-2.74164,1.38077,0.60171
766.823,34.09876,-2.74328,1.35632,0.60116
767.523,34.1222,-2.7436,1.33287,0.60061
768.223,34.1456,-2.74547,1.30808,0.60005
768.923,34.16915,-2.74737,1.28424,0.5995
769.623,34.19262,-2.74885,1.26482,0.59895
770.323,34.21607,-2.75045,1.24232,0.5984
771.023,34.2395,-2.75216,1.22091,0.59785
771.723,34.26296,-2.75398,1.19845,0.5973
772.423,34.28632,-2.7557,1.17687,0.59675
773.123,34.3098,-2.75731,1.15827,0.5962
773.823,34.3333,-2.75848,1.13746,0.59565
774.523,34.3568,-2.75964,1.11682,0.5951
775.223,34.3802,-2.76102,1.09352,0.59455
775.923,34.4036,-2.76169,1.07087,0.594
776.623,34.42707,-2.76244,1.05159,0.59345
777.323,34.4505,-2.76309,1.03386,0.5929
778.023,34.47391,-2.7652,1.01074,0.59236
778.723,34.49732,-2.76653,0.99064,0.59181
779.423,34.52073,-2.76768,0.97367,0.59126
780.123,34.54424,-2.76891,0.95447,0.59071
780.823,34.56775,-2.77061,0.934,0.59016
781.523,34.59126,-2.77151,0.919,0.58962
782.223,34.61473,-2.77256,0.90211,0.58907
782.923,34.63825,-2.77129,0.88054,0.58852
783.623,34.66175,-2.77263,0.86528,0.58798
784.323,34.68527,-2.77406,0.84241,0.58743
785.023,34.70875,-2.77431,0.82772,0.58688
785.723,34.7323,-2.7757,0.80894,0.58634
786.423,34.75575,-2.77717,0.79728,0.58579
787.123,34.77928,-2.77714,0.77678,0.58525
787.823,34.8028,-2.77747,0.765,0.5847
788.523,34.8264,-2.77898,0.74712,0.58415
789.223,34.84989,-2.77973,0.73429,0.58361
789.923,34.87335,-2.78032,0.71754,0.58306
790.623,34.89678,-2.78165,0.70548,0.58252
791.323,34.9203,-2.78164,0.691,0.58198
792.023,34.94378,-2.78296,0.67605,0.58143
792.723,34.96702,-2.78366,0.66444,0.58089
793.423,34.99046,-2.78437,0.6513,0.58034
794.123,35.0139,-2.78543,0.63647,0.5798
794.823,35.0377,-2.78579,0.62445,0.57926
795.523,35.0612,-2.78647,0.61194,0.57872
796.223,35.08475,-2.78735,0.60329,0.57817
796.923,35.10832,-2.78883,0.58784,0.57763
797.623,35.1319,-2.78898,0.57766,0.57709
798.323,35.1554,-2.79031,0.56565,0.57655
799.023,35.1789,-2.79175,0.55346,0.576
799.723,35.20239,-2.79184,0.54188,0.57546
800.423,35.22589,-2.7924,0.5297,0.57492
801.123,35.24944,-2.79318,0.5249,0.57438
801.823,35.27303,-2.79446,0.51169,0.57384
802.523,35.29657,-2.79458,0.50445,0.5733
803.223,35.32009,-2.79656,0.49505,0.57276
803.923,35.3436,-2.79685,0.48478,0.57222
804.623,35.3671,-2.79788,0.47778,0.57168
805.323,35.39067,-2.79788,0.47092,0.57114
806.023,35.4142,-2.79788,0.46151,0.5706
806.723,35.4377,-2.79788,0.45357,0.57006
807.423,35.46128,-2.79787,0.44212,0.56952
808.123,35.4849,-2.79956,0.43571,0.56898
808.823,35.5085,-2.8017,0.42445,0.56844
809.523,35.5321,-2.80232,0.42102,0.5679
810.223,35.55556,-2.80293,0.41396,0.56737
810.923,35.57909,-2.80345,0.41012,0.56683
811.623,35.60267,-2.8061,0.40041,0.56629
812.323,35.62628,-2.80838,0.39296,0.56575
813.023,35.64983,-2.80939,0.38353,0.56522
813.723,35.6734,-2.80928,0.37891,0.56468
814.423,35.6969,-2.80787,0.36987,0.56414
815.123,35.72044,-2.80752,0.36486,0.56361
815.823,35.744,-2.80743,0.35573,0.56307
816.523,35.76747,-2.80752,0.35149,0.56253
817.223,35.7911,-2.80752,0.34292,0.562
817.923,35.81462,-2.80752,0.33663,0.56146
818.623,35.83815,-2.80752,0.32986,0.56093
819.323,35.8616,-2.80762,0.32758,0.56039
820.023,35.88524,-2.80883,0.31905,0.55986
820.723,35.90882,-2.80883,0.31116,0.55932
821.423,35.93242,-2.81013,0.3085,0.55879
822.123,35.95597,-2.80917,0.30159,0.55826
822.823,35.97956,-2.80884,0.29646,0.55772
823.523,36.00318,-2.80936,0.28955,0.55719
824.223,36.02678,-2.8095,0.28053,0.55665
824.923,36.05036,-2.81015,0.28048,0.55612
825.623,36.0739,-2.81016,0.27227,0.55559
826.323,36.0974,-2.8114,0.26829,0.55506
827.023,36.12092,-2.8115,0.26278,0.55452
827.723,36.14458,-2.81303,0.25781,0.55399
828.423,36.16817,-2.81426,0.25405,0.55346
829.123,36.19173,-2.81453,0.24695,0.55293
829.823,36.21523,-2.81588,0.24393,0.5524
830.523,36.23873,-2.81635,0.23516,0.55186
831.223,36.26233,-2.81729,0.22958,0.55133
831.923,36.28597,-2.81786,0.22788,0.5508
832.623,36.30961,-2.81861,0.22255,0.55027
833.323,36.33321,-2.81861,0.21736,0.54974
834.023,36.35667,-2.81861,0.20962,0.54921
834.723,36.38021,-2.81861,0.20415,0.54868
835.423,36.40374,-2.8186,0.20503,0.54815
836.123,36.4274,-2.81726,0.20291,0.54762
836.823,36.45109,-2.81729,0.19228,0.54709
837.523,36.4748,-2.81729,0.18842,0.54657
838.223,36.49837,-2.81729,0.18532,0.54604
838.923,36.52193,-2.81734,0.18287,0.54551
839.623,36.54547,-2.81884,0.17609,0.54498
840.323,36.56901,-2.82031,0.16823,0.54445
841.023,36.59263,-2.82082,0.16856,0.54393
841.723,36.61625,-2.82152,0.16575,0.5434
842.423,36.6399,-2.82299,0.15783,0.54287
843.123,36.66345,-2.82418,0.15468,0.54234