File: 01_Data/Wool_Rug/STA/N2/30K_min/Wool_Rug_STA_N2_30KData_220118_R1.csv
##Temp./Â°C,Time/min,Mass loss(subtr.2)/mg,DSC(subtr.2)/(mW/mg),Sensit./(uV/mW)
48.581,10.00583,-0.0316,0.00140894,1.06963
49.281,10.55127,-0.03409488,0.03975547,1.06957
49.981,10.67678,-0.03260785,0.06929589,1.0695
50.681,10.76673,-0.03369588,0.10143,1.06944
51.381,10.84025,-0.03219291,0.1282,1.06937
52.081,10.90291,-0.0331705,0.15199,1.06931
52.781,10.95941,-0.03254978,0.1758,1.06924
53.481,11.01143,-0.03147599,0.1967,1.06917
54.181,11.0588,-0.03258237,0.21734,1.0691
54.881,11.10343,-0.03308521,0.23677,1.06903
55.581,11.14607,-0.03467184,0.2563,1.06895
56.281,11.18672,-0.03363247,0.2732,1.06888
56.981,11.22586,-0.03368151,0.28836,1.0688
57.681,11.26362,-0.03342914,0.30565,1.06872
58.381,11.29983,-0.03386983,0.31849,1.06864
59.081,11.33502,-0.03409407,0.33415,1.06856
59.781,11.36923,-0.03448977,0.34917,1.06848
60.481,11.40243,-0.03421919,0.36165,1.0684
61.181,11.43527,-0.03409403,0.37474,1.06831
61.881,11.46734,-0.03430858,0.38874,1.06823
62.581,11.4986,-0.03332559,0.39982,1.06814
63.281,11.52939,-0.03377693,0.41176,1.06805
63.981,11.55976,-0.03330091,0.42232,1.06796
64.681,11.5898,-0.03425138,0.4322,1.06787
65.381,11.61937,-0.03342092,0.4454,1.06778
66.081,11.64841,-0.0326646,0.45255,1.06768
66.781,11.6773,-0.03441862,0.46321,1.06759
67.481,11.7057,-0.03467114,0.47381,1.06749
68.181,11.73398,-0.03563889,0.48496,1.06739
68.881,11.76191,-0.03611186,0.49323,1.06729
69.581,11.78965,-0.03513943,0.50384,1.06719
70.281,11.8172,-0.03528993,0.51145,1.06709
70.981,11.84437,-0.03630659,0.51818,1.06699
71.681,11.87142,-0.03616221,0.52774,1.06688
72.381,11.89822,-0.03595947,0.53753,1.06678
73.081,11.92507,-0.03587946,0.54482,1.06667
73.781,11.95146,-0.03567194,0.55244,1.06656
74.481,11.9777,-0.03562444,0.56055,1.06645
75.181,12.00398,-0.03628357,0.56975,1.06634
75.881,12.03026,-0.03646549,0.57517,1.06623
76.581,12.0563,-0.0357347,0.58181,1.06611
77.281,12.0822,-0.03607255,0.59017,1.066
77.981,12.1079,-0.03734293,0.59555,1.06588
78.681,12.1335,-0.03683648,0.60271,1.06576
79.381,12.15902,-0.03676142,0.61122,1.06564
80.081,12.18442,-0.03763393,0.61762,1.06552
80.781,12.20978,-0.0374821,0.62451,1.0654
81.481,12.23503,-0.03627803,0.63219,1.06528
82.181,12.26028,-0.0368834,0.63962,1.06515
82.881,12.28536,-0.0378426,0.64432,1.06503
83.581,12.31029,-0.03874301,0.65351,1.0649
84.281,12.3352,-0.0393929,0.65973,1.06477
84.981,12.36003,-0.03883184,0.66551,1.06464
85.681,12.38443,-0.03829019,0.67272,1.06451
86.381,12.40896,-0.03965005,0.68028,1.06438
87.081,12.4336,-0.03960012,0.68883,1.06424
87.781,12.45863,-0.03960494,0.6937,1.06411
88.481,12.48322,-0.041201,0.69919,1.06397
89.181,12.50762,-0.04075801,0.70521,1.06383
89.881,12.53196,-0.04113867,0.71234,1.06369
90.581,12.55625,-0.04111727,0.72005,1.06355
91.281,12.58041,-0.04137719,0.72471,1.06341
91.981,12.6046,-0.04113954,0.73273,1.06327
92.681,12.6289,-0.04262279,0.738,1.06312
93.381,12.6531,-0.04259068,0.74441,1.06298
94.081,12.67714,-0.04386155,0.75164,1.06283
94.781,12.70116,-0.04387061,0.75804,1.06268
95.481,12.72514,-0.04377859,0.76194,1.06253
96.181,12.74917,-0.04377022,0.76906,1.06238
96.881,12.77317,-0.04377007,0.77469,1.06223
97.581,12.797,-0.04375123,0.78191,1.06208
98.281,12.82082,-0.04510812,0.78614,1.06192
98.981,12.84458,-0.04481836,0.79277,1.06177
99.681,12.8684,-0.04507127,0.79619,1.06161
100.381,12.8922,-0.04507536,0.80109,1.06145
101.081,12.91601,-0.04641713,0.80642,1.06129
101.781,12.93982,-0.04639667,0.81058,1.06113
102.481,12.96359,-0.0476594,0.81627,1.06097
103.181,12.98729,-0.04771958,0.82042,1.0608
103.881,13.01095,-0.04773187,0.82326,1.06064
104.581,13.03474,-0.04908218,0.82756,1.06047
105.281,13.05852,-0.04902916,0.8324,1.06031
105.981,13.0822,-0.04965841,0.83516,1.06014
106.681,13.1057,-0.05034988,0.83956,1.05997
107.381,13.12928,-0.05034643,0.83951,1.05979
108.081,13.1529,-0.05106239,0.84194,1.05962
108.781,13.1766,-0.05167264,0.84479,1.05945
109.481,13.20018,-0.05165539,0.84534,1.05927
110.181,13.2237,-0.05284109,0.84976,1.0591
110.881,13.24721,-0.05166438,0.849,1.05892
111.581,13.2707,-0.05165995,0.85051,1.05874
112.281,13.2942,-0.05165999,0.85117,1.05856
112.981,13.31771,-0.05166085,0.8517,1.05838
113.681,13.3412,-0.05179763,0.85254,1.0582
114.381,13.36466,-0.05297525,0.85153,1.05801
115.081,13.38809,-0.05298338,0.85395,1.05783
115.781,13.4115,-0.05388226,0.85367,1.05764
116.481,13.43503,-0.05430137,0.8528,1.05745
117.181,13.4585,-0.05429999,0.85284,1.05727
117.881,13.4819,-0.054297,0.85449,1.05708
118.581,13.50525,-0.05488698,0.85114,1.05688
119.281,13.52852,-0.05562373,0.85086,1.05669
119.981,13.5518,-0.05561999,0.85192,1.0565
120.681,13.575,-0.0556196,0.84985,1.0563
121.381,13.5983,-0.05563678,0.84651,1.05611
122.081,13.6216,-0.05834328,0.8476,1.05591
122.781,13.6448,-0.05823939,0.84525,1.05571
123.481,13.66801,-0.05823756,0.84466,1.05551
124.181,13.69111,-0.05872677,0.84206,1.05531
124.881,13.71427,-0.05956346,0.8407,1.05511
125.581,13.73734,-0.05955996,0.83774,1.0549
126.281,13.76046,-0.05956,0.83615,1.0547
126.981,13.7835,-0.05956,0.83586,1.05449
127.681,13.8065,-0.05956,0.8328,1.05428
128.381,13.8295,-0.05956003,0.83273,1.05408
129.081,13.85242,-0.05955991,0.82973,1.05387
129.781,13.87509,-0.06014172,0.82726,1.05366
130.481,13.8977,-0.06087791,0.82701,1.05344
131.181,13.92061,-0.0608804,0.8246,1.05323
131.881,13.94372,-0.06083015,0.82156,1.05302
132.581,13.96685,-0.0621804,0.82084,1.0528
133.281,13.98969,-0.06219023,0.81884,1.05258
133.981,14.01251,-0.06219,0.81842,1.05236
134.681,14.03524,-0.06219,0.81702,1.05215
135.381,14.05783,-0.06219,0.81457,1.05192
136.081,14.08048,-0.06219,0.81458,1.0517
136.781,14.10317,-0.06219,0.81182,1.05148
137.481,14.12587,-0.06219,0.80727,1.05126
138.181,14.1485,-0.06219,0.80773,1.05103
138.881,14.171,-0.06218999,0.80626,1.0508
139.581,14.1936,-0.06218956,0.80446,1.05058
140.281,14.21621,-0.06231695,0.80281,1.05035
140.981,14.23879,-0.06351187,0.80249,1.05012
141.681,14.26133,-0.0635101,0.80281,1.04988
142.381,14.2838,-0.06351,0.80019,1.04965
143.081,14.3062,-0.06351,0.79724,1.04942
143.781,14.32875,-0.06351,0.7964,1.04918
144.481,14.3512,-0.06351,0.79659,1.04895
145.181,14.37364,-0.06351,0.79677,1.04871
145.881,14.3959,-0.06351003,0.79525,1.04847
146.581,14.41815,-0.06350906,0.7956,1.04823
147.281,14.4404,-0.06395456,0.79557,1.04799
147.981,14.46284,-0.06481542,0.79512,1.04775
148.681,14.48515,-0.06482002,0.79326,1.04751
149.381,14.5074,-0.06482,0.79571,1.04726
150.081,14.52963,-0.06482,0.79361,1.04702
150.781,14.55192,-0.06482,0.79322,1.04677
151.481,14.5742,-0.06482,0.79544,1.04652
152.181,14.5961,-0.06482,0.796,1.04627
152.881,14.61824,-0.06482,0.79505,1.04602
153.581,14.6404,-0.06482,0.79828,1.04577
154.281,14.66281,-0.06482,0.79836,1.04552
154.981,14.6852,-0.06482,0.79806,1.04527
155.681,14.7074,-0.06482,0.79823,1.04501
156.381,14.72967,-0.06482,0.80034,1.04476
157.081,14.75186,-0.06482,0.80155,1.0445
157.781,14.77406,-0.06482017,0.80177,1.04424
158.481,14.79618,-0.06480145,0.80414,1.04398
159.181,14.81828,-0.06612143,0.80596,1.04372
159.881,14.84029,-0.06613974,0.80585,1.04346
160.581,14.86231,-0.06614001,0.80659,1.0432
161.281,14.88434,-0.06614,0.80611,1.04293
161.981,14.9064,-0.06614,0.80916,1.04267
162.681,14.92849,-0.06614001,0.81038,1.0424
163.381,14.9505,-0.06613991,0.81041,1.04213
164.081,14.97245,-0.06614024,0.81347,1.04186
164.781,14.99448,-0.06544367,0.81412,1.0416
165.481,15.01653,-0.06516854,0.81827,1.04132
166.181,15.03854,-0.06515995,0.81859,1.04105
166.881,15.0606,-0.06515841,0.82054,1.04078
167.581,15.08257,-0.06543223,0.8232,1.04051
168.281,15.10454,-0.06647473,0.82376,1.04023
168.981,15.12645,-0.06647996,0.8248,1.03995
169.681,15.14831,-0.06648334,0.82847,1.03968
170.381,15.17019,-0.06727642,0.8281,1.0394
171.081,15.1922,-0.06746037,0.82972,1.03912
171.781,15.2141,-0.06746002,0.83137,1.03884
172.481,15.2361,-0.06746,0.8333,1.03856
173.181,15.25796,-0.06746,0.83574,1.03827
173.881,15.2798,-0.06746,0.83578,1.03799
174.581,15.30168,-0.06746,0.83978,1.0377
175.281,15.32351,-0.06745991,0.84301,1.03742
175.981,15.3453,-0.06746196,0.84312,1.03713
176.681,15.36708,-0.06848729,0.84719,1.03684
177.381,15.3888,-0.06843886,0.84809,1.03655
178.081,15.41065,-0.06844001,0.8506,1.03626
178.781,15.43245,-0.06844,0.85063,1.03597
179.481,15.4542,-0.06844,0.8541,1.03568
180.181,15.47575,-0.06844,0.85612,1.03538
180.881,15.4974,-0.06844,0.85806,1.03509
181.581,15.5192,-0.06844,0.86035,1.03479
182.281,15.54091,-0.06843966,0.85961,1.0345
182.981,15.5626,-0.06847217,0.86257,1.0342
183.681,15.5841,-0.06812466,0.8645,1.0339
184.381,15.6058,-0.06812,0.86756,1.0336
185.081,15.6274,-0.06812,0.86952,1.0333
185.781,15.649,-0.06812,0.87241,1.03299
186.481,15.67058,-0.06812,0.8723,1.03269
187.181,15.6922,-0.06812002,0.8748,1.03239
187.881,15.7138,-0.06812351,0.87774,1.03208
188.581,15.7353,-0.06848564,0.88057,1.03177
189.281,15.7568,-0.06845441,0.88219,1.03146
189.981,15.7784,-0.06937203,0.88457,1.03116
190.681,15.79985,-0.07008604,0.88571,1.03085
191.381,15.82148,-0.07009016,0.89006,1.03053
192.081,15.84296,-0.07009,0.8919,1.03022
192.781,15.86444,-0.07009007,0.89384,1.02991
193.481,15.88591,-0.07009029,0.89657,1.0296
194.181,15.90744,-0.07088116,0.9003,1.02928
194.881,15.92891,-0.07108115,0.90106,1.02896
195.581,15.9503,-0.07107998,0.90319,1.02865
196.281,15.9717,-0.07108,0.90579,1.02833
196.981,15.9932,-0.07107993,0.90871,1.02801
197.681,16.01461,-0.07109203,0.9118,1.02769
198.381,16.03614,-0.0698538,0.91246,1.02737
199.081,16.05759,-0.06975941,0.91559,1.02704
199.781,16.07893,-0.06975926,0.92111,1.02672
200.481,16.10029,-0.07056063,0.92055,1.0264
201.181,16.1218,-0.07109434,0.92449,1.02607
201.881,16.14321,-0.07220879,0.92744,1.02574
202.581,16.16481,-0.07240109,0.93097,1.02542
203.281,16.18617,-0.07240001,0.93338,1.02509
203.981,16.2075,-0.07240002,0.93681,1.02476
204.681,16.2289,-0.07239878,0.94009,1.02443
205.381,16.2503,-0.07257094,0.94445,1.0241
206.081,16.2717,-0.07371373,0.94611,1.02376
206.781,16.29308,-0.07371004,0.94953,1.02343
207.481,16.31445,-0.07371,0.95292,1.02309
208.181,16.33579,-0.07371,0.9581,1.02276
208.881,16.35717,-0.07370998,0.96397,1.02242
209.581,16.37855,-0.07371047,0.96675,1.02208
210.281,16.3999,-0.07374992,0.9702,1.02175
210.981,16.42128,-0.07501645,0.97589,1.02141
211.681,16.44275,-0.07503026,0.98153,1.02106
212.381,16.4642,-0.07502878,0.9874,1.02072
213.081,16.4855,-0.07533436,0.98941,1.02038
213.781,16.50689,-0.07634651,1.00024,1.02004
214.481,16.52822,-0.0763501,1.00297,1.01969
215.181,16.54954,-0.07634998,1.01127,1.01935
215.881,16.57089,-0.0763509,1.01672,1.019
216.581,16.5922,-0.07633716,1.02187,1.01865
217.281,16.6135,-0.07765077,1.03164,1.0183
217.981,16.63478,-0.07766026,1.03672,1.01795
218.681,16.65609,-0.07766007,1.04635,1.0176
219.381,16.67742,-0.07765656,1.05464,1.01725
220.081,16.69867,-0.07825779,1.06348,1.0169
220.781,16.71997,-0.07898129,1.07368,1.01654
221.481,16.74126,-0.07912314,1.08453,1.01619
222.181,16.76269,-0.08030102,1.09668,1.01583
222.881,16.78409,-0.08150592,1.10529,1.01548
223.581,16.80542,-0.08190675,1.11837,1.01512
224.281,16.8267,-0.08292647,1.12962,1.01476
224.981,16.84788,-0.08298317,1.14474,1.0144
225.681,16.8691,-0.08426809,1.1591,1.01404
226.381,16.8904,-0.0842462,1.17288,1.01368
227.081,16.9116,-0.08479856,1.19103,1.01332
227.781,16.93297,-0.08556151,1.20683,1.01296
228.481,16.95421,-0.08553282,1.22481,1.01259
229.181,16.9755,-0.08692962,1.24584,1.01223
229.881,16.9969,-0.0868756,1.26489,1.01186
230.581,17.01825,-0.08742485,1.2865,1.01149
231.281,17.03954,-0.08819949,1.30716,1.01113
231.981,17.06084,-0.08944852,1.33168,1.01076
232.681,17.08207,-0.08993055,1.3572,1.01039
233.381,17.10334,-0.09123764,1.38032,1.01002
234.081,17.12464,-0.09276507,1.40583,1.00964
234.781,17.14595,-0.09391242,1.43062,1.00927
235.481,17.16723,-0.0948293,1.45556,1.0089
236.181,17.18851,-0.09624833,1.48395,1.00852
236.881,17.20978,-0.09783467,1.51296,1.00815
237.581,17.23104,-0.09968844,1.53713,1.00777
238.281,17.2523,-0.10169,1.56698,1.0074
238.981,17.27366,-0.10368,1.59073,1.00702
239.681,17.29496,-0.10561,1.61705,1.00664
240.381,17.31622,-0.10713,1.64164,1.00626
241.081,17.33749,-0.10905,1.66529,1.00588
241.781,17.35872,-0.11119,1.68872,1.0055
242.481,17.38,-0.11326,1.70685,1.00511
243.181,17.40119,-0.11501,1.72672,1.00473
243.881,17.42236,-0.11699,1.73901,1.00434
244.581,17.44356,-0.11893,1.75779,1.00396
245.281,17.46487,-0.1211,1.77262,1.00357
245.981,17.48619,-0.12309,1.78081,1.00319
246.681,17.50753,-0.12556,1.79062,1.0028
247.381,17.5288,-0.12765,1.79922,1.00241
248.081,17.55003,-0.12979,1.80562,1.00202
248.781,17.57124,-0.1321,1.81188,1.00163
249.481,17.59248,-0.13558,1.81394,1.00124
250.181,17.61375,-0.13922,1.81558,1.00084
250.881,17.63503,-0.14151,1.81792,1.00045
251.581,17.65622,-0.14383,1.81964,1.00006
252.281,17.67739,-0.14593,1.8208,0.99966
252.981,17.69858,-0.14885,1.82138,0.99927
253.681,17.71976,-0.15191,1.81978,0.99887
254.381,17.74096,-0.15481,1.81799,0.99847
255.081,17.7622,-0.15713,1.81198,0.99807
255.781,17.78337,-0.15999,1.8098,0.99767
256.481,17.80455,-0.16305,1.80458,0.99727
257.181,17.8258,-0.16553,1.79863,0.99687
257.881,17.847,-0.1682,1.79513,0.99647
258.581,17.86818,-0.17173,1.78788,0.99607
259.281,17.88934,-0.17448,1.78398,0.99566
259.981,17.91055,-0.17691,1.78115,0.99526
260.681,17.9317,-0.17992,1.77708,0.99485
261.381,17.95293,-0.18359,1.7728,0.99445
262.081,17.9741,-0.18683,1.773,0.99404
262.781,17.99521,-0.18889,1.77025,0.99363
263.481,18.0163,-0.19181,1.77092,0.99322
264.181,18.0374,-0.19544,1.76979,0.99281
264.881,18.05852,-0.19837,1.76837,0.9924
265.581,18.07966,-0.20236,1.76637,0.99199
266.281,18.1008,-0.20603,1.76643,0.99158
266.981,18.12189,-0.20902,1.76837,0.99116
267.681,18.14301,-0.21201,1.76788,0.99075
268.381,18.1641,-0.21495,1.76762,0.99034
269.081,18.18526,-0.21881,1.77044,0.98992
269.781,18.20648,-0.22208,1.76929,0.9895
270.481,18.22765,-0.22447,1.77317,0.98909
271.181,18.24879,-0.22764,1.7738,0.98867
271.881,18.26991,-0.23084,1.77781,0.98825
272.581,18.29109,-0.23424,1.77587,0.98783
273.281,18.31227,-0.23746,1.77966,0.98741
273.981,18.33344,-0.24079,1.78251,0.98699
274.681,18.35464,-0.24458,1.78189,0.98657
275.381,18.37572,-0.24964,1.78364,0.98614
276.081,18.3969,-0.25306,1.78738,0.98572
276.781,18.41809,-0.25676,1.78722,0.98529
277.481,18.4392,-0.26118,1.78822,0.98487
278.181,18.46043,-0.26427,1.78876,0.98444
278.881,18.48156,-0.26812,1.78917,0.98402
279.581,18.5027,-0.27291,1.79233,0.98359
280.281,18.5238,-0.27652,1.79457,0.98316
280.981,18.54496,-0.27897,1.79628,0.98273
281.681,18.56607,-0.28262,1.79795,0.9823
282.381,18.58734,-0.28633,1.79965,0.98187
283.081,18.60853,-0.28998,1.80119,0.98144
283.781,18.62968,-0.29461,1.80237,0.98101
284.481,18.65087,-0.29879,1.80187,0.98057
285.181,18.67202,-0.30321,1.80613,0.98014
285.881,18.6932,-0.30668,1.80828,0.9797
286.581,18.71438,-0.31128,1.80949,0.97927
287.281,18.7355,-0.31638,1.81195,0.97883
287.981,18.75668,-0.32019,1.81063,0.9784
288.681,18.77788,-0.32389,1.8149,0.97796
289.381,18.799,-0.32813,1.81538,0.97752
290.081,18.82018,-0.33378,1.81728,0.97708
290.781,18.84132,-0.33786,1.82147,0.97664
291.481,18.86259,-0.34165,1.82295,0.9762
292.181,18.8838,-0.34646,1.82373,0.97576
292.881,18.90504,-0.35159,1.82662,0.97531
293.581,18.9263,-0.35546,1.82679,0.97487
294.281,18.94755,-0.36038,1.83009,0.97443
294.981,18.96871,-0.36583,1.83193,0.97398
295.681,18.98995,-0.36912,1.83381,0.97354
296.381,19.0111,-0.37344,1.8369,0.97309
297.081,19.0323,-0.37804,1.83654,0.97264
297.781,19.0535,-0.38358,1.83658,0.9722
298.481,19.07478,-0.38956,1.84162,0.97175
299.181,19.09604,-0.39481,1.84292,0.9713
299.881,19.11729,-0.39991,1.84287,0.97085
300.581,19.13851,-0.40514,1.84592,0.9704
301.281,19.15975,-0.41027,1.84711,0.96995
301.981,19.18093,-0.41536,1.84972,0.9695
302.681,19.20211,-0.42022,1.84895,0.96904
303.381,19.2231,-0.4257,1.8507,0.96859
304.081,19.2443,-0.43164,1.85358,0.96814
304.781,19.2655,-0.43746,1.8558,0.96768
305.481,19.28689,-0.44297,1.85578,0.96722
306.181,19.30826,-0.44833,1.85639,0.96677
306.881,19.3296,-0.45246,1.85676,0.96631
307.581,19.3508,-0.45846,1.86133,0.96585
308.281,19.37205,-0.4644,1.85962,0.9654
308.981,19.3933,-0.47048,1.86267,0.96494
309.681,19.41455,-0.47683,1.86627,0.96448
310.381,19.4358,-0.48289,1.86705,0.96402
311.081,19.45694,-0.48952,1.86992,0.96355
311.781,19.47812,-0.49559,1.87066,0.96309
312.481,19.49935,-0.50154,1.87648,0.96263
313.181,19.52058,-0.50817,1.8762,0.96217
313.881,19.54187,-0.51477,1.87812,0.9617
314.581,19.56312,-0.52159,1.88149,0.96124
315.281,19.5843,-0.5283,1.88193,0.96077
315.981,19.60557,-0.53476,1.8852,0.96031
316.681,19.62678,-0.5408,1.88579,0.95984
317.381,19.648,-0.54706,1.8904,0.95937
318.081,19.66921,-0.55463,1.89298,0.9589
318.781,19.6905,-0.56255,1.89741,0.95844
319.481,19.71169,-0.56988,1.90221,0.95797
320.181,19.73293,-0.57744,1.90452,0.9575
320.881,19.75421,-0.58491,1.90743,0.95702
321.581,19.77554,-0.59239,1.91308,0.95655
322.281,19.79693,-0.60088,1.91769,0.95608
322.981,19.81824,-0.60885,1.91777,0.95561
323.681,19.83953,-0.61734,1.92166,0.95514
324.381,19.86082,-0.62536,1.92524,0.95466
325.081,19.88205,-0.63328,1.92677,0.95419
325.781,19.90336,-0.64159,1.92838,0.95371
326.481,19.92465,-0.65031,1.93171,0.95323
327.181,19.94602,-0.65862,1.93267,0.95276
327.881,19.96734,-0.66649,1.93531,0.95228
328.581,19.9886,-0.67497,1.93484,0.9518
329.281,20.0099,-0.68383,1.9376,0.95132
329.981,20.03115,-0.69297,1.93903,0.95085
330.681,20.0525,-0.70245,1.93818,0.95037
331.381,20.07386,-0.7119,1.93671,0.94988
332.081,20.09522,-0.72125,1.93581,0.9494
332.781,20.11658,-0.73045,1.93527,0.94892
333.481,20.13787,-0.73969,1.9321,0.94844
334.181,20.15921,-0.74961,1.92759,0.94796
334.881,20.18054,-0.75956,1.92448,0.94747
335.581,20.20188,-0.76972,1.91772,0.94699
336.281,20.22324,-0.7802,1.91252,0.9465
336.981,20.2445,-0.78974,1.90543,0.94602
337.681,20.2658,-0.79928,1.8979,0.94553
338.381,20.28715,-0.80917,1.8893,0.94504
339.081,20.30857,-0.81974,1.8797,0.94456
339.781,20.3299,-0.82997,1.87146,0.94407
340.481,20.35131,-0.83996,1.86327,0.94358
341.181,20.37267,-0.85082,1.85033,0.94309
341.881,20.39398,-0.86159,1.84121,0.9426
342.581,20.41534,-0.87231,1.82665,0.94211
343.281,20.43668,-0.88316,1.81491,0.94162
343.981,20.4581,-0.89447,1.79973,0.94113
344.681,20.47944,-0.9057,1.78573,0.94064
345.381,20.50086,-0.91606,1.76848,0.94014
346.081,20.52228,-0.92695,1.75382,0.93965
346.781,20.54366,-0.93818,1.73913,0.93916
347.481,20.56501,-0.94954,1.72055,0.93866
348.181,20.58636,-0.9618,1.70318,0.93817
348.881,20.60776,-0.97333,1.68557,0.93767
349.581,20.6292,-0.98493,1.66563,0.93717
350.281,20.6506,-0.9955,1.64838,0.93668
350.981,20.6719,-1.00704,1.62745,0.93618
351.681,20.69324,-1.01908,1.61126,0.93568
352.381,20.71459,-1.03116,1.59034,0.93518
353.081,20.736,-1.04299,1.57263,0.93468
353.781,20.75741,-1.05473,1.55264,0.93418
354.481,20.77882,-1.06674,1.53756,0.93368
355.181,20.80026,-1.07905,1.51753,0.93318
355.881,20.82165,-1.09094,1.49898,0.93268
356.581,20.84307,-1.10287,1.47571,0.93218
357.281,20.86444,-1.11514,1.45927,0.93168
357.981,20.88571,-1.12728,1.43966,0.93117
358.681,20.907,-1.14116,1.4225,0.93067
359.381,20.92847,-1.15311,1.40436,0.93017
360.081,20.94999,-1.16506,1.3859,0.92966
360.781,20.97168,-1.17744,1.36817,0.92916
361.481,20.99315,-1.18915,1.34951,0.92865
362.181,21.0147,-1.20152,1.33399,0.92814
362.881,21.03613,-1.21374,1.32002,0.92764
363.581,21.0576,-1.22545,1.30383,0.92713
364.281,21.0791,-1.23699,1.28978,0.92662
364.981,21.10055,-1.24846,1.27529,0.92611
365.681,21.1221,-1.26056,1.26118,0.9256
366.381,21.1435,-1.27219,1.24962,0.9251
367.081,21.16506,-1.28411,1.23563,0.92458
367.781,21.18654,-1.29598,1.22442,0.92407
368.481,21.2081,-1.30719,1.21251,0.92356
369.181,21.22953,-1.31751,1.20141,0.92305
369.881,21.25101,-1.32749,1.19183,0.92254
370.581,21.2725,-1.3375,1.18255,0.92203
371.281,21.29403,-1.34848,1.17404,0.92151
371.981,21.3156,-1.35951,1.16596,0.921
372.681,21.33708,-1.3699,1.15935,0.92049
373.381,21.3586,-1.37993,1.1491,0.91997
374.081,21.3802,-1.38931,1.14607,0.91946
374.781,21.40179,-1.39898,1.13929,0.91894
375.481,21.42336,-1.40848,1.13406,0.91842
376.181,21.44494,-1.41776,1.12766,0.91791
376.881,21.4665,-1.42674,1.12166,0.91739
377.581,21.48808,-1.43592,1.11592,0.91687
378.281,21.50964,-1.44497,1.11218,0.91635
378.981,21.53122,-1.4539,1.10854,0.91583
379.681,21.55281,-1.46269,1.10485,0.91531
380.381,21.5743,-1.47174,1.09532,0.9148
381.081,21.5959,-1.4801,1.09252,0.91427
381.781,21.61749,-1.48736,1.08968,0.91375
382.481,21.63907,-1.49477,1.08419,0.91323
383.181,21.66068,-1.50252,1.08078,0.91271
383.881,21.6824,-1.51078,1.07702,0.91219
384.581,21.70405,-1.5185,1.07233,0.91167
385.281,21.7257,-1.52669,1.07056,0.91114
385.981,21.74731,-1.53435,1.06744,0.91062
386.681,21.76887,-1.54167,1.06614,0.9101
387.381,21.79055,-1.5483,1.06199,0.90957
388.081,21.81225,-1.55495,1.06061,0.90905
388.781,21.83391,-1.56149,1.05413,0.90852
389.481,21.8555,-1.56809,1.054,0.90799
390.181,21.87712,-1.57475,1.04795,0.90747
390.881,21.89876,-1.58166,1.04639,0.90694
391.581,21.92041,-1.58851,1.04445,0.90641
392.281,21.94215,-1.59463,1.04045,0.90589
392.981,21.96379,-1.60097,1.0371,0.90536
393.681,21.98549,-1.60693,1.03666,0.90483
394.381,22.0072,-1.6127,1.03185,0.9043
395.081,22.02884,-1.61949,1.02936,0.90377
395.781,22.05057,-1.62617,1.02696,0.90324
396.481,22.0722,-1.63207,1.0222,0.90271
397.181,22.09388,-1.63788,1.02065,0.90218
397.881,22.1156,-1.64387,1.01848,0.90165
398.581,22.13731,-1.64954,1.01747,0.90112
399.281,22.159,-1.65514,1.0133,0.90058
399.981,22.18081,-1.66056,1.00893,0.90005
400.681,22.20254,-1.66604,1.01041,0.89952
401.381,22.22428,-1.67124,1.00447,0.89899
402.081,22.246,-1.67639,1.00263,0.89845
402.781,22.26773,-1.68174,0.99973,0.89792
403.481,22.28951,-1.68712,0.99804,0.89738
404.181,22.31128,-1.69228,0.99754,0.89685
404.881,22.33309,-1.6972,0.99061,0.89631
405.581,22.35485,-1.70192,0.98996,0.89578
406.281,22.37664,-1.70712,0.985,0.89524
406.981,22.3984,-1.71226,0.98243,0.8947
407.681,22.4201,-1.71701,0.98136,0.89417
408.381,22.44185,-1.72187,0.97778,0.89363
409.081,22.4636,-1.72799,0.97563,0.89309
409.781,22.48539,-1.73359,0.9741,0.89255
410.481,22.50716,-1.73881,0.96874,0.89201
411.181,22.52895,-1.74274,0.96716,0.89147
411.881,22.5507,-1.74651,0.96533,0.89093
412.581,22.57251,-1.75169,0.96476,0.89039
413.281,22.5943,-1.75567,0.96214,0.88985
413.981,22.6161,-1.76001,0.96101,0.88931
414.681,22.63792,-1.76449,0.95668,0.88877
415.381,22.6598,-1.76823,0.95511,0.88823
416.081,22.68158,-1.77244,0.95102,0.88769
416.781,22.70338,-1.77727,0.94892,0.88715
417.481,22.7252,-1.78122,0.9442,0.8866
418.181,22.74701,-1.78581,0.94308,0.88606
418.881,22.76891,-1.79081,0.94042,0.88552
419.581,22.7908,-1.79522,0.94173,0.88497
420.281,22.81265,-1.7991,0.93458,0.88443
420.981,22.83446,-1.80375,0.93208,0.88388
421.681,22.85631,-1.80843,0.93204,0.88334
422.381,22.87816,-1.81312,0.92969,0.88279
423.081,22.89994,-1.81763,0.92573,0.88225
423.781,22.92176,-1.82155,0.92153,0.8817
424.481,22.9436,-1.82513,0.91841,0.88115
425.181,22.9655,-1.82883,0.91586,0.88061
425.881,22.98743,-1.83319,0.91313,0.88006
426.581,23.00937,-1.8374,0.90958,0.87951
427.281,23.03131,-1.84101,0.90529,0.87897
427.981,23.05322,-1.84541,0.90077,0.87842
428.681,23.07509,-1.84932,0.89805,0.87787
429.381,23.097,-1.85298,0.8946,0.87732
430.081,23.11895,-1.85803,0.89123,0.87677
430.781,23.14085,-1.86231,0.88715,0.87622
431.481,23.16272,-1.86481,0.88399,0.87567
432.181,23.18459,-1.86814,0.87812,0.87512
432.881,23.20662,-1.87256,0.87312,0.87457
433.581,23.2286,-1.87567,0.86907,0.87402
434.281,23.25057,-1.88047,0.86861,0.87347
434.981,23.27251,-1.88441,0.86106,0.87292
435.681,23.29448,-1.88734,0.85624,0.87236
436.381,23.31654,-1.89088,0.85118,0.87181
437.081,23.33856,-1.89537,0.84783,0.87126
437.781,23.36051,-1.89824,0.84492,0.87071
438.481,23.3825,-1.90101,0.83843,0.87015
439.181,23.4044,-1.90466,0.83483,0.8696
439.881,23.42636,-1.90727,0.83124,0.86905
440.581,23.4483,-1.9093,0.82912,0.86849
441.281,23.47041,-1.91248,0.8256,0.86794
441.981,23.49246,-1.91654,0.82139,0.86738
442.681,23.51452,-1.91974,0.81795,0.86683
443.381,23.53649,-1.92291,0.81349,0.86627
444.081,23.55846,-1.9259,0.81091,0.86571
444.781,23.58052,-1.92841,0.80659,0.86516
445.481,23.60264,-1.93078,0.80302,0.8646
446.181,23.62472,-1.93396,0.79946,0.86405
446.881,23.64679,-1.93657,0.79447,0.86349
447.581,23.66883,-1.93876,0.79012,0.86293
448.281,23.6909,-1.94068,0.79076,0.86237
448.981,23.713,-1.94311,0.78755,0.86182
449.681,23.735,-1.94618,0.78389,0.86126
450.381,23.75714,-1.95127,0.77961,0.8607
451.081,23.77927,-1.95396,0.77703,0.86014
451.781,23.8014,-1.95653,0.77417,0.85958
452.481,23.82357,-1.95957,0.77338,0.85902
453.181,23.8456,-1.96227,0.76925,0.85846
453.881,23.86775,-1.96455,0.7702,0.8579
454.581,23.8899,-1.96722,0.76542,0.85734
455.281,23.91198,-1.96966,0.75981,0.85678
455.981,23.93403,-1.97247,0.75807,0.85622
456.681,23.95615,-1.97507,0.75523,0.85566
457.381,23.9783,-1.97794,0.75225,0.8551
458.081,24.0005,-1.98046,0.75183,0.85454
458.781,24.02265,-1.98281,0.74838,0.85397
459.481,24.0448,-1.9851,0.7454,0.85341
460.181,24.067,-1.98728,0.74335,0.85285
460.881,24.08923,-1.98944,0.73863,0.85229
461.581,24.1114,-1.9921,0.73769,0.85172
462.281,24.1336,-1.99413,0.73479,0.85116
462.981,24.15573,-1.99641,0.73153,0.8506
463.681,24.17788,-1.99861,0.72966,0.85003
464.381,24.20008,-2.00092,0.72732,0.84947
465.081,24.2223,-2.00305,0.72339,0.84891
465.781,24.2445,-2.00655,0.72164,0.84834
466.481,24.26667,-2.00907,0.72041,0.84778
467.181,24.28888,-2.01143,0.7172,0.84721
467.881,24.3111,-2.0135,0.71306,0.84665
468.581,24.33335,-2.01616,0.71182,0.84608
469.281,24.35558,-2.01892,0.71121,0.84551
469.981,24.37775,-2.02073,0.70583,0.84495
470.681,24.40001,-2.02212,0.70658,0.84438
471.381,24.42226,-2.02403,0.70277,0.84382
472.081,24.44442,-2.02635,0.7037,0.84325
472.781,24.46659,-2.02852,0.69872,0.84268
473.481,24.48883,-2.03071,0.6971,0.84211
474.181,24.51107,-2.03294,0.69428,0.84155
474.881,24.53343,-2.03513,0.69095,0.84098
475.581,24.5557,-2.03727,0.68823,0.84041
476.281,24.57799,-2.03925,0.68746,0.83984
476.981,24.6002,-2.0411,0.68344,0.83928
477.681,24.6224,-2.04276,0.68183,0.83871
478.381,24.64469,-2.04493,0.6785,0.83814
479.081,24.66703,-2.04669,0.67636,0.83757
479.781,24.68931,-2.04852,0.67485,0.837
480.481,24.7116,-2.05051,0.67167,0.83643
481.181,24.73386,-2.05272,0.67055,0.83586
481.881,24.75613,-2.05436,0.66705,0.83529
482.581,24.77842,-2.05589,0.66289,0.83472
483.281,24.8007,-2.05767,0.66338,0.83415
483.981,24.82304,-2.0598,0.66083,0.83358
484.681,24.8454,-2.06205,0.65871,0.83301
485.381,24.86771,-2.06409,0.65848,0.83244
486.081,24.89003,-2.06589,0.65033,0.83187
486.781,24.9123,-2.06745,0.65109,0.8313
487.481,24.9346,-2.06962,0.64866,0.83072
488.181,24.9569,-2.07154,0.64694,0.83015
488.881,24.97924,-2.0734,0.64377,0.82958
489.581,25.00159,-2.07503,0.64237,0.82901
490.281,25.02392,-2.07717,0.64027,0.82844
490.981,25.04622,-2.07891,0.63874,0.82786
491.681,25.06857,-2.08012,0.63696,0.82729
492.381,25.09078,-2.08113,0.63227,0.82672
493.081,25.1131,-2.0829,0.6333,0.82615
493.781,25.1355,-2.08427,0.62673,0.82557
494.481,25.158,-2.08601,0.62737,0.825
495.181,25.18038,-2.08752,0.6263,0.82442
495.881,25.20279,-2.08928,0.62405,0.82385
496.581,25.22512,-2.09068,0.62306,0.82328
497.281,25.24749,-2.09179,0.6202,0.8227
497.981,25.26984,-2.0934,0.6149,0.82213
498.681,25.29225,-2.0967,0.61595,0.82155
499.381,25.3147,-2.09882,0.6103,0.82098
500.081,25.33717,-2.09967,0.61204,0.8204
500.781,25.3596,-2.10128,0.61028,0.81983
501.481,25.382,-2.10315,0.6073,0.81925
502.181,25.40435,-2.10475,0.60676,0.81868
502.881,25.42674,-2.10519,0.60391,0.8181
503.581,25.44913,-2.10693,0.60184,0.81753
504.281,25.4715,-2.10776,0.60273,0.81695
504.981,25.4939,-2.11013,0.59718,0.81638
505.681,25.5164,-2.11168,0.59924,0.8158
506.381,25.5388,-2.1135,0.59834,0.81522
507.081,25.56109,-2.11511,0.59405,0.81465
507.781,25.5835,-2.11658,0.59239,0.81407
508.481,25.60596,-2.11826,0.59421,0.81349
509.181,25.6284,-2.11883,0.59347,0.81292
509.881,25.6509,-2.11967,0.59287,0.81234
510.581,25.6733,-2.12124,0.58953,0.81176
511.281,25.69578,-2.12238,0.58945,0.81119
511.981,25.71825,-2.12302,0.58697,0.81061
512.681,25.74071,-2.12415,0.58577,0.81003
513.381,25.76315,-2.1259,0.58571,0.80945
514.081,25.78558,-2.12734,0.58508,0.80888
514.781,25.808,-2.12835,0.5803,0.8083
515.481,25.8305,-2.12907,0.58182,0.80772
516.181,25.85304,-2.13055,0.58349,0.80714
516.881,25.87556,-2.13232,0.57797,0.80656
517.581,25.89806,-2.1338,0.57701,0.80598
518.281,25.9206,-2.13468,0.57519,0.80541
518.981,25.94301,-2.13522,0.5726,0.80483
519.681,25.96544,-2.1367,0.57216,0.80425
520.381,25.98784,-2.13683,0.57075,0.80367
521.081,26.01032,-2.13801,0.5689,0.80309
521.781,26.03285,-2.13967,0.56729,0.80251
522.481,26.05537,-2.14095,0.56425,0.80193
523.181,26.07787,-2.14226,0.56259,0.80135
523.881,26.10033,-2.14404,0.56243,0.80077
524.581,26.12284,-2.14472,0.55921,0.80019
525.281,26.14536,-2.14545,0.55873,0.79961
525.981,26.16789,-2.14706,0.55489,0.79903
526.681,26.19035,-2.14858,0.55584,0.79845
527.381,26.2128,-2.14855,0.55327,0.79787
528.081,26.23532,-2.1485,0.55296,0.79729
528.781,26.25784,-2.14849,0.55082,0.79671
529.481,26.2804,-2.14984,0.5476,0.79613
530.181,26.303,-2.15062,0.54837,0.79555
530.881,26.32552,-2.15137,0.54743,0.79497
531.581,26.34805,-2.15286,0.54396,0.79439
532.281,26.3705,-2.15474,0.54526,0.79381
532.981,26.39306,-2.15708,0.54353,0.79323
533.681,26.41563,-2.15765,0.5475,0.79264
534.381,26.4383,-2.15891,0.54402,0.79206
535.081,26.46091,-2.15899,0.53998,0.79148
535.781,26.48345,-2.16063,0.54286,0.7909
536.481,26.50597,-2.16192,0.5411,0.79032
537.181,26.52846,-2.16128,0.53902,0.78974
537.881,26.551,-2.16257,0.53598,0.78916
538.581,26.57361,-2.16312,0.53803,0.78857
539.281,26.5962,-2.16423,0.53778,0.78799
539.981,26.61885,-2.16552,0.5333,0.78741
540.681,26.64139,-2.16554,0.53361,0.78683
541.381,26.664,-2.16633,0.53152,0.78625
542.081,26.68658,-2.16696,0.53168,0.78566
542.781,26.7092,-2.16808,0.53369,0.78508
543.481,26.7318,-2.16837,0.53013,0.7845
544.181,26.7544,-2.16979,0.5315,0.78392
544.881,26.777,-2.1702,0.52823,0.78333
545.581,26.79958,-2.17113,0.53109,0.78275
546.281,26.82221,-2.17123,0.52891,0.78217
546.981,26.8448,-2.17257,0.52721,0.78159
547.681,26.86743,-2.17341,0.53113,0.781
548.381,26.89005,-2.17385,0.5297,0.78042
549.081,26.9127,-2.1753,0.52587,0.77984
549.781,26.93536,-2.17539,0.52694,0.77926
550.481,26.95808,-2.17662,0.527,0.77867
551.181,26.98075,-2.17671,0.52811,0.77809
551.881,27.00341,-2.17792,0.52649,0.77751
552.581,27.02601,-2.17793,0.52712,0.77692
553.281,27.04867,-2.17902,0.52735,0.77634
553.981,27.07133,-2.17971,0.52933,0.77576
554.681,27.09399,-2.18086,0.52713,0.77517
555.381,27.1167,-2.18225,0.52753,0.77459
556.081,27.13931,-2.18221,0.52985,0.77401
556.781,27.162,-2.18321,0.52821,0.77342
557.481,27.18464,-2.18353,0.52931,0.77284
558.181,27.2072,-2.18462,0.52942,0.77226
558.881,27.22983,-2.18485,0.52815,0.77167
559.581,27.2525,-2.18583,0.5272,0.77109
560.281,27.27525,-2.18612,0.52845,0.7705
560.981,27.2979,-2.18771,0.53257,0.76992
561.681,27.32064,-2.18737,0.53205,0.76934
562.381,27.3434,-2.1885,0.53295,0.76875
563.081,27.3661,-2.18868,0.53165,0.76817
563.781,27.3888,-2.19004,0.53198,0.76759
564.481,27.4114,-2.18998,0.53367,0.767
565.181,27.4341,-2.19156,0.5339,0.76642
565.881,27.4569,-2.19296,0.53623,0.76583
566.581,27.47976,-2.19318,0.53851,0.76525
567.281,27.5025,-2.19423,0.5381,0.76467
567.981,27.52523,-2.19449,0.54105,0.76408
568.681,27.5479,-2.19541,0.53757,0.7635
569.381,27.57064,-2.19582,0.5435,0.76291
570.081,27.5934,-2.19687,0.54198,0.76233
570.781,27.6162,-2.19707,0.54576,0.76175
571.481,27.6389,-2.19855,0.54496,0.76116
572.181,27.66168,-2.19957,0.54662,0.76058
572.881,27.6844,-2.20043,0.54787,0.75999
573.581,27.7072,-2.20177,0.55156,0.75941
574.281,27.7299,-2.20173,0.55063,0.75882
574.981,27.75266,-2.20241,0.55431,0.75824
575.681,27.77545,-2.20305,0.55634,0.75766
576.381,27.7982,-2.20304,0.5547,0.75707
577.081,27.8211,-2.2045,0.55735,0.75649
577.781,27.84392,-2.20442,0.55349,0.7559
578.481,27.8667,-2.20578,0.55872,0.75532
579.181,27.8895,-2.20592,0.56004,0.75473
579.881,27.9124,-2.20722,0.55853,0.75415
580.581,27.9352,-2.20829,0.55903,0.75357
581.281,27.9581,-2.20874,0.55674,0.75298
581.981,27.98088,-2.21009,0.56139,0.7524
582.681,28.00362,-2.21008,0.55869,0.75181
583.381,28.02641,-2.2114,0.559,0.75123
584.081,28.0492,-2.21139,0.55974,0.75064
584.781,28.07198,-2.21267,0.55804,0.75006
585.481,28.0948,-2.2127,0.55978,0.74947
586.181,28.1177,-2.21317,0.55514,0.74889
586.881,28.1406,-2.21511,0.55873,0.74831
587.581,28.16345,-2.21586,0.55967,0.74772
588.281,28.18625,-2.21654,0.55699,0.74714
588.981,28.2091,-2.2178,0.55381,0.74655
589.681,28.232,-2.21653,0.54955,0.74597
590.381,28.255,-2.21788,0.54872,0.74538
591.081,28.2779,-2.21782,0.54966,0.7448
591.781,28.30078,-2.21916,0.54972,0.74422
592.481,28.3237,-2.21934,0.54736,0.74363
593.181,28.3465,-2.22049,0.54355,0.74305
593.881,28.3694,-2.22157,0.54436,0.74246
594.581,28.3923,-2.2218,0.54309,0.74188
595.281,28.4152,-2.22326,0.54409,0.74129
595.981,28.43808,-2.22348,0.54249,0.74071
596.681,28.46097,-2.22466,0.54116,0.74013
597.381,28.48395,-2.22593,0.5396,0.73954
598.081,28.5068,-2.22607,0.54031,0.73896
598.781,28.5297,-2.22732,0.53842,0.73837
599.481,28.5526,-2.2274,0.5375,0.73779
600.181,28.5756,-2.22853,0.53737,0.73721
600.881,28.59849,-2.22893,0.5366,0.73662
601.581,28.6215,-2.22987,0.5377,0.73604
602.281,28.64436,-2.23026,0.53582,0.73545
602.981,28.6673,-2.23138,0.53302,0.73487
603.681,28.69022,-2.23169,0.53548,0.73429
604.381,28.71317,-2.23302,0.53286,0.7337
605.081,28.7361,-2.23311,0.53216,0.73312
605.781,28.7591,-2.23442,0.52873,0.73254
606.481,28.78203,-2.2359,0.52895,0.73195
607.181,28.805,-2.2361,0.52847,0.73137
607.881,28.8279,-2.23715,0.52549,0.73078
608.581,28.8508,-2.23737,0.52464,0.7302
609.281,28.87377,-2.23957,0.52364,0.72962
609.981,28.8968,-2.24094,0.5217,0.72903
610.681,28.91977,-2.24112,0.52176,0.72845
611.381,28.94272,-2.24245,0.52079,0.72787
612.081,28.96565,-2.24274,0.51955,0.72728
612.781,28.9886,-2.24377,0.51937,0.7267
613.481,29.01155,-2.24453,0.51727,0.72612
614.181,29.03456,-2.24517,0.51696,0.72553
614.881,29.0575,-2.24565,0.5165,0.72495
615.581,29.08043,-2.24709,0.51469,0.72437
616.281,29.10332,-2.24703,0.51709,0.72378
616.981,29.12629,-2.24775,0.51551,0.7232
617.681,29.14919,-2.24835,0.51433,0.72262
618.381,29.1722,-2.24835,0.514,0.72204
619.081,29.1952,-2.24968,0.51179,0.72145
619.781,29.2182,-2.24991,0.51129,0.72087
620.481,29.24113,-2.25098,0.51205,0.72029
621.181,29.26408,-2.25236,0.51346,0.7197
621.881,29.2871,-2.25298,0.51126,0.71912
622.581,29.31012,-2.25406,0.50867,0.71854
623.281,29.3331,-2.25539,0.50848,0.71796
623.981,29.3561,-2.25537,0.50578,0.71738
624.681,29.37912,-2.25537,0.50433,0.71679
625.381,29.40215,-2.2567,0.50643,0.71621
626.081,29.4251,-2.25668,0.50665,0.71563
626.781,29.44812,-2.25682,0.50726,0.71505
627.481,29.4711,-2.25822,0.5043,0.71446
628.181,29.4941,-2.25971,0.50688,0.71388
628.881,29.51707,-2.2596,0.50276,0.7133
629.581,29.54005,-2.26095,0.50391,0.71272
630.281,29.5631,-2.26167,0.50416,0.71214
630.981,29.5861,-2.26239,0.50324,0.71156
631.681,29.60919,-2.26265,0.50607,0.71097
632.381,29.6322,-2.26274,0.50633,0.71039
633.081,29.6552,-2.26237,0.50393,0.70981
633.781,29.67813,-2.26369,0.50373,0.70923
634.481,29.7012,-2.26372,0.50766,0.70865
635.181,29.7242,-2.26536,0.50716,0.70807
635.881,29.7472,-2.26634,0.50946,0.70749
636.581,29.77015,-2.26635,0.50898,0.7069
637.281,29.7931,-2.26767,0.51112,0.70632
637.981,29.81605,-2.26763,0.51108,0.70574
638.681,29.83912,-2.26897,0.50945,0.70516
639.381,29.86218,-2.26893,0.51418,0.70458
640.081,29.88526,-2.2704,0.51785,0.704
640.781,29.9082,-2.27056,0.51888,0.70342
641.481,29.9312,-2.2717,0.51644,0.70284
642.181,29.95422,-2.2717,0.51894,0.70226
642.881,29.9773,-2.27298,0.52203,0.70168
643.581,30.00034,-2.27303,0.52537,0.7011
644.281,30.0234,-2.27301,0.5257,0.70052
644.981,30.0465,-2.27435,0.52801,0.69994
645.681,30.06962,-2.27429,0.5297,0.69936
646.381,30.09262,-2.27566,0.53085,0.69878
647.081,30.1156,-2.27576,0.53507,0.6982
647.781,30.1386,-2.27698,0.53765,0.69762
648.481,30.16167,-2.27775,0.54069,0.69704
649.181,30.18478,-2.27697,0.54353,0.69646
649.881,30.2079,-2.27832,0.54573,0.69588
650.581,30.231,-2.27825,0.55122,0.6953
651.281,30.25393,-2.2796,0.55404,0.69472
651.981,30.277,-2.27977,0.55825,0.69415
652.681,30.29999,-2.28115,0.55959,0.69357
653.381,30.32317,-2.28187,0.56693,0.69299
654.081,30.3463,-2.28258,0.57519,0.69241
654.781,30.36944,-2.28365,0.57656,0.69183
655.481,30.3925,-2.28389,0.58293,0.69125
656.181,30.4156,-2.28387,0.58792,0.69067
656.881,30.4387,-2.2852,0.59218,0.6901
657.581,30.46179,-2.28383,0.59965,0.68952
658.281,30.48491,-2.28444,0.60693,0.68894
658.981,30.5078,-2.28521,0.61627,0.68836
659.681,30.531,-2.286,0.61986,0.68778
660.381,30.55415,-2.2875,0.62742,0.68721
661.081,30.5774,-2.28899,0.63571,0.68663
661.781,30.60053,-2.28989,0.64335,0.68605
662.481,30.62363,-2.29048,0.65182,0.68548
663.181,30.64682,-2.29155,0.66145,0.6849
663.881,30.67003,-2.29205,0.66955,0.68432
664.581,30.6931,-2.29342,0.67927,0.68374
665.281,30.7162,-2.29514,0.68765,0.68317
665.981,30.73938,-2.29543,0.69645,0.68259
666.681,30.76261,-2.29662,0.7033,0.68201
667.381,30.7858,-2.2976,0.71653,0.68144
668.081,30.80898,-2.29791,0.72829,0.68086
668.781,30.83225,-2.29935,0.73736,0.68029
669.481,30.85543,-2.30046,0.74745,0.67971
670.181,30.87861,-2.30147,0.75824,0.67913
670.881,30.9018,-2.30251,0.77172,0.67856
671.581,30.92486,-2.30386,0.78301,0.67798
672.281,30.94802,-2.305,0.79362,0.67741
672.981,30.97121,-2.30489,0.80437,0.67683
673.681,30.9944,-2.30542,0.81728,0.67626
674.381,31.0177,-2.30694,0.83253,0.67568
675.081,31.04087,-2.30853,0.84136,0.67511
675.781,31.064,-2.30887,0.85757,0.67453
676.481,31.0872,-2.30997,0.86835,0.67396
677.181,31.1104,-2.31134,0.87945,0.67338
677.881,31.13358,-2.31175,0.89537,0.67281
678.581,31.15676,-2.31297,0.90558,0.67223
679.281,31.18,-2.31461,0.92029,0.67166
679.981,31.2033,-2.31609,0.93412,0.67108
680.681,31.2265,-2.31899,0.95105,0.67051
681.381,31.24975,-2.32069,0.96268,0.66994
682.081,31.27303,-2.32219,0.97785,0.66936
682.781,31.29627,-2.32223,0.98937,0.66879
683.481,31.31945,-2.32363,1.00838,0.66822
684.181,31.34263,-2.32486,1.02019,0.66764
684.881,31.3658,-2.32601,1.03695,0.66707
685.581,31.389,-2.3273,1.0502,0.6665
686.281,31.4122,-2.32876,1.06696,0.66592
686.981,31.4354,-2.33059,1.08497,0.66535
687.681,31.45872,-2.33332,1.09986,0.66478
688.381,31.482,-2.33477,1.11505,0.66421
689.081,31.5053,-2.33672,1.1317,0.66363
689.781,31.52855,-2.33769,1.15006,0.66306
690.481,31.5518,-2.33979,1.16622,0.66249
691.181,31.57497,-2.34147,1.1839,0.66192
691.881,31.5982,-2.34324,1.20386,0.66135
692.581,31.6215,-2.34476,1.21884,0.66078
693.281,31.6448,-2.34651,1.23994,0.6602
693.981,31.66808,-2.34867,1.25585,0.65963
694.681,31.6913,-2.35136,1.2733,0.65906
695.381,31.71463,-2.35362,1.29051,0.65849
696.081,31.7379,-2.35539,1.31011,0.65792
696.781,31.76115,-2.3568,1.32933,0.65735
697.481,31.78443,-2.35856,1.35177,0.65678
698.181,31.80779,-2.36061,1.36808,0.65621
698.881,31.8311,-2.36297,1.39015,0.65564
699.581,31.8544,-2.36518,1.40883,0.65507
700.281,31.8777,-2.36689,1.42662,0.6545
700.981,31.90093,-2.36876,1.4485,0.65393
701.681,31.9243,-2.3713,1.46637,0.65336
702.381,31.9476,-2.37424,1.48686,0.65279
703.081,31.9709,-2.37693,1.50752,0.65222
703.781,31.9942,-2.37939,1.53039,0.65165
704.481,32.0174,-2.38128,1.54693,0.65109
705.181,32.04063,-2.38365,1.567,0.65052
705.881,32.06386,-2.38568,1.59046,0.64995
706.581,32.08717,-2.38799,1.60847,0.64938
707.281,32.11055,-2.38947,1.62954,0.64881
707.981,32.13393,-2.39146,1.65179,0.64824
708.681,32.15725,-2.39358,1.67269,0.64768
709.381,32.18049,-2.39549,1.69452,0.64711
710.081,32.2037,-2.3983,1.70818,0.64654
710.781,32.22696,-2.4014,1.73485,0.64597
711.481,32.25025,-2.40391,1.75308,0.64541
712.181,32.2736,-2.40629,1.77743,0.64484
712.881,32.2969,-2.40983,1.79466,0.64427
713.581,32.3202,-2.41263,1.82001,0.64371
714.281,32.34347,-2.4157,1.83721,0.64314
714.981,32.36685,-2.41934,1.85806,0.64257
715.681,32.39017,-2.42143,1.88005,0.64201
716.381,32.41337,-2.42418,1.89929,0.64144
717.081,32.4367,-2.42777,1.91833,0.64088
717.781,32.46,-2.43028,1.93979,0.64031
718.481,32.48353,-2.43313,1.9587,0.63975
719.181,32.50685,-2.43621,1.98011,0.63918
719.881,32.5302,-2.4389,1.9987,0.63862
720.581,32.5535,-2.44278,2.01697,0.63805
721.281,32.57679,-2.4461,2.03697,0.63749
721.981,32.60018,-2.4493,2.05145,0.63692
722.681,32.62353,-2.45252,2.07339,0.63636
723.381,32.64693,-2.4539,2.08905,0.63579
724.081,32.67028,-2.45679,2.10631,0.63523
724.781,32.69364,-2.46003,2.11747,0.63466
725.481,32.71695,-2.46291,2.13062,0.6341
726.181,32.74026,-2.46695,2.1514,0.63354
726.881,32.7635,-2.46869,2.1607,0.63297
727.581,32.7868,-2.46898,2.17276,0.63241
728.281,32.8102,-2.47001,2.18584,0.63185
728.981,32.83363,-2.47017,2.19842,0.63129
729.681,32.85698,-2.47305,2.21071,0.63072
730.381,32.8803,-2.47606,2.2221,0.63016
731.081,32.9034,-2.48004,2.22733,0.6296
731.781,32.92645,-2.48468,2.23836,0.62904
732.481,32.9496,-2.48935,2.24507,0.62848
733.181,32.97313,-2.49358,2.24836,0.62791
733.881,32.99677,-2.49722,2.25105,0.62735
734.581,33.0204,-2.50049,2.25574,0.62679
735.281,33.04375,-2.50534,2.25792,0.62623
735.981,33.06711,-2.50969,2.25641,0.62567
736.681,33.09045,-2.51535,2.2577,0.62511
737.381,33.11378,-2.51768,2.25276,0.62455
738.081,33.13709,-2.52153,2.24515,0.62399
738.781,33.16045,-2.52518,2.23951,0.62343
739.481,33.18383,-2.52892,2.2327,0.62287
740.181,33.2072,-2.53239,2.22585,0.62231
740.881,33.2306,-2.53617,2.21454,0.62175
741.581,33.25394,-2.53882,2.20564,0.62119
742.281,33.27731,-2.54218,2.18876,0.62063
742.981,33.30065,-2.54724,2.17327,0.62007
743.681,33.3241,-2.55178,2.15639,0.61951
744.381,33.3474,-2.55771,2.13626,0.61896
745.081,33.37086,-2.56248,2.11434,0.6184
745.781,33.39421,-2.56546,2.08986,0.61784
746.481,33.41762,-2.56819,2.06352,0.61728
747.181,33.44099,-2.57098,2.0408,0.61672
747.881,33.46438,-2.57477,2.01092,0.61617
748.581,33.4878,-2.57746,1.97639,0.61561
749.281,33.5112,-2.58019,1.9501,0.61505
749.981,33.53459,-2.58272,1.91887,0.61449
750.681,33.558,-2.58511,1.88598,0.61394
751.381,33.58141,-2.58752,1.85478,0.61338
752.081,33.6048,-2.58802,1.82197,0.61283
752.781,33.62826,-2.59031,1.79436,0.61227
753.481,33.65167,-2.59333,1.76725,0.61171
754.181,33.6751,-2.59542,1.73271,0.61116
754.881,33.6985,-2.59824,1.70124,0.6106
755.581,33.72187,-2.60116,1.67697,0.61005
756.281,33.74521,-2.60353,1.64931,0.60949
756.981,33.7686,-2.60517,1.62095,0.60894
757.681,33.79201,-2.60603,1.59427,0.60838
758.381,33.81542,-2.60919,1.5707,0.60783
759.081,33.83875,-2.61179,1.54591,0.60727
759.781,33.86209,-2.6134,1.52005,0.60672
760.481,33.88551,-2.61491,1.49873,0.60617
761.181,33.90895,-2.61723,1.47612,0.60561
761.881,33.93248,-2.61876,1.45058,0.60506
762.581,33.95592,-2.62032,1.43079,0.60451
763.281,33.97939,-2.62218,1.41266,0.60395
763.981,34.0028,-2.6241,1.3914,0.6034
764.681,34.0262,-2.6259,1.37034,0.60285
765.381,34.0496,-2.62752,1.34961,0.60229
766.081,34.07304,-2.62979,1.32915,0.60174
766.781,34.09652,-2.6308,1.31158,0.60119
767.481,34.12001,-2.63238,1.29204,0.60064
768.181,34.1434,-2.63284,1.27163,0.60009
768.881,34.16681,-2.63513,1.25588,0.59954
769.581,34.19025,-2.63714,1.2381,0.59898
770.281,34.21371,-2.63781,1.2201,0.59843
770.981,34.2372,-2.63953,1.19382,0.59788
771.681,34.26062,-2.64151,1.17702,0.59733
772.381,34.2841,-2.64161,1.16374,0.59678
773.081,34.3076,-2.64272,1.14427,0.59623
773.781,34.33103,-2.64387,1.12762,0.59568
774.481,34.3544,-2.64567,1.10666,0.59513
775.181,34.37788,-2.64742,1.09113,0.59458
775.881,34.4013,-2.64921,1.0754,0.59403
776.581,34.42477,-2.65105,1.05643,0.59349
777.281,34.4482,-2.65291,1.03946,0.59294
777.981,34.47162,-2.65512,1.02149,0.59239
778.681,34.49511,-2.65688,1.00252,0.59184
779.381,34.5186,-2.65999,0.99024,0.59129
780.081,34.54209,-2.66279,0.97217,0.59074
780.781,34.56557,-2.66493,0.9545,0.5902
781.481,34.58902,-2.66788,0.93608,0.58965
782.181,34.61252,-2.66888,0.92031,0.5891
782.881,34.63599,-2.67009,0.90364,0.58856
783.581,34.6595,-2.67144,0.89129,0.58801
784.281,34.6829,-2.67259,0.87734,0.58746
784.981,34.70637,-2.67415,0.86147,0.58692
785.681,34.72985,-2.67623,0.84073,0.58637
786.381,34.7534,-2.67695,0.82854,0.58582
787.081,34.7768,-2.67981,0.81036,0.58528
787.781,34.80028,-2.6816,0.79585,0.58473
788.481,34.8238,-2.68452,0.78245,0.58419
789.181,34.84738,-2.68646,0.76797,0.58364
789.881,34.87089,-2.68747,0.75325,0.5831
790.581,34.89433,-2.69022,0.74032,0.58255
791.281,34.91782,-2.69195,0.72628,0.58201
791.981,34.9413,-2.69292,0.71043,0.58146
792.681,34.9649,-2.69213,0.69859,0.58092
793.381,34.98834,-2.69355,0.67843,0.58038
793.681,34.99817,-2.69334,0.67678,0.58014