File: 01_Data/Lightweight_Gypsum_Wallboard_Unpainted_Paper/STA/N2/30K_min/Lightweight_Gypsum_Wallboard_Paper_STA_N2_30KData_220303_R3.csv
##Temp./Â°C,Time/min,DSC(subtr.2)/(mW/mg),Mass loss(subtr.2)/mg,Sensit./(uV/mW)
48.877,10.00917,0.0161301,-0.0271,1.08882
49.477,10.5259,0.05225509,-0.02824994,1.08832
50.077,10.64248,0.08447461,-0.02859269,1.08781
50.677,10.72793,0.11367,-0.02942923,1.08731
51.277,10.79618,0.14168,-0.02911511,1.0868
51.877,10.85523,0.16642,-0.02808649,1.0863
52.477,10.90798,0.18865,-0.02763154,1.08579
53.077,10.95625,0.21182,-0.02751734,1.08529
53.677,11.0006,0.23315,-0.02841467,1.08479
54.277,11.04176,0.25158,-0.02889852,1.08429
54.877,11.081,0.2722,-0.02633013,1.08379
55.477,11.11863,0.29007,-0.02685779,1.08329
56.077,11.1545,0.30972,-0.02870346,1.08279
56.677,11.1889,0.32547,-0.02950401,1.08229
57.277,11.2221,0.34074,-0.02976589,1.08179
57.877,11.25437,0.35919,-0.02937392,1.08129
58.477,11.28578,0.37557,-0.02989024,1.08079
59.077,11.31605,0.39028,-0.03036132,1.0803
59.677,11.34582,0.40402,-0.03105454,1.0798
60.277,11.37478,0.41635,-0.0308805,1.07931
60.877,11.40344,0.43147,-0.03029399,1.07881
61.477,11.43125,0.44441,-0.03081072,1.07832
62.077,11.4586,0.45883,-0.03039561,1.07782
62.677,11.48555,0.47082,-0.03124301,1.07733
63.277,11.51212,0.48367,-0.03187198,1.07684
63.877,11.5381,0.49325,-0.03228518,1.07635
64.477,11.5639,0.50735,-0.03210991,1.07586
65.077,11.58935,0.52077,-0.03190906,1.07537
65.677,11.61458,0.53076,-0.03071839,1.07488
66.277,11.6394,0.54084,-0.02972472,1.07439
66.877,11.6641,0.5549,-0.03053458,1.0739
67.477,11.68849,0.5634,-0.03133187,1.07341
68.077,11.71272,0.57367,-0.03155662,1.07292
68.677,11.73677,0.58531,-0.03222184,1.07244
69.277,11.7607,0.59585,-0.03227066,1.07195
69.877,11.78426,0.60442,-0.0318466,1.07147
70.477,11.80763,0.61402,-0.03162304,1.07098
71.077,11.8309,0.62369,-0.03143841,1.0705
71.677,11.85403,0.6343,-0.03123426,1.07001
72.277,11.8771,0.64257,-0.03069993,1.06953
72.877,11.89976,0.65309,-0.03134001,1.06905
73.477,11.9224,0.6644,-0.03239988,1.06857
74.077,11.9451,0.67063,-0.03225983,1.06809
74.677,11.96765,0.68207,-0.03242151,1.0676
75.277,11.99046,0.68896,-0.03273522,1.06712
75.877,12.0129,0.69771,-0.03369288,1.06665
76.477,12.03515,0.70841,-0.03418262,1.06617
77.077,12.05729,0.71757,-0.03520641,1.06569
77.677,12.0793,0.72571,-0.03487774,1.06521
78.277,12.10131,0.73548,-0.03643684,1.06474
78.877,12.1232,0.74321,-0.03574883,1.06426
79.477,12.14505,0.75292,-0.0359608,1.06378
80.077,12.1669,0.762,-0.03554072,1.06331
80.677,12.18866,0.76928,-0.03547775,1.06283
81.277,12.2103,0.77969,-0.03513583,1.06236
81.877,12.2319,0.78675,-0.03667862,1.06189
82.477,12.25335,0.79588,-0.0360369,1.06142
83.077,12.27477,0.80519,-0.03667205,1.06094
83.677,12.29619,0.8129,-0.03796122,1.06047
84.277,12.31746,0.82237,-0.03869486,1.06
84.877,12.33863,0.83125,-0.04118834,1.05953
85.477,12.35979,0.84091,-0.04026008,1.05906
86.077,12.38091,0.84825,-0.04027723,1.05859
86.677,12.40191,0.85605,-0.03937335,1.05813
87.277,12.42291,0.86404,-0.03895393,1.05766
87.877,12.44388,0.87153,-0.03894071,1.05719
88.477,12.46482,0.88108,-0.03893618,1.05673
89.077,12.48574,0.88748,-0.03888592,1.05626
89.677,12.50659,0.89796,-0.03997843,1.05579
90.277,12.5274,0.90534,-0.03857926,1.05533
90.877,12.54813,0.91387,-0.03987998,1.05487
91.477,12.56884,0.92174,-0.03989754,1.0544
92.077,12.58955,0.92995,-0.04078162,1.05394
92.677,12.61015,0.93914,-0.04059148,1.05348
93.277,12.6308,0.94861,-0.04167241,1.05302
93.877,12.65151,0.95723,-0.04178549,1.05256
94.477,12.6721,0.96455,-0.04305094,1.0521
95.077,12.69277,0.97185,-0.04302182,1.05164
95.677,12.71338,0.98054,-0.04336332,1.05118
96.277,12.7338,0.98977,-0.04513884,1.05072
96.877,12.75431,0.99705,-0.04561993,1.05026
97.477,12.77478,1.00436,-0.04593756,1.0498
98.077,12.79514,1.01599,-0.04698249,1.04935
98.677,12.8155,1.02202,-0.04696865,1.04889
99.277,12.83589,1.02941,-0.04759916,1.04844
99.877,12.85634,1.0404,-0.04826588,1.04798
100.477,12.87669,1.0484,-0.04828389,1.04753
101.077,12.89705,1.05704,-0.04904558,1.04707
101.677,12.91733,1.06781,-0.04958238,1.04662
102.277,12.93763,1.07659,-0.04957996,1.04617
102.877,12.95783,1.0853,-0.04957776,1.04572
103.477,12.9781,1.09455,-0.04955402,1.04527
104.077,12.9983,1.10168,-0.05086102,1.04482
104.677,13.01859,1.11206,-0.05088745,1.04437
105.277,13.039,1.12368,-0.05088419,1.04392
105.877,13.0593,1.13226,-0.05221415,1.04347
106.477,13.07952,1.13877,-0.05222222,1.04302
107.077,13.0998,1.14477,-0.0535486,1.04257
107.677,13.11995,1.15248,-0.05355758,1.04213
108.277,13.1401,1.15888,-0.05485834,1.04168
108.877,13.16032,1.16234,-0.0559291,1.04123
109.477,13.18056,1.16711,-0.05617694,1.04079
110.077,13.2007,1.17382,-0.05754406,1.04034
110.677,13.22088,1.17528,-0.05748795,1.0399
111.277,13.241,1.17926,-0.05752718,1.03946
111.877,13.2611,1.18213,-0.05776989,1.03901
112.477,13.28121,1.18599,-0.05857865,1.03857
113.077,13.30139,1.18619,-0.05887859,1.03813
113.677,13.32153,1.18912,-0.06015188,1.03769
114.277,13.3417,1.18949,-0.06006552,1.03725
114.877,13.3618,1.19026,-0.06127611,1.03681
115.477,13.3819,1.18971,-0.06144988,1.03637
116.077,13.4019,1.19094,-0.06282972,1.03593
116.677,13.42199,1.18953,-0.06274755,1.03549
117.277,13.44196,1.18947,-0.06276257,1.03506
117.877,13.462,1.19022,-0.06413716,1.03462
118.477,13.482,1.18692,-0.06466841,1.03418
119.077,13.50196,1.18536,-0.06534786,1.03375
119.677,13.52185,1.18608,-0.06539237,1.03331
120.277,13.5418,1.18321,-0.06573231,1.03288
120.877,13.5618,1.18015,-0.06731741,1.03244
121.477,13.5817,1.17733,-0.06766811,1.03201
122.077,13.60164,1.17578,-0.0688976,1.03158
122.677,13.62163,1.17366,-0.06932232,1.03115
123.277,13.64155,1.17045,-0.06950374,1.03071
123.877,13.66141,1.1672,-0.070646,1.03028
124.477,13.6812,1.16465,-0.07064046,1.02985
125.077,13.70093,1.16104,-0.07064059,1.02942
125.677,13.72069,1.15773,-0.07064679,1.02899
126.277,13.74044,1.15434,-0.07071914,1.02857
126.877,13.76019,1.15072,-0.07231135,1.02814
127.477,13.77995,1.14778,-0.07229129,1.02771
128.077,13.79964,1.14646,-0.07229062,1.02728
128.677,13.8195,1.14292,-0.07229502,1.02686
129.277,13.8392,1.14125,-0.07295074,1.02643
129.877,13.85885,1.13804,-0.07294344,1.02601
130.477,13.8785,1.13532,-0.07328422,1.02558
131.077,13.89814,1.13527,-0.07328022,1.02516
131.677,13.91784,1.13158,-0.07327591,1.02473
132.277,13.93738,1.13062,-0.07320901,1.02431
132.877,13.95704,1.12889,-0.07459957,1.02389
133.477,13.9766,1.12534,-0.07535904,1.02347
134.077,13.99598,1.12627,-0.07595094,1.02305
134.677,14.01547,1.1232,-0.07692696,1.02263
135.277,14.03496,1.12374,-0.07689246,1.02221
135.877,14.05445,1.12154,-0.07688346,1.02179
136.477,14.0739,1.12144,-0.07680154,1.02137
137.077,14.0934,1.12038,-0.07811652,1.02095
137.677,14.1128,1.11749,-0.07819831,1.02053
138.277,14.13212,1.11872,-0.07819834,1.02012
138.877,14.15153,1.11582,-0.07818298,1.0197
139.477,14.17092,1.11415,-0.07855296,1.01928
140.077,14.1902,1.11023,-0.07850286,1.01887
140.677,14.20956,1.10899,-0.08024482,1.01845
141.277,14.22889,1.10804,-0.08117271,1.01804
141.877,14.2482,1.1047,-0.08117075,1.01762
142.477,14.2674,1.10215,-0.0811699,1.01721
143.077,14.28664,1.09822,-0.08116665,1.0168
143.677,14.3059,1.09761,-0.08111894,1.01639
144.277,14.32511,1.09167,-0.08229036,1.01597
144.877,14.3443,1.08915,-0.08247724,1.01556
145.477,14.36359,1.08453,-0.08248901,1.01515
146.077,14.3827,1.081,-0.08248993,1.01474
146.677,14.40184,1.0771,-0.08249006,1.01433
147.277,14.4209,1.075,-0.08249063,1.01393
147.877,14.44007,1.07048,-0.08249444,1.01352
148.477,14.4592,1.06658,-0.08381307,1.01311
149.077,14.4784,1.06158,-0.08379631,1.0127
149.677,14.49756,1.06066,-0.0829703,1.0123
150.277,14.51668,1.05649,-0.0824865,1.01189
150.877,14.5357,1.05378,-0.08248915,1.01148
151.477,14.5546,1.05174,-0.0824832,1.01108
152.077,14.5735,1.04873,-0.08240906,1.01067
152.677,14.5925,1.04693,-0.08367502,1.01027
153.277,14.6115,1.04356,-0.08379825,1.00987
153.877,14.63054,1.04232,-0.08379987,1.00946
154.477,14.6497,1.03974,-0.08379977,1.00906
155.077,14.6688,1.03725,-0.0838017,1.00866
155.677,14.68785,1.03822,-0.08387488,1.00826
156.277,14.70685,1.0359,-0.08326935,1.00786
156.877,14.7259,1.03575,-0.0838176,1.00746
157.477,14.7449,1.03367,-0.08383582,1.00706
158.077,14.76387,1.03317,-0.08423057,1.00666
158.677,14.7828,1.03232,-0.08509038,1.00626
159.277,14.80151,1.03263,-0.08596448,1.00586
159.877,14.8203,1.03109,-0.08642262,1.00547
160.477,14.8393,1.03228,-0.08642992,1.00507
161.077,14.8583,1.03165,-0.08643004,1.00467
161.677,14.8773,1.0305,-0.08643,1.00428
162.277,14.89644,1.03078,-0.08643,1.00388
162.877,14.91535,1.02918,-0.08643,1.00349
163.477,14.93419,1.03099,-0.08643,1.00309
164.077,14.95307,1.03011,-0.08643006,1.0027
164.677,14.972,1.03,-0.08643067,1.00231
165.277,14.9909,1.02932,-0.08643563,1.00191
165.877,15.00983,1.03048,-0.08645664,1.00152
166.477,15.02871,1.03101,-0.08741461,1.00113
167.077,15.0475,1.03233,-0.08739304,1.00074
167.677,15.06634,1.03447,-0.08777,1.00035
168.277,15.08516,1.035,-0.08775198,0.99996
168.877,15.104,1.03377,-0.08774993,0.99957
169.477,15.1229,1.03545,-0.0877473,0.99918
170.077,15.1417,1.03719,-0.08772366,0.99879
170.677,15.1605,1.03516,-0.08851965,0.99841
171.277,15.1793,1.0377,-0.08906891,0.99802
171.877,15.1981,1.03812,-0.0890707,0.99763
172.477,15.2169,1.03905,-0.08907012,0.99724
173.077,15.2357,1.04034,-0.08907001,0.99686
173.677,15.25451,1.04313,-0.08907,0.99647
174.277,15.2732,1.04233,-0.08907,0.99609
174.877,15.292,1.04341,-0.08907,0.9957
175.477,15.31073,1.04542,-0.08907,0.99532
176.077,15.3295,1.04572,-0.08907,0.99494
176.677,15.3482,1.04839,-0.08907,0.99455
177.277,15.3669,1.05078,-0.08907,0.99417
177.877,15.38555,1.05099,-0.08906996,0.99379
178.477,15.4042,1.05003,-0.0890695,0.99341
179.077,15.42286,1.0519,-0.08906453,0.99303
179.677,15.4415,1.05384,-0.08962579,0.99265
180.277,15.4601,1.05405,-0.09036777,0.99227
180.877,15.4787,1.05762,-0.09038215,0.99189
181.477,15.49734,1.05924,-0.09045397,0.99151
182.077,15.51595,1.06089,-0.0890875,0.99113
182.677,15.5346,1.06157,-0.08906163,0.99075
183.277,15.5532,1.06394,-0.08906013,0.99038
183.877,15.5717,1.06348,-0.08906001,0.99
184.477,15.5902,1.0639,-0.08906,0.98962
185.077,15.6087,1.06898,-0.08905999,0.98925
185.677,15.6272,1.0682,-0.0890596,0.98887
186.277,15.6458,1.07211,-0.08905305,0.9885
186.877,15.66436,1.07247,-0.08993905,0.98812
187.477,15.6829,1.07604,-0.09035458,0.98775
188.077,15.70137,1.07665,-0.09038441,0.98737
188.677,15.7199,1.07891,-0.09040406,0.987
189.277,15.7383,1.08121,-0.09167089,0.98663
189.877,15.75675,1.08271,-0.09169331,0.98626
190.477,15.7753,1.08443,-0.09169922,0.98589
191.077,15.79367,1.08537,-0.09169994,0.98551
191.677,15.8121,1.08786,-0.09170006,0.98514
192.277,15.83056,1.0886,-0.09170036,0.98477
192.877,15.849,1.0906,-0.09169952,0.9844
193.477,15.8674,1.09423,-0.09164603,0.98404
194.077,15.8858,1.09446,-0.09238902,0.98367
194.677,15.90424,1.09735,-0.09202914,0.9833
195.277,15.9227,1.09642,-0.0917191,0.98293
195.877,15.94106,1.09871,-0.09169973,0.98256
196.477,15.95951,1.10173,-0.09169712,0.9822
197.077,15.9779,1.1036,-0.092246,0.98183
197.677,15.9963,1.10613,-0.09304093,0.98146
198.277,16.0147,1.1058,-0.09302695,0.9811
198.877,16.0331,1.10747,-0.09320064,0.98073
199.477,16.05144,1.11149,-0.09437493,0.98037
200.077,16.06984,1.11198,-0.09433295,0.98001
200.677,16.08817,1.11444,-0.09430423,0.97964
201.277,16.10654,1.11813,-0.09553592,0.97928
201.877,16.12487,1.11847,-0.09563824,0.97892
202.477,16.1432,1.12087,-0.09564889,0.97855
203.077,16.16154,1.12089,-0.09564908,0.97819
203.677,16.17989,1.12155,-0.09564673,0.97783
204.277,16.19816,1.12586,-0.09569727,0.97747
204.877,16.2165,1.12862,-0.09435417,0.97711
205.477,16.2348,1.12872,-0.09526324,0.97675
206.077,16.2531,1.13173,-0.09562443,0.97639
206.677,16.2714,1.13416,-0.09564916,0.97603
207.277,16.28976,1.13692,-0.09565228,0.97567
207.877,16.30809,1.13806,-0.09560601,0.97532
208.477,16.32647,1.13974,-0.09589814,0.97496
209.077,16.34478,1.14343,-0.09493772,0.9746
209.677,16.36308,1.14285,-0.0947957,0.97424
210.277,16.38138,1.14345,-0.09362534,0.97389
210.877,16.39963,1.14737,-0.09366867,0.97353
211.477,16.41789,1.14908,-0.0936815,0.97318
212.077,16.43619,1.1478,-0.09415357,0.97282
212.677,16.4544,1.15118,-0.09431287,0.97247
213.277,16.4727,1.15315,-0.09432864,0.97211
213.877,16.491,1.1551,-0.09432992,0.97176
214.477,16.50925,1.15518,-0.09433,0.9714
215.077,16.52745,1.15945,-0.09433001,0.97105
215.677,16.54577,1.15945,-0.09433013,0.9707
216.277,16.564,1.16095,-0.09433168,0.97035
216.877,16.58221,1.16378,-0.09434574,0.97
217.477,16.60043,1.16709,-0.09441563,0.96964
218.077,16.61871,1.16751,-0.09565441,0.96929
218.677,16.63692,1.16967,-0.09642032,0.96894
219.277,16.655,1.17223,-0.09695743,0.96859
219.877,16.67323,1.17479,-0.09688242,0.96824
220.477,16.69144,1.17396,-0.09810587,0.96789
221.077,16.7096,1.17797,-0.09828075,0.96755
221.677,16.7278,1.17831,-0.09824357,0.9672
222.277,16.74616,1.17954,-0.09937135,0.96685
222.877,16.76437,1.18349,-0.10085,0.9665
223.477,16.78264,1.18451,-0.10091,0.96615
224.077,16.80084,1.18554,-0.1009,0.96581
224.677,16.819,1.18946,-0.10157,0.96546
225.277,16.83721,1.1888,-0.10225,0.96512
225.877,16.85545,1.19376,-0.10223,0.96477
226.477,16.8736,1.19322,-0.10221,0.96442
227.077,16.89183,1.193,-0.10204,0.96408
227.677,16.91001,1.19743,-0.10227,0.96374
228.277,16.92815,1.19784,-0.10223,0.96339
228.877,16.94623,1.19855,-0.10223,0.96305
229.477,16.96435,1.20078,-0.10223,0.96271
230.077,16.9826,1.20059,-0.10223,0.96236
230.677,17.0007,1.20387,-0.10175,0.96202
231.277,17.01892,1.20292,-0.10091,0.96168
231.877,17.0371,1.20504,-0.1014,0.96134
232.477,17.05527,1.20741,-0.10227,0.961
233.077,17.07336,1.2088,-0.10228,0.96066
233.677,17.09149,1.21021,-0.10365,0.96031
234.277,17.10959,1.21283,-0.10358,0.95997
234.877,17.12772,1.2112,-0.10495,0.95964
235.477,17.1459,1.21231,-0.10497,0.9593
236.077,17.164,1.2173,-0.10503,0.95896
236.677,17.1821,1.21646,-0.10636,0.95862
237.277,17.20026,1.21804,-0.10706,0.95828
237.877,17.21836,1.22035,-0.1081,0.95794
238.477,17.23643,1.21948,-0.10943,0.95761
239.077,17.25457,1.22185,-0.10937,0.95727
239.677,17.27264,1.22165,-0.10938,0.95693
240.277,17.29075,1.22283,-0.10948,0.9566
240.877,17.30884,1.22279,-0.1109,0.95626
241.477,17.32692,1.22669,-0.11098,0.95592
242.077,17.345,1.22622,-0.10958,0.95559
242.677,17.3631,1.22888,-0.11064,0.95525
243.277,17.3812,1.22712,-0.11109,0.95492
243.877,17.39934,1.2293,-0.11111,0.95459
244.477,17.4175,1.22862,-0.11315,0.95425
245.077,17.4356,1.23392,-0.11408,0.95392
245.677,17.45368,1.23182,-0.11532,0.95359
246.277,17.4717,1.23326,-0.1162,0.95325
246.877,17.48982,1.23507,-0.11681,0.95292
247.477,17.50795,1.23858,-0.11816,0.95259
248.077,17.526,1.2364,-0.11833,0.95226
248.677,17.54411,1.23831,-0.11997,0.95193
249.277,17.56229,1.23985,-0.12089,0.9516
249.877,17.58041,1.23783,-0.1223,0.95126
250.477,17.59851,1.2396,-0.12323,0.95093
251.077,17.6166,1.23841,-0.12361,0.9506
251.677,17.6348,1.23986,-0.12356,0.95028
252.277,17.65296,1.23834,-0.12461,0.94995
252.877,17.67103,1.23978,-0.12501,0.94962
253.477,17.68908,1.24075,-0.12569,0.94929
254.077,17.7072,1.24052,-0.12638,0.94896
254.677,17.7253,1.24008,-0.12636,0.94863
255.277,17.74329,1.23905,-0.12712,0.94831
255.877,17.76141,1.23809,-0.12765,0.94798
256.477,17.77954,1.24085,-0.12767,0.94765
257.077,17.79758,1.23859,-0.12764,0.94732
257.677,17.81565,1.23999,-0.1289,0.947
258.277,17.8338,1.23934,-0.12912,0.94667
258.877,17.85183,1.23945,-0.13071,0.94635
259.477,17.86995,1.23739,-0.13137,0.94602
260.077,17.88806,1.23975,-0.13242,0.9457
260.677,17.90616,1.23845,-0.13374,0.94537
261.277,17.9242,1.23814,-0.13489,0.94505
261.877,17.94233,1.23865,-0.13537,0.94472
262.477,17.9604,1.23931,-0.13704,0.9444
263.077,17.97856,1.23735,-0.1387,0.94408
263.677,17.99667,1.23884,-0.13924,0.94375
264.277,18.01474,1.23595,-0.14054,0.94343
264.877,18.03286,1.23601,-0.14155,0.94311
265.477,18.0509,1.23713,-0.14262,0.94279
266.077,18.06904,1.2365,-0.14434,0.94246
266.677,18.08716,1.23888,-0.14608,0.94214
267.277,18.10528,1.23429,-0.14803,0.94182
267.877,18.1234,1.23688,-0.14989,0.9415
268.477,18.14154,1.23583,-0.15157,0.94118
269.077,18.15961,1.23822,-0.15262,0.94086
269.677,18.17772,1.23881,-0.15235,0.94054
270.277,18.19585,1.238,-0.15373,0.94022
270.877,18.21392,1.23728,-0.15559,0.9399
271.477,18.2319,1.23765,-0.15737,0.93958
272.077,18.25,1.23758,-0.15881,0.93926
272.677,18.2681,1.23483,-0.16059,0.93894
273.277,18.2862,1.23851,-0.16254,0.93863
273.877,18.3043,1.23646,-0.1646,0.93831
274.477,18.3224,1.23947,-0.16662,0.93799
275.077,18.34055,1.2385,-0.16986,0.93767
275.677,18.35865,1.23911,-0.17227,0.93736
276.277,18.3767,1.24171,-0.17466,0.93704
276.877,18.39479,1.24217,-0.1772,0.93672
277.477,18.41292,1.2439,-0.17845,0.93641
278.077,18.43102,1.24478,-0.18067,0.93609
278.677,18.4491,1.24634,-0.18317,0.93577
279.277,18.4672,1.2488,-0.1863,0.93546
279.877,18.48539,1.24934,-0.18907,0.93514
280.477,18.50349,1.25144,-0.19104,0.93483
281.077,18.52161,1.25129,-0.19373,0.93451
281.677,18.53976,1.25397,-0.19687,0.9342
282.277,18.5579,1.25963,-0.19917,0.93389
282.877,18.57599,1.261,-0.20176,0.93357
283.477,18.5941,1.26172,-0.20544,0.93326
284.077,18.61223,1.26528,-0.20815,0.93294
284.677,18.63038,1.2689,-0.21109,0.93263
285.277,18.64855,1.27075,-0.21426,0.93232
285.877,18.6667,1.2741,-0.21768,0.93201
286.477,18.68486,1.2785,-0.22098,0.93169
287.077,18.70296,1.28031,-0.22371,0.93138
287.677,18.72105,1.28746,-0.22758,0.93107
288.277,18.73915,1.28961,-0.23199,0.93076
288.877,18.75733,1.29422,-0.23473,0.93045
289.477,18.77551,1.29873,-0.23825,0.93013
290.077,18.79373,1.30322,-0.2422,0.92982
290.677,18.81196,1.31117,-0.24702,0.92951
291.277,18.83012,1.31422,-0.25124,0.9292
291.877,18.84829,1.32029,-0.25543,0.92889
292.477,18.86642,1.32325,-0.25998,0.92858
293.077,18.8845,1.3292,-0.26413,0.92827
293.677,18.90266,1.33375,-0.26967,0.92796
294.277,18.92084,1.34411,-0.27458,0.92765
294.877,18.93897,1.34864,-0.2802,0.92734
295.477,18.9572,1.35553,-0.2845,0.92704
296.077,18.9754,1.36091,-0.2896,0.92673
296.677,18.9936,1.3666,-0.29417,0.92642
297.277,19.01173,1.37531,-0.29974,0.92611
297.877,19.02996,1.38302,-0.30501,0.9258
298.477,19.04813,1.38711,-0.31057,0.92549
299.077,19.06635,1.39656,-0.31654,0.92519
299.677,19.08449,1.40552,-0.32172,0.92488
300.277,19.10267,1.41186,-0.32749,0.92457
300.877,19.1208,1.41682,-0.33292,0.92427
301.477,19.13899,1.42823,-0.34051,0.92396
302.077,19.15714,1.43736,-0.34603,0.92365
302.677,19.1753,1.4407,-0.35278,0.92335
303.277,19.19355,1.45327,-0.35835,0.92304
303.877,19.21174,1.45826,-0.36506,0.92273
304.477,19.22992,1.46817,-0.37177,0.92243
305.077,19.24802,1.47771,-0.37908,0.92212
305.677,19.26622,1.48647,-0.38708,0.92182
306.277,19.28442,1.49387,-0.39423,0.92151
306.877,19.3026,1.5005,-0.40284,0.92121
307.477,19.32085,1.51194,-0.40884,0.9209
308.077,19.33916,1.51964,-0.41824,0.9206
308.677,19.35735,1.52933,-0.42546,0.92029
309.277,19.37558,1.53702,-0.43394,0.91999
309.877,19.39386,1.54313,-0.44194,0.91969
310.477,19.41207,1.55526,-0.45043,0.91938
311.077,19.43035,1.56417,-0.45913,0.91908
311.677,19.44864,1.57237,-0.4687,0.91877
312.277,19.46686,1.58505,-0.47878,0.91847
312.877,19.48505,1.58987,-0.48778,0.91817
313.477,19.5033,1.59971,-0.49877,0.91787
314.077,19.5215,1.60735,-0.50769,0.91756
314.677,19.53976,1.6172,-0.5188,0.91726
315.277,19.558,1.62719,-0.52691,0.91696
315.877,19.57626,1.63535,-0.53693,0.91666
316.477,19.59445,1.6423,-0.54569,0.91635
317.077,19.61266,1.64988,-0.55704,0.91605
317.677,19.6309,1.65906,-0.56706,0.91575
318.277,19.64919,1.66909,-0.57729,0.91545
318.877,19.66747,1.6765,-0.58948,0.91515
319.477,19.6858,1.68535,-0.60023,0.91485
320.077,19.70403,1.6931,-0.61263,0.91454
320.677,19.72231,1.7024,-0.62271,0.91424
321.277,19.74055,1.71247,-0.63492,0.91394
321.877,19.75887,1.72146,-0.64403,0.91364
322.477,19.77717,1.7283,-0.65655,0.91334
323.077,19.7955,1.73608,-0.66756,0.91304
323.677,19.8138,1.74419,-0.68071,0.91274
324.277,19.83205,1.75599,-0.69187,0.91244
324.877,19.85029,1.7594,-0.70421,0.91214
325.477,19.8686,1.77047,-0.71743,0.91184
326.077,19.88683,1.77801,-0.73033,0.91154
326.677,19.90515,1.78537,-0.74383,0.91124
327.277,19.9235,1.79306,-0.75535,0.91094
327.877,19.94181,1.8037,-0.77028,0.91064
328.477,19.9601,1.81101,-0.78231,0.91034
329.077,19.97849,1.81855,-0.79799,0.91005
329.677,19.99681,1.82825,-0.80976,0.90975
330.277,20.01516,1.83354,-0.82498,0.90945
330.877,20.0335,1.84328,-0.83813,0.90915
331.477,20.0519,1.85183,-0.85352,0.90885
332.077,20.07018,1.86155,-0.86785,0.90855
332.677,20.08854,1.86608,-0.88196,0.90826
333.277,20.10687,1.87531,-0.89719,0.90796
333.877,20.12523,1.88173,-0.9111,0.90766
334.477,20.14355,1.88993,-0.92752,0.90736
335.077,20.1619,1.8979,-0.9409,0.90706
335.677,20.1802,1.90565,-0.95775,0.90677
336.277,20.19857,1.91763,-0.97122,0.90647
336.877,20.21686,1.92205,-0.98836,0.90617
337.477,20.2352,1.93173,-1.00216,0.90587
338.077,20.25356,1.93963,-1.01915,0.90558
338.677,20.27196,1.94699,-1.03428,0.90528
339.277,20.29029,1.95496,-1.0509,0.90498
339.877,20.3087,1.96357,-1.06765,0.90469
340.477,20.32711,1.97291,-1.08403,0.90439
341.077,20.34548,1.98006,-1.10247,0.90409
341.677,20.36386,1.98986,-1.1181,0.9038
342.277,20.3823,1.99653,-1.13677,0.9035
342.877,20.40063,2.00549,-1.1517,0.9032
343.477,20.41897,2.01659,-1.1704,0.90291
344.077,20.43736,2.02352,-1.18498,0.90261
344.677,20.45579,2.03421,-1.20358,0.90231
345.277,20.47419,2.04178,-1.21936,0.90202
345.877,20.49265,2.05193,-1.2388,0.90172
346.477,20.51109,2.0624,-1.25659,0.90143
347.077,20.52954,2.06926,-1.27532,0.90113
347.677,20.54792,2.07848,-1.29388,0.90084
348.277,20.56635,2.08843,-1.31131,0.90054
348.877,20.58478,2.09732,-1.33154,0.90024
349.477,20.60321,2.10884,-1.3485,0.89995
350.077,20.62165,2.11944,-1.3703,0.89965
350.677,20.64013,2.12676,-1.38778,0.89936
351.277,20.65854,2.13945,-1.40998,0.89906
351.877,20.67697,2.15006,-1.42714,0.89877
352.477,20.6954,2.16043,-1.44858,0.89847
353.077,20.71384,2.17213,-1.46612,0.89818
353.677,20.7323,2.18314,-1.4866,0.89788
354.277,20.75081,2.19281,-1.50575,0.89759
354.877,20.76928,2.20611,-1.52609,0.89729
355.477,20.78775,2.21645,-1.54706,0.897
356.077,20.8061,2.22765,-1.56649,0.8967
356.677,20.82452,2.23925,-1.58876,0.89641
357.277,20.84299,2.25385,-1.60778,0.89611
357.877,20.86148,2.26093,-1.63197,0.89582
358.477,20.88,2.27363,-1.65169,0.89552
359.077,20.89856,2.28318,-1.67733,0.89523
359.677,20.91704,2.29502,-1.69705,0.89494
360.277,20.9356,2.302,-1.72188,0.89464
360.877,20.95407,2.31419,-1.74223,0.89435
361.477,20.97259,2.32166,-1.76599,0.89405
362.077,20.9911,2.32968,-1.78777,0.89376
362.677,21.0096,2.33697,-1.81094,0.89346
363.277,21.02814,2.34208,-1.83445,0.89317
363.877,21.0467,2.34701,-1.85656,0.89288
364.477,21.0652,2.35312,-1.88158,0.89258
365.077,21.0837,2.35382,-1.90325,0.89229
365.677,21.1022,2.35633,-1.9301,0.89199
366.277,21.1207,2.35731,-1.95138,0.8917
366.877,21.13919,2.35665,-1.97801,0.89141
367.477,21.1577,2.35341,-1.99842,0.89111
368.077,21.17619,2.34864,-2.02433,0.89082
368.677,21.1948,2.3398,-2.04641,0.89052
369.277,21.21331,2.33233,-2.07247,0.89023
369.877,21.23187,2.31983,-2.09415,0.88994
370.477,21.25045,2.30752,-2.11729,0.88964
371.077,21.26904,2.29213,-2.14008,0.88935
371.677,21.28758,2.27236,-2.1623,0.88905
372.277,21.30609,2.25009,-2.18638,0.88876
372.877,21.32459,2.22535,-2.20726,0.88847
373.477,21.34296,2.19865,-2.23162,0.88817
374.077,21.3613,2.169,-2.25121,0.88788
374.677,21.37985,2.13959,-2.2759,0.88759
375.277,21.39845,2.10503,-2.29439,0.88729
375.877,21.41699,2.06643,-2.31722,0.887
376.477,21.4357,2.0279,-2.33485,0.8867
377.077,21.45433,1.98723,-2.35571,0.88641
377.677,21.4728,1.94288,-2.37191,0.88612
378.277,21.4913,1.89801,-2.39016,0.88582
378.877,21.5099,1.85245,-2.4071,0.88553
379.477,21.52842,1.80418,-2.42566,0.88523
380.077,21.54702,1.75615,-2.44599,0.88494
380.677,21.5656,1.70743,-2.46379,0.88465
381.277,21.5841,1.65435,-2.48208,0.88435
381.877,21.60266,1.60445,-2.49591,0.88406
382.477,21.62121,1.5482,-2.51259,0.88377
383.077,21.63966,1.4987,-2.52534,0.88347
383.677,21.65821,1.43989,-2.54081,0.88318
384.277,21.67674,1.38659,-2.5519,0.88288
384.877,21.69523,1.32981,-2.56581,0.88259
385.477,21.71375,1.27431,-2.57701,0.8823
386.077,21.73229,1.22064,-2.58859,0.882
386.677,21.75074,1.16533,-2.5984,0.88171
387.277,21.7693,1.11332,-2.60831,0.88141
387.877,21.78781,1.06057,-2.6183,0.88112
388.477,21.80634,1.00459,-2.6274,0.88082
389.077,21.82485,0.95477,-2.63655,0.88053
389.677,21.84337,0.9089,-2.64414,0.88024
390.277,21.86186,0.85717,-2.65145,0.87994
390.877,21.8804,0.81318,-2.65707,0.87965
391.477,21.8989,0.77205,-2.66539,0.87935
392.077,21.91741,0.72908,-2.67064,0.87906
392.677,21.936,0.69038,-2.67672,0.87876
393.277,21.95455,0.65436,-2.68076,0.87847
393.877,21.97314,0.62114,-2.68554,0.87818
394.477,21.9917,0.58893,-2.68899,0.87788
395.077,22.01026,0.56087,-2.69208,0.87759
395.677,22.0288,0.53504,-2.6958,0.87729
396.277,22.04734,0.51083,-2.69896,0.877
396.877,22.06583,0.486,-2.70178,0.8767
397.477,22.0844,0.46727,-2.70428,0.87641
398.077,22.103,0.44932,-2.70682,0.87611
398.677,22.1216,0.43207,-2.70985,0.87582
399.277,22.14017,0.41679,-2.71261,0.87552
399.877,22.15876,0.40442,-2.71447,0.87523
400.477,22.17732,0.38863,-2.71617,0.87493
401.077,22.19593,0.37749,-2.71724,0.87464
401.677,22.21455,0.36734,-2.71907,0.87434
402.277,22.2331,0.35716,-2.72071,0.87405
402.877,22.25167,0.34835,-2.72256,0.87375
403.477,22.27032,0.33849,-2.72461,0.87345
404.077,22.28893,0.33124,-2.72634,0.87316
404.677,22.30751,0.32419,-2.72817,0.87286
405.277,22.32617,0.31784,-2.73044,0.87257
405.877,22.34486,0.31042,-2.73233,0.87227
406.477,22.3635,0.30423,-2.73382,0.87198
407.077,22.38216,0.29639,-2.73514,0.87168
407.677,22.40083,0.29186,-2.73636,0.87138
408.277,22.41946,0.28954,-2.73811,0.87109
408.877,22.43814,0.28043,-2.7399,0.87079
409.477,22.45678,0.27721,-2.74153,0.87049
410.077,22.4755,0.2743,-2.74317,0.8702
410.677,22.4942,0.26882,-2.74485,0.8699
411.277,22.513,0.26484,-2.74657,0.86961
411.877,22.5317,0.26221,-2.74827,0.86931
412.477,22.5504,0.25624,-2.74985,0.86901
413.077,22.5691,0.25435,-2.75104,0.86871
413.677,22.58782,0.24885,-2.75301,0.86842
414.277,22.60651,0.24455,-2.75492,0.86812
414.877,22.62521,0.23992,-2.75734,0.86782
415.477,22.64392,0.23733,-2.76041,0.86753
416.077,22.6627,0.23344,-2.76216,0.86723
416.677,22.68133,0.23041,-2.76347,0.86693
417.277,22.70009,0.22742,-2.76464,0.86663
417.877,22.71878,0.22677,-2.76636,0.86634
418.477,22.73753,0.22416,-2.76826,0.86604
419.077,22.75625,0.21819,-2.76988,0.86574
419.677,22.77498,0.2158,-2.77163,0.86544
420.277,22.79374,0.21301,-2.77307,0.86514
420.877,22.81253,0.20989,-2.77433,0.86484
421.477,22.83115,0.20685,-2.77545,0.86455
422.077,22.84992,0.20319,-2.77734,0.86425
422.677,22.8687,0.1993,-2.7791,0.86395
423.277,22.8874,0.19883,-2.78096,0.86365
423.877,22.9061,0.19483,-2.78259,0.86335
424.477,22.92503,0.19306,-2.78381,0.86305
425.077,22.94379,0.19064,-2.78574,0.86275
425.677,22.96262,0.1879,-2.78751,0.86245
426.277,22.98142,0.18554,-2.78891,0.86215
426.877,23.0002,0.18307,-2.79037,0.86185
427.477,23.01901,0.18018,-2.79062,0.86155
428.077,23.0378,0.17729,-2.7918,0.86125
428.677,23.05658,0.17526,-2.79354,0.86095
429.277,23.07537,0.1749,-2.79533,0.86065
429.877,23.0942,0.17188,-2.79749,0.86035
430.477,23.11296,0.17027,-2.79983,0.86005
431.077,23.13179,0.16816,-2.80218,0.85975
431.677,23.15063,0.16721,-2.8045,0.85945
432.277,23.16945,0.16662,-2.80668,0.85915
432.877,23.18824,0.16514,-2.80854,0.85885
433.477,23.20709,0.16213,-2.81029,0.85855
434.077,23.2259,0.16261,-2.81109,0.85825
434.677,23.24474,0.16106,-2.81353,0.85795
435.277,23.26365,0.15984,-2.81551,0.85764
435.877,23.2825,0.15865,-2.81728,0.85734
436.477,23.30133,0.15638,-2.81784,0.85704
437.077,23.32019,0.15578,-2.8192,0.85674
437.677,23.33902,0.15372,-2.81981,0.85644
438.277,23.35785,0.15507,-2.82068,0.85613
438.877,23.37671,0.15262,-2.82199,0.85583
439.477,23.39556,0.15324,-2.82219,0.85553
440.077,23.41444,0.15297,-2.82372,0.85523
440.677,23.43325,0.15147,-2.82494,0.85492
441.277,23.45212,0.14873,-2.82621,0.85462
441.877,23.47101,0.14951,-2.82721,0.85432
442.477,23.4898,0.15175,-2.82894,0.85401
443.077,23.50871,0.14915,-2.83074,0.85371
443.677,23.52765,0.14917,-2.83309,0.8534
444.277,23.5465,0.14746,-2.83598,0.8531
444.877,23.56543,0.14707,-2.83777,0.8528
445.477,23.58434,0.15153,-2.83947,0.85249
446.077,23.60325,0.15049,-2.84108,0.85219
446.677,23.62213,0.15132,-2.84214,0.85188
447.277,23.64104,0.1507,-2.84381,0.85158
447.877,23.65992,0.14887,-2.84562,0.85127
448.477,23.6788,0.1507,-2.84621,0.85097
449.077,23.69772,0.15078,-2.84715,0.85066
449.677,23.7166,0.151,-2.84862,0.85035
450.277,23.7356,0.15305,-2.84955,0.85005
450.877,23.75452,0.15882,-2.8511,0.84974
451.477,23.77349,0.15443,-2.85242,0.84944
452.077,23.79243,0.157,-2.85397,0.84913
452.677,23.81135,0.15631,-2.85496,0.84882
453.277,23.8303,0.15886,-2.85574,0.84852
453.877,23.84923,0.15741,-2.85677,0.84821
454.477,23.86816,0.16117,-2.85824,0.8479
455.077,23.88716,0.16405,-2.85935,0.84759
455.677,23.90612,0.16273,-2.86064,0.84729
456.277,23.9251,0.1622,-2.862,0.84698
456.877,23.94409,0.16843,-2.86285,0.84667
457.477,23.9631,0.16864,-2.86351,0.84636
458.077,23.982,0.17118,-2.8653,0.84605
458.677,24.00106,0.1707,-2.86719,0.84574
459.277,24.02,0.17141,-2.86782,0.84543
459.877,24.03894,0.17451,-2.86828,0.84512
460.477,24.05783,0.17626,-2.87017,0.84481
461.077,24.07674,0.18053,-2.87212,0.84451
461.677,24.09569,0.17869,-2.87276,0.8442
462.277,24.11467,0.1834,-2.87413,0.84389
462.877,24.1337,0.18356,-2.87526,0.84357
463.477,24.1527,0.18394,-2.87777,0.84326
464.077,24.17176,0.18658,-2.8793,0.84295
464.677,24.19077,0.18758,-2.8805,0.84264
465.277,24.2098,0.19045,-2.8812,0.84233
465.877,24.22878,0.1895,-2.88246,0.84202
466.477,24.2478,0.19177,-2.88446,0.84171
467.077,24.2668,0.19317,-2.88541,0.8414
467.677,24.28584,0.19389,-2.88705,0.84108
468.277,24.30483,0.19304,-2.88867,0.84077
468.877,24.32386,0.19597,-2.89081,0.84046
469.477,24.34289,0.19821,-2.89193,0.84015
470.077,24.3619,0.19923,-2.89326,0.83983
470.677,24.38102,0.20098,-2.89453,0.83952
471.277,24.40012,0.19986,-2.89605,0.83921
471.877,24.4192,0.20238,-2.89758,0.83889
472.477,24.4382,0.20461,-2.89781,0.83858
473.077,24.45731,0.20775,-2.89935,0.83826
473.677,24.47635,0.20667,-2.90071,0.83795
474.277,24.4954,0.205,-2.90119,0.83763
474.877,24.51451,0.2062,-2.90246,0.83732
475.477,24.5336,0.21334,-2.90325,0.837
476.077,24.55266,0.2096,-2.90381,0.83669
476.677,24.57175,0.21317,-2.90545,0.83637
477.277,24.59082,0.21261,-2.90633,0.83606
477.877,24.60987,0.21825,-2.90713,0.83574
478.477,24.629,0.21652,-2.90865,0.83542
479.077,24.64809,0.21425,-2.90863,0.83511
479.677,24.66716,0.21578,-2.90988,0.83479
480.277,24.68626,0.2152,-2.90985,0.83447
480.877,24.70534,0.21455,-2.91223,0.83415
481.477,24.7244,0.21743,-2.91274,0.83384
482.077,24.7436,0.21699,-2.9141,0.83352
482.677,24.76269,0.21922,-2.91397,0.8332
483.277,24.7818,0.21606,-2.91519,0.83288
483.877,24.80095,0.21637,-2.91532,0.83256
484.477,24.82003,0.21776,-2.91641,0.83224
485.077,24.83916,0.21883,-2.91678,0.83192
485.677,24.85825,0.21895,-2.91813,0.8316
486.277,24.87739,0.21742,-2.91815,0.83128
486.877,24.89648,0.21837,-2.9195,0.83096
487.477,24.9156,0.21977,-2.91996,0.83064
488.077,24.93473,0.22073,-2.92118,0.83032
488.677,24.95382,0.22021,-2.92231,0.83
489.277,24.9729,0.22277,-2.92284,0.82968
489.877,24.99211,0.22227,-2.92424,0.82936
490.477,25.01126,0.22437,-2.92551,0.82903
491.077,25.03036,0.22373,-2.92581,0.82871
491.677,25.0496,0.22019,-2.9271,0.82839
492.277,25.06867,0.22417,-2.92708,0.82807
492.877,25.0878,0.22194,-2.92831,0.82774
493.477,25.10685,0.22398,-2.92844,0.82742
494.077,25.12604,0.22683,-2.92928,0.8271
494.677,25.14518,0.22295,-2.93092,0.82677
495.277,25.16433,0.22427,-2.93089,0.82645
495.877,25.18357,0.22464,-2.93223,0.82612
496.477,25.2028,0.22329,-2.93214,0.8258
497.077,25.22198,0.22556,-2.93215,0.82547
497.677,25.24117,0.22166,-2.93353,0.82515
498.277,25.26042,0.22428,-2.93345,0.82482
498.877,25.2795,0.22448,-2.93345,0.8245
499.477,25.29872,0.22541,-2.93372,0.82417
500.077,25.31796,0.22561,-2.93609,0.82384
500.677,25.33716,0.22568,-2.93608,0.82352
501.277,25.35633,0.22512,-2.93717,0.82319
501.877,25.37558,0.22682,-2.93733,0.82286
502.477,25.39476,0.2262,-2.93855,0.82253
503.077,25.414,0.22406,-2.93884,0.82221
503.677,25.4332,0.22609,-2.9405,0.82188
504.277,25.4525,0.2272,-2.94064,0.82155
504.877,25.4718,0.22512,-2.94169,0.82122
505.477,25.49107,0.22529,-2.94175,0.82089
506.077,25.51034,0.22771,-2.94302,0.82056
506.677,25.52961,0.22787,-2.94299,0.82023
507.277,25.5488,0.22824,-2.9445,0.8199
507.877,25.56811,0.22684,-2.94448,0.81957
508.477,25.5873,0.22854,-2.94593,0.81924
509.077,25.6066,0.22642,-2.94638,0.81891
509.677,25.62582,0.23031,-2.94732,0.81858
510.277,25.6451,0.22656,-2.94884,0.81824
510.877,25.66439,0.22841,-2.94984,0.81791
511.477,25.68368,0.22978,-2.95023,0.81758
512.077,25.70298,0.22794,-2.95156,0.81725
512.677,25.7223,0.2278,-2.95243,0.81691
513.277,25.7416,0.22915,-2.95443,0.81658
513.877,25.76091,0.22844,-2.95492,0.81625
514.477,25.78022,0.22667,-2.95595,0.81591
515.077,25.79951,0.22788,-2.95747,0.81558
515.677,25.81887,0.2275,-2.95853,0.81524
516.277,25.83824,0.22829,-2.95895,0.81491
516.877,25.8575,0.22586,-2.96074,0.81457
517.477,25.87687,0.22761,-2.9615,0.81424
518.077,25.89619,0.22757,-2.96222,0.8139
518.677,25.91554,0.22853,-2.9628,0.81356
519.277,25.93488,0.22751,-2.96351,0.81323
519.877,25.95423,0.22735,-2.96349,0.81289
520.477,25.9735,0.22764,-2.96334,0.81255
521.077,25.9928,0.22759,-2.96354,0.81221
521.677,26.01214,0.22523,-2.96345,0.81187
522.277,26.03146,0.22483,-2.96465,0.81154
522.877,26.05084,0.22515,-2.96482,0.8112
523.477,26.07023,0.22578,-2.96525,0.81086
524.077,26.0896,0.22546,-2.96613,0.81052
524.677,26.10887,0.22653,-2.96644,0.81018
525.277,26.12818,0.22346,-2.96748,0.80984
525.877,26.14753,0.22237,-2.96828,0.8095
526.477,26.16684,0.22537,-2.96885,0.80916
527.077,26.1862,0.22508,-2.97022,0.80882
527.677,26.20559,0.22483,-2.97039,0.80847
528.277,26.22496,0.22469,-2.97142,0.80813
528.877,26.2443,0.22747,-2.97181,0.80779
529.477,26.2637,0.22691,-2.97265,0.80745
530.077,26.2831,0.22425,-2.97315,0.8071
530.677,26.3025,0.22778,-2.97342,0.80676
531.277,26.32194,0.22628,-2.97458,0.80642
531.877,26.3413,0.22813,-2.97551,0.80607
532.477,26.36075,0.22866,-2.97724,0.80573
533.077,26.38017,0.22576,-2.97721,0.80538
533.677,26.39951,0.22609,-2.97722,0.80504
534.277,26.4189,0.22425,-2.97851,0.80469
534.877,26.4383,0.22701,-2.97852,0.80435
535.477,26.4577,0.22527,-2.97854,0.804
536.077,26.4771,0.22539,-2.97931,0.80365
536.677,26.49648,0.22747,-2.97984,0.80331
537.277,26.5159,0.22794,-2.97984,0.80296
537.877,26.53528,0.22848,-2.98089,0.80261
538.477,26.5547,0.22462,-2.98124,0.80226
539.077,26.5741,0.22669,-2.98211,0.80191
539.677,26.59358,0.22799,-2.98245,0.80157
540.277,26.61297,0.22938,-2.98191,0.80122
540.877,26.6324,0.22934,-2.98208,0.80087
541.477,26.6517,0.23282,-2.98329,0.80052
542.077,26.67114,0.23717,-2.98314,0.80017
542.677,26.69047,0.23716,-2.98305,0.79982
543.277,26.70982,0.24273,-2.98389,0.79946
543.877,26.72922,0.24578,-2.9839,0.79911
544.477,26.74863,0.24531,-2.98519,0.79876
545.077,26.7681,0.24834,-2.98522,0.79841
545.677,26.7876,0.25045,-2.9855,0.79806
546.277,26.807,0.25243,-2.98667,0.7977
546.877,26.8264,0.25362,-2.98721,0.79735
547.477,26.84582,0.25484,-2.98721,0.797
548.077,26.86526,0.25832,-2.98755,0.79664
548.677,26.8847,0.25939,-2.98856,0.79629
549.277,26.9042,0.26197,-2.98858,0.79593
549.877,26.9236,0.26254,-2.98993,0.79558
550.477,26.94308,0.26387,-2.98986,0.79522
551.077,26.9625,0.26496,-2.99149,0.79487
551.677,26.98193,0.26591,-2.992,0.79451
552.277,27.0013,0.26992,-2.99277,0.79415
552.877,27.0207,0.26946,-2.99285,0.7938
553.477,27.0402,0.27493,-2.99414,0.79344
554.077,27.0596,0.27417,-2.99411,0.79308
554.677,27.07906,0.27464,-2.9941,0.79272
555.277,27.09853,0.27559,-2.99542,0.79236
555.877,27.118,0.27786,-2.99542,0.792
556.477,27.13737,0.27959,-2.99661,0.79164
557.077,27.1568,0.27974,-2.99673,0.79128
557.677,27.17628,0.28119,-2.99674,0.79092
558.277,27.19572,0.28426,-2.99674,0.79056
558.877,27.21517,0.28236,-2.99669,0.7902
559.477,27.2347,0.28221,-2.99784,0.78984
560.077,27.25426,0.28529,-2.99806,0.78948
560.677,27.2738,0.28608,-2.9983,0.78912
561.277,27.29328,0.28272,-2.99953,0.78875
561.877,27.31281,0.28481,-3.00009,0.78839
562.477,27.3323,0.28402,-3.00335,0.78803
563.077,27.3518,0.28663,-3.00334,0.78766
563.677,27.3712,0.28552,-3.00463,0.7873
564.277,27.39064,0.28378,-3.00357,0.78693
564.877,27.4101,0.28368,-3.00423,0.78657
565.477,27.42955,0.28178,-3.00335,0.7862
566.077,27.44905,0.27948,-3.00431,0.78584
566.677,27.46858,0.28356,-3.00431,0.78547
567.277,27.48811,0.27878,-3.00431,0.7851
567.877,27.5076,0.27809,-3.00431,0.78474
568.477,27.52706,0.27806,-3.00431,0.78437
569.077,27.54655,0.27317,-3.00431,0.784
569.677,27.56605,0.27267,-3.00431,0.78363
570.277,27.5856,0.26756,-3.00431,0.78326
570.877,27.6052,0.26546,-3.00431,0.78289
571.477,27.62477,0.26579,-3.00431,0.78252
572.077,27.6444,0.26397,-3.00431,0.78215
572.677,27.6639,0.26029,-3.00436,0.78178
573.277,27.68351,0.26179,-3.00565,0.78141
573.877,27.70301,0.258,-3.00691,0.78104
574.477,27.72257,0.25669,-3.00738,0.78067
575.077,27.74205,0.25402,-3.00884,0.7803
575.677,27.7616,0.25081,-3.01045,0.77993
576.277,27.78117,0.2526,-3.01035,0.77955
576.877,27.8008,0.25031,-3.01034,0.77918
577.477,27.8203,0.2505,-3.01033,0.77881
578.077,27.8399,0.24897,-3.01106,0.77843
578.677,27.8595,0.24869,-3.01165,0.77806
579.277,27.879,0.24816,-3.01231,0.77768
579.877,27.8986,0.2472,-3.01298,0.77731
580.477,27.9181,0.24436,-3.01353,0.77693
581.077,27.93768,0.24265,-3.01438,0.77655
581.677,27.95725,0.24288,-3.017,0.77618
582.277,27.97682,0.24088,-3.01725,0.7758
582.877,27.99648,0.24165,-3.01796,0.77542
583.477,28.016,0.23689,-3.01856,0.77504
584.077,28.0356,0.24042,-3.01856,0.77467
584.677,28.05527,0.2365,-3.01851,0.77429
585.277,28.0749,0.23891,-3.01967,0.77391
585.877,28.0946,0.23687,-3.01984,0.77353
586.477,28.11419,0.23342,-3.01948,0.77315
587.077,28.13376,0.2328,-3.01998,0.77277
587.677,28.1533,0.23336,-3.02009,0.77239
588.277,28.17292,0.23142,-3.02125,0.772
588.877,28.19247,0.23053,-3.0212,0.77162
589.477,28.21207,0.23209,-3.02122,0.77124
590.077,28.2317,0.22742,-3.02261,0.77086
590.677,28.25132,0.22849,-3.02252,0.77047
591.277,28.27093,0.22905,-3.0225,0.77009
591.877,28.29053,0.22725,-3.02329,0.76971
592.477,28.3101,0.22571,-3.02383,0.76932
593.077,28.32974,0.2255,-3.02386,0.76894
593.677,28.34934,0.22284,-3.02448,0.76855
594.277,28.36897,0.22566,-3.02448,0.76817
594.877,28.3886,0.22364,-3.02509,0.76778
595.477,28.40826,0.22623,-3.02581,0.76739
596.077,28.4279,0.22307,-3.02577,0.76701
596.677,28.4476,0.2229,-3.02706,0.76662
597.277,28.4673,0.22551,-3.02713,0.76623
597.877,28.4869,0.22363,-3.02759,0.76584
598.477,28.5066,0.22147,-3.02735,0.76545
599.077,28.52624,0.22014,-3.02714,0.76506
599.677,28.5459,0.2213,-3.02725,0.76467
600.277,28.5656,0.22349,-3.02851,0.76428
600.877,28.58522,0.2225,-3.02845,0.76389
601.477,28.6049,0.22061,-3.02845,0.7635
602.077,28.62456,0.22151,-3.02872,0.76311
602.677,28.64425,0.21863,-3.02991,0.76272
603.277,28.66395,0.21855,-3.03067,0.76233
603.877,28.6837,0.21947,-3.03074,0.76193
604.477,28.7035,0.2179,-3.02977,0.76154
605.077,28.7232,0.21834,-3.03108,0.76115
605.677,28.743,0.21837,-3.03117,0.76075
606.277,28.76275,0.21981,-3.03187,0.76036
606.877,28.78247,0.22058,-3.03347,0.75996
607.477,28.8022,0.22087,-3.03481,0.75957
608.077,28.82185,0.22101,-3.03519,0.75917
608.677,28.8415,0.2185,-3.03656,0.75877
609.277,28.8612,0.22211,-3.03787,0.75838
609.877,28.88095,0.22316,-3.03787,0.75798
610.477,28.9006,0.2222,-3.03787,0.75758
611.077,28.92033,0.21986,-3.03789,0.75718
611.677,28.94005,0.22018,-3.03682,0.75679
612.277,28.9597,0.21874,-3.03656,0.75639
612.877,28.9795,0.22205,-3.03656,0.75599
613.477,28.99922,0.2202,-3.03656,0.75559
614.077,29.0189,0.22203,-3.03655,0.75519
614.677,29.03865,0.21924,-3.03785,0.75479
615.277,29.0583,0.22297,-3.03787,0.75438
615.877,29.0781,0.22248,-3.03843,0.75398
616.477,29.0978,0.22218,-3.0392,0.75358
617.077,29.11747,0.22174,-3.03968,0.75318
617.677,29.13717,0.22509,-3.04071,0.75277
618.277,29.157,0.22621,-3.04235,0.75237
618.877,29.17673,0.22861,-3.04328,0.75197
619.477,29.19647,0.22775,-3.04392,0.75156
620.077,29.21627,0.22793,-3.04552,0.75116
620.677,29.23603,0.23039,-3.0462,0.75075
621.277,29.2557,0.2297,-3.04693,0.75035
621.877,29.2755,0.23181,-3.04819,0.74994
622.477,29.29532,0.23023,-3.04839,0.74953
623.077,29.3151,0.23338,-3.0484,0.74913
623.677,29.3348,0.23286,-3.04839,0.74872
624.277,29.3546,0.23311,-3.04811,0.74831
624.877,29.37436,0.23513,-3.04704,0.7479
625.477,29.394,0.23529,-3.04709,0.74749
626.077,29.4137,0.23325,-3.04709,0.74708
626.677,29.43348,0.23606,-3.04709,0.74667
627.277,29.45318,0.23605,-3.04714,0.74626
627.877,29.4729,0.23496,-3.04624,0.74585
628.477,29.49274,0.23685,-3.04678,0.74544
629.077,29.51258,0.23712,-3.04728,0.74503
629.677,29.5324,0.23793,-3.0471,0.74462
630.277,29.55217,0.24074,-3.04733,0.7442
630.877,29.572,0.24256,-3.04841,0.74379
631.477,29.59173,0.2412,-3.04845,0.74338
632.077,29.6115,0.24735,-3.04781,0.74296
632.677,29.63125,0.24755,-3.04837,0.74255
633.277,29.65105,0.24861,-3.04839,0.74213
633.877,29.67083,0.24553,-3.0484,0.74172
634.477,29.6906,0.25193,-3.04849,0.7413
635.077,29.71033,0.25054,-3.04971,0.74088
635.677,29.7301,0.25275,-3.05012,0.74047
636.277,29.74982,0.25453,-3.05102,0.74005
636.877,29.76956,0.2543,-3.05103,0.73963
637.477,29.78937,0.25504,-3.05171,0.73921
638.077,29.8091,0.25741,-3.05235,0.73879
638.677,29.8289,0.2613,-3.05366,0.73838
639.277,29.8487,0.26178,-3.05495,0.73796
639.877,29.86845,0.26336,-3.05498,0.73754
640.477,29.88818,0.26461,-3.05633,0.73712
641.077,29.90799,0.26976,-3.05635,0.73669
641.677,29.92779,0.27009,-3.05794,0.73627
642.277,29.94758,0.27439,-3.05887,0.73585
642.877,29.96739,0.27229,-3.05951,0.73543
643.477,29.98725,0.27459,-3.0603,0.73501
644.077,30.007,0.27496,-3.05992,0.73458
644.677,30.0268,0.28218,-3.05997,0.73416
645.277,30.04666,0.28282,-3.06129,0.73373
645.877,30.06649,0.28393,-3.06126,0.73331
646.477,30.08623,0.28496,-3.06193,0.73288
647.077,30.10606,0.28427,-3.06257,0.73246
647.677,30.12585,0.28891,-3.06292,0.73203
648.277,30.1456,0.29041,-3.06397,0.7316
648.877,30.1654,0.29239,-3.06519,0.73118
649.477,30.1852,0.29484,-3.06541,0.73075
650.077,30.205,0.29582,-3.06596,0.73032
650.677,30.2247,0.29774,-3.06673,0.72989
651.277,30.24455,0.29878,-3.06672,0.72946
651.877,30.26435,0.29966,-3.06672,0.72904
652.477,30.2842,0.30223,-3.06671,0.72861
653.077,30.304,0.30137,-3.06746,0.72817
653.677,30.32385,0.30713,-3.0691,0.72774
654.277,30.3437,0.30743,-3.06903,0.72731
654.877,30.3636,0.30508,-3.06904,0.72688
655.477,30.3834,0.30816,-3.0694,0.72645
656.077,30.4033,0.30804,-3.07034,0.72602
656.677,30.4231,0.31011,-3.0703,0.72558
657.277,30.4429,0.31062,-3.0713,0.72515
657.877,30.46272,0.31076,-3.07166,0.72471
658.477,30.4825,0.31008,-3.07203,0.72428
659.077,30.5023,0.31359,-3.07329,0.72384
659.677,30.5221,0.31596,-3.07392,0.72341
660.277,30.5419,0.31565,-3.07457,0.72297
660.877,30.5617,0.31692,-3.0755,0.72254
661.477,30.58166,0.32124,-3.07433,0.7221
662.077,30.60152,0.31761,-3.07562,0.72166
662.677,30.62132,0.32121,-3.07442,0.72122
663.277,30.6411,0.32184,-3.07449,0.72079
663.877,30.661,0.32441,-3.0745,0.72035
664.477,30.68083,0.32926,-3.0745,0.71991
665.077,30.7007,0.32685,-3.0745,0.71947
665.677,30.7206,0.3301,-3.07499,0.71903
666.277,30.7405,0.33132,-3.07601,0.71859
666.877,30.76036,0.33296,-3.07764,0.71815
667.477,30.78025,0.3368,-3.07761,0.7177
668.077,30.80009,0.33741,-3.07892,0.71726
668.677,30.81989,0.33954,-3.07892,0.71682
669.277,30.8397,0.33905,-3.08037,0.71638
669.877,30.8595,0.34422,-3.08185,0.71593
670.477,30.8794,0.34469,-3.08185,0.71549
671.077,30.8993,0.34707,-3.08185,0.71505
671.677,30.9192,0.35201,-3.08163,0.7146
672.277,30.93911,0.35458,-3.08195,0.71416
672.877,30.9591,0.35615,-3.08208,0.71371
673.477,30.979,0.35929,-3.08173,0.71326
674.077,30.9989,0.36134,-3.08305,0.71282
674.677,31.0187,0.36417,-3.08303,0.71237
675.277,31.03861,0.37361,-3.0846,0.71192
675.877,31.05847,0.37325,-3.08562,0.71147
676.477,31.07831,0.37659,-3.08611,0.71102
677.077,31.0982,0.38094,-3.08752,0.71058
677.677,31.1181,0.38477,-3.08751,0.71013
678.277,31.138,0.38757,-3.08896,0.70968
678.877,31.1579,0.39412,-3.08897,0.70923
679.477,31.17778,0.39835,-3.0902,0.70877
680.077,31.1977,0.40128,-3.09031,0.70832
680.677,31.21763,0.40473,-3.09115,0.70787
681.277,31.23755,0.41077,-3.09163,0.70742
681.877,31.25743,0.41308,-3.09209,0.70697
682.477,31.2773,0.42017,-3.09418,0.70651
683.077,31.2972,0.42624,-3.09419,0.70606
683.677,31.31703,0.43291,-3.09547,0.7056
684.277,31.3369,0.43619,-3.09547,0.70515
684.877,31.35677,0.44103,-3.09694,0.70469
685.477,31.37671,0.44858,-3.09689,0.70424
686.077,31.39668,0.45492,-3.09825,0.70378
686.677,31.4166,0.46165,-3.09748,0.70333
687.277,31.43657,0.46714,-3.09828,0.70287
687.877,31.45644,0.47349,-3.09827,0.70241
688.477,31.4763,0.48183,-3.09967,0.70195
689.077,31.4962,0.48823,-3.10023,0.70149
689.677,31.51602,0.49635,-3.10132,0.70104
690.277,31.5359,0.50134,-3.10166,0.70058
690.877,31.55575,0.51057,-3.10263,0.70012
691.477,31.5757,0.51613,-3.10268,0.69966
692.077,31.5956,0.52344,-3.10424,0.6992
692.677,31.6155,0.52694,-3.10487,0.69873
693.277,31.63543,0.53623,-3.10574,0.69827
693.877,31.65533,0.54392,-3.10705,0.69781
694.477,31.67523,0.55381,-3.1076,0.69735
695.077,31.69518,0.55814,-3.10897,0.69689
695.677,31.71507,0.56693,-3.11043,0.69642
696.277,31.7349,0.57451,-3.11161,0.69596
696.877,31.7548,0.58191,-3.1118,0.69549
697.477,31.7747,0.58904,-3.11317,0.69503
698.077,31.7946,0.59693,-3.11323,0.69456
698.677,31.81457,0.60148,-3.1135,0.6941
699.277,31.8345,0.6103,-3.1147,0.69363
699.877,31.8544,0.61637,-3.11552,0.69316
700.477,31.8742,0.6273,-3.11681,0.6927
701.077,31.8941,0.62788,-3.11851,0.69223
701.677,31.91398,0.6368,-3.11934,0.69176
702.277,31.9339,0.64464,-3.12011,0.69129
702.877,31.9539,0.64837,-3.12141,0.69082
703.477,31.9738,0.6545,-3.123,0.69035
704.077,31.99375,0.65666,-3.12453,0.68988
704.677,32.01365,0.66446,-3.12554,0.68941
705.277,32.0335,0.66839,-3.12732,0.68894
705.877,32.05336,0.6724,-3.12766,0.68847
706.477,32.0732,0.679,-3.12872,0.688
707.077,32.09299,0.68195,-3.13019,0.68753
707.677,32.1129,0.68583,-3.13068,0.68705
708.277,32.13278,0.68918,-3.13197,0.68658
708.877,32.15271,0.68891,-3.13233,0.68611
709.477,32.17266,0.69248,-3.13285,0.68563
710.077,32.19254,0.6962,-3.13348,0.68516
710.677,32.21246,0.69955,-3.13415,0.68468
711.277,32.23236,0.69572,-3.13569,0.68421
711.877,32.25225,0.69988,-3.13674,0.68373
712.477,32.27212,0.7,-3.13759,0.68326
713.077,32.29201,0.7016,-3.13891,0.68278
713.677,32.31187,0.69966,-3.14051,0.6823
714.277,32.33173,0.69819,-3.14132,0.68182
714.877,32.3516,0.69898,-3.14184,0.68135
715.477,32.37154,0.69931,-3.1435,0.68087
716.077,32.39141,0.70234,-3.14356,0.68039
716.677,32.41132,0.7006,-3.1447,0.67991
717.277,32.4313,0.69894,-3.14466,0.67943
717.877,32.45114,0.69961,-3.14598,0.67895
718.477,32.4711,0.69708,-3.14639,0.67847
719.077,32.491,0.69423,-3.14779,0.67799
719.677,32.511,0.68684,-3.14791,0.6775
720.277,32.5309,0.68467,-3.1491,0.67702
720.877,32.55084,0.68233,-3.14921,0.67654
721.477,32.57076,0.67586,-3.15039,0.67606
722.077,32.59066,0.66929,-3.1512,0.67557
722.677,32.61054,0.66312,-3.15182,0.67509
723.277,32.63046,0.65331,-3.15333,0.6746
723.877,32.65038,0.6446,-3.15334,0.67412
724.477,32.67029,0.63229,-3.15467,0.67363
725.077,32.69016,0.62054,-3.15588,0.67315
725.677,32.71007,0.60965,-3.15628,0.67266
726.277,32.73004,0.595,-3.15753,0.67217
726.877,32.75,0.58337,-3.15753,0.67169
727.477,32.76993,0.5667,-3.15756,0.6712
728.077,32.78987,0.55139,-3.15887,0.67071
728.677,32.80979,0.53727,-3.15885,0.67022
729.277,32.82974,0.52155,-3.15961,0.66973
729.877,32.84966,0.51095,-3.16148,0.66924
730.477,32.86967,0.49255,-3.16304,0.66875
731.077,32.88963,0.47633,-3.16439,0.66826
731.677,32.90958,0.46177,-3.16601,0.66777
732.277,32.92949,0.45489,-3.16788,0.66728
732.877,32.94941,0.4402,-3.16973,0.66679
733.477,32.96925,0.42964,-3.17104,0.6663
734.077,32.9891,0.41925,-3.17191,0.66581
734.677,33.00906,0.41158,-3.17191,0.66531
735.277,33.02904,0.40371,-3.17191,0.66482
735.877,33.04902,0.39857,-3.17223,0.66433
736.477,33.06902,0.39121,-3.17344,0.66383
737.077,33.08896,0.3881,-3.17455,0.66334
737.677,33.10895,0.37953,-3.17505,0.66284
738.277,33.12891,0.37475,-3.17552,0.66235
738.877,33.14884,0.36786,-3.17552,0.66185
739.477,33.16884,0.36674,-3.17552,0.66135
740.077,33.1888,0.35986,-3.17648,0.66086
740.677,33.20867,0.35528,-3.17684,0.66036
741.277,33.22858,0.35004,-3.17684,0.65986
741.877,33.24852,0.34725,-3.17688,0.65936
742.477,33.2684,0.34308,-3.17645,0.65886
743.077,33.28835,0.34429,-3.17683,0.65836
743.677,33.30927,0.33584,-3.17827,0.65787
744.277,33.33013,0.33558,-3.17772,0.65737
744.377,33.33202,0.33519,-3.17772,0.65728