File: 01_Data/Vinyl_Plank_Flooring/MCC/Vinyl_Plank_Flooring_MCC_30K_min_211111_R2.txt
Sample ID:	C:\MCC\MCC Cal\Test\Vinyl_Plan_Flooring_MCC_30K_min_211111_R2.txt
Sample Weight (mg):	4.78
Heating Rate (C/s):	0.5
Combustor Temp (C):	900
N2 Flow Rate (cc/min):	80
O2 Flow Rate (cc/min):	20
Calibration File:	C:\MCC\MCC Cal\Coeff1 JN10440_30_210304.txt.txt
T Correction Coefficients:	0	1.024463	0
Time Shift (s):	14
*
Time (s)	Temperature (C)	N2 flow rate (cc/min)	O2 flow rate (cc/min)	Flow Rate (cc/min)	Oxygen (%)	HRR (W/g)	Heating rate (C/s)
0.000	107.564	80.001	19.994	103.031	20.004	0.132	-0.004
2.000	107.531	80.000	19.995	103.027	20.004	0.126	-0.008
4.000	107.503	80.000	19.995	103.031	20.003	0.192	-0.024
6.000	107.509	80.002	19.997	103.046	20.005	0.060	-0.008
8.000	107.546	80.002	19.995	103.064	20.003	0.200	0.004
10.000	107.546	80.002	19.994	103.065	20.002	0.253	0.018
12.000	107.517	80.003	19.995	103.069	19.993	0.856	-0.010
14.000	107.542	80.001	19.997	103.096	19.991	1.006	0.011
16.000	107.607	80.001	19.996	103.149	19.990	1.047	0.019
18.000	107.697	80.003	19.995	103.154	19.986	1.358	0.058
20.000	107.794	80.003	19.996	103.152	19.985	1.419	0.080
22.000	107.946	80.002	19.997	103.156	19.983	1.568	0.091
24.000	108.046	80.004	19.995	103.166	19.978	1.921	0.065
26.000	108.226	80.000	19.997	103.180	19.977	1.989	0.091
28.000	108.415	80.002	19.995	103.203	19.975	2.059	0.095
30.000	108.653	80.002	19.997	103.222	19.970	2.422	0.090
32.000	108.896	80.004	19.996	103.248	19.968	2.566	0.132
34.000	109.205	80.003	19.996	103.237	19.968	2.570	0.150
36.000	109.478	80.004	19.995	103.240	19.964	2.811	0.152
38.000	109.836	80.005	19.994	103.233	19.966	2.684	0.162
40.000	110.172	80.004	19.994	103.232	19.959	3.150	0.147
42.000	110.644	80.004	19.994	103.194	19.963	2.873	0.231
44.000	111.018	80.005	19.995	103.253	19.967	2.600	0.199
46.001	111.415	80.005	19.995	103.297	19.965	2.791	0.215
48.001	111.899	80.004	19.995	103.225	19.964	2.844	0.213
50.001	112.385	80.004	19.995	103.226	19.965	2.766	0.257
52.000	112.840	80.003	19.995	103.228	19.964	2.843	0.225
54.000	113.326	80.001	19.996	103.231	19.961	3.028	0.239
56.001	113.900	80.001	19.994	103.246	19.958	3.213	0.312
58.000	114.385	80.003	19.995	103.254	19.962	2.989	0.286
60.000	114.919	80.000	19.997	103.251	19.961	3.065	0.273
62.000	115.505	80.002	19.994	103.259	19.960	3.090	0.298
64.000	116.035	80.003	19.995	103.263	19.959	3.186	0.262
66.000	116.633	80.000	19.994	103.260	19.960	3.085	0.289
68.000	117.233	80.002	19.996	103.256	19.963	2.892	0.317
70.000	117.802	80.003	19.996	103.264	19.961	3.010	0.278
72.000	118.505	80.002	19.995	103.267	19.962	2.940	0.340
74.001	119.071	80.001	19.994	103.267	19.961	3.048	0.307
76.000	119.718	80.003	19.995	103.272	19.960	3.076	0.325
78.000	120.395	80.001	19.994	103.269	19.958	3.267	0.331
80.000	121.071	80.000	19.994	103.272	19.960	3.096	0.378
82.000	121.778	80.003	19.996	103.273	19.957	3.285	0.371
84.001	122.463	80.002	19.994	103.272	19.959	3.202	0.362
86.000	123.182	80.003	19.996	103.271	19.955	3.452	0.342
88.001	123.895	80.003	19.995	103.268	19.957	3.309	0.331
90.000	124.633	80.002	19.996	103.271	19.960	3.119	0.348
92.000	125.342	80.001	19.995	103.266	19.955	3.453	0.385
94.001	126.110	80.002	19.995	103.265	19.956	3.388	0.363
96.001	126.878	80.003	19.996	103.268	19.954	3.527	0.362
98.000	127.641	80.003	19.996	103.264	19.954	3.520	0.381
100.001	128.376	80.004	19.996	103.259	19.954	3.499	0.381
102.000	129.196	80.004	19.995	103.258	19.951	3.694	0.390
104.000	129.973	80.002	19.994	103.263	19.951	3.735	0.387
106.000	130.732	80.003	19.995	103.271	19.951	3.679	0.389
108.000	131.537	80.003	19.995	103.271	19.950	3.778	0.389
110.000	132.306	80.004	19.995	103.271	19.951	3.738	0.406
112.000	133.142	80.006	19.995	103.265	19.951	3.714	0.411
114.000	133.941	80.002	19.996	103.292	19.947	3.948	0.417
116.000	134.743	80.002	19.996	103.278	19.951	3.696	0.406
118.000	135.548	80.004	19.996	103.263	19.951	3.691	0.408
120.000	136.454	80.003	19.996	103.265	19.948	3.889	0.415
122.001	137.299	80.002	19.996	103.267	19.949	3.873	0.458
124.000	138.145	80.003	19.995	103.277	19.948	3.937	0.447
126.000	139.008	80.003	19.996	103.283	19.947	4.001	0.449
128.000	139.833	80.005	19.995	103.279	19.946	4.056	0.426
130.000	140.768	80.003	19.995	103.286	19.948	3.883	0.459
132.000	141.655	80.004	19.995	103.285	19.944	4.197	0.468
134.000	142.526	80.002	19.994	103.293	19.942	4.338	0.428
136.000	143.451	80.002	19.995	103.299	19.943	4.255	0.462
138.000	144.357	80.002	19.994	103.294	19.945	4.125	0.456
140.000	145.289	80.003	19.995	103.280	19.941	4.360	0.471
142.000	146.184	80.001	19.994	103.289	19.939	4.484	0.459
144.000	147.104	80.003	19.995	103.288	19.941	4.369	0.465
146.000	148.008	80.002	19.995	103.273	19.938	4.614	0.465
148.000	148.939	80.001	19.995	103.280	19.940	4.418	0.474
150.000	149.876	80.003	19.996	103.273	19.937	4.679	0.447
152.000	150.805	80.002	19.994	103.268	19.937	4.675	0.446
154.000	151.788	80.003	19.994	103.275	19.933	4.934	0.446
156.000	152.719	80.003	19.996	103.267	19.934	4.842	0.458
158.000	153.655	80.001	19.994	103.265	19.935	4.776	0.470
160.000	154.586	80.004	19.996	103.271	19.935	4.800	0.468
162.000	155.560	80.001	19.994	103.270	19.934	4.867	0.506
164.000	156.498	80.002	19.995	103.270	19.933	4.945	0.471
166.000	157.456	80.002	19.995	103.268	19.930	5.126	0.461
168.000	158.414	80.004	19.994	103.267	19.928	5.242	0.471
170.000	159.383	80.003	19.995	103.269	19.927	5.313	0.494
172.000	160.373	80.002	19.995	103.273	19.932	4.963	0.504
174.000	161.325	80.002	19.994	103.287	19.928	5.282	0.501
176.000	162.282	80.003	19.995	103.263	19.925	5.463	0.478
178.000	163.283	80.003	19.996	103.265	19.920	5.777	0.490
180.000	164.258	80.005	19.996	103.263	19.920	5.797	0.496
182.000	165.293	80.003	19.995	103.271	19.917	5.979	0.512
184.000	166.252	80.002	19.995	103.269	19.920	5.821	0.475
186.000	167.239	80.005	19.995	103.263	19.919	5.891	0.485
188.000	168.213	80.003	19.997	103.258	19.918	5.962	0.486
190.000	169.168	80.004	19.996	103.258	19.911	6.414	0.477
192.000	170.196	80.007	19.995	103.265	19.909	6.548	0.493
194.000	171.142	80.003	19.996	103.262	19.910	6.489	0.475
196.000	172.119	80.003	19.994	103.254	19.910	6.484	0.508
198.000	173.132	80.004	19.996	103.258	19.908	6.595	0.511
200.000	174.166	80.002	19.994	103.264	19.908	6.619	0.512
202.000	175.161	80.002	19.994	103.266	19.902	6.991	0.529
204.000	176.079	80.004	19.994	103.266	19.902	7.044	0.491
206.000	177.057	80.003	19.995	103.257	19.897	7.321	0.485
208.000	178.100	80.003	19.996	103.246	19.894	7.570	0.521
210.000	179.091	80.003	19.995	103.266	19.892	7.670	0.516
212.000	180.075	80.002	19.995	103.207	19.890	7.803	0.501
214.000	181.054	80.000	19.995	103.288	19.885	8.153	0.463
216.000	182.055	80.000	19.995	103.271	19.885	8.184	0.504
218.000	183.035	80.001	19.995	103.258	19.882	8.328	0.500
220.000	183.994	80.003	19.996	103.258	19.879	8.544	0.478
222.000	184.985	80.002	19.996	103.259	19.877	8.663	0.478
224.000	186.040	80.003	19.995	103.252	19.870	9.195	0.502
226.000	187.026	80.002	19.996	103.247	19.867	9.392	0.503
228.000	188.033	80.003	19.994	103.250	19.863	9.613	0.485
230.000	189.028	80.001	19.996	103.232	19.860	9.810	0.534
232.000	190.048	80.003	19.995	103.234	19.854	10.250	0.517
234.000	191.010	80.004	19.995	103.228	19.854	10.272	0.485
236.000	192.071	80.003	19.995	103.242	19.849	10.584	0.501
238.000	193.000	80.004	19.995	103.245	19.845	10.865	0.468
240.000	194.000	80.003	19.995	103.251	19.842	11.021	0.483
242.000	195.009	80.002	19.995	103.234	19.838	11.326	0.515
244.000	195.974	80.002	19.995	103.247	19.834	11.584	0.511
246.000	196.990	80.002	19.995	103.250	19.830	11.893	0.483
248.000	197.966	80.001	19.995	103.241	19.827	12.085	0.483
250.000	198.944	80.002	19.996	103.224	19.822	12.377	0.526
252.000	199.929	80.001	19.995	103.243	19.815	12.858	0.476
254.000	200.938	80.001	19.994	103.233	19.811	13.126	0.498
256.000	201.959	80.002	19.995	103.242	19.806	13.477	0.507
258.000	202.978	80.003	19.994	103.243	19.802	13.717	0.528
260.000	203.958	80.002	19.994	103.244	19.794	14.310	0.510
262.000	204.949	80.003	19.994	103.233	19.789	14.655	0.497
264.000	205.979	80.003	19.994	103.230	19.780	15.245	0.517
266.000	206.957	80.003	19.994	103.234	19.778	15.344	0.499
268.000	207.991	80.002	19.994	103.229	19.769	15.973	0.520
270.000	208.934	80.003	19.994	103.245	19.764	16.312	0.495
272.000	210.002	80.003	19.995	103.234	19.756	16.876	0.533
274.000	210.998	80.002	19.994	103.229	19.753	17.045	0.557
276.000	211.951	80.002	19.994	103.229	19.750	17.260	0.490
278.000	212.953	80.002	19.994	103.243	19.739	17.991	0.506
280.000	213.961	80.003	19.995	103.253	19.731	18.531	0.516
282.000	214.968	80.002	19.995	103.232	19.724	18.993	0.500
284.000	215.927	80.004	19.996	103.228	19.718	19.422	0.490
286.000	216.938	80.004	19.995	103.227	19.711	19.860	0.451
288.000	217.944	80.003	19.995	103.234	19.707	20.139	0.495
290.000	218.940	80.004	19.995	103.228	19.701	20.529	0.508
292.000	219.925	80.005	19.994	103.223	19.698	20.748	0.493
294.000	220.886	80.005	19.994	103.224	19.690	21.272	0.474
296.000	221.841	80.004	19.995	103.223	19.684	21.678	0.477
298.001	222.841	80.003	19.995	103.223	19.675	22.330	0.495
300.000	223.781	80.002	19.995	103.223	19.671	22.558	0.488
302.000	224.746	80.003	19.995	103.226	19.659	23.352	0.470
304.000	225.700	80.001	19.996	103.226	19.652	23.848	0.453
306.000	226.671	80.002	19.995	103.219	19.644	24.387	0.462
308.000	227.652	80.003	19.996	103.219	19.638	24.793	0.498
310.000	228.624	80.001	19.996	103.220	19.634	25.070	0.489
312.000	229.626	80.001	19.996	103.221	19.622	25.846	0.467
314.000	230.551	80.002	19.995	103.222	19.615	26.366	0.485
316.000	231.523	80.003	19.996	103.225	19.608	26.836	0.469
318.000	232.481	80.002	19.995	103.222	19.604	27.079	0.471
320.000	233.404	80.002	19.995	103.222	19.596	27.621	0.470
322.000	234.414	80.002	19.994	103.223	19.586	28.275	0.498
324.000	235.337	80.002	19.994	103.227	19.578	28.868	0.479
326.000	236.247	80.003	19.995	103.222	19.572	29.235	0.449
328.000	237.207	80.001	19.994	103.225	19.561	30.009	0.461
330.000	238.202	80.002	19.996	103.229	19.555	30.390	0.496
332.000	239.132	80.001	19.996	103.225	19.548	30.839	0.496
334.000	240.091	80.001	19.995	103.226	19.540	31.393	0.485
336.000	240.982	80.001	19.995	103.227	19.533	31.846	0.458
338.000	241.959	80.000	19.994	103.227	19.527	32.257	0.486
340.000	242.906	80.001	19.995	103.229	19.518	32.862	0.472
342.000	243.874	80.002	19.995	103.231	19.511	33.387	0.480
344.000	244.819	80.002	19.995	103.237	19.502	33.953	0.473
346.000	245.832	80.003	19.994	103.233	19.493	34.571	0.498
348.000	246.797	80.003	19.995	103.229	19.488	34.914	0.491
350.000	247.749	80.003	19.995	103.232	19.478	35.561	0.499
352.000	248.709	80.003	19.995	103.242	19.469	36.214	0.480
354.000	249.730	80.004	19.994	103.253	19.462	36.659	0.516
356.000	250.734	80.003	19.995	103.247	19.452	37.350	0.493
358.000	251.733	80.004	19.994	103.248	19.438	38.264	0.510
360.000	252.683	80.004	19.996	103.248	19.432	38.700	0.493
362.000	253.652	80.004	19.995	103.242	19.421	39.404	0.494
364.000	254.690	80.003	19.994	103.250	19.412	40.048	0.511
366.000	255.647	80.003	19.994	103.259	19.403	40.642	0.497
368.000	256.642	80.004	19.995	103.256	19.388	41.660	0.480
370.000	257.606	80.004	19.995	103.253	19.380	42.198	0.472
372.000	258.634	80.006	19.995	103.256	19.367	43.087	0.506
374.000	259.614	80.005	19.995	103.256	19.358	43.658	0.505
376.000	260.601	80.004	19.996	103.258	19.343	44.659	0.469
378.000	261.614	80.005	19.998	103.260	19.333	45.347	0.492
380.000	262.602	80.004	19.995	103.256	19.322	46.121	0.519
382.000	263.619	80.002	19.995	103.261	19.308	47.085	0.502
384.000	264.654	80.001	19.995	103.267	19.294	48.045	0.509
386.000	265.598	80.002	19.995	103.266	19.283	48.758	0.475
388.000	266.652	80.001	19.995	103.274	19.271	49.545	0.485
390.000	267.698	80.000	19.995	103.295	19.259	50.410	0.522
392.000	268.675	80.001	19.996	103.287	19.248	51.129	0.510
394.000	269.708	80.002	19.995	103.299	19.240	51.627	0.516
396.000	270.728	80.002	19.994	103.305	19.231	52.284	0.505
398.000	271.749	80.000	19.996	103.308	19.223	52.809	0.526
400.000	272.745	80.001	19.996	103.322	19.213	53.446	0.485
402.000	273.783	80.002	19.995	103.326	19.204	54.086	0.495
404.000	274.783	80.003	19.996	103.327	19.200	54.397	0.508
406.000	275.788	80.000	19.997	103.316	19.191	54.932	0.502
408.000	276.852	80.002	19.995	103.317	19.191	54.922	0.524
410.000	277.817	80.002	19.995	103.315	19.188	55.143	0.510
412.000	278.809	80.000	19.995	103.252	19.193	54.800	0.496
414.000	279.883	80.002	19.996	103.379	19.195	54.670	0.540
416.000	281.016	80.003	19.995	103.328	19.206	53.974	0.656
418.000	281.826	80.001	19.995	103.304	19.214	53.406	0.521
420.000	282.952	80.001	19.994	103.309	19.225	52.678	0.644
422.000	283.844	80.002	19.994	103.310	19.244	51.365	0.588
424.000	284.897	80.003	19.996	103.319	19.261	50.194	0.430
426.000	285.935	80.003	19.994	103.336	19.284	48.673	0.538
428.000	286.913	80.004	19.995	103.322	19.311	46.857	0.531
430.000	287.955	80.004	19.995	103.297	19.341	44.808	0.535
432.000	288.955	80.004	19.995	103.289	19.375	42.526	0.486
434.000	289.979	80.003	19.994	103.265	19.407	40.386	0.534
436.000	291.011	80.004	19.995	103.263	19.446	37.726	0.484
438.000	292.020	80.003	19.995	103.266	19.484	35.173	0.556
440.000	293.025	80.003	19.996	103.243	19.524	32.488	0.506
442.000	294.046	80.003	19.995	103.233	19.565	29.708	0.515
444.000	295.071	80.002	19.993	103.219	19.607	26.876	0.552
446.000	296.055	80.003	19.996	103.229	19.646	24.284	0.493
448.000	297.100	80.004	19.995	103.234	19.684	21.686	0.491
450.000	298.140	80.004	19.995	103.250	19.716	19.520	0.508
452.000	299.155	80.004	19.994	103.222	19.750	17.248	0.497
454.000	300.192	80.006	19.994	103.216	19.774	15.593	0.511
456.000	301.189	80.005	19.995	103.211	19.803	13.704	0.513
458.000	302.181	80.004	19.994	103.207	19.819	12.625	0.494
460.000	303.225	80.003	19.994	103.171	19.838	11.323	0.515
462.000	304.242	80.003	19.995	103.187	19.855	10.193	0.499
464.000	305.266	80.002	19.995	103.170	19.866	9.451	0.510
466.000	306.239	80.002	19.994	103.164	19.876	8.728	0.503
468.000	307.245	80.003	19.996	103.162	19.886	8.112	0.510
470.000	308.326	80.002	19.996	103.157	19.893	7.579	0.525
472.000	309.266	80.002	19.995	103.155	19.898	7.266	0.476
474.000	310.312	80.002	19.995	103.146	19.902	6.983	0.552
476.000	311.340	80.001	19.994	103.150	19.911	6.425	0.513
478.000	312.366	80.002	19.995	103.156	19.915	6.155	0.534
480.000	313.398	80.002	19.994	103.150	19.917	5.985	0.550
482.000	314.441	80.002	19.994	103.150	19.920	5.791	0.530
484.000	315.444	80.002	19.996	103.150	19.925	5.474	0.508
486.000	316.389	80.002	19.996	103.149	19.926	5.364	0.482
488.000	317.435	80.001	19.995	103.147	19.928	5.223	0.527
490.000	318.424	80.002	19.996	103.146	19.931	5.042	0.514
492.000	319.402	80.001	19.996	103.148	19.931	5.082	0.486
494.000	320.446	80.000	19.995	103.146	19.933	4.919	0.511
496.000	321.417	80.001	19.995	103.147	19.934	4.851	0.500
498.000	322.444	80.000	19.996	103.148	19.935	4.800	0.481
500.000	323.352	80.001	19.996	103.148	19.939	4.535	0.443
502.000	324.409	80.001	19.996	103.156	19.943	4.221	0.485
504.000	325.386	80.002	19.996	103.154	19.942	4.298	0.463
506.000	326.365	80.003	19.995	103.153	19.942	4.296	0.487
508.000	327.347	80.003	19.995	103.154	19.942	4.311	0.490
510.000	328.306	80.004	19.995	103.155	19.946	4.011	0.468
512.000	329.344	80.003	19.994	103.155	19.946	4.025	0.523
514.000	330.331	80.003	19.995	103.155	19.951	3.726	0.483
516.000	331.342	80.002	19.995	103.149	19.952	3.670	0.505
518.000	332.315	80.003	19.994	103.152	19.952	3.648	0.508
520.000	333.336	80.004	19.994	103.156	19.952	3.605	0.513
522.000	334.292	80.002	19.994	103.164	19.952	3.632	0.485
524.000	335.289	80.003	19.995	103.155	19.955	3.425	0.506
526.000	336.268	80.002	19.995	103.162	19.956	3.366	0.489
528.000	337.299	80.004	19.994	103.158	19.955	3.436	0.494
530.000	338.331	80.004	19.995	103.157	19.952	3.630	0.521
532.000	339.268	80.004	19.995	103.158	19.955	3.456	0.491
534.000	340.275	80.005	19.993	103.173	19.957	3.278	0.486
536.000	341.268	80.004	19.994	103.178	19.956	3.355	0.509
538.000	342.236	80.005	19.994	103.181	19.954	3.472	0.459
540.000	343.230	80.004	19.995	103.178	19.957	3.287	0.475
542.000	344.226	80.004	19.993	103.181	19.956	3.365	0.525
544.000	345.166	80.004	19.994	103.185	19.956	3.355	0.481
546.000	346.187	80.001	19.994	103.167	19.960	3.106	0.498
548.000	347.200	80.002	19.994	103.162	19.957	3.322	0.504
550.000	348.166	80.002	19.994	103.174	19.957	3.294	0.497
552.000	349.144	80.001	19.995	103.163	19.959	3.146	0.485
554.000	350.202	80.003	19.995	103.149	19.958	3.203	0.537
556.000	351.185	80.002	19.995	103.166	19.958	3.259	0.496
558.000	352.232	80.000	19.996	103.166	19.957	3.313	0.522
560.000	353.272	80.003	19.995	103.166	19.958	3.205	0.531
562.000	354.261	80.004	19.994	103.168	19.959	3.152	0.515
564.000	355.264	80.002	19.995	103.180	19.959	3.183	0.480
566.000	356.298	80.003	19.996	103.165	19.961	3.031	0.522
568.000	357.304	80.003	19.996	103.170	19.961	3.056	0.507
570.000	358.322	80.003	19.995	103.178	19.960	3.104	0.520
572.000	359.319	80.003	19.995	103.172	19.960	3.070	0.504
574.000	360.268	80.001	19.995	103.185	19.960	3.125	0.483
576.001	361.318	80.003	19.997	103.181	19.960	3.073	0.503
578.000	362.302	80.002	19.996	103.176	19.963	2.892	0.476
580.000	363.284	80.001	19.996	103.167	19.965	2.791	0.489
582.000	364.279	80.001	19.995	103.185	19.968	2.575	0.501
584.000	365.311	80.001	19.996	103.183	19.967	2.648	0.477
586.000	366.344	80.001	19.995	103.185	19.968	2.567	0.513
588.000	367.368	80.001	19.996	103.183	19.965	2.760	0.524
590.000	368.354	80.002	19.996	103.185	19.966	2.685	0.522
592.000	369.437	80.002	19.994	103.186	19.966	2.674	0.509
594.000	370.409	80.003	19.997	103.182	19.966	2.703	0.503
596.000	371.436	80.003	19.995	103.176	19.964	2.811	0.502
598.000	372.444	80.004	19.997	103.186	19.968	2.536	0.500
600.000	373.495	80.003	19.995	103.170	19.965	2.771	0.534
602.000	374.509	80.002	19.996	103.184	19.962	2.974	0.519
604.000	375.563	80.002	19.993	103.177	19.962	2.936	0.513
606.000	376.528	80.003	19.994	103.184	19.964	2.824	0.516
608.000	377.535	80.004	19.994	103.179	19.962	2.952	0.524
610.000	378.539	80.002	19.993	103.183	19.957	3.304	0.496
612.000	379.562	80.004	19.996	103.179	19.959	3.146	0.523
614.000	380.609	80.003	19.995	103.187	19.960	3.097	0.522
616.000	381.610	80.005	19.995	103.183	19.959	3.176	0.492
618.000	382.610	80.005	19.995	103.172	19.956	3.359	0.544
620.000	383.620	80.005	19.993	103.185	19.957	3.330	0.510
622.000	384.592	80.004	19.994	103.178	19.959	3.190	0.496
624.000	385.625	80.003	19.995	103.176	19.957	3.286	0.473
626.000	386.642	80.003	19.996	103.185	19.957	3.316	0.491
628.000	387.675	80.002	19.996	103.182	19.954	3.476	0.531
630.000	388.700	80.003	19.995	103.185	19.955	3.467	0.516
632.000	389.683	80.003	19.995	103.178	19.953	3.582	0.502
634.000	390.686	80.003	19.996	103.176	19.950	3.769	0.504
636.000	391.731	80.003	19.995	103.177	19.949	3.834	0.526
638.000	392.779	80.002	19.995	103.160	19.949	3.861	0.530
640.000	393.790	80.004	19.994	103.174	19.944	4.146	0.514
642.000	394.817	80.002	19.994	103.170	19.944	4.146	0.517
644.000	395.826	80.001	19.995	103.172	19.947	4.008	0.497
646.000	396.842	80.002	19.995	103.176	19.946	4.024	0.516
648.000	397.858	80.003	19.994	103.178	19.944	4.187	0.519
650.000	398.860	80.002	19.997	103.175	19.943	4.254	0.518
652.000	399.853	80.003	19.994	103.155	19.942	4.302	0.466
654.000	400.848	80.003	19.997	103.167	19.940	4.423	0.496
656.000	401.877	80.002	19.995	103.172	19.935	4.780	0.484
658.000	402.900	80.004	19.994	103.162	19.938	4.600	0.489
660.000	403.908	80.003	19.996	103.170	19.937	4.628	0.501
662.000	404.949	80.002	19.994	103.156	19.935	4.773	0.493
664.000	405.909	80.003	19.995	103.154	19.931	5.082	0.492
666.000	406.945	80.002	19.994	103.163	19.931	5.033	0.530
668.000	407.895	80.002	19.996	103.162	19.927	5.312	0.500
670.000	408.931	80.004	19.993	103.156	19.926	5.376	0.474
672.000	409.959	80.002	19.993	103.161	19.924	5.493	0.532
674.000	410.963	80.004	19.996	103.178	19.923	5.577	0.498
676.000	411.946	80.003	19.996	103.168	19.919	5.864	0.516
678.000	412.931	80.003	19.998	103.168	19.915	6.125	0.485
680.000	413.935	80.003	19.995	103.169	19.914	6.177	0.487
682.000	414.939	80.004	19.996	103.167	19.913	6.240	0.507
684.000	415.854	80.003	19.997	103.168	19.911	6.409	0.462
686.000	416.879	80.002	19.998	103.155	19.906	6.752	0.494
688.000	417.931	80.002	19.998	103.149	19.902	7.003	0.517
690.000	418.900	80.002	19.996	103.176	19.897	7.314	0.504
692.000	419.875	80.002	19.996	103.157	19.895	7.478	0.519
694.000	420.888	80.004	19.996	103.154	19.891	7.731	0.493
696.000	421.907	80.004	19.998	103.160	19.892	7.692	0.488
698.000	422.910	80.005	19.993	103.179	19.886	8.051	0.479
700.000	423.866	80.005	19.995	103.163	19.883	8.310	0.473
702.000	424.882	80.007	19.995	103.165	19.876	8.764	0.500
704.000	425.936	80.005	19.995	103.171	19.870	9.170	0.526
706.000	426.890	80.004	19.996	103.165	19.856	10.089	0.496
708.000	427.885	80.004	19.996	103.158	19.854	10.217	0.477
710.000	428.934	80.002	19.999	103.172	19.847	10.724	0.526
712.000	429.941	80.003	19.995	103.159	19.840	11.193	0.521
714.000	430.929	80.002	19.996	103.163	19.833	11.651	0.528
716.000	431.951	80.002	19.995	103.180	19.824	12.237	0.460
718.000	432.927	80.003	19.996	103.155	19.813	13.007	0.504
720.000	433.904	80.002	19.994	103.154	19.810	13.217	0.482
722.000	434.930	80.002	19.994	103.175	19.797	14.072	0.518
724.000	435.954	80.002	19.994	103.183	19.788	14.658	0.492
726.000	436.959	80.004	19.996	103.172	19.777	15.432	0.514
728.000	437.940	80.003	19.994	103.175	19.768	16.033	0.507
730.000	438.929	80.001	19.995	103.168	19.755	16.874	0.508
732.000	439.966	80.004	19.993	103.164	19.745	17.601	0.533
734.000	440.976	80.002	19.993	103.165	19.731	18.520	0.519
736.000	441.993	80.001	19.997	103.172	19.718	19.388	0.506
738.000	443.018	80.002	19.995	103.163	19.706	20.186	0.496
740.000	444.051	80.004	19.995	103.169	19.690	21.273	0.518
742.000	445.070	80.003	19.995	103.187	19.675	22.268	0.493
744.000	446.099	80.002	19.994	103.183	19.660	23.304	0.553
746.000	447.103	80.002	19.994	103.174	19.646	24.241	0.485
748.000	448.135	80.001	19.997	103.176	19.632	25.164	0.511
750.000	449.172	80.002	19.996	103.174	19.622	25.889	0.553
752.000	450.212	80.001	19.995	103.166	19.606	26.949	0.498
754.000	451.203	80.003	19.997	103.172	19.589	28.118	0.491
756.000	452.238	80.004	19.998	103.158	19.575	29.008	0.509
758.000	453.263	80.004	19.996	103.151	19.563	29.823	0.505
760.000	454.335	80.004	19.995	103.164	19.547	30.891	0.515
762.000	455.386	80.003	19.994	103.159	19.538	31.540	0.518
764.000	456.437	80.004	19.994	103.180	19.524	32.430	0.532
766.000	457.455	80.004	19.996	103.178	19.512	33.255	0.521
768.000	458.475	80.003	19.996	103.168	19.508	33.518	0.521
770.000	459.565	80.003	19.997	103.164	19.497	34.256	0.528
772.000	460.552	80.003	19.998	103.168	19.494	34.488	0.505
774.000	461.576	80.002	19.996	103.170	19.489	34.848	0.494
776.000	462.641	80.002	19.995	103.164	19.484	35.134	0.518
778.000	463.647	80.004	19.997	103.155	19.485	35.121	0.487
780.000	464.716	80.003	19.996	103.165	19.483	35.210	0.513
782.000	465.734	80.004	19.997	103.174	19.484	35.130	0.525
784.000	466.737	80.005	19.997	103.179	19.486	35.005	0.515
786.000	467.806	80.004	19.996	103.174	19.492	34.647	0.527
788.000	468.899	80.002	19.996	103.175	19.497	34.272	0.573
790.000	469.940	80.004	19.995	103.181	19.503	33.907	0.535
792.000	470.968	80.004	19.994	103.166	19.510	33.388	0.510
794.000	471.934	80.002	19.996	103.174	19.518	32.861	0.504
796.000	473.061	80.002	19.995	103.172	19.523	32.499	0.523
798.000	474.152	80.002	19.994	103.175	19.533	31.885	0.545
800.000	475.209	80.002	19.994	103.182	19.537	31.614	0.530
802.000	476.233	80.002	19.995	103.183	19.548	30.861	0.507
804.000	477.255	80.002	19.994	103.170	19.554	30.469	0.511
806.000	478.294	80.003	19.994	103.174	19.562	29.919	0.503
808.000	479.369	80.002	19.996	103.174	19.572	29.256	0.560
810.000	480.389	80.003	19.995	103.163	19.579	28.722	0.505
812.000	481.434	80.003	19.994	103.156	19.591	27.936	0.507
814.000	482.442	80.003	19.996	103.163	19.599	27.381	0.485
816.000	483.472	80.002	19.996	103.179	19.609	26.765	0.504
818.000	484.505	80.001	19.993	103.179	19.619	26.041	0.509
820.000	485.530	80.003	19.994	103.159	19.633	25.140	0.515
822.000	486.560	80.004	19.994	103.148	19.643	24.447	0.520
824.000	487.573	80.004	19.996	103.162	19.657	23.522	0.520
826.000	488.613	80.003	19.996	103.151	19.663	23.106	0.511
828.000	489.586	80.002	19.995	103.164	19.676	22.208	0.496
830.000	490.646	80.003	19.994	103.153	19.688	21.426	0.514
832.000	491.652	80.003	19.994	103.148	19.700	20.633	0.532
834.000	492.649	80.004	19.995	103.149	19.709	20.031	0.500
836.000	493.721	80.005	19.995	103.154	19.715	19.593	0.505
838.000	494.717	80.005	19.997	103.153	19.729	18.679	0.511
840.000	495.793	80.005	19.995	103.172	19.740	17.912	0.505
842.000	496.788	80.005	19.994	103.163	19.752	17.073	0.498
844.000	497.812	80.003	19.994	103.157	19.761	16.488	0.464
846.000	498.890	80.003	19.994	103.150	19.767	16.087	0.506
848.000	499.863	80.004	19.995	103.157	19.777	15.441	0.527
850.000	500.874	80.005	19.994	103.157	19.788	14.673	0.513
852.000	501.876	80.004	19.996	103.161	19.795	14.192	0.495
854.000	502.914	80.003	19.997	103.149	19.802	13.721	0.479
856.000	503.932	80.003	19.997	103.150	19.813	12.989	0.507
858.000	504.941	80.004	19.995	103.154	19.820	12.553	0.504
860.000	505.980	80.004	19.994	103.154	19.828	12.007	0.515
862.000	507.025	80.005	19.996	103.159	19.836	11.478	0.525
864.000	508.072	80.005	19.995	103.161	19.844	10.888	0.534
866.000	509.093	80.006	19.994	103.160	19.850	10.472	0.505
868.000	510.145	80.005	19.995	103.150	19.859	9.898	0.530
870.000	511.129	80.005	19.995	103.155	19.865	9.516	0.490
872.000	512.169	80.004	19.995	103.158	19.868	9.263	0.526
874.000	513.194	80.004	19.996	103.153	19.873	8.971	0.494
876.000	514.270	80.002	19.995	103.157	19.880	8.464	0.555
878.000	515.300	80.003	19.997	103.151	19.885	8.163	0.491
880.000	516.321	80.003	19.998	103.150	19.890	7.822	0.501
882.000	517.439	80.004	19.998	103.169	19.897	7.352	0.521
884.000	518.489	80.002	19.995	103.166	19.901	7.041	0.523
886.000	519.503	80.004	19.994	103.158	19.909	6.544	0.531
888.000	520.589	80.004	19.995	103.149	19.909	6.536	0.543
890.000	521.625	80.003	19.994	103.148	19.910	6.448	0.532
892.000	522.642	80.003	19.995	103.149	19.909	6.566	0.543
894.000	523.723	80.003	19.995	103.158	19.915	6.097	0.529
896.000	524.782	80.002	19.995	103.152	19.915	6.161	0.545
898.000	525.838	80.003	19.995	103.148	19.918	5.952	0.550
900.000	526.878	80.002	19.997	103.145	19.918	5.947	0.540
902.000	527.932	80.003	19.995	103.141	19.918	5.950	0.536
904.000	528.989	80.003	19.995	103.147	19.925	5.452	0.501
906.000	530.014	80.004	19.994	103.148	19.925	5.461	0.506
908.000	531.081	80.002	19.996	103.148	19.926	5.406	0.537
910.000	532.102	80.003	19.995	103.151	19.931	5.074	0.522
912.000	533.141	80.003	19.996	103.150	19.928	5.223	0.521
914.000	534.214	80.001	19.996	103.149	19.932	5.014	0.529
916.000	535.239	80.004	19.994	103.149	19.930	5.132	0.494
918.000	536.307	80.003	19.995	103.148	19.930	5.130	0.504
920.000	537.375	80.004	19.994	103.148	19.937	4.644	0.526
922.000	538.395	80.004	19.995	103.149	19.934	4.868	0.490
924.000	539.436	80.006	19.995	103.141	19.934	4.821	0.520
926.000	540.486	80.004	19.994	103.151	19.939	4.486	0.490
928.000	541.522	80.003	19.996	103.156	19.939	4.483	0.509
930.000	542.592	80.003	19.995	103.155	19.937	4.622	0.537
932.001	543.607	80.005	19.994	103.151	19.941	4.375	0.501
934.000	544.600	80.003	19.996	103.147	19.940	4.433	0.490
936.000	545.636	80.004	19.995	103.141	19.940	4.463	0.492
938.000	546.671	80.003	19.996	103.145	19.941	4.408	0.511
940.000	547.715	80.004	19.995	103.146	19.942	4.290	0.506
942.000	548.736	80.005	19.995	103.146	19.942	4.334	0.514
944.000	549.703	80.004	19.995	103.146	19.943	4.210	0.470
946.000	550.746	80.005	19.994	103.146	19.948	3.917	0.533
948.000	551.748	80.006	19.995	103.147	19.949	3.831	0.504
950.000	552.760	80.006	19.994	103.146	19.946	4.065	0.525
952.000	553.773	80.004	19.995	103.144	19.948	3.917	0.506
954.000	554.777	80.003	19.994	103.146	19.950	3.774	0.510
956.000	555.764	80.004	19.996	103.150	19.951	3.671	0.499
958.000	556.791	80.002	19.996	103.150	19.948	3.892	0.512
960.000	557.820	80.004	19.994	103.151	19.949	3.835	0.483
962.000	558.778	80.002	19.996	103.147	19.953	3.600	0.490
964.000	559.823	80.002	19.995	103.148	19.952	3.624	0.516
966.000	560.820	80.002	19.996	103.154	19.952	3.633	0.499
968.000	561.847	80.002	19.997	103.155	19.954	3.509	0.503
970.000	562.863	80.002	19.996	103.160	19.955	3.432	0.492
972.001	563.894	80.002	19.996	103.155	19.961	3.036	0.520
974.000	564.897	80.003	19.996	103.153	19.960	3.132	0.511
976.000	565.932	80.003	19.996	103.150	19.958	3.201	0.527
978.000	566.970	80.003	19.995	103.162	19.961	3.007	0.511
980.000	567.922	80.003	19.996	103.160	19.960	3.132	0.476
982.000	569.009	80.003	19.996	103.176	19.962	2.970	0.554
984.000	570.043	80.002	19.994	103.175	19.966	2.694	0.527
986.000	571.055	80.003	19.995	103.183	19.962	2.994	0.523
988.000	572.058	80.002	19.996	103.166	19.961	3.009	0.523
990.000	573.111	80.002	19.996	103.171	19.959	3.152	0.496
992.000	574.158	80.002	19.996	103.161	19.963	2.889	0.532
994.000	575.221	80.004	19.995	103.174	19.959	3.175	0.490
996.000	576.266	80.003	19.995	103.172	19.960	3.100	0.488
998.000	577.288	80.002	19.996	103.163	19.960	3.107	0.552
1000.000	578.333	80.002	19.995	103.171	19.961	3.041	0.525
1002.000	579.350	80.003	19.995	103.171	19.959	3.151	0.507
1004.000	580.320	80.005	19.995	103.157	19.963	2.882	0.513
1006.000	581.333	80.004	19.997	103.155	19.963	2.909	0.532
1008.000	582.357	80.004	19.995	103.150	19.963	2.888	0.510
1010.000	583.409	80.004	19.995	103.154	19.963	2.904	0.513
1012.000	584.405	80.004	19.994	103.152	19.963	2.915	0.507
1014.000	585.411	80.004	19.995	103.164	19.967	2.649	0.500
1016.000	586.486	80.003	19.994	103.153	19.962	2.953	0.539
1018.000	587.448	80.005	19.995	103.155	19.963	2.865	0.484
1020.000	588.497	80.004	19.994	103.167	19.965	2.786	0.508
1022.000	589.538	80.005	19.995	103.158	19.967	2.642	0.500
1024.001	590.589	80.004	19.995	103.152	19.968	2.548	0.529
1026.000	591.607	80.006	19.996	103.159	19.969	2.481	0.489
1028.001	592.644	80.004	19.994	103.143	19.967	2.618	0.520
1030.000	593.688	80.006	19.998	103.144	19.968	2.576	0.519
1032.001	594.737	80.005	19.998	103.149	19.970	2.440	0.495
1034.000	595.755	80.004	19.996	103.153	19.971	2.367	0.497
1036.001	596.806	80.005	19.996	103.155	19.970	2.404	0.511
1038.000	597.884	80.002	19.996	103.146	19.969	2.473	0.528
1040.001	598.853	80.003	19.996	103.149	19.971	2.341	0.512
1042.000	599.913	80.004	19.997	103.150	19.971	2.380	0.525
1044.000	600.975	80.002	19.995	103.152	19.973	2.248	0.538
1046.000	601.966	80.003	19.996	103.151	19.973	2.237	0.512
1048.000	602.979	80.002	19.995	103.151	19.969	2.460	0.499
1050.000	604.009	80.003	19.995	103.150	19.971	2.382	0.502
1052.000	605.036	80.001	19.995	103.150	19.972	2.279	0.515
1054.000	606.017	80.002	19.995	103.148	19.975	2.081	0.500
1056.000	607.052	80.004	19.995	103.143	19.975	2.110	0.511
1058.000	608.054	80.003	19.995	103.148	19.972	2.279	0.490
1060.000	609.095	80.002	19.996	103.146	19.969	2.508	0.521
1062.001	610.078	80.003	19.997	103.148	19.967	2.620	0.493
1064.001	611.094	80.003	19.996	103.148	19.969	2.462	0.479
1066.001	612.140	79.998	19.997	103.149	19.972	2.277	0.508
1068.001	613.173	80.003	19.997	103.148	19.971	2.385	0.520
1070.000	614.188	80.003	19.997	103.149	19.971	2.363	0.486
1072.001	615.195	80.003	19.996	103.146	19.967	2.609	0.509
1074.000	616.224	80.004	19.994	103.145	19.970	2.422	0.507
1076.000	617.196	80.004	19.996	103.148	19.974	2.185	0.499
1078.000	618.166	80.004	19.995	103.146	19.969	2.473	0.492
1080.000	619.245	80.003	19.995	103.147	19.974	2.182	0.525
1082.000	620.248	80.004	19.996	103.146	19.974	2.164	0.536
1084.000	621.246	80.005	19.995	103.148	19.970	2.395	0.502
1086.000	622.239	80.005	19.995	103.148	19.975	2.070	0.495
1088.000	623.248	80.005	19.995	103.151	19.971	2.330	0.472
1090.000	624.270	80.005	19.996	103.151	19.969	2.475	0.488
1092.000	625.242	80.004	19.995	103.148	19.970	2.402	0.483
1094.000	626.244	80.004	19.995	103.150	19.972	2.285	0.485
1096.000	627.255	80.005	19.994	103.166	19.973	2.230	0.522
1098.000	628.247	80.005	19.995	103.161	19.973	2.252	0.517
1100.001	629.230	80.006	19.996	103.158	19.972	2.316	0.502
1102.000	630.256	80.003	19.996	103.153	19.973	2.232	0.522
1104.001	631.215	80.003	19.994	103.166	19.971	2.380	0.485
1106.001	632.252	80.005	19.994	103.166	19.969	2.523	0.523
1108.001	633.241	80.005	19.994	103.171	19.973	2.256	0.499
1110.001	634.262	80.006	19.994	103.167	19.968	2.562	0.514
1112.000	635.326	80.008	19.995	103.178	19.965	2.742	0.529
1114.000	636.286	80.007	19.994	103.179	19.967	2.615	0.504
1116.000	637.302	80.005	19.995	103.183	19.966	2.672	0.494
1118.001	638.340	80.005	19.994	103.177	19.969	2.500	0.501
1120.000	639.359	80.002	19.995	103.184	19.963	2.892	0.527
1122.001	640.328	80.001	19.996	103.186	19.964	2.855	0.497
1124.000	641.345	80.002	19.995	103.189	19.968	2.531	0.504
1126.000	642.327	80.001	19.995	103.185	19.962	2.954	0.493
1128.001	643.367	80.001	19.996	103.186	19.960	3.117	0.496
1130.000	644.351	80.001	19.995	103.190	19.962	2.953	0.493
1132.000	645.337	80.002	19.997	103.190	19.961	3.057	0.499
1134.000	646.342	80.002	19.995	103.191	19.959	3.134	0.505
1136.001	647.377	80.002	19.994	103.189	19.962	2.993	0.532
1138.000	648.383	80.005	19.995	103.186	19.956	3.357	0.525
1140.000	649.364	80.004	19.996	103.191	19.961	3.001	0.516
1142.000	650.394	80.003	19.995	103.194	19.964	2.843	0.506
1144.001	651.423	80.004	19.996	103.193	19.958	3.265	0.517
1146.000	652.465	80.005	19.996	103.200	19.959	3.183	0.511
1148.000	653.472	80.002	19.995	103.220	19.962	2.983	0.512
1150.000	654.559	80.004	19.996	103.220	19.959	3.165	0.531
1152.000	655.579	80.003	19.995	103.221	19.966	2.710	0.520
1154.000	656.578	80.002	19.997	103.222	19.960	3.088	0.527
1156.001	657.623	80.002	19.997	103.225	19.965	2.776	0.529
1158.000	658.648	80.004	19.997	103.223	19.958	3.231	0.506
1160.000	659.691	80.003	19.997	103.225	19.962	2.987	0.521
1162.000	660.695	80.002	19.996	103.232	19.961	3.059	0.522
1164.000	661.737	80.004	19.997	103.236	19.963	2.878	0.531
1166.000	662.772	80.005	19.996	103.241	19.955	3.415	0.494
1168.000	663.770	80.006	19.994	103.254	19.948	3.881	0.486
1170.001	664.810	80.005	19.994	103.257	19.956	3.378	0.513
1172.000	665.813	80.002	19.995	103.256	19.955	3.455	0.502
1174.000	666.836	80.004	19.996	103.263	19.953	3.576	0.544
1176.001	667.829	80.005	19.995	103.265	19.952	3.643	0.500
1178.000	668.834	80.003	19.995	103.265	19.957	3.296	0.527
1180.000	669.850	80.005	19.995	103.267	19.949	3.830	0.497
1182.001	670.848	80.003	19.994	103.269	19.952	3.623	0.524
1184.000	671.847	80.005	19.995	103.267	19.948	3.900	0.499
1186.000	672.888	80.006	19.995	103.266	19.949	3.873	0.513
1188.000	673.898	80.004	19.995	103.272	19.949	3.864	0.489
1190.000	674.928	80.005	19.994	103.277	19.947	3.970	0.514
1192.000	675.990	80.007	19.995	103.297	19.949	3.838	0.537
1194.001	676.969	80.003	19.994	103.292	19.946	4.064	0.525
1196.000	677.963	80.006	19.994	103.298	19.945	4.132	0.498
1198.000	679.003	80.005	19.995	103.290	19.946	4.071	0.495
1200.000	679.962	80.005	19.995	103.301	19.943	4.232	0.492
1202.000	681.007	80.004	19.996	103.302	19.941	4.370	0.496
1204.000	682.018	80.003	19.994	103.304	19.942	4.350	0.523
1206.000	683.018	80.002	19.995	103.303	19.942	4.319	0.492
1208.001	684.044	80.004	19.995	103.303	19.947	3.948	0.489
1210.001	685.084	80.006	19.994	103.300	19.945	4.122	0.532
1212.000	686.046	80.003	19.994	103.296	19.943	4.272	0.513
1214.000	687.066	80.002	19.994	103.302	19.943	4.253	0.510
1216.000	688.043	80.002	19.995	103.302	19.942	4.292	0.501
1218.000	689.084	80.003	19.996	103.301	19.947	4.011	0.535
1220.000	690.077	80.002	19.996	103.300	19.947	3.973	0.519
1222.000	691.099	80.003	19.996	103.287	19.942	4.303	0.537
1224.000	692.098	80.003	19.995	103.291	19.943	4.271	0.519
1226.001	693.133	80.004	19.995	103.293	19.943	4.255	0.491
1228.000	694.122	80.000	19.996	103.276	19.945	4.097	0.494
1230.000	695.128	80.003	19.995	103.269	19.948	3.888	0.511
1232.000	696.138	80.002	19.997	103.266	19.948	3.887	0.498
1234.001	697.169	80.004	19.997	103.264	19.945	4.085	0.537
1236.000	698.158	80.002	19.996	103.264	19.947	3.954	0.485
1238.000	699.142	79.999	19.996	103.264	19.950	3.767	0.498
1240.000	700.170	80.003	19.996	103.257	19.952	3.628	0.498
1242.000	701.191	80.003	19.995	103.244	19.952	3.620	0.512
1244.000	702.206	80.002	19.996	103.242	19.955	3.442	0.479
1246.000	703.233	80.005	19.996	103.226	19.957	3.332	0.495
1248.000	704.240	80.003	19.996	103.226	19.957	3.322	0.489
1250.000	705.275	80.004	19.996	103.225	19.958	3.249	0.509
1252.002	706.264	80.004	19.995	103.211	19.961	3.065	0.519
1254.001	707.293	80.006	19.997	103.192	19.965	2.759	0.513
1256.000	708.315	80.003	19.995	103.190	19.965	2.795	0.494
1258.000	709.302	79.999	19.995	103.182	19.966	2.684	0.501
1260.000	710.304	80.002	19.995	103.184	19.966	2.726	0.521
1262.000	711.345	80.002	19.994	103.177	19.967	2.608	0.504
1264.000	712.361	80.004	19.995	103.152	19.969	2.475	0.502
1266.000	713.401	80.004	19.995	103.146	19.972	2.314	0.505
1268.001	714.392	80.004	19.996	103.142	19.973	2.226	0.486
1270.000	715.424	80.003	19.995	103.144	19.972	2.266	0.505
1272.001	716.442	80.005	19.995	103.144	19.972	2.321	0.508
1274.001	717.461	80.004	19.994	103.135	19.970	2.419	0.489
1276.000	718.496	80.005	19.995	103.139	19.973	2.242	0.511
1278.000	719.465	80.007	19.995	103.140	19.974	2.139	0.476
1280.000	720.478	80.004	19.996	103.130	19.978	1.912	0.488
1282.000	721.481	80.004	19.994	103.134	19.973	2.237	0.482
1284.001	722.513	80.004	19.995	103.128	19.973	2.253	0.509
1286.000	723.479	80.003	19.997	103.126	19.974	2.169	0.471
1288.000	724.527	80.003	19.995	103.128	19.971	2.341	0.486
1290.000	725.554	80.003	19.995	103.135	19.975	2.070	0.517
1292.001	726.568	80.003	19.996	103.134	19.971	2.355	0.492
1294.000	727.579	80.005	19.995	103.133	19.974	2.123	0.508
1296.000	728.560	80.005	19.995	103.126	19.970	2.422	0.485
1298.000	729.569	80.004	19.995	103.126	19.970	2.394	0.477
1300.000	730.615	80.003	19.995	103.130	19.974	2.132	0.515
1302.001	731.618	80.003	19.995	103.126	19.971	2.372	0.521
1304.000	732.594	80.007	19.995	103.122	19.967	2.654	0.499
1306.001	733.609	80.004	19.994	103.129	19.972	2.273	0.488
1308.000	734.623	80.005	19.995	103.134	19.971	2.324	0.520
1310.000	735.563	80.004	19.995	103.123	19.971	2.339	0.465
1312.001	736.561	80.003	19.995	103.129	19.969	2.522	0.502
1314.001	737.565	80.001	19.996	103.118	19.971	2.353	0.515
1316.000	738.579	80.002	19.996	103.113	19.977	1.940	0.522
1318.000	739.575	80.002	19.996	103.120	19.968	2.555	0.535
1320.000	740.617	80.002	19.996	103.141	19.975	2.075	0.556
1322.001	741.583	80.000	19.996	103.132	19.973	2.194	0.491
1324.001	742.615	80.002	19.995	103.116	19.973	2.233	0.511
1326.000	743.615	80.001	19.994	103.121	19.971	2.335	0.500