File: 01_Data/Rug_Pad/MCC/Rug_Pad_MCC_30K_min_211008_R1.txt
Sample ID:	C:\MCC\MCC Cal\Test\Rug_pad_MCC_30K_min_211008_R1.txt
Sample Weight (mg):	4.86
Heating Rate (C/s):	0.5
Combustor Temp (C):	900
N2 Flow Rate (cc/min):	80
O2 Flow Rate (cc/min):	20
Calibration File:	C:\MCC\MCC Cal\Coeff1 JN10440_30_210304.txt.txt
T Correction Coefficients:	0	1.024463	0
Time Shift (s):	14
*
Time (s)	Temperature (C)	N2 flow rate (cc/min)	O2 flow rate (cc/min)	Flow Rate (cc/min)	Oxygen (%)	HRR (W/g)	Heating rate (C/s)
0.000	106.230	79.998	19.996	100.775	20.032	0.077	-0.008
2.000	106.273	80.000	19.998	100.776	20.035	-0.144	0.019
4.000	106.222	79.999	19.998	100.773	20.029	0.245	-0.015
6.000	106.237	79.998	19.995	100.775	20.034	-0.055	-0.015
8.000	106.238	79.999	19.997	100.776	20.031	0.174	0.039
9.999	106.265	79.999	19.998	100.783	20.028	0.320	0.002
11.999	106.235	79.999	19.997	100.785	20.027	0.405	-0.008
14.000	106.263	79.999	19.995	100.787	20.031	0.118	-0.005
15.999	106.305	80.000	19.997	100.784	20.028	0.315	0.045
18.000	106.289	80.001	19.995	100.795	20.024	0.578	-0.016
20.000	106.345	80.001	19.996	100.821	20.026	0.477	0.036
22.000	106.343	80.000	19.993	100.831	20.022	0.703	0.034
24.000	106.393	80.001	19.995	100.823	20.019	0.928	0.027
26.000	106.417	79.999	19.994	100.842	20.018	1.011	0.021
28.000	106.523	79.999	19.997	100.880	20.016	1.124	0.049
30.000	106.654	79.999	19.996	100.897	20.011	1.445	0.086
32.000	106.754	79.999	19.994	100.887	20.010	1.483	0.051
34.001	106.899	79.998	19.995	100.889	20.007	1.723	0.102
36.001	107.050	80.000	19.996	100.902	20.002	2.003	0.072
38.000	107.185	79.997	19.994	100.896	20.003	1.972	0.110
40.000	107.412	79.998	19.996	100.917	19.998	2.266	0.139
42.000	107.599	80.001	19.996	100.928	20.002	2.049	0.097
44.000	107.830	80.000	19.997	100.932	20.002	2.055	0.096
46.000	108.106	79.999	19.996	100.937	19.997	2.360	0.142
48.000	108.321	79.999	19.996	100.932	19.995	2.471	0.101
50.000	108.663	79.998	19.998	100.934	19.994	2.524	0.137
52.000	108.952	79.998	19.995	100.940	20.001	2.092	0.142
54.000	109.266	79.998	19.996	100.943	19.991	2.735	0.178
56.000	109.631	79.999	19.997	100.967	19.988	2.957	0.144
58.000	110.010	79.998	19.998	100.960	19.992	2.654	0.201
60.000	110.419	79.996	19.998	100.966	19.989	2.868	0.191
62.000	110.817	79.996	19.996	100.948	19.993	2.609	0.180
64.001	111.179	79.996	19.996	100.957	19.990	2.799	0.209
65.999	111.686	79.997	19.997	100.963	19.994	2.515	0.228
67.999	112.102	79.998	19.996	100.957	19.995	2.498	0.217
69.999	112.533	79.998	19.996	100.975	19.991	2.763	0.221
71.999	113.010	79.997	19.996	100.977	19.988	2.958	0.252
73.999	113.491	79.998	19.997	100.978	19.993	2.623	0.242
76.001	114.062	79.997	19.996	100.979	19.983	3.237	0.281
78.000	114.549	79.997	19.995	100.977	19.992	2.672	0.243
79.999	115.085	79.998	19.996	100.984	19.992	2.669	0.269
81.999	115.664	79.999	19.997	100.999	19.984	3.205	0.259
84.000	116.205	79.998	19.997	100.994	19.987	2.984	0.273
85.999	116.743	79.999	19.996	100.994	19.984	3.165	0.315
87.999	117.365	79.998	19.996	100.986	19.981	3.408	0.319
89.999	117.958	79.998	19.995	100.988	19.983	3.252	0.287
91.999	118.595	79.998	19.995	100.996	19.976	3.685	0.311
93.999	119.190	79.999	19.997	101.010	19.979	3.544	0.300
95.999	119.843	79.999	19.995	101.014	19.977	3.654	0.298
97.999	120.523	79.999	19.997	101.013	19.983	3.274	0.340
99.999	121.211	80.000	19.995	101.017	19.978	3.602	0.331
101.999	121.916	80.001	19.994	101.016	19.974	3.812	0.346
104.000	122.592	80.001	19.995	101.013	19.980	3.460	0.321
106.000	123.339	79.999	19.995	101.014	19.975	3.800	0.371
108.000	124.098	80.000	19.996	101.014	19.977	3.670	0.354
109.999	124.834	79.999	19.996	101.014	19.975	3.779	0.388
112.000	125.579	79.997	19.996	101.014	19.978	3.599	0.398
113.999	126.348	79.998	19.996	101.017	19.974	3.813	0.384
115.999	127.107	79.998	19.996	101.017	19.979	3.513	0.377
117.999	127.914	79.999	19.997	101.017	19.975	3.776	0.392
119.999	128.709	79.998	19.996	101.018	19.972	3.957	0.403
121.999	129.533	79.999	19.995	101.019	19.972	3.991	0.415
123.999	130.311	79.997	19.995	101.020	19.974	3.812	0.372
126.000	131.182	79.999	19.997	101.025	19.982	3.351	0.439
127.999	131.955	79.999	19.996	101.036	19.981	3.358	0.397
130.000	132.819	79.998	19.996	101.028	19.976	3.717	0.427
132.000	133.666	79.999	19.997	101.028	19.978	3.566	0.429
134.000	134.544	79.998	19.995	101.021	19.976	3.721	0.430
136.000	135.395	79.996	19.995	101.021	19.975	3.755	0.438
138.000	136.283	79.998	19.996	101.026	19.972	3.968	0.471
140.000	137.217	79.998	19.997	101.021	19.974	3.867	0.474
142.000	138.063	79.999	19.999	101.022	19.978	3.594	0.434
144.000	138.912	79.997	19.996	101.026	19.973	3.892	0.444
146.000	139.849	79.997	19.997	101.021	19.978	3.610	0.477
148.000	140.722	79.997	19.997	101.026	19.975	3.747	0.456
150.000	141.647	79.998	19.998	101.027	19.974	3.818	0.440
152.000	142.588	79.999	19.997	101.020	19.977	3.673	0.474
154.000	143.525	79.998	19.997	101.017	19.976	3.687	0.489
156.000	144.473	79.998	19.996	101.017	19.974	3.849	0.464
158.000	145.401	79.999	19.995	101.016	19.971	4.017	0.460
160.000	146.360	79.999	19.997	101.014	19.973	3.893	0.520
162.000	147.248	80.000	19.997	101.015	19.969	4.161	0.468
164.000	148.202	80.000	19.996	101.019	19.976	3.689	0.491
166.000	149.174	79.999	19.997	101.015	19.970	4.079	0.474
168.000	150.147	79.998	19.997	101.018	19.971	4.015	0.499
170.000	151.054	79.998	19.996	101.016	19.971	4.057	0.459
172.000	151.981	79.998	19.997	101.013	19.970	4.098	0.450
174.000	152.950	80.000	19.997	101.015	19.975	3.784	0.489
176.000	153.891	79.999	19.997	101.017	19.975	3.796	0.476
178.000	154.850	79.999	19.998	101.012	19.972	3.952	0.443
180.001	155.821	80.000	19.996	101.013	19.971	4.059	0.493
182.000	156.807	80.000	19.995	101.012	19.973	3.920	0.493
184.000	157.770	80.002	19.997	101.013	19.972	3.998	0.444
186.000	158.773	80.001	19.995	101.012	19.973	3.883	0.503
188.000	159.785	80.001	19.996	101.013	19.976	3.696	0.513
190.000	160.775	80.001	19.995	101.013	19.973	3.876	0.505
192.000	161.743	79.999	19.994	101.013	19.971	4.031	0.498
194.000	162.667	79.999	19.996	101.015	19.975	3.775	0.470
196.000	163.718	79.998	19.996	101.016	19.973	3.890	0.494
198.000	164.683	79.998	19.996	101.017	19.974	3.849	0.514
200.000	165.741	79.999	19.995	101.018	19.973	3.882	0.513
202.000	166.725	79.997	19.996	101.015	19.969	4.152	0.472
204.000	167.720	79.997	19.995	101.013	19.968	4.227	0.483
206.000	168.642	79.999	19.996	101.004	19.968	4.247	0.471
208.000	169.685	79.997	19.995	101.012	19.976	3.731	0.514
210.000	170.693	79.998	19.995	101.004	19.972	3.953	0.499
212.000	171.659	79.997	19.994	101.010	19.970	4.069	0.452
214.000	172.606	79.997	19.996	101.010	19.972	3.965	0.461
216.000	173.612	79.998	19.995	101.008	19.971	4.037	0.521
218.000	174.594	79.999	19.995	101.003	19.972	3.949	0.474
220.000	175.617	79.998	19.995	101.006	19.972	3.938	0.504
222.000	176.621	79.998	19.996	101.001	19.972	3.995	0.519
224.000	177.567	79.998	19.994	100.993	19.967	4.278	0.495
226.000	178.581	79.998	19.996	100.994	19.971	4.005	0.510
228.000	179.532	79.998	19.996	100.992	19.972	3.940	0.470
230.000	180.530	79.999	19.996	100.994	19.970	4.111	0.497
232.000	181.537	79.999	19.996	100.994	19.972	3.968	0.507
234.000	182.546	79.998	19.997	100.985	19.969	4.160	0.499
236.000	183.504	79.998	19.997	100.991	19.969	4.140	0.527
238.000	184.456	79.999	19.997	100.986	19.969	4.170	0.472
240.000	185.521	79.999	19.997	100.984	19.969	4.156	0.498
242.000	186.514	79.998	19.996	100.982	19.964	4.488	0.500
244.000	187.517	80.001	19.997	100.978	19.968	4.248	0.532
246.000	188.492	80.000	19.997	100.976	19.965	4.428	0.497
248.000	189.447	79.999	19.997	100.976	19.967	4.299	0.494
250.000	190.446	79.999	19.996	100.977	19.968	4.257	0.503
252.000	191.392	79.999	19.996	100.980	19.966	4.335	0.469
254.000	192.384	79.998	19.997	100.981	19.963	4.583	0.498
256.000	193.343	80.000	19.997	100.981	19.966	4.357	0.475
258.000	194.369	79.999	19.996	100.980	19.960	4.722	0.515
260.000	195.314	79.999	19.997	100.984	19.965	4.449	0.497
262.000	196.249	80.000	19.996	100.979	19.961	4.687	0.459
264.000	197.245	80.000	19.996	100.978	19.962	4.616	0.517
266.000	198.213	79.999	19.997	100.978	19.961	4.687	0.486
268.000	199.199	80.000	19.996	100.982	19.960	4.730	0.506
270.000	200.159	80.000	19.997	100.976	19.957	4.913	0.463
272.000	201.127	79.999	19.997	100.976	19.959	4.807	0.501
274.000	202.091	79.998	19.996	100.977	19.952	5.277	0.496
276.000	203.060	79.999	19.997	100.978	19.952	5.263	0.457
278.000	204.045	79.998	19.996	100.982	19.952	5.239	0.488
280.000	205.032	79.998	19.996	100.982	19.955	5.041	0.507
282.000	205.974	79.997	19.996	100.980	19.954	5.115	0.474
284.001	206.965	79.998	19.995	100.979	19.949	5.439	0.489
286.000	207.960	79.999	19.995	100.976	19.949	5.475	0.516
288.000	208.920	79.998	19.996	100.978	19.949	5.436	0.469
290.000	209.923	79.999	19.996	100.980	19.951	5.350	0.512
292.000	210.880	79.999	19.996	100.976	19.947	5.617	0.482
294.000	211.862	79.998	19.996	100.974	19.946	5.626	0.469
296.000	212.890	79.999	19.996	100.975	19.945	5.720	0.511
298.000	213.841	79.999	19.997	100.974	19.943	5.819	0.473
300.000	214.832	79.999	19.995	100.975	19.944	5.797	0.487
302.000	215.777	79.999	19.996	100.972	19.945	5.738	0.487
304.000	216.805	79.999	19.997	100.971	19.946	5.649	0.509
306.000	217.758	79.998	19.995	100.974	19.941	5.961	0.484
308.000	218.719	79.999	19.996	100.975	19.940	6.055	0.499
310.000	219.684	80.000	19.996	100.976	19.941	5.954	0.473
312.000	220.666	79.998	19.996	100.976	19.938	6.185	0.485
314.000	221.631	79.998	19.996	100.976	19.939	6.100	0.501
316.000	222.693	79.998	19.995	100.976	19.941	5.991	0.538
318.000	223.650	79.997	19.997	100.977	19.942	5.933	0.477
320.000	224.643	80.000	19.995	100.975	19.938	6.142	0.505
322.000	225.608	80.000	19.996	100.977	19.937	6.243	0.512
324.000	226.617	79.999	19.996	100.972	19.937	6.204	0.529
326.000	227.596	80.000	19.995	100.977	19.936	6.271	0.488
328.000	228.605	79.999	19.995	100.975	19.937	6.268	0.515
330.000	229.592	80.000	19.997	100.970	19.936	6.272	0.509
332.000	230.593	79.999	19.997	100.969	19.932	6.573	0.494
334.000	231.628	79.999	19.996	100.970	19.936	6.300	0.504
336.000	232.602	79.999	19.996	100.965	19.929	6.758	0.524
338.000	233.519	79.998	19.997	100.969	19.926	6.982	0.505
340.000	234.646	79.999	19.996	100.974	19.925	7.032	0.517
342.000	235.681	79.998	19.996	100.977	19.925	7.041	0.578
344.000	236.428	80.000	19.996	100.975	19.924	7.094	0.492
346.000	237.445	80.000	19.995	100.971	19.926	6.974	0.526
348.000	238.550	80.001	19.996	100.973	19.920	7.365	0.531
350.000	239.490	80.001	19.996	100.964	19.919	7.391	0.511
352.000	240.451	79.999	19.998	100.962	19.919	7.406	0.421
354.000	241.413	79.999	19.997	100.968	19.919	7.388	0.500
356.000	242.454	80.001	19.997	100.967	19.918	7.454	0.501
358.000	243.474	79.998	19.997	100.969	19.918	7.440	0.506
360.000	244.544	79.997	19.998	100.958	19.919	7.394	0.534
362.000	245.521	79.998	19.999	100.962	19.917	7.536	0.521
364.000	246.543	79.998	19.997	100.965	19.913	7.760	0.536
366.000	247.577	79.998	19.997	100.963	19.915	7.638	0.513
368.000	248.573	79.999	19.998	100.972	19.915	7.663	0.510
370.000	249.605	79.998	19.996	100.971	19.912	7.845	0.537
372.000	250.687	79.999	19.997	100.967	19.915	7.661	0.554
374.000	251.695	79.999	19.997	100.971	19.912	7.862	0.523
376.000	252.711	79.997	19.995	100.957	19.908	8.100	0.516
378.000	253.716	79.998	19.995	100.959	19.909	8.035	0.486
380.000	254.754	79.998	19.996	100.963	19.900	8.663	0.556
382.000	255.724	79.999	19.996	100.964	19.898	8.767	0.496
384.000	256.744	79.999	19.996	100.962	19.896	8.870	0.481
386.000	257.764	79.998	19.996	100.952	19.897	8.818	0.496
388.000	258.790	79.998	19.996	100.961	19.895	8.978	0.502
390.000	259.766	79.997	19.995	100.966	19.894	9.002	0.469
392.000	260.744	79.997	19.996	100.969	19.892	9.130	0.489
394.000	261.696	79.998	19.995	100.960	19.891	9.227	0.491
396.000	262.701	79.997	19.997	100.959	19.886	9.546	0.488
398.000	263.702	79.997	19.995	100.951	19.889	9.354	0.503
400.000	264.709	79.998	19.995	100.956	19.888	9.436	0.478
402.000	265.658	79.999	19.996	100.964	19.892	9.178	0.494
404.000	266.697	80.000	19.995	100.966	19.884	9.692	0.512
406.000	267.724	79.999	19.995	100.976	19.879	10.012	0.527
408.000	268.763	79.999	19.997	100.970	19.882	9.784	0.510
410.000	269.698	80.000	19.996	100.966	19.885	9.584	0.493
412.000	270.755	80.001	19.996	100.955	19.879	9.983	0.522
414.000	271.845	80.000	19.996	100.949	19.882	9.811	0.538
416.000	272.819	79.999	19.996	100.957	19.874	10.316	0.482
418.000	273.823	80.000	19.995	100.954	19.876	10.160	0.486
420.000	274.881	79.999	19.996	100.948	19.879	10.023	0.532
422.000	275.876	79.998	19.996	100.952	19.877	10.149	0.519
424.000	276.858	79.999	19.997	100.949	19.876	10.221	0.515
426.000	277.846	80.000	19.996	100.948	19.874	10.309	0.495
428.000	278.837	79.999	19.996	100.946	19.871	10.532	0.516
430.000	279.865	80.000	19.996	100.944	19.875	10.229	0.495
432.000	280.870	80.000	19.994	100.936	19.873	10.386	0.493
434.000	281.874	80.001	19.996	100.941	19.876	10.168	0.501
436.000	282.813	80.000	19.996	100.950	19.874	10.299	0.487
438.000	283.865	80.000	19.996	100.943	19.874	10.294	0.504
440.000	284.886	79.997	19.997	100.941	19.873	10.379	0.521
442.000	285.865	79.999	19.997	100.947	19.874	10.322	0.506
444.000	286.917	79.998	19.996	100.952	19.872	10.435	0.552
446.000	287.850	79.999	19.997	100.948	19.873	10.362	0.500
448.000	288.861	79.996	19.998	100.941	19.878	10.047	0.475
450.000	289.885	79.998	19.998	100.947	19.874	10.323	0.505
452.000	290.872	79.998	19.997	100.941	19.879	9.998	0.477
454.000	291.921	79.996	19.996	100.943	19.877	10.144	0.502
456.000	292.899	79.996	19.997	100.940	19.878	10.026	0.462
458.000	293.914	79.997	19.998	100.939	19.877	10.103	0.504
460.000	294.886	79.997	19.997	100.946	19.878	10.030	0.477
462.000	295.921	79.999	19.996	100.943	19.877	10.105	0.468
464.000	296.914	79.999	19.997	100.942	19.872	10.463	0.474
466.000	297.969	79.999	19.998	100.941	19.875	10.271	0.488
468.000	299.019	79.997	19.996	100.947	19.872	10.428	0.545
470.000	300.006	79.997	19.997	100.947	19.873	10.399	0.521
472.000	301.001	79.998	19.996	100.942	19.874	10.320	0.508
474.000	302.066	79.999	19.995	100.943	19.877	10.122	0.522
476.000	303.054	80.000	19.995	100.943	19.874	10.342	0.500
478.000	304.018	79.997	19.997	100.940	19.875	10.279	0.499
480.000	305.070	80.000	19.996	100.939	19.875	10.255	0.508
482.000	306.026	80.000	19.997	100.937	19.874	10.293	0.517
484.000	307.081	80.000	19.996	100.936	19.872	10.473	0.502
486.000	308.065	80.001	19.997	100.934	19.869	10.612	0.492
488.000	309.085	80.001	19.996	100.935	19.868	10.723	0.532
490.000	310.112	80.000	19.996	100.937	19.869	10.614	0.515
492.000	311.138	80.001	19.996	100.936	19.864	10.968	0.499
494.000	312.157	80.000	19.996	100.936	19.864	10.956	0.512
496.000	313.187	79.999	19.995	100.936	19.865	10.930	0.495
498.000	314.231	80.001	19.995	100.936	19.860	11.231	0.530
500.000	315.183	79.997	19.995	100.937	19.859	11.271	0.499
502.000	316.235	80.000	19.996	100.938	19.856	11.514	0.520
504.000	317.285	80.000	19.996	100.938	19.852	11.759	0.541
506.000	318.251	79.997	19.996	100.937	19.847	12.034	0.475
508.000	319.265	80.002	19.996	100.937	19.845	12.188	0.482
510.000	320.295	79.999	19.996	100.936	19.847	12.034	0.532
512.000	321.297	80.002	19.995	100.934	19.847	12.098	0.510
514.000	322.302	80.002	19.996	100.935	19.843	12.353	0.521
516.000	323.307	80.000	19.996	100.937	19.839	12.594	0.473
518.000	324.307	80.002	19.996	100.936	19.828	13.305	0.500
520.000	325.342	80.000	19.996	100.938	19.825	13.508	0.497
522.000	326.310	79.999	19.997	100.936	19.818	13.959	0.489
524.000	327.351	80.001	19.996	100.938	19.816	14.094	0.517
526.000	328.336	79.999	19.996	100.936	19.803	14.914	0.512
528.000	329.345	80.000	19.997	100.935	19.799	15.190	0.518
530.000	330.344	79.996	19.996	100.937	19.784	16.140	0.493
532.000	331.361	79.999	19.995	100.939	19.779	16.496	0.506
534.000	332.338	79.997	19.995	100.937	19.772	16.920	0.526
536.000	333.346	79.997	19.995	100.939	19.764	17.445	0.497
538.000	334.351	79.998	19.997	100.939	19.755	18.053	0.518
540.000	335.347	80.002	19.995	100.940	19.739	19.076	0.511
542.000	336.348	80.000	19.997	100.938	19.729	19.732	0.496
544.000	337.394	79.998	19.995	100.936	19.711	20.854	0.538
546.000	338.365	79.999	19.997	100.935	19.701	21.533	0.502
548.000	339.362	79.997	19.997	100.934	19.688	22.384	0.506
550.000	340.414	79.996	19.996	100.935	19.666	23.800	0.517
552.000	341.460	79.999	19.998	100.934	19.649	24.893	0.533
554.000	342.469	79.999	19.998	100.934	19.633	25.937	0.505
556.000	343.443	79.997	19.996	100.933	19.607	27.606	0.520
558.000	344.399	79.999	19.997	100.937	19.592	28.605	0.530
560.000	345.442	79.998	19.997	100.934	19.570	30.045	0.501
562.000	346.412	79.998	19.996	100.934	19.547	31.495	0.479
564.000	347.444	80.000	19.995	100.935	19.524	32.992	0.489
566.000	348.407	79.997	19.995	100.931	19.498	34.696	0.499
568.000	349.414	80.001	19.995	100.928	19.472	36.342	0.501
570.000	350.457	80.000	19.995	100.934	19.440	38.445	0.487
572.000	351.442	80.000	19.994	100.924	19.412	40.260	0.495
574.000	352.488	79.999	19.996	100.915	19.380	42.339	0.566
576.000	353.524	79.998	19.994	100.920	19.346	44.509	0.514
578.000	354.539	79.999	19.994	100.923	19.320	46.217	0.531
580.000	355.518	80.001	19.995	100.919	19.279	48.870	0.502
582.000	356.530	79.999	19.996	100.926	19.238	51.481	0.492
584.000	357.559	80.002	19.995	100.920	19.203	53.746	0.494
586.000	358.585	80.000	19.995	100.920	19.165	56.213	0.503
588.000	359.556	79.998	19.997	100.912	19.124	58.867	0.506
590.000	360.588	80.002	19.996	100.912	19.084	61.510	0.504
592.000	361.579	80.000	19.996	100.901	19.041	64.248	0.484
594.000	362.596	80.001	19.994	100.901	18.999	66.969	0.495
596.000	363.585	80.001	19.994	100.904	18.960	69.484	0.509
598.000	364.555	80.000	19.994	100.900	18.918	72.260	0.493
600.000	365.559	80.000	19.994	100.901	18.879	74.747	0.498
602.000	366.537	80.001	19.995	100.901	18.839	77.352	0.479
604.000	367.576	79.998	19.995	100.899	18.803	79.646	0.520
606.000	368.564	80.000	19.996	100.893	18.762	82.306	0.514
608.000	369.566	79.999	19.995	100.891	18.731	84.346	0.462
610.000	370.543	79.998	19.998	100.881	18.697	86.503	0.480
612.000	371.556	80.000	19.996	100.878	18.667	88.464	0.507
614.000	372.608	79.998	19.996	100.869	18.642	90.079	0.531
616.000	373.661	79.999	19.997	100.865	18.625	91.199	0.586
618.000	374.650	79.999	19.996	100.864	18.599	92.868	0.475
620.000	375.633	79.999	19.996	100.857	18.585	93.750	0.503
622.000	376.628	79.999	19.996	100.857	18.573	94.559	0.545
624.000	377.658	79.997	19.996	100.855	18.567	94.927	0.510
626.000	378.643	80.000	19.995	100.856	18.562	95.284	0.487
628.000	379.644	79.998	19.997	100.856	18.570	94.717	0.502
630.000	380.689	79.999	19.996	100.848	18.577	94.291	0.512
632.000	381.689	80.000	19.996	100.846	18.587	93.651	0.488
634.000	382.703	79.998	19.996	100.847	18.604	92.507	0.525
636.000	383.703	79.999	19.997	100.850	18.622	91.384	0.502
638.000	384.711	79.998	19.997	100.852	18.647	89.760	0.505
640.000	385.721	79.998	19.998	100.852	18.676	87.894	0.508
642.000	386.736	79.996	19.999	100.854	18.707	85.871	0.487
644.000	387.711	79.998	19.998	100.851	18.739	83.781	0.488
646.000	388.741	79.997	19.997	100.857	18.774	81.545	0.482
648.000	389.782	80.000	19.996	100.859	18.804	79.615	0.513
650.000	390.779	79.998	19.996	100.860	18.842	77.159	0.494
652.000	391.822	80.000	19.996	100.860	18.877	74.864	0.506
654.000	392.816	80.001	19.996	100.861	18.915	72.414	0.486
656.000	393.864	80.001	19.996	100.862	18.957	69.703	0.504
658.000	394.896	80.001	19.996	100.863	18.990	67.584	0.501
660.000	395.874	79.998	19.995	100.864	19.026	65.214	0.517
662.000	396.894	79.998	19.994	100.875	19.056	63.289	0.497
664.000	397.864	80.000	19.996	100.887	19.084	61.462	0.470
666.000	398.918	79.998	19.996	100.889	19.115	59.487	0.522
668.000	399.922	79.999	19.996	100.901	19.142	57.740	0.529
670.000	400.945	79.997	19.995	100.902	19.169	55.983	0.485
672.000	401.952	80.000	19.996	100.900	19.196	54.250	0.481
674.000	402.977	80.001	19.997	100.906	19.218	52.846	0.515
676.000	403.948	80.003	19.997	100.907	19.239	51.436	0.451
678.000	404.988	80.003	19.995	100.911	19.257	50.290	0.512
680.000	406.014	80.002	19.996	100.913	19.272	49.303	0.514
682.000	407.029	80.001	19.995	100.921	19.289	48.230	0.493
684.000	408.044	80.000	19.995	100.922	19.300	47.543	0.520
686.000	409.054	80.000	19.995	100.934	19.316	46.468	0.526
688.000	410.043	79.999	19.995	100.934	19.328	45.723	0.489
690.000	411.133	79.999	19.996	100.935	19.336	45.148	0.541
692.000	412.141	80.001	19.994	100.936	19.341	44.854	0.510
694.000	413.147	79.999	19.996	100.935	19.352	44.109	0.536
696.000	414.148	80.001	19.995	100.936	19.360	43.622	0.519
698.000	415.094	79.999	19.995	100.937	19.366	43.266	0.506
700.000	416.122	79.998	19.995	100.938	19.370	43.007	0.497
702.000	417.117	79.998	19.997	100.938	19.377	42.548	0.515
704.000	418.126	79.998	19.997	100.936	19.382	42.221	0.479
706.000	419.108	80.000	19.997	100.940	19.383	42.171	0.476
708.000	420.155	79.999	19.997	100.942	19.392	41.565	0.526
710.000	421.159	79.997	19.996	100.950	19.391	41.632	0.505
712.000	422.166	80.000	19.996	100.942	19.393	41.503	0.478
714.000	423.163	79.997	19.997	100.949	19.405	40.685	0.494
716.000	424.149	79.997	19.997	100.964	19.413	40.186	0.502
718.000	425.165	79.998	19.995	100.952	19.413	40.168	0.526
720.000	426.197	79.998	19.996	100.951	19.424	39.506	0.508
722.000	427.211	79.997	19.996	100.956	19.432	38.965	0.506
724.000	428.240	79.997	19.996	100.960	19.437	38.604	0.517
726.000	429.224	79.997	19.996	100.944	19.448	37.904	0.480
728.000	430.283	79.997	19.997	100.941	19.457	37.361	0.539
730.000	431.311	79.997	19.997	100.951	19.470	36.491	0.497
732.000	432.332	79.998	19.996	100.945	19.478	35.952	0.490
734.000	433.357	79.997	19.997	100.942	19.490	35.177	0.513
736.000	434.417	79.999	19.996	100.939	19.508	34.063	0.537
738.000	435.424	80.001	19.996	100.939	19.518	33.405	0.496
740.000	436.463	79.998	19.996	100.934	19.533	32.418	0.520
742.000	437.423	80.000	19.997	100.935	19.549	31.359	0.496
744.000	438.468	80.000	19.996	100.934	19.567	30.211	0.487
746.000	439.484	79.999	19.995	100.934	19.581	29.293	0.525
748.000	440.458	80.000	19.995	100.934	19.592	28.604	0.467
750.000	441.498	79.998	19.995	100.934	19.610	27.428	0.490
752.000	442.464	80.000	19.995	100.936	19.623	26.589	0.456
754.000	443.516	80.001	19.995	100.933	19.637	25.655	0.512
756.000	444.508	80.000	19.995	100.931	19.648	24.931	0.501
758.000	445.560	80.000	19.996	100.930	19.661	24.089	0.482
760.000	446.556	80.002	19.995	100.919	19.672	23.414	0.509
762.000	447.483	79.999	19.997	100.930	19.683	22.667	0.518
764.000	448.512	80.000	19.995	100.932	19.697	21.774	0.517
766.000	449.531	80.000	19.995	100.932	19.705	21.260	0.535
768.000	450.518	79.999	19.996	100.933	19.715	20.614	0.498
770.000	451.527	79.999	19.996	100.932	19.724	20.006	0.519
772.000	452.527	80.000	19.996	100.933	19.730	19.650	0.513
774.000	453.526	79.998	19.996	100.933	19.741	18.964	0.516
776.000	454.529	80.000	19.995	100.937	19.753	18.183	0.509
778.000	455.554	79.997	19.995	100.937	19.764	17.427	0.506
780.000	456.595	80.000	19.996	100.939	19.772	16.929	0.498
782.000	457.594	79.999	19.996	100.939	19.781	16.334	0.488
784.000	458.628	79.998	19.995	100.938	19.790	15.782	0.527
786.000	459.602	79.999	19.996	100.937	19.799	15.204	0.499
788.000	460.650	79.998	19.995	100.935	19.809	14.501	0.527
790.000	461.696	79.998	19.996	100.935	19.820	13.795	0.530
792.000	462.724	79.998	19.996	100.938	19.828	13.287	0.534
794.000	463.708	79.998	19.996	100.936	19.837	12.725	0.492
796.000	464.684	79.999	19.996	100.937	19.849	11.963	0.505
798.000	465.702	79.996	19.997	100.933	19.857	11.426	0.528
800.000	466.755	79.998	19.996	100.926	19.865	10.904	0.513
802.000	467.796	79.997	19.997	100.934	19.872	10.427	0.521
804.000	468.799	79.999	19.995	100.935	19.877	10.134	0.485
806.000	469.832	79.997	19.997	100.934	19.888	9.417	0.481
808.000	470.848	79.998	19.996	100.933	19.895	8.926	0.512
810.000	471.875	79.999	19.995	100.935	19.905	8.295	0.497
812.000	472.924	79.999	19.997	100.934	19.908	8.119	0.534
814.000	473.953	80.000	19.996	100.930	19.911	7.948	0.537
816.000	474.998	80.001	19.997	100.934	19.916	7.585	0.542
818.000	476.034	80.002	19.996	100.932	19.921	7.271	0.528
820.000	477.092	79.999	19.996	100.929	19.924	7.095	0.532
822.000	478.115	79.999	19.996	100.929	19.925	7.044	0.535
824.000	479.131	80.000	19.996	100.930	19.928	6.790	0.473
826.000	480.182	79.999	19.998	100.926	19.935	6.373	0.545
828.000	481.201	79.998	19.998	100.932	19.936	6.272	0.526
830.000	482.211	79.999	19.998	100.932	19.938	6.147	0.511
832.000	483.256	79.998	19.998	100.931	19.943	5.827	0.506
834.000	484.264	79.997	19.997	100.932	19.942	5.916	0.500
836.000	485.332	80.001	19.997	100.933	19.943	5.840	0.534
838.000	486.357	80.001	19.996	100.934	19.947	5.566	0.523
840.000	487.366	80.000	19.995	100.929	19.947	5.574	0.519
842.000	488.400	80.002	19.995	100.936	19.952	5.291	0.522
844.000	489.442	80.000	19.996	100.934	19.953	5.210	0.534
846.000	490.446	80.001	19.995	100.922	19.956	4.982	0.507
848.000	491.484	80.003	19.995	100.926	19.953	5.205	0.489
850.000	492.509	80.000	19.996	100.925	19.956	5.020	0.516
852.000	493.540	79.999	19.996	100.929	19.956	4.976	0.520
854.000	494.554	79.998	19.996	100.934	19.955	5.037	0.501
856.000	495.630	80.000	19.996	100.928	19.958	4.900	0.521
858.000	496.646	79.998	19.997	100.928	19.960	4.750	0.534
860.000	497.686	79.997	19.996	100.935	19.958	4.884	0.519
862.000	498.719	79.998	19.995	100.933	19.964	4.484	0.510
864.000	499.703	80.000	19.996	100.927	19.964	4.510	0.500
866.000	500.732	79.998	19.997	100.930	19.961	4.648	0.518
868.000	501.782	80.000	19.996	100.931	19.964	4.501	0.500
870.000	502.800	80.000	19.996	100.931	19.962	4.616	0.500
872.000	503.806	80.000	19.996	100.928	19.965	4.422	0.491
874.000	504.817	80.000	19.996	100.930	19.964	4.478	0.493
876.000	505.893	79.999	19.996	100.932	19.963	4.535	0.522
878.000	506.919	79.999	19.996	100.926	19.961	4.685	0.497
880.000	507.865	79.999	19.997	100.927	19.961	4.688	0.503
882.000	508.922	80.001	19.995	100.931	19.963	4.517	0.517
884.000	509.922	79.999	19.996	100.924	19.962	4.623	0.484
886.000	510.961	79.999	19.997	100.933	19.961	4.709	0.526
888.000	511.928	79.999	19.997	100.933	19.960	4.762	0.489
890.000	512.897	79.999	19.997	100.933	19.962	4.618	0.480
892.000	513.942	79.997	19.997	100.933	19.960	4.720	0.515
894.000	515.001	79.999	19.997	100.929	19.961	4.674	0.532
896.000	516.047	79.999	19.997	100.934	19.960	4.724	0.507
898.000	517.024	79.999	19.997	100.928	19.959	4.780	0.487
900.000	518.050	80.000	19.996	100.930	19.958	4.859	0.503
902.000	519.039	80.001	19.996	100.928	19.961	4.671	0.508
904.000	520.091	80.000	19.997	100.932	19.958	4.900	0.524
906.000	521.126	79.999	19.996	100.933	19.958	4.854	0.526
908.000	522.142	79.999	19.996	100.933	19.957	4.934	0.525
910.000	523.200	79.998	19.996	100.930	19.956	5.002	0.531
912.000	524.204	79.998	19.997	100.932	19.952	5.245	0.489
914.000	525.209	79.997	19.996	100.935	19.953	5.201	0.517
916.000	526.246	79.999	19.997	100.937	19.955	5.060	0.495
918.000	527.274	79.999	19.996	100.938	19.955	5.074	0.514
920.000	528.302	80.001	19.997	100.936	19.957	4.956	0.515
922.000	529.314	79.999	19.996	100.934	19.954	5.150	0.487
924.000	530.357	80.001	19.997	100.934	19.953	5.175	0.521
926.000	531.374	80.000	19.996	100.929	19.951	5.298	0.493
928.000	532.448	80.001	19.997	100.933	19.949	5.471	0.520
930.000	533.476	80.000	19.996	100.933	19.947	5.592	0.511
932.000	534.511	79.999	19.996	100.933	19.945	5.717	0.492
934.000	535.536	79.999	19.996	100.934	19.946	5.677	0.515
936.000	536.582	79.999	19.996	100.933	19.945	5.716	0.520
938.000	537.599	79.999	19.996	100.931	19.942	5.927	0.481
940.000	538.631	79.999	19.996	100.935	19.939	6.077	0.503
942.000	539.648	79.998	19.996	100.935	19.936	6.280	0.524
944.000	540.626	79.998	19.996	100.934	19.940	6.038	0.498
946.000	541.656	79.999	19.996	100.933	19.935	6.378	0.498
948.000	542.706	79.997	19.997	100.935	19.932	6.553	0.502
950.000	543.731	79.999	19.996	100.934	19.931	6.599	0.506
952.000	544.775	79.999	19.997	100.939	19.933	6.468	0.493
954.000	545.754	79.999	19.997	100.934	19.928	6.828	0.482
956.000	546.802	80.000	19.997	100.935	19.924	7.055	0.514
958.000	547.831	80.000	19.996	100.933	19.921	7.256	0.542
960.000	548.881	80.001	19.996	100.935	19.918	7.491	0.505
962.000	549.893	79.999	19.995	100.937	19.916	7.600	0.518
964.000	550.939	79.998	19.995	100.937	19.913	7.811	0.514
966.000	551.998	79.999	19.996	100.936	19.909	8.064	0.519
968.000	552.998	79.999	19.995	100.936	19.904	8.373	0.513
970.000	554.028	79.998	19.995	100.939	19.906	8.245	0.525
972.000	555.057	79.999	19.995	100.942	19.899	8.685	0.520
974.000	556.090	79.999	19.996	100.942	19.899	8.698	0.504
976.000	557.096	79.998	19.995	100.947	19.894	9.033	0.523
978.000	558.102	80.000	19.996	100.942	19.892	9.129	0.499
980.000	559.152	79.998	19.997	100.941	19.888	9.408	0.527
982.000	560.139	80.002	19.995	100.938	19.883	9.759	0.512
984.000	561.153	80.000	19.996	100.942	19.884	9.667	0.496
986.000	562.179	80.000	19.995	100.955	19.880	9.926	0.487
988.000	563.212	80.000	19.996	100.958	19.877	10.153	0.541
990.000	564.222	79.999	19.997	100.950	19.879	10.004	0.488
992.000	565.226	79.999	19.996	100.950	19.873	10.367	0.487
994.000	566.281	80.001	19.996	100.961	19.870	10.552	0.492
996.000	567.304	79.999	19.996	100.961	19.868	10.708	0.492
998.000	568.339	80.000	19.996	100.962	19.864	10.979	0.494
1000.001	569.363	80.000	19.997	100.958	19.865	10.920	0.529
1002.000	570.438	80.001	19.996	100.954	19.859	11.316	0.518
1004.000	571.456	80.001	19.996	100.969	19.860	11.241	0.524
1006.000	572.499	80.001	19.996	100.965	19.856	11.500	0.539
1008.000	573.589	80.002	19.998	100.957	19.854	11.620	0.555
1010.000	574.634	80.001	19.997	100.965	19.853	11.675	0.529
1012.000	575.672	80.000	19.997	100.964	19.853	11.653	0.517
1014.000	576.698	80.000	19.997	100.962	19.852	11.747	0.513
1016.000	577.732	79.997	19.997	100.966	19.852	11.732	0.504
1018.000	578.833	79.997	19.998	100.966	19.849	11.939	0.556
1020.000	579.786	79.998	19.997	100.968	19.847	12.060	0.486
1022.000	580.836	79.998	19.996	100.966	19.849	11.927	0.523
1024.000	581.873	79.999	19.996	100.965	19.849	11.921	0.542
1026.000	582.879	79.999	19.995	100.953	19.848	12.013	0.518
1027.999	583.897	79.999	19.996	100.962	19.853	11.680	0.524
1029.999	584.912	80.000	19.997	100.967	19.854	11.622	0.498
1031.999	585.925	79.999	19.996	100.967	19.855	11.526	0.498
1033.999	586.952	79.999	19.995	100.960	19.856	11.493	0.518
1035.999	587.941	80.000	19.997	100.960	19.862	11.069	0.501
1037.999	588.950	80.000	19.996	100.950	19.864	10.998	0.484
1039.999	589.975	79.999	19.996	100.952	19.868	10.699	0.464
1041.999	591.003	79.998	19.996	100.963	19.870	10.589	0.521
1043.999	592.025	79.999	19.997	100.963	19.879	10.006	0.515
1045.999	592.991	79.999	19.996	100.956	19.883	9.753	0.517
1047.999	594.016	80.000	19.995	100.954	19.888	9.389	0.510
1050.000	595.067	79.999	19.996	100.942	19.892	9.139	0.508
1052.000	596.058	79.999	19.996	100.947	19.897	8.799	0.476
1054.001	597.073	79.998	19.996	100.950	19.902	8.482	0.520
1056.001	598.085	79.999	19.995	100.945	19.910	7.969	0.498
1058.001	599.120	80.000	19.996	100.946	19.915	7.656	0.505
1059.999	600.117	80.000	19.996	100.957	19.924	7.046	0.526
1061.999	601.136	80.001	19.996	100.943	19.933	6.516	0.550
1063.999	602.065	80.001	19.994	100.939	19.942	5.920	0.504
1065.999	603.113	80.000	19.996	100.939	19.947	5.617	0.521
1067.999	604.108	80.002	19.997	100.935	19.952	5.244	0.502
1069.999	605.104	80.000	19.996	100.937	19.959	4.782	0.490
1071.999	606.106	79.999	19.997	100.936	19.967	4.289	0.506
1073.999	607.093	80.000	19.997	100.939	19.969	4.160	0.500
1075.999	608.121	80.000	19.997	100.937	19.969	4.167	0.499
1077.999	609.164	80.000	19.997	100.934	19.975	3.749	0.517
1080.000	610.178	80.001	19.997	100.934	19.978	3.559	0.474
1081.999	611.157	80.001	19.997	100.934	19.976	3.713	0.474
1083.999	612.189	80.001	19.997	100.936	19.979	3.542	0.508
1085.999	613.207	80.001	19.998	100.933	19.982	3.307	0.509
1087.999	614.171	80.002	19.997	100.933	19.982	3.337	0.500
1089.999	615.257	80.003	19.996	100.935	19.980	3.434	0.527
1091.999	616.253	80.002	19.997	100.948	19.980	3.425	0.507
1093.999	617.262	80.002	19.996	100.936	19.980	3.420	0.494
1095.999	618.241	80.002	19.996	100.943	19.981	3.355	0.508
1097.999	619.271	79.999	19.997	100.938	19.984	3.172	0.522
1099.999	620.263	79.999	19.997	100.937	19.981	3.352	0.491
1101.999	621.271	79.999	19.997	100.943	19.981	3.361	0.471
1103.999	622.279	79.998	19.997	100.937	19.983	3.271	0.498
1105.999	623.288	79.998	19.997	100.939	19.985	3.144	0.470
1107.999	624.280	79.999	19.997	100.949	19.985	3.128	0.509
1110.000	625.330	79.998	19.997	100.951	19.981	3.375	0.504
1111.999	626.318	80.000	19.996	100.950	19.986	3.077	0.475
1114.000	627.329	79.999	19.997	100.958	19.982	3.289	0.524
1115.999	628.326	79.999	19.998	100.957	19.984	3.176	0.486
1117.999	629.376	80.000	19.995	100.959	19.985	3.146	0.512
1119.999	630.361	79.999	19.995	100.965	19.980	3.435	0.510
1122.000	631.365	79.999	19.996	100.972	19.981	3.386	0.493
1123.999	632.392	80.000	19.996	100.967	19.981	3.414	0.462
1126.000	633.449	80.000	19.996	100.971	19.981	3.414	0.535
1127.999	634.422	80.000	19.996	100.968	19.979	3.522	0.503
1129.999	635.469	79.998	19.996	100.976	19.976	3.689	0.518
1131.999	636.428	79.998	19.996	100.974	19.977	3.663	0.477
1133.999	637.417	79.999	19.996	100.974	19.978	3.608	0.483
1135.999	638.429	79.999	19.996	100.975	19.977	3.624	0.485
1137.999	639.426	79.999	19.996	100.975	19.976	3.719	0.515
1139.999	640.405	80.000	19.996	100.976	19.974	3.813	0.463
1141.999	641.442	80.000	19.995	100.976	19.974	3.848	0.509
1143.999	642.427	80.001	19.996	100.975	19.977	3.649	0.486
1146.000	643.439	80.002	19.996	100.980	19.976	3.711	0.477
1148.000	644.417	80.001	19.995	100.983	19.975	3.796	0.491
1150.000	645.397	80.000	19.996	100.977	19.977	3.625	0.516
1152.000	646.448	80.002	19.996	100.983	19.975	3.801	0.490
1154.000	647.471	80.001	19.997	100.990	19.974	3.824	0.505
1156.000	648.510	80.001	19.995	100.982	19.976	3.717	0.487
1158.000	649.535	80.000	19.996	100.989	19.976	3.696	0.535
1160.000	650.539	79.999	19.996	100.988	19.973	3.874	0.506
1162.000	651.575	80.000	19.995	100.995	19.971	4.010	0.519
1164.000	652.571	80.001	19.996	101.001	19.971	4.036	0.521
1166.000	653.627	80.000	19.997	101.013	19.971	4.059	0.521
1168.000	654.648	80.000	19.996	101.015	19.972	3.946	0.510
1170.000	655.641	80.000	19.996	101.011	19.970	4.117	0.509
1172.000	656.729	80.002	19.997	101.013	19.971	4.042	0.523
1174.000	657.670	80.002	19.996	101.014	19.970	4.080	0.491
1176.000	658.705	80.002	19.997	101.014	19.970	4.084	0.503
1178.000	659.747	80.000	19.996	101.014	19.968	4.220	0.535
1180.000	660.756	79.999	19.996	101.013	19.967	4.322	0.518
1182.000	661.815	79.999	19.996	101.014	19.964	4.493	0.524
1184.000	662.825	79.998	19.997	101.014	19.963	4.548	0.492
1186.000	663.776	79.999	19.996	101.017	19.964	4.488	0.488
1188.000	664.818	79.999	19.997	101.018	19.964	4.490	0.507
1190.000	665.835	79.998	19.996	101.020	19.966	4.349	0.507
1192.001	666.804	79.999	19.996	101.018	19.963	4.532	0.486
1194.000	667.780	79.999	19.996	101.019	19.962	4.597	0.482
1196.000	668.764	80.000	19.997	101.017	19.965	4.428	0.480
1198.001	669.813	79.999	19.997	101.014	19.963	4.550	0.523
1200.000	670.795	79.998	19.997	101.018	19.962	4.614	0.507
1202.000	671.809	79.998	19.997	101.020	19.961	4.702	0.519
1204.001	672.818	80.001	19.997	101.027	19.959	4.839	0.510
1206.000	673.814	79.998	19.997	101.025	19.962	4.636	0.491
1208.000	674.845	79.998	19.997	101.033	19.959	4.791	0.534
1210.000	675.808	80.000	19.996	101.042	19.960	4.779	0.510
1212.000	676.827	79.998	19.996	101.042	19.964	4.503	0.495
1214.001	677.801	79.998	19.996	101.050	19.964	4.509	0.519
1216.000	678.790	80.000	19.997	101.051	19.960	4.735	0.500
1218.000	679.778	80.000	19.996	101.051	19.960	4.749	0.505
1220.000	680.791	80.000	19.996	101.052	19.961	4.685	0.538
1222.000	681.815	80.000	19.996	101.049	19.959	4.782	0.515
1224.000	682.781	79.999	19.996	101.049	19.961	4.666	0.503
1226.000	683.784	80.000	19.996	101.052	19.956	5.022	0.511
1228.000	684.757	80.000	19.995	101.053	19.956	4.988	0.490
1230.000	685.726	80.001	19.996	101.054	19.955	5.044	0.478
1232.000	686.745	80.001	19.995	101.054	19.955	5.053	0.487
1234.000	687.763	80.000	19.996	101.053	19.955	5.043	0.488
1236.000	688.726	80.000	19.996	101.056	19.956	5.016	0.509
1238.000	689.725	79.999	19.997	101.058	19.955	5.103	0.520
1240.000	690.730	80.000	19.996	101.072	19.954	5.112	0.494
1242.000	691.694	80.000	19.997	101.074	19.954	5.111	0.484
1244.000	692.693	80.000	19.996	101.084	19.958	4.885	0.518
1246.000	693.704	80.001	19.996	101.086	19.959	4.815	0.498
1248.000	694.706	80.001	19.996	101.077	19.963	4.543	0.481
1250.001	695.737	80.000	19.995	101.090	19.947	5.585	0.494
1252.000	696.751	80.002	19.995	101.094	19.946	5.628	0.488
1254.000	697.779	80.002	19.995	101.091	19.944	5.815	0.528
1256.000	698.751	80.001	19.997	101.096	19.947	5.572	0.498
1258.000	699.794	80.000	19.995	101.105	19.945	5.717	0.536
1260.000	700.807	80.002	19.995	101.093	19.946	5.636	0.508
1262.000	701.812	80.000	19.996	101.096	19.942	5.947	0.501
1264.000	702.821	79.999	19.997	101.094	19.943	5.863	0.511
1266.000	703.840	79.999	19.996	101.103	19.945	5.732	0.493
1268.000	704.820	79.999	19.996	101.109	19.944	5.760	0.459
1270.000	705.863	79.999	19.996	101.119	19.945	5.748	0.519
1272.000	706.825	80.000	19.996	101.115	19.942	5.903	0.494
1274.000	707.848	80.000	19.997	101.125	19.939	6.131	0.526
1276.000	708.918	80.001	19.997	101.129	19.935	6.360	0.489
1278.000	709.882	80.000	19.997	101.130	19.939	6.136	0.529
1280.000	710.888	80.000	19.996	101.131	19.939	6.126	0.540
1282.000	711.923	80.001	19.997	101.133	19.935	6.385	0.541
1284.000	712.922	79.998	19.995	101.134	19.937	6.271	0.510
1286.000	713.915	80.000	19.998	101.138	19.932	6.541	0.492
1288.000	714.883	79.999	19.997	101.153	19.933	6.480	0.475
1290.000	715.888	79.998	19.998	101.152	19.932	6.584	0.511
1292.000	716.954	80.000	19.996	101.145	19.930	6.687	0.530
1294.001	717.949	79.998	19.998	101.163	19.927	6.867	0.485
1296.000	718.917	79.998	19.999	101.170	19.926	6.934	0.487
1298.000	719.910	79.999	19.997	101.167	19.922	7.250	0.476
1300.000	720.971	79.999	19.998	101.172	19.924	7.074	0.506
1302.001	721.941	80.000	19.996	101.174	19.925	7.062	0.491
1304.001	722.996	79.999	19.996	101.176	19.924	7.064	0.494
1306.000	723.974	80.001	19.996	101.180	19.921	7.283	0.503
1308.000	724.982	79.999	19.997	101.179	19.920	7.324	0.526
1310.000	725.998	80.001	19.996	101.181	19.923	7.161	0.482
1312.000	726.947	80.001	19.997	101.184	19.919	7.443	0.506
1314.000	727.970	80.001	19.996	101.199	19.918	7.467	0.515
1316.000	729.008	80.000	19.996	101.191	19.918	7.476	0.515
1318.000	729.946	79.999	19.995	101.201	19.921	7.302	0.487
1320.000	730.952	80.000	19.995	101.194	19.918	7.470	0.510
1322.000	731.973	80.000	19.996	101.202	19.917	7.519	0.500
1324.000	732.952	80.000	19.997	101.198	19.919	7.388	0.518
1326.000	733.978	80.001	19.997	101.198	19.916	7.620	0.493
1328.000	734.997	80.001	19.996	101.195	19.915	7.696	0.512
1330.000	735.971	80.002	19.997	101.194	19.913	7.821	0.499
1332.000	737.008	80.002	19.996	101.188	19.915	7.670	0.495
1334.000	737.997	80.003	19.996	101.175	19.912	7.856	0.528
1336.000	739.037	80.003	19.995	101.173	19.914	7.751	0.526
1338.000	739.985	80.003	19.996	101.165	19.918	7.486	0.490
1340.000	740.974	80.002	19.995	101.165	19.913	7.782	0.495
1342.000	741.996	80.002	19.996	101.142	19.920	7.363	0.498
1344.000	742.976	80.000	19.996	101.120	19.924	7.065	0.520
1345.000	743.576	80.000	19.995	101.115	19.925	7.050	0.526