File: 01_Data/Rug_Pad/MCC/Rug_Pad_MCC_30K_min_211008_R2.txt
Sample ID:	C:\MCC\MCC Cal\Test\Rug_pad_MCC_30K_min_211008_R2.txt
Sample Weight (mg):	4.16
Heating Rate (C/s):	0.5
Combustor Temp (C):	900
N2 Flow Rate (cc/min):	80
O2 Flow Rate (cc/min):	20
Calibration File:	C:\MCC\MCC Cal\Coeff1 JN10440_30_210304.txt.txt
T Correction Coefficients:	0	1.024463	0
Time Shift (s):	14
*
Time (s)	Temperature (C)	N2 flow rate (cc/min)	O2 flow rate (cc/min)	Flow Rate (cc/min)	Oxygen (%)	HRR (W/g)	Heating rate (C/s)
0.000	108.062	80.000	19.997	100.854	20.077	-0.376	-0.025
2.000	108.112	80.002	19.996	100.854	20.073	-0.045	0.021
4.000	108.099	80.002	19.996	100.855	20.077	-0.370	0.017
6.000	108.095	80.002	19.996	100.854	20.076	-0.331	-0.019
8.000	108.106	80.000	19.996	100.855	20.074	-0.158	0.022
10.000	108.059	79.998	19.996	100.855	20.076	-0.270	-0.014
12.000	108.074	79.998	19.996	100.857	20.074	-0.165	0.025
14.001	108.087	79.998	19.997	100.859	20.073	-0.082	0.003
16.001	108.071	79.998	19.995	100.876	20.071	0.095	0.000
18.000	108.079	79.998	19.995	100.894	20.073	-0.099	-0.005
20.000	108.125	79.997	19.997	100.901	20.071	0.047	0.021
22.000	108.119	79.998	19.996	100.900	20.065	0.530	-0.007
24.000	108.160	79.997	19.998	100.940	20.062	0.795	0.003
26.000	108.256	79.998	19.996	100.991	20.058	1.041	0.031
28.000	108.334	79.997	19.995	101.016	20.050	1.665	0.031
30.000	108.461	79.999	19.995	101.024	20.048	1.825	0.086
32.000	108.636	79.997	19.995	101.054	20.046	1.955	0.061
34.001	108.825	79.998	19.995	101.055	20.040	2.421	0.057
36.000	109.090	79.999	19.997	101.052	20.042	2.275	0.118
38.000	109.371	79.997	19.994	101.042	20.043	2.230	0.168
40.001	109.618	79.997	19.995	101.020	20.039	2.539	0.125
42.000	109.914	79.998	19.996	101.032	20.040	2.469	0.144
44.000	110.204	80.000	19.994	101.029	20.041	2.382	0.150
46.000	110.521	79.999	19.996	101.043	20.039	2.541	0.171
48.000	110.921	79.997	19.997	101.050	20.039	2.473	0.181
50.000	111.260	79.998	19.996	101.051	20.037	2.651	0.173
52.000	111.653	79.999	19.998	101.053	20.034	2.867	0.191
54.000	112.065	79.999	19.996	101.054	20.037	2.655	0.189
56.000	112.533	79.999	19.997	101.054	20.038	2.573	0.214
58.001	112.978	79.998	19.996	101.060	20.034	2.897	0.218
60.001	113.439	80.000	19.996	101.062	20.035	2.789	0.226
62.002	113.977	79.999	19.996	101.072	20.033	2.936	0.290
64.000	114.499	79.999	19.996	101.072	20.029	3.278	0.260
66.000	115.070	80.000	19.996	101.082	20.036	2.721	0.274
68.001	115.583	79.999	19.996	101.090	20.032	3.008	0.301
70.000	116.148	79.999	19.996	101.091	20.031	3.127	0.271
72.001	116.747	80.001	19.997	101.090	20.033	2.979	0.289
74.000	117.338	80.000	19.997	101.090	20.034	2.922	0.287
76.000	117.954	79.998	19.996	101.090	20.032	3.062	0.293
78.001	118.627	79.999	19.996	101.093	20.034	2.921	0.353
80.000	119.311	79.999	19.996	101.092	20.030	3.175	0.343
82.001	119.933	79.999	19.996	101.091	20.031	3.120	0.294
84.000	120.626	80.001	19.997	101.093	20.030	3.196	0.361
86.001	121.319	80.000	19.997	101.103	20.028	3.367	0.323
88.000	122.043	79.999	19.997	101.098	20.030	3.213	0.380
90.001	122.764	80.000	19.996	101.098	20.028	3.373	0.351
92.000	123.501	79.997	19.997	101.098	20.030	3.210	0.356
94.000	124.242	79.997	19.996	101.107	20.030	3.208	0.368
96.000	124.978	79.997	19.995	101.107	20.031	3.126	0.338
98.000	125.789	79.998	19.996	101.106	20.027	3.443	0.425
100.000	126.525	79.996	19.994	101.108	20.032	3.008	0.356
102.000	127.317	79.997	19.995	101.110	20.025	3.548	0.403
104.000	128.078	79.998	19.995	101.102	20.032	3.062	0.371
106.000	128.901	79.998	19.996	101.099	20.028	3.338	0.402
108.001	129.723	79.998	19.996	101.102	20.026	3.470	0.423
110.000	130.529	79.997	19.997	101.102	20.032	3.070	0.413
112.000	131.359	79.998	19.994	101.106	20.028	3.354	0.396
114.000	132.225	79.998	19.995	101.097	20.028	3.342	0.418
116.001	133.053	79.997	19.996	101.101	20.029	3.250	0.376
118.000	133.935	79.997	19.996	101.099	20.026	3.526	0.444
120.000	134.790	79.998	19.996	101.100	20.025	3.569	0.448
122.001	135.664	79.998	19.995	101.092	20.026	3.484	0.475
124.001	136.514	79.999	19.997	101.094	20.028	3.311	0.428
126.000	137.405	79.998	19.996	101.101	20.026	3.509	0.460
128.000	138.226	79.998	19.996	101.100	20.027	3.414	0.438
130.000	139.135	79.998	19.996	101.101	20.024	3.616	0.435
132.000	140.017	79.999	19.996	101.099	20.029	3.272	0.476
134.000	140.928	79.997	19.995	101.103	20.022	3.800	0.449
136.000	141.828	79.998	19.995	101.097	20.028	3.315	0.482
138.000	142.710	79.998	19.995	101.094	20.026	3.501	0.454
140.000	143.643	79.998	19.994	101.095	20.024	3.668	0.482
142.000	144.543	80.000	19.996	101.094	20.026	3.515	0.444
144.000	145.449	79.998	19.996	101.096	20.025	3.538	0.445
146.000	146.410	79.998	19.997	101.103	20.021	3.884	0.492
148.000	147.311	79.999	19.995	101.101	20.023	3.728	0.447
150.000	148.264	79.999	19.996	101.098	20.024	3.625	0.504
152.001	149.164	79.999	19.997	101.097	20.022	3.825	0.471
154.000	150.151	79.997	19.997	101.102	20.023	3.715	0.485
156.000	151.067	79.998	19.996	101.098	20.028	3.332	0.459
158.000	152.009	79.998	19.996	101.096	20.023	3.750	0.499
160.000	152.957	79.997	19.996	101.097	20.021	3.909	0.463
162.000	153.906	79.998	19.996	101.097	20.026	3.482	0.485
164.000	154.883	79.999	19.996	101.099	20.027	3.428	0.496
166.000	155.833	79.998	19.996	101.097	20.029	3.249	0.492
168.000	156.762	80.000	19.995	101.093	20.027	3.439	0.477
170.000	157.789	80.000	19.996	101.094	20.024	3.673	0.534
172.000	158.707	80.001	19.996	101.094	20.022	3.817	0.469
174.000	159.685	79.999	19.996	101.089	20.021	3.877	0.500
176.000	160.672	80.000	19.996	101.089	20.021	3.885	0.482
178.000	161.649	80.000	19.997	101.104	20.019	3.995	0.485
180.000	162.614	79.998	19.996	101.112	20.017	4.175	0.498
182.000	163.572	79.998	19.998	101.115	20.018	4.111	0.478
184.000	164.601	79.998	19.998	101.116	20.017	4.166	0.515
186.000	165.627	79.998	19.996	101.108	20.013	4.494	0.517
188.000	166.600	79.998	19.996	101.097	20.017	4.162	0.507
190.000	167.590	79.998	19.996	101.099	20.019	4.053	0.513
192.001	168.613	79.998	19.995	101.101	20.018	4.127	0.524
194.000	169.655	79.998	19.995	101.095	20.018	4.072	0.537
196.000	170.680	79.997	19.996	101.093	20.018	4.086	0.549
198.000	171.706	79.998	19.996	101.092	20.015	4.348	0.521
200.000	172.707	79.999	19.995	101.091	20.015	4.325	0.508
202.001	173.761	79.999	19.996	101.092	20.013	4.472	0.519
204.000	174.809	79.999	19.997	101.094	20.014	4.375	0.519
206.000	175.836	79.998	19.996	101.093	20.013	4.503	0.493
208.000	176.875	79.998	19.996	101.093	20.016	4.239	0.502
210.000	177.916	79.998	19.996	101.093	20.016	4.235	0.540
212.000	178.968	79.998	19.996	101.094	20.018	4.107	0.516
214.000	179.965	79.997	19.996	101.094	20.017	4.162	0.494
216.000	181.025	79.997	19.996	101.094	20.018	4.109	0.519
218.000	182.036	79.997	19.996	101.094	20.010	4.735	0.522
220.000	183.063	79.999	19.996	101.094	20.007	4.920	0.534
222.000	184.083	79.998	19.995	101.093	20.010	4.731	0.503
224.000	185.185	79.999	19.995	101.089	20.014	4.420	0.540
226.000	186.233	79.999	19.995	101.088	20.013	4.514	0.502
228.000	187.262	80.001	19.995	101.086	20.010	4.695	0.516
230.000	188.279	79.998	19.995	101.084	20.012	4.543	0.496
232.000	189.267	80.000	19.994	101.076	20.009	4.751	0.461
234.000	190.376	80.000	19.995	101.084	20.010	4.742	0.547
236.000	191.373	79.999	19.996	101.072	20.012	4.538	0.487
238.000	192.369	80.000	19.996	101.058	20.008	4.895	0.508
240.000	193.430	79.999	19.996	101.071	20.016	4.227	0.526
242.000	194.453	79.999	19.995	101.060	20.011	4.620	0.535
244.000	195.425	79.999	19.997	101.067	20.004	5.171	0.519
246.000	196.417	80.000	19.996	101.060	20.006	5.023	0.496
248.000	197.401	80.000	19.996	101.059	20.010	4.726	0.503
250.000	198.433	80.001	19.997	101.063	20.012	4.565	0.508
252.000	199.460	80.001	19.996	101.052	20.011	4.624	0.528
254.000	200.477	80.003	19.997	101.059	20.011	4.608	0.513
256.000	201.422	80.002	19.995	101.062	20.009	4.791	0.506
258.000	202.422	80.001	19.995	101.061	20.006	5.041	0.481
260.000	203.459	79.999	19.996	101.057	20.010	4.705	0.520
262.000	204.453	79.999	19.997	101.050	20.003	5.243	0.499
264.000	205.395	79.998	19.996	101.052	20.006	4.993	0.476
266.000	206.466	79.999	19.997	101.055	20.004	5.146	0.539
268.000	207.443	79.998	19.997	101.052	20.006	4.979	0.483
270.000	208.427	79.998	19.997	101.053	20.007	4.932	0.503
272.000	209.399	79.996	19.997	101.052	20.007	4.931	0.479
274.000	210.390	79.996	19.997	101.052	20.005	5.090	0.506
276.000	211.337	79.996	19.997	101.053	20.004	5.168	0.478
278.000	212.343	79.996	19.996	101.052	20.005	5.076	0.495
280.000	213.279	79.997	19.996	101.052	20.001	5.362	0.512
282.000	214.268	79.997	19.995	101.051	19.999	5.556	0.500
284.000	215.222	79.999	19.997	101.052	20.001	5.424	0.479
286.000	216.136	79.997	19.996	101.051	20.004	5.127	0.441
288.000	217.080	79.998	19.996	101.047	19.999	5.538	0.467
290.000	218.043	79.998	19.994	101.051	20.003	5.218	0.488
292.000	218.982	79.996	19.995	101.052	19.996	5.772	0.469
294.000	219.915	79.997	19.994	101.050	19.996	5.741	0.476
296.000	220.832	79.997	19.997	101.050	19.999	5.560	0.494
298.000	221.799	79.995	19.996	101.056	19.995	5.818	0.504
300.000	222.718	79.998	19.996	101.052	19.998	5.585	0.472
302.000	223.680	79.997	19.996	101.048	20.001	5.410	0.456
304.000	224.649	79.999	19.996	101.052	19.998	5.646	0.494
306.000	225.526	79.999	19.995	101.051	19.998	5.599	0.460
308.000	226.494	80.000	19.995	101.051	19.992	6.048	0.438
310.000	227.440	79.999	19.996	101.049	19.992	6.044	0.485
312.000	228.411	80.000	19.996	101.050	19.987	6.415	0.502
314.000	229.377	80.000	19.997	101.050	19.988	6.401	0.490
316.000	230.235	79.999	19.997	101.050	19.995	5.848	0.516
318.000	231.344	79.998	19.994	101.049	19.992	6.067	0.593
320.000	232.191	79.999	19.997	101.050	19.987	6.444	0.480
322.000	233.149	80.000	19.995	101.052	19.989	6.287	0.450
324.000	234.077	79.999	19.996	101.050	19.987	6.483	0.430
326.000	235.025	79.999	19.996	101.048	19.987	6.467	0.491
328.000	235.998	80.001	19.996	101.049	19.982	6.834	0.499
330.000	236.956	80.002	19.997	101.050	19.975	7.334	0.466
332.000	237.948	80.000	19.996	101.052	19.981	6.883	0.482
334.000	238.874	80.001	19.997	101.050	19.978	7.147	0.492
336.000	239.847	80.002	19.998	101.050	19.976	7.312	0.497
338.000	240.774	80.000	19.996	101.050	19.979	7.062	0.477
340.000	241.718	80.001	19.997	101.051	19.981	6.939	0.461
342.000	242.719	79.999	19.996	101.052	19.977	7.225	0.506
344.000	243.673	79.998	19.994	101.053	19.974	7.435	0.468
346.000	244.659	79.998	19.996	101.052	19.975	7.369	0.483
348.000	245.596	79.999	19.996	101.047	19.972	7.555	0.476
350.000	246.597	79.997	19.996	101.052	19.974	7.402	0.502
352.000	247.559	79.998	19.995	101.047	19.975	7.353	0.493
354.000	248.539	79.997	19.996	101.052	19.969	7.843	0.492
356.000	249.557	79.998	19.997	101.054	19.964	8.220	0.526
358.000	250.539	79.999	19.996	101.049	19.967	7.983	0.503
360.000	251.520	79.998	19.997	101.052	19.965	8.109	0.506
362.000	252.552	79.998	19.997	101.049	19.966	8.033	0.506
364.000	253.491	79.997	19.995	101.048	19.967	7.942	0.502
366.000	254.481	79.998	19.999	101.050	19.963	8.290	0.476
368.000	255.453	79.997	19.998	101.051	19.958	8.651	0.486
370.000	256.436	79.997	19.995	101.049	19.962	8.369	0.513
372.000	257.399	79.999	19.997	101.048	19.961	8.393	0.506
374.000	258.414	79.998	19.998	101.049	19.957	8.756	0.507
376.000	259.412	79.998	19.997	101.049	19.958	8.676	0.501
378.000	260.417	79.996	19.996	101.048	19.953	9.057	0.512
380.000	261.392	79.999	19.996	101.050	19.955	8.845	0.491
382.000	262.360	79.999	19.996	101.049	19.954	8.947	0.508
384.000	263.422	79.999	19.996	101.051	19.947	9.463	0.546
386.000	264.383	79.999	19.998	101.049	19.943	9.755	0.524
388.000	265.425	79.999	19.995	101.046	19.948	9.397	0.518
390.000	266.397	80.000	19.997	101.046	19.952	9.074	0.457
392.000	267.445	80.000	19.996	101.046	19.945	9.626	0.525
394.000	268.456	80.000	19.997	101.044	19.943	9.764	0.522
396.000	269.446	80.001	19.996	101.046	19.944	9.735	0.512
398.000	270.500	80.000	19.996	101.047	19.940	9.978	0.525
400.000	271.528	79.999	19.996	101.050	19.943	9.780	0.499
402.000	272.542	79.999	19.997	101.050	19.941	9.953	0.521
404.000	273.581	80.001	19.998	101.047	19.945	9.618	0.533
406.000	274.596	80.000	19.997	101.048	19.938	10.158	0.509
408.000	275.596	79.999	19.996	101.048	19.944	9.714	0.488
410.000	276.608	79.999	19.996	101.045	19.941	9.958	0.505
412.000	277.633	80.000	19.996	101.047	19.942	9.864	0.522
414.000	278.684	80.002	19.995	101.049	19.937	10.245	0.504
416.000	279.679	80.001	19.994	101.044	19.942	9.880	0.517
418.000	280.694	80.005	19.996	101.041	19.937	10.224	0.507
420.000	281.703	80.000	19.995	101.044	19.939	10.075	0.518
422.000	282.690	80.001	19.995	101.038	19.943	9.773	0.471
424.000	283.717	80.000	19.994	101.039	19.936	10.304	0.483
426.000	284.717	80.000	19.995	101.036	19.938	10.189	0.495
428.000	285.749	79.998	19.996	101.036	19.941	9.902	0.497
430.000	286.758	80.000	19.996	101.037	19.943	9.745	0.504
432.000	287.770	79.998	19.996	101.035	19.943	9.751	0.510
434.000	288.775	80.000	19.997	101.040	19.944	9.716	0.517
436.000	289.759	79.999	19.997	101.024	19.941	9.943	0.515
438.000	290.789	80.001	19.998	101.034	19.939	10.088	0.526
440.000	291.846	79.999	19.996	101.027	19.940	9.975	0.531
442.000	292.866	80.000	19.996	101.021	19.942	9.854	0.528
444.000	293.877	79.997	19.996	101.020	19.940	9.998	0.524
446.000	294.926	79.998	19.996	101.022	19.942	9.858	0.521
448.000	295.943	80.002	19.997	101.018	19.941	9.948	0.526
450.000	296.904	80.000	19.997	101.016	19.946	9.530	0.475
452.000	297.933	79.999	19.995	101.023	19.949	9.334	0.503
454.000	298.949	79.999	19.999	101.023	19.946	9.588	0.511
456.001	299.942	79.999	19.996	101.026	19.943	9.783	0.509
458.000	300.976	79.996	19.997	101.018	19.944	9.709	0.540
460.000	301.981	79.996	19.998	101.022	19.943	9.775	0.506
462.000	302.994	79.997	19.997	101.022	19.939	10.111	0.502
464.000	303.999	79.999	19.997	101.015	19.943	9.817	0.534
466.000	304.996	79.997	19.997	101.016	19.940	9.992	0.499
468.000	306.019	80.000	19.999	101.016	19.944	9.728	0.556
470.001	307.025	79.997	19.997	101.015	19.940	10.043	0.551
472.000	308.022	80.000	19.997	101.016	19.938	10.162	0.509
474.000	309.060	79.999	19.996	101.018	19.935	10.368	0.539
476.000	310.073	80.000	19.996	101.025	19.936	10.344	0.515
478.000	311.078	80.001	19.996	101.015	19.933	10.568	0.520
480.001	312.120	80.002	19.996	101.015	19.933	10.511	0.530
482.000	313.131	80.001	19.997	101.014	19.932	10.577	0.502
484.000	314.160	80.000	19.997	101.015	19.932	10.624	0.521
486.000	315.119	80.000	19.997	101.017	19.930	10.752	0.428
488.000	316.174	79.999	19.996	101.015	19.923	11.279	0.547
490.000	317.222	80.001	19.997	101.020	19.921	11.443	0.523
492.000	318.180	79.998	19.995	101.021	19.921	11.426	0.524
494.000	319.188	80.002	19.996	101.020	19.918	11.660	0.502
496.000	320.181	80.001	19.997	101.020	19.917	11.736	0.529
498.000	321.197	80.002	19.995	101.018	19.914	11.979	0.477
500.000	322.224	80.002	19.995	101.015	19.910	12.313	0.505
502.000	323.194	80.003	19.996	101.019	19.905	12.640	0.494
504.000	324.220	80.001	19.996	101.020	19.898	13.174	0.504
506.000	325.233	80.002	19.996	101.018	19.896	13.349	0.494
508.000	326.199	80.002	19.996	101.012	19.893	13.541	0.477
510.000	327.219	80.002	19.995	101.012	19.886	14.099	0.508
512.000	328.275	80.000	19.996	101.014	19.880	14.533	0.532
514.000	329.266	79.999	19.995	101.015	19.872	15.157	0.502
516.000	330.262	79.998	19.996	101.014	19.863	15.852	0.527
518.000	331.213	80.001	19.996	101.014	19.858	16.218	0.479
520.000	332.223	79.998	19.997	101.012	19.841	17.494	0.521
522.000	333.231	79.997	19.996	101.014	19.837	17.819	0.494
524.000	334.256	79.999	19.996	101.011	19.822	18.961	0.509
526.000	335.244	79.998	19.996	101.010	19.813	19.595	0.496
528.000	336.229	79.999	19.996	101.012	19.801	20.557	0.500
530.000	337.211	79.997	19.997	101.012	19.791	21.274	0.490
532.000	338.240	79.999	19.996	101.013	19.776	22.403	0.488
534.000	339.240	79.999	19.996	101.014	19.763	23.405	0.519
536.000	340.238	79.999	19.997	101.016	19.748	24.521	0.502
538.000	341.230	79.998	19.996	101.016	19.735	25.501	0.470
540.000	342.267	79.997	19.997	101.014	19.717	26.884	0.516
542.000	343.241	79.996	19.998	101.015	19.698	28.376	0.507
544.000	344.236	79.999	19.997	101.016	19.675	30.118	0.492
546.000	345.244	79.997	19.997	101.015	19.657	31.453	0.468
548.000	346.264	79.997	19.997	101.014	19.634	33.207	0.518
550.000	347.294	79.996	19.997	101.015	19.610	34.991	0.500
552.000	348.303	79.998	19.997	101.017	19.587	36.741	0.466
554.000	349.312	79.998	19.997	101.016	19.558	38.922	0.496
556.000	350.384	79.999	19.995	101.015	19.535	40.725	0.526
558.000	351.361	80.002	19.996	101.014	19.508	42.764	0.481
560.000	352.368	80.000	19.997	101.014	19.473	45.374	0.521
562.000	353.414	80.002	19.997	101.012	19.440	47.846	0.515
564.000	354.413	79.999	19.996	101.009	19.411	50.044	0.504
566.000	355.419	80.002	19.997	101.009	19.380	52.456	0.513
568.000	356.427	80.000	19.996	101.007	19.345	55.089	0.511
570.000	357.478	79.999	19.996	101.010	19.307	57.929	0.491
572.000	358.510	79.998	19.997	101.002	19.271	60.671	0.545
574.000	359.502	80.001	19.996	101.006	19.230	63.745	0.517
576.000	360.510	79.999	19.996	100.995	19.192	66.686	0.541
578.000	361.534	80.000	19.997	100.992	19.153	69.623	0.529
580.000	362.533	80.001	19.996	100.993	19.115	72.461	0.488
582.000	363.526	79.999	19.995	100.982	19.075	75.516	0.489
584.000	364.572	80.002	19.996	100.982	19.041	78.060	0.515
586.000	365.526	80.000	19.996	100.979	18.997	81.391	0.476
588.000	366.580	79.999	19.996	100.972	18.962	84.019	0.509
590.000	367.591	79.999	19.996	100.972	18.927	86.707	0.513
592.000	368.596	79.998	19.996	100.970	18.890	89.483	0.518
594.000	369.609	79.999	19.997	100.966	18.855	92.119	0.497
596.000	370.567	79.998	19.995	100.971	18.828	94.192	0.472
598.000	371.550	79.999	19.996	100.952	18.801	96.232	0.490
600.000	372.641	79.998	19.996	100.952	18.781	97.758	0.523
602.000	373.576	79.999	19.995	100.947	18.762	99.211	0.508
604.000	374.633	79.998	19.995	100.938	18.741	100.789	0.503
606.000	375.627	79.998	19.996	100.938	18.735	101.244	0.507
608.000	376.618	80.000	19.996	100.937	18.725	101.960	0.490
610.000	377.637	79.999	19.997	100.937	18.716	102.680	0.500
612.000	378.611	79.998	19.995	100.935	18.717	102.548	0.510
614.000	379.617	79.999	19.995	100.935	18.719	102.454	0.488
616.000	380.629	79.998	19.997	100.931	18.735	101.205	0.495
618.000	381.581	79.998	19.996	100.925	18.748	100.213	0.478
620.000	382.574	79.998	19.996	100.924	18.766	98.897	0.477
622.000	383.564	79.999	19.996	100.924	18.785	97.434	0.476
624.000	384.533	79.997	19.996	100.929	18.808	95.714	0.468
626.000	385.560	79.998	19.996	100.934	18.837	93.490	0.505
628.001	386.574	79.997	19.995	100.927	18.868	91.170	0.510
630.000	387.564	79.999	19.996	100.931	18.901	88.654	0.509
632.001	388.565	80.000	19.997	100.933	18.938	85.837	0.526
634.000	389.561	79.999	19.997	100.934	18.973	83.213	0.464
636.000	390.594	79.999	19.997	100.935	19.004	80.860	0.485
638.000	391.578	80.001	19.998	100.936	19.041	78.041	0.508
640.000	392.603	80.000	19.997	100.935	19.078	75.281	0.515
642.000	393.660	80.001	19.997	100.937	19.112	72.696	0.550
644.000	394.661	80.000	19.998	100.946	19.148	70.017	0.511
646.000	395.661	79.999	19.998	100.954	19.182	67.425	0.496
648.000	396.689	79.998	19.997	100.951	19.216	64.803	0.519
650.000	397.655	79.999	19.996	100.954	19.245	62.675	0.494
652.000	398.686	80.000	19.998	100.963	19.274	60.469	0.515
654.000	399.683	79.999	19.997	100.970	19.302	58.345	0.494
656.000	400.659	80.000	19.996	100.970	19.328	56.397	0.515
658.000	401.728	79.999	19.996	100.968	19.348	54.835	0.522
660.000	402.731	80.000	19.996	100.974	19.376	52.749	0.555
662.000	403.738	80.001	19.996	100.980	19.398	51.097	0.509
664.000	404.724	80.001	19.996	100.980	19.408	50.279	0.483
666.000	405.741	80.001	19.996	100.984	19.430	48.665	0.505
668.000	406.726	80.002	19.996	100.993	19.448	47.294	0.506
670.000	407.813	80.000	19.995	101.000	19.460	46.344	0.540
672.000	408.817	80.000	19.996	101.001	19.478	45.022	0.529
674.000	409.828	79.998	19.996	101.010	19.486	44.416	0.502
676.000	410.856	79.997	19.996	101.011	19.496	43.653	0.503
678.000	411.885	79.999	19.997	101.009	19.506	42.909	0.518
680.000	412.899	79.997	19.996	101.010	19.512	42.396	0.506
682.000	413.891	79.998	19.995	101.014	19.525	41.464	0.530
684.000	414.906	79.998	19.997	101.013	19.527	41.333	0.491
686.000	415.922	79.998	19.997	101.016	19.537	40.502	0.508
688.000	416.946	79.999	19.996	101.015	19.545	39.903	0.516
690.000	417.995	79.998	19.997	101.015	19.551	39.492	0.510
692.000	419.009	80.000	19.994	101.014	19.555	39.149	0.508
694.000	420.043	80.001	19.996	101.014	19.560	38.801	0.546
696.000	421.061	79.999	19.996	101.014	19.567	38.292	0.501
698.000	422.113	79.999	19.996	101.014	19.573	37.786	0.520
700.000	423.094	79.999	19.997	101.013	19.576	37.554	0.517
702.000	424.184	79.999	19.996	101.013	19.583	37.021	0.532
704.000	425.190	79.998	19.997	101.014	19.588	36.684	0.538
706.000	426.214	79.998	19.997	101.014	19.594	36.254	0.532
708.000	427.217	79.999	19.996	101.013	19.595	36.111	0.521
710.000	428.211	79.998	19.997	101.012	19.604	35.446	0.508
712.000	429.284	79.998	19.997	101.012	19.618	34.406	0.531
714.000	430.290	79.999	19.997	101.012	19.626	33.803	0.532
716.000	431.294	80.000	19.996	101.012	19.629	33.557	0.497
718.000	432.306	79.998	19.997	101.011	19.638	32.859	0.486
720.000	433.329	79.999	19.995	101.011	19.652	31.853	0.489
722.000	434.398	80.000	19.997	101.011	19.661	31.171	0.501
724.000	435.431	80.000	19.995	101.011	19.672	30.281	0.517
726.000	436.447	79.999	19.996	101.008	19.680	29.727	0.533
728.000	437.472	79.999	19.995	101.012	19.690	28.943	0.503
730.000	438.491	79.999	19.996	101.011	19.700	28.200	0.503
732.000	439.488	80.000	19.997	101.005	19.709	27.531	0.546
734.000	440.526	79.999	19.997	101.006	19.717	26.922	0.525
736.001	441.566	79.998	19.997	101.012	19.729	26.027	0.522
738.000	442.573	79.998	19.997	101.001	19.739	25.203	0.520
740.000	443.554	79.997	19.997	100.992	19.751	24.347	0.475
742.000	444.554	79.998	19.997	101.006	19.759	23.712	0.470
744.000	445.592	80.000	19.998	101.007	19.768	23.036	0.507
746.000	446.582	80.000	19.995	101.006	19.777	22.392	0.495
748.000	447.594	80.000	19.997	101.011	19.783	21.924	0.526
750.000	448.621	80.000	19.997	101.003	19.796	20.947	0.491
752.000	449.622	80.001	19.996	101.008	19.802	20.499	0.501
754.000	450.611	79.998	19.996	101.011	19.810	19.828	0.479
756.000	451.649	79.998	19.996	101.010	19.819	19.158	0.527
758.000	452.646	79.998	19.997	101.012	19.828	18.462	0.470
760.000	453.679	79.999	19.996	101.006	19.836	17.885	0.513
762.000	454.688	79.998	19.995	101.007	19.844	17.295	0.511
764.000	455.694	79.998	19.997	101.011	19.853	16.611	0.505
766.000	456.722	79.997	19.995	101.005	19.860	16.030	0.485
768.000	457.724	79.998	19.997	101.011	19.870	15.328	0.518
770.000	458.724	79.999	19.995	101.006	19.884	14.214	0.506
772.000	459.741	79.998	19.995	101.003	19.893	13.559	0.485
774.000	460.739	80.000	19.996	101.008	19.893	13.597	0.495
776.000	461.773	79.999	19.996	101.007	19.905	12.640	0.510
778.000	462.769	79.998	19.996	101.007	19.910	12.277	0.477
780.000	463.790	80.000	19.996	101.007	19.919	11.606	0.493
782.000	464.770	80.000	19.997	101.012	19.929	10.815	0.502
784.000	465.803	79.999	19.996	101.005	19.935	10.387	0.517
786.001	466.797	79.999	19.995	101.002	19.939	10.082	0.506
788.000	467.830	79.998	19.996	101.011	19.949	9.342	0.508
790.000	468.799	79.999	19.996	101.008	19.957	8.703	0.473
792.001	469.810	79.999	19.995	101.011	19.962	8.371	0.499
794.000	470.826	79.998	19.995	101.013	19.965	8.127	0.485
796.000	471.847	79.999	19.996	101.014	19.971	7.678	0.502
798.000	472.843	79.999	19.997	101.015	19.976	7.298	0.477
800.000	473.859	80.000	19.996	101.015	19.980	6.967	0.494
802.000	474.899	80.001	19.995	101.010	19.987	6.460	0.512
804.000	475.958	80.000	19.997	101.009	19.986	6.497	0.513
806.001	476.977	79.999	19.996	101.013	19.995	5.869	0.485
808.001	477.999	79.998	19.996	101.012	19.997	5.663	0.523
810.001	478.991	79.997	19.996	101.009	20.002	5.308	0.491
812.000	480.020	79.999	19.995	101.012	20.003	5.197	0.511
814.000	481.066	79.999	19.996	101.015	20.004	5.172	0.509
816.000	482.039	79.999	19.995	101.012	20.004	5.121	0.486
818.001	483.068	80.000	19.997	101.013	20.012	4.536	0.515
820.001	484.137	79.999	19.996	101.008	20.010	4.738	0.536
822.000	485.132	80.001	19.996	101.011	20.011	4.626	0.538
824.000	486.196	80.000	19.996	101.011	20.012	4.561	0.517
826.000	487.196	80.000	19.995	101.006	20.013	4.487	0.488
828.000	488.216	80.002	19.997	101.007	20.015	4.338	0.506
830.000	489.218	80.001	19.996	101.008	20.017	4.147	0.498
832.000	490.310	80.002	19.997	101.008	20.014	4.365	0.555
834.000	491.315	80.000	19.997	101.006	20.018	4.087	0.510
836.000	492.299	79.999	19.997	101.008	20.018	4.095	0.485
838.000	493.332	79.999	19.997	101.010	20.019	4.008	0.523
840.000	494.373	79.998	19.998	101.009	20.022	3.769	0.506
842.000	495.425	79.998	19.997	101.006	20.017	4.145	0.528
844.000	496.451	79.998	19.996	101.007	20.020	3.932	0.539
846.000	497.435	79.999	19.996	101.007	20.019	3.996	0.522
848.000	498.472	79.999	19.997	101.005	20.019	4.054	0.513
850.000	499.462	79.999	19.996	100.998	20.021	3.871	0.493
852.000	500.536	79.998	19.996	101.007	20.022	3.807	0.537
854.000	501.530	80.000	19.996	101.004	20.021	3.908	0.507
856.000	502.529	79.998	19.996	101.002	20.020	3.970	0.507
858.000	503.539	79.999	19.995	101.008	20.019	4.023	0.509
860.000	504.527	79.999	19.997	101.012	20.017	4.192	0.480
862.000	505.510	79.999	19.995	101.009	20.018	4.102	0.496
864.000	506.542	79.998	19.996	101.012	20.021	3.898	0.500
866.000	507.558	79.997	19.997	101.009	20.018	4.120	0.515
868.000	508.558	79.999	19.996	101.009	20.016	4.244	0.495
870.000	509.597	79.998	19.995	101.010	20.023	3.743	0.479
872.000	510.599	79.998	19.996	101.014	20.020	3.949	0.506
874.000	511.615	79.998	19.997	101.014	20.017	4.157	0.491
876.000	512.615	79.999	19.996	101.016	20.021	3.885	0.514
878.000	513.648	79.999	19.995	101.013	20.019	4.058	0.539
880.001	514.647	80.000	19.995	101.015	20.017	4.143	0.491
882.000	515.711	80.000	19.995	101.015	20.016	4.233	0.523
884.000	516.744	80.002	19.996	101.012	20.018	4.075	0.504
886.000	517.785	80.001	19.996	101.013	20.015	4.357	0.520
888.000	518.815	80.001	19.995	101.012	20.015	4.307	0.515
890.000	519.848	80.001	19.995	101.010	20.019	3.986	0.517
892.000	520.900	80.001	19.996	101.010	20.018	4.097	0.506
894.000	521.906	80.001	19.996	101.011	20.014	4.375	0.520
896.000	522.930	80.001	19.996	101.009	20.015	4.342	0.510
898.000	523.961	80.000	19.996	101.010	20.016	4.278	0.521
900.000	524.980	79.999	19.996	101.011	20.011	4.647	0.485
902.000	526.034	80.001	19.996	101.010	20.013	4.443	0.511
904.000	527.065	80.000	19.997	101.009	20.017	4.211	0.498
906.000	528.143	80.001	19.996	101.010	20.013	4.482	0.514
908.000	529.147	80.002	19.996	101.005	20.010	4.705	0.497
910.000	530.133	80.001	19.995	101.006	20.010	4.732	0.467
912.000	531.215	80.002	19.996	101.008	20.007	4.967	0.529
914.000	532.243	80.001	19.996	101.008	20.006	5.043	0.529
916.000	533.269	80.000	19.996	101.009	20.003	5.232	0.508
918.001	534.349	80.000	19.997	101.009	20.005	5.076	0.538
920.000	535.374	79.998	19.996	101.007	20.007	4.940	0.521
922.000	536.443	79.999	19.996	101.008	20.001	5.395	0.540
924.000	537.406	79.998	19.998	101.011	19.998	5.651	0.486
926.000	538.430	79.997	19.997	101.012	19.996	5.785	0.522
928.000	539.488	79.998	19.997	101.013	19.995	5.803	0.508
930.000	540.513	79.999	19.997	101.012	19.991	6.147	0.523
932.000	541.557	79.999	19.997	101.011	19.990	6.240	0.540
934.000	542.587	80.000	19.997	101.011	19.988	6.374	0.543
936.000	543.589	79.997	19.996	101.012	19.986	6.506	0.517
938.000	544.575	79.999	19.996	101.013	19.983	6.782	0.510
940.000	545.589	79.999	19.996	101.012	19.982	6.825	0.518
942.001	546.643	80.000	19.996	101.014	19.981	6.928	0.549
944.000	547.659	79.998	19.995	101.015	19.980	6.963	0.543
946.000	548.657	79.999	19.995	101.015	19.975	7.348	0.529
948.000	549.688	79.999	19.996	101.016	19.976	7.310	0.509
950.000	550.731	79.999	19.996	101.016	19.971	7.632	0.494
952.000	551.728	79.999	19.996	101.013	19.971	7.663	0.472
954.000	552.768	79.999	19.996	101.013	19.969	7.824	0.513
956.000	553.817	79.998	19.997	101.012	19.965	8.082	0.520
958.000	554.875	79.999	19.996	101.024	19.963	8.260	0.532
960.000	555.896	80.001	19.996	101.017	19.964	8.194	0.552
962.000	556.869	79.999	19.997	101.011	19.958	8.613	0.483
964.000	557.930	80.000	19.996	101.014	19.954	8.985	0.527
966.000	558.954	80.001	19.996	101.016	19.956	8.790	0.521
968.000	560.020	80.003	19.995	101.021	19.951	9.187	0.516
970.000	561.003	80.003	19.996	101.023	19.949	9.313	0.524
972.000	562.022	80.002	19.995	101.015	19.949	9.336	0.488
974.000	563.113	80.001	19.996	101.014	19.946	9.558	0.537
976.000	564.116	80.001	19.996	101.037	19.945	9.641	0.500
978.000	565.127	80.003	19.994	101.031	19.943	9.787	0.496
980.000	566.159	80.000	19.996	101.029	19.941	9.916	0.528
982.000	567.171	80.001	19.995	101.033	19.938	10.141	0.502
984.000	568.194	80.001	19.995	101.035	19.940	9.979	0.510
986.000	569.201	80.000	19.996	101.022	19.938	10.195	0.508
988.000	570.237	80.002	19.995	101.016	19.936	10.347	0.509
990.000	571.253	80.002	19.996	101.018	19.938	10.183	0.491
992.000	572.230	80.001	19.996	101.025	19.938	10.128	0.499
994.000	573.276	80.002	19.996	101.031	19.943	9.809	0.499
996.000	574.341	80.001	19.996	101.040	19.940	10.036	0.521
998.000	575.394	80.001	19.995	101.039	19.941	9.951	0.517
1000.000	576.414	80.001	19.996	101.031	19.942	9.862	0.492
1002.000	577.375	79.998	19.996	101.041	19.942	9.889	0.475
1004.000	578.423	79.999	19.996	101.034	19.942	9.857	0.503
1006.000	579.413	79.998	19.995	101.030	19.946	9.522	0.535
1008.000	580.422	79.998	19.997	101.026	19.943	9.779	0.517
1010.000	581.439	79.998	19.996	101.023	19.949	9.357	0.498
1012.001	582.455	79.999	19.996	101.024	19.947	9.447	0.507
1014.000	583.474	79.999	19.996	101.016	19.952	9.130	0.505
1016.000	584.457	79.998	19.997	101.015	19.955	8.852	0.478
1018.000	585.484	79.999	19.996	101.018	19.960	8.477	0.515
1020.000	586.463	79.998	19.997	101.012	19.964	8.209	0.476
1022.000	587.439	79.997	19.996	101.012	19.968	7.859	0.484
1024.000	588.442	80.000	19.996	101.013	19.971	7.645	0.477
1026.000	589.442	80.000	19.996	101.011	19.978	7.144	0.500
1028.000	590.439	79.998	19.997	101.009	19.983	6.744	0.492
1030.000	591.458	79.999	19.996	101.009	19.985	6.629	0.550
1032.001	592.416	79.999	19.995	101.010	19.995	5.832	0.470
1034.000	593.410	79.998	19.995	101.011	19.999	5.574	0.515
1036.000	594.375	79.999	19.996	101.011	20.003	5.214	0.507
1038.000	595.398	79.998	19.995	101.012	20.004	5.129	0.501
1040.001	596.369	80.000	19.995	101.011	20.014	4.429	0.517
1042.001	597.351	79.999	19.996	101.011	20.014	4.394	0.488
1044.000	598.328	79.999	19.995	101.011	20.023	3.749	0.496
1046.000	599.335	79.999	19.996	101.011	20.024	3.646	0.498
1048.000	600.319	80.001	19.996	101.004	20.024	3.655	0.495
1050.000	601.327	80.001	19.996	101.007	20.030	3.189	0.475
1052.001	602.282	80.001	19.996	101.010	20.030	3.199	0.477
1054.000	603.312	80.000	19.995	101.013	20.030	3.179	0.511
1056.001	604.266	80.001	19.995	101.014	20.031	3.096	0.484
1058.001	605.316	80.000	19.995	101.012	20.034	2.878	0.498
1060.000	606.319	80.000	19.995	101.020	20.032	3.049	0.508
1062.000	607.306	79.999	19.995	101.013	20.031	3.086	0.474
1064.000	608.349	80.000	19.995	101.014	20.034	2.878	0.509
1066.000	609.399	80.001	19.995	101.012	20.033	2.942	0.539
1068.001	610.395	80.000	19.995	101.012	20.033	2.925	0.494
1070.001	611.444	80.000	19.995	101.014	20.033	2.940	0.511
1072.000	612.457	80.001	19.994	101.014	20.031	3.125	0.520
1074.000	613.490	80.001	19.994	101.015	20.031	3.142	0.532
1076.000	614.564	80.001	19.995	101.014	20.035	2.839	0.542
1078.001	615.535	80.002	19.995	101.015	20.031	3.142	0.496
1080.000	616.609	80.000	19.995	101.018	20.030	3.193	0.541
1082.001	617.661	80.000	19.995	101.017	20.031	3.144	0.537
1084.000	618.664	79.999	19.996	101.011	20.031	3.085	0.516
1086.000	619.699	79.999	19.996	101.018	20.032	3.058	0.519
1088.000	620.731	79.999	19.996	101.018	20.033	2.938	0.511
1090.000	621.781	79.999	19.997	101.026	20.031	3.138	0.537
1092.000	622.778	80.000	19.996	101.030	20.030	3.153	0.499
1094.000	623.842	79.999	19.996	101.038	20.031	3.130	0.535
1096.001	624.909	80.001	19.996	101.036	20.028	3.349	0.529
1098.000	625.902	80.000	19.996	101.040	20.030	3.184	0.518
1100.001	626.909	79.998	19.995	101.037	20.027	3.402	0.456
1102.000	627.960	79.999	19.996	101.037	20.032	3.048	0.540
1104.001	628.998	80.000	19.995	101.038	20.030	3.155	0.491
1106.000	630.051	79.999	19.996	101.040	20.027	3.394	0.510
1108.001	631.052	79.997	19.997	101.047	20.028	3.338	0.527
1110.001	632.069	79.999	19.996	101.042	20.028	3.359	0.519
1112.000	633.118	79.999	19.997	101.048	20.028	3.357	0.511
1114.000	634.109	79.998	19.997	101.049	20.030	3.190	0.520
1116.000	635.144	79.998	19.998	101.048	20.026	3.508	0.510
1118.000	636.168	79.997	19.997	101.044	20.026	3.512	0.520
1120.001	637.178	79.999	19.997	101.051	20.028	3.374	0.510
1122.000	638.187	79.999	19.997	101.051	20.026	3.520	0.500
1124.000	639.170	80.001	19.996	101.053	20.025	3.555	0.486
1126.000	640.217	80.001	19.995	101.053	20.025	3.537	0.487
1128.001	641.265	80.000	19.995	101.054	20.027	3.388	0.511
1130.001	642.270	80.001	19.994	101.055	20.021	3.901	0.505
1132.000	643.272	80.002	19.995	101.056	20.023	3.735	0.547
1134.000	644.279	80.001	19.995	101.054	20.024	3.629	0.471
1136.001	645.290	80.001	19.995	101.063	20.022	3.789	0.487
1138.000	646.311	80.001	19.995	101.061	20.022	3.797	0.502
1140.000	647.306	80.001	19.996	101.059	20.021	3.902	0.483
1142.001	648.274	79.999	19.996	101.064	20.021	3.857	0.462
1144.000	649.309	80.001	19.995	101.063	20.017	4.154	0.500
1146.000	650.334	80.001	19.996	101.072	20.020	3.919	0.533
1148.000	651.328	80.002	19.996	101.070	20.019	4.041	0.484
1150.000	652.355	80.002	19.995	101.073	20.017	4.150	0.506
1152.000	653.359	80.003	19.995	101.083	20.018	4.071	0.513
1154.001	654.374	80.003	19.994	101.082	20.016	4.218	0.500
1156.000	655.392	80.004	19.995	101.081	20.017	4.204	0.521
1158.000	656.338	80.004	19.996	101.088	20.017	4.201	0.491
1160.000	657.378	80.002	19.995	101.085	20.015	4.325	0.507
1162.000	658.404	80.002	19.996	101.082	20.017	4.193	0.490
1164.000	659.434	80.002	19.996	101.086	20.013	4.480	0.519
1166.000	660.407	80.001	19.996	101.089	20.017	4.197	0.507
1168.000	661.436	80.000	19.996	101.089	20.015	4.367	0.526
1170.000	662.449	80.001	19.995	101.089	20.014	4.410	0.490
1172.000	663.439	80.000	19.996	101.090	20.011	4.615	0.534
1174.000	664.420	80.000	19.997	101.094	20.013	4.472	0.511
1176.000	665.460	80.001	19.997	101.095	20.014	4.412	0.517
1178.000	666.445	79.999	19.996	101.091	20.014	4.404	0.489
1180.000	667.467	80.001	19.997	101.099	20.016	4.291	0.552
1182.000	668.477	80.000	19.995	101.105	20.012	4.520	0.513
1184.000	669.503	80.000	19.995	101.105	20.014	4.421	0.525
1186.000	670.515	80.000	19.995	101.104	20.012	4.541	0.510
1188.000	671.542	80.000	19.995	101.104	20.012	4.578	0.515
1190.000	672.595	80.000	19.996	101.109	20.010	4.679	0.527
1192.000	673.611	80.000	19.996	101.113	20.008	4.888	0.503
1194.000	674.611	80.000	19.997	101.112	20.008	4.875	0.492
1196.000	675.651	79.998	19.995	101.122	20.008	4.844	0.536
1198.000	676.709	79.999	19.995	101.120	20.005	5.082	0.506
1200.001	677.671	79.999	19.996	101.124	20.005	5.104	0.521
1202.000	678.658	79.999	19.996	101.122	20.010	4.737	0.521
1204.000	679.671	79.998	19.997	101.126	20.005	5.088	0.494
1206.000	680.664	79.999	19.998	101.121	20.005	5.082	0.466
1208.001	681.699	79.999	19.997	101.126	20.003	5.230	0.509
1210.000	682.688	80.001	19.997	101.127	20.008	4.896	0.517
1212.000	683.711	80.001	19.996	101.127	20.005	5.100	0.508
1214.001	684.671	80.002	19.997	101.126	20.004	5.162	0.479
1216.000	685.743	80.002	19.996	101.126	20.005	5.091	0.519
1218.000	686.725	80.001	19.995	101.127	20.003	5.231	0.470
1220.001	687.746	80.001	19.996	101.126	20.002	5.295	0.495
1222.000	688.765	80.000	19.995	101.128	20.004	5.134	0.524
1224.000	689.835	80.001	19.997	101.129	20.001	5.374	0.535
1226.000	690.844	80.000	19.996	101.132	20.000	5.474	0.552
1228.000	691.853	80.002	19.995	101.155	19.999	5.566	0.555
1230.000	692.860	80.002	19.996	101.147	20.000	5.444	0.512
1232.000	693.875	80.002	19.995	101.144	19.999	5.560	0.518
1234.000	694.910	80.002	19.996	101.148	19.995	5.870	0.508
1236.000	695.926	80.002	19.996	101.148	19.996	5.771	0.489
1238.001	696.923	80.004	19.995	101.142	19.993	5.983	0.529
1240.000	697.931	80.003	19.996	101.158	19.996	5.782	0.493
1242.000	698.923	80.003	19.995	101.160	19.994	5.890	0.503
1244.000	699.914	80.002	19.995	101.167	19.993	5.966	0.473
1246.000	700.919	80.001	19.996	101.168	19.994	5.952	0.478
1248.000	701.903	80.000	19.995	101.169	19.995	5.840	0.480
1250.001	702.928	80.000	19.995	101.170	19.990	6.211	0.527
1252.000	703.915	80.000	19.995	101.185	19.989	6.339	0.515
1254.000	704.930	80.001	19.995	101.191	19.991	6.182	0.496
1256.000	705.893	79.999	19.995	101.199	19.990	6.250	0.480
1258.000	706.897	80.001	19.995	101.189	19.988	6.358	0.496
1260.000	707.924	79.999	19.995	101.209	19.986	6.539	0.500
1262.000	708.948	79.999	19.995	101.210	19.986	6.556	0.531
1264.000	709.881	80.000	19.997	101.209	19.983	6.727	0.503
1266.000	710.883	80.000	19.995	101.210	19.981	6.894	0.486
1268.000	711.900	80.000	19.995	101.214	19.980	6.986	0.493
1270.000	712.903	79.999	19.995	101.215	19.981	6.899	0.507
1272.000	713.916	79.999	19.996	101.213	19.978	7.110	0.488
1274.001	714.959	79.999	19.995	101.215	19.979	7.067	0.525
1276.000	715.945	79.999	19.997	101.219	19.977	7.216	0.528
1278.001	717.019	80.000	19.997	101.225	19.980	6.995	0.503
1280.001	717.937	79.998	19.996	101.224	19.979	7.097	0.492
1282.001	718.965	79.999	19.997	101.224	19.977	7.194	0.508
1284.000	719.969	80.000	19.996	101.238	19.972	7.623	0.496
1286.000	721.005	80.001	19.996	101.240	19.974	7.427	0.513
1288.000	721.992	80.001	19.997	101.247	19.973	7.534	0.520
1290.000	722.988	80.001	19.996	101.246	19.973	7.534	0.507
1292.000	723.998	80.003	19.996	101.246	19.974	7.416	0.524
1294.000	725.000	80.000	19.996	101.244	19.971	7.691	0.479
1296.000	726.018	80.001	19.996	101.246	19.973	7.497	0.515
1298.000	726.965	80.001	19.996	101.245	19.971	7.689	0.466
1300.000	728.018	80.001	19.997	101.248	19.971	7.712	0.501
1302.000	729.044	80.000	19.997	101.244	19.969	7.865	0.501
1304.000	730.046	80.001	19.996	101.245	19.969	7.816	0.516
1306.000	731.116	79.999	19.996	101.244	19.965	8.127	0.533
1308.001	732.097	80.000	19.996	101.246	19.972	7.608	0.514
1310.001	733.126	80.001	19.996	101.245	19.972	7.606	0.528
1312.001	734.129	80.001	19.995	101.247	19.968	7.908	0.536
1314.000	735.124	80.001	19.995	101.242	19.967	7.989	0.504
1316.000	736.141	80.003	19.995	101.228	19.966	8.053	0.507
1318.000	737.161	80.003	19.996	101.215	19.967	7.935	0.546
1320.000	738.182	80.002	19.995	101.211	19.966	8.032	0.531
1322.000	739.191	80.003	19.995	101.204	19.975	7.367	0.497
1324.000	740.259	80.001	19.995	101.173	19.976	7.249	0.542
1326.001	741.264	80.001	19.995	101.159	19.984	6.681	0.496
1328.000	742.315	80.001	19.996	101.129	19.991	6.143	0.527
1330.000	743.362	80.001	19.995	101.096	19.994	5.903	0.564
1330.500	743.565	79.999	19.996	101.092	19.997	5.713	0.521