File: 01_Data/Rug_Pad/MCC/Rug_Pad_MCC_30K_min_211013_R3.txt
Sample ID:	C:\MCC\MCC Cal\Test\Rug_pad_MCC_30K_min_211013_R3.txt
Sample Weight (mg):	4.1
Heating Rate (C/s):	0.5
Combustor Temp (C):	900
N2 Flow Rate (cc/min):	80
O2 Flow Rate (cc/min):	20
Calibration File:	C:\MCC\MCC Cal\Coeff1 JN10440_30_210304.txt.txt
T Correction Coefficients:	0	1.024463	0
Time Shift (s):	14
*
Time (s)	Temperature (C)	N2 flow rate (cc/min)	O2 flow rate (cc/min)	Flow Rate (cc/min)	Oxygen (%)	HRR (W/g)	Heating rate (C/s)
0.000	108.931	79.991	19.995	103.299	20.077	-0.385	-0.001
2.000	108.909	79.989	19.997	103.299	20.077	-0.402	-0.023
4.000	108.948	79.988	19.996	103.298	20.078	-0.413	0.034
6.000	108.904	79.989	19.997	103.296	20.074	-0.151	-0.035
8.000	108.893	79.992	19.996	103.289	20.072	0.006	0.006
10.000	108.887	79.987	19.996	103.311	20.072	0.067	-0.026
12.000	108.907	79.989	19.998	103.314	20.072	-0.002	0.014
14.000	108.907	79.987	19.997	103.314	20.070	0.151	0.004
16.000	108.923	79.989	19.997	103.331	20.065	0.584	0.013
18.000	108.978	79.988	19.996	103.356	20.064	0.653	0.055
20.000	108.995	79.989	19.996	103.383	20.055	1.387	0.043
22.000	109.066	79.989	19.996	103.405	20.055	1.350	0.049
24.000	109.149	79.990	19.997	103.415	20.053	1.512	0.058
26.000	109.297	79.990	19.997	103.435	20.045	2.170	0.054
28.000	109.421	79.991	19.996	103.450	20.046	2.107	0.075
30.000	109.576	79.990	19.996	103.457	20.043	2.284	0.085
32.001	109.792	79.990	19.998	103.470	20.044	2.213	0.084
34.000	109.995	79.989	19.997	103.470	20.041	2.493	0.065
36.000	110.265	79.989	19.997	103.471	20.039	2.655	0.156
38.001	110.531	79.988	19.997	103.479	20.038	2.710	0.149
40.001	110.842	79.990	19.997	103.450	20.038	2.727	0.154
42.000	111.156	79.987	19.997	103.466	20.039	2.651	0.175
44.001	111.481	79.991	19.997	103.475	20.034	2.987	0.148
46.001	111.827	79.992	19.997	103.486	20.038	2.738	0.167
48.000	112.196	79.991	19.996	103.508	20.035	2.956	0.161
50.000	112.627	79.991	19.995	103.515	20.032	3.209	0.179
52.000	113.029	79.991	19.997	103.515	20.033	3.127	0.201
54.000	113.469	79.991	19.997	103.509	20.033	3.119	0.214
56.000	113.982	79.992	19.995	103.508	20.032	3.210	0.232
58.001	114.452	79.989	19.998	103.494	20.032	3.166	0.253
60.000	114.972	79.992	19.996	103.492	20.037	2.818	0.268
62.000	115.471	79.991	19.997	103.503	20.033	3.071	0.267
64.000	115.984	79.991	19.998	103.506	20.036	2.840	0.260
66.000	116.539	79.990	19.997	103.508	20.034	3.030	0.282
68.000	117.139	79.990	19.997	103.508	20.031	3.227	0.286
70.000	117.684	79.988	19.998	103.506	20.036	2.844	0.273
72.000	118.277	79.990	19.997	103.506	20.034	3.002	0.276
74.000	118.893	79.990	19.997	103.507	20.038	2.720	0.269
76.001	119.528	79.990	19.996	103.506	20.038	2.720	0.336
78.001	120.141	79.989	19.997	103.502	20.037	2.812	0.338
80.000	120.733	79.990	19.998	103.504	20.037	2.757	0.301
82.000	121.406	79.991	19.996	103.503	20.036	2.855	0.342
84.000	122.034	79.993	19.996	103.503	20.039	2.595	0.318
86.000	122.698	79.992	19.996	103.505	20.033	3.084	0.300
88.000	123.385	79.991	19.996	103.515	20.037	2.810	0.360
90.000	124.052	79.990	19.996	103.523	20.033	3.067	0.335
92.001	124.727	79.991	19.997	103.506	20.033	3.076	0.348
94.000	125.426	79.989	19.996	103.519	20.032	3.201	0.320
96.000	126.147	79.990	19.999	103.514	20.033	3.101	0.355
98.001	126.862	79.989	19.999	103.516	20.031	3.255	0.385
100.001	127.552	79.990	19.999	103.525	20.032	3.151	0.380
102.000	128.296	79.989	19.995	103.529	20.032	3.184	0.392
104.001	129.048	79.989	19.997	103.513	20.031	3.245	0.390
106.000	129.753	79.991	19.996	103.506	20.034	3.060	0.342
108.000	130.505	79.993	19.993	103.505	20.032	3.212	0.369
110.000	131.243	79.992	19.995	103.512	20.037	2.758	0.374
112.000	131.996	79.992	19.995	103.511	20.031	3.225	0.358
114.001	132.754	79.989	19.996	103.517	20.032	3.149	0.386
116.000	133.543	79.990	19.996	103.512	20.035	2.957	0.408
118.000	134.309	79.991	19.997	103.511	20.034	3.002	0.395
120.000	135.096	79.990	19.998	103.518	20.034	3.030	0.407
122.000	135.861	79.990	19.998	103.514	20.035	2.941	0.385
124.000	136.655	79.989	19.997	103.513	20.033	3.136	0.427
126.000	137.471	79.988	19.998	103.519	20.036	2.903	0.388
128.001	138.305	79.993	19.998	103.522	20.036	2.829	0.435
130.000	139.109	79.990	19.997	103.514	20.031	3.286	0.446
132.000	139.940	79.993	19.996	103.514	20.033	3.076	0.422
134.000	140.743	79.993	19.997	103.516	20.033	3.139	0.404
136.000	141.654	79.994	19.999	103.516	20.030	3.351	0.425
138.000	142.432	79.992	19.996	103.514	20.030	3.323	0.417
140.000	143.307	79.994	19.995	103.513	20.028	3.483	0.418
142.000	144.143	79.990	19.996	103.520	20.034	2.989	0.437
144.000	145.040	79.990	19.997	103.532	20.031	3.250	0.445
146.000	145.877	79.991	19.995	103.529	20.032	3.202	0.455
148.000	146.748	79.987	19.998	103.526	20.032	3.158	0.422
150.000	147.638	79.990	19.998	103.533	20.027	3.550	0.396
152.000	148.476	79.991	19.996	103.515	20.031	3.232	0.447
154.000	149.408	79.991	19.997	103.532	20.030	3.334	0.441
156.000	150.337	79.990	19.996	103.534	20.030	3.371	0.463
158.001	151.201	79.991	19.997	103.524	20.027	3.556	0.419
160.000	152.110	79.990	19.996	103.528	20.028	3.479	0.430
162.000	153.066	79.989	19.997	103.543	20.034	3.050	0.457
164.000	153.950	79.989	19.996	103.528	20.030	3.366	0.458
166.000	154.870	79.989	19.998	103.530	20.031	3.258	0.469
168.000	155.801	79.990	19.996	103.528	20.030	3.349	0.464
170.000	156.731	79.989	19.996	103.526	20.029	3.401	0.499
172.000	157.662	79.990	19.995	103.535	20.031	3.294	0.468
174.000	158.622	79.990	19.997	103.525	20.027	3.604	0.503
176.000	159.568	79.989	19.999	103.527	20.029	3.426	0.482
178.000	160.545	79.990	19.995	103.540	20.030	3.318	0.499
180.000	161.537	79.989	19.995	103.526	20.028	3.530	0.503
182.000	162.501	79.990	19.996	103.515	20.030	3.368	0.463
184.000	163.436	79.991	19.998	103.515	20.034	3.043	0.479
186.000	164.435	79.991	19.997	103.513	20.030	3.350	0.520
188.000	165.426	79.991	19.998	103.515	20.028	3.510	0.520
190.000	166.405	79.991	19.997	103.513	20.030	3.333	0.514
192.000	167.386	79.989	19.997	103.508	20.030	3.344	0.488
194.000	168.395	79.992	19.997	103.507	20.027	3.573	0.490
196.000	169.362	79.991	19.999	103.509	20.030	3.333	0.483
198.000	170.412	79.990	19.997	103.507	20.028	3.471	0.515
200.000	171.365	79.990	19.997	103.507	20.030	3.309	0.466
202.000	172.340	79.992	19.997	103.513	20.032	3.151	0.468
204.000	173.381	79.992	19.997	103.507	20.029	3.387	0.478
206.000	174.332	79.990	19.996	103.506	20.028	3.458	0.457
208.000	175.366	79.991	19.998	103.506	20.026	3.633	0.498
210.000	176.360	79.993	19.994	103.496	20.029	3.400	0.520
212.000	177.376	79.992	19.998	103.502	20.031	3.266	0.506
214.000	178.372	79.993	19.998	103.494	20.030	3.333	0.493
216.000	179.389	79.991	19.997	103.493	20.030	3.352	0.529
218.000	180.368	79.992	19.999	103.483	20.031	3.247	0.494
220.000	181.340	79.990	19.997	103.489	20.029	3.425	0.495
222.000	182.395	79.990	19.999	103.496	20.029	3.387	0.480
224.001	183.435	79.988	19.998	103.494	20.026	3.620	0.526
226.000	184.462	79.989	19.998	103.487	20.033	3.131	0.527
228.000	185.455	79.989	19.995	103.473	20.030	3.354	0.486
230.000	186.534	79.989	19.996	103.474	20.032	3.217	0.555
232.000	187.549	79.989	19.998	103.488	20.032	3.207	0.514
234.000	188.541	79.989	19.995	103.489	20.026	3.676	0.491
236.000	189.594	79.991	19.997	103.485	20.029	3.395	0.543
238.000	190.580	79.989	19.996	103.479	20.026	3.682	0.508
240.000	191.602	79.991	19.995	103.480	20.032	3.196	0.515
242.000	192.636	79.989	19.997	103.479	20.028	3.460	0.541
244.000	193.632	79.991	19.996	103.493	20.028	3.464	0.512
246.000	194.616	79.988	19.996	103.474	20.034	3.061	0.494
248.000	195.595	79.989	19.998	103.474	20.026	3.669	0.469
250.000	196.639	79.989	19.996	103.471	20.024	3.773	0.527
252.000	197.608	79.992	19.998	103.472	20.026	3.672	0.482
254.000	198.619	79.989	19.998	103.476	20.028	3.494	0.499
256.000	199.652	79.988	19.997	103.469	20.025	3.732	0.492
258.000	200.611	79.988	19.997	103.470	20.020	4.147	0.498
260.000	201.597	79.988	19.997	103.465	20.024	3.844	0.477
262.000	202.648	79.989	19.995	103.469	20.023	3.907	0.525
264.000	203.606	79.989	19.998	103.472	20.022	3.983	0.489
266.000	204.640	79.991	19.995	103.466	20.023	3.851	0.511
268.000	205.598	79.991	19.996	103.469	20.020	4.090	0.522
270.000	206.619	79.991	19.995	103.467	20.023	3.924	0.500
272.000	207.593	79.992	19.997	103.458	20.020	4.087	0.484
274.000	208.600	79.991	19.995	103.463	20.023	3.870	0.494
276.000	209.572	79.991	19.997	103.465	20.022	3.977	0.513
278.000	210.545	79.992	19.997	103.466	20.019	4.175	0.500
280.000	211.555	79.989	19.996	103.452	20.018	4.316	0.525
282.000	212.535	79.991	19.995	103.461	20.023	3.918	0.488
284.001	213.484	79.989	19.998	103.466	20.019	4.201	0.460
286.000	214.503	79.989	19.996	103.468	20.018	4.279	0.455
288.001	215.492	79.989	19.996	103.467	20.019	4.216	0.473
290.000	216.453	79.990	19.998	103.452	20.018	4.250	0.483
292.000	217.444	79.992	19.997	103.462	20.014	4.618	0.491
294.000	218.450	79.994	19.997	103.469	20.015	4.532	0.496
296.000	219.413	79.991	19.996	103.462	20.013	4.705	0.503
298.000	220.439	79.992	19.997	103.460	20.010	4.945	0.466
300.000	221.395	79.992	19.997	103.452	20.012	4.773	0.483
302.000	222.489	79.991	19.996	103.453	20.012	4.716	0.564
304.000	223.330	79.990	19.997	103.451	20.013	4.664	0.595
306.000	224.538	79.989	19.996	103.449	20.009	5.014	0.606
308.000	225.305	79.987	19.996	103.453	20.009	5.001	0.518
310.000	226.179	79.987	19.998	103.459	20.007	5.155	0.467
312.000	227.278	79.989	19.998	103.464	20.009	4.993	0.498
314.000	228.348	79.988	19.998	103.463	20.007	5.148	0.528
316.000	229.332	79.990	19.997	103.449	20.006	5.228	0.515
318.000	230.325	79.990	19.997	103.457	20.003	5.462	0.508
320.000	231.320	79.990	19.998	103.459	20.005	5.330	0.474
322.000	232.279	79.990	19.997	103.459	20.005	5.319	0.480
324.001	233.301	79.990	19.996	103.453	20.000	5.674	0.481
326.000	234.300	79.991	19.996	103.448	20.002	5.577	0.513
328.000	235.267	79.990	19.997	103.460	20.001	5.591	0.481
330.000	236.275	79.989	19.996	103.453	19.997	5.951	0.513
332.000	237.288	79.990	19.998	103.455	19.999	5.805	0.517
334.001	238.265	79.989	19.996	103.446	20.001	5.606	0.520
336.000	239.232	79.990	19.997	103.455	19.999	5.812	0.470
338.001	240.279	79.988	19.997	103.447	20.000	5.686	0.498
340.000	241.275	79.989	19.997	103.440	19.995	6.056	0.523
342.000	242.231	79.989	19.998	103.451	19.992	6.320	0.518
344.000	243.271	79.990	19.996	103.437	19.995	6.088	0.485
346.000	244.301	79.990	19.997	103.453	19.997	5.954	0.543
348.000	245.297	79.990	19.997	103.446	19.996	5.995	0.545
350.000	246.322	79.991	19.997	103.448	19.990	6.482	0.523
352.000	247.337	79.990	19.997	103.444	19.993	6.216	0.478
354.000	248.339	79.989	19.997	103.437	19.994	6.194	0.530
356.000	249.307	79.991	19.995	103.437	19.993	6.283	0.465
358.000	250.382	79.992	19.996	103.434	19.993	6.279	0.513
360.000	251.381	79.992	19.996	103.439	19.992	6.361	0.516
362.000	252.431	79.991	19.997	103.432	19.990	6.491	0.508
364.000	253.403	79.990	19.996	103.435	19.988	6.646	0.488
366.000	254.437	79.989	19.995	103.434	19.982	7.107	0.507
368.000	255.475	79.990	19.996	103.435	19.982	7.135	0.548
370.000	256.440	79.991	19.996	103.444	19.988	6.613	0.473
372.000	257.469	79.991	19.997	103.437	19.980	7.301	0.495
374.000	258.493	79.992	19.998	103.435	19.984	6.929	0.515
376.000	259.501	79.992	19.996	103.430	19.983	7.011	0.509
378.000	260.477	79.991	19.996	103.430	19.982	7.107	0.490
380.000	261.465	79.992	19.996	103.430	19.980	7.236	0.491
382.000	262.434	79.992	19.997	103.427	19.977	7.481	0.504
384.000	263.464	79.991	19.998	103.428	19.978	7.448	0.496
386.000	264.477	79.990	19.998	103.431	19.976	7.597	0.485
388.000	265.458	79.990	19.997	103.428	19.975	7.630	0.501
390.000	266.488	79.989	19.996	103.432	19.972	7.887	0.543
392.000	267.477	79.988	19.996	103.429	19.974	7.736	0.520
394.000	268.465	79.989	19.997	103.430	19.976	7.556	0.487
396.000	269.503	79.990	19.998	103.428	19.969	8.122	0.507
398.000	270.491	79.990	19.997	103.430	19.973	7.789	0.464
400.000	271.497	79.991	19.998	103.424	19.970	8.042	0.504
402.000	272.494	79.990	19.998	103.425	19.969	8.144	0.452
404.000	273.469	79.989	19.998	103.430	19.969	8.134	0.478
406.000	274.517	79.989	19.998	103.418	19.965	8.458	0.491
408.000	275.530	79.989	19.997	103.423	19.967	8.259	0.526
410.000	276.515	79.990	19.997	103.421	19.967	8.302	0.500
412.000	277.557	79.989	19.996	103.424	19.968	8.220	0.507
414.000	278.540	79.989	19.997	103.430	19.966	8.410	0.509
416.000	279.506	79.989	19.997	103.428	19.969	8.127	0.470
418.000	280.497	79.988	19.997	103.425	19.968	8.235	0.502
420.000	281.476	79.988	19.996	103.432	19.963	8.573	0.468
422.000	282.485	79.990	19.996	103.428	19.968	8.248	0.487
424.000	283.491	79.990	19.996	103.424	19.970	8.025	0.521
426.000	284.450	79.989	19.997	103.431	19.970	8.083	0.477
428.000	285.473	79.991	19.995	103.431	19.970	8.062	0.493
430.000	286.500	79.990	19.997	103.408	19.969	8.135	0.502
432.000	287.503	79.989	19.996	103.414	19.974	7.763	0.488
434.000	288.494	79.991	19.996	103.427	19.969	8.110	0.504
436.000	289.512	79.991	19.997	103.418	19.970	8.039	0.484
438.001	290.482	79.991	19.997	103.421	19.971	7.940	0.482
440.000	291.517	79.991	19.997	103.426	19.971	7.988	0.492
442.000	292.528	79.992	19.997	103.415	19.973	7.853	0.525
444.000	293.496	79.991	19.996	103.412	19.968	8.230	0.475
446.000	294.558	79.989	19.996	103.407	19.971	7.964	0.510
448.000	295.524	79.991	19.996	103.417	19.973	7.832	0.483
450.000	296.519	79.992	19.996	103.411	19.970	8.026	0.494
452.000	297.539	79.992	19.996	103.409	19.973	7.818	0.494
454.000	298.575	79.992	19.997	103.406	19.968	8.189	0.521
456.000	299.523	79.992	19.996	103.417	19.970	8.066	0.485
458.000	300.562	79.993	19.997	103.413	19.975	7.694	0.515
460.000	301.563	79.993	19.996	103.418	19.975	7.667	0.524
462.000	302.535	79.991	19.997	103.398	19.974	7.759	0.471
464.000	303.566	79.990	19.998	103.412	19.974	7.775	0.492
466.000	304.566	79.989	19.997	103.407	19.971	7.982	0.511
468.000	305.556	79.990	19.998	103.393	19.973	7.804	0.494
470.000	306.565	79.990	19.997	103.401	19.972	7.867	0.516
472.000	307.578	79.991	19.997	103.417	19.971	7.952	0.520
474.000	308.609	79.990	19.997	103.407	19.972	7.909	0.512
476.001	309.643	79.991	19.997	103.397	19.966	8.361	0.523
478.000	310.649	79.990	19.997	103.411	19.965	8.473	0.507
480.000	311.647	79.990	19.997	103.402	19.964	8.538	0.515
482.000	312.696	79.991	19.997	103.402	19.963	8.592	0.513
484.000	313.700	79.990	19.997	103.397	19.961	8.776	0.502
486.000	314.718	79.989	19.997	103.403	19.963	8.598	0.509
488.000	315.693	79.991	19.997	103.399	19.955	9.207	0.494
490.000	316.666	79.989	19.996	103.400	19.952	9.454	0.483
492.000	317.703	79.990	19.997	103.396	19.953	9.404	0.523
494.000	318.741	79.988	19.997	103.404	19.950	9.650	0.535
496.000	319.739	79.989	19.998	103.392	19.948	9.800	0.508
498.000	320.704	79.988	19.998	103.405	19.943	10.182	0.509
500.000	321.735	79.989	19.997	103.404	19.943	10.191	0.502
502.000	322.715	79.990	19.997	103.392	19.938	10.608	0.512
504.000	323.710	79.991	19.996	103.397	19.932	11.075	0.496
506.000	324.719	79.990	19.996	103.407	19.924	11.659	0.516
508.000	325.729	79.990	19.997	103.393	19.924	11.654	0.508
510.000	326.721	79.992	19.996	103.386	19.923	11.745	0.518
512.000	327.718	79.991	19.997	103.393	19.912	12.629	0.475
514.000	328.723	79.991	19.997	103.389	19.903	13.347	0.504
516.000	329.746	79.991	19.997	103.385	19.901	13.476	0.510
518.000	330.730	79.991	19.997	103.390	19.889	14.441	0.501
520.000	331.699	79.991	19.996	103.389	19.882	14.981	0.490
522.000	332.748	79.991	19.996	103.388	19.878	15.289	0.513
524.000	333.749	79.989	19.996	103.390	19.868	16.043	0.500
526.000	334.763	79.990	19.997	103.388	19.859	16.758	0.511
528.000	335.698	79.990	19.997	103.386	19.845	17.865	0.460
530.000	336.777	79.991	19.997	103.389	19.839	18.397	0.515
532.000	337.740	79.991	19.997	103.381	19.826	19.404	0.469
534.000	338.777	79.994	19.997	103.384	19.815	20.230	0.495
536.000	339.774	79.992	19.996	103.389	19.799	21.538	0.505
538.000	340.815	79.992	19.996	103.389	19.783	22.765	0.515
540.000	341.782	79.992	19.996	103.386	19.764	24.300	0.514
542.000	342.758	79.991	19.996	103.389	19.747	25.572	0.485
544.000	343.799	79.991	19.995	103.389	19.728	27.087	0.506
546.000	344.746	79.989	19.996	103.393	19.712	28.344	0.493
548.000	345.749	79.990	19.996	103.388	19.690	30.071	0.494
550.000	346.741	79.988	19.995	103.384	19.671	31.555	0.489
552.000	347.731	79.989	19.996	103.385	19.647	33.488	0.498
554.000	348.731	79.988	19.997	103.385	19.623	35.382	0.513
556.000	349.744	79.989	19.998	103.384	19.598	37.290	0.517
558.000	350.693	79.989	19.997	103.391	19.572	39.365	0.498
560.000	351.753	79.989	19.997	103.385	19.547	41.353	0.521
562.000	352.717	79.988	19.997	103.379	19.520	43.475	0.487
564.000	353.753	79.990	19.997	103.382	19.485	46.160	0.514
566.000	354.751	79.991	19.997	103.380	19.458	48.347	0.501
568.000	355.737	79.989	19.997	103.386	19.425	50.890	0.520
570.000	356.764	79.991	19.997	103.377	19.391	53.628	0.508
572.000	357.724	79.991	19.998	103.375	19.354	56.495	0.494
574.000	358.733	79.990	19.997	103.353	19.321	59.130	0.498
576.000	359.772	79.990	19.997	103.364	19.283	62.095	0.495
578.000	360.768	79.988	19.998	103.357	19.251	64.575	0.508
580.000	361.769	79.988	19.997	103.351	19.212	67.692	0.518
582.000	362.735	79.986	19.997	103.353	19.173	70.706	0.472
584.000	363.758	79.988	19.998	103.396	19.140	73.294	0.501
586.000	364.750	79.989	19.998	103.332	19.095	76.812	0.491
588.000	365.804	79.989	19.998	103.325	19.059	79.679	0.498
590.000	366.765	79.990	19.998	103.342	19.021	82.694	0.466
592.000	367.785	79.991	19.998	103.325	18.986	85.441	0.496
594.000	368.809	79.991	19.996	103.329	18.953	88.005	0.500
596.000	369.805	79.993	19.996	103.325	18.920	90.566	0.493
598.000	370.829	79.993	19.996	103.316	18.891	92.897	0.489
600.000	371.820	79.993	19.997	103.312	18.863	95.082	0.503
602.000	372.818	79.990	19.996	103.310	18.834	97.328	0.541
604.000	373.874	79.990	19.996	103.317	18.814	98.953	0.508
606.000	374.862	79.990	19.996	103.317	18.796	100.338	0.499
608.000	375.870	79.991	19.996	103.314	18.780	101.616	0.515
610.000	376.886	79.991	19.997	103.311	18.768	102.527	0.530
612.000	377.862	79.990	19.997	103.303	18.764	102.868	0.496
614.000	378.847	79.992	19.996	103.304	18.761	103.054	0.498
616.000	379.888	79.993	19.996	103.294	18.762	102.947	0.512
618.000	380.913	79.992	19.996	103.302	18.772	102.169	0.514
620.000	381.910	79.991	19.995	103.300	18.783	101.332	0.534
622.000	382.890	79.991	19.996	103.285	18.792	100.658	0.493
624.000	383.906	79.992	19.996	103.281	18.814	98.872	0.500
626.000	384.919	79.989	19.996	103.278	18.836	97.209	0.516
628.001	385.897	79.990	19.996	103.281	18.859	95.391	0.519
630.000	386.925	79.990	19.997	103.285	18.892	92.789	0.521
632.000	387.951	79.992	19.996	103.281	18.922	90.407	0.510
634.000	388.940	79.990	19.996	103.282	18.954	87.879	0.500
636.000	389.932	79.990	19.996	103.282	18.990	85.062	0.509
638.000	390.923	79.991	19.997	103.289	19.021	82.650	0.490
640.000	391.951	79.990	19.996	103.291	19.062	79.449	0.503
642.000	392.934	79.989	19.997	103.289	19.101	76.404	0.505
644.000	393.958	79.991	19.997	103.289	19.133	73.846	0.517
646.001	395.002	79.990	19.997	103.307	19.169	71.030	0.516
648.001	396.049	79.990	19.996	103.311	19.198	68.774	0.506
650.000	397.017	79.990	19.998	103.310	19.233	65.991	0.507
652.000	398.029	79.988	19.997	103.311	19.264	63.601	0.523
654.000	399.067	79.990	19.997	103.311	19.294	61.205	0.515
656.000	400.089	79.990	19.998	103.311	19.324	58.868	0.518
658.000	401.084	79.989	19.998	103.313	19.347	57.076	0.503
660.000	402.062	79.990	19.997	103.326	19.375	54.860	0.503
662.000	403.055	79.990	19.997	103.325	19.394	53.370	0.498
664.000	404.054	79.989	19.997	103.332	19.419	51.379	0.508
666.000	405.049	79.991	19.998	103.331	19.436	50.017	0.483
668.000	406.061	79.991	19.997	103.342	19.457	48.362	0.477
670.000	407.097	79.991	19.998	103.349	19.472	47.230	0.534
672.000	408.063	79.991	19.998	103.347	19.485	46.174	0.469
674.000	409.082	79.991	19.998	103.351	19.502	44.842	0.494
676.000	410.078	79.991	19.998	103.352	19.514	43.916	0.520
678.000	411.114	79.990	19.998	103.352	19.524	43.109	0.530
680.000	412.109	79.991	19.997	103.352	19.536	42.215	0.528
682.000	413.062	79.990	19.997	103.355	19.546	41.422	0.458
684.000	414.035	79.990	19.998	103.352	19.556	40.603	0.475
686.000	415.037	79.990	19.996	103.353	19.564	39.950	0.500
688.000	416.023	79.990	19.997	103.357	19.571	39.471	0.507
690.000	416.999	79.990	19.996	103.359	19.578	38.854	0.499
692.000	418.023	79.991	19.995	103.359	19.583	38.464	0.496
694.000	419.026	79.992	19.995	103.360	19.590	37.961	0.476
696.000	420.044	79.992	19.997	103.355	19.595	37.536	0.499
698.000	421.044	79.992	19.996	103.359	19.600	37.165	0.486
700.000	422.064	79.993	19.995	103.352	19.603	36.934	0.515
702.000	423.063	79.992	19.996	103.364	19.613	36.109	0.509
704.000	424.053	79.993	19.996	103.360	19.619	35.622	0.507
706.000	425.060	79.991	19.996	103.350	19.624	35.240	0.478
708.000	426.039	79.989	19.996	103.357	19.633	34.552	0.485
710.000	427.058	79.990	19.997	103.360	19.635	34.437	0.513
712.000	428.072	79.990	19.997	103.360	19.641	33.919	0.527
714.000	429.074	79.990	19.996	103.361	19.647	33.466	0.472
716.000	430.098	79.990	19.997	103.354	19.654	32.880	0.520
718.000	431.102	79.990	19.995	103.351	19.666	31.941	0.524
720.000	432.152	79.991	19.997	103.352	19.671	31.533	0.536
722.000	433.173	79.991	19.997	103.354	19.682	30.710	0.508
724.000	434.209	79.988	19.997	103.355	19.693	29.831	0.509
726.000	435.216	79.991	19.996	103.353	19.699	29.387	0.519
728.000	436.198	79.991	19.996	103.352	19.708	28.693	0.515
730.000	437.233	79.990	19.997	103.358	19.713	28.237	0.509
732.000	438.264	79.989	19.996	103.339	19.726	27.230	0.558
734.000	439.261	79.990	19.997	103.346	19.734	26.633	0.506
736.000	440.318	79.990	19.997	103.355	19.745	25.752	0.519
738.000	441.355	79.989	19.997	103.355	19.753	25.156	0.509
740.000	442.346	79.989	19.997	103.355	19.760	24.574	0.509
742.000	443.369	79.988	19.997	103.347	19.771	23.712	0.514
744.000	444.356	79.990	19.998	103.354	19.780	23.019	0.488
746.000	445.388	79.989	19.996	103.347	19.787	22.408	0.511
748.000	446.374	79.991	19.996	103.350	19.798	21.598	0.494
750.000	447.384	79.991	19.997	103.353	19.808	20.783	0.508
752.000	448.416	79.991	19.997	103.353	19.819	19.957	0.508
754.000	449.433	79.991	19.996	103.355	19.829	19.164	0.498
756.000	450.453	79.992	19.997	103.339	19.836	18.575	0.543
758.000	451.456	79.991	19.997	103.352	19.845	17.885	0.513
760.000	452.484	79.991	19.996	103.349	19.852	17.330	0.508
762.000	453.517	79.991	19.998	103.339	19.861	16.628	0.523
764.000	454.552	79.990	19.998	103.350	19.871	15.817	0.505
766.000	455.605	79.990	19.997	103.349	19.878	15.273	0.547
768.000	456.622	79.990	19.999	103.334	19.886	14.622	0.527
770.000	457.617	79.991	19.998	103.345	19.897	13.758	0.517
772.000	458.583	79.991	19.998	103.345	19.903	13.352	0.483
774.000	459.624	79.990	19.998	103.331	19.914	12.490	0.502
776.000	460.674	79.994	19.997	103.348	19.924	11.671	0.496
778.000	461.656	79.993	19.997	103.341	19.929	11.260	0.489
780.000	462.685	79.992	19.997	103.343	19.938	10.587	0.521
782.000	463.697	79.992	19.996	103.346	19.949	9.732	0.511
784.000	464.684	79.992	19.996	103.344	19.957	9.076	0.504
786.000	465.700	79.991	19.995	103.341	19.963	8.600	0.504
788.000	466.722	79.989	19.997	103.336	19.971	7.959	0.495
790.000	467.750	79.991	19.997	103.331	19.977	7.477	0.504
792.000	468.768	79.990	19.997	103.331	19.983	6.995	0.495
794.000	469.791	79.990	19.997	103.344	19.992	6.286	0.500
796.000	470.829	79.990	19.996	103.337	19.998	5.848	0.502
798.000	471.827	79.989	19.997	103.345	20.003	5.437	0.520
800.000	472.859	79.990	19.996	103.349	20.012	4.728	0.528
802.000	473.852	79.989	19.997	103.347	20.014	4.561	0.499
804.000	474.906	79.989	19.996	103.339	20.020	4.151	0.517
806.000	475.897	79.990	19.997	103.344	20.020	4.086	0.489
808.000	476.932	79.990	19.997	103.349	20.027	3.602	0.515
810.000	477.958	79.991	19.996	103.341	20.024	3.792	0.494
812.000	478.986	79.989	19.996	103.335	20.029	3.386	0.513
814.000	480.001	79.989	19.996	103.345	20.031	3.291	0.498
816.000	480.993	79.989	19.996	103.338	20.035	2.917	0.507
818.000	481.998	79.989	19.995	103.334	20.036	2.876	0.504
820.000	483.024	79.989	19.997	103.343	20.039	2.612	0.504
822.000	484.016	79.989	19.996	103.342	20.042	2.392	0.485
824.000	485.037	79.989	19.996	103.348	20.044	2.256	0.523
826.000	486.029	79.990	19.996	103.344	20.043	2.316	0.532
828.000	487.042	79.991	19.998	103.350	20.049	1.802	0.506
830.000	488.070	79.992	19.997	103.330	20.047	1.988	0.498
832.000	489.110	79.991	19.997	103.323	20.051	1.655	0.528
834.000	490.151	79.992	19.998	103.331	20.048	1.899	0.524
836.001	491.172	79.990	19.996	103.337	20.051	1.677	0.519
838.000	492.169	79.993	19.997	103.319	20.051	1.677	0.512
840.000	493.174	79.991	19.996	103.339	20.050	1.756	0.499
842.000	494.234	79.991	19.997	103.334	20.053	1.553	0.548
844.001	495.270	79.991	19.996	103.325	20.054	1.424	0.534
846.000	496.283	79.990	19.997	103.339	20.057	1.195	0.521
848.000	497.289	79.990	19.996	103.330	20.057	1.232	0.511
850.000	498.317	79.990	19.997	103.327	20.060	1.011	0.515
852.000	499.332	79.989	19.997	103.315	20.058	1.169	0.506
854.000	500.324	79.991	19.998	103.319	20.058	1.158	0.488
856.000	501.339	79.992	19.996	103.328	20.058	1.167	0.517
858.000	502.341	79.991	19.998	103.340	20.059	1.076	0.502
860.000	503.356	79.992	19.998	103.325	20.057	1.212	0.488
862.000	504.374	79.991	19.998	103.335	20.059	1.054	0.509
864.000	505.376	79.992	19.997	103.326	20.060	0.966	0.548
866.000	506.409	79.990	19.997	103.334	20.060	0.998	0.512
868.000	507.392	79.990	19.998	103.317	20.059	1.013	0.505
870.000	508.410	79.990	19.997	103.342	20.061	0.927	0.503
872.000	509.440	79.989	19.996	103.334	20.061	0.888	0.501
874.000	510.441	79.990	19.996	103.332	20.058	1.109	0.516
876.000	511.445	79.991	19.997	103.329	20.057	1.175	0.475
878.000	512.482	79.989	19.996	103.328	20.057	1.244	0.512
880.000	513.476	79.990	19.997	103.334	20.055	1.353	0.491
882.000	514.503	79.991	19.996	103.328	20.056	1.290	0.526
884.001	515.613	79.990	19.997	103.345	20.055	1.374	0.535
886.000	516.605	79.988	19.996	103.353	20.057	1.247	0.508
888.000	517.621	79.991	19.996	103.326	20.053	1.489	0.530
890.000	518.654	79.990	19.997	103.339	20.051	1.705	0.501
892.000	519.647	79.991	19.996	103.324	20.053	1.558	0.485
894.000	520.716	79.989	19.997	103.330	20.052	1.610	0.525
896.000	521.737	79.990	19.995	103.336	20.051	1.683	0.498
898.000	522.713	79.991	19.997	103.328	20.046	2.057	0.483
900.000	523.779	79.991	19.997	103.320	20.049	1.871	0.518
902.000	524.810	79.990	19.997	103.328	20.049	1.856	0.491
904.000	525.882	79.990	19.997	103.333	20.049	1.839	0.521
906.000	526.881	79.991	19.996	103.339	20.046	2.074	0.480
908.000	527.917	79.990	19.995	103.325	20.045	2.189	0.525
910.000	528.970	79.990	19.997	103.333	20.044	2.193	0.496
912.000	529.982	79.991	19.997	103.342	20.043	2.306	0.516
914.001	531.070	79.991	19.996	103.343	20.045	2.148	0.542
916.000	532.072	79.991	19.996	103.329	20.044	2.238	0.494
918.000	533.117	79.990	19.996	103.330	20.043	2.348	0.524
920.001	534.151	79.989	19.997	103.340	20.041	2.470	0.526
922.000	535.226	79.989	19.997	103.329	20.039	2.640	0.539
924.000	536.250	79.989	19.996	103.345	20.038	2.703	0.533
926.000	537.245	79.991	19.997	103.326	20.037	2.753	0.502
928.000	538.297	79.991	19.997	103.328	20.035	2.964	0.522
930.000	539.343	79.990	19.997	103.332	20.038	2.716	0.527
932.000	540.379	79.989	19.996	103.340	20.036	2.863	0.521
934.000	541.377	79.991	19.996	103.335	20.034	3.030	0.526
936.000	542.395	79.990	19.997	103.325	20.035	2.934	0.508
938.000	543.353	79.991	19.996	103.338	20.028	3.485	0.479
940.000	544.392	79.992	19.996	103.320	20.025	3.725	0.522
942.000	545.409	79.992	19.996	103.324	20.028	3.466	0.521
944.000	546.371	79.992	19.996	103.338	20.022	3.948	0.517
946.000	547.383	79.990	19.996	103.342	20.022	3.946	0.500
948.000	548.378	79.991	19.997	103.337	20.021	4.006	0.483
950.000	549.390	79.988	19.997	103.337	20.019	4.211	0.508
952.000	550.391	79.989	19.997	103.350	20.014	4.585	0.503
954.000	551.338	79.990	19.998	103.334	20.013	4.698	0.483
956.000	552.359	79.990	19.998	103.341	20.012	4.758	0.499
958.000	553.332	79.991	19.997	103.336	20.010	4.879	0.467
960.000	554.313	79.988	19.997	103.336	20.008	5.048	0.498
962.000	555.312	79.990	19.997	103.345	20.007	5.130	0.487
964.000	556.309	79.991	19.997	103.348	20.007	5.135	0.484
966.000	557.296	79.989	19.996	103.348	20.002	5.569	0.501
968.000	558.290	79.990	19.997	103.347	20.000	5.722	0.504
970.000	559.276	79.990	19.996	103.350	19.992	6.325	0.489
972.001	560.277	79.992	19.996	103.341	19.992	6.295	0.517
974.000	561.258	79.991	19.996	103.350	19.993	6.226	0.487
976.000	562.309	79.990	19.997	103.356	19.989	6.569	0.511
978.000	563.297	79.989	19.998	103.349	19.988	6.658	0.475
980.000	564.297	79.989	19.997	103.350	19.987	6.740	0.493
982.000	565.318	79.990	19.997	103.352	19.983	7.041	0.527
984.000	566.336	79.990	19.997	103.350	19.980	7.257	0.493
986.000	567.335	79.989	19.997	103.352	19.979	7.367	0.501
988.000	568.361	79.991	19.997	103.351	19.973	7.793	0.517
990.000	569.390	79.990	19.996	103.353	19.978	7.456	0.530
992.000	570.375	79.991	19.998	103.353	19.973	7.784	0.497
994.000	571.411	79.992	19.996	103.353	19.977	7.501	0.528
996.000	572.449	79.991	19.996	103.352	19.978	7.454	0.513
998.000	573.514	79.992	19.995	103.352	19.974	7.715	0.523
1000.000	574.567	79.991	19.996	103.352	19.975	7.678	0.547
1002.000	575.650	79.991	19.996	103.351	19.974	7.724	0.550
1004.000	576.665	79.992	19.996	103.351	19.980	7.272	0.490
1006.000	577.736	79.990	19.996	103.353	19.977	7.518	0.546
1008.000	578.827	79.991	19.996	103.355	19.977	7.486	0.547
1010.000	579.792	79.989	19.996	103.354	19.982	7.146	0.495
1012.000	580.895	79.990	19.996	103.355	19.983	7.064	0.550
1014.000	581.920	79.990	19.997	103.357	19.987	6.736	0.531
1016.000	582.994	79.991	19.997	103.353	19.988	6.647	0.521
1018.000	584.044	79.991	19.997	103.352	19.990	6.504	0.531
1020.000	585.121	79.992	19.997	103.350	19.994	6.128	0.544
1022.000	586.151	79.993	19.996	103.348	19.996	5.988	0.513
1024.000	587.247	79.992	19.996	103.346	20.002	5.560	0.555
1026.000	588.258	79.992	19.995	103.348	20.004	5.357	0.498
1028.000	589.358	79.989	19.996	103.347	20.010	4.941	0.569
1030.000	590.432	79.990	19.997	103.332	20.014	4.572	0.528
1032.000	591.473	79.988	19.997	103.338	20.016	4.451	0.526
1034.000	592.487	79.989	19.998	103.348	20.025	3.712	0.529
1036.000	593.596	79.990	19.999	103.346	20.031	3.232	0.528
1038.001	594.633	79.989	19.997	103.332	20.038	2.703	0.540
1040.001	595.658	79.990	19.998	103.325	20.041	2.463	0.527
1042.000	596.718	79.989	19.998	103.346	20.046	2.065	0.541
1044.000	597.739	79.991	19.998	103.338	20.056	1.307	0.533
1046.000	598.771	79.989	19.998	103.320	20.058	1.149	0.491
1048.000	599.799	79.989	19.998	103.331	20.059	1.037	0.514
1050.000	600.847	79.990	19.997	103.335	20.063	0.745	0.515
1052.000	601.885	79.989	19.998	103.323	20.065	0.605	0.519
1054.001	602.883	79.990	19.996	103.321	20.068	0.382	0.506
1056.001	603.929	79.992	19.997	103.322	20.070	0.171	0.518
1058.000	604.971	79.989	19.996	103.331	20.074	-0.140	0.506
1060.000	605.974	79.989	19.996	103.331	20.073	-0.039	0.502
1062.000	606.988	79.989	19.997	103.329	20.075	-0.190	0.538
1064.000	608.031	79.990	19.997	103.327	20.078	-0.445	0.532
1066.000	609.033	79.990	19.996	103.345	20.076	-0.259	0.551
1068.000	610.075	79.988	19.995	103.351	20.078	-0.430	0.510
1070.000	611.088	79.989	19.997	103.341	20.078	-0.424	0.529
1072.000	612.092	79.989	19.997	103.337	20.080	-0.566	0.496
1074.000	613.137	79.991	19.997	103.350	20.081	-0.642	0.487
1076.000	614.159	79.991	19.996	103.348	20.075	-0.233	0.513
1078.000	615.185	79.991	19.995	103.343	20.077	-0.398	0.527
1080.001	616.227	79.992	19.995	103.349	20.075	-0.194	0.512
1082.000	617.238	79.991	19.995	103.353	20.077	-0.391	0.485
1084.000	618.285	79.994	19.996	103.348	20.075	-0.220	0.514
1086.001	619.294	79.992	19.997	103.344	20.077	-0.385	0.535
1088.000	620.273	79.993	19.997	103.347	20.074	-0.127	0.477
1090.000	621.317	79.992	19.996	103.347	20.076	-0.283	0.534
1092.000	622.292	79.991	19.998	103.345	20.076	-0.253	0.507
1094.000	623.278	79.991	19.997	103.351	20.075	-0.240	0.499
1096.000	624.333	79.992	19.996	103.352	20.070	0.175	0.535
1098.000	625.336	79.993	19.996	103.351	20.074	-0.119	0.486
1100.000	626.310	79.994	19.996	103.347	20.075	-0.244	0.496
1102.000	627.366	79.992	19.996	103.350	20.078	-0.408	0.518
1104.000	628.319	79.994	19.997	103.351	20.076	-0.272	0.494
1106.001	629.350	79.994	19.997	103.350	20.075	-0.236	0.492
1108.000	630.348	79.993	19.997	103.348	20.072	0.060	0.527
1110.000	631.338	79.991	19.997	103.349	20.073	-0.050	0.505
1112.000	632.352	79.990	19.997	103.355	20.073	-0.028	0.511
1114.000	633.340	79.990	19.997	103.356	20.071	0.095	0.459
1116.000	634.383	79.989	19.997	103.365	20.070	0.164	0.529
1118.000	635.411	79.991	19.997	103.329	20.070	0.216	0.478
1120.000	636.438	79.991	19.996	103.362	20.072	0.024	0.538
1122.000	637.449	79.991	19.996	103.406	20.073	-0.052	0.533
1124.000	638.474	79.990	19.996	103.359	20.074	-0.121	0.554
1126.000	639.445	79.990	19.997	103.374	20.073	-0.028	0.524
1128.000	640.430	79.990	19.998	103.376	20.071	0.125	0.472
1130.001	641.463	79.990	19.997	103.365	20.068	0.359	0.522
1132.000	642.472	79.989	19.997	103.376	20.066	0.523	0.496
1134.000	643.540	79.991	19.998	103.382	20.067	0.385	0.527
1136.000	644.493	79.989	19.997	103.378	20.066	0.469	0.516
1138.000	645.462	79.989	19.998	103.386	20.065	0.547	0.493
1140.001	646.461	79.989	19.998	103.381	20.066	0.475	0.495
1142.001	647.456	79.989	19.997	103.392	20.068	0.342	0.503
1144.000	648.472	79.988	19.997	103.388	20.067	0.458	0.457
1146.001	649.436	79.989	19.996	103.388	20.066	0.467	0.464
1148.000	650.450	79.991	19.996	103.392	20.067	0.411	0.499
1150.001	651.424	79.990	19.997	103.379	20.067	0.393	0.464
1152.000	652.435	79.990	19.996	103.380	20.065	0.562	0.479
1154.000	653.448	79.990	19.997	103.392	20.066	0.532	0.508
1156.001	654.496	79.992	19.996	103.396	20.064	0.657	0.530
1158.000	655.477	79.992	19.996	103.393	20.069	0.249	0.473
1160.001	656.464	79.992	19.996	103.396	20.068	0.346	0.517
1162.000	657.453	79.992	19.996	103.397	20.066	0.478	0.480
1164.000	658.437	79.992	19.997	103.392	20.066	0.534	0.505
1166.001	659.459	79.991	19.996	103.392	20.067	0.430	0.475
1168.000	660.454	79.990	19.997	103.392	20.063	0.761	0.487
1170.000	661.408	79.990	19.997	103.397	20.062	0.848	0.487
1172.000	662.489	79.992	19.997	103.394	20.064	0.683	0.506
1174.000	663.467	79.992	19.996	103.402	20.062	0.817	0.516
1176.000	664.462	79.993	19.995	103.411	20.062	0.787	0.500
1178.000	665.448	79.992	19.995	103.415	20.065	0.590	0.537
1180.001	666.467	79.993	19.996	103.429	20.061	0.865	0.465
1182.001	667.482	79.994	19.996	103.431	20.064	0.664	0.517
1184.001	668.443	79.992	19.995	103.430	20.059	1.068	0.473
1186.000	669.497	79.994	19.996	103.432	20.061	0.917	0.519
1188.000	670.468	79.992	19.995	103.432	20.058	1.125	0.494
1190.000	671.469	79.991	19.996	103.432	20.058	1.136	0.520
1192.000	672.491	79.990	19.996	103.432	20.058	1.144	0.493
1194.001	673.490	79.989	19.995	103.437	20.060	1.008	0.489
1196.000	674.513	79.990	19.997	103.432	20.058	1.144	0.511
1198.000	675.550	79.990	19.997	103.430	20.058	1.161	0.488
1200.001	676.584	79.990	19.996	103.437	20.058	1.146	0.510
1202.002	677.562	79.989	19.997	103.442	20.055	1.402	0.506
1204.000	678.583	79.990	19.996	103.433	20.056	1.311	0.525
1206.000	679.624	79.990	19.996	103.440	20.056	1.300	0.518
1208.000	680.642	79.990	19.996	103.440	20.058	1.107	0.513
1210.000	681.654	79.990	19.996	103.441	20.059	1.086	0.500
1212.000	682.641	79.992	19.996	103.439	20.057	1.231	0.513
1214.000	683.694	79.990	19.996	103.432	20.056	1.309	0.561
1216.000	684.707	79.990	19.997	103.431	20.056	1.276	0.528
1218.000	685.725	79.990	19.997	103.439	20.051	1.713	0.515
1220.001	686.778	79.990	19.997	103.454	20.051	1.709	0.532
1222.000	687.818	79.987	19.998	103.442	20.049	1.856	0.520
1224.001	688.811	79.989	19.998	103.440	20.050	1.786	0.480
1226.000	689.842	79.988	19.997	103.451	20.048	1.933	0.518
1228.000	690.853	79.990	19.998	103.452	20.050	1.772	0.479
1230.000	691.891	79.990	19.997	103.456	20.052	1.638	0.501
1232.000	692.852	79.991	19.996	103.480	20.049	1.811	0.460
1234.000	693.829	79.990	19.997	103.409	20.045	2.135	0.479
1236.000	694.925	79.992	19.997	103.461	20.046	2.081	0.479
1238.000	695.917	79.993	19.996	103.488	20.045	2.121	0.534
1240.001	696.937	79.992	19.996	103.463	20.044	2.251	0.497
1242.000	697.979	79.991	19.997	103.473	20.046	2.117	0.532
1244.000	699.003	79.991	19.997	103.476	20.041	2.433	0.498
1246.000	700.000	79.991	19.996	103.475	20.046	2.086	0.521
1248.000	701.008	79.991	19.996	103.480	20.042	2.396	0.515
1250.000	702.043	79.992	19.997	103.491	20.046	2.089	0.507
1252.000	703.080	79.991	19.996	103.509	20.042	2.361	0.538
1254.000	704.074	79.992	19.996	103.512	20.044	2.225	0.506
1256.000	705.074	79.992	19.996	103.506	20.043	2.333	0.522
1258.000	706.101	79.995	19.996	103.508	20.041	2.502	0.520
1260.000	707.096	79.993	19.996	103.514	20.044	2.202	0.514
1262.000	708.130	79.992	19.996	103.510	20.040	2.531	0.471
1264.000	709.163	79.994	19.996	103.513	20.043	2.317	0.505
1266.001	710.185	79.995	19.995	103.514	20.038	2.702	0.488
1268.001	711.226	79.992	19.996	103.525	20.036	2.828	0.514
1270.001	712.265	79.992	19.995	103.529	20.037	2.773	0.511
1272.000	713.277	79.991	19.996	103.545	20.036	2.892	0.528
1274.001	714.314	79.992	19.996	103.546	20.036	2.899	0.510
1276.000	715.326	79.991	19.996	103.549	20.036	2.865	0.525
1278.001	716.359	79.991	19.996	103.548	20.037	2.752	0.509
1280.001	717.422	79.991	19.996	103.547	20.034	3.053	0.515
1282.000	718.434	79.991	19.997	103.542	20.033	3.117	0.526
1284.000	719.462	79.991	19.997	103.540	20.031	3.238	0.507
1286.000	720.453	79.991	19.996	103.547	20.029	3.407	0.501
1288.000	721.465	79.993	19.997	103.551	20.029	3.417	0.506
1290.000	722.482	79.991	19.996	103.562	20.030	3.313	0.511
1292.000	723.515	79.992	19.997	103.513	20.031	3.278	0.531
1294.000	724.499	79.991	19.997	103.548	20.029	3.447	0.497
1296.000	725.534	79.992	19.997	103.594	20.030	3.374	0.504
1298.000	726.500	79.991	19.997	103.549	20.028	3.525	0.481
1300.000	727.505	79.990	19.997	103.545	20.031	3.289	0.509
1302.000	728.496	79.991	19.997	103.546	20.029	3.432	0.499
1304.000	729.507	79.990	19.996	103.545	20.027	3.587	0.496
1306.000	730.493	79.990	19.997	103.554	20.026	3.632	0.475
1308.000	731.523	79.990	19.997	103.556	20.029	3.396	0.517
1310.000	732.541	79.990	19.997	103.546	20.026	3.641	0.549
1312.000	733.517	79.990	19.998	103.544	20.030	3.334	0.513
1314.000	734.518	79.991	19.998	103.540	20.032	3.144	0.531
1316.001	735.525	79.991	19.997	103.522	20.028	3.490	0.540
1318.000	736.491	79.991	19.998	103.518	20.034	2.998	0.504
1320.001	737.497	79.991	19.996	103.512	20.033	3.076	0.492
1322.000	738.518	79.991	19.998	103.507	20.035	2.917	0.530
1324.000	739.537	79.991	19.997	103.487	20.037	2.785	0.492
1326.001	740.558	79.991	19.997	103.477	20.039	2.588	0.538
1328.000	741.570	79.991	19.997	103.469	20.042	2.427	0.519
1330.000	742.596	79.991	19.997	103.459	20.042	2.390	0.519
1331.500	743.399	79.991	19.996	103.446	20.045	2.133	0.541