File: 01_Data/Masonite_Board/FTIR/IS/Masonite_Board_IS_T_220818_R1.dpt
7497.03,0.02912
7491.25,0.02549
7485.46,0.02030
7479.67,0.03297
7473.89,0.02449
7468.1,0.02645
7462.32,0.01796
7456.53,0.01805
7450.74,0.02851
7444.96,0.03305
7439.17,0.02390
7433.38,0.02382
7427.6,0.01958
7421.81,0.01319
7416.03,0.01996
7410.24,0.02160
7404.45,0.01296
7398.67,0.01931
7392.88,0.01682
7387.09,0.01650
7381.31,0.02590
7375.52,0.02631
7369.74,0.02177
7363.95,0.01936
7358.16,0.02098
7352.38,0.02230
7346.59,0.02337
7340.8,0.02649
7335.02,0.02909
7329.23,0.03065
7323.45,0.02210
7317.66,0.01463
7311.87,0.01913
7306.09,0.02199
7300.3,0.02865
7294.51,0.02309
7288.73,0.01846
7282.94,0.01670
7277.16,0.01645
7271.37,0.01737
7265.58,0.02378
7259.8,0.02264
7254.01,0.02269
7248.22,0.02340
7242.44,0.02094
7236.65,0.01498
7230.87,0.02012
7225.08,0.02546
7219.29,0.01837
7213.51,0.01924
7207.72,0.02306
7201.93,0.01358
7196.15,0.01872
7190.36,0.01574
7184.58,0.02621
7178.79,0.02338
7173,0.02309
7167.22,0.01896
7161.43,0.02052
7155.65,0.01723
7149.86,0.02735
7144.07,0.02123
7138.29,0.01717
7132.5,0.01710
7126.71,0.02059
7120.93,0.01977
7115.14,0.02083
7109.36,0.01913
7103.57,0.02153
7097.78,0.02401
7092,0.02962
7086.21,0.01785
7080.42,0.01463
7074.64,0.01977
7068.85,0.02380
7063.07,0.02424
7057.28,0.01997
7051.49,0.01997
7045.71,0.02205
7039.92,0.02181
7034.13,0.02228
7028.35,0.01451
7022.56,0.01772
7016.78,0.01848
7010.99,0.02646
7005.2,0.02094
6999.42,0.02031
6993.63,0.02453
6987.84,0.02063
6982.06,0.02041
6976.27,0.01806
6970.49,0.01838
6964.7,0.02197
6958.91,0.02413
6953.13,0.02043
6947.34,0.02036
6941.55,0.02268
6935.77,0.02102
6929.98,0.02059
6924.2,0.02320
6918.41,0.02112
6912.62,0.02058
6906.84,0.01520
6901.05,0.01981
6895.26,0.01565
6889.48,0.02034
6883.69,0.02055
6877.91,0.02728
6872.12,0.01797
6866.33,0.01992
6860.55,0.01925
6854.76,0.02128
6848.97,0.02311
6843.19,0.02276
6837.4,0.02025
6831.62,0.02148
6825.83,0.01916
6820.04,0.02136
6814.26,0.01953
6808.47,0.01763
6802.68,0.01836
6796.9,0.01928
6791.11,0.01824
6785.33,0.01887
6779.54,0.02158
6773.75,0.02056
6767.97,0.01669
6762.18,0.02205
6756.39,0.02050
6750.61,0.02026
6744.82,0.01989
6739.04,0.02111
6733.25,0.01752
6727.46,0.01922
6721.68,0.01814
6715.89,0.02166
6710.1,0.01810
6704.32,0.02042
6698.53,0.01795
6692.75,0.02151
6686.96,0.02065
6681.17,0.01549
6675.39,0.02152
6669.6,0.02429
6663.82,0.02211
6658.03,0.01693
6652.24,0.01756
6646.46,0.02173
6640.67,0.01906
6634.88,0.02328
6629.1,0.02084
6623.31,0.01990
6617.53,0.02218
6611.74,0.02241
6605.95,0.01904
6600.17,0.01706
6594.38,0.02111
6588.59,0.02263
6582.81,0.01949
6577.02,0.02397
6571.24,0.01749
6565.45,0.01886
6559.66,0.01748
6553.88,0.02143
6548.09,0.01662
6542.3,0.02007
6536.52,0.02169
6530.73,0.02389
6524.95,0.02163
6519.16,0.01539
6513.37,0.02135
6507.59,0.01738
6501.8,0.02213
6496.01,0.01664
6490.23,0.01651
6484.44,0.02051
6478.66,0.01836
6472.87,0.01789
6467.08,0.02048
6461.3,0.01862
6455.51,0.02251
6449.72,0.01865
6443.94,0.01828
6438.15,0.02054
6432.37,0.02071
6426.58,0.01820
6420.79,0.02054
6415.01,0.01654
6409.22,0.01829
6403.43,0.01951
6397.65,0.01975
6391.86,0.02210
6386.08,0.01972
6380.29,0.01916
6374.5,0.01988
6368.72,0.01567
6362.93,0.01985
6357.14,0.02117
6351.36,0.01849
6345.57,0.02168
6339.79,0.02035
6334,0.01946
6328.21,0.02018
6322.43,0.02173
6316.64,0.01825
6310.85,0.01890
6305.07,0.02005
6299.28,0.02076
6293.5,0.01771
6287.71,0.01694
6281.92,0.02192
6276.14,0.01846
6270.35,0.02117
6264.56,0.02046
6258.78,0.02290
6252.99,0.02182
6247.21,0.01762
6241.42,0.01852
6235.63,0.01790
6229.85,0.01626
6224.06,0.02093
6218.27,0.02062
6212.49,0.02105
6206.7,0.01998
6200.92,0.02143
6195.13,0.01528
6189.34,0.01930
6183.56,0.01745
6177.77,0.01988
6171.98,0.01645
6166.2,0.01949
6160.41,0.01770
6154.63,0.01932
6148.84,0.01985
6143.05,0.02195
6137.27,0.01774
6131.48,0.01822
6125.7,0.01835
6119.91,0.01847
6114.12,0.01872
6108.34,0.02031
6102.55,0.01939
6096.76,0.01921
6090.98,0.02049
6085.19,0.01839
6079.41,0.01682
6073.62,0.01996
6067.83,0.01802
6062.05,0.01887
6056.26,0.01996
6050.47,0.01947
6044.69,0.01680
6038.9,0.02001
6033.12,0.01899
6027.33,0.01923
6021.54,0.01800
6015.76,0.01767
6009.97,0.01923
6004.18,0.01872
5998.4,0.02049
5992.61,0.01877
5986.83,0.02048
5981.04,0.01734
5975.25,0.01780
5969.47,0.01853
5963.68,0.01764
5957.89,0.01979
5952.11,0.01870
5946.32,0.01632
5940.54,0.02056
5934.75,0.02042
5928.96,0.01912
5923.18,0.01851
5917.39,0.01879
5911.6,0.01772
5905.82,0.02048
5900.03,0.01906
5894.25,0.01793
5888.46,0.02008
5882.67,0.01702
5876.89,0.01489
5871.1,0.01934
5865.31,0.01850
5859.53,0.01978
5853.74,0.02244
5847.96,0.01830
5842.17,0.01899
5836.38,0.01822
5830.6,0.01967
5824.81,0.01769
5819.02,0.01641
5813.24,0.01776
5807.45,0.01902
5801.67,0.01876
5795.88,0.02146
5790.09,0.02109
5784.31,0.01629
5778.52,0.01762
5772.73,0.01826
5766.95,0.02030
5761.16,0.01903
5755.38,0.01849
5749.59,0.01896
5743.8,0.01993
5738.02,0.01912
5732.23,0.01732
5726.44,0.01800
5720.66,0.01972
5714.87,0.01719
5709.09,0.01658
5703.3,0.01970
5697.51,0.01950
5691.73,0.01973
5685.94,0.01783
5680.15,0.01934
5674.37,0.01879
5668.58,0.01724
5662.8,0.01702
5657.01,0.01786
5651.22,0.01691
5645.44,0.01933
5639.65,0.01962
5633.87,0.01951
5628.08,0.01821
5622.29,0.02073
5616.51,0.02024
5610.72,0.01797
5604.93,0.01765
5599.15,0.01718
5593.36,0.01886
5587.58,0.01891
5581.79,0.01895
5576,0.01869
5570.22,0.01749
5564.43,0.01722
5558.64,0.02051
5552.86,0.01969
5547.07,0.02015
5541.29,0.02020
5535.5,0.01978
5529.71,0.01907
5523.93,0.01957
5518.14,0.02048
5512.35,0.01668
5506.57,0.01828
5500.78,0.01926
5495,0.01947
5489.21,0.01682
5483.42,0.01934
5477.64,0.01898
5471.85,0.01920
5466.06,0.01872
5460.28,0.01999
5454.49,0.01971
5448.71,0.01736
5442.92,0.01918
5437.13,0.01863
5431.35,0.01913
5425.56,0.01923
5419.77,0.02007
5413.99,0.01898
5408.2,0.02032
5402.42,0.01875
5396.63,0.01947
5390.84,0.01949
5385.06,0.01787
5379.27,0.01870
5373.48,0.01749
5367.7,0.01813
5361.91,0.01806
5356.13,0.01879
5350.34,0.01922
5344.55,0.01915
5338.77,0.01992
5332.98,0.01852
5327.19,0.01882
5321.41,0.01883
5315.62,0.01927
5309.84,0.01965
5304.05,0.01883
5298.26,0.01806
5292.48,0.01882
5286.69,0.01920
5280.9,0.01958
5275.12,0.01912
5269.33,0.01931
5263.55,0.01937
5257.76,0.01901
5251.97,0.01951
5246.19,0.01901
5240.4,0.01789
5234.61,0.01887
5228.83,0.02074
5223.04,0.01936
5217.26,0.01876
5211.47,0.01928
5205.68,0.01908
5199.9,0.01929
5194.11,0.01900
5188.32,0.01927
5182.54,0.02065
5176.75,0.01863
5170.97,0.01797
5165.18,0.02085
5159.39,0.02055
5153.61,0.02025
5147.82,0.02158
5142.03,0.01942
5136.25,0.01841
5130.46,0.01941
5124.68,0.01916
5118.89,0.01863
5113.1,0.01905
5107.32,0.01842
5101.53,0.01908
5095.75,0.01879
5089.96,0.01906
5084.17,0.01885
5078.39,0.01995
5072.6,0.02038
5066.81,0.01967
5061.03,0.02001
5055.24,0.01936
5049.46,0.01834
5043.67,0.01950
5037.88,0.01968
5032.1,0.01868
5026.31,0.01991
5020.52,0.02075
5014.74,0.01927
5008.95,0.01884
5003.17,0.01903
4997.38,0.01910
4991.59,0.01869
4985.81,0.01881
4980.02,0.01914
4974.23,0.01900
4968.45,0.01897
4962.66,0.01940
4956.88,0.01915
4951.09,0.01961
4945.3,0.01950
4939.52,0.01808
4933.73,0.01840
4927.94,0.01936
4922.16,0.01993
4916.37,0.02094
4910.59,0.01984
4904.8,0.02006
4899.01,0.01974
4893.23,0.01909
4887.44,0.01911
4881.65,0.02084
4875.87,0.01846
4870.08,0.01898
4864.3,0.01884
4858.51,0.01900
4852.72,0.01979
4846.94,0.01862
4841.15,0.01869
4835.36,0.01911
4829.58,0.02005
4823.79,0.01959
4818.01,0.02007
4812.22,0.01825
4806.43,0.01973
4800.65,0.01912
4794.86,0.01873
4789.07,0.02005
4783.29,0.01820
4777.5,0.01949
4771.72,0.02072
4765.93,0.01927
4760.14,0.01879
4754.36,0.01999
4748.57,0.01985
4742.78,0.01975
4737,0.02009
4731.21,0.01991
4725.43,0.01900
4719.64,0.01914
4713.85,0.01990
4708.07,0.01968
4702.28,0.02011
4696.49,0.01883
4690.71,0.02015
4684.92,0.01951
4679.14,0.01934
4673.35,0.02014
4667.56,0.01890
4661.78,0.01993
4655.99,0.01936
4650.2,0.01883
4644.42,0.01960
4638.63,0.01951
4632.85,0.01887
4627.06,0.01892
4621.27,0.01922
4615.49,0.01954
4609.7,0.01895
4603.92,0.01871
4598.13,0.01982
4592.34,0.01927
4586.56,0.02026
4580.77,0.01987
4574.98,0.01925
4569.2,0.01951
4563.41,0.02059
4557.63,0.01987
4551.84,0.01895
4546.05,0.01921
4540.27,0.02019
4534.48,0.01957
4528.69,0.01869
4522.91,0.01937
4517.12,0.01936
4511.34,0.01946
4505.55,0.01981
4499.76,0.01949
4493.98,0.01946
4488.19,0.01945
4482.4,0.01944
4476.62,0.01949
4470.83,0.01853
4465.05,0.01971
4459.26,0.01941
4453.47,0.01930
4447.69,0.01894
4441.9,0.01941
4436.11,0.01939
4430.33,0.01960
4424.54,0.01921
4418.76,0.01848
4412.97,0.01944
4407.18,0.01937
4401.4,0.02009
4395.61,0.02030
4389.82,0.01891
4384.04,0.01996
4378.25,0.01983
4372.47,0.01959
4366.68,0.01959
4360.89,0.01947
4355.11,0.01969
4349.32,0.01979
4343.53,0.02055
4337.75,0.01931
4331.96,0.01972
4326.18,0.02001
4320.39,0.01973
4314.6,0.01941
4308.82,0.01909
4303.03,0.01915
4297.24,0.01923
4291.46,0.01801
4285.67,0.01946
4279.89,0.01955
4274.1,0.01961
4268.31,0.01958
4262.53,0.01927
4256.74,0.01863
4250.95,0.01974
4245.17,0.01933
4239.38,0.01969
4233.6,0.01922
4227.81,0.01931
4222.02,0.01903
4216.24,0.01964
4210.45,0.01887
4204.66,0.01904
4198.88,0.01949
4193.09,0.01962
4187.31,0.01940
4181.52,0.01989
4175.73,0.01943
4169.95,0.01998
4164.16,0.01947
4158.37,0.01976
4152.59,0.01987
4146.8,0.01932
4141.02,0.01981
4135.23,0.01982
4129.44,0.01934
4123.66,0.01992
4117.87,0.01951
4112.09,0.01980
4106.3,0.01938
4100.51,0.01927
4094.73,0.01900
4088.94,0.01937
4083.15,0.02011
4077.37,0.01995
4071.58,0.01962
4065.8,0.01957
4060.01,0.01952
4054.22,0.01906
4048.44,0.01970
4042.65,0.02001
4036.86,0.01932
4031.08,0.01990
4025.29,0.01963
4019.51,0.01944
4013.72,0.01965
4007.93,0.01954
4002.15,0.01935
3996.36,0.01961
3990.57,0.01945
3984.79,0.01964
3979,0.01960
3973.22,0.01956
3967.43,0.01992
3961.64,0.02005
3955.86,0.01976
3950.07,0.01853
3944.28,0.01933
3938.5,0.01979
3932.71,0.01969
3926.93,0.01989
3921.14,0.01993
3915.35,0.01907
3909.57,0.01968
3903.78,0.01916
3897.99,0.01942
3892.21,0.01971
3886.42,0.01891
3880.64,0.01960
3874.85,0.01945
3869.06,0.01988
3863.28,0.01942
3857.49,0.01963
3851.7,0.01935
3845.92,0.01969
3840.13,0.02021
3834.35,0.01924
3828.56,0.01944
3822.77,0.01960
3816.99,0.01974
3811.2,0.01943
3805.41,0.01916
3799.63,0.01976
3793.84,0.01960
3788.06,0.01905
3782.27,0.01979
3776.48,0.01981
3770.7,0.01954
3764.91,0.01973
3759.12,0.01998
3753.34,0.01984
3747.55,0.01981
3741.77,0.01903
3735.98,0.01975
3730.19,0.01922
3724.41,0.01879
3718.62,0.01945
3712.83,0.01962
3707.05,0.01938
3701.26,0.01956
3695.48,0.01948
3689.69,0.01979
3683.9,0.01960
3678.12,0.01972
3672.33,0.01967
3666.54,0.01989
3660.76,0.01941
3654.97,0.01878
3649.19,0.01931
3643.4,0.01901
3637.61,0.01856
3631.83,0.01857
3626.04,0.01896
3620.25,0.01840
3614.47,0.01841
3608.68,0.01883
3602.9,0.01860
3597.11,0.01868
3591.32,0.01871
3585.54,0.01897
3579.75,0.01856
3573.97,0.01815
3568.18,0.01834
3562.39,0.01780
3556.61,0.01861
3550.82,0.01863
3545.03,0.01820
3539.25,0.01863
3533.46,0.01829
3527.68,0.01847
3521.89,0.01836
3516.1,0.01798
3510.32,0.01791
3504.53,0.01803
3498.74,0.01803
3492.96,0.01771
3487.17,0.01820
3481.39,0.01755
3475.6,0.01744
3469.81,0.01820
3464.03,0.01807
3458.24,0.01708
3452.45,0.01791
3446.67,0.01843
3440.88,0.01803
3435.1,0.01814
3429.31,0.01821
3423.52,0.01807
3417.74,0.01745
3411.95,0.01672
3406.16,0.01687
3400.38,0.01739
3394.59,0.01750
3388.81,0.01695
3383.02,0.01697
3377.23,0.01754
3371.45,0.01712
3365.66,0.01785
3359.87,0.01843
3354.09,0.01735
3348.3,0.01687
3342.52,0.01738
3336.73,0.01661
3330.94,0.01651
3325.16,0.01728
3319.37,0.01747
3313.58,0.01703
3307.8,0.01725
3302.01,0.01683
3296.23,0.01685
3290.44,0.01705
3284.65,0.01809
3278.87,0.01703
3273.08,0.01713
3267.29,0.01718
3261.51,0.01845
3255.72,0.01755
3249.94,0.01694
3244.15,0.01777
3238.36,0.01775
3232.58,0.01706
3226.79,0.01729
3221,0.01766
3215.22,0.01760
3209.43,0.01697
3203.65,0.01827
3197.86,0.01750
3192.07,0.01728
3186.29,0.01765
3180.5,0.01797
3174.71,0.01779
3168.93,0.01757
3163.14,0.01732
3157.36,0.01714
3151.57,0.01758
3145.78,0.01730
3140,0.01786
3134.21,0.01816
3128.42,0.01795
3122.64,0.01813
3116.85,0.01721
3111.07,0.01766
3105.28,0.01759
3099.49,0.01814
3093.71,0.01801
3087.92,0.01792
3082.14,0.01784
3076.35,0.01763
3070.56,0.01770
3064.78,0.01775
3058.99,0.01766
3053.2,0.01743
3047.42,0.01757
3041.63,0.01764
3035.85,0.01765
3030.06,0.01766
3024.27,0.01769
3018.49,0.01760
3012.7,0.01720
3006.91,0.01698
3001.13,0.01725
2995.34,0.01719
2989.56,0.01724
2983.77,0.01695
2977.98,0.01719
2972.2,0.01674
2966.41,0.01649
2960.62,0.01640
2954.84,0.01637
2949.05,0.01637
2943.27,0.01680
2937.48,0.01669
2931.69,0.01644
2925.91,0.01713
2920.12,0.01741
2914.33,0.01776
2908.55,0.01738
2902.76,0.01724
2896.98,0.01761
2891.19,0.01754
2885.4,0.01755
2879.62,0.01770
2873.83,0.01752
2868.04,0.01746
2862.26,0.01775
2856.47,0.01788
2850.69,0.01816
2844.9,0.01805
2839.11,0.01793
2833.33,0.01844
2827.54,0.01820
2821.75,0.01865
2815.97,0.01809
2810.18,0.01837
2804.4,0.01836
2798.61,0.01834
2792.82,0.01863
2787.04,0.01852
2781.25,0.01783
2775.46,0.01809
2769.68,0.01864
2763.89,0.01821
2758.11,0.01788
2752.32,0.01848
2746.53,0.01813
2740.75,0.01815
2734.96,0.01849
2729.17,0.01839
2723.39,0.01824
2717.6,0.01805
2711.82,0.01824
2706.03,0.01858
2700.24,0.01837
2694.46,0.01876
2688.67,0.01847
2682.88,0.01859
2677.1,0.01835
2671.31,0.01819
2665.53,0.01796
2659.74,0.01807
2653.95,0.01821
2648.17,0.01810
2642.38,0.01849
2636.59,0.01830
2630.81,0.01820
2625.02,0.01860
2619.24,0.01880
2613.45,0.01839
2607.66,0.01837
2601.88,0.01848
2596.09,0.01826
2590.3,0.01828
2584.52,0.01850
2578.73,0.01840
2572.95,0.01827
2567.16,0.01794
2561.37,0.01844
2555.59,0.01850
2549.8,0.01863
2544.02,0.01863
2538.23,0.01840
2532.44,0.01822
2526.66,0.01818
2520.87,0.01819
2515.08,0.01837
2509.3,0.01828
2503.51,0.01812
2497.73,0.01824
2491.94,0.01828
2486.15,0.01801
2480.37,0.01824
2474.58,0.01820
2468.79,0.01824
2463.01,0.01849
2457.22,0.01843
2451.44,0.01813
2445.65,0.01803
2439.86,0.01809
2434.08,0.01836
2428.29,0.01850
2422.5,0.01819
2416.72,0.01824
2410.93,0.01786
2405.15,0.01823
2399.36,0.01820
2393.57,0.01800
2387.79,0.01798
2382,0.01796
2376.21,0.01805
2370.43,0.01804
2364.64,0.01799
2358.86,0.01842
2353.07,0.01832
2347.28,0.01800
2341.5,0.01823
2335.71,0.01827
2329.92,0.01821
2324.14,0.01829
2318.35,0.01819
2312.57,0.01789
2306.78,0.01827
2300.99,0.01845
2295.21,0.01841
2289.42,0.01843
2283.63,0.01798
2277.85,0.01816
2272.06,0.01844
2266.28,0.01827
2260.49,0.01800
2254.7,0.01820
2248.92,0.01790
2243.13,0.01802
2237.34,0.01815
2231.56,0.01814
2225.77,0.01819
2219.99,0.01841
2214.2,0.01816
2208.41,0.01778
2202.63,0.01816
2196.84,0.01820
2191.05,0.01827
2185.27,0.01796
2179.48,0.01807
2173.7,0.01817
2167.91,0.01819
2162.12,0.01813
2156.34,0.01805
2150.55,0.01831
2144.76,0.01807
2138.98,0.01830
2133.19,0.01844
2127.41,0.01840
2121.62,0.01812
2115.83,0.01792
2110.05,0.01807
2104.26,0.01772
2098.47,0.01825
2092.69,0.01823
2086.9,0.01822
2081.12,0.01821
2075.33,0.01785
2069.54,0.01785
2063.76,0.01788
2057.97,0.01770
2052.19,0.01796
2046.4,0.01782
2040.61,0.01819
2034.83,0.01790
2029.04,0.01792
2023.25,0.01820
2017.47,0.01775
2011.68,0.01808
2005.9,0.01807
2000.11,0.01803
1994.32,0.01812
1988.54,0.01790
1982.75,0.01790
1976.96,0.01787
1971.18,0.01764
1965.39,0.01785
1959.61,0.01806
1953.82,0.01797
1948.03,0.01776
1942.25,0.01762
1936.46,0.01783
1930.67,0.01765
1924.89,0.01781
1919.1,0.01814
1913.32,0.01802
1907.53,0.01754
1901.74,0.01733
1895.96,0.01791
1890.17,0.01767
1884.38,0.01783
1878.6,0.01768
1872.81,0.01785
1867.03,0.01734
1861.24,0.01744
1855.45,0.01789
1849.67,0.01769
1843.88,0.01739
1838.09,0.01754
1832.31,0.01740
1826.52,0.01726
1820.74,0.01737
1814.95,0.01707
1809.16,0.01670
1803.38,0.01656
1797.59,0.01632
1791.8,0.01630
1786.02,0.01653
1780.23,0.01615
1774.45,0.01598
1768.66,0.01535
1762.87,0.01531
1757.09,0.01464
1751.3,0.01446
1745.51,0.01492
1739.73,0.01550
1733.94,0.01682
1728.16,0.01721
1722.37,0.01788
1716.58,0.01769
1710.8,0.01769
1705.01,0.01745
1699.22,0.01692
1693.44,0.01655
1687.65,0.01600
1681.87,0.01592
1676.08,0.01587
1670.29,0.01589
1664.51,0.01559
1658.72,0.01574
1652.93,0.01588
1647.15,0.01532
1641.36,0.01556
1635.58,0.01548
1629.79,0.01614
1624,0.01646
1618.22,0.01620
1612.43,0.01634
1606.64,0.01563
1600.86,0.01582
1595.07,0.01590
1589.29,0.01625
1583.5,0.01553
1577.71,0.01555
1571.93,0.01559
1566.14,0.01505
1560.35,0.01540
1554.57,0.01532
1548.78,0.01537
1543,0.01557
1537.21,0.01532
1531.42,0.01540
1525.64,0.01575
1519.85,0.01622
1514.07,0.01573
1508.28,0.01623
1502.49,0.01570
1496.71,0.01583
1490.92,0.01607
1485.13,0.01592
1479.35,0.01519
1473.56,0.01537
1467.78,0.01554
1461.99,0.01552
1456.2,0.01602
1450.42,0.01579
1444.63,0.01584
1438.84,0.01568
1433.06,0.01584
1427.27,0.01569
1421.49,0.01569
1415.7,0.01553
1409.91,0.01533
1404.13,0.01509
1398.34,0.01512
1392.55,0.01483
1386.77,0.01540
1380.98,0.01533
1375.2,0.01508
1369.41,0.01518
1363.62,0.01525
1357.84,0.01555
1352.05,0.01501
1346.26,0.01498
1340.48,0.01500
1334.69,0.01447
1328.91,0.01476
1323.12,0.01434
1317.33,0.01427
1311.55,0.01424
1305.76,0.01450
1299.97,0.01463
1294.19,0.01462
1288.4,0.01525
1282.62,0.01538
1276.83,0.01652
1271.04,0.01675
1265.26,0.01698
1259.47,0.01679
1253.68,0.01707
1247.9,0.01693
1242.11,0.01668
1236.33,0.01677
1230.54,0.01650
1224.75,0.01623
1218.97,0.01617
1213.18,0.01607
1207.39,0.01536
1201.61,0.01523
1195.82,0.01554
1190.04,0.01553
1184.25,0.01488
1178.46,0.01455
1172.68,0.01465
1166.89,0.01479
1161.1,0.01475
1155.32,0.01423
1149.53,0.01471
1143.75,0.01448
1137.96,0.01452
1132.17,0.01522
1126.39,0.01562
1120.6,0.01559
1114.81,0.01590
1109.03,0.01499
1103.24,0.01593
1097.46,0.01571
1091.67,0.01590
1085.88,0.01514
1080.1,0.01475
1074.31,0.01644
1068.52,0.01651
1062.74,0.01678
1056.95,0.01661
1051.17,0.01655
1045.38,0.01674
1039.59,0.01674
1033.81,0.01664
1028.02,0.01629
1022.24,0.01647
1016.45,0.01688
1010.66,0.01784
1004.88,0.01737
999.09,0.01817
993.304,0.01850
987.518,0.01809
981.731,0.01795
975.945,0.01763
970.159,0.01730
964.373,0.01759
958.586,0.01762
952.8,0.01721
947.014,0.01650
941.228,0.01659
935.441,0.01680
929.655,0.01639
923.869,0.01639
918.083,0.01595
912.297,0.01563
906.51,0.01592
900.724,0.01595
894.938,0.01629
889.152,0.01654
883.365,0.01617
877.579,0.01676
871.793,0.01634
866.007,0.01660
860.22,0.01616
854.434,0.01563
848.648,0.01590
842.862,0.01594
837.075,0.01579
831.289,0.01581
825.503,0.01654
819.717,0.01630
813.931,0.01585
808.144,0.01607
802.358,0.01530
796.572,0.01550
790.786,0.01582
784.999,0.01629
779.213,0.01593
773.427,0.01537
767.641,0.01538
761.854,0.01498
756.068,0.01503
750.282,0.01531
744.496,0.01458
738.709,0.01522
732.923,0.01530
727.137,0.01543
721.351,0.01510
715.565,0.01491
709.778,0.01359
703.992,0.01458
698.206,0.01560
692.42,0.01536
686.633,0.01584
680.847,0.01378
675.061,0.01378
669.275,0.01235
663.488,0.01317
657.702,0.01429
651.916,0.01363
646.13,0.01365
640.343,0.01380
634.557,0.01311
628.771,0.01168
622.985,0.01237
617.198,0.01412
611.412,0.01358
605.626,0.01221
599.84,0.01199