File: 01_Data/Masonite_Board/FTIR/IS/Masonite_Board_IS_S_220818_R1.dpt
7497.01,0.73279
7491.23,0.73005
7485.44,0.73159
7479.65,0.72712
7473.87,0.72887
7468.08,0.72958
7462.3,0.72317
7456.51,0.72385
7450.72,0.72028
7444.94,0.71633
7439.15,0.71275
7433.37,0.71409
7427.58,0.71064
7421.79,0.71043
7416.01,0.71058
7410.22,0.70708
7404.43,0.69796
7398.65,0.70173
7392.86,0.69683
7387.08,0.70143
7381.29,0.69975
7375.5,0.69858
7369.72,0.69153
7363.93,0.69588
7358.14,0.69258
7352.36,0.69673
7346.57,0.68882
7340.79,0.68919
7335,0.68062
7329.21,0.68168
7323.43,0.67924
7317.64,0.67830
7311.85,0.67552
7306.07,0.68087
7300.28,0.67918
7294.5,0.68033
7288.71,0.67646
7282.92,0.67642
7277.14,0.67080
7271.35,0.67158
7265.56,0.67598
7259.78,0.67832
7253.99,0.67398
7248.21,0.67256
7242.42,0.67817
7236.63,0.67799
7230.85,0.67394
7225.06,0.67116
7219.27,0.67079
7213.49,0.67380
7207.7,0.67106
7201.92,0.66804
7196.13,0.66454
7190.34,0.67081
7184.56,0.66032
7178.77,0.66126
7172.99,0.66191
7167.2,0.65674
7161.41,0.65280
7155.63,0.64760
7149.84,0.64458
7144.05,0.64503
7138.27,0.64106
7132.48,0.63895
7126.7,0.63107
7120.91,0.62360
7115.12,0.62428
7109.34,0.61710
7103.55,0.61650
7097.76,0.61171
7091.98,0.60669
7086.19,0.59898
7080.41,0.59795
7074.62,0.58980
7068.83,0.58645
7063.05,0.58416
7057.26,0.57751
7051.47,0.57703
7045.69,0.57356
7039.9,0.56177
7034.12,0.55931
7028.33,0.55614
7022.54,0.55164
7016.76,0.54692
7010.97,0.54526
7005.18,0.54456
6999.4,0.53808
6993.61,0.53876
6987.83,0.53450
6982.04,0.53060
6976.25,0.52845
6970.47,0.52515
6964.68,0.52838
6958.89,0.52886
6953.11,0.52561
6947.32,0.52410
6941.54,0.51828
6935.75,0.52198
6929.96,0.51972
6924.18,0.51626
6918.39,0.51677
6912.61,0.51750
6906.82,0.51761
6901.03,0.51525
6895.25,0.51706
6889.46,0.51537
6883.67,0.51284
6877.89,0.51598
6872.1,0.51516
6866.32,0.51411
6860.53,0.51282
6854.74,0.51496
6848.96,0.51265
6843.17,0.51223
6837.38,0.51178
6831.6,0.51048
6825.81,0.51108
6820.03,0.51167
6814.24,0.51491
6808.45,0.51367
6802.67,0.50975
6796.88,0.51147
6791.09,0.50751
6785.31,0.50998
6779.52,0.51059
6773.74,0.51313
6767.95,0.50977
6762.16,0.50969
6756.38,0.51103
6750.59,0.51302
6744.8,0.51110
6739.02,0.51157
6733.23,0.51193
6727.45,0.51359
6721.66,0.51502
6715.87,0.51366
6710.09,0.51512
6704.3,0.51479
6698.52,0.51487
6692.73,0.51746
6686.94,0.51276
6681.16,0.51768
6675.37,0.51986
6669.58,0.51903
6663.8,0.51951
6658.01,0.52336
6652.23,0.52173
6646.44,0.52348
6640.65,0.52262
6634.87,0.52618
6629.08,0.52683
6623.29,0.52938
6617.51,0.52860
6611.72,0.52900
6605.94,0.53165
6600.15,0.53303
6594.36,0.53466
6588.58,0.53511
6582.79,0.53480
6577,0.53698
6571.22,0.53920
6565.43,0.53809
6559.65,0.53970
6553.86,0.53653
6548.07,0.54043
6542.29,0.53810
6536.5,0.53822
6530.71,0.54164
6524.93,0.54195
6519.14,0.54154
6513.36,0.53620
6507.57,0.54013
6501.78,0.54146
6496,0.54098
6490.21,0.54062
6484.42,0.54185
6478.64,0.53912
6472.85,0.54176
6467.07,0.54261
6461.28,0.54344
6455.49,0.54460
6449.71,0.54333
6443.92,0.54387
6438.14,0.54477
6432.35,0.54576
6426.56,0.54661
6420.78,0.54552
6414.99,0.54456
6409.2,0.54780
6403.42,0.54615
6397.63,0.54989
6391.85,0.54886
6386.06,0.54755
6380.27,0.54945
6374.49,0.55013
6368.7,0.54919
6362.91,0.54905
6357.13,0.55103
6351.34,0.54950
6345.56,0.55199
6339.77,0.55271
6333.98,0.55409
6328.2,0.55199
6322.41,0.55370
6316.62,0.55517
6310.84,0.55645
6305.05,0.55665
6299.27,0.55648
6293.48,0.55477
6287.69,0.55857
6281.91,0.55940
6276.12,0.56196
6270.33,0.56309
6264.55,0.56356
6258.76,0.56691
6252.98,0.56796
6247.19,0.56835
6241.4,0.57235
6235.62,0.57459
6229.83,0.57735
6224.04,0.57837
6218.26,0.57959
6212.47,0.58213
6206.69,0.58328
6200.9,0.58375
6195.11,0.58596
6189.33,0.58829
6183.54,0.59078
6177.76,0.59345
6171.97,0.59241
6166.18,0.59652
6160.4,0.59922
6154.61,0.59716
6148.82,0.59930
6143.04,0.59950
6137.25,0.60144
6131.47,0.60358
6125.68,0.60430
6119.89,0.60262
6114.11,0.60529
6108.32,0.60560
6102.53,0.60502
6096.75,0.60190
6090.96,0.60467
6085.18,0.60513
6079.39,0.60327
6073.6,0.60382
6067.82,0.60467
6062.03,0.60268
6056.24,0.60175
6050.46,0.60237
6044.67,0.60142
6038.89,0.60000
6033.1,0.59938
6027.31,0.59579
6021.53,0.59847
6015.74,0.59660
6009.95,0.59561
6004.17,0.59140
5998.38,0.59308
5992.6,0.59374
5986.81,0.59180
5981.02,0.59158
5975.24,0.58990
5969.45,0.58941
5963.66,0.58876
5957.88,0.58905
5952.09,0.58728
5946.31,0.58871
5940.52,0.58713
5934.73,0.58676
5928.95,0.58690
5923.16,0.58533
5917.38,0.58620
5911.59,0.58414
5905.8,0.58094
5900.02,0.58077
5894.23,0.58008
5888.44,0.57809
5882.66,0.57693
5876.87,0.57554
5871.09,0.57710
5865.3,0.57686
5859.51,0.57494
5853.73,0.57560
5847.94,0.57585
5842.15,0.57608
5836.37,0.57398
5830.58,0.57233
5824.8,0.57257
5819.01,0.56959
5813.22,0.56809
5807.44,0.56603
5801.65,0.56527
5795.86,0.56525
5790.08,0.56674
5784.29,0.56697
5778.51,0.56749
5772.72,0.56747
5766.93,0.56932
5761.15,0.57034
5755.36,0.57248
5749.57,0.57618
5743.79,0.57580
5738,0.57581
5732.22,0.57484
5726.43,0.57575
5720.64,0.57485
5714.86,0.57579
5709.07,0.57633
5703.29,0.57677
5697.5,0.57348
5691.71,0.57328
5685.93,0.57407
5680.14,0.57329
5674.35,0.57167
5668.57,0.57081
5662.78,0.56993
5657,0.56981
5651.21,0.56969
5645.42,0.57120
5639.64,0.57166
5633.85,0.57158
5628.06,0.57085
5622.28,0.57075
5616.49,0.57054
5610.71,0.57065
5604.92,0.57117
5599.13,0.56964
5593.35,0.57059
5587.56,0.57056
5581.77,0.56947
5575.99,0.57234
5570.2,0.57199
5564.42,0.57242
5558.63,0.57367
5552.84,0.57458
5547.06,0.57448
5541.27,0.57462
5535.48,0.57527
5529.7,0.57626
5523.91,0.57649
5518.13,0.57698
5512.34,0.57680
5506.55,0.57697
5500.77,0.57738
5494.98,0.57646
5489.19,0.57836
5483.41,0.57782
5477.62,0.57906
5471.84,0.57961
5466.05,0.57931
5460.26,0.58062
5454.48,0.58104
5448.69,0.58264
5442.91,0.58393
5437.12,0.58526
5431.33,0.58641
5425.55,0.58787
5419.76,0.58874
5413.97,0.59189
5408.19,0.59108
5402.4,0.59193
5396.62,0.59183
5390.83,0.59044
5385.04,0.59101
5379.26,0.59106
5373.47,0.59108
5367.68,0.58944
5361.9,0.58971
5356.11,0.58822
5350.33,0.58750
5344.54,0.58652
5338.75,0.58381
5332.97,0.57950
5327.18,0.57650
5321.39,0.57134
5315.61,0.56594
5309.82,0.56049
5304.04,0.55165
5298.25,0.54300
5292.46,0.53401
5286.68,0.52397
5280.89,0.51036
5275.1,0.49649
5269.32,0.48381
5263.53,0.47069
5257.75,0.45788
5251.96,0.44618
5246.17,0.43534
5240.39,0.42598
5234.6,0.41715
5228.81,0.41243
5223.03,0.40701
5217.24,0.40404
5211.46,0.40137
5205.67,0.40018
5199.88,0.39896
5194.1,0.39992
5188.31,0.40047
5182.53,0.40097
5176.74,0.40388
5170.95,0.40645
5165.17,0.40968
5159.38,0.41202
5153.59,0.41565
5147.81,0.41904
5142.02,0.42243
5136.24,0.42650
5130.45,0.43043
5124.66,0.43336
5118.88,0.43677
5113.09,0.44017
5107.3,0.44341
5101.52,0.44693
5095.73,0.44999
5089.95,0.45395
5084.16,0.45624
5078.37,0.45934
5072.59,0.46356
5066.8,0.46694
5061.01,0.47015
5055.23,0.47232
5049.44,0.47504
5043.66,0.47795
5037.87,0.48027
5032.08,0.48135
5026.3,0.48562
5020.51,0.48732
5014.72,0.48843
5008.94,0.48976
5003.15,0.49013
4997.37,0.49201
4991.58,0.49188
4985.79,0.49194
4980.01,0.49094
4974.22,0.48949
4968.43,0.48737
4962.65,0.48469
4956.86,0.48256
4951.08,0.47785
4945.29,0.47491
4939.5,0.47075
4933.72,0.46559
4927.93,0.46008
4922.15,0.45584
4916.36,0.45078
4910.57,0.44570
4904.79,0.44071
4899,0.43455
4893.21,0.43046
4887.43,0.42512
4881.64,0.42033
4875.86,0.41542
4870.07,0.41039
4864.28,0.40663
4858.5,0.40277
4852.71,0.39914
4846.92,0.39499
4841.14,0.39106
4835.35,0.38786
4829.57,0.38495
4823.78,0.38157
4817.99,0.37790
4812.21,0.37541
4806.42,0.37189
4800.63,0.37087
4794.85,0.36909
4789.06,0.36728
4783.28,0.36561
4777.49,0.36411
4771.7,0.36231
4765.92,0.36058
4760.13,0.35917
4754.34,0.35914
4748.56,0.35879
4742.77,0.35807
4736.99,0.35909
4731.2,0.35918
4725.41,0.36013
4719.63,0.36049
4713.84,0.36142
4708.06,0.36188
4702.27,0.36345
4696.48,0.36381
4690.7,0.36485
4684.91,0.36724
4679.12,0.36915
4673.34,0.37074
4667.55,0.37341
4661.77,0.37504
4655.98,0.37785
4650.19,0.38025
4644.41,0.38227
4638.62,0.38462
4632.83,0.38766
4627.05,0.38917
4621.26,0.39152
4615.48,0.39434
4609.69,0.39618
4603.9,0.39852
4598.12,0.40102
4592.33,0.40275
4586.54,0.40473
4580.76,0.40632
4574.97,0.40823
4569.19,0.40972
4563.4,0.41152
4557.61,0.41291
4551.83,0.41421
4546.04,0.41575
4540.25,0.41707
4534.47,0.41792
4528.68,0.41932
4522.9,0.41948
4517.11,0.41960
4511.32,0.41891
4505.54,0.41749
4499.75,0.41542
4493.96,0.41252
4488.18,0.40795
4482.39,0.40294
4476.61,0.39734
4470.82,0.39077
4465.03,0.38319
4459.25,0.37590
4453.46,0.36862
4447.68,0.36107
4441.89,0.35388
4436.1,0.34640
4430.32,0.33933
4424.53,0.33291
4418.74,0.32620
4412.96,0.32178
4407.17,0.31894
4401.39,0.31719
4395.6,0.31744
4389.81,0.31972
4384.03,0.32272
4378.24,0.32669
4372.45,0.33011
4366.67,0.33305
4360.88,0.33515
4355.1,0.33543
4349.31,0.33424
4343.52,0.33256
4337.74,0.33034
4331.95,0.32766
4326.16,0.32418
4320.38,0.32079
4314.59,0.32168
4308.81,0.32068
4303.02,0.31863
4297.23,0.31622
4291.45,0.31480
4285.66,0.31285
4279.87,0.31201
4274.09,0.31188
4268.3,0.31250
4262.52,0.31375
4256.73,0.31420
4250.94,0.31343
4245.16,0.31494
4239.37,0.31642
4233.58,0.31726
4227.8,0.31841
4222.01,0.31810
4216.23,0.31828
4210.44,0.31836
4204.65,0.31879
4198.87,0.31852
4193.08,0.31836
4187.3,0.31870
4181.51,0.31904
4175.72,0.32091
4169.94,0.32231
4164.15,0.32412
4158.36,0.32494
4152.58,0.32328
4146.79,0.32151
4141.01,0.31955
4135.22,0.31767
4129.43,0.31437
4123.65,0.31102
4117.86,0.30726
4112.07,0.30359
4106.29,0.30000
4100.5,0.29559
4094.72,0.29091
4088.93,0.28640
4083.14,0.28188
4077.36,0.27777
4071.57,0.27297
4065.78,0.26835
4060,0.26351
4054.21,0.25847
4048.43,0.25370
4042.64,0.24993
4036.85,0.24657
4031.07,0.24360
4025.28,0.24139
4019.49,0.24006
4013.71,0.24040
4007.92,0.24146
4002.14,0.24259
3996.35,0.24379
3990.56,0.24539
3984.78,0.24685
3978.99,0.24759
3973.2,0.24885
3967.42,0.25129
3961.63,0.25267
3955.85,0.25486
3950.06,0.25764
3944.27,0.25975
3938.49,0.26192
3932.7,0.26470
3926.92,0.26675
3921.13,0.26958
3915.34,0.27174
3909.56,0.27258
3903.77,0.27666
3897.98,0.27749
3892.2,0.27888
3886.41,0.28078
3880.63,0.28219
3874.84,0.28323
3869.05,0.28714
3863.27,0.29015
3857.48,0.29229
3851.69,0.29724
3845.91,0.29681
3840.12,0.30039
3834.34,0.30106
3828.55,0.30067
3822.76,0.30201
3816.98,0.30222
3811.19,0.29980
3805.4,0.30077
3799.62,0.30124
3793.83,0.29931
3788.05,0.29820
3782.26,0.29780
3776.47,0.29586
3770.69,0.29450
3764.9,0.29230
3759.11,0.29089
3753.33,0.28891
3747.54,0.28735
3741.76,0.28277
3735.97,0.28045
3730.18,0.27406
3724.4,0.26947
3718.61,0.26289
3712.83,0.25708
3707.04,0.24788
3701.25,0.23835
3695.47,0.22744
3689.68,0.21711
3683.89,0.20168
3678.11,0.18749
3672.32,0.17204
3666.54,0.15561
3660.75,0.14251
3654.96,0.13128
3649.18,0.12232
3643.39,0.11183
3637.6,0.10477
3631.82,0.09924
3626.03,0.09363
3620.25,0.08953
3614.46,0.08573
3608.67,0.08160
3602.89,0.07780
3597.1,0.07483
3591.31,0.07255
3585.53,0.07020
3579.74,0.06750
3573.96,0.06558
3568.17,0.06378
3562.38,0.06177
3556.6,0.05986
3550.81,0.05873
3545.02,0.05754
3539.24,0.05620
3533.45,0.05571
3527.67,0.05472
3521.88,0.05332
3516.09,0.05298
3510.31,0.05239
3504.52,0.05090
3498.73,0.05055
3492.95,0.05007
3487.16,0.04967
3481.38,0.04934
3475.59,0.04874
3469.8,0.04804
3464.02,0.04739
3458.23,0.04772
3452.45,0.04721
3446.66,0.04695
3440.87,0.04663
3435.09,0.04692
3429.3,0.04676
3423.51,0.04666
3417.73,0.04646
3411.94,0.04744
3406.16,0.04797
3400.37,0.04796
3394.58,0.04754
3388.8,0.04822
3383.01,0.04788
3377.22,0.04755
3371.44,0.04796
3365.65,0.04794
3359.87,0.04769
3354.08,0.04864
3348.29,0.04897
3342.51,0.04995
3336.72,0.05015
3330.93,0.05165
3325.15,0.05255
3319.36,0.05338
3313.58,0.05385
3307.79,0.05374
3302,0.05402
3296.22,0.05493
3290.43,0.05607
3284.64,0.05613
3278.86,0.05730
3273.07,0.05789
3267.29,0.05949
3261.5,0.06057
3255.71,0.06192
3249.93,0.06295
3244.14,0.06350
3238.35,0.06478
3232.57,0.06540
3226.78,0.06697
3221,0.06702
3215.21,0.06927
3209.42,0.06903
3203.64,0.07024
3197.85,0.07126
3192.07,0.07249
3186.28,0.07375
3180.49,0.07460
3174.71,0.07679
3168.92,0.07745
3163.13,0.07858
3157.35,0.08015
3151.56,0.08123
3145.78,0.08248
3139.99,0.08353
3134.2,0.08477
3128.42,0.08557
3122.63,0.08734
3116.84,0.08784
3111.06,0.08970
3105.27,0.09119
3099.49,0.09206
3093.7,0.09345
3087.91,0.09460
3082.13,0.09555
3076.34,0.09670
3070.55,0.09781
3064.77,0.09887
3058.98,0.10030
3053.2,0.10119
3047.41,0.10236
3041.62,0.10339
3035.84,0.10375
3030.05,0.10341
3024.26,0.10298
3018.48,0.10177
3012.69,0.10014
3006.91,0.09843
3001.12,0.09708
2995.33,0.09587
2989.55,0.09419
2983.76,0.09130
2977.98,0.08672
2972.19,0.08174
2966.4,0.07812
2960.62,0.07713
2954.83,0.07543
2949.04,0.07342
2943.26,0.07179
2937.47,0.07163
2931.69,0.07177
2925.9,0.07144
2920.11,0.07077
2914.33,0.06994
2908.54,0.06957
2902.75,0.07006
2896.97,0.07119
2891.18,0.07227
2885.4,0.07343
2879.61,0.07451
2873.82,0.07533
2868.04,0.07625
2862.25,0.07771
2856.46,0.07840
2850.68,0.07881
2844.89,0.08194
2839.11,0.08636
2833.32,0.09123
2827.53,0.09653
2821.75,0.10080
2815.96,0.10441
2810.17,0.10745
2804.39,0.11033
2798.6,0.11251
2792.82,0.11434
2787.03,0.11577
2781.24,0.11640
2775.46,0.11748
2769.67,0.11778
2763.88,0.11845
2758.1,0.11879
2752.31,0.11916
2746.53,0.11912
2740.74,0.11901
2734.95,0.11930
2729.17,0.11971
2723.38,0.12066
2717.6,0.12203
2711.81,0.12363
2706.02,0.12541
2700.24,0.12707
2694.45,0.12916
2688.66,0.13075
2682.88,0.13229
2677.09,0.13362
2671.31,0.13448
2665.52,0.13533
2659.73,0.13574
2653.95,0.13636
2648.16,0.13748
2642.37,0.13855
2636.59,0.13969
2630.8,0.14096
2625.02,0.14219
2619.23,0.14346
2613.44,0.14435
2607.66,0.14538
2601.87,0.14630
2596.08,0.14713
2590.3,0.14783
2584.51,0.14856
2578.73,0.14911
2572.94,0.14917
2567.15,0.14950
2561.37,0.14943
2555.58,0.14985
2549.79,0.14971
2544.01,0.14996
2538.22,0.15057
2532.44,0.15111
2526.65,0.15252
2520.86,0.15305
2515.08,0.15398
2509.29,0.15533
2503.5,0.15770
2497.72,0.15968
2491.93,0.16122
2486.15,0.16268
2480.36,0.16443
2474.57,0.16566
2468.79,0.16720
2463,0.16811
2457.22,0.16892
2451.43,0.16987
2445.64,0.17145
2439.86,0.17329
2434.07,0.17524
2428.28,0.17682
2422.5,0.17873
2416.71,0.18131
2410.93,0.18347
2405.14,0.18556
2399.35,0.18753
2393.57,0.18943
2387.78,0.19068
2381.99,0.19198
2376.21,0.19401
2370.42,0.19519
2364.64,0.19716
2358.85,0.19828
2353.06,0.19994
2347.28,0.20101
2341.49,0.20234
2335.7,0.20328
2329.92,0.20377
2324.13,0.20453
2318.35,0.20488
2312.56,0.20505
2306.77,0.20459
2300.99,0.20401
2295.2,0.20330
2289.41,0.20354
2283.63,0.20319
2277.84,0.20254
2272.06,0.20154
2266.27,0.19969
2260.48,0.19731
2254.7,0.19530
2248.91,0.19371
2243.12,0.19222
2237.34,0.19194
2231.55,0.19192
2225.77,0.19220
2219.98,0.19337
2214.19,0.19373
2208.41,0.19410
2202.62,0.19341
2196.84,0.19186
2191.05,0.18990
2185.26,0.18694
2179.48,0.18379
2173.69,0.18017
2167.9,0.17699
2162.12,0.17377
2156.33,0.17160
2150.55,0.17011
2144.76,0.16889
2138.97,0.16766
2133.19,0.16750
2127.4,0.16792
2121.61,0.16886
2115.83,0.16958
2110.04,0.17068
2104.26,0.17134
2098.47,0.17226
2092.68,0.17325
2086.9,0.17373
2081.11,0.17369
2075.32,0.17315
2069.54,0.17256
2063.75,0.17203
2057.97,0.17198
2052.18,0.17253
2046.39,0.17330
2040.61,0.17411
2034.82,0.17583
2029.03,0.17790
2023.25,0.18027
2017.46,0.18310
2011.68,0.18558
2005.89,0.18759
2000.1,0.18872
1994.32,0.19013
1988.53,0.19137
1982.75,0.19251
1976.96,0.19276
1971.17,0.19251
1965.39,0.19186
1959.6,0.19121
1953.81,0.19099
1948.03,0.19177
1942.24,0.19400
1936.46,0.19660
1930.67,0.19902
1924.88,0.20178
1919.1,0.20397
1913.31,0.20473
1907.52,0.20571
1901.74,0.20587
1895.95,0.20589
1890.17,0.20579
1884.38,0.20516
1878.59,0.20446
1872.81,0.20378
1867.02,0.20306
1861.23,0.20100
1855.45,0.19920
1849.66,0.19714
1843.88,0.19530
1838.09,0.19172
1832.3,0.18921
1826.52,0.18615
1820.73,0.18116
1814.94,0.17620
1809.16,0.17095
1803.37,0.16500
1797.59,0.15897
1791.8,0.15313
1786.01,0.14517
1780.23,0.13607
1774.44,0.12451
1768.65,0.10827
1762.87,0.09233
1757.08,0.08052
1751.3,0.07380
1745.51,0.06914
1739.72,0.06803
1733.94,0.06940
1728.15,0.07123
1722.37,0.07495
1716.58,0.08052
1710.79,0.08448
1705.01,0.08849
1699.22,0.09115
1693.43,0.09002
1687.65,0.08904
1681.86,0.08689
1676.08,0.08353
1670.29,0.08046
1664.5,0.07749
1658.72,0.07586
1652.93,0.07624
1647.14,0.07538
1641.36,0.07402
1635.57,0.07454
1629.79,0.07263
1624,0.07142
1618.21,0.07003
1612.43,0.06824
1606.64,0.06622
1600.85,0.06442
1595.07,0.06324
1589.28,0.06717
1583.5,0.07492
1577.71,0.08351
1571.92,0.09127
1566.14,0.09619
1560.35,0.10003
1554.56,0.09933
1548.78,0.09806
1542.99,0.09733
1537.21,0.09216
1531.42,0.08566
1525.63,0.07687
1519.85,0.06696
1514.06,0.06100
1508.27,0.05984
1502.49,0.05978
1496.7,0.06399
1490.92,0.06757
1485.13,0.06679
1479.34,0.06248
1473.56,0.05654
1467.77,0.05156
1461.99,0.05192
1456.2,0.05406
1450.41,0.05484
1444.63,0.05562
1438.84,0.05431
1433.05,0.05147
1427.27,0.05187
1421.48,0.05498
1415.7,0.05789
1409.91,0.05951
1404.12,0.05960
1398.34,0.05866
1392.55,0.05654
1386.76,0.05317
1380.98,0.05032
1375.19,0.05001
1369.41,0.05128
1363.62,0.05268
1357.83,0.05297
1352.05,0.05330
1346.26,0.05255
1340.47,0.05103
1334.69,0.05033
1328.9,0.05141
1323.12,0.05239
1317.33,0.05393
1311.54,0.05601
1305.76,0.05779
1299.97,0.05805
1294.18,0.05693
1288.4,0.05411
1282.61,0.05197
1276.83,0.05190
1271.04,0.05084
1265.25,0.05039
1259.47,0.04943
1253.68,0.04908
1247.89,0.04859
1242.11,0.04894
1236.32,0.05002
1230.54,0.05129
1224.75,0.05293
1218.96,0.05408
1213.18,0.05432
1207.39,0.05345
1201.61,0.05272
1195.82,0.05192
1190.03,0.04986
1184.25,0.04618
1178.46,0.04272
1172.67,0.03981
1166.89,0.04258
1161.1,0.04930
1155.32,0.05143
1149.53,0.05021
1143.74,0.04684
1137.96,0.04217
1132.17,0.04022
1126.38,0.04340
1120.6,0.04761
1114.81,0.05058
1109.03,0.05377
1103.24,0.05414
1097.45,0.05278
1091.67,0.04987
1085.88,0.04782
1080.09,0.04809
1074.31,0.05205
1068.52,0.05893
1062.74,0.07487
1056.95,0.08659
1051.16,0.08752
1045.38,0.08331
1039.59,0.08505
1033.8,0.09476
1028.02,0.09671
1022.23,0.09536
1016.45,0.09476
1010.66,0.09417
1004.87,0.09261
999.087,0.09273
993.301,0.09447
987.515,0.09716
981.729,0.10097
975.943,0.10400
970.156,0.10548
964.37,0.10736
958.584,0.11074
952.798,0.11478
947.011,0.11608
941.225,0.11543
935.439,0.11302
929.653,0.11040
923.867,0.10784
918.08,0.10546
912.294,0.10265
906.508,0.09946
900.722,0.09644
894.936,0.09698
889.149,0.10015
883.363,0.10284
877.577,0.10324
871.791,0.10332
866.004,0.10371
860.218,0.10230
854.432,0.10043
848.646,0.09809
842.86,0.09624
837.073,0.09438
831.287,0.09376
825.501,0.09411
819.715,0.09401
813.928,0.09367
808.142,0.09206
802.356,0.09122
796.57,0.08960
790.784,0.08872
784.997,0.08704
779.211,0.08523
773.425,0.08264
767.639,0.08068
761.852,0.07890
756.066,0.07611
750.28,0.07402
744.494,0.07275
738.708,0.07088
732.921,0.06861
727.135,0.06640
721.349,0.06529
715.563,0.06411
709.776,0.06431
703.99,0.06373
698.204,0.06385
692.418,0.06371
686.632,0.06270
680.845,0.06234
675.059,0.06081
669.273,0.06195
663.487,0.06252
657.7,0.06322
651.914,0.06185
646.128,0.06176
640.342,0.06000
634.556,0.05931
628.769,0.05964
622.983,0.06020
617.197,0.06102
611.411,0.06409
605.624,0.06563
599.838,0.06491