File: 01_Data/Masonite_Board/FTIR/IS/Masonite_Board_IS_S_220818_R2.dpt
7497.03,0.73069
7491.25,0.72072
7485.46,0.72605
7479.67,0.71271
7473.89,0.72429
7468.1,0.72177
7462.32,0.71817
7456.53,0.71374
7450.74,0.72027
7444.96,0.71691
7439.17,0.70429
7433.38,0.70702
7427.6,0.70192
7421.81,0.70691
7416.03,0.69988
7410.24,0.70055
7404.45,0.69467
7398.67,0.69235
7392.88,0.68928
7387.09,0.68600
7381.31,0.69179
7375.52,0.68722
7369.74,0.69461
7363.95,0.68199
7358.16,0.69283
7352.38,0.68379
7346.59,0.68666
7340.8,0.69013
7335.02,0.68438
7329.23,0.67971
7323.45,0.67383
7317.66,0.67727
7311.87,0.66862
7306.09,0.67720
7300.3,0.67407
7294.51,0.67929
7288.73,0.67277
7282.94,0.67208
7277.16,0.67651
7271.37,0.67224
7265.58,0.67016
7259.8,0.67064
7254.01,0.66879
7248.22,0.67490
7242.44,0.67528
7236.65,0.66308
7230.87,0.66675
7225.08,0.66783
7219.29,0.67501
7213.51,0.66678
7207.72,0.66372
7201.93,0.65605
7196.15,0.65723
7190.36,0.66109
7184.58,0.65670
7178.79,0.65249
7173,0.65843
7167.22,0.64848
7161.43,0.64660
7155.65,0.64595
7149.86,0.64025
7144.07,0.64249
7138.29,0.63920
7132.5,0.63269
7126.71,0.62827
7120.93,0.63187
7115.14,0.62300
7109.36,0.61077
7103.57,0.61047
7097.78,0.60875
7092,0.60243
7086.21,0.59644
7080.42,0.59222
7074.64,0.58291
7068.85,0.59176
7063.07,0.57526
7057.28,0.57525
7051.49,0.57330
7045.71,0.56530
7039.92,0.56003
7034.13,0.55392
7028.35,0.55126
7022.56,0.55129
7016.78,0.54474
7010.99,0.53892
7005.2,0.53615
6999.42,0.53538
6993.63,0.53365
6987.84,0.52411
6982.06,0.52958
6976.27,0.52223
6970.49,0.52831
6964.7,0.52377
6958.91,0.52128
6953.13,0.52234
6947.34,0.52608
6941.55,0.52109
6935.77,0.51896
6929.98,0.51426
6924.2,0.52183
6918.41,0.51975
6912.62,0.51480
6906.84,0.50924
6901.05,0.51422
6895.26,0.51576
6889.48,0.50627
6883.69,0.50752
6877.91,0.51102
6872.12,0.50926
6866.33,0.50992
6860.55,0.50860
6854.76,0.51274
6848.97,0.51181
6843.19,0.50938
6837.4,0.51427
6831.62,0.51528
6825.83,0.50975
6820.04,0.50445
6814.26,0.50767
6808.47,0.51312
6802.68,0.50583
6796.9,0.50884
6791.11,0.50054
6785.33,0.50752
6779.54,0.50352
6773.75,0.50588
6767.97,0.50336
6762.18,0.50731
6756.39,0.51098
6750.61,0.50325
6744.82,0.50630
6739.04,0.51047
6733.25,0.51272
6727.46,0.50732
6721.68,0.50753
6715.89,0.51521
6710.1,0.50923
6704.32,0.51248
6698.53,0.51170
6692.75,0.51355
6686.96,0.51100
6681.17,0.51737
6675.39,0.51443
6669.6,0.51839
6663.82,0.52230
6658.03,0.51990
6652.24,0.51733
6646.46,0.51810
6640.67,0.52039
6634.88,0.52191
6629.1,0.52296
6623.31,0.52421
6617.53,0.52551
6611.74,0.52627
6605.95,0.52713
6600.17,0.52947
6594.38,0.52613
6588.59,0.53293
6582.81,0.53383
6577.02,0.53331
6571.24,0.53634
6565.45,0.53142
6559.66,0.53455
6553.88,0.53862
6548.09,0.53501
6542.3,0.53651
6536.52,0.53461
6530.73,0.53956
6524.95,0.53688
6519.16,0.53776
6513.37,0.53772
6507.59,0.53645
6501.8,0.53782
6496.01,0.53357
6490.23,0.54046
6484.44,0.54120
6478.66,0.53620
6472.87,0.53995
6467.08,0.53706
6461.3,0.53763
6455.51,0.53690
6449.72,0.53817
6443.94,0.53874
6438.15,0.54346
6432.37,0.54222
6426.58,0.54241
6420.79,0.54215
6415.01,0.54414
6409.22,0.54104
6403.43,0.54181
6397.65,0.54839
6391.86,0.54627
6386.08,0.54374
6380.29,0.54797
6374.5,0.54660
6368.72,0.54671
6362.93,0.54727
6357.14,0.54859
6351.36,0.54930
6345.57,0.54905
6339.79,0.55256
6334,0.55013
6328.21,0.55039
6322.43,0.55359
6316.64,0.54896
6310.85,0.55204
6305.07,0.54911
6299.28,0.55291
6293.5,0.55366
6287.71,0.55607
6281.92,0.55479
6276.14,0.55853
6270.35,0.56083
6264.56,0.56399
6258.78,0.56364
6252.99,0.56241
6247.21,0.56822
6241.42,0.56786
6235.63,0.57018
6229.85,0.57076
6224.06,0.57344
6218.27,0.57818
6212.49,0.57720
6206.7,0.57727
6200.92,0.58073
6195.13,0.58169
6189.34,0.58458
6183.56,0.58783
6177.77,0.58552
6171.98,0.59105
6166.2,0.59024
6160.41,0.59420
6154.63,0.59246
6148.84,0.59732
6143.05,0.59985
6137.27,0.59952
6131.48,0.59943
6125.7,0.59979
6119.91,0.60213
6114.12,0.60380
6108.34,0.60262
6102.55,0.60236
6096.76,0.60319
6090.98,0.60083
6085.19,0.60142
6079.41,0.60334
6073.62,0.60184
6067.83,0.60138
6062.05,0.60075
6056.26,0.59571
6050.47,0.60036
6044.69,0.59981
6038.9,0.59766
6033.12,0.59441
6027.33,0.59781
6021.54,0.59433
6015.76,0.59446
6009.97,0.58921
6004.18,0.58851
5998.4,0.58851
5992.61,0.58685
5986.83,0.58860
5981.04,0.58862
5975.25,0.58492
5969.47,0.58625
5963.68,0.58662
5957.89,0.58495
5952.11,0.58544
5946.32,0.58471
5940.54,0.58419
5934.75,0.58332
5928.96,0.58324
5923.18,0.58251
5917.39,0.58238
5911.6,0.58109
5905.82,0.57894
5900.03,0.57599
5894.25,0.57339
5888.46,0.57568
5882.67,0.57415
5876.89,0.57312
5871.1,0.57246
5865.31,0.57195
5859.53,0.57111
5853.74,0.57285
5847.96,0.57130
5842.17,0.57221
5836.38,0.57061
5830.6,0.56933
5824.81,0.56928
5819.02,0.56825
5813.24,0.56315
5807.45,0.56343
5801.67,0.56279
5795.88,0.55996
5790.09,0.56128
5784.31,0.56180
5778.52,0.56527
5772.73,0.56398
5766.95,0.56846
5761.16,0.56975
5755.38,0.57176
5749.59,0.57044
5743.8,0.57055
5738.02,0.57032
5732.23,0.57342
5726.44,0.57028
5720.66,0.57178
5714.87,0.57259
5709.09,0.57248
5703.3,0.57146
5697.51,0.57333
5691.73,0.56884
5685.94,0.56701
5680.15,0.56867
5674.37,0.56983
5668.58,0.56811
5662.8,0.56776
5657.01,0.56694
5651.22,0.56651
5645.44,0.56793
5639.65,0.56846
5633.87,0.56698
5628.08,0.56881
5622.29,0.56804
5616.51,0.56834
5610.72,0.56920
5604.93,0.56866
5599.15,0.56723
5593.36,0.56745
5587.58,0.56913
5581.79,0.56713
5576,0.56641
5570.22,0.56812
5564.43,0.56865
5558.64,0.57037
5552.86,0.57019
5547.07,0.57086
5541.29,0.57166
5535.5,0.57279
5529.71,0.57227
5523.93,0.57336
5518.14,0.57172
5512.35,0.57340
5506.57,0.57336
5500.78,0.57526
5495,0.57448
5489.21,0.57363
5483.42,0.57404
5477.64,0.57530
5471.85,0.57516
5466.06,0.57523
5460.28,0.57834
5454.49,0.57842
5448.71,0.58057
5442.92,0.58176
5437.13,0.58266
5431.35,0.58340
5425.56,0.58580
5419.77,0.58565
5413.99,0.58826
5408.2,0.58733
5402.42,0.58998
5396.63,0.58820
5390.84,0.58860
5385.06,0.58927
5379.27,0.58651
5373.48,0.58704
5367.7,0.58528
5361.91,0.58639
5356.13,0.58610
5350.34,0.58476
5344.55,0.58286
5338.77,0.58107
5332.98,0.57857
5327.19,0.57426
5321.41,0.57017
5315.62,0.56382
5309.84,0.55821
5304.05,0.55096
5298.26,0.54160
5292.48,0.53290
5286.69,0.52243
5280.9,0.51078
5275.12,0.49632
5269.33,0.48475
5263.55,0.47092
5257.76,0.45722
5251.97,0.44696
5246.19,0.43640
5240.4,0.42685
5234.61,0.41994
5228.83,0.41385
5223.04,0.41099
5217.26,0.40576
5211.47,0.40309
5205.68,0.40284
5199.9,0.40258
5194.11,0.40294
5188.32,0.40212
5182.54,0.40487
5176.75,0.40543
5170.97,0.40915
5165.18,0.41149
5159.39,0.41471
5153.61,0.41760
5147.82,0.42245
5142.03,0.42530
5136.25,0.42917
5130.46,0.43253
5124.68,0.43612
5118.89,0.43910
5113.1,0.44227
5107.32,0.44634
5101.53,0.44846
5095.75,0.45168
5089.96,0.45650
5084.17,0.45912
5078.39,0.46100
5072.6,0.46452
5066.81,0.46742
5061.03,0.47011
5055.24,0.47390
5049.46,0.47645
5043.67,0.47865
5037.88,0.48139
5032.1,0.48374
5026.31,0.48642
5020.52,0.48873
5014.74,0.48951
5008.95,0.49072
5003.17,0.49297
4997.38,0.49150
4991.59,0.49213
4985.81,0.49143
4980.02,0.48985
4974.23,0.48787
4968.45,0.48684
4962.66,0.48492
4956.88,0.48126
4951.09,0.47700
4945.3,0.47203
4939.52,0.46840
4933.73,0.46353
4927.94,0.45867
4922.16,0.45379
4916.37,0.44820
4910.59,0.44185
4904.8,0.43730
4899.01,0.43113
4893.23,0.42809
4887.44,0.42080
4881.65,0.41509
4875.87,0.41139
4870.08,0.40649
4864.3,0.40120
4858.51,0.39760
4852.72,0.39522
4846.94,0.39041
4841.15,0.38780
4835.36,0.38290
4829.58,0.38044
4823.79,0.37554
4818.01,0.37280
4812.22,0.37140
4806.43,0.36734
4800.65,0.36638
4794.86,0.36458
4789.07,0.36193
4783.29,0.36048
4777.5,0.35859
4771.72,0.35869
4765.93,0.35621
4760.14,0.35475
4754.36,0.35503
4748.57,0.35360
4742.78,0.35433
4737,0.35439
4731.21,0.35509
4725.43,0.35473
4719.64,0.35603
4713.85,0.35659
4708.07,0.35728
4702.28,0.35916
4696.49,0.35944
4690.71,0.36066
4684.92,0.36231
4679.14,0.36497
4673.35,0.36720
4667.56,0.36955
4661.78,0.37157
4655.99,0.37305
4650.2,0.37546
4644.42,0.37811
4638.63,0.38014
4632.85,0.38250
4627.06,0.38557
4621.27,0.38773
4615.49,0.38947
4609.7,0.39231
4603.92,0.39436
4598.13,0.39712
4592.34,0.39981
4586.56,0.40070
4580.77,0.40285
4574.98,0.40492
4569.2,0.40678
4563.41,0.40793
4557.63,0.40955
4551.84,0.41114
4546.05,0.41125
4540.27,0.41336
4534.48,0.41407
4528.69,0.41475
4522.91,0.41528
4517.12,0.41537
4511.34,0.41582
4505.55,0.41437
4499.76,0.41249
4493.98,0.40911
4488.19,0.40424
4482.4,0.39927
4476.62,0.39333
4470.83,0.38692
4465.05,0.37926
4459.26,0.37211
4453.47,0.36327
4447.69,0.35679
4441.9,0.34952
4436.11,0.34230
4430.33,0.33437
4424.54,0.32818
4418.76,0.32178
4412.97,0.31674
4407.18,0.31382
4401.4,0.31157
4395.61,0.31269
4389.82,0.31517
4384.04,0.31778
4378.25,0.32150
4372.47,0.32486
4366.68,0.32818
4360.89,0.33047
4355.11,0.33071
4349.32,0.32885
4343.53,0.32767
4337.75,0.32514
4331.96,0.32220
4326.18,0.31867
4320.39,0.31676
4314.6,0.31679
4308.82,0.31626
4303.03,0.31369
4297.24,0.31130
4291.46,0.30974
4285.67,0.30774
4279.89,0.30715
4274.1,0.30732
4268.31,0.30821
4262.53,0.30887
4256.74,0.30940
4250.95,0.30936
4245.17,0.31063
4239.38,0.31149
4233.6,0.31278
4227.81,0.31396
4222.02,0.31387
4216.24,0.31370
4210.45,0.31419
4204.66,0.31464
4198.88,0.31419
4193.09,0.31428
4187.31,0.31457
4181.52,0.31494
4175.73,0.31611
4169.95,0.31801
4164.16,0.31971
4158.37,0.32076
4152.59,0.31918
4146.8,0.31733
4141.02,0.31570
4135.23,0.31313
4129.44,0.31097
4123.66,0.30790
4117.87,0.30428
4112.09,0.30020
4106.3,0.29613
4100.51,0.29191
4094.73,0.28680
4088.94,0.28259
4083.15,0.27794
4077.37,0.27370
4071.58,0.26905
4065.8,0.26388
4060.01,0.25947
4054.22,0.25392
4048.44,0.24974
4042.65,0.24542
4036.86,0.24277
4031.08,0.23947
4025.29,0.23703
4019.51,0.23648
4013.72,0.23711
4007.93,0.23713
4002.15,0.23889
3996.36,0.24017
3990.57,0.24112
3984.79,0.24316
3979,0.24365
3973.22,0.24522
3967.43,0.24721
3961.64,0.24911
3955.86,0.25131
3950.07,0.25350
3944.28,0.25603
3938.5,0.25816
3932.71,0.26089
3926.93,0.26332
3921.14,0.26578
3915.35,0.26774
3909.57,0.26936
3903.78,0.27143
3897.99,0.27341
3892.21,0.27544
3886.42,0.27693
3880.64,0.27859
3874.85,0.27941
3869.06,0.28186
3863.28,0.28577
3857.49,0.28855
3851.7,0.29175
3845.92,0.29348
3840.13,0.29564
3834.35,0.29711
3828.56,0.29773
3822.77,0.29808
3816.99,0.29792
3811.2,0.29747
3805.41,0.29787
3799.63,0.29753
3793.84,0.29695
3788.06,0.29637
3782.27,0.29541
3776.48,0.29404
3770.7,0.29244
3764.91,0.29066
3759.12,0.28854
3753.34,0.28596
3747.55,0.28338
3741.77,0.28028
3735.98,0.27700
3730.19,0.27302
3724.41,0.26758
3718.62,0.26226
3712.83,0.25603
3707.05,0.24790
3701.26,0.23830
3695.48,0.22795
3689.69,0.21664
3683.9,0.20257
3678.12,0.18804
3672.33,0.17242
3666.54,0.15749
3660.76,0.14422
3654.97,0.13152
3649.19,0.12207
3643.4,0.11424
3637.61,0.10621
3631.83,0.10114
3626.04,0.09456
3620.25,0.09045
3614.47,0.08618
3608.68,0.08280
3602.9,0.07905
3597.11,0.07577
3591.32,0.07224
3585.54,0.07007
3579.75,0.06740
3573.97,0.06536
3568.18,0.06333
3562.39,0.06102
3556.61,0.05968
3550.82,0.05839
3545.03,0.05744
3539.25,0.05519
3533.46,0.05475
3527.68,0.05366
3521.89,0.05349
3516.1,0.05234
3510.32,0.05146
3504.53,0.05109
3498.74,0.05031
3492.96,0.04907
3487.17,0.04895
3481.39,0.04810
3475.6,0.04740
3469.81,0.04703
3464.03,0.04716
3458.24,0.04658
3452.45,0.04686
3446.67,0.04620
3440.88,0.04623
3435.1,0.04602
3429.31,0.04534
3423.52,0.04666
3417.74,0.04580
3411.95,0.04624
3406.16,0.04624
3400.38,0.04616
3394.59,0.04691
3388.81,0.04653
3383.02,0.04711
3377.23,0.04703
3371.45,0.04738
3365.66,0.04623
3359.87,0.04759
3354.09,0.04735
3348.3,0.04783
3342.52,0.04837
3336.73,0.04916
3330.94,0.05003
3325.16,0.05179
3319.37,0.05256
3313.58,0.05283
3307.8,0.05247
3302.01,0.05359
3296.23,0.05337
3290.44,0.05423
3284.65,0.05518
3278.87,0.05535
3273.08,0.05707
3267.29,0.05780
3261.51,0.05874
3255.72,0.06085
3249.94,0.06207
3244.15,0.06263
3238.36,0.06375
3232.58,0.06347
3226.79,0.06475
3221,0.06592
3215.22,0.06761
3209.43,0.06789
3203.65,0.06926
3197.86,0.07087
3192.07,0.07183
3186.29,0.07324
3180.5,0.07465
3174.71,0.07512
3168.93,0.07704
3163.14,0.07768
3157.36,0.07901
3151.57,0.08052
3145.78,0.08129
3140,0.08274
3134.21,0.08397
3128.42,0.08459
3122.64,0.08585
3116.85,0.08725
3111.07,0.08822
3105.28,0.08946
3099.49,0.09089
3093.71,0.09203
3087.92,0.09329
3082.14,0.09470
3076.35,0.09546
3070.56,0.09619
3064.78,0.09864
3058.99,0.09914
3053.2,0.10021
3047.42,0.10131
3041.63,0.10157
3035.85,0.10199
3030.06,0.10186
3024.27,0.10136
3018.49,0.10021
3012.7,0.09817
3006.91,0.09645
3001.13,0.09508
2995.34,0.09398
2989.56,0.09183
2983.77,0.08863
2977.98,0.08435
2972.2,0.07955
2966.41,0.07593
2960.62,0.07461
2954.84,0.07296
2949.05,0.07091
2943.27,0.06939
2937.48,0.06872
2931.69,0.06966
2925.91,0.06987
2920.12,0.06895
2914.33,0.06769
2908.55,0.06817
2902.76,0.06831
2896.98,0.06916
2891.19,0.07010
2885.4,0.07126
2879.62,0.07249
2873.83,0.07287
2868.04,0.07362
2862.26,0.07509
2856.47,0.07561
2850.69,0.07618
2844.9,0.07935
2839.11,0.08319
2833.33,0.08824
2827.54,0.09314
2821.75,0.09777
2815.97,0.10158
2810.18,0.10471
2804.4,0.10798
2798.61,0.10997
2792.82,0.11157
2787.04,0.11303
2781.25,0.11343
2775.46,0.11465
2769.68,0.11558
2763.89,0.11566
2758.11,0.11634
2752.32,0.11628
2746.53,0.11650
2740.75,0.11645
2734.96,0.11645
2729.17,0.11731
2723.39,0.11846
2717.6,0.11939
2711.82,0.12060
2706.03,0.12251
2700.24,0.12440
2694.46,0.12607
2688.67,0.12774
2682.88,0.12961
2677.1,0.13079
2671.31,0.13225
2665.53,0.13211
2659.74,0.13275
2653.95,0.13369
2648.17,0.13419
2642.38,0.13598
2636.59,0.13683
2630.81,0.13816
2625.02,0.13972
2619.24,0.14085
2613.45,0.14175
2607.66,0.14278
2601.88,0.14333
2596.09,0.14435
2590.3,0.14520
2584.52,0.14573
2578.73,0.14650
2572.95,0.14666
2567.16,0.14656
2561.37,0.14684
2555.59,0.14732
2549.8,0.14732
2544.02,0.14732
2538.23,0.14774
2532.44,0.14884
2526.66,0.14945
2520.87,0.15080
2515.08,0.15109
2509.3,0.15293
2503.51,0.15478
2497.73,0.15708
2491.94,0.15891
2486.15,0.16032
2480.37,0.16205
2474.58,0.16320
2468.79,0.16466
2463.01,0.16541
2457.22,0.16600
2451.44,0.16741
2445.65,0.16910
2439.86,0.17078
2434.08,0.17258
2428.29,0.17437
2422.5,0.17635
2416.72,0.17895
2410.93,0.18080
2405.15,0.18277
2399.36,0.18480
2393.57,0.18713
2387.79,0.18827
2382,0.18969
2376.21,0.19161
2370.43,0.19362
2364.64,0.19482
2358.86,0.19633
2353.07,0.19776
2347.28,0.19925
2341.5,0.20050
2335.71,0.20152
2329.92,0.20199
2324.14,0.20247
2318.35,0.20299
2312.57,0.20303
2306.78,0.20260
2300.99,0.20237
2295.21,0.20212
2289.42,0.20166
2283.63,0.20174
2277.85,0.20179
2272.06,0.20002
2266.28,0.19810
2260.49,0.19602
2254.7,0.19383
2248.92,0.19216
2243.13,0.19092
2237.34,0.19040
2231.56,0.19045
2225.77,0.19115
2219.99,0.19209
2214.2,0.19331
2208.41,0.19310
2202.63,0.19255
2196.84,0.19135
2191.05,0.18896
2185.27,0.18619
2179.48,0.18285
2173.7,0.17930
2167.91,0.17573
2162.12,0.17283
2156.34,0.17059
2150.55,0.16886
2144.76,0.16769
2138.98,0.16674
2133.19,0.16642
2127.41,0.16731
2121.62,0.16800
2115.83,0.16869
2110.05,0.16978
2104.26,0.17037
2098.47,0.17155
2092.69,0.17243
2086.9,0.17310
2081.12,0.17292
2075.33,0.17259
2069.54,0.17146
2063.76,0.17133
2057.97,0.17143
2052.19,0.17179
2046.4,0.17248
2040.61,0.17388
2034.83,0.17513
2029.04,0.17733
2023.25,0.17953
2017.47,0.18271
2011.68,0.18535
2005.9,0.18675
2000.11,0.18851
1994.32,0.18969
1988.54,0.19099
1982.75,0.19189
1976.96,0.19194
1971.18,0.19203
1965.39,0.19118
1959.61,0.19064
1953.82,0.19062
1948.03,0.19106
1942.25,0.19336
1936.46,0.19561
1930.67,0.19840
1924.89,0.20104
1919.1,0.20282
1913.32,0.20444
1907.53,0.20522
1901.74,0.20520
1895.96,0.20538
1890.17,0.20484
1884.38,0.20447
1878.6,0.20386
1872.81,0.20293
1867.03,0.20180
1861.24,0.19977
1855.45,0.19783
1849.67,0.19582
1843.88,0.19332
1838.09,0.19074
1832.31,0.18788
1826.52,0.18442
1820.74,0.18006
1814.95,0.17475
1809.16,0.16944
1803.38,0.16340
1797.59,0.15715
1791.8,0.15063
1786.02,0.14311
1780.23,0.13342
1774.45,0.12108
1768.66,0.10489
1762.87,0.08938
1757.09,0.07757
1751.3,0.07089
1745.51,0.06692
1739.73,0.06617
1733.94,0.06777
1728.16,0.07013
1722.37,0.07405
1716.58,0.07871
1710.8,0.08306
1705.01,0.08713
1699.22,0.08943
1693.44,0.08893
1687.65,0.08827
1681.87,0.08577
1676.08,0.08321
1670.29,0.08010
1664.51,0.07790
1658.72,0.07667
1652.93,0.07586
1647.15,0.07502
1641.36,0.07428
1635.58,0.07407
1629.79,0.07273
1624,0.07111
1618.22,0.06933
1612.43,0.06773
1606.64,0.06598
1600.86,0.06377
1595.07,0.06276
1589.29,0.06640
1583.5,0.07384
1577.71,0.08220
1571.93,0.08999
1566.14,0.09522
1560.35,0.09762
1554.57,0.09855
1548.78,0.09681
1543,0.09543
1537.21,0.09063
1531.42,0.08440
1525.64,0.07528
1519.85,0.06509
1514.07,0.06003
1508.28,0.05815
1502.49,0.05849
1496.71,0.06233
1490.92,0.06583
1485.13,0.06563
1479.35,0.06132
1473.56,0.05521
1467.78,0.05091
1461.99,0.05131
1456.2,0.05256
1450.42,0.05411
1444.63,0.05489
1438.84,0.05353
1433.06,0.05082
1427.27,0.05142
1421.49,0.05392
1415.7,0.05719
1409.91,0.05874
1404.13,0.05884
1398.34,0.05790
1392.55,0.05571
1386.77,0.05292
1380.98,0.05004
1375.2,0.04942
1369.41,0.05053
1363.62,0.05179
1357.84,0.05243
1352.05,0.05250
1346.26,0.05162
1340.48,0.05038
1334.69,0.04977
1328.91,0.05129
1323.12,0.05161
1317.33,0.05315
1311.55,0.05532
1305.76,0.05680
1299.97,0.05737
1294.19,0.05601
1288.4,0.05359
1282.62,0.05161
1276.83,0.05145
1271.04,0.05075
1265.26,0.04935
1259.47,0.04892
1253.68,0.04819
1247.9,0.04759
1242.11,0.04848
1236.33,0.04938
1230.54,0.05123
1224.75,0.05223
1218.97,0.05350
1213.18,0.05395
1207.39,0.05297
1201.61,0.05214
1195.82,0.05164
1190.04,0.04930
1184.25,0.04595
1178.46,0.04207
1172.68,0.03984
1166.89,0.04258
1161.1,0.04837
1155.32,0.05019
1149.53,0.04935
1143.75,0.04640
1137.96,0.04105
1132.17,0.03884
1126.39,0.04313
1120.6,0.04681
1114.81,0.04952
1109.03,0.05341
1103.24,0.05367
1097.46,0.05150
1091.67,0.04963
1085.88,0.04763
1080.1,0.04758
1074.31,0.05102
1068.52,0.05867
1062.74,0.07390
1056.95,0.08527
1051.17,0.08668
1045.38,0.08299
1039.59,0.08536
1033.81,0.09380
1028.02,0.09546
1022.24,0.09463
1016.45,0.09419
1010.66,0.09359
1004.88,0.09278
999.09,0.09231
993.304,0.09427
987.518,0.09661
981.731,0.10046
975.945,0.10350
970.159,0.10520
964.373,0.10684
958.586,0.11086
952.8,0.11391
947.014,0.11527
941.228,0.11506
935.441,0.11257
929.655,0.10978
923.869,0.10820
918.083,0.10467
912.297,0.10200
906.51,0.09925
900.724,0.09595
894.938,0.09697
889.152,0.09986
883.365,0.10184
877.579,0.10271
871.793,0.10326
866.007,0.10398
860.22,0.10258
854.434,0.10079
848.648,0.09746
842.862,0.09731
837.075,0.09519
831.289,0.09489
825.503,0.09527
819.717,0.09611
813.931,0.09417
808.144,0.09415
802.358,0.09191
796.572,0.09187
790.786,0.08993
784.999,0.08843
779.213,0.08626
773.427,0.08407
767.641,0.08245
761.854,0.07972
756.068,0.07808
750.282,0.07493
744.496,0.07292
738.709,0.07176
732.923,0.06942
727.137,0.06744
721.351,0.06533
715.565,0.06408
709.778,0.06449
703.992,0.06423
698.206,0.06521
692.42,0.06477
686.633,0.06315
680.847,0.06231
675.061,0.06040
669.275,0.06302
663.488,0.06272
657.702,0.06300
651.916,0.06305
646.13,0.06041
640.343,0.05946
634.557,0.05956
628.771,0.06041
622.985,0.05965
617.198,0.06213
611.412,0.06262
605.626,0.06791
599.84,0.06661