File: 01_Data/Cotton_Raw/Cone/Cotton_Raw_Cone_HF25-Frame+GridScan_200908_R2.csv
Names,Time,Stack TC,Smoke TC,Exh Press,Smoke Comp,Smoke Meas,CO Meter,CO2 Meter,O2 Meter,Sample Mass,Ext Coeff,Start Test,Flame Verif
Chan Gain,,500,500,1,1,1,1,1,1,1,1,1.0,1.0
Offset,,0,0,0.136754,0,0,0,0,0,0,0,0.0,0.0
Gain,,1,1,25.011,13.5073,16.5741,1,1,1,1.00105,1.03303,1.0,1.0
Units,sec,C,C,Pa,%,%,%,%,%,g,/m,,
Baseline,,22.5526,24.5017,169.206,100.301,100.287,0.000821989,0.0591498,20.9604,-948.036,0.00128208,,
3,0.5,20.4255,21.9157,174.115,100.42,100.465,0.000484043,0.0601291,20.9621,-32.1136,-0.0040642,0.0,0.0
6,1.25,19.5313,20.6979,166.842,100.413,100.289,0.000484904,0.0601961,20.9625,-32.1536,0.011194,0.0,0.0
9,2,19.5574,21.2025,168.648,100.418,100.386,0.000505014,0.0601841,20.9632,-32.1036,0.00290644,0.0,0.0
12,2.75,19.2763,21.1639,166.836,100.394,100.726,0.000535549,0.0602025,20.9637,-32.0635,-0.0299177,0.0,0.0
15,3.5,20.0326,21.5964,170.912,100.4,100.633,0.000556012,0.0602487,20.9636,-32.1136,-0.0209754,0.0,0.0
18,4.25,20.0443,21.2668,167.839,100.404,100.68,0.000564298,0.0603189,20.9634,-32.1536,-0.0248464,0.0,0.0
21,5,20.1438,21.7395,161.786,100.396,100.913,0.000558999,0.0605051,20.9632,-32.0835,-0.0465439,0.0,0.0
24,5.75,20.3398,21.6823,167.197,100.381,100.211,0.000545059,0.0607491,20.9631,-32.0435,0.0153705,0.0,0.0
27,6.5,20.0339,21.9602,171.264,100.391,100.405,0.000534923,0.0609732,20.963,-32.0735,-0.0012753,0.0,0.0
30,7.25,20.4098,22.3478,173.258,100.401,100.111,0.000537585,0.0613488,20.963,-32.1036,0.0262623,0.0,0.0
33,8,20.234,22.3701,171.715,100.392,100.526,0.000553384,0.0618392,20.9627,-32.0635,-0.0120288,0.0,0.0
36,8.75,20.6156,22.2945,171.456,100.39,100.349,0.000580763,0.0622891,20.9621,-32.2037,0.00368176,0.0,0.0
39,9.5,21.009,22.7591,170.774,100.387,100.6,0.000617739,0.0626045,20.9617,-32.1937,-0.0191679,0.0,0.0
42,10.25,20.5275,22.5429,165.363,100.394,100.319,0.000678875,0.0631073,20.9609,-32.2137,0.00678671,0.0,0.0
45,11,21.0855,22.6344,165.997,100.399,100.083,0.00075121,0.0635226,20.9602,-32.2337,0.0285864,0.0,0.0
48,11.75,21.0687,23.0578,166.773,100.379,100.047,0.000815781,0.0638254,20.9596,-32.2137,0.0300239,0.0,0.0
51,12.5,20.8373,22.8858,169.979,100.394,100.031,0.000892779,0.0640867,20.9592,-32.1436,0.0328292,0.0,0.0
54,13.25,20.6673,23.2931,170.479,100.387,99.8754,0.00100009,0.0643159,20.9589,-32.1636,0.046312,0.0,0.0
57,14,21.4364,23.2256,165.341,100.396,99.7843,0.00113245,0.0645196,20.9587,-32.2337,0.0553942,0.0,0.0
60,14.75,21.1999,23.3866,166.977,100.386,99.8637,0.00125494,0.0646467,20.9586,-32.1636,0.0472921,0.0,0.0
63,15.5,21.3025,22.8406,165.918,100.387,99.8526,0.0013887,0.0647028,20.9585,-32.2337,0.0483398,0.0,0.0
66,16.25,21.4531,22.9211,173.093,100.383,99.3812,0.00155857,0.0648656,20.9584,-32.2237,0.0909234,0.0,0.0
69,17,21.4914,23.4525,169.244,100.38,99.6007,0.0017294,0.0651077,20.9583,-32.1937,0.0706315,0.0,0.0
72,17.75,21.2717,23.239,171.56,100.39,99.5481,0.00189605,0.0654061,20.9583,-32.2537,0.0762741,0.0,0.0
75,18.5,21.2286,23.1474,171.402,100.369,99.2118,0.0020553,0.0657203,20.9583,-32.2938,0.105046,0.0,0.0
78,19.25,21.3037,22.8251,169.536,100.373,99.6285,0.0021714,0.066035,20.958,-32.2938,0.0675055,0.0,0.0
81,20,21.3213,23.1729,167.059,100.374,99.1779,0.00235285,0.0664109,20.9574,-32.3538,0.108626,0.0,0.0
84,20.75,21.2561,22.9344,169.871,100.362,99.3271,0.00252639,0.0668977,20.9566,-32.3738,0.0938875,0.0,0.0
87,21.5,21.438,23.3761,169.832,100.375,99.2153,0.0027148,0.0673098,20.9558,-32.3238,0.105281,0.0,0.0
90,22.25,21.2468,23.0771,168.95,100.376,99.6786,0.00286492,0.0677078,20.9552,-32.2838,0.0632124,0.0,0.0
93,23,21.3202,23.0273,169.371,100.391,98.975,0.0029798,0.067998,20.9543,-32.3438,0.128702,0.0,0.0
96,23.75,21.4911,23.2924,167.888,100.381,98.7029,0.00305444,0.0686161,20.9535,-32.4039,0.152758,0.0,0.0
99,24.5,21.0625,22.9737,167.633,100.37,99.1895,0.00311432,0.0690532,20.9529,-32.3138,0.107191,0.0,0.0
102,25.25,21.043,23.1796,167.73,100.38,99.3569,0.00317344,0.069366,20.9525,-32.2437,0.0928397,0.0,0.0
105,26,21.2701,23.0519,170.226,100.379,98.9361,0.0032222,0.0696908,20.9522,-32.3438,0.13119,0.0,0.0
108,26.75,21.1389,23.1763,168.084,100.387,98.8238,0.00327853,0.0701042,20.952,-32.3438,0.142225,0.0,0.0
111,27.5,21.1206,23.2068,168.91,100.385,98.2072,0.00339805,0.0704809,20.9518,-32.4339,0.198752,0.0,0.0
114,28.25,21.206,23.56,166.413,100.385,97.8689,0.00353386,0.0709105,20.9517,-32.4039,0.229991,0.0,0.0
117,29,21.2939,23.3965,165.844,100.383,98.3944,0.00367657,0.0711372,20.9509,-32.4339,0.181351,0.0,0.0
120,29.75,21.0874,23.7686,166.93,100.382,98.3924,0.00381984,0.0714084,20.9504,-32.4239,0.181426,0.0,0.0
123,30.5,21.5899,23.6905,165.995,100.384,98.1744,0.00398656,0.071606,20.95,-32.4539,0.201675,0.0,0.0
126,31.25,21.2293,23.7016,175.491,100.386,98.3084,0.00414922,0.0717286,20.9497,-32.4539,0.189534,0.0,0.0
129,32,21.7096,23.6657,164.482,100.396,98.0671,0.00430633,0.0717814,20.9495,-32.3939,0.212656,0.0,0.0
132,32.75,21.3906,23.3866,170.242,100.388,98.2993,0.00445677,0.0718004,20.9494,-32.4639,0.190559,0.0,0.0
135,33.5,21.5847,23.7736,167.117,100.378,98.2998,0.00461188,0.0719094,20.9493,-32.474,0.189582,0.0,0.0
138,34.25,21.4229,24.1353,164.399,100.385,97.356,0.00480268,0.0720294,20.9492,-32.6141,0.27764,0.0,0.0
141,35,21.1847,23.8853,166.256,100.385,97.6104,0.00501926,0.0724271,20.9489,-32.5941,0.253954,0.0,0.0
144,35.75,21.3308,24.0037,170.948,100.379,98.0029,0.00521018,0.0728387,20.9483,-32.5941,0.217068,0.0,0.0
147,36.5,21.8357,23.7565,171.141,100.38,97.8203,0.00546197,0.0733469,20.9473,-32.554,0.234079,0.0,0.0
150,37.25,21.3265,23.5417,167.104,100.381,96.6367,0.00567324,0.0740182,20.9465,-32.5741,0.344464,0.0,0.0
153,38,21.07,23.5732,168.425,100.378,97.2123,0.00579999,0.0750222,20.9459,-32.6041,0.290351,0.0,0.0
156,38.75,21.4124,23.845,169.672,100.376,97.4809,0.00584576,0.0800115,20.9387,-32.6041,0.265164,0.0,0.0
159,39.5,21.7389,23.9549,168.943,100.382,96.3191,0.00572426,0.0890147,20.9255,-32.7142,0.374372,0.0,0.0
162,40.25,21.4436,24.0102,159.711,100.371,100.347,0.00563569,0.10165,20.9126,-32.7643,0.00215265,0.0,1.0
165,41,22.1985,25.2314,161.557,100.377,100.586,0.00530848,0.117845,20.8976,-32.6541,-0.0187847,0.0,1.0
168,41.75,22.8604,25.7976,168.262,100.378,101,0.00495193,0.13176,20.8866,-32.7242,-0.056036,0.0,1.0
171,42.5,23.0137,26.6045,166.663,100.377,100.527,0.0046417,0.142805,20.8773,-32.9144,-0.0134978,0.0,1.0
174,43.25,23.3573,26.8654,166.062,100.361,100.795,0.00435301,0.152082,20.87,-32.9044,-0.0391641,0.0,1.0
177,44,24.1466,28.2632,164.728,100.379,101.216,0.00403563,0.159018,20.8638,-32.9144,-0.0751982,0.0,1.0
180,44.75,24.3725,28.3539,165.227,100.373,100.615,0.00375875,0.164372,20.8589,-32.9745,-0.0217999,0.0,1.0
183,45.5,23.2251,27.2555,170.679,100.374,100.706,0.00353904,0.168456,20.8553,-33.0345,-0.0298841,0.0,0.0
186,46.25,23.2728,27.4554,165.757,100.376,101.164,0.00337127,0.171744,20.852,-33.1146,-0.0707933,0.0,0.0
189,47,23.551,27.519,157.595,100.366,101.416,0.00322714,0.174308,20.8492,-33.1346,-0.0942209,0.0,0.0
192,47.75,23.5174,28.1307,166.766,100.384,101.039,0.00311135,0.176462,20.847,-33.2147,-0.0589255,0.0,0.0
195,48.5,23.784,28.3238,165.905,100.373,100.88,0.00300858,0.1783,20.8447,-33.1747,-0.0456384,0.0,0.0
198,49.25,24.2699,28.3475,161.881,100.373,100.686,0.00289734,0.179726,20.8431,-33.1947,-0.0281827,0.0,0.0
201,50,23.9323,28.7007,161.227,100.368,100.819,0.00278825,0.180802,20.8421,-33.2548,-0.0406228,0.0,0.0
204,50.75,24.4489,29.1823,158.019,100.371,100.682,0.00269009,0.181751,20.8418,-33.2948,-0.0280793,0.0,0.0
207,51.5,24.2787,29.5584,166.665,100.378,100.337,0.00260709,0.182458,20.8416,-33.3649,0.00372819,0.0,0.0
210,52.25,24.2676,29.5072,160.486,100.366,101.25,0.00254658,0.182979,20.8414,-33.4049,-0.0794303,0.0,0.0
213,53,24.8428,29.8782,166.034,100.371,100.7,0.00250917,0.183194,20.8413,-33.4249,-0.0296723,0.0,0.0
216,53.75,24.7668,30.3418,166.398,100.384,101.405,0.00249334,0.183193,20.8412,-33.3949,-0.0917086,0.0,0.0
219,54.5,25.3346,30.101,158.058,100.381,101.406,0.0024818,0.183018,20.8415,-33.455,-0.0920676,0.0,0.0
222,55.25,25.1893,30.5511,166.753,100.379,100.607,0.00251498,0.18271,20.842,-33.5251,-0.0205948,0.0,0.0
225,56,25.4531,30.6456,165.183,100.365,101.955,0.00255955,0.18228,20.8421,-33.5251,-0.142427,0.0,0.0
228,56.75,25.2802,30.536,164.074,100.385,100.759,0.00260073,0.181966,20.8422,-33.5551,-0.0336566,0.0,0.0
231,57.5,25.9357,30.7432,167.954,100.378,101.313,0.00265618,0.181471,20.8422,-33.6051,-0.0840455,0.0,0.0
234,58.25,25.3616,30.6257,165.123,100.381,100.44,0.00269661,0.180951,20.8423,-33.6652,-0.00535413,0.0,0.0
237,59,25.8207,31.029,164.757,100.381,100.838,0.00272608,0.1803,20.8423,-33.7453,-0.0411589,0.0,0.0
240,59.75,25.5507,30.8236,160.256,100.385,101.401,0.00273303,0.179653,20.8423,-33.7153,-0.0911985,0.0,0.0
243,60.5,25.4134,30.8699,166.374,100.381,100.714,0.00272536,0.179221,20.8423,-33.6952,-0.0300987,0.0,0.0
246,61.25,25.6641,31.0514,166.917,100.383,100.869,0.00271433,0.179099,20.8423,-33.7953,-0.0437538,0.0,0.0
249,62,25.9555,30.945,165.601,100.403,100.628,0.00268847,0.179339,20.8424,-33.8554,-0.0202673,0.0,0.0
252,62.75,26.0784,30.844,164.241,100.393,101.21,0.00265331,0.179456,20.8424,-33.8954,-0.0734344,0.0,0.0
255,63.5,25.6607,31.0891,168.699,100.386,100.776,0.00261279,0.179517,20.8424,-33.8954,-0.0351285,0.0,0.0
258,64.25,26.36,31.3258,167.808,100.371,100.893,0.00256692,0.179582,20.8424,-33.9455,-0.0469598,0.0,0.0
261,65,25.957,31.0174,161.361,100.367,101.047,0.00253348,0.179606,20.8424,-33.9955,-0.0612227,0.0,0.0
264,65.75,26.2337,31.0201,167.859,100.367,100.867,0.00250666,0.179585,20.8424,-34.0056,-0.0449778,0.0,0.0
267,66.5,26.1201,30.8553,163.481,100.371,100.691,0.00249879,0.179355,20.8425,-34.0456,-0.0288985,0.0,0.0
270,67.25,26.1181,31.2941,164.819,100.369,100.543,0.00251481,0.178989,20.8427,-34.0956,-0.0157381,0.0,0.0
273,68,26.0422,31.1221,162.948,100.346,100.608,0.00256644,0.178542,20.8428,-34.1257,-0.0236182,0.0,0.0
276,68.75,25.9853,31.307,164.19,100.357,100.951,0.00260408,0.178111,20.8433,-34.1757,-0.0534109,0.0,0.0
279,69.5,25.9577,31.2445,165.974,100.365,101.205,0.0026417,0.177617,20.8438,-34.1857,-0.0755119,0.0,0.0
282,70.25,25.7725,31.0555,168.172,100.364,100.854,0.00267013,0.177199,20.8442,-34.2458,-0.0441023,0.0,0.0
285,71,25.6763,31.3071,162.189,100.353,100.713,0.00268512,0.17687,20.845,-34.2458,-0.0325014,0.0,0.0
288,71.75,26.2143,31.4125,163.86,100.354,101.034,0.00269423,0.176385,20.8457,-34.2858,-0.0611515,0.0,0.0
291,72.5,26.2171,31.2177,167.163,100.355,100.806,0.00270851,0.175979,20.8462,-34.3159,-0.0406315,0.0,0.0
294,73.25,26.2381,31.4528,162.561,100.359,101.551,0.00273023,0.175593,20.8466,-34.3459,-0.106995,0.0,0.0
297,74,25.5946,30.8592,167.777,100.343,101.003,0.00275983,0.17527,20.8469,-34.3559,-0.0593969,0.0,0.0
300,74.75,26.1236,31.1682,171.132,100.357,100.892,0.00280868,0.17496,20.8471,-34.456,-0.0481722,0.0,0.0
303,75.5,25.9044,31.4541,162.113,100.373,100.646,0.00284429,0.174605,20.8472,-34.456,-0.0246152,0.0,0.0
306,76.25,26.4536,31.5412,164.185,100.363,100.763,0.00290852,0.174162,20.8473,-34.5261,-0.0360672,0.0,0.0
309,77,26.2017,30.798,169.293,100.358,101.137,0.00297167,0.173782,20.8474,-34.5762,-0.0700291,0.0,0.0
312,77.75,26.699,31.3564,165.463,100.352,100.745,0.0030509,0.173481,20.8475,-34.5561,-0.0354799,0.0,0.0
315,78.5,26.7353,31.373,164.229,100.352,101.017,0.00314031,0.173132,20.8475,-34.5762,-0.05984,0.0,0.0
318,79.25,26.3326,31.2293,167.209,100.358,100.699,0.0032354,0.172823,20.8482,-34.5862,-0.0307805,0.0,0.0
321,80,26.6347,31.8874,161.414,100.339,100.854,0.00335763,0.172427,20.8486,-34.6462,-0.0463729,0.0,0.0
324,80.75,25.5803,30.7844,165.11,100.347,101.389,0.00348644,0.172064,20.849,-34.7163,-0.0936201,0.0,0.0
327,81.5,26.6391,31.2641,164.916,100.35,101.102,0.00359726,0.171434,20.8492,-34.8364,-0.0676835,0.0,0.0
330,82.25,26.3659,30.987,159.826,100.342,101.036,0.00374388,0.170831,20.8498,-34.8164,-0.0624577,0.0,0.0
333,83,26.2044,31.0209,162.198,100.341,101.053,0.00387509,0.170331,20.8505,-34.8364,-0.0641036,0.0,0.0
336,83.75,25.867,30.6567,165.052,100.333,100.455,0.00401233,0.169661,20.851,-34.8464,-0.0110034,0.0,0.0
339,84.5,26.3993,31.7524,163.757,100.34,100.829,0.00414903,0.168944,20.8517,-34.8564,-0.0441083,0.0,0.0
342,85.25,26.1729,31.1378,160.831,100.345,101.51,0.00425674,0.168324,20.8525,-34.8765,-0.104604,0.0,0.0
345,86,26.5096,31.0777,164.815,100.338,100.71,0.00434905,0.167547,20.853,-34.8665,-0.0334858,0.0,0.0
348,86.75,26.5094,31.0129,170.272,100.348,100.734,0.00441505,0.166921,20.8533,-34.9365,-0.0347685,0.0,0.0
351,87.5,25.8722,30.404,168.037,100.341,100.756,0.00445789,0.166362,20.8534,-34.9265,-0.0374029,0.0,0.0
354,88.25,26.6109,31.482,165.881,100.339,100.893,0.00448102,0.165893,20.8535,-34.9465,-0.0498258,0.0,0.0
357,89,26.295,31.2085,165.131,100.33,100.963,0.00449788,0.165402,20.8535,-35.0166,-0.0569942,0.0,0.0
360,89.75,26.1293,31.0691,162.798,100.338,100.551,0.00451017,0.164786,20.8543,-35.0466,-0.019221,0.0,0.0
363,90.5,26.0083,30.8967,168.529,100.331,100.505,0.00451913,0.164296,20.8551,-35.0967,-0.0156969,0.0,0.0
366,91.25,25.8372,30.3942,167.469,100.331,100.634,0.00457335,0.16394,20.8558,-35.1267,-0.0273641,0.0,0.0
369,92,26.0915,30.6656,161.285,100.327,101.153,0.00464505,0.163582,20.8562,-35.1768,-0.0742632,0.0,0.0
372,92.75,26.3797,31.2111,168.053,100.325,100.695,0.0047471,0.163155,20.8566,-35.1868,-0.0333112,0.0,0.0
375,93.5,26.2554,30.8483,165.773,100.31,100.451,0.00485656,0.162621,20.8568,-35.2669,-0.0127692,0.0,0.0
378,94.25,26.3123,31.0876,164.96,100.322,100.962,0.00497001,0.162105,20.8576,-35.3269,-0.0576187,0.0,0.0
381,95,26.2551,30.7548,165.747,100.326,100.582,0.00510425,0.161511,20.8586,-35.3069,-0.0231644,0.0,0.0
384,95.75,25.9277,30.7095,165.223,100.319,100.945,0.00523204,0.160855,20.8595,-35.4371,-0.0562914,0.0,0.0
387,96.5,26.0887,30.4535,165.819,100.32,100.73,0.00537637,0.160278,20.8602,-35.5572,-0.036982,0.0,0.0
390,97.25,25.9665,30.4036,162.445,100.334,100.995,0.00552382,0.159725,20.8607,-35.5071,-0.0595274,0.0,0.0
393,98,26.0814,30.621,163.237,100.323,100.814,0.00570355,0.159169,20.8611,-35.5171,-0.044188,0.0,0.0
396,98.75,25.6322,30.1522,164.28,100.33,101.011,0.00590071,0.158561,20.8613,-35.5271,-0.0613516,0.0,0.0
399,99.5,26.0612,30.2945,164.439,100.311,101.187,0.00610203,0.157984,20.8615,-35.5772,-0.0788408,0.0,0.0
402,100.25,26.3058,30.3733,163.741,100.314,100.436,0.00629906,0.157333,20.8617,-35.6172,-0.0110651,0.0,0.0
405,101,26.1023,29.8062,164.674,100.329,101.371,0.00650577,0.15639,20.8631,-35.6072,-0.0936304,0.0,0.0
408,101.75,25.9416,30.5744,161.039,100.319,101.158,0.00669551,0.1549,20.8647,-35.7474,-0.0753867,0.0,0.0
411,102.5,26.5922,30.2177,163.334,100.319,100.701,0.00685049,0.152909,20.8658,-35.7274,-0.0344541,0.0,0.0
414,103.25,25.9549,30.0764,167.238,100.323,100.647,0.00699506,0.151516,20.8667,-35.6773,-0.0292556,0.0,0.0
417,104,25.7911,29.9738,160.146,100.35,100.912,0.00706895,0.150602,20.8671,-35.6873,-0.050622,0.0,0.0
420,104.75,25.6222,29.5681,163.302,100.324,100.958,0.00717849,0.150379,20.8676,-35.7173,-0.0570697,0.0,0.0
423,105.5,25.7266,30.1663,159.177,100.335,100.532,0.00728182,0.150174,20.868,-35.7974,-0.0177954,0.0,0.0
426,106.25,25.5036,29.7116,164.79,100.323,101.197,0.00736716,0.150006,20.8682,-35.8375,-0.078539,0.0,0.0
429,107,25.6376,30.2394,163.348,100.327,101.455,0.00745729,0.149328,20.8689,-35.8475,-0.101282,0.0,0.0
432,107.75,25.5198,29.6506,164.338,100.338,100.559,0.00752822,0.14833,20.8697,-35.8275,-0.0199425,0.0,0.0
435,108.5,26.2125,30.0345,161.784,100.336,100.67,0.00758009,0.147234,20.8708,-35.9075,-0.030121,0.0,0.0
438,109.25,25.9851,29.8651,167.811,100.344,101.087,0.00761438,0.146275,20.8719,-35.9176,-0.0668895,0.0,0.0
441,110,26.0811,29.8306,162.757,100.338,100.685,0.00764982,0.145457,20.873,-35.8775,-0.0312097,0.0,0.0
444,110.75,26.0496,30.111,162.388,100.345,100.818,0.00768011,0.144659,20.8738,-35.9276,-0.0425789,0.0,0.0
447,111.5,25.3668,29.3211,166.088,100.331,100.442,0.00777537,0.1435,20.8743,-35.9676,-0.010049,0.0,0.0
450,112.25,25.335,29.4807,162.519,100.331,100.706,0.00787602,0.141879,20.8752,-36.0377,-0.0338295,0.0,0.0
453,113,25.23,29.7722,161.814,100.338,100.339,0.00805681,0.139789,20.8766,-36.0177,-9.34405e-05,0.0,0.0
456,113.75,25.4029,29.6429,166.923,100.349,99.7413,0.00823439,0.13737,20.8788,-36.0777,0.0550195,0.0,0.0
459,114.5,25.4779,28.8513,167.178,100.342,100.184,0.00843311,0.135225,20.8808,-36.1478,0.0142673,0.0,0.0
462,115.25,25.3638,28.8621,165.751,100.349,101.043,0.00860046,0.133662,20.8825,-36.2379,-0.0624523,0.0,0.0
465,116,25.1996,29.0911,164.596,100.354,100.244,0.00871195,0.132224,20.8837,-36.1778,0.00994132,0.0,0.0
468,116.75,25.4206,28.832,168.976,100.347,100.276,0.00878875,0.131538,20.8846,-36.2079,0.006383,0.0,0.0
471,117.5,25.0704,28.854,165.512,100.348,100.344,0.0087923,0.131311,20.8852,-36.1278,0.000333785,0.0,0.0
474,118.25,25.2889,28.5767,169.584,100.348,100.823,0.00879489,0.131346,20.8857,-36.1878,-0.0427819,0.0,0.0
477,119,25.4499,29.1913,166.262,100.352,100.52,0.00873505,0.131472,20.886,-36.2279,-0.0151294,0.0,0.0
480,119.75,25.521,28.7583,163.672,100.349,100.846,0.00868798,0.131493,20.8863,-36.2579,-0.0447976,0.0,0.0
483,120.5,25.4658,28.8141,169.655,100.343,100.463,0.00864776,0.131479,20.8865,-36.2879,-0.0107568,0.0,0.0
486,121.25,24.6444,28.8994,164.909,100.355,100.39,0.00864462,0.131162,20.8866,-36.328,-0.00314294,0.0,0.0
489,122,25.2158,28.7403,162.105,100.35,100.55,0.00867119,0.130615,20.8872,-36.348,-0.0180427,0.0,0.0
492,122.75,25.3315,29.0282,164.277,100.356,100.895,0.00871115,0.129903,20.8883,-36.348,-0.0484812,0.0,0.0
495,123.5,25.0255,27.9054,169.494,100.366,100.906,0.00875445,0.129202,20.8892,-36.4081,-0.0485957,0.0,0.0
498,124.25,25.5381,28.4685,166.068,100.355,100.832,0.00879258,0.128585,20.8898,-36.4281,-0.0429664,0.0,0.0
501,125,24.7847,27.8423,164.588,100.364,99.884,0.00882318,0.128085,20.8903,-36.4681,0.0434097,0.0,0.0
504,125.75,25.0602,27.6038,169.237,100.365,100.165,0.00884735,0.127566,20.8906,-36.4381,0.0181276,0.0,0.0
507,126.5,24.5699,28.2069,167.207,100.368,99.9027,0.00886291,0.127087,20.8909,-36.4481,0.0420852,0.0,0.0
510,127.25,25.1502,28.2028,165.851,100.373,100.306,0.0088707,0.126674,20.8911,-36.4982,0.00607643,0.0,0.0
513,128,24.6137,27.8444,167.749,100.378,100.818,0.00887376,0.126318,20.8912,-36.5582,-0.0396094,0.0,0.0
516,128.75,24.448,28.4546,172.018,100.379,100.321,0.0088797,0.126034,20.8913,-36.5482,0.00521818,0.0,0.0
519,129.5,24.6298,28.0001,170.554,100.382,100.552,0.00889231,0.125847,20.8914,-36.5883,-0.015322,0.0,0.0
522,130.25,24.6299,27.5744,165.253,100.372,100.274,0.00891086,0.125683,20.8914,-36.5782,0.00879854,0.0,0.0
525,131,24.3541,27.7599,165.604,100.385,100.656,0.00891913,0.125552,20.8914,-36.5983,-0.0244094,0.0,0.0
528,131.75,24.4401,27.3093,162.861,100.385,100.763,0.00892292,0.125337,20.8915,-36.6984,-0.0340122,0.0,0.0
531,132.5,24.5637,27.5281,164.831,100.37,100.241,0.00893488,0.124985,20.8917,-36.6984,0.0117129,0.0,0.0
534,133.25,24.2869,27.8062,164.442,100.387,100.506,0.00895581,0.124645,20.8923,-36.7084,-0.010772,0.0,0.0
537,134,24.8244,27.8804,168.909,100.372,100.123,0.00898526,0.123961,20.8927,-36.6984,0.0225218,0.0,0.0
540,134.75,24.9924,28.104,164.128,100.383,100.172,0.00904234,0.123338,20.893,-36.6884,0.0190784,0.0,0.0
543,135.5,24.6702,27.2572,170.451,100.378,100.476,0.00908395,0.122671,20.8932,-36.6984,-0.00881736,0.0,0.0
546,136.25,23.9773,27.4748,162.192,100.378,99.9305,0.00912481,0.122383,20.8935,-36.7184,0.0404915,0.0,0.0
549,137,24.4348,27.3511,167.095,100.366,100.515,0.00914732,0.122381,20.8939,-36.7484,-0.0134529,0.0,0.0
552,137.75,24.7736,27.2059,168.368,100.38,99.8324,0.00914361,0.122469,20.8941,-36.7484,0.0495807,0.0,0.0
555,138.5,24.4681,27.4223,166.6,100.38,99.8334,0.00911594,0.122519,20.8943,-36.8285,0.0494883,0.0,0.0
558,139.25,24.0092,26.7977,167.934,100.389,99.971,0.00908513,0.12253,20.8945,-36.8385,0.0377908,0.0,0.0
561,140,24.2733,27.1279,165.997,100.371,100.558,0.00908106,0.122578,20.8946,-36.8385,-0.0168446,0.0,0.0
564,140.75,24.372,27.2051,169.088,100.382,100.491,0.00911847,0.122459,20.8946,-36.8085,-0.00989546,0.0,0.0
567,141.5,23.8986,27.6373,163.658,100.383,100.485,0.00920136,0.122109,20.8953,-36.8385,-0.00920014,0.0,0.0
570,142.25,24.3318,27.0956,166.9,100.383,100.63,0.00933881,0.120827,20.8967,-36.9086,-0.0221897,0.0,0.0
573,143,23.8566,26.9456,163.819,100.376,99.0115,0.00947857,0.119454,20.8987,-36.9787,0.12403,0.0,0.0
576,143.75,23.8575,26.6131,166.866,100.386,98.5674,0.00959732,0.116972,20.9014,-36.9687,0.165695,0.0,0.0
579,144.5,22.5742,25.5683,169.315,100.392,99.0519,0.00972718,0.114806,20.9046,-37.0387,0.121778,0.0,0.0
582,145.25,22.6754,25.6408,167.113,100.389,99.1763,0.00983505,0.112618,20.9069,-36.9186,0.110104,0.0,0.0
585,146,22.3229,24.9061,166.488,100.388,99.0529,0.00991931,0.110491,20.9086,-37.0187,0.121276,0.0,0.0
588,146.75,21.8501,24.7402,164.135,100.385,99.0777,0.00998999,0.108803,20.9099,-37.0187,0.118786,0.0,0.0
591,147.5,22.3012,24.4731,164.814,100.399,98.1885,0.0100517,0.107463,20.9108,-37.0087,0.201707,0.0,0.0
594,148.25,21.7443,24.9306,164.941,100.392,98.7874,0.0101074,0.106399,20.9114,-37.0587,0.146011,0.0,0.0
597,149,22.149,24.7033,164.599,100.388,99.2325,0.0101693,0.105541,20.9119,-37.1388,0.104865,0.0,0.0
600,149.75,22.2096,24.9733,161.462,100.388,99.2886,0.0102277,0.10488,20.9123,-37.1388,0.0998137,0.0,0.0
603,150.5,22.5258,24.7021,167.079,100.394,99.0899,0.0102773,0.104274,20.9134,-37.1388,0.118457,0.0,0.0
606,151.25,22.0431,24.5632,166.111,100.395,99.1834,0.0103022,0.103751,20.9142,-37.1689,0.110016,0.0,0.0
609,152,21.8546,24.3687,169.24,100.411,98.4647,0.0103065,0.103319,20.9148,-37.1589,0.177372,0.0,0.0
612,152.75,21.7393,24.1385,164.097,100.402,99.5506,0.0102858,0.102928,20.9152,-37.1288,0.077161,0.0,0.0
615,153.5,22.1955,24.5118,170.061,100.397,99.4626,0.0102456,0.102606,20.9155,-37.1689,0.0846918,0.0,0.0
618,154.25,21.9744,24.4249,165.486,100.404,99.7985,0.0102056,0.102309,20.9157,-37.1889,0.0548144,0.0,0.0
621,155,21.8998,23.7859,165.029,100.411,99.2148,0.0101576,0.102152,20.9159,-37.1589,0.10864,0.0,0.0
624,155.75,21.6051,24.1807,164.076,100.395,99.0211,0.0101121,0.102001,20.916,-37.1789,0.124899,0.0,0.0
627,156.5,21.944,24.434,166.728,100.403,98.8562,0.0100668,0.101829,20.9161,-37.259,0.140671,0.0,0.0
630,157.25,21.75,24.2129,171.203,100.405,98.9801,0.0100207,0.101524,20.9168,-37.279,0.129504,0.0,0.0
633,158,21.8898,24.2767,164.215,100.402,99.1116,0.00996635,0.10119,20.9173,-37.309,0.117176,0.0,0.0
636,158.75,21.9639,24.3946,169.669,100.399,99.4657,0.00992676,0.100884,20.9177,-37.3491,0.0846757,0.0,0.0
639,159.5,21.6523,23.8573,170.158,100.4,98.8294,0.00989443,0.100662,20.9179,-37.3891,0.142904,0.0,0.0
642,160.25,21.7955,24.3328,172.735,100.411,99.1374,0.00986493,0.100506,20.9184,-37.4091,0.11571,0.0,0.0
645,161,21.996,24.1156,172.686,100.406,98.9331,0.00982746,0.100406,20.9188,-37.3991,0.133961,0.0,0.0
648,161.75,21.2325,23.7798,164.564,100.397,99.2568,0.00977288,0.100368,20.9191,-37.3891,0.103541,0.0,0.0
651,162.5,21.6278,23.7556,170.258,100.398,99.2745,0.009688,0.100403,20.9192,-37.3691,0.101999,0.0,0.0
654,163.25,22.1055,24.2842,170.088,100.405,98.9088,0.00960881,0.100378,20.9194,-37.3791,0.136036,0.0,0.0
657,164,21.5529,23.9296,169.709,100.408,99.6741,0.00952148,0.100273,20.9195,-37.3991,0.0664546,0.0,0.0
660,164.75,22.0241,23.8099,165.696,100.414,99.0701,0.00940531,0.100045,20.9196,-37.3691,0.122121,0.0,0.0
663,165.5,21.8514,23.7802,171.174,100.415,99.104,0.00927728,0.0998139,20.9198,-37.3691,0.119096,0.0,0.0
666,166.25,21.1006,23.3219,169.066,100.41,99.4581,0.00914752,0.0994495,20.9204,-37.3791,0.0862969,0.0,0.0
669,167,21.2838,23.8704,166.813,100.408,98.9356,0.00902222,0.0990327,20.9209,-37.3691,0.133878,0.0,0.0
672,167.75,21.7969,24.049,168.358,100.403,99.1086,0.00892535,0.0986426,20.9212,-37.4892,0.117565,0.0,0.0
675,168.5,21.6521,23.8678,166.926,100.396,99.5415,0.00884529,0.0983212,20.9214,-37.4892,0.0774319,0.0,0.0
678,169.25,21.7446,24.1059,167.131,100.394,99.2279,0.00881125,0.0983025,20.9214,-37.4692,0.105838,0.0,0.0
681,170,21.2171,23.2438,165.992,100.41,100.424,0.00879748,0.0983758,20.9209,-37.4792,-0.00126072,0.0,0.0
684,170.75,21.281,23.5414,165.672,100.387,99.142,0.00880634,0.0985777,20.9206,-37.5292,0.113062,0.0,0.0
687,171.5,21.6989,23.9904,164.477,100.399,99.7737,0.00881654,0.0987104,20.9204,-37.5392,0.0566567,0.0,0.0
690,172.25,21.3763,23.8794,167.215,100.406,99.2249,0.00880429,0.0987824,20.9202,-37.6093,0.107194,0.0,0.0
693,173,21.7397,24.2192,163.703,100.415,99.5739,0.00878697,0.098678,20.9201,-37.6293,0.0762334,0.0,0.0
696,173.75,21.6925,24.1118,168.194,100.42,99.5157,0.00872011,0.0985801,20.92,-37.5893,0.0819378,0.0,0.0
699,174.5,21.0866,23.5205,166.812,100.409,99.5835,0.00867137,0.0985079,20.9199,-37.5793,0.0747647,0.0,0.0
702,175.25,21.044,23.6054,167.874,100.417,99.8233,0.00854431,0.098517,20.9199,-37.6293,0.0537181,0.0,0.0
705,176,21.6217,23.6511,163.469,100.413,100.078,0.00840591,0.0985788,20.9198,-37.6794,0.0303178,0.0,0.0
708,176.75,21.7492,23.5142,169.045,100.404,99.536,0.0082642,0.0986472,20.9198,-37.6093,0.0787193,0.0,0.0
711,177.5,21.3427,23.6546,166.191,100.403,99.933,0.00812444,0.0987796,20.9198,-37.6293,0.0424948,0.0,0.0
714,178.25,21.6805,23.6447,165.233,100.407,99.8905,0.00799906,0.0989041,20.9198,-37.7094,0.046758,0.0,0.0
717,179,21.1419,23.6516,167.017,100.416,99.6316,0.0078846,0.0989824,20.9198,-37.7395,0.0710613,0.0,0.0
720,179.75,21.7217,23.4168,166.995,100.394,99.4677,0.00779148,0.0989983,20.9198,-37.7094,0.0839704,0.0,0.0
723,180.5,21.9879,23.543,165.322,100.414,99.8349,0.00771655,0.0989705,20.9198,-37.7695,0.0524015,0.0,0.0
726,181.25,20.9421,23.408,171.808,100.394,99.4738,0.00766192,0.0989132,20.9198,-37.6794,0.0834182,0.0,0.0
729,182,21.5328,23.5836,164.515,100.395,99.9148,0.00760519,0.0989498,20.9198,-37.6794,0.0434399,0.0,0.0
732,182.75,21.0258,23.7755,167.753,100.403,99.6498,0.00756383,0.0990316,20.9198,-37.7595,0.0682152,0.0,0.0
735,183.5,20.9823,23.6546,168.996,100.385,100.011,0.00752455,0.0991146,20.9196,-37.7495,0.0338344,0.0,0.0
738,184.25,20.8921,22.9544,167.004,100.393,100.262,0.0074838,0.0989191,20.9193,-37.7495,0.0118769,0.0,0.0
741,185,21.7923,24.0627,169.216,100.404,99.8506,0.00744002,0.0987765,20.9191,-37.7595,0.050048,0.0,0.0
744,185.75,21.4103,23.8772,166.919,100.399,99.9593,0.00736351,0.0987826,20.9189,-37.7695,0.0397376,0.0,0.0
747,186.5,21.6908,23.3557,161.088,100.396,99.7368,0.00728171,0.0988339,20.9188,-37.7495,0.0597136,0.0,0.0
750,187.25,21.9038,24.001,168.639,100.387,99.9497,0.00720688,0.0990283,20.9187,-37.7395,0.0395677,0.0,0.0
753,188,21.5346,24.0147,159.844,100.405,99.4738,0.0071453,0.0991975,20.9186,-37.7695,0.0844221,0.0,0.0
756,188.75,21.7759,23.4923,170.017,100.393,99.3124,0.00711472,0.0993254,20.9186,-37.7895,0.0980902,0.0,0.0
759,189.5,21.8497,23.9788,165.276,100.4,99.6968,0.00709852,0.0994062,20.9185,-37.7795,0.063679,0.0,0.0
762,190.25,22.1273,23.6491,169.709,100.385,100.072,0.00709971,0.0993081,20.9185,-37.7795,0.0282913,0.0,0.0
765,191,21.3938,24.2929,161.681,100.39,100.373,0.00709159,0.0991643,20.9185,-37.8095,0.00152732,0.0,0.0
768,191.75,21.5564,24.2824,168.694,100.396,99.6447,0.00706746,0.0989357,20.9185,-37.8396,0.0680437,0.0,0.0
771,192.5,21.7015,24.4786,171.482,100.395,99.7605,0.00702528,0.0985903,20.9187,-37.8396,0.057479,0.0,0.0
774,193.25,21.6341,23.8666,165.242,100.388,99.7484,0.00695189,0.0981828,20.9189,-37.8796,0.0579491,0.0,0.0
777,194,21.6481,23.3101,168.117,100.377,99.8642,0.00688403,0.0977497,20.919,-37.8596,0.0463904,0.0,0.0
780,194.75,21.8292,23.9948,167.13,100.375,99.9962,0.00681001,0.0974155,20.9191,-37.8396,0.0342337,0.0,0.0
783,195.5,21.9482,23.3487,165.608,100.381,99.713,0.0067499,0.0973092,20.9191,-37.8996,0.0604593,0.0,0.0
786,196.25,21.5818,23.6158,167.904,100.371,100.163,0.00669557,0.0972903,20.9198,-37.9196,0.0187852,0.0,0.0
789,197,21.2162,23.6148,165.781,100.371,100.133,0.00666892,0.0973728,20.9199,-37.9697,0.0215692,0.0,0.0
792,197.75,21.5226,23.6005,166.154,100.371,99.8592,0.00664819,0.0974666,20.9197,-37.9897,0.0462916,0.0,0.0
795,198.5,21.5025,23.7975,166.8,100.363,100.201,0.00662502,0.0975227,20.9196,-37.9797,0.0146102,0.0,0.0
798,199.25,20.9134,23.7364,165.931,100.371,99.9603,0.00659527,0.0974811,20.9195,-37.9697,0.0371163,0.0,0.0
801,200,20.9714,23.3873,161.8,100.382,100.474,0.00653287,0.0973795,20.9199,-37.9897,-0.00829944,0.0,0.0
804,200.75,21.6674,24.1186,163.438,100.366,99.7439,0.00646405,0.0972435,20.9204,-37.9797,0.0563905,0.0,0.0
807,201.5,21.4477,23.8673,166.601,100.369,99.9396,0.00640392,0.0970661,20.9207,-38.0598,0.0388105,0.0,0.0
810,202.25,20.8956,23.3542,169.849,100.384,99.8177,0.00634782,0.0968268,20.9209,-37.9897,0.0512468,0.0,0.0
813,203,21.5206,24.0708,166.64,100.368,100.324,0.00628592,0.09662,20.9213,-37.9797,0.00398518,0.0,0.0
816,203.75,21.3804,24.366,167.446,100.378,100.348,0.00623174,0.096494,20.922,-38.0498,0.00273149,0.0,0.0
819,204.5,21.4008,23.4243,167.726,100.386,100.067,0.00618837,0.0964021,20.9225,-38.0097,0.0288233,0.0,0.0
822,205.25,21.3991,23.1738,167.053,100.364,99.9214,0.00614722,0.0963351,20.9229,-38.0097,0.0400517,0.0,0.0
825,206,21.4374,24.0254,167.656,100.367,100.13,0.0061009,0.0961215,20.9233,-38.0498,0.0214259,0.0,0.0
828,206.75,21.5089,23.5444,168.083,100.376,99.7499,0.00604868,0.0958955,20.9236,-38.0298,0.0566567,0.0,0.0
831,207.5,21.4153,23.1322,169.082,100.377,100.184,0.00600672,0.0956132,20.9231,-38.0698,0.0174678,0.0,0.0
834,208.25,20.9382,23.2723,165.437,100.368,100.129,0.00597108,0.0954075,20.9228,-38.0698,0.0216371,0.0,0.0
837,209,21.1903,23.0761,173.146,100.359,99.8541,0.00593927,0.095375,20.9226,-38.1899,0.0456714,0.0,0.0
840,209.75,20.8889,23.2459,170.58,100.364,99.6002,0.00590928,0.0953802,20.9225,-38.0198,0.0691887,0.0,0.0
843,210.5,21.0417,23.1722,166.117,100.381,99.9973,0.00587577,0.0954334,20.9224,-38.1899,0.0346631,0.0,0.0
846,211.25,20.7337,23.3445,167.924,100.378,100.297,0.00584766,0.0955114,20.9223,-38.1299,0.00738362,0.0,0.0
849,212,21.047,23.0955,169.445,100.372,100.397,0.00583751,0.095655,20.9222,-38.1399,-0.00221907,0.0,0.0
852,212.75,21.402,23.4835,168.32,100.374,99.9861,0.00583452,0.095908,20.9222,-38.1199,0.0351129,0.0,0.0
855,213.5,21.6602,23.3054,167.424,100.385,100.056,0.00584895,0.0961121,20.9221,-38.1199,0.0297568,0.0,0.0
858,214.25,20.7573,23.2859,169.729,100.393,99.7965,0.00585299,0.0961885,20.9221,-38.0598,0.0540317,0.0,0.0
861,215,20.9257,23.6772,164.61,100.393,100.655,0.00583958,0.0961206,20.9221,-38.1699,-0.0236566,0.0,0.0
864,215.75,21.298,22.9831,167.146,100.38,100.099,0.00580651,0.0959341,20.9221,-38.1799,0.0253812,0.0,0.0
867,216.5,21.2413,22.7108,165.07,100.393,100.078,0.00576337,0.0958118,20.9221,-38.1799,0.0284486,0.0,0.0
870,217.25,21.2823,23.2031,172.401,100.386,99.9467,0.00569935,0.0957285,20.9221,-38.2099,0.0397688,0.0,0.0
873,218,21.4976,23.6623,162.259,100.389,100.229,0.00562874,0.0956286,20.9221,-38.1599,0.0144754,0.0,0.0
876,218.75,20.4618,22.8986,168.156,100.389,100.584,0.00556564,0.0955196,20.9227,-38.1599,-0.0176065,0.0,0.0
879,219.5,21.4394,23.3217,164.649,100.403,100.759,0.00551198,0.0953784,20.9231,-38.1699,-0.0320943,0.0,0.0
882,220.25,21.1382,23.7134,168.159,100.399,100.46,0.00546821,0.0951931,20.9235,-38.1799,-0.00546762,0.0,0.0
885,221,21.5075,23.6951,163.041,100.401,100.052,0.00544919,0.0950012,20.9237,-38.1499,0.0314912,0.0,0.0
888,221.75,21.2324,23.7692,166.55,100.402,100.596,0.00544694,0.0948243,20.9245,-38.24,-0.0174263,0.0,0.0
891,222.5,21.2626,23.7724,165.047,100.391,100.277,0.00545026,0.0947149,20.9251,-38.25,0.0102812,0.0,0.0
894,223.25,21.0641,22.9564,163.111,100.399,100.479,0.00545403,0.0947038,20.9255,-38.25,-0.00720098,0.0,0.0
897,224,21.215,23.7823,167.111,100.396,100.394,0.00545911,0.0947105,20.9258,-38.25,0.000176076,0.0,0.0
900,224.75,21.348,22.9739,171.54,100.395,100.285,0.00543703,0.0946907,20.926,-38.1699,0.00988629,0.0,0.0
903,225.5,21.8997,23.7056,170.558,100.397,100.07,0.00540193,0.0946076,20.9256,-38.1899,0.0295544,0.0,0.0
906,226.25,20.9448,23.1149,170.25,100.408,100.231,0.00534382,0.0945178,20.9257,-38.23,0.0159593,0.0,0.0
909,227,21.7421,24.0613,167.962,100.399,100.362,0.00526837,0.0944327,20.9259,-38.26,0.00326711,0.0,0.0
912,227.75,21.1402,23.8396,166.566,100.396,100.121,0.00521337,0.0943996,20.9261,-38.24,0.024863,0.0,0.0
915,228.5,21.4213,23.4891,167.404,100.399,100.337,0.00517694,0.0944249,20.9263,-38.22,0.00555069,0.0,0.0
918,229.25,21.1,23.7267,170.618,100.388,100.492,0.0051565,0.0944433,20.9265,-38.24,-0.00939208,0.0,0.0
921,230,21.3099,23.8439,165.573,100.402,100.429,0.00515203,0.094399,20.9268,-38.24,-0.00241572,0.0,0.0
924,230.75,21.5379,23.7221,170.126,100.399,100.252,0.00514674,0.0942678,20.9269,-38.22,0.0133116,0.0,0.0
927,231.5,21.6375,23.081,168.668,100.408,100.146,0.00513941,0.0941722,20.927,-38.26,0.0236446,0.0,0.0
930,232.25,21.5964,23.8095,165.136,100.399,100.137,0.00511751,0.0942591,20.9271,-38.28,0.0236952,0.0,0.0
933,233,21.2309,23.7316,165.328,100.407,99.9775,0.00509124,0.0943774,20.9271,-38.29,0.0388697,0.0,0.0
936,233.75,21.0141,23.6895,176.024,100.395,100.041,0.0050677,0.094487,20.9272,-38.29,0.0319875,0.0,0.0
939,234.5,21.2456,23.6095,166.416,100.397,100.492,0.00505421,0.0944886,20.9272,-38.3,-0.00852812,0.0,0.0
942,235.25,20.945,23.5035,168.875,100.394,100.403,0.00505469,0.0944608,20.9272,-38.28,-0.000831276,0.0,0.0
945,236,20.9595,23.5455,170.793,100.395,100.522,0.00505943,0.0943912,20.9272,-38.29,-0.0115237,0.0,0.0
948,236.75,21.3446,23.5537,164.223,100.41,99.9386,0.00507943,0.0943992,20.9273,-38.3301,0.0426238,0.0,0.0
951,237.5,21.7394,23.7565,163.861,100.396,100.427,0.00509401,0.0944194,20.9273,-38.3201,-0.00275339,0.0,0.0
954,238.25,21.1521,23.7544,167.477,100.401,100.356,0.00510648,0.0944589,20.9273,-38.28,0.00404672,0.0,0.0
957,239,21.0495,23.5913,165.063,100.4,100.227,0.00510397,0.0944681,20.9273,-38.3201,0.0155808,0.0,0.0
960,239.75,21.227,23.4967,165.539,100.395,100.754,0.00508973,0.0944748,20.9273,-38.3101,-0.0323908,0.0,0.0
963,240.5,21.1729,23.6902,173.34,100.388,100.542,0.0050666,0.0944405,20.9273,-38.3201,-0.0138895,0.0,0.0
966,241.25,21.3445,23.9935,169.639,100.405,100.496,0.00504055,0.0943795,20.9273,-38.3301,-0.00822321,0.0,0.0
969,242,21.6345,23.5925,168.958,100.417,100.348,0.00501512,0.0942732,20.9273,-38.3601,0.00622864,0.0,0.0
972,242.75,21.3467,24.1337,164.512,100.412,100.415,0.00499383,0.0941761,20.9273,-38.3601,-0.000244676,0.0,0.0
975,243.5,21.5054,23.7689,165.083,100.399,100.499,0.00498383,0.0940917,20.9273,-38.3601,-0.00897144,0.0,0.0
978,244.25,21.4933,23.8873,161.926,100.422,100.854,0.00497653,0.0939953,20.9273,-38.3801,-0.0388934,0.0,0.0
981,245,21.5209,23.8417,162.428,100.412,100.52,0.00501164,0.0938758,20.9273,-38.4602,-0.00969648,0.0,0.0
984,245.75,21.39,23.9027,166.409,100.412,100.816,0.00505149,0.0936516,20.9273,-38.4402,-0.0363773,0.0,0.0
987,246.5,21.2894,24.0477,168.039,100.41,100.549,0.00510491,0.0934882,20.9273,-38.4002,-0.0125637,0.0,0.0
990,247.25,21.2749,23.5431,170.36,100.41,100.49,0.00515934,0.0931735,20.9273,-38.3901,-0.00722855,0.0,0.0
993,248,21.1954,24.1541,166.89,100.407,100.161,0.00520833,0.0929297,20.9273,-38.3901,0.0222427,0.0,0.0
996,248.75,21.293,23.824,165.43,100.409,100.087,0.00524869,0.0927272,20.9273,-38.4302,0.0291582,0.0,0.0
999,249.5,20.7983,23.4179,165.289,100.422,100.334,0.00527259,0.0927167,20.9273,-38.4602,0.00790924,0.0,0.0
1002,250.25,21.8962,23.7717,167.855,100.423,100.774,0.00528255,0.0928109,20.9273,-38.4802,-0.0315902,0.0,0.0
1005,251,21.4698,23.7301,171.64,100.428,100.716,0.00527703,0.0929536,20.9273,-38.5403,-0.0259205,0.0,0.0
1008,251.75,21.3259,23.6049,166.522,100.419,100.34,0.00527301,0.092989,20.9273,-38.5203,0.00713644,0.0,0.0
1011,252.5,21.2888,23.6511,166.529,100.423,100.393,0.00523527,0.0929928,20.9273,-38.4702,0.00275957,0.0,0.0
1014,253.25,21.2603,24.1918,165.705,100.418,100.403,,0.093008,,-38.4102,0.00127998,0.0,0.0
1017,254,21.1405,23.1631,168.642,100.446,100.583,,0.0931013,,-38.4402,-0.0123447,0.0,0.0
1020,254.75,20.7081,22.9272,168.494,100.44,100.419,,0.0932044,,-38.4402,0.00191073,0.0,0.0
1023,255.5,21.2414,23.9637,171.409,100.441,100.455,,0.0932796,,-38.4702,-0.0012094,0.0,0.0
1026,256.25,21.4874,23.6856,166.666,100.432,100.004,,,,-38.4902,0.0386718,0.0,0.0
1029,257,21.2919,23.5239,166.535,100.438,100.273,,,,-38.4902,0.0148421,0.0,0.0
1032,257.75,21.0457,23.8577,162.522,100.432,100.725,,,,-38.5403,-0.0264421,0.0,0.0
1035,258.5,21.4021,23.4561,165.887,100.424,100.6,,,,-38.5503,-0.0158647,0.0,0.0
1038,259.25,21.7624,23.6655,167.823,100.428,100.509,,,,-38.5203,-0.00727991,0.0,0.0
1041,260,21.3618,23.7455,168.971,100.442,100.795,,,,-38.5403,-0.0317973,0.0,0.0
1044,260.75,21.615,23.6625,169.807,100.436,100.401,,,,-38.6304,0.00313645,0.0,0.0
1047,261.5,21.7191,23.7408,164.591,100.439,100.616,,,,-38.6104,-0.0159009,0.0,0.0
1050,262.25,21.3383,23.7463,169.189,100.436,100.468,,,,-38.6104,-0.00288738,0.0,0.0
1053,263,21.1504,23.5038,166.611,100.445,100.504,,,,-38.6104,-0.00526172,0.0,0.0
1055,263.5,21.448,24.2154,165.112,100.446,100.407,,,,-38.5903,0.0034442,0.0,0.0