File: 01_Data/Cotton_Raw/Cone/Cotton_Raw_Cone_HF35-Frame+GridScan_200909_R3.csv
Names,Time,Stack TC,Smoke TC,Exh Press,Smoke Comp,Smoke Meas,CO Meter,CO2 Meter,O2 Meter,Sample Mass,Ext Coeff,Start Test,Flame Verif
Chan Gain,,500,500,1,1,1,1,1,1,1,1,1.0,1.0
Offset,,0,0,0.136754,0,0,0,0,0,0,0,0.0,0.0
Gain,,1,1,25.011,13.7501,16.9893,1,1,1,1.00105,1.02582,1.0,1.0
Units,sec,C,C,Pa,%,%,%,%,%,g,/m,,
Baseline,,22.8006,24.8918,168.624,101.651,102.391,-0.000391635,0.0534794,20.9649,-900.161,-0.0652616,,
3,0.5,22.3045,24.4913,167.77,101.335,102.431,-0.000410927,0.0537453,20.9642,15.5263,-0.0968557,0.0,0.0
6,1.25,20.8342,22.646,169.606,101.32,101.869,-0.000350328,0.053802,20.9641,15.5263,-0.0486432,0.0,0.0
9,2,20.9575,22.9419,167.36,101.304,101.826,-0.000239651,0.0538864,20.9641,15.5363,-0.0462287,0.0,0.0
12,2.75,20.6489,22.8678,170.69,101.33,101.884,-8.4528e-05,0.0540217,20.9639,15.4662,-0.0490018,0.0,0.0
15,3.5,21.519,23.5101,162.9,101.325,101.834,6.02915e-05,0.0545297,20.9633,15.5063,-0.0450977,0.0,0.0
18,4.25,20.6088,22.8749,166.56,101.317,101.696,0.000223114,0.0572708,20.9591,15.4662,-0.0335659,0.0,0.0
21,5,20.9833,23.2959,166.421,101.311,101.17,0.000439709,0.0641661,20.9515,15.4762,0.0124775,0.0,0.0
24,5.75,21.2902,23.5263,172.357,101.333,100.929,0.000664494,0.0758385,20.9382,15.286,0.0359298,0.0,0.0
27,6.5,21.4149,23.5975,161.665,101.317,103.083,0.000855005,0.0899677,20.9166,15.236,-0.155493,0.0,1.0
30,7.25,21.5553,24.4329,156.341,101.321,102.861,0.00100859,0.109878,20.8979,15.256,-0.135682,0.0,1.0
33,8,22.835,25.6733,164.915,101.309,102.737,0.00112626,0.126937,20.8829,15.1959,-0.125999,0.0,1.0
36,8.75,22.8998,26.7787,158.879,101.314,102.902,0.00119564,0.140327,20.872,15.1059,-0.139982,0.0,1.0
39,9.5,23.7633,27.9996,165.995,101.312,102.752,0.00122789,0.149867,20.864,15.1059,-0.126973,0.0,1.0
42,10.25,24.3364,28.1016,161.668,101.315,102.458,0.00123198,0.155706,20.8582,15.0358,-0.100976,0.0,1.0
45,11,24.4337,28.8225,168.304,101.304,102.611,0.00122696,0.159197,20.8549,15.0658,-0.115405,0.0,1.0
48,11.75,23.5886,28.279,165.953,101.312,102.229,0.00120961,0.161415,20.8529,15.0458,-0.0810875,0.0,1.0
51,12.5,23.1963,28.1739,161.175,101.322,102.575,0.00119696,0.161739,20.8522,15.0057,-0.110582,0.0,0.0
54,13.25,23.8638,28.6671,162.918,101.327,102.799,0.00119374,0.161605,20.8521,14.9657,-0.129762,0.0,0.0
57,14,23.6934,28.2408,160.746,101.323,102.217,0.00120167,0.160872,20.8523,14.9157,-0.0790317,0.0,0.0
60,14.75,24.056,28.9037,162.251,101.335,102.139,0.00122647,0.160281,20.8524,14.8756,-0.0711306,0.0,0.0
63,15.5,24.3451,29.2399,169.139,101.336,102.088,0.00126401,0.159916,20.8524,14.8155,-0.0665048,0.0,0.0
66,16.25,24.3314,28.9637,161.693,101.329,102.508,0.0013108,0.159806,20.8523,14.7855,-0.104162,0.0,0.0
69,17,24.5203,29.4399,162.554,101.337,102.227,0.00136482,0.160242,20.8518,14.7755,-0.078752,0.0,0.0
72,17.75,24.4745,29.699,160.95,101.323,102.753,0.00140421,0.1611,20.8514,14.7555,-0.126057,0.0,0.0
75,18.5,24.2807,30.0263,161.702,101.327,103.004,0.00143473,0.162269,20.8511,14.6554,-0.147753,0.0,0.0
78,19.25,24.5506,29.4551,167.169,101.33,102.38,0.00145698,0.16393,20.8504,14.6253,-0.0927558,0.0,0.0
81,20,24.7315,30.3635,163.044,101.328,103.362,0.00144898,0.165485,20.8492,14.6053,-0.178848,0.0,0.0
84,20.75,24.7467,30.3558,165.025,101.316,102.531,0.00143149,0.168871,20.8472,14.5653,-0.107282,0.0,0.0
87,21.5,24.8264,30.3462,174.095,101.326,102.391,0.00141645,0.17252,20.8429,14.5353,-0.0941312,0.0,0.0
90,22.25,25.0851,30.4364,164.67,101.328,102.308,0.0014073,0.1772,20.8388,14.4852,-0.0866138,0.0,0.0
93,23,25.4228,30.9864,163.058,101.33,102.804,0.00140063,0.180611,20.832,14.3951,-0.129992,0.0,0.0
96,23.75,25.5595,31.3618,161.223,101.322,102.738,0.00139576,0.18695,20.8254,14.3551,-0.124815,0.0,0.0
99,24.5,25.2971,31.8264,163.87,101.338,103.104,0.00139584,0.192383,20.8198,14.295,-0.155447,0.0,0.0
102,25.25,26.2974,31.7602,161.07,101.34,102.765,0.00139589,0.196963,20.8149,14.275,-0.125611,0.0,0.0
105,26,25.5127,32.316,159.963,101.347,102.987,0.00139231,0.200768,20.8107,14.265,-0.144433,0.0,0.0
108,26.75,26.2627,32.3951,160.461,101.34,102.522,0.00138503,0.204075,20.8072,14.1749,-0.104302,0.0,0.0
111,27.5,26.7391,32.5696,157.021,101.346,102.799,0.00137172,0.206713,20.8047,14.1348,-0.128168,0.0,0.0
114,28.25,26.739,32.9769,166.94,101.363,103.039,0.00134936,0.208933,20.8028,14.0948,-0.147628,0.0,0.0
117,29,26.9186,33.1796,159.849,101.347,103.333,0.00133125,0.210552,20.8019,14.0247,-0.174635,0.0,0.0
120,29.75,27.0118,33.3413,160.754,101.346,102.715,0.00132692,0.211033,20.8015,13.9947,-0.120692,0.0,0.0
123,30.5,27.2336,33.2236,157.155,101.367,103.031,0.00132756,0.211117,20.8011,13.9446,-0.146569,0.0,0.0
126,31.25,27.2643,33.98,169.439,101.365,102.434,0.00135336,0.211026,20.8009,13.8946,-0.0944098,0.0,0.0
129,32,27.308,34.3732,166.649,101.364,102.525,0.00138085,0.210893,20.8007,13.8846,-0.102443,0.0,0.0
132,32.75,27.4096,33.8794,163.482,101.365,102.801,0.00141575,0.210944,20.8006,13.7845,-0.126636,0.0,0.0
135,33.5,27.5233,34.2449,159.634,101.378,103.073,0.00145024,0.211203,20.8005,13.7144,-0.149148,0.0,0.0
138,34.25,27.6979,33.7545,168.629,101.371,103.332,0.00147405,0.211487,20.8004,13.6343,-0.172429,0.0,0.0
141,35,27.812,33.9207,159.484,101.383,102.773,0.00148913,0.211546,20.8003,13.5742,-0.122546,0.0,0.0
144,35.75,27.4279,34.1814,164.55,101.374,102.626,0.00149106,0.211464,20.8003,13.5442,-0.110455,0.0,0.0
147,36.5,27.7308,34.5127,163.851,101.367,103.231,0.00148866,0.211191,20.8003,13.4942,-0.163986,0.0,0.0
150,37.25,27.7135,34.2117,164.613,101.391,102.893,0.00148261,0.211051,20.8002,13.4341,-0.132318,0.0,0.0
153,38,27.4402,34.5993,161.908,101.382,102.783,0.00147364,0.210928,20.8002,13.354,-0.123511,0.0,0.0
156,38.75,27.9909,34.5519,161.45,101.378,102.901,0.00145574,0.210758,20.8002,13.2639,-0.134153,0.0,0.0
159,39.5,27.8104,34.5674,162.071,101.376,102.691,0.00142327,0.210507,20.8008,13.1738,-0.115958,0.0,0.0
162,40.25,28.0499,34.3465,161.971,101.373,103.738,0.00138332,0.210354,20.8013,13.2339,-0.207563,0.0,0.0
165,41,27.9402,34.0267,160.72,101.382,102.571,0.00135086,0.210201,20.8016,13.2039,-0.104973,0.0,0.0
168,41.75,28.0597,34.6683,161.939,101.4,104.26,0.00132149,0.209996,20.8018,13.1538,-0.250354,0.0,0.0
171,42.5,28.2402,34.7774,167.647,101.367,102.811,0.00130141,0.209737,20.802,13.0937,-0.127266,0.0,0.0
174,43.25,28.4903,34.623,162.117,101.393,102.656,0.00128906,0.209363,20.8031,13.0637,-0.111416,0.0,0.0
177,44,28.104,34.8851,159.909,101.402,102.619,0.00129147,0.208794,20.8038,13.0637,-0.107369,0.0,0.0
180,44.75,28.2106,35.228,162.324,101.411,102.496,0.00130276,0.20838,20.8044,13.0036,-0.0956858,0.0,0.0
183,45.5,28.4346,35.4749,165.976,101.406,102.291,0.00131899,0.207797,20.8048,12.9035,-0.0782093,0.0,0.0
186,46.25,28.5563,34.8361,163.252,101.414,103.101,0.00132882,0.207253,20.8051,12.9336,-0.148471,0.0,0.0
189,47,28.3597,34.7835,163.907,101.422,102.304,0.00133256,0.206856,20.8059,12.8635,-0.0778604,0.0,0.0
192,47.75,28.2287,34.8746,165.706,101.424,103.511,0.00132624,0.206735,20.8066,12.7934,-0.183256,0.0,0.0
195,48.5,28.4894,34.5299,164.644,101.398,103.14,0.00131782,0.206538,20.807,12.7534,-0.153243,0.0,0.0
198,49.25,28.7274,34.8642,161.024,101.416,102.713,0.00131073,0.206209,20.8073,12.7734,-0.114328,0.0,0.0
201,50,28.3523,35.0557,159.821,101.416,103.022,0.00130671,0.205437,20.8082,12.6533,-0.141405,0.0,0.0
204,50.75,28.2867,34.9243,167.122,101.434,102.779,0.00132368,0.204664,20.8088,12.4931,-0.118494,0.0,0.0
207,51.5,28.7176,34.461,158.455,101.44,102.498,0.00135342,0.204128,20.8093,12.5932,-0.0934191,0.0,0.0
210,52.25,28.2686,34.5911,166.063,101.427,103.358,0.00140481,0.203778,20.8096,12.5532,-0.169771,0.0,0.0
213,53,28.9692,34.3403,163.943,101.432,102.771,0.00148674,0.203715,20.8098,12.5231,-0.118082,0.0,0.0
216,53.75,28.694,35.0035,159.823,101.432,102.441,0.00156544,0.203751,20.81,12.4831,-0.0890359,0.0,0.0
219,54.5,28.7724,35.143,157.33,101.439,103,0.00165546,0.203777,20.8101,12.4731,-0.13741,0.0,0.0
222,55.25,28.7303,35.2075,157.723,101.422,102.662,0.00174018,0.203424,20.8102,12.433,-0.1094,0.0,0.0
225,56,28.9829,35.0385,163.776,101.435,102.685,0.00181007,0.20253,20.8103,12.363,-0.110162,0.0,0.0
228,56.75,29.045,35.3195,161.219,101.427,102.55,0.00186829,0.201584,20.8108,12.343,-0.0991324,0.0,0.0
231,57.5,28.9107,35.0147,159.646,101.434,102.938,0.00190564,0.20077,20.8113,12.2729,-0.132456,0.0,0.0
234,58.25,28.9739,34.9831,161.076,101.425,102.778,0.0019307,0.200238,20.8117,12.2028,-0.119268,0.0,0.0
237,59,29.2564,35.468,163.013,101.437,103.224,0.00193807,0.199837,20.812,12.1327,-0.157142,0.0,0.0
240,59.75,28.5496,34.971,168.404,101.453,103.024,0.00194947,0.199522,20.8122,12.1027,-0.13831,0.0,0.0
243,60.5,28.6116,35.2292,164.887,101.444,103.248,0.0019681,0.199266,20.8124,12.0727,-0.158625,0.0,0.0
246,61.25,28.9764,35.4327,160.343,101.434,103.135,0.002018,0.198727,20.8125,12.0627,-0.149589,0.0,0.0
249,62,29.0243,34.9431,156.826,101.455,103.1,0.00205438,0.198184,20.8126,12.0326,-0.144725,0.0,0.0
252,62.75,28.8353,35.1799,162.416,101.463,103.35,0.00214636,0.197495,20.8126,11.9926,-0.165856,0.0,0.0
255,63.5,29.135,34.9347,158.883,101.447,102.754,0.0022683,0.197062,20.8127,11.9125,-0.115162,0.0,0.0
258,64.25,29.0905,35.072,160.643,101.458,102.971,0.00241153,0.196865,20.8127,11.8825,-0.133206,0.0,0.0
261,65,29.5729,35.3133,164.94,101.445,102.44,0.00256888,0.196952,20.8127,11.8324,-0.0877532,0.0,0.0
264,65.75,28.6325,35.1795,160.949,101.457,102.606,0.00268358,0.197,20.8127,11.8024,-0.101356,0.0,0.0
267,66.5,29.2432,35.125,162.471,101.468,102.553,0.00287862,0.197008,20.8126,11.7523,-0.0956663,0.0,0.0
270,67.25,29.1539,35.009,159.824,101.454,103.219,0.00302081,0.196345,20.8125,11.7323,-0.15521,0.0,0.0
273,68,29.145,35.2944,165.489,101.466,102.772,0.00318666,0.195861,20.8128,11.6522,-0.115113,0.0,0.0
276,68.75,29.0219,35.211,164.614,101.478,103.068,0.00333582,0.194805,20.8135,11.6422,-0.139963,0.0,0.0
279,69.5,28.8984,34.8527,156.853,101.478,103.388,0.00347823,0.193736,20.8144,11.5922,-0.167811,0.0,0.0
282,70.25,28.9651,34.982,161.733,101.472,103.288,0.00361907,0.192811,20.815,11.5321,-0.15961,0.0,0.0
285,71,29.4033,35.2273,163.455,101.472,102.911,0.00378779,0.191982,20.8159,11.4921,-0.126713,0.0,0.0
288,71.75,29.0385,35.1391,159.266,101.487,102.388,0.00395072,0.191115,20.817,11.462,-0.079522,0.0,0.0
291,72.5,29.2099,34.978,163.68,101.487,102.904,0.00408651,0.190088,20.8182,11.402,-0.12482,0.0,0.0
294,73.25,29.2335,35.0779,162.188,101.487,102.938,0.00421258,0.188793,20.819,11.412,-0.127813,0.0,0.0
297,74,29.3552,34.6796,163.477,101.486,102.884,0.00431602,0.187556,20.8196,11.3619,-0.123135,0.0,0.0
300,74.75,29.2263,34.7633,156.973,101.497,103.212,0.00440247,0.186432,20.8205,11.3219,-0.150773,0.0,0.0
303,75.5,29.2676,34.5038,159.323,101.507,103.08,0.00446807,0.185539,20.8214,11.2318,-0.138392,0.0,0.0
306,76.25,29.2286,34.782,162.224,101.506,102.84,0.00451699,0.184858,20.822,11.2418,-0.117486,0.0,0.0
309,77,29.0522,34.306,162.925,101.5,102.775,0.00455633,0.183924,20.8233,11.2218,-0.112297,0.0,0.0
312,77.75,29.4268,34.736,165.384,101.526,102.776,0.00460437,0.182782,20.8246,11.1817,-0.110156,0.0,0.0
315,78.5,28.6211,34.5202,162.338,101.526,102.814,0.00466735,0.181479,20.8256,11.1517,-0.11344,0.0,0.0
318,79.25,28.8586,34.1602,164.933,101.544,102.739,0.00474696,0.180529,20.8263,11.1117,-0.105288,0.0,0.0
321,80,29.0898,34.195,161.523,101.539,103.297,0.00487506,0.179805,20.8272,11.0516,-0.154464,0.0,0.0
324,80.75,28.6915,34.7102,160.333,101.549,103.317,0.00496844,0.179226,20.8281,11.0416,-0.155341,0.0,0.0
327,81.5,28.3867,34.5184,164.738,101.563,103.345,0.00513439,0.178348,20.8292,11.0216,-0.156551,0.0,0.0
330,82.25,28.7187,34.1217,164.102,101.555,103.051,0.00528907,0.177274,20.8304,10.9615,-0.13158,0.0,0.0
333,83,28.9821,33.5515,164.664,101.544,102.785,0.0054162,0.176305,20.8316,10.9115,-0.109328,0.0,0.0
336,83.75,28.9155,33.7677,160,101.553,102.964,0.00553108,0.175268,20.8326,10.8614,-0.12412,0.0,0.0
339,84.5,28.2429,33.7535,165.065,101.562,102.865,0.00562261,0.174375,20.8335,10.8113,-0.114763,0.0,0.0
342,85.25,29.2102,33.2797,170.393,101.559,102.637,0.00569198,0.17349,20.8345,10.7713,-0.095044,0.0,0.0
345,86,28.753,33.8856,165.009,101.555,102.89,0.00574138,0.172659,20.8353,10.7112,-0.117452,0.0,0.0
348,86.75,28.9509,33.5611,165.986,101.544,102.336,0.0057709,0.172076,20.8358,10.7313,-0.069943,0.0,0.0
351,87.5,28.2758,33.5805,162.013,101.565,103.006,0.00578966,0.17169,20.8362,10.5911,-0.12683,0.0,0.0
354,88.25,28.3424,33.3551,164.328,101.578,102.792,0.0058422,0.171279,20.8365,10.7012,-0.106833,0.0,0.0
357,89,28.423,33.6218,163.494,101.561,102.927,0.00588051,0.170794,20.8374,10.6912,-0.120278,0.0,0.0
360,89.75,28.4463,33.385,157.649,101.559,102.624,0.00597471,0.17022,20.8381,10.6412,-0.093908,0.0,0.0
363,90.5,28.3336,33.5538,163.541,101.567,103.245,0.00608875,0.169931,20.8387,10.5711,-0.147426,0.0,0.0
366,91.25,28.5331,33.6907,162.855,101.584,102.664,0.00620116,0.169776,20.8391,10.5811,-0.0950944,0.0,0.0
369,92,28.3427,33.593,162.354,101.572,102.942,0.00629425,0.169701,20.8394,10.5411,-0.120588,0.0,0.0
372,92.75,28.1804,33.4554,161.651,101.558,103.408,0.0063504,0.169711,20.8396,10.5311,-0.162376,0.0,0.0
375,93.5,28.5893,33.7558,164.361,101.572,102.544,0.00638633,0.169589,20.8398,10.491,-0.0857143,0.0,0.0
378,94.25,28.8648,33.1567,164.328,101.572,103.161,0.00634945,0.169323,20.8404,10.441,-0.139731,0.0,0.0
381,95,28.3222,33.613,163.637,101.568,102.87,0.00628525,0.168921,20.8411,10.3709,-0.114658,0.0,0.0
384,95.75,29.1228,33.4963,166.825,101.558,102.769,0.00619423,0.168319,20.8415,10.2908,-0.10662,0.0,0.0
387,96.5,28.4107,33.7836,164.666,101.574,103.213,0.00611657,0.167866,20.8417,10.2508,-0.144066,0.0,0.0
390,97.25,28.9129,33.4435,164.943,101.57,103.124,0.00602685,0.167529,20.8419,10.2207,-0.136622,0.0,0.0
393,98,28.1061,33.8082,161.075,101.574,102.776,0.00594717,0.167074,20.8421,10.1607,-0.10588,0.0,0.0
396,98.75,28.2052,33.328,165.083,101.565,102.582,0.00589209,0.166709,20.8422,10.2107,-0.089622,0.0,0.0
399,99.5,28.3114,33.3965,162.722,101.575,103.216,0.00586672,0.166405,20.8423,10.1607,-0.144226,0.0,0.0
402,100.25,28.3884,32.9786,170.137,101.58,102.651,0.00586691,0.165793,20.843,10.2107,-0.0944125,0.0,0.0
405,101,27.9281,33.1608,160.311,101.591,102.847,0.00589951,0.165055,20.8439,10.2207,-0.110527,0.0,0.0
408,101.75,28.5696,32.965,159.785,101.591,103.329,0.0059371,0.164207,20.8448,10.1206,-0.152662,0.0,0.0
411,102.5,28.4918,32.5895,164.815,101.597,102.431,0.00602382,0.163156,20.8454,10.1507,-0.0735977,0.0,0.0
414,103.25,28.2508,32.795,159.025,101.611,102.558,0.00611955,0.16198,20.8464,10.1306,-0.0834783,0.0,0.0
417,104,28.0946,33.1687,168.3,101.619,102.752,0.00620319,0.160735,20.8478,10.0105,-0.0997778,0.0,0.0
420,104.75,28.2011,32.7995,159.581,101.611,102.866,0.00630502,0.159369,20.8493,9.95044,-0.110422,0.0,0.0
423,105.5,28.0845,33.339,164.381,101.622,102.978,0.00638315,0.158177,20.8506,10.0005,-0.119292,0.0,0.0
426,106.25,28.5157,32.6903,161.094,101.652,103.18,0.0064315,0.156634,20.8515,9.97046,-0.134269,0.0,0.0
429,107,27.7462,32.8958,162.355,101.629,102.659,0.00644917,0.155295,20.8528,9.92041,-0.0907098,0.0,0.0
432,107.75,28.444,32.1977,167.322,101.635,102.824,0.00642562,0.154227,20.8538,9.98047,-0.104592,0.0,0.0
435,108.5,27.9373,32.5881,168.5,101.633,102.906,0.00639293,0.153142,20.8545,9.96045,-0.111981,0.0,0.0
438,109.25,28.0771,32.5795,162.545,101.659,102.968,0.00635869,0.151809,20.8554,10.0405,-0.1152,0.0,0.0
441,110,28.0813,32.1191,162.788,101.647,103.285,0.00634094,0.150373,20.8569,9.85034,-0.143844,0.0,0.0
444,110.75,27.6488,32.489,161.777,101.654,102.878,0.00634789,0.148928,20.8586,9.87036,-0.107676,0.0,0.0
447,111.5,28.0957,32.2841,161.762,101.643,102.979,0.00638158,0.147755,20.8598,9.88037,-0.117563,0.0,0.0
450,112.25,27.5751,31.7926,160.946,101.667,103.117,0.00641835,0.146695,20.8608,9.79027,-0.127369,0.0,0.0
453,113,27.9101,31.5481,165.936,101.665,102.526,0.00646208,0.145963,20.8614,9.83032,-0.0758648,0.0,0.0
456,113.75,27.581,32.2394,164.3,101.672,102.799,0.00649706,0.145459,20.8619,9.8103,-0.0991823,0.0,0.0
459,114.5,27.646,31.5546,164.644,101.674,102.856,0.00651553,0.145143,20.8622,9.76024,-0.103996,0.0,0.0
462,115.25,27.6341,31.9281,165.72,101.68,103.745,0.00649646,0.144912,20.8625,9.75023,-0.180961,0.0,0.0
465,116,27.5596,32.0255,159.161,101.686,103.175,0.00646869,0.144622,20.8627,9.76024,-0.130801,0.0,0.0
468,116.75,27.8183,31.7338,161.115,101.683,102.694,0.00640423,0.144147,20.863,9.70018,-0.0890077,0.0,0.0
471,117.5,27.4846,31.6869,158.455,101.68,103.045,0.00633635,0.143516,20.8637,9.65013,-0.119972,0.0,0.0
474,118.25,27.3392,31.8934,161.942,101.698,102.894,0.00628335,0.142934,20.8642,9.63011,-0.105264,0.0,0.0
477,119,27.588,32.3293,160.266,101.7,103.175,0.00625381,0.142398,20.865,9.64012,-0.129538,0.0,0.0
480,119.75,27.6207,31.8501,165.959,101.705,103.043,0.006243,0.141815,20.8657,9.56003,-0.117554,0.0,0.0
483,120.5,27.7422,31.542,169.618,101.697,102.363,0.00624681,0.140823,20.8669,9.6201,-0.0587885,0.0,0.0
486,121.25,27.6577,31.4128,162.17,101.705,103.178,0.00626629,0.139868,20.8682,9.6201,-0.129401,0.0,0.0
489,122,28.0542,31.7264,164.665,101.712,102.995,0.00628959,0.138776,20.8695,9.57004,-0.112794,0.0,0.0
492,122.75,27.355,31.346,164.568,101.705,102.737,0.00631045,0.137515,20.8709,9.45993,-0.0908387,0.0,0.0
495,123.5,27.4457,31.5388,165.776,101.714,102.787,0.00633477,0.13627,20.8719,9.43991,-0.0944711,0.0,0.0
498,124.25,26.6993,31.6238,164.267,101.704,102.465,0.00635501,0.135089,20.8727,9.39987,-0.0670862,0.0,0.0
501,125,27.7315,31.0027,163.375,101.717,102.621,0.00636743,0.133999,20.8738,9.4299,-0.0796296,0.0,0.0
504,125.75,27.1432,31.2526,165.155,101.713,102.657,0.00635449,0.132922,20.8747,9.54001,-0.0831005,0.0,0.0
507,126.5,27.2994,31.5859,159.127,101.706,103.31,0.00632008,0.132016,20.8756,9.47995,-0.140767,0.0,0.0
510,127.25,27.0593,31.398,161.192,101.703,102.565,0.00628219,0.131194,20.8768,9.38985,-0.0759059,0.0,0.0
513,128,27.4247,31.1188,163.745,101.722,102.811,0.00624404,0.130567,20.8777,9.32979,-0.0958164,0.0,0.0
516,128.75,27.4509,31.1267,162.232,101.727,103.072,0.00620326,0.130098,20.8783,9.38985,-0.118122,0.0,0.0
519,129.5,27.1767,30.9711,165.412,101.726,103.008,0.00617353,0.129414,20.8788,9.39987,-0.112701,0.0,0.0
522,130.25,26.8343,30.886,164.178,101.714,102.858,0.00612222,0.128747,20.8792,9.31978,-0.100724,0.0,0.0
525,131,27.3673,30.5687,160.388,101.724,102.985,0.00608222,0.128018,20.88,9.29976,-0.110857,0.0,0.0
528,131.75,27.1182,30.8781,159.978,101.734,103.065,0.00605195,0.127415,20.8815,9.40987,-0.116977,0.0,0.0
531,132.5,26.9989,30.7065,166.703,101.722,102.815,0.00602433,0.126232,20.8832,9.34981,-0.0961341,0.0,0.0
534,133.25,26.4751,30.2734,163.612,101.703,103.14,0.0059977,0.125147,20.8849,9.32979,-0.126248,0.0,0.0
537,134,26.6589,30.5455,166.26,101.715,102.558,0.00597006,0.123975,20.886,9.35982,-0.0742672,0.0,0.0
540,134.75,26.659,30.3135,164.028,101.712,102.838,0.00594057,0.1227,20.8869,9.34981,-0.0990668,0.0,0.0
543,135.5,26.4631,30.2931,166.499,101.711,102.642,0.00591907,0.121475,20.888,9.31978,-0.0819762,0.0,0.0
546,136.25,26.0982,30.2175,163.506,101.709,102.864,0.00590524,0.120383,20.8889,9.29976,-0.101595,0.0,0.0
549,137,26.5413,29.9263,167.249,101.719,102.902,0.00589516,0.11946,20.8895,9.26973,-0.104014,0.0,0.0
552,137.75,26.6176,30.0039,164.836,101.717,102.522,0.00592282,0.118787,20.8898,9.29976,-0.0709052,0.0,0.0
555,138.5,26.7373,29.8579,167.307,101.711,102.879,0.00598066,0.118296,20.8898,9.29976,-0.102799,0.0,0.0
558,139.25,26.3444,30.0392,165.856,101.708,102.968,0.00603888,0.117939,20.8898,9.29976,-0.110772,0.0,0.0
561,140,26.5661,29.3461,165.2,101.711,102.558,0.00613326,0.116677,20.8898,9.22969,-0.0746836,0.0,0.0
564,140.75,26.5223,29.8923,163.617,101.711,102.702,0.00621246,0.115506,20.8911,9.20967,-0.0872756,0.0,0.0
567,141.5,26.607,29.7655,166.126,101.703,102.437,0.00627122,0.114223,20.892,9.22969,-0.0647008,0.0,0.0
570,142.25,26.393,29.7951,164.365,101.7,102.591,0.0063082,0.112889,20.8928,9.19965,-0.0785599,0.0,0.0
573,143,26.3185,29.8249,162.021,101.702,102.391,0.00632084,0.111673,20.8939,9.13959,-0.0607208,0.0,0.0
576,143.75,26.5358,29.5468,166.416,101.69,102.429,0.00632397,0.110371,20.8955,9.1496,-0.0650865,0.0,0.0
579,144.5,26.1003,29.621,163.841,101.685,102.683,0.00631844,0.108884,20.8971,9.15961,-0.0878226,0.0,0.0
582,145.25,26.2846,29.5181,165.21,101.694,102.234,0.00631328,0.107591,20.8979,9.11957,-0.0476925,0.0,0.0
585,146,26.4399,28.7131,168.89,101.678,103.018,0.00630361,0.106559,20.8988,9.10956,-0.117803,0.0,0.0
588,146.75,26.2097,28.8337,165.3,101.677,102.514,0.00629787,0.105508,20.8995,9.09955,-0.0737042,0.0,0.0
591,147.5,24.8273,27.8043,159.608,101.675,102.191,0.00629491,0.104735,20.9,9.08954,-0.0455376,0.0,0.0
594,148.25,24.7155,27.4421,166.699,101.66,102.22,0.00629393,0.104331,20.9003,9.09955,-0.0494224,0.0,0.0
597,149,24.2573,26.8569,163.425,101.635,102.118,0.00628412,0.104017,20.9006,9.11957,-0.0426638,0.0,0.0
600,149.75,24.378,26.6449,169.28,101.659,102.548,0.00626214,0.103854,20.9008,9.08954,-0.0783046,0.0,0.0
603,150.5,24.5078,27.2561,169.029,101.658,102.521,0.0062274,0.103775,20.9009,9.12958,-0.0760866,0.0,0.0
606,151.25,24.2911,26.9039,169.416,101.651,102.357,0.00618635,0.103717,20.901,9.09955,-0.0622804,0.0,0.0
609,152,24.6323,26.9726,166.237,101.633,102.337,0.00612954,0.103675,20.9011,9.00946,-0.062146,0.0,0.0
612,152.75,24.1238,26.8173,171.45,101.642,102.568,0.00608072,0.103506,20.9011,9.05951,-0.081593,0.0,0.0
615,153.5,23.9213,26.4713,165.992,101.634,102.371,0.00604787,0.103404,20.9012,9.02948,-0.0650428,0.0,0.0
618,154.25,23.8785,26.6299,165.004,101.63,102.385,0.00602859,0.103367,20.9012,9.03949,-0.0665248,0.0,0.0
621,155,24.4359,26.8779,163.035,101.626,102.414,0.00601824,0.103494,20.9012,8.99944,-0.0694938,0.0,0.0
624,155.75,23.7673,26.788,165.648,101.636,102.948,0.0060042,0.103637,20.9012,8.99944,-0.115393,0.0,0.0
627,156.5,23.9143,26.6082,162.329,101.642,102.517,0.00598369,0.103716,20.9012,9.03949,-0.0770971,0.0,0.0
630,157.25,23.6331,26.5016,161.925,101.63,102.887,0.00595588,0.103635,20.9012,9.03949,-0.110572,0.0,0.0
633,158,24.0803,26.721,165.914,101.613,102.669,0.00593561,0.103523,20.9013,9.02948,-0.0930674,0.0,0.0
636,158.75,24.2491,26.8169,162.827,101.617,102.741,0.00587643,0.103454,20.9013,9.01947,-0.0989649,0.0,0.0
639,159.5,23.6873,26.4861,163.314,101.624,102.967,0.00583329,0.103384,20.9013,8.99944,-0.11811,0.0,0.0
642,160.25,23.9975,26.6958,160.588,101.618,102.636,0.00579074,0.103311,20.9013,8.98943,-0.0896675,0.0,0.0
645,161,23.9013,26.562,164.573,101.605,102.7,0.00576587,0.10322,20.9023,8.9594,-0.0964995,0.0,0.0
648,161.75,24.147,26.6108,165.04,101.594,102.736,0.00575824,0.10319,20.9035,8.94939,-0.100554,0.0,0.0
651,162.5,23.9405,26.7507,164.005,101.612,102.632,0.00576192,0.103231,20.9045,8.97942,-0.0898777,0.0,0.0
654,163.25,24.0043,26.7267,164.837,101.607,102.787,0.0057612,0.103261,20.9053,8.9594,-0.103905,0.0,0.0
657,164,24.3621,26.5882,164.616,101.599,102.458,0.00575483,0.103025,20.9059,8.96941,-0.0756971,0.0,0.0
660,164.75,24.4121,27.0777,165.424,101.579,102.762,0.005728,0.102713,20.9063,8.96941,-0.104208,0.0,0.0
663,165.5,24.0292,27.188,164.565,101.59,102.589,0.0056948,0.102389,20.9066,8.9594,-0.0880278,0.0,0.0
666,166.25,23.6797,26.835,164.434,101.582,102.526,0.00564727,0.10209,20.907,8.94939,-0.0832304,0.0,0.0
669,167,23.9736,27.0721,162.858,101.585,102.544,0.0055932,0.101793,20.9077,8.94939,-0.0845621,0.0,0.0
672,167.75,24.0213,27.1545,166.508,101.592,102.565,0.00553664,0.101518,20.9082,8.94939,-0.0857501,0.0,0.0
675,168.5,23.892,26.7296,168.27,101.59,102.381,0.00548026,0.101217,20.9086,8.94939,-0.069856,0.0,0.0
678,169.25,23.9465,26.7401,164.446,101.6,102.561,0.00541458,0.100997,20.9089,8.91936,-0.0846802,0.0,0.0
681,170,23.8776,26.833,168.952,101.594,103.247,0.00537367,0.100881,20.909,8.90935,-0.145302,0.0,0.0
684,170.75,23.9849,26.5321,164.184,101.587,102.813,0.00530242,0.100872,20.9092,8.90935,-0.107996,0.0,0.0
687,171.5,24.4992,26.7583,166.509,101.597,102.773,0.00524639,0.100782,20.9093,8.87932,-0.103572,0.0,0.0
690,172.25,23.9627,26.5855,169.06,101.582,102.22,0.00519857,0.10068,20.9094,8.83928,-0.0562963,0.0,0.0
693,173,24.2967,26.9444,164.343,101.566,102.237,0.00515147,0.100517,20.9095,8.83928,-0.0592603,0.0,0.0
696,173.75,23.7908,26.68,165.686,101.57,102.223,0.0050962,0.100343,20.9095,8.84929,-0.0576106,0.0,0.0
699,174.5,24.0858,26.3337,165.937,101.567,103.171,0.00502275,0.100241,20.9096,8.81926,-0.140917,0.0,0.0
702,175.25,24.0163,26.4095,171.044,101.575,102.636,0.00493953,0.100086,20.9096,8.83928,-0.0935031,0.0,0.0
705,176,23.5939,26.4957,162.864,101.559,102.225,0.0048662,0.0998352,20.91,8.89934,-0.0588344,0.0,0.0
708,176.75,23.5655,26.5595,165.386,101.551,102.483,0.00476677,0.0995828,20.9106,8.83928,-0.0822403,0.0,0.0
711,177.5,24.1778,26.8258,165.273,101.557,102.573,0.00467367,0.0993544,20.9109,8.82927,-0.0895922,0.0,0.0
714,178.25,24.0232,26.9572,162.235,101.544,102.602,0.00459226,0.0991629,20.9112,8.81926,-0.0932544,0.0,0.0
717,179,23.5598,26.5281,164.915,101.549,102.68,0.0045248,0.0989119,20.9114,8.80925,-0.0995891,0.0,0.0
720,179.75,24.6863,26.8755,163.554,101.535,102.639,0.00447562,0.0986595,20.9122,8.75919,-0.0973458,0.0,0.0
723,180.5,23.5969,26.6906,164.254,101.531,102.169,0.00441222,0.0984379,20.9127,8.78922,-0.0564415,0.0,0.0
726,181.25,23.4552,26.3105,165.165,101.539,102.682,0.00435055,0.0981176,20.9131,8.7692,-0.100663,0.0,0.0
729,182,23.9991,26.8562,163.516,101.524,102.598,0.00429902,0.0978622,20.9134,8.74918,-0.0947215,0.0,0.0
732,182.75,23.8483,26.9806,168.594,101.511,102.311,0.00425227,0.0976384,20.9136,8.68912,-0.0706095,0.0,0.0
735,183.5,23.9977,26.5857,168.251,101.505,102.367,0.00421819,0.0973779,20.9138,8.70914,-0.0760914,0.0,0.0
738,184.25,24.0583,26.6719,166.04,101.503,102.535,0.0042062,0.0971464,20.9139,8.74918,-0.0909942,0.0,0.0
741,185,23.8304,26.5337,166.023,101.502,102.409,0.00420904,0.0970571,20.9142,8.75919,-0.0800506,0.0,0.0
744,185.75,23.6423,26.6634,163.9,101.5,102.488,0.0042174,0.0969919,20.9144,8.77921,-0.0871131,0.0,0.0
747,186.5,23.4102,26.3851,165.675,101.494,102.706,0.00422581,0.0969445,20.9145,8.74918,-0.106816,0.0,0.0
750,187.25,23.5731,26.7772,166.442,101.493,102.386,0.00423194,0.0968074,20.9146,8.73917,-0.0788191,0.0,0.0
753,188,23.9015,26.239,165.638,101.487,102.279,0.00420154,0.0965322,20.9147,8.71915,-0.069977,0.0,0.0
756,188.75,24.1684,26.4781,170.346,101.49,102.738,0.00413823,0.0963118,20.9147,8.69913,-0.109966,0.0,0.0
759,189.5,23.4764,25.8693,164.167,101.478,102.568,0.00407453,0.0961438,20.9148,8.69913,-0.0961379,0.0,0.0
762,190.25,24.1053,26.2202,161.784,101.477,102.515,0.00396597,0.0960088,20.9148,8.69913,-0.0916087,0.0,0.0
765,191,23.4776,26.1531,165.774,101.472,102.389,0.00387656,0.0958958,20.9154,8.71915,-0.0809073,0.0,0.0
768,191.75,23.4929,26.7108,162.109,101.458,102.723,0.003807,0.0957884,20.916,8.73917,-0.111477,0.0,0.0
771,192.5,23.6635,26.189,165.125,101.455,102.398,0.00376911,0.0955911,20.9165,8.68912,-0.0831703,0.0,0.0
774,193.25,23.5118,25.8184,161.239,101.445,102.711,0.0037479,0.0954624,20.9169,8.6691,-0.111586,0.0,0.0
777,194,23.4901,26.3982,174.226,101.459,102.058,0.00373518,0.0953943,20.9172,8.68912,-0.0529798,0.0,0.0
780,194.75,23.5329,26.1629,168.67,101.455,102.815,0.00371949,0.0954041,20.9175,8.64908,-0.11981,0.0,0.0
783,195.5,23.374,25.9893,163.08,101.441,102.582,0.00370955,0.0953674,20.9176,8.59902,-0.100641,0.0,0.0
786,196.25,23.8442,26.466,166.442,101.437,102.46,0.00368342,0.0952656,20.9177,8.56899,-0.0903111,0.0,0.0
789,197,24.0182,25.9836,164.477,101.418,102.688,0.00366572,0.095108,20.9178,8.62906,-0.112007,0.0,0.0
792,197.75,23.7604,26.2282,165.518,101.417,102.679,0.00365851,0.0949575,20.9178,8.62906,-0.111301,0.0,0.0
795,198.5,23.7387,26.0705,165.131,101.393,102.897,0.00365903,0.0947139,20.9179,8.61905,-0.13257,0.0,0.0
798,199.25,23.8789,26.1152,167.345,101.406,102.263,0.00367039,0.0944325,20.9179,8.6691,-0.0757918,0.0,0.0
801,200,23.4336,26.1424,165.096,101.398,102.363,0.00368341,0.0941283,20.918,8.59902,-0.0851799,0.0,0.0
804,200.75,23.0805,26.5595,164.97,101.396,102.347,0.00370098,0.0938787,20.918,8.65909,-0.0840359,0.0,0.0
807,201.5,23.4903,26.1612,166.486,101.405,102.653,0.00372056,0.0937215,20.918,8.63907,-0.110109,0.0,0.0
810,202.25,23.2941,26.0063,170.158,101.384,102.708,0.00374638,0.0937132,20.9174,8.65909,-0.11675,0.0,0.0
813,203,23.2834,26.2858,162.737,101.395,102.158,0.00377292,0.0937822,20.9169,8.62906,-0.0674942,0.0,0.0
816,203.75,23.0151,26.4112,166.782,101.398,102.414,0.00379217,0.0938106,20.9166,8.58901,-0.0896826,0.0,0.0
819,204.5,23.6493,26.3289,165.653,101.395,102.466,0.00380043,0.0937938,20.9164,8.59902,-0.0945887,0.0,0.0
822,205.25,23.655,26.7546,168.059,101.392,102.062,0.00377896,0.0938093,20.9162,8.58901,-0.0592565,0.0,0.0
825,206,23.6895,26.4415,164.722,101.424,102.488,0.00374643,0.0938324,20.9161,8.60904,-0.0938949,0.0,0.0
828,206.75,23.9045,26.0984,164.17,101.408,102.74,0.00369384,0.0937502,20.9164,8.62906,-0.11748,0.0,0.0
831,207.5,23.6312,26.6871,167.103,101.398,102.403,0.0036339,0.0935807,20.9168,8.59902,-0.0887721,0.0,0.0
834,208.25,23.4817,26.5047,164.976,101.393,103.159,0.00355328,0.0932697,20.9171,8.59902,-0.155318,0.0,0.0
837,209,23.9958,26.3104,165.274,101.399,102.255,0.00349117,0.0927856,20.9172,8.579,-0.0757036,0.0,0.0
840,209.75,23.6115,26.5526,171.364,101.407,102.679,0.00337643,0.0924327,20.9174,8.579,-0.112195,0.0,0.0
843,210.5,24.0031,26.2134,163.409,101.4,102.45,0.00326514,0.0920171,20.9179,8.59902,-0.0927222,0.0,0.0
846,211.25,23.6939,26.4474,162.984,101.391,102.56,0.00314182,0.0916726,20.9185,8.59902,-0.103116,0.0,0.0
849,212,23.915,26.603,163.143,101.408,102.483,0.0030178,0.091484,20.919,8.579,-0.094883,0.0,0.0
852,212.75,24.0809,26.2216,167.467,101.405,102.285,0.00289981,0.0912385,20.9193,8.56899,-0.0777446,0.0,0.0
855,213.5,23.7609,26.4795,164.716,101.408,102.176,0.00280975,0.0909965,20.9195,8.579,-0.0678633,0.0,0.0
858,214.25,23.743,26.6657,161.26,101.406,102.433,0.00273721,0.0907328,20.9197,8.579,-0.0906231,0.0,0.0
861,215,23.3063,26.5792,163.957,101.407,102.113,0.00271529,0.0904851,20.9198,8.59902,-0.0624398,0.0,0.0
864,215.75,23.9844,26.2386,166.676,101.405,102.536,0.00272554,0.0903027,20.9199,8.56899,-0.0998396,0.0,0.0
867,216.5,23.6333,26.7482,168.965,101.399,102.547,0.00277787,0.0902072,20.9199,8.52895,-0.101308,0.0,0.0
870,217.25,23.5714,26.8345,166.281,101.393,102.889,0.00285569,0.0902208,20.92,8.55898,-0.131724,0.0,0.0
873,218,23.4813,26.3666,163.716,101.42,102.415,0.00293741,0.0902662,20.92,8.52895,-0.0878004,0.0,0.0
876,218.75,23.5672,26.4028,167.043,101.423,102.683,0.00301082,0.0902795,20.92,8.53896,-0.111098,0.0,0.0
879,219.5,23.6979,26.6494,165.044,101.417,102.293,0.00305155,0.0902454,20.9205,8.52895,-0.0773497,0.0,0.0
882,220.25,23.3841,26.9756,160.606,101.415,102.392,0.0030518,0.0901456,20.921,8.49892,-0.0863257,0.0,0.0
885,221,24.0148,26.5894,165.305,101.41,102.231,0.00303943,0.0898752,20.9214,8.49892,-0.0725536,0.0,0.0
888,221.75,23.8515,26.2587,171.402,101.416,102.339,0.00299378,0.0895533,20.9217,8.39882,-0.0815567,0.0,0.0
891,222.5,23.4858,26.7462,170.493,101.428,102.629,0.00294974,0.0892144,20.9219,8.43886,-0.105933,0.0,0.0
894,223.25,23.8507,26.6296,163.458,101.412,102.439,0.00289922,0.0888801,20.9224,8.41884,-0.090686,0.0,0.0
897,224,23.7861,26.7828,167.075,101.403,102.223,0.00285218,0.0886561,20.9228,8.46889,-0.0724184,0.0,0.0
900,224.75,24.0343,26.5862,172.312,101.429,102.159,0.00281352,0.0884929,20.9231,8.46889,-0.0645695,0.0,0.0
903,225.5,23.6487,26.7607,163.213,101.421,102.232,0.00278352,0.0883332,20.9233,8.45888,-0.0715939,0.0,0.0
906,226.25,24.0793,27.0072,163.233,101.43,102.309,0.00276804,0.0881148,20.9234,8.46889,-0.0776461,0.0,0.0
909,227,23.6772,26.7845,168.092,101.441,102.394,0.00276284,0.087781,20.9235,8.4789,-0.0841539,0.0,0.0
912,227.75,23.6884,27.0373,165.662,101.438,102.165,0.0027648,0.0873024,20.9236,8.43886,-0.0642984,0.0,0.0
915,228.5,23.8066,26.3878,166.171,101.449,102.469,0.00276258,0.086824,20.9237,8.41884,-0.0899681,0.0,0.0
918,229.25,23.9082,26.8653,166.288,101.439,102.089,0.00274886,0.0864254,20.9237,8.42885,-0.0574254,0.0,0.0
921,230,23.5492,26.4666,167.11,101.433,102.559,0.00271816,0.0861546,20.924,8.44887,-0.0993472,0.0,0.0
924,230.75,23.9816,26.313,170.042,101.463,102.328,0.00269579,0.0859157,20.9246,8.42885,-0.0763933,0.0,0.0
927,231.5,23.3252,26.725,161.369,101.454,102.446,0.00262304,0.0857238,20.9253,8.43886,-0.087555,0.0,0.0
930,232.25,23.4046,26.221,167.121,101.445,102.377,0.00255261,0.0855839,20.9259,8.46889,-0.082361,0.0,0.0
933,233,23.2987,26.5053,163.909,101.44,102.105,0.00247152,0.0854819,20.9264,8.42885,-0.0587307,0.0,0.0
936,233.75,23.5362,26.316,166.659,101.473,102.547,0.0023797,0.0852969,20.9269,8.44887,-0.0947567,0.0,0.0
939,234.5,23.4295,26.5389,166.659,101.471,102.782,0.00230539,0.0851149,20.9273,8.45888,-0.115492,0.0,0.0
942,235.25,23.7022,26.1567,170.481,101.472,102.337,0.0022386,0.0848057,20.9276,8.46889,-0.0763949,0.0,0.0
945,236,23.746,26.5086,166.119,101.474,102.589,0.0021881,0.0845388,20.9285,8.44887,-0.0983662,0.0,0.0
948,236.75,23.6931,26.477,165.746,101.469,102.75,0.00215396,0.0843048,20.9291,8.42885,-0.112908,0.0,0.0
951,237.5,24.067,26.2395,166.936,101.491,102.192,0.00213366,0.0840968,20.9296,8.43886,-0.0619008,0.0,0.0
954,238.25,23.4026,26.3414,170.026,101.499,102.536,0.00212838,0.084042,20.9298,8.41884,-0.0914575,0.0,0.0
957,239,24.0663,26.5804,169.21,101.496,102.43,0.00212832,0.0840433,20.9301,8.42885,-0.0824303,0.0,0.0
960,239.75,23.8582,26.5722,165.799,101.491,102.551,0.00213858,0.0841626,20.9296,8.42885,-0.0935204,0.0,0.0
963,240.5,23.5192,26.2597,169.421,101.514,102.717,0.00217152,0.0842059,20.9293,8.40882,-0.106021,0.0,0.0
966,241.25,23.5035,26.3711,166.62,101.517,102.11,0.00220318,0.0841757,20.9291,8.42885,-0.0524241,0.0,0.0
969,242,23.4118,26.5667,169.278,101.526,102.773,0.00222951,0.0840855,20.9289,8.41884,-0.109929,0.0,0.0
972,242.75,23.7207,26.7931,165.161,101.524,102.802,0.00223235,0.0839233,20.9292,8.40882,-0.112537,0.0,0.0
975,243.5,23.8879,26.4915,163.393,101.547,102.078,0.00223442,0.0836807,20.9297,8.39882,-0.0469048,0.0,0.0
978,244.25,23.5267,27,165.229,101.552,102.758,0.00221926,0.083287,20.9298,8.41884,-0.106187,0.0,0.0
981,245,23.499,26.5993,165.122,101.544,102.554,0.00219238,0.0829033,20.9298,8.41884,-0.0891068,0.0,0.0
984,245.75,24.1772,26.8058,166.744,101.535,102.784,0.00215789,0.0825823,20.9299,8.41884,-0.110064,0.0,0.0
987,246.5,23.562,26.6696,164.602,101.552,103.012,0.0021164,0.0822923,20.9299,8.39882,-0.128452,0.0,0.0
990,247.25,23.7624,26.3089,163.417,101.566,102.59,0.00206707,0.0820569,20.9299,8.39882,-0.0902748,0.0,0.0
993,248,23.6313,26.3036,162.734,101.576,102.161,0.00201359,0.0817672,20.9299,8.3888,-0.0516123,0.0,0.0
996,248.75,23.4451,26.1526,171.294,101.558,102.274,0.00195858,0.0815007,20.9303,8.35877,-0.0632062,0.0,0.0
999,249.5,23.5213,26.4069,164.554,101.582,102.66,0.00191339,0.0812829,20.9308,8.36878,-0.0950445,0.0,0.0
1002,250.25,23.6595,26.7261,162.479,101.585,102.487,0.00187828,0.0810848,20.9312,8.39882,-0.0795111,0.0,0.0
1005,251,23.3575,26.4578,165.087,101.584,102.494,0.00185087,0.0808575,20.9315,8.37879,-0.0802222,0.0,0.0
1008,251.75,23.4295,26.5966,164.07,101.581,102.675,0.00183215,0.0806128,20.9317,8.36878,-0.0964746,0.0,0.0
1011,252.5,23.6581,26.8471,162.952,101.605,102.556,0.00181906,0.08036,20.9318,8.34876,-0.0838161,0.0,0.0
1014,253.25,23.7281,26.4667,164.314,101.607,102.403,0.00181509,0.0799962,20.9319,8.35877,-0.0701635,0.0,0.0
1017,254,23.8439,26.2434,163.915,101.611,102.462,0.00181221,0.0796328,20.9326,8.33875,-0.075067,0.0,0.0
1020,254.75,23.7297,26.6662,164.9,101.607,102.531,0.00177927,0.0793306,20.9334,8.25867,-0.0814095,0.0,0.0
1023,255.5,24.047,26.8406,168.752,101.617,102.935,,0.0790413,,8.1986,-0.115932,0.0,0.0
1026,256.25,23.2902,26.5407,167.089,101.611,102.605,,0.078801,,8.20861,-0.0876168,0.0,0.0
1029,257,23.7309,26.7128,167.201,101.619,102.641,,0.0784473,,8.27869,-0.0900104,0.0,0.0
1032,257.75,23.6517,26.4767,166.36,101.595,102.496,,0.0781134,,8.2887,-0.0794381,0.0,0.0
1035,258.5,23.3365,26.5476,169.615,101.607,102.364,,,,8.2887,-0.0668203,0.0,0.0
1038,259.25,23.9897,26.832,163.903,101.615,102.949,,,,8.24866,-0.117341,0.0,0.0
1041,260,23.7787,26.3766,169.951,101.618,102.272,,,,8.32874,-0.0576629,0.0,0.0
1044,260.75,23.6041,26.6635,162.416,101.63,102.762,,,,8.24866,-0.0996287,0.0,0.0
1047,261.5,23.5903,26.5499,164.187,101.619,102.871,,,,8.20861,-0.110252,0.0,0.0
1050,262.25,23.8223,26.2358,162.239,101.626,102.866,,,,8.27869,-0.109121,0.0,0.0
1053,263,23.3766,26.9668,170.367,101.623,102.289,,,,8.24866,-0.058768,0.0,0.0
1056,263.75,23.598,26.3128,162.469,101.633,102.7,,,,8.2887,-0.0940472,0.0,0.0
1059,264.5,23.4136,25.7917,167.284,101.626,102.555,,,,8.25867,-0.0818301,0.0,0.0
1062,265.25,23.7363,25.8431,164.85,101.649,103.114,,,,8.25867,-0.128694,0.0,0.0
1065,266,23.4869,26.3214,160.543,101.64,102.611,,,,8.29871,-0.0855616,0.0,0.0
1066,266.25,23.8572,26.5184,166.775,101.648,103.159,,,,8.30872,-0.132742,0.0,0.0