File: 01_Data/Cotton_Raw/Cone/Cotton_Raw_Cone_HF25-Frame+GridScan_200908_R1.csv
Names,Time,Stack TC,Smoke TC,Exh Press,Smoke Comp,Smoke Meas,CO Meter,CO2 Meter,O2 Meter,Sample Mass,Ext Coeff,Start Test,Flame Verif
Chan Gain,,500,500,1,1,1,1,1,1,1,1,1.0,1.0
Offset,,0,0,0.136754,0,0,0,0,0,0,0,0.0,0.0
Gain,,1,1,25.011,13.5073,16.5741,1,1,1,1.00105,1.03303,1.0,1.0
Units,sec,C,C,Pa,%,%,%,%,%,g,/m,,
Baseline,,22.4509,24.4359,169.416,101.271,101.327,0.000779913,0.0581108,20.9667,-947.947,-0.00498878,,
3,0.5,21.0574,22.6978,172.245,101.198,101.208,0.000804846,0.0590773,20.9701,-32.7342,-0.000870169,0.0,0.0
6,1.25,19.5794,21.462,170.024,101.19,100.963,0.000869146,0.0589879,20.97,-32.8043,0.0203654,0.0,0.0
9,2,19.6965,21.3366,164.281,101.207,100.991,0.000925172,0.0588984,20.9696,-32.7042,0.0193544,0.0,0.0
12,2.75,20.0154,21.5427,168.105,101.195,101.255,0.000955911,0.0589296,20.9693,-32.7042,-0.00542168,0.0,0.0
15,3.5,20.0299,21.263,168.706,101.184,100.97,0.000962052,0.0589452,20.969,-32.7242,0.019184,0.0,0.0
18,4.25,19.956,21.9416,163.874,101.189,101.103,0.000946078,0.0589444,20.9689,-32.7442,0.00769662,0.0,0.0
21,5,20.0163,21.676,171.187,101.204,101.267,0.000898443,0.0589012,20.96875,-32.7342,-0.00561354,0.0,0.0
24,5.75,20.2772,22.2151,165.969,101.181,101.077,0.000847792,0.0587966,20.9687,-32.7743,0.00931653,0.0,0.0
27,6.5,20.5879,22.2971,172.573,101.181,100.954,0.000783637,0.0587397,20.9686,-32.8644,0.0203341,0.0,0.0
30,7.25,20.0641,22.5991,169.417,101.181,101.095,0.000699137,0.0587253,20.9686,-32.7643,0.00775814,0.0,0.0
33,8,20.5297,22.4035,171.192,101.191,101.076,0.000623686,0.0587262,20.9685,-32.7843,0.0103665,0.0,0.0
36,8.75,20.582,22.1344,167.035,101.18,101.028,0.000562779,0.0587655,20.9685,-32.7743,0.0136794,0.0,0.0
39,9.5,20.549,22.1259,167.248,101.175,101.11,0.00055994,0.0588347,20.9685,-32.8243,0.00580655,0.0,0.0
42,10.25,21.1144,23.0634,163.819,101.171,100.981,0.00057559,0.0589024,20.9685,-32.8844,0.0170872,0.0,0.0
45,11,20.1917,22.5773,171.977,101.174,100.94,0.000669748,0.0590482,20.9684,-32.8744,0.0209776,0.0,0.0
48,11.75,21.1386,22.6419,170.722,101.169,101.296,0.000803984,0.0592327,20.9684,-32.8744,-0.0114134,0.0,0.0
51,12.5,20.9758,22.9098,169.849,101.146,100.955,0.000953111,0.0595011,20.9684,-33.0045,0.017112,0.0,0.0
54,13.25,20.6376,22.4244,170.297,101.16,100.488,0.00110168,0.0598185,20.9684,-32.9244,0.0603606,0.0,0.0
57,14,20.7616,22.9244,165.795,101.164,101.102,0.00120998,0.060116,20.9682,-32.9444,0.00553558,0.0,0.0
60,14.75,20.8202,23.0527,172.299,101.157,101.006,0.00134313,0.0603572,20.9674,-32.9444,0.0134799,0.0,0.0
63,15.5,20.5467,23.1053,172.844,101.143,100.568,0.00144923,0.0605866,20.9666,-32.8544,0.0516894,0.0,0.0
66,16.25,21.042,23.1846,168.246,101.144,100.313,0.00152658,0.0607766,20.9661,-32.8744,0.0747615,0.0,0.0
69,17,21.0138,23.2094,167.88,101.155,100.184,0.0015779,0.0611993,20.9654,-32.9444,0.0873722,0.0,0.0
72,17.75,20.8477,22.7212,167.582,101.146,100.414,0.00161515,0.0629143,20.9645,-33.0145,0.0658498,0.0,0.0
75,18.5,20.9228,23.4291,164.99,101.138,100.274,0.00164573,0.0663633,20.9602,-33.0245,0.0777179,0.0,0.0
78,19.25,21.2167,23.1963,174.207,101.129,100.244,0.00169514,0.0764718,20.9491,-33.0445,0.0797312,0.0,0.0
81,20,20.3693,23.2463,160.272,101.144,101.669,0.00174786,0.0870784,20.9378,-32.9845,-0.0468778,0.0,1.0
84,20.75,21.5344,24.1656,163.699,101.143,101.901,0.00181483,0.106916,20.917,-33.0345,-0.0676127,0.0,1.0
87,21.5,22.2009,25.0088,165.285,101.132,102.221,0.00191254,0.122323,20.9006,-33.1747,-0.0970817,0.0,1.0
90,22.25,22.8485,26.9101,162.395,101.126,102.629,0.00200283,0.135169,20.8881,-33.2948,-0.133748,0.0,1.0
93,23,22.8077,27.6082,165.316,101.139,101.656,0.00207678,0.144615,20.8789,-33.3349,-0.0461851,0.0,1.0
96,23.75,23.6058,27.8193,164.172,101.121,101.913,0.00213969,0.151416,20.8723,-33.3849,-0.0706496,0.0,1.0
99,24.5,24.24,27.5874,166.739,101.127,101.584,0.00219206,0.156157,20.8677,-33.2748,-0.0409343,0.0,1.0
102,25.25,22.9722,26.7054,165.683,101.1,101.85,0.00223481,0.159304,20.8649,-33.3449,-0.0669472,0.0,0.0
105,26,22.9576,27.158,163.576,101.121,101.676,0.00227142,0.161337,20.8629,-33.3649,-0.0496145,0.0,0.0
108,26.75,22.9742,27.0695,159.756,101.106,101.367,0.00230192,0.162371,20.8614,-33.4149,-0.0233225,0.0,0.0
111,27.5,22.8088,27.5509,165.374,101.112,101.469,0.00232579,0.163104,20.8604,-33.515,-0.0319257,0.0,0.0
114,28.25,23.1986,27.7127,163.52,101.111,101.828,0.00236132,0.163938,20.8596,-33.5651,-0.0640138,0.0,0.0
117,29,23.155,28.1153,167.382,101.111,101.841,0.0024025,0.164674,20.8586,-33.5551,-0.0651921,0.0,0.0
120,29.75,23.3525,28.4422,169.332,101.106,101.6,0.00243902,0.165576,20.8577,-33.515,-0.0441435,0.0,0.0
123,30.5,23.2934,28.3908,159.206,101.101,101.767,0.00247583,0.166476,20.8566,-33.5551,-0.059498,0.0,0.0
126,31.25,23.7504,28.5899,161.896,101.099,102.124,0.00250446,0.167311,20.8556,-33.6452,-0.0913414,0.0,0.0
129,32,24.2419,28.9757,163.583,101.092,101.687,0.00252156,0.168048,20.8548,-33.6952,-0.0532294,0.0,0.0
132,32.75,24.5439,29.1006,160.141,101.094,101.959,0.00252945,0.168943,20.8539,-33.7353,-0.0771792,0.0,0.0
135,33.5,23.8524,28.8894,165.23,101.092,101.064,0.00253391,0.169748,20.853,-33.7753,0.00247231,0.0,0.0
138,34.25,24.1109,29.5319,164.889,101.078,101.9,0.00253497,0.170987,20.8523,-33.7953,-0.0734415,0.0,0.0
141,35,24.5144,29.2041,167.401,101.08,101.919,0.00252303,0.171905,20.852,-33.8854,-0.0749205,0.0,0.0
144,35.75,24.6862,29.3635,165.518,101.072,101.644,0.00250797,0.17258,20.8519,-33.8154,-0.0511342,0.0,0.0
147,36.5,25.1899,29.965,173.274,101.071,101.708,0.00249428,0.172421,20.8518,-33.8654,-0.0569692,0.0,0.0
150,37.25,24.2591,29.6075,171.023,101.073,101.475,0.00249702,0.171862,20.8517,-33.8654,-0.0359869,0.0,0.0
153,38,25.1373,30.0617,164.173,101.066,102.081,0.00252078,0.17119,20.8521,-33.9155,-0.0905569,0.0,0.0
156,38.75,24.8074,30.1526,169.055,101.075,101.601,0.00255975,0.170572,20.8524,-33.9455,-0.0470331,0.0,0.0
159,39.5,24.8067,30.0922,167.607,101.073,102.002,0.00260543,0.170054,20.8527,-34.0356,-0.0829656,0.0,0.0
162,40.25,25.3712,29.6254,162.569,101.068,101.319,0.00265249,0.169561,20.8535,-33.9855,-0.022507,0.0,0.0
165,41,24.5853,29.8931,158.239,101.055,101.995,0.00270315,0.168901,20.8549,-34.0856,-0.0838443,0.0,0.0
168,41.75,24.9234,29.9665,161.787,101.066,101.632,0.00275538,0.167907,20.8564,-34.0756,-0.0505981,0.0,0.0
171,42.5,24.9724,29.4942,168.22,101.055,102.022,0.00280669,0.166472,20.8574,-34.1157,-0.0863523,0.0,0.0
174,43.25,24.6042,29.6987,161.613,101.068,101.515,0.00285557,0.164928,20.8588,-34.1757,-0.0399604,0.0,0.0
177,44,25.1422,29.6754,165.87,101.05,101.51,0.00291136,0.163479,20.8598,-34.2458,-0.0411724,0.0,0.0
180,44.75,24.9409,30.2545,165.021,101.061,101.888,0.00296403,0.16223,20.8603,-34.2959,-0.0738401,0.0,0.0
183,45.5,25.1767,29.5587,163.79,101.061,102.016,0.0030632,0.161098,20.8611,-34.2658,-0.0852509,0.0,0.0
186,46.25,25.0522,29.7384,167.156,101.05,101.604,0.00317539,0.160272,20.8621,-34.2959,-0.0495298,0.0,0.0
189,47,24.6209,29.2363,162.678,101.042,101.358,0.00329746,0.159003,20.8635,-34.3259,-0.0283106,0.0,0.0
192,47.75,24.9216,29.9302,164.293,101.044,101.584,0.00345219,0.158354,20.8649,-34.406,-0.0483248,0.0,0.0
195,48.5,24.6303,29.6024,160.815,101.043,102.104,0.00358927,0.156999,20.8661,-34.426,-0.0947362,0.0,0.0
198,49.25,24.9034,29.782,167.449,101.058,101.569,0.00373074,0.155644,20.8676,-34.436,-0.0457513,0.0,0.0
201,50,25.2516,29.6686,170.503,101.029,101.702,0.00386498,0.154343,20.8692,-34.5461,-0.0601994,0.0,0.0
204,50.75,24.569,29.5459,167.24,101.039,101.514,0.00396284,0.153127,20.8705,-34.5661,-0.0424492,0.0,0.0
207,51.5,25.1212,29.3418,161.829,101.043,101.714,0.004047,0.151778,20.8714,-34.5762,-0.0600151,0.0,0.0
210,52.25,24.4146,29.0436,165.866,101.035,101.524,0.00410706,0.150752,20.8721,-34.5661,-0.0437224,0.0,0.0
213,53,24.8415,29.3495,164.239,101.03,101.326,0.00414895,0.149987,20.8726,-34.6763,-0.0265331,0.0,0.0
216,53.75,25.2174,29.0633,164.712,101.021,101.479,0.00417718,0.149428,20.873,-34.6562,-0.0409239,0.0,0.0
219,54.5,24.7294,29.2854,164.931,101.026,101.766,0.00420663,0.14894,20.8733,-34.6562,-0.0660527,0.0,0.0
222,55.25,24.8901,29.2588,167.405,101.028,101.625,0.00423189,0.148444,20.8741,-34.7163,-0.053412,0.0,0.0
225,56,24.9237,29.3702,164.109,101.02,101.735,0.00428144,0.147829,20.8745,-34.7263,-0.0638599,0.0,0.0
228,56.75,24.6147,29.429,164.974,101.017,101.798,0.00433812,0.147272,20.875,-34.7263,-0.0697929,0.0,0.0
231,57.5,24.8629,29.0109,166.352,101.018,101.449,0.00438821,0.146222,20.8757,-34.7463,-0.0385988,0.0,0.0
234,58.25,24.6966,29.0398,164.412,101.025,101.54,0.00444672,0.145092,20.8767,-34.7563,-0.0460987,0.0,0.0
237,59,24.5816,28.776,168.221,101.012,101.63,0.00449208,0.143919,20.8776,-34.7864,-0.0553507,0.0,0.0
240,59.75,24.4919,28.8331,166.24,100.99,101.344,0.00452978,0.142736,20.8785,-34.8064,-0.031749,0.0,0.0
243,60.5,24.601,28.9219,162.296,100.996,101.43,0.00455727,0.141536,20.8795,-34.8464,-0.0388711,0.0,0.0
246,61.25,24.7064,29.1875,166.261,100.979,101.176,0.00459381,0.140518,20.8809,-34.8464,-0.0177196,0.0,0.0
249,62,24.6808,28.8629,164.758,100.977,101.216,0.00463718,0.139436,20.8818,-34.8665,-0.0214832,0.0,0.0
252,62.75,24.6199,29.1994,165.774,100.967,101.604,0.00467592,0.138647,20.8825,-34.9465,-0.0569996,0.0,0.0
255,63.5,24.3766,28.6354,171.71,100.974,101.358,0.00475007,0.137736,20.8837,-35.0266,-0.0344123,0.0,0.0
258,64.25,24.3401,28.0479,172.976,100.975,101.483,0.00484795,0.136744,20.8845,-35.0266,-0.0454636,0.0,0.0
261,65,24.4411,28.7232,164.932,100.975,101.229,0.00493797,0.135706,20.8851,-35.1067,-0.0227999,0.0,0.0
264,65.75,24.8071,28.6666,164.978,100.968,101.168,0.00508503,0.134781,20.8858,-35.1267,-0.0179112,0.0,0.0
267,66.5,24.515,28.3735,163.45,100.953,100.914,0.00525758,0.134117,20.8867,-35.0967,0.00351979,0.0,0.0
270,67.25,24.3289,27.7927,166.743,100.956,100.821,0.00543574,0.133771,20.8882,-35.1367,0.0121035,0.0,0.0
273,68,23.8398,28.0322,166.039,100.956,101.454,0.00565059,0.133394,20.8893,-35.0967,-0.0446353,0.0,0.0
276,68.75,23.6214,27.8372,162.787,100.945,101.216,0.0058565,0.132906,20.8903,-35.1768,-0.0242951,0.0,0.0
279,69.5,23.7378,27.8106,161.582,100.937,101.104,0.00602762,0.131335,20.8914,-35.1768,-0.0150136,0.0,0.0
282,70.25,23.7322,28.0128,168.97,100.955,101.047,0.00624498,0.129934,20.8929,-35.1868,-0.00826916,0.0,0.0
285,71,24.5873,27.9611,166.866,100.949,100.752,0.0064724,0.128458,20.8939,-35.2368,0.0176209,0.0,0.0
288,71.75,24.6126,27.2325,166.983,100.946,101.702,0.00666758,0.127357,20.8947,-35.1968,-0.0675882,0.0,0.0
291,72.5,23.5648,27.2631,163.881,100.939,101.468,0.00687894,0.126734,20.8953,-35.2469,-0.047291,0.0,0.0
294,73.25,23.7278,27.2937,167.54,100.954,101.277,0.00708445,0.126279,20.8957,-35.2569,-0.0289581,0.0,0.0
297,74,24.0013,27.2273,163.616,100.942,101.018,0.00727185,0.126106,20.8954,-35.2969,-0.00685937,0.0,0.0
300,74.75,23.8877,27.5998,166.753,100.941,101.341,0.00745878,0.126148,20.8951,-35.367,-0.0358427,0.0,0.0
303,75.5,24.0454,27.4497,162.44,100.959,101.166,0.0076115,0.12625,20.895,-35.377,-0.0185071,0.0,0.0
306,76.25,24.2632,27.2171,160.474,100.947,101.432,0.00775096,0.126344,20.8948,-35.4971,-0.0434168,0.0,0.0
309,77,24.0726,27.289,170.929,100.948,101.303,0.0078631,0.126302,20.8946,-35.4471,-0.0317761,0.0,0.0
312,77.75,23.5216,27.3454,167.875,100.948,101.068,0.00795826,0.126084,20.8943,-35.4371,-0.0107952,0.0,0.0
315,78.5,23.8807,27.2506,163.707,100.928,100.581,0.00804294,0.125534,20.8948,-35.4971,0.031206,0.0,0.0
318,79.25,24.1825,27.232,170.291,100.941,101.747,0.00813156,0.12471,20.8951,-35.6172,-0.0720874,0.0,0.0
321,80,24.1127,27.0049,165.188,100.932,101.057,0.00824213,0.123671,20.8959,-35.5672,-0.0112122,0.0,0.0
324,80.75,24.1942,27.4759,166.581,100.934,101.16,0.0083962,0.1222,20.897,-35.6172,-0.0202662,0.0,0.0
327,81.5,23.7853,26.919,166.894,100.921,101.053,0.00857372,0.120865,20.8986,-35.6573,-0.0118768,0.0,0.0
330,82.25,23.5183,26.8044,168.022,100.908,100.98,0.00876109,0.119442,20.9004,-35.6072,-0.00645452,0.0,0.0
333,83,23.3653,26.4836,164.958,100.898,100.673,0.00896149,0.118239,20.9016,-35.6673,0.0202964,0.0,0.0
336,83.75,23.8089,26.7322,163.476,100.897,100.316,0.00910758,0.11729,20.9026,-35.6873,0.0523768,0.0,0.0
339,84.5,23.3142,26.2221,164.397,100.888,101.327,0.00922856,0.116639,20.9035,-35.7274,-0.0393881,0.0,0.0
342,85.25,23.2494,26.7515,167.555,100.889,101.645,0.00929473,0.11615,20.9042,-35.7374,-0.0676024,0.0,0.0
345,86,23.725,26.5034,165.27,100.876,100.576,0.00937681,0.115787,20.9051,-35.7574,0.0269969,0.0,0.0
348,86.75,23.6272,26.9722,167.583,100.872,101.084,0.00943665,0.115355,20.9057,-35.6573,-0.0190115,0.0,0.0
351,87.5,23.1914,26.8225,169.203,100.863,100.909,0.00950469,0.114754,20.9062,-35.6973,-0.00413283,0.0,0.0
354,88.25,23.5237,26.7058,163.6,100.858,100.759,0.00958067,0.114169,20.9067,-35.7774,0.00888595,0.0,0.0
357,89,23.7209,26.76,168.501,100.848,100.757,0.00966951,0.113494,20.9076,-35.7974,0.00821576,0.0,0.0
360,89.75,23.6994,26.5037,167.324,100.838,101.272,0.00977227,0.112587,20.9081,-35.7874,-0.0388635,0.0,0.0
363,90.5,23.5116,26.6953,169.344,100.831,100.83,0.00990935,0.111749,20.9086,-35.8375,6.69741e-05,0.0,0.0
366,91.25,23.7084,25.8578,164.335,100.813,100.619,0.0100295,0.111217,20.9089,-35.8675,0.017457,0.0,0.0
369,92,23.144,25.7081,168.284,100.814,100.752,0.0101515,0.110981,20.9097,-35.8675,0.00559603,0.0,0.0
372,92.75,22.6269,26.1723,170.124,100.802,100.533,0.0102764,0.110918,20.9103,-35.8975,0.0242037,0.0,0.0
375,93.5,23.7158,26.1259,168.404,100.794,100.344,0.0103674,0.110946,20.9108,-35.9676,0.0405292,0.0,0.0
378,94.25,23.2962,25.9423,167.682,100.778,100.581,0.0104394,0.110888,20.9111,-35.9976,0.0177244,0.0,0.0
381,95,22.9265,25.9568,164.647,100.784,100.353,0.0104813,0.110652,20.9114,-36.0277,0.0387729,0.0,0.0
384,95.75,23.6258,25.7116,164.18,100.777,100.363,0.0105073,0.110397,20.9115,-36.0277,0.0373486,0.0,0.0
387,96.5,22.8276,25.9221,165.32,100.774,100.476,0.0105157,0.110094,20.9117,-36.0177,0.0268288,0.0,0.0
390,97.25,23.3195,25.5605,167.276,100.746,100.463,0.0105147,0.109872,20.9118,-36.0477,0.0255029,0.0,0.0
393,98,23.0963,26.0321,166.139,100.752,100.989,0.0105093,0.109651,20.9118,-36.0277,-0.0212293,0.0,0.0
396,98.75,23.1425,25.7025,161.217,100.747,100.57,0.0104995,0.109504,20.9119,-36.0277,0.0159011,0.0,0.0
399,99.5,22.8886,25.6733,167.068,100.735,100.496,0.010464,0.109403,20.9119,-36.0977,0.0214819,0.0,0.0
402,100.25,23.2635,26.3959,170.912,100.726,100.492,0.0104381,0.109388,20.9119,-36.1278,0.0209937,0.0,0.0
405,101,23.1669,26.1134,168.39,100.747,100.67,0.0103458,0.10935,20.912,-36.1678,0.00696482,0.0,0.0
408,101.75,23.126,26.0102,168.117,100.726,100.429,0.0102486,0.10931,20.912,-36.1878,0.0267416,0.0,0.0
411,102.5,23.3969,26.5488,175.494,100.711,100.768,0.0100989,0.109281,20.912,-36.1778,-0.00511904,0.0,0.0
414,103.25,23.0599,26.0733,168.52,100.713,100.7,0.00994242,0.109359,20.912,-36.2279,0.00115469,0.0,0.0
417,104,22.9653,25.9774,167.11,100.699,100.68,0.00977387,0.109415,20.912,-36.2379,0.00167744,0.0,0.0
420,104.75,22.6294,25.9984,165.824,100.697,100.878,0.00963522,0.109515,20.912,-36.2479,-0.0162905,0.0,0.0
423,105.5,22.9544,25.4265,166.199,100.706,100.693,0.00952742,0.109478,20.912,-36.2579,0.00116117,0.0,0.0
426,106.25,22.978,26.3158,169.65,100.689,100.49,0.00944883,0.109309,20.912,-36.348,0.0178753,0.0,0.0
429,107,23.3863,25.991,167.754,100.674,100.856,0.00939154,0.108966,20.912,-36.338,-0.0164139,0.0,0.0
432,107.75,22.7761,25.7945,165.526,100.666,100.613,0.00936923,0.108616,20.912,-36.4381,0.00476689,0.0,0.0
435,108.5,23.1817,25.8868,171.542,100.662,100.616,0.00938623,0.108362,20.9116,-36.4281,0.00415902,0.0,0.0
438,109.25,23.024,25.5566,163.825,100.646,100.518,0.00943055,0.108176,20.9114,-36.4081,0.0115166,0.0,0.0
441,110,23.1822,25.8328,168.673,100.656,100.374,0.00947998,0.107999,20.9113,-36.388,0.0254491,0.0,0.0
444,110.75,22.7495,25.753,161.01,100.647,100.646,0.0095254,0.107853,20.9113,-36.4281,9.93808e-05,0.0,0.0
447,111.5,22.7952,25.2312,167.39,100.634,100.676,0.00956207,0.107816,20.9107,-36.4081,-0.00370055,0.0,0.0
450,112.25,23.1039,25.7107,162.696,100.623,101.022,0.00957167,0.107847,20.9102,-36.4481,-0.0358269,0.0,0.0
453,113,23.209,25.5107,167.066,100.611,100.971,0.00955751,0.10792,20.9098,-36.4281,-0.0324103,0.0,0.0
456,113.75,22.7425,25.6534,167.784,100.61,100.688,0.00952349,0.107934,20.9102,-36.4982,-0.00702963,0.0,0.0
459,114.5,22.919,25.8871,167.42,100.593,100.625,0.00946448,0.107828,20.9105,-36.5482,-0.00285982,0.0,0.0
462,115.25,22.835,25.6062,167.61,100.599,100.819,0.00940688,0.107552,20.9107,-36.5983,-0.0197687,0.0,0.0
465,116,23.2442,25.8142,167.188,100.575,100.469,0.00937052,0.107153,20.9108,-36.6884,0.00962947,0.0,0.0
468,116.75,22.9519,26.0371,163.945,100.568,100.616,0.00937559,0.106819,20.9112,-36.6283,-0.00434249,0.0,0.0
471,117.5,22.8471,25.2572,170.24,100.555,100.077,0.00941007,0.106501,20.9118,-36.6383,0.0431872,0.0,0.0
474,118.25,22.753,25.5229,164.58,100.552,100.111,0.00946484,0.106242,20.9123,-36.6383,0.039786,0.0,0.0
477,119,23.097,25.7811,165.305,100.535,100.379,0.00954423,0.106056,20.9126,-36.6583,0.0141497,0.0,0.0
480,119.75,23.0017,25.7153,163.357,100.538,101.229,0.00960738,0.105945,20.9128,-36.6583,-0.0620971,0.0,0.0
483,120.5,23.1685,25.8342,167.925,100.535,100.491,0.00965567,0.105805,20.913,-36.6984,0.00393659,0.0,0.0
486,121.25,23.1799,25.3695,166.868,100.514,100.232,0.0096856,0.105608,20.9134,-36.6984,0.0254318,0.0,0.0
489,122,22.9505,25.3016,167.834,100.496,100.23,0.00970517,0.105304,20.914,-36.6884,0.0240163,0.0,0.0
492,122.75,22.4161,25.2961,165.489,100.493,100.59,0.00969687,0.104807,20.9145,-36.7885,-0.00869842,0.0,0.0
495,123.5,23.3174,25.5585,170.279,100.493,100.275,0.00968556,0.104155,20.9151,-36.8185,0.0196422,0.0,0.0
498,124.25,23.6493,25.4606,167.118,100.472,99.9295,0.00967784,0.103556,20.9161,-36.8185,0.0491015,0.0,0.0
501,125,23.2762,25.6207,166.146,100.468,100.394,0.00967695,0.102597,20.9173,-36.8585,0.00663991,0.0,0.0
504,125.75,22.8696,25.938,168.313,100.454,99.7272,0.00971391,0.101457,20.9181,-36.9286,0.065793,0.0,0.0
507,126.5,22.9655,25.391,168.942,100.454,99.8749,0.00977647,0.100255,20.9187,-36.9086,0.0524208,0.0,0.0
510,127.25,21.374,23.4504,166.914,100.432,100.155,0.00983726,0.0992814,20.9192,-36.9186,0.0250699,0.0,0.0
513,128,21.2418,23.5935,169.449,100.432,100.048,0.0099343,0.0986537,20.9195,-36.9486,0.0346943,0.0,0.0
516,128.75,20.9363,23.8182,168.981,100.433,99.7868,0.0100127,0.0982457,20.9198,-37.0187,0.058474,0.0,0.0
519,129.5,20.7946,23.4351,165.499,100.413,99.7651,0.0100829,0.097973,20.9199,-37.0187,0.0586275,0.0,0.0
522,130.25,20.7395,23.2099,166.518,100.423,100.156,0.0101341,0.097788,20.9201,-36.9887,0.0241143,0.0,0.0
525,131,20.7042,22.8905,166.06,100.395,99.8577,0.0101694,0.0976589,20.9212,-36.9887,0.048588,0.0,0.0
528,131.75,20.7854,22.9659,166.953,100.402,99.6098,0.0102045,0.0974277,20.9221,-37.0487,0.0718126,0.0,0.0
531,132.5,20.6198,23.274,166.436,100.392,99.8921,0.0102224,0.0972591,20.9225,-37.1288,0.0452813,0.0,0.0
534,133.25,20.1445,22.7179,172.426,100.385,100.157,0.0102545,0.0970667,20.9231,-37.1589,0.020609,0.0,0.0
537,134,20.4134,22.8419,170.762,100.389,99.6397,0.0102785,0.0970206,20.9235,-37.0587,0.0679075,0.0,0.0
540,134.75,20.1311,22.9549,168.538,100.375,99.7267,0.0102863,0.0970396,20.9237,-37.1088,0.0586972,0.0,0.0
543,135.5,20.7694,22.6692,164.525,100.386,100.395,0.010302,0.0971318,20.9239,-37.1188,-0.000816692,0.0,0.0
546,136.25,21.2367,23.4893,171.28,100.388,99.9497,0.010317,0.0972456,20.924,-37.1488,0.0396419,0.0,0.0
549,137,21.0375,23.5987,168.433,100.384,100.045,0.0103291,0.0973665,20.9241,-37.1188,0.0306903,0.0,0.0
552,137.75,20.895,23.0345,165.33,100.362,99.717,0.0103299,0.0973004,20.9242,-37.1388,0.058416,0.0,0.0
555,138.5,20.7796,23.3122,165.424,100.349,99.9178,0.0103147,0.097224,20.9243,-37.1488,0.0390332,0.0,0.0
558,139.25,21.0305,23.2048,163.997,100.361,99.8364,0.0102822,0.0972508,20.9243,-37.1889,0.0475005,0.0,0.0
561,140,20.8214,23.597,167.543,100.339,99.973,0.0102076,0.0972982,20.9244,-37.1889,0.0331037,0.0,0.0
564,140.75,20.5766,23.143,168.461,100.324,100.11,0.0101428,0.0973204,20.9244,-37.1989,0.0193479,0.0,0.0
567,141.5,20.9932,23.2326,167.729,100.33,99.8814,0.0100778,0.0970819,20.9244,-37.1889,0.0405873,0.0,0.0
570,142.25,21.1083,22.9558,166.865,100.338,99.9356,0.0100132,0.0969369,20.9244,-37.269,0.03646,0.0,0.0
573,143,20.5445,23.5542,172.06,100.331,99.628,0.0099457,0.0968806,20.9244,-37.319,0.0637176,0.0,0.0
576,143.75,21.3436,23.3094,171.81,100.346,99.5456,0.00987391,0.097114,20.9244,-37.279,0.072597,0.0,0.0
579,144.5,20.7672,23.8572,166.889,100.337,100.146,0.00978602,0.0973059,20.9244,-37.2489,0.0172446,0.0,0.0
582,145.25,20.9511,23.1662,168.67,100.314,99.6412,0.0096867,0.0974828,20.9244,-37.319,0.0609583,0.0,0.0
585,146,20.9318,23.7859,166.527,100.31,99.7848,0.00957995,0.0974354,20.9244,-37.279,0.0476069,0.0,0.0
588,146.75,20.8458,23.2919,173.289,100.323,99.9194,0.00945338,0.097343,20.9244,-37.289,0.0365138,0.0,0.0
591,147.5,21.0833,23.2739,168.686,100.329,100.258,0.00934139,0.0971767,20.9244,-37.289,0.00635278,0.0,0.0
594,148.25,21.0827,23.4812,160.053,100.328,99.9846,0.00925136,0.0969379,20.9244,-37.4191,0.0310445,0.0,0.0
597,149,20.8128,23.2711,168.858,100.322,100.06,0.00918178,0.0967089,20.9244,-37.4592,0.0236877,0.0,0.0
600,149.75,20.6781,23.334,168.177,100.315,99.8389,0.00913705,0.0965619,20.9244,-37.4692,0.0431023,0.0,0.0
603,150.5,20.8511,23.2227,165.635,100.306,100.057,0.00911757,0.0965289,20.9244,-37.4492,0.0225175,0.0,0.0
606,151.25,20.9392,23.2045,165.586,100.304,99.6548,0.00912398,0.0966422,20.9246,-37.4391,0.0588593,0.0,0.0
609,152,21.257,23.4033,172.871,100.302,99.9629,0.00913917,0.0967834,20.9248,-37.4091,0.0306698,0.0,0.0
612,152.75,20.879,22.9361,170.292,100.296,99.7277,0.00915473,0.0970039,20.9249,-37.4391,0.0515315,0.0,0.0
615,153.5,21.0387,23.0229,164.232,100.299,99.6356,0.00916884,0.0971,20.925,-37.4892,0.0601235,0.0,0.0
618,154.25,20.7368,23.0708,164.164,100.304,99.5997,0.00918386,0.0970377,20.9241,-37.4492,0.0638367,0.0,0.0
621,155,20.7858,23.2248,171.114,100.303,100.08,0.00918543,0.0969552,20.9234,-37.4692,0.0201876,0.0,0.0
624,155.75,20.9298,23.159,169.131,100.322,99.4758,0.00918657,0.0969457,20.9228,-37.5993,0.0767947,0.0,0.0
627,156.5,21.1416,23.2292,170.274,100.298,99.2092,0.00914992,0.0970253,20.9225,-37.5292,0.0989493,0.0,0.0
630,157.25,20.5015,22.9972,165.899,100.301,99.8071,0.00910087,0.0970147,20.9222,-37.6394,0.0446922,0.0,0.0
633,158,20.9382,22.9865,167.614,100.3,100.157,0.00904039,0.0969776,20.922,-37.6394,0.0129319,0.0,0.0
636,158.75,20.8496,23.249,163.717,100.304,100.197,0.00897032,0.0967546,20.9219,-37.6193,0.00968882,0.0,0.0
639,159.5,20.3969,23.6474,171.86,100.299,99.6609,0.00891362,0.0965921,20.9218,-37.5893,0.0578611,0.0,0.0
642,160.25,20.9664,23.0922,169.28,100.31,99.9588,0.00887229,0.0963561,20.9217,-37.6494,0.0317453,0.0,0.0
645,161,20.7625,22.7853,168.194,100.309,99.8157,0.00884777,0.0963212,20.9216,-37.6293,0.0446567,0.0,0.0
648,161.75,20.778,23.191,163.549,100.3,99.8723,0.00882202,0.0964042,20.9216,-37.6494,0.0386943,0.0,0.0
651,162.5,20.8353,22.7305,171.668,100.313,99.9477,0.0087999,0.0966501,20.9216,-37.7294,0.0330509,0.0,0.0
654,163.25,20.6042,23.239,166.148,100.311,99.6103,0.00874443,0.0971039,20.9211,-37.7294,0.0635417,0.0,0.0
657,164,20.5432,23.1011,165.914,100.325,100.035,0.00868723,0.097442,20.9206,-37.7094,0.0262839,0.0,0.0
660,164.75,21.2438,23.3587,167.279,100.316,99.9037,0.00860255,0.0977008,20.9202,-37.6394,0.0373024,0.0,0.0
663,165.5,20.8341,23.282,164.256,100.324,99.7803,0.00854213,0.0978895,20.9199,-37.6594,0.0492487,0.0,0.0
666,166.25,21.0981,23.9067,165.742,100.314,99.9993,0.00850898,0.098027,20.9197,-37.6994,0.0284496,0.0,0.0
669,167,21.2804,23.0991,168.072,100.333,100.037,0.0085025,0.0980292,20.9196,-37.7495,0.0268084,0.0,0.0
672,167.75,20.892,23.4337,165.931,100.33,99.6017,0.00852395,0.0980236,20.9195,-37.7595,0.0659989,0.0,0.0
675,168.5,21.1676,23.6194,169.381,100.335,100.136,0.00854614,0.0980072,20.9194,-37.7695,0.0179357,0.0,0.0
678,169.25,20.3847,23.8897,173.05,100.325,99.756,0.00856511,0.0980777,20.9193,-37.8095,0.0515648,0.0,0.0
681,170,21.1839,23.3503,166.839,100.327,99.8875,0.00856714,0.0982438,20.9191,-37.8496,0.0397753,0.0,0.0
684,170.75,20.8379,23.263,169.277,100.314,100.02,0.00856359,0.0985011,20.9185,-37.8296,0.0265704,0.0,0.0
687,171.5,20.6827,22.8316,171.867,100.324,99.8582,0.00852718,0.0989045,20.918,-37.8796,0.04214,0.0,0.0
690,172.25,20.7804,23.1433,169.368,100.321,100.235,0.00847707,0.0991769,20.9176,-37.8996,0.00774843,0.0,0.0
693,173,20.9326,23.415,168.369,100.319,100.061,0.00842222,0.0993383,20.9172,-37.8596,0.023261,0.0,0.0
696,173.75,20.9461,23.5777,165.991,100.335,99.7879,0.0083681,0.0991946,20.9169,-37.8496,0.0495646,0.0,0.0
699,174.5,21.0722,23.6744,166.708,100.328,100.142,0.00831295,0.0989785,20.9167,-37.8496,0.0167993,0.0,0.0
702,175.25,20.8137,23.4133,167.246,100.331,99.5901,0.00826055,0.0989179,20.9165,-37.8596,0.0671323,0.0,0.0
705,176,20.9159,23.7752,165.566,100.347,100.054,0.00821292,0.0994821,20.9164,-37.8596,0.0264788,0.0,0.0
708,176.75,20.7851,23.6459,170.864,100.354,100.612,0.00817821,0.100089,20.9157,-37.8195,-0.0232835,0.0,0.0
711,177.5,21.2758,23.6104,162.162,100.336,100.405,0.00814327,0.100866,20.9151,-37.8996,-0.00626265,0.0,0.0
714,178.25,20.8128,23.6951,166.308,100.345,100.122,0.00809032,0.101681,20.9145,-37.8696,0.0201854,0.0,0.0
717,179,20.9112,23.4529,170.764,100.36,100.637,0.0080329,0.102381,20.9141,-37.9697,-0.0249574,0.0,0.0
720,179.75,20.9187,23.2282,172.588,100.375,100.192,0.00797014,0.102876,20.9138,-37.9897,0.0164672,0.0,0.0
723,180.5,20.7508,23.8605,165.288,100.366,100.239,0.00791274,0.103213,20.9135,-37.9797,0.0115241,0.0,0.0
726,181.25,21.2234,23.7752,168.768,100.379,100.648,0.00786619,0.103389,20.9128,-38.0198,-0.0242014,0.0,0.0
729,182,20.9715,23.8864,168.748,100.379,100.152,0.00784009,0.10351,20.9124,-38.0298,0.0205831,0.0,0.0
732,182.75,21.0597,24.029,168.2,100.392,100.213,0.00782646,0.103635,20.9126,-38.0198,0.0161545,0.0,0.0
735,183.5,21.5656,24.0741,170.583,100.397,100.58,0.00782006,0.103805,20.9127,-37.9997,-0.0165345,0.0,0.0
738,184.25,21.2796,23.7144,165.417,100.393,100.284,0.00781745,0.103847,20.9127,-38.0198,0.00991111,0.0,0.0
741,185,21.352,23.7533,165.896,100.392,100.535,0.00781907,0.103841,20.9128,-38.0198,-0.0128498,0.0,0.0
744,185.75,21.1828,23.8499,165.21,100.402,100.501,0.00781895,0.103425,20.9131,-37.9997,-0.00889413,0.0,0.0
747,186.5,21.4262,24.0779,162.261,100.405,100.661,0.00781968,0.103121,20.9137,-38.0097,-0.0231248,0.0,0.0
750,187.25,21.3999,23.8905,168.226,100.42,100.326,0.00782256,0.10237,20.9141,-38.0097,0.00845319,0.0,0.0
753,188,21.3061,23.6817,166.169,100.411,100.356,0.00783957,0.101547,20.9148,-38.0198,0.00497742,0.0,0.0
756,188.75,21.3608,23.7605,164.351,100.428,100.063,0.00786765,0.100829,20.9156,-38.0298,0.0330305,0.0,0.0
759,189.5,21.2158,23.7281,170.097,100.428,99.6837,0.00790512,0.0999141,20.9161,-38.0498,0.0674411,0.0,0.0
762,190.25,21.4862,23.889,165.631,100.438,99.975,0.00795009,0.0989585,20.9177,-38.0698,0.0418508,0.0,0.0
765,191,21.156,23.8705,163.764,100.45,99.9775,0.00799596,0.0979944,20.9189,-38.1098,0.0427378,0.0,0.0
768,191.75,21.4136,23.9956,165.605,100.46,99.4707,0.00805176,0.0970444,20.9198,-38.0898,0.0896828,0.0,0.0
771,192.5,21.2128,24.0467,168.351,100.466,99.9973,0.00809374,0.096254,20.9204,-38.0798,0.0424002,0.0,0.0
774,193.25,21.1593,23.8873,164.716,100.484,100.347,0.00811596,0.095685,20.9209,-38.0598,0.012344,0.0,0.0
777,194,21.1644,24.0018,167.953,100.491,100.028,0.00811685,0.0952826,20.9212,-38.0998,0.0418346,0.0,0.0
780,194.75,21.3969,24.1503,170.66,100.504,99.929,0.00808206,0.0948932,20.9215,-38.0998,0.0520095,0.0,0.0
783,195.5,21.2971,24.0564,163.287,100.512,99.7509,0.00803057,0.0945683,20.9217,-38.0998,0.0688371,0.0,0.0
786,196.25,21.2174,23.3655,168.435,100.51,99.9077,0.00798189,0.0942728,20.9218,-38.1299,0.0544569,0.0,0.0
789,197,21.3628,23.4593,172.579,100.511,99.8506,0.00789612,0.0940437,20.9219,-38.1599,0.0597157,0.0,0.0
792,197.75,20.7823,23.4504,171.747,100.523,100.078,0.0078336,0.0938708,20.9219,-38.1699,0.0401614,0.0,0.0
795,198.5,21.4595,23.5603,170.313,100.512,100.143,0.00773592,0.0938035,20.922,-38.1599,0.0332522,0.0,0.0
798,199.25,20.9969,23.4186,170.838,100.517,99.7267,0.00764907,0.0937544,20.922,-38.1899,0.071564,0.0,0.0
801,200,21.0701,23.6649,169.236,100.519,100.222,0.00757908,0.0937186,20.9221,-38.2099,0.0268213,0.0,0.0
804,200.75,21.4616,23.6035,168.441,100.523,100.083,0.00753067,0.0935556,20.9223,-38.28,0.0397495,0.0,0.0
807,201.5,21.1203,23.9169,169.061,100.54,99.8728,0.00749718,0.0934006,20.9229,-38.27,0.0603724,0.0,0.0
810,202.25,20.9984,23.2667,167.259,100.557,99.8566,0.00747393,0.0932259,20.9233,-38.28,0.0633272,0.0,0.0
813,203,20.9129,23.2561,166.679,100.552,99.9897,0.00744917,0.0930986,20.9236,-38.3101,0.0507807,0.0,0.0
816,203.75,20.472,23.5475,168.948,100.563,100.072,0.00742778,0.0929862,20.9238,-38.3701,0.0443515,0.0,0.0
819,204.5,20.9306,23.3498,164.357,100.568,100.298,0.00740104,0.0928769,20.924,-38.3801,0.0243847,0.0,0.0
822,205.25,20.8523,23.8437,170.338,100.575,100.191,0.00736989,0.0927782,20.9241,-38.3601,0.0347093,0.0,0.0
825,206,20.6048,23.469,164.157,100.595,100.356,0.00732725,0.092694,20.9242,-38.3701,0.0215078,0.0,0.0
828,206.75,21.5354,23.1563,166.953,100.598,100.454,0.00727143,0.09266,20.9243,-38.4002,0.0129945,0.0,0.0
831,207.5,21.094,23.8344,163.828,100.601,100.249,0.00720923,0.0926469,20.9243,-38.3901,0.0317151,0.0,0.0
834,208.25,21.074,23.5501,167.899,100.611,100.534,0.00714516,0.0924614,20.9243,-38.3601,0.00693891,0.0,0.0
837,209,20.9896,23.5934,167.601,100.617,100.381,0.00706506,0.0922756,20.9248,-38.3201,0.0213214,0.0,0.0
840,209.75,21.5221,23.8715,169.302,100.619,100.544,0.00698588,0.0920539,20.9253,-38.3901,0.00677916,0.0,0.0
843,210.5,21.0654,23.4232,164.886,100.63,100.536,0.00691245,0.0917163,20.9257,-38.3901,0.00846506,0.0,0.0
846,211.25,21.1202,23.2927,168.92,100.631,100.185,0.00684723,0.0913195,20.926,-38.4702,0.0402248,0.0,0.0
849,212,21.4479,23.394,162.827,100.635,100.752,0.00678151,0.0909733,20.9262,-38.4302,-0.0104984,0.0,0.0
852,212.75,21.0812,23.9155,169.953,100.641,100.399,0.006732,0.0907331,20.9263,-38.3901,0.021747,0.0,0.0
855,213.5,20.5175,23.5079,172.604,100.664,100.425,0.00670642,0.0907535,20.9264,-38.4602,0.0214981,0.0,0.0
858,214.25,21.1558,23.0325,167.395,100.649,100.554,0.00672285,0.0908477,20.9265,-38.4002,0.00853089,0.0,0.0
861,215,20.7295,23.252,167.793,100.662,100.24,0.00676347,0.091052,20.9266,-38.3701,0.0380694,0.0,0.0
864,215.75,20.2504,23.0366,166.272,100.641,100.25,0.00681649,0.0913106,20.926,-38.4102,0.035298,0.0,0.0
867,216.5,21.0312,22.9506,169.875,100.65,100.274,0.0068607,0.091618,20.9256,-38.4102,0.0338925,0.0,0.0
870,217.25,20.9702,23.0978,165.897,100.665,100.363,0.0068813,0.0919655,20.9253,-38.4102,0.0272155,0.0,0.0
873,218,21.0251,23.3739,165.013,100.666,100.64,0.00687642,0.0922189,20.9257,-38.4302,0.0023438,0.0,0.0
876,218.75,21.0246,23.6132,169.631,100.668,100.367,0.00685713,0.092317,20.9259,-38.4202,0.0271186,0.0,0.0
879,219.5,21.3089,23.3598,165.373,100.668,100.706,0.00681617,0.0922404,20.9262,-38.4902,-0.00342606,0.0,0.0
882,220.25,20.8666,23.5117,170.264,100.674,100.473,0.00677332,0.0919891,20.9263,-38.5003,0.0180532,0.0,0.0
885,221,20.9405,23.1179,172.395,100.687,100.354,0.00673265,0.0917843,20.9264,-38.4802,0.0299668,0.0,0.0
888,221.75,20.8419,23.4904,165.947,100.686,100.401,0.00670134,0.0915979,20.9265,-38.4402,0.0256828,0.0,0.0
891,222.5,20.6989,23.0164,181.016,100.679,100.349,0.00666555,0.0914758,20.9266,-38.4202,0.0296815,0.0,0.0
894,223.25,21.2406,23.5207,168.733,100.693,100.265,0.00663946,0.0914143,20.9266,-38.4502,0.0386104,0.0,0.0
897,224,21.5323,23.2488,166.053,100.685,100.208,0.00660097,0.0914064,20.9265,-38.4802,0.0429905,0.0,0.0
900,224.75,20.9272,23.1821,166.851,100.712,100.554,0.00656462,0.0913732,20.9263,-38.4902,0.0142899,0.0,0.0
903,225.5,21.2856,23.6813,164.42,100.702,100.513,0.00653811,0.0913374,20.9262,-38.5203,0.0170106,0.0,0.0
906,226.25,20.9248,23.8763,170.847,100.702,100.359,0.00651879,0.0911959,20.926,-38.5503,0.0309282,0.0,0.0
909,227,20.9471,23.4011,168.053,100.715,100.708,0.00650471,0.0908954,20.926,-38.6004,0.000612471,0.0,0.0
912,227.75,20.808,22.9829,171.392,100.732,100.544,0.00647964,0.0905202,20.9259,-38.6304,0.0169815,0.0,0.0
915,228.5,20.9337,23.3616,167.169,100.702,100.439,0.00643802,0.0902826,20.9259,-38.6104,0.0236327,0.0,0.0
918,229.25,20.9406,23.8301,166.066,100.709,100.454,0.00638749,0.0901711,20.9258,-38.6204,0.0229399,0.0,0.0
921,230,20.7683,23.6431,165.828,100.725,100.43,0.00633316,0.0901719,20.9258,-38.5903,0.0265316,0.0,0.0
924,230.75,20.8379,23.9417,167.654,100.721,100.324,0.00627024,0.0902076,20.9258,-38.5103,0.0358693,0.0,0.0
927,231.5,20.8207,23.4691,164.662,100.718,100.283,0.00620897,0.0902336,20.9258,-38.6004,0.0392289,0.0,0.0
930,232.25,21.231,23.7573,164.746,100.724,100.781,0.00615499,0.0902388,20.9258,-38.5903,-0.00512283,0.0,0.0
933,233,20.4531,23.412,169.055,100.73,100.488,0.00612313,0.090208,20.9258,-38.6804,0.0217298,0.0,0.0
936,233.75,20.8964,23.4838,166.421,100.733,100.919,0.00611273,0.0901362,20.9264,-38.6504,-0.0167883,0.0,0.0
939,234.5,20.9296,23.3912,167.455,100.741,100.818,0.00615319,0.0900154,20.9268,-38.7005,-0.00687666,0.0,0.0
942,235.25,21.231,23.8924,169.63,100.729,100.457,,0.0898981,,-38.7005,0.0244838,0.0,0.0
945,236,20.9034,23.5272,168.599,100.749,100.612,,0.0899494,,-38.7005,0.0123419,0.0,0.0
948,236.75,21.0552,23.9097,166.252,100.742,100.566,,0.0899867,,-38.6204,0.0158569,0.0,0.0
951,237.5,21.1663,23.9705,166.679,100.743,100.905,,0.090014,,-38.5503,-0.0145446,0.0,0.0
954,238.25,21.0946,23.8928,169.586,100.744,101.151,,,,-38.6804,-0.036572,0.0,0.0
957,239,21.2224,23.1339,172.156,100.761,100.718,,,,-38.7405,0.0038718,0.0,0.0
960,239.75,21.0995,23.553,165.404,100.76,100.93,,,,-38.7005,-0.0153031,0.0,0.0
963,240.5,20.9541,23.646,164.638,100.761,100.757,,,,-38.7005,0.00035971,0.0,0.0
966,241.25,21.4107,23.8879,166.195,100.754,100.498,,,,-38.6905,0.0230509,0.0,0.0
969,242,20.6722,23.4498,166.11,100.756,100.916,,,,-38.6905,-0.0144028,0.0,0.0
972,242.75,21.029,23.6176,167.401,100.759,100.83,,,,-38.6905,-0.0064556,0.0,0.0
975,243.5,21.3216,23.9021,165.57,100.756,100.398,,,,-38.7105,0.032234,0.0,0.0
978,244.25,21.3433,23.8146,171.363,100.766,100.417,,,,-38.7205,0.0314718,0.0,0.0
981,245,21.3439,24.0169,168.367,100.768,100.593,,,,-38.7505,0.0157404,0.0,0.0
984,245.75,20.8347,23.8715,167.707,100.77,100.572,,,,-38.7505,0.0178775,0.0,0.0