File: 01_Data/Cotton_Raw/Cone/Cotton_Raw_Cone_HF75-Frame+GridScan_200910_R3.csv
Names,Time,Stack TC,Smoke TC,Exh Press,Smoke Comp,Smoke Meas,CO Meter,CO2 Meter,O2 Meter,Sample Mass,Ext Coeff,Start Test,Flame Verif
Chan Gain,,500,500,1,1,1,1,1,1,1,1,1.0,1.0
Offset,,0,0,0.140826,0,0,0,0,0,0,0,0.0,0.0
Gain,,1,1,25.011,13.7435,17.0229,1,1,1,1.00129,1.0222,1.0,1.0
Units,sec,C,C,Pa,%,%,%,%,%,g,/m,,
Baseline,,39.9992,43.8882,166.852,102.488,105.214,0.000465416,0.0526998,20.9554,-898.882,-0.235379,,
2,0.25,37.3834,40.2174,159.48,102.956,105.947,0.00163656,0.0838754,20.9348,18.2135,-0.256702,0.0,0.0
4,0.75,37.2793,40.5168,157.604,102.957,106.413,0.00172465,0.0915269,20.9126,18.1133,-0.296024,0.0,1.0
6,1.25,36.0301,38.926,158.296,102.944,106.471,0.00181134,0.118783,20.8945,18.1634,-0.302058,0.0,1.0
8,1.75,36.1363,40.0361,152.225,102.964,105.974,0.00188157,0.140861,20.874,18.0432,-0.258375,0.0,1.0
10,2.25,37.3078,41.227,156.23,102.948,106.486,0.00193845,0.164614,20.852,17.9631,-0.302918,0.0,1.0
12,2.75,38.1478,42.8528,160.065,102.943,106.525,0.00197941,0.183854,20.8318,17.863,-0.306637,0.0,1.0
14,3.25,38.6531,43.95,151.436,102.943,107.706,0.00201258,0.200925,20.8135,17.883,-0.405564,0.0,1.0
16,3.75,39.4807,45.2907,160.059,102.963,106.494,0.00204457,0.216091,20.797,17.5726,-0.302375,0.0,1.0
18,4.25,40.321,46.432,159.655,102.953,107.336,0.00207048,0.228375,20.7822,17.7829,-0.373841,0.0,1.0
20,4.75,40.5212,47.3171,152.402,102.948,107.928,0.00209403,0.240224,20.7688,17.6628,-0.423581,0.0,1.0
22,5.25,41.2339,48.3778,162.492,102.934,106.604,0.0021131,0.249822,20.7568,17.6828,-0.314164,0.0,1.0
24,5.75,41.9488,49.666,156.331,102.948,106.336,0.00212855,0.257596,20.747,17.5426,-0.290267,0.0,1.0
26,6.25,41.1904,48.9928,154.963,102.938,106.575,0.00214107,0.265757,20.7373,17.5126,-0.311352,0.0,1.0
28,6.75,41.3771,49.6147,154.019,102.95,106.688,0.00214851,0.272368,20.7295,17.4525,-0.319852,0.0,0.0
30,7.25,42.0063,50.3167,158.459,102.938,105.93,0.00215211,0.278643,20.7214,17.4925,-0.256866,0.0,0.0
32,7.75,42.6856,50.9662,153.03,102.939,105.351,0.00215234,0.284555,20.7149,17.3624,-0.207708,0.0,0.0
34,8.25,42.6163,51.3152,156.629,102.933,105.255,0.0021501,0.289911,20.7089,17.3724,-0.199955,0.0,0.0
36,8.75,43.5187,52.7607,154.68,102.942,105.726,0.00214829,0.29476,20.7034,17.2622,-0.239319,0.0,0.0
38,9.25,43.9163,52.5577,151.475,102.945,105.579,0.00215355,0.298929,20.699,17.2322,-0.22655,0.0,0.0
40,9.75,44.0584,53.5835,156.668,102.933,105.573,0.00215898,0.302525,20.6971,17.1821,-0.227043,0.0,0.0
42,10.25,43.7091,53.3551,155.602,102.927,105.858,0.00216827,0.305438,20.6939,17.1922,-0.251782,0.0,0.0
44,10.75,44.7665,54.1003,151.874,102.938,106.65,0.0021859,0.307638,20.6913,17.042,-0.317651,0.0,0.0
46,11.25,44.4958,55.1501,159.178,102.921,105.165,0.00220927,0.30942,20.6891,16.9418,-0.193391,0.0,0.0
48,11.75,45.3535,55.336,155.179,102.948,104.969,0.00224485,0.310521,20.6874,16.9719,-0.174266,0.0,0.0
50,12.25,45.3983,55.4983,156.665,102.924,105.08,0.00227366,0.311105,20.686,16.8918,-0.185877,0.0,0.0
52,12.75,45.9038,56.3575,158.929,102.919,105.369,0.00229956,0.311354,20.6856,16.8016,-0.210928,0.0,0.0
54,13.25,46.1944,56.9432,159.724,102.931,105.292,0.00232055,0.310703,20.6859,16.7916,-0.203404,0.0,0.0
56,13.75,46.6041,56.3832,156.463,102.938,104.249,0.00231833,0.310176,20.6863,16.6915,-0.113542,0.0,0.0
58,14.25,46.96,57.3679,164.957,102.911,104.682,0.00231654,0.309367,20.6869,16.7316,-0.152981,0.0,0.0
60,14.75,46.8366,57.0341,155.01,102.924,105.602,0.00227543,0.308369,20.6876,16.6314,-0.230354,0.0,0.0
62,15.25,46.7199,57.429,153.719,102.903,105.187,0.00224213,0.307278,20.6883,16.5513,-0.196831,0.0,0.0
64,15.75,47.2386,57.96,157.893,102.914,105.674,0.00221516,0.306141,20.6889,16.5013,-0.237316,0.0,0.0
66,16.25,47.1891,58.0621,156.061,102.894,105.811,0.0021205,0.305096,20.6899,16.4712,-0.2507,0.0,0.0
68,16.75,47.908,58.2009,158.078,102.907,106.789,0.00204382,0.304138,20.6906,16.4011,-0.332038,0.0,0.0
70,17.25,47.2338,58.6072,155.949,102.892,106.651,0.00194855,0.303252,20.6913,16.4212,-0.321758,0.0,0.0
72,17.75,48.2658,58.8488,155.686,102.894,106.531,0.00187137,0.302534,20.6917,16.311,-0.311517,0.0,0.0
74,18.25,47.8231,58.7779,159.897,102.879,106.741,0.00180685,0.301804,20.6922,16.291,-0.330481,0.0,0.0
76,18.75,48.1835,58.7196,152.504,102.888,107.383,0.00175277,0.301079,20.6925,16.2409,-0.383373,0.0,0.0
78,19.25,48.0688,59.6509,152.674,102.873,107.063,0.00171904,0.300492,20.6927,16.2109,-0.357929,0.0,0.0
80,19.75,48.2857,59.6482,156.938,102.868,106.842,0.00170078,0.299498,20.693,16.261,-0.339893,0.0,0.0
82,20.25,48.4911,59.8419,158.857,102.861,106.043,0.00168599,0.298694,20.6944,16.1909,-0.273165,0.0,0.0
84,20.75,48.186,59.9193,156.683,102.853,106.584,0.001674,0.297746,20.6956,16.1208,-0.319477,0.0,0.0
86,21.25,48.9397,60.4684,160.629,102.844,105.953,0.00170003,0.296711,20.6967,16.0307,-0.266988,0.0,0.0
88,21.75,48.9261,60.147,162.544,102.857,105.941,0.00172112,0.295569,20.6976,16.0407,-0.264916,0.0,0.0
90,22.25,48.7718,60.5038,154.6,102.825,106.848,0.00176246,0.29437,20.6985,16.0507,-0.344146,0.0,0.0
92,22.75,48.0861,60.483,156.213,102.84,107.867,0.00179595,0.293399,20.6995,16.0507,-0.427916,0.0,0.0
94,23.25,49.1745,60.7149,159.303,102.821,107.442,0.00182308,0.292613,20.7003,15.9606,-0.39424,0.0,0.0
96,23.75,49.3629,60.7678,161.334,102.836,105.701,0.00187317,0.291477,20.7012,15.8704,-0.246407,0.0,0.0
98,24.25,49.3752,61.1393,155.788,102.812,106.906,0.00191374,0.290557,20.7021,15.8004,-0.350111,0.0,0.0
100,24.75,49.0657,60.735,154.882,102.816,106.446,0.00195044,0.289599,20.7031,15.7803,-0.311107,0.0,0.0
102,25.25,49.1209,60.9196,158.739,102.796,107.527,0.00198017,0.288631,20.704,15.7503,-0.403426,0.0,0.0
104,25.75,49.1396,61.0558,162.573,102.822,106.13,0.00199274,0.287504,20.7048,15.7403,-0.283942,0.0,0.0
106,26.25,49.7748,60.3918,157.604,102.789,107.731,0.00200293,0.286282,20.7055,15.6502,-0.421094,0.0,0.0
108,26.75,49.8533,60.9938,156.395,102.795,106.294,0.00198306,0.285292,20.706,15.6101,-0.300098,0.0,0.0
110,27.25,50.079,60.3834,161.322,102.786,106.237,0.00196697,0.284408,20.7069,15.6201,-0.296125,0.0,0.0
112,27.75,49.6279,60.7072,157.651,102.78,107.327,0.0019405,0.283619,20.7076,15.54,-0.388166,0.0,0.0
114,28.25,49.8808,60.7828,159.196,102.77,106.482,0.00190696,0.283094,20.7082,15.4799,-0.318151,0.0,0.0
116,28.75,49.4419,60.7862,162.831,102.778,106.547,0.00187979,0.282772,20.7086,15.51,-0.322915,0.0,0.0
118,29.25,49.531,60.7023,157.15,102.758,107.248,0.00184119,0.28256,20.709,15.3998,-0.383463,0.0,0.0
120,29.75,49.4322,61.2124,158.871,102.77,106.541,0.00180992,0.282432,20.7093,15.3798,-0.323093,0.0,0.0
122,30.25,49.7834,61.3815,156.18,102.753,106.315,0.0017846,0.282141,20.7095,15.3398,-0.305554,0.0,0.0
124,30.75,49.4756,61.0625,156.205,102.762,106.403,0.00175388,0.281736,20.7102,15.2496,-0.31215,0.0,0.0
126,31.25,49.6112,61.5049,155.595,102.747,106.524,0.001729,0.281409,20.7107,15.2396,-0.323663,0.0,0.0
128,31.75,49.7605,60.5822,158.813,102.751,105.682,0.00170757,0.280431,20.7113,15.1896,-0.252167,0.0,0.0
130,32.25,49.919,61.569,157.556,102.741,106.046,0.00169021,0.279638,20.712,15.1595,-0.283853,0.0,0.0
132,32.75,49.627,61.5838,155.956,102.748,105.698,0.00168763,0.278647,20.7131,15.1095,-0.253871,0.0,0.0
134,33.25,49.6386,61.1052,150.194,102.73,106.602,0.00168554,0.27753,20.7144,15.0794,-0.331801,0.0,0.0
136,33.75,50.0018,61.3553,158.325,102.737,106.273,0.00169789,0.276624,20.7154,15.0594,-0.303439,0.0,0.0
138,34.25,49.9999,60.9911,160.809,102.752,107.308,0.00170789,0.275198,20.7166,15.0294,-0.388968,0.0,0.0
140,34.75,50.0985,60.8342,155.605,102.722,106.231,0.00172748,0.274042,20.7177,14.9493,-0.301242,0.0,0.0
142,35.25,49.9648,60.9946,158.474,102.714,106.989,0.00174335,0.272411,20.719,14.9593,-0.36557,0.0,0.0
144,35.75,50.1865,61.1589,156.621,102.719,105.867,0.00176386,0.270464,20.7204,14.8992,-0.270671,0.0,0.0
146,36.25,49.9924,60.9366,163.153,102.718,106.693,0.00178048,0.268042,20.723,14.8992,-0.340389,0.0,0.0
148,36.75,49.7699,60.6345,159.013,102.721,106.524,0.00179394,0.265321,20.7263,14.8692,-0.325969,0.0,0.0
150,37.25,49.8426,60.7304,159.949,102.7,105.939,0.00181506,0.261687,20.7289,14.8291,-0.278433,0.0,0.0
152,37.75,49.8058,60.5217,166.356,102.704,106.815,0.00183217,0.258744,20.7329,14.7991,-0.351925,0.0,0.0
154,38.25,49.8215,60.5079,156.807,102.686,106.674,0.00186136,0.254395,20.736,14.779,-0.341637,0.0,0.0
156,38.75,49.6592,60.3791,160.749,102.687,106.077,0.001885,0.250872,20.7386,14.739,-0.291256,0.0,0.0
158,39.25,49.7516,60.0216,160.095,102.689,106.757,0.00192367,0.246912,20.7429,14.729,-0.348408,0.0,0.0
160,39.75,49.1911,60.5964,161.377,102.702,106.05,0.00197255,0.242709,20.7463,14.709,-0.287691,0.0,0.0
162,40.25,49.4247,60.3023,157.013,102.688,106.122,0.00201215,0.239304,20.7513,14.6088,-0.294995,0.0,0.0
164,40.75,49.1178,59.6249,158.453,102.683,105.98,0.00207493,0.234266,20.7553,14.6188,-0.283327,0.0,0.0
166,41.25,49.4123,59.1438,161.183,102.674,106.008,0.00212579,0.230185,20.7607,14.5688,-0.286506,0.0,0.0
168,41.75,49.4976,59.4467,160.837,102.675,106.145,0.00218747,0.225843,20.7651,14.5487,-0.298032,0.0,0.0
170,42.25,49.0914,59.0073,161.342,102.678,106.379,0.00223743,0.221393,20.7699,14.5387,-0.317575,0.0,0.0
172,42.75,48.7732,58.7623,161.495,102.661,106.168,0.002292,0.21696,20.7747,14.5087,-0.301245,0.0,0.0
174,43.25,48.1083,58.624,160.074,102.672,106.217,0.00233619,0.212623,20.7786,14.4186,-0.304416,0.0,0.0
176,43.75,48.2164,58.2979,157.92,102.65,106.089,0.00237199,0.208454,20.7818,14.4286,-0.29549,0.0,0.0
178,44.25,48.9176,58.0479,169.093,102.656,106.698,0.00240099,0.204488,20.7857,14.4586,-0.346246,0.0,0.0
180,44.75,48.4506,58.0912,160.62,102.656,106.22,0.00250144,0.201275,20.7889,14.4186,-0.306028,0.0,0.0
182,45.25,48.186,58.0332,159.062,102.648,106.179,0.0025828,0.197315,20.7923,14.4386,-0.303222,0.0,0.0
184,45.75,47.7978,57.3747,165.068,102.632,107.108,0.00272582,0.194107,20.796,14.4787,-0.382794,0.0,0.0
186,46.25,47.5972,57.2639,157.052,102.634,106.208,0.00284167,0.190683,20.7996,14.4586,-0.306931,0.0,0.0
188,46.75,47.7431,56.3507,168.276,102.644,106.148,0.00302052,0.187167,20.8031,14.3986,-0.300992,0.0,0.0
190,47.25,47.8222,56.0706,159.455,102.629,106.68,0.00319934,0.184318,20.806,14.4186,-0.347062,0.0,0.0
192,47.75,48.0078,56.4293,165.517,102.611,105.855,0.00337476,0.182011,20.8101,14.4186,-0.279029,0.0,0.0
194,48.25,48.0003,55.9937,163.115,102.615,106.428,0.00355222,0.177946,20.8134,14.4086,-0.327114,0.0,0.0
196,48.75,46.8965,55.6674,160.66,102.597,105.99,0.00372781,0.174653,20.8172,14.3685,-0.29179,0.0,0.0
198,49.25,47.6469,55.1531,158.623,102.594,106.524,0.00387004,0.170922,20.8214,14.3385,-0.337032,0.0,0.0
200,49.75,47.0566,55.0774,163.814,102.599,105.663,0.00402751,0.1679,20.8252,14.3385,-0.263803,0.0,0.0
202,50.25,46.7691,54.6941,164.804,102.589,106.046,0.00419309,0.164177,20.8287,14.3585,-0.297151,0.0,0.0
204,50.75,46.6412,53.8676,161.606,102.557,106.736,0.00432722,0.161161,20.8315,14.3685,-0.358119,0.0,0.0
206,51.25,46.4936,53.1719,160.535,102.572,106.327,0.00453712,0.157476,20.8349,14.3685,-0.32235,0.0,0.0
208,51.75,46.4489,53.9159,160.375,102.567,106.157,0.00470714,0.154491,20.8387,14.3485,-0.30849,0.0,0.0
210,52.25,46.1396,53.9322,164.557,102.558,105.452,0.00492554,0.151482,20.8418,14.3184,-0.249524,0.0,0.0
212,52.75,46.1423,53.2339,165.994,102.538,105.685,0.00510244,0.148512,20.8448,14.2984,-0.271052,0.0,0.0
214,53.25,46.3769,53.2956,161.838,102.539,105.484,0.00529309,0.146106,20.8472,14.3084,-0.253897,0.0,0.0
216,53.75,45.5859,52.7233,160.076,102.52,105.98,0.00549014,0.14315,20.8508,14.2884,-0.297666,0.0,0.0
218,54.25,45.9936,52.7175,164.617,102.522,105.941,0.00575631,0.140756,20.8538,14.2884,-0.294104,0.0,0.0
220,54.75,45.1832,52.3747,164.303,102.515,105.647,0.00585221,0.13808,20.8567,14.2383,-0.269843,0.0,0.0
222,55.25,45.3109,52.8777,166.193,102.51,105.677,0.00606032,0.135249,20.8594,14.2684,-0.272841,0.0,0.0
224,55.75,45.5138,51.9767,163.613,102.491,105.88,0.00626858,0.132956,20.8634,14.1983,-0.291674,0.0,0.0
226,56.25,45.2575,52.0859,161.484,102.503,105.959,0.00648009,0.12976,20.8666,14.1683,-0.297375,0.0,0.0
228,56.75,45.1428,51.541,167.358,102.469,105.758,0.00668994,0.127171,20.87,14.1683,-0.28331,0.0,0.0
230,57.25,44.4186,51.3646,161.809,102.486,105.776,0.00685993,0.124063,20.8728,14.1683,-0.283267,0.0,0.0
232,57.75,44.9512,51.0407,164.051,102.475,105.633,0.00705161,0.121546,20.8751,14.1683,-0.272183,0.0,0.0
234,58.25,44.5945,49.8333,162.402,102.464,105.951,0.00725546,0.118736,20.8778,14.1482,-0.300004,0.0,0.0
236,58.75,44.3589,50.3965,165.974,102.452,106.698,0.00745041,0.11646,20.88,14.1983,-0.364104,0.0,0.0
238,59.25,44.3628,50.6775,168.554,102.457,105.646,0.00763516,0.11414,20.8822,14.2183,-0.274819,0.0,0.0
240,59.75,43.954,49.9194,166.672,102.443,105.554,0.00781467,0.112262,20.884,14.2083,-0.26826,0.0,0.0
242,60.25,43.8615,49.8066,163.038,102.447,105.593,0.00798695,0.110527,20.8859,14.2383,-0.271245,0.0,0.0
244,60.75,42.2281,48.2018,165.735,102.424,106.402,0.00812651,0.108929,20.8875,14.2183,-0.341645,0.0,0.0
246,61.25,42.3087,48.0559,166.872,102.427,105.425,0.00827257,0.10751,20.8889,14.1883,-0.258704,0.0,0.0
248,61.75,42.2935,47.5092,164.127,102.4,105.788,0.00839088,0.106249,20.8903,14.2083,-0.291849,0.0,0.0
250,62.25,41.7596,46.9228,165.243,102.419,105.756,0.00847747,0.105153,20.8915,14.2083,-0.287509,0.0,0.0
252,62.75,42.0297,46.6157,168.849,102.404,105.499,0.0085476,0.1042,20.8924,14.2183,-0.266958,0.0,0.0
254,63.25,41.1998,46.7986,161.76,102.408,105.757,0.00856082,0.103428,20.8933,14.2183,-0.288589,0.0,0.0
256,63.75,41.9875,46.5569,166.341,102.395,105.041,0.00857154,0.102621,20.8943,14.2083,-0.228701,0.0,0.0
258,64.25,41.0237,46.5299,163.875,102.407,105.905,0.00858021,0.101967,20.8951,14.1582,-0.301127,0.0,0.0
260,64.75,41.4038,46.289,162.473,102.383,105.348,0.0085292,0.101438,20.8958,14.0581,-0.255981,0.0,0.0
262,65.25,41.0074,46.1083,165.167,102.384,105.515,0.00848788,0.101009,20.8963,14.0781,-0.270054,0.0,0.0
264,65.75,41.3522,46.2079,162.612,102.362,105.261,0.0084228,0.100731,20.897,14.0882,-0.250468,0.0,0.0
266,66.25,41.1076,46.0551,165.502,102.38,105.075,0.00837007,0.100506,20.8977,14.0681,-0.232995,0.0,0.0
268,66.75,40.945,45.9021,163.623,102.345,106.033,0.00831905,0.100324,20.8983,14.0581,-0.317421,0.0,0.0
270,67.25,41.0679,45.5519,161.169,102.356,105.636,0.00827024,0.0999674,20.8988,14.1182,-0.28284,0.0,0.0
272,67.75,41.3149,46.0447,166.91,102.347,105.753,0.0082307,0.0996785,20.8992,14.0982,-0.293483,0.0,0.0
274,68.25,40.9581,46.303,163.502,102.348,105.454,0.00819868,0.0993563,20.8995,14.1282,-0.268083,0.0,0.0
276,68.75,41.318,46.0092,161.777,102.337,105.731,0.00817142,0.0990162,20.8999,14.1482,-0.292559,0.0,0.0
278,69.25,40.8723,45.4939,164.732,102.33,105.826,0.00814935,0.0986819,20.9004,14.1182,-0.301235,0.0,0.0
280,69.75,40.8876,45.7365,161.867,102.325,105.119,0.00813673,0.0983584,20.9008,14.0982,-0.241568,0.0,0.0
282,70.25,40.6808,45.7372,164.37,102.324,105.702,0.00812651,0.0980963,20.9011,14.1182,-0.291187,0.0,0.0
284,70.75,40.5117,45.8719,167.064,102.316,105.306,0.00811338,0.097884,20.9014,14.1182,-0.258315,0.0,0.0
286,71.25,40.1098,45.4587,167.113,102.303,105.85,0.00809838,0.097531,20.9016,14.1382,-0.305693,0.0,0.0
288,71.75,40.2924,45.6657,159.445,102.289,105.171,0.00808623,0.097245,20.9018,14.0982,-0.249203,0.0,0.0
290,72.25,40.6574,45.7526,163.518,102.285,105.506,0.00807085,0.0971387,20.9019,14.1182,-0.27802,0.0,0.0
292,72.75,40.8459,45.5867,168.689,102.272,105.242,0.0080534,0.0970527,20.902,14.1082,-0.256688,0.0,0.0
294,73.25,40.352,46.1307,167.483,102.27,105.356,0.00804897,0.0969829,20.9021,14.0481,-0.266576,0.0,0.0
296,73.75,40.5229,45.427,167.397,102.282,106.043,0.00805411,0.0971077,20.9022,14.008,-0.323725,0.0,0.0
298,74.25,40.4753,45.451,165.114,102.258,105.726,0.00805827,0.0972087,20.9023,13.988,-0.299059,0.0,0.0
300,74.75,40.6126,45.5341,164.888,102.237,105.553,0.00809062,0.0972905,20.9021,14.0781,-0.286221,0.0,0.0
302,75.25,40.894,45.5022,165.942,102.24,105.205,0.00811682,0.0973568,20.9017,14.0681,-0.256267,0.0,0.0
304,75.75,40.5611,45.7591,162.012,102.225,105.466,0.00816044,0.0975279,20.9014,14.0882,-0.279879,0.0,0.0
306,76.25,40.5153,45.6528,167.116,102.215,105.972,0.00819578,0.0977721,20.9012,14.0882,-0.323634,0.0,0.0
308,76.75,40.3878,45.2226,161.485,102.212,105.323,0.008231,0.09797,20.901,14.0781,-0.268778,0.0,0.0
310,77.25,40.7174,45.6161,166.905,102.219,105.87,0.00825952,0.098507,20.9009,14.0481,-0.314683,0.0,0.0
312,77.75,40.3975,45.1221,162.389,102.215,105.273,0.00826417,0.098942,20.9007,13.998,-0.264354,0.0,0.0
314,78.25,40.4975,45.4597,157.449,102.204,105.374,0.00826794,0.0992136,20.9006,14.0281,-0.273846,0.0,0.0
316,78.75,40.4919,45.3174,167.815,102.195,105.408,0.00827099,0.0993608,20.9006,14.0381,-0.277574,0.0,0.0
318,79.25,40.3983,46.0685,171.199,102.188,105.069,0.0082142,0.0991173,20.9007,14.0381,-0.249221,0.0,0.0
320,79.75,40.738,45.8078,171.858,102.188,105.856,0.0081682,0.0989202,20.9011,14.008,-0.316174,0.0,0.0
322,80.25,40.7357,45.2614,166.951,102.196,105.635,0.0080928,0.0984817,20.9013,13.988,-0.296761,0.0,0.0
324,80.75,40.6572,45.4909,161.147,102.178,105.333,0.00803172,0.0981265,20.9016,13.998,-0.27268,0.0,0.0
326,81.25,40.4749,45.391,168.529,102.179,105.505,0.00797049,0.0977728,20.9017,13.998,-0.287276,0.0,0.0
328,81.75,40.4999,45.0638,170.818,102.176,105.091,0.00791031,0.097427,20.9023,14.008,-0.252194,0.0,0.0
330,82.25,40.4838,45.4491,160.58,102.161,105.795,0.00786156,0.0971468,20.9028,13.968,-0.313416,0.0,0.0
332,82.75,40.6076,45.4357,164.894,102.171,106.597,0.00782207,0.0968224,20.9032,13.998,-0.380266,0.0,0.0
334,83.25,40.4859,45.1405,163.249,102.163,104.483,0.00779009,0.0965596,20.9035,14.008,-0.201281,0.0,0.0
336,83.75,40.7721,45.3824,163.723,102.168,104.905,0.00777075,0.0963321,20.9037,13.978,-0.237056,0.0,0.0
338,84.25,40.3403,45.1829,160.093,102.176,105.586,0.00775509,0.0961346,20.9039,13.978,-0.294381,0.0,0.0
340,84.75,40.2217,45.1481,161.856,102.175,105.424,0.00773964,0.0959747,20.9043,14.0181,-0.280709,0.0,0.0
342,85.25,40.2167,45.3749,165.823,102.154,104.848,0.00772463,0.0958451,20.9049,14.0381,-0.233385,0.0,0.0
344,85.75,39.5504,44.9808,163.846,102.18,105.272,0.00771248,0.0957402,20.9053,13.978,-0.267283,0.0,0.0
346,86.25,40.6861,45.4484,161.509,102.173,105.124,0.00769364,0.0955856,20.9056,13.968,-0.255281,0.0,0.0
348,86.75,40.2277,45.157,163.994,102.165,105.543,0.0076703,0.0954603,20.9059,13.968,-0.291713,0.0,0.0
350,87.25,39.8799,44.8379,163.132,102.144,104.67,0.00764614,0.0952563,20.9061,13.8979,-0.219009,0.0,0.0
352,87.75,39.7912,45.1481,167.492,102.167,105.151,0.00762656,0.0949988,20.9063,13.8979,-0.258145,0.0,0.0
354,88.25,39.9968,44.7001,161.425,102.137,105.226,0.00761071,0.0947901,20.9065,13.9079,-0.267216,0.0,0.0
356,88.75,39.9877,44.3992,159.609,102.146,106.027,0.00759787,0.0945933,20.9066,13.9179,-0.334365,0.0,0.0
358,89.25,40.1819,45.1253,163.057,102.124,105.726,0.00758878,0.0944339,20.9067,13.9279,-0.310806,0.0,0.0
360,89.75,39.6599,45.5096,166.539,102.158,105.582,0.00758142,0.0942974,20.9068,13.958,-0.295566,0.0,0.0
362,90.25,40.56,44.9564,165.826,102.138,105.357,0.0075794,0.0941803,20.9068,14.008,-0.278247,0.0,0.0
364,90.75,40.1507,44.8684,161.858,102.137,105.207,0.00757776,0.0941074,20.9069,14.0481,-0.265534,0.0,0.0
366,91.25,40.1256,44.4864,164.936,102.137,105.996,0.00757643,0.0940682,20.9069,14.0181,-0.332539,0.0,0.0
368,91.75,40.1046,44.9415,164.463,102.143,105.221,0.00758296,0.0940144,20.9069,13.998,-0.266214,0.0,0.0
370,92.25,40.5131,44.871,160.862,102.139,106.036,0.0075951,0.0939511,20.9069,13.9079,-0.335745,0.0,0.0
372,92.75,39.9958,45.1009,166.862,102.134,104.914,0.00760027,0.0938705,20.9068,13.9279,-0.240867,0.0,0.0
374,93.25,40.1779,44.9386,164.582,102.141,105.19,0.00761672,0.0937788,20.9067,13.9279,-0.263741,0.0,0.0
376,93.75,40.0175,44.993,160.705,102.139,105.094,0.0076369,0.0937046,20.9067,13.9179,-0.2557,0.0,0.0
378,94.25,39.8998,45.145,164.27,102.118,105.871,0.00765324,0.0936957,20.9066,13.9279,-0.323643,0.0,0.0
380,94.75,40.2359,44.983,159.247,102.127,105.633,0.00768712,0.0937347,20.9066,13.9079,-0.302651,0.0,0.0
382,95.25,39.7141,44.9618,167.988,102.115,105.612,0.00769623,0.0937662,20.9066,13.8679,-0.301919,0.0,0.0
384,95.75,40.1592,45.0375,162.743,102.136,105.175,0.00771576,0.0938017,20.9065,13.8278,-0.2629,0.0,0.0
386,96.25,40.1036,44.6507,163.414,102.113,105.128,0.00773158,0.0938622,20.9065,13.8278,-0.260937,0.0,0.0
388,96.75,39.8625,44.708,164.511,102.128,105.622,0.00773782,0.0939113,20.9065,13.8378,-0.301615,0.0,0.0
390,97.25,40.4165,44.5027,161.697,102.105,104.94,0.00774287,0.0940902,20.9065,13.8679,-0.245583,0.0,0.0
392,97.75,40.1138,44.6563,157.94,102.1,105.462,0.00773936,0.094297,20.9065,13.8579,-0.290525,0.0,0.0
394,98.25,39.9017,44.625,161.875,102.093,105.554,0.00772966,0.0943306,20.9065,13.8478,-0.298974,0.0,0.0
396,98.75,39.8185,44.5867,163.304,102.095,105.125,0.00771558,0.0943881,20.9065,13.8378,-0.262219,0.0,0.0
398,99.25,40.4827,44.8913,162.563,102.071,105.032,0.00769858,0.0943468,20.9065,13.8278,-0.256391,0.0,0.0
400,99.75,40.1163,45.4469,161.786,102.084,104.982,0.0076848,0.0942342,20.9065,13.8078,-0.251027,0.0,0.0
402,100.25,40.1892,45.3278,164.506,102.072,105.101,0.00766328,0.0940552,20.9065,13.7277,-0.262251,0.0,0.0
404,100.75,40.0994,45.0466,162.237,102.079,105.758,0.00763651,0.093831,20.9069,13.7878,-0.317515,0.0,0.0
406,101.25,40.1653,45.8256,169.655,102.061,105.23,0.00760515,0.0935836,20.9072,13.7077,-0.27423,0.0,0.0
408,101.75,40.2989,45.2482,164.909,102.077,105.891,0.00757105,0.0933239,20.9075,13.7177,-0.328931,0.0,0.0
410,102.25,40.6708,45.2141,161.822,102.05,104.958,0.00754343,0.0931136,20.9078,13.8278,-0.251963,0.0,0.0
412,102.75,40.0996,44.7658,168.396,102.047,105.486,0.00749993,0.0928598,20.9079,13.7978,-0.297243,0.0,0.0
414,103.25,39.8212,45.1473,161.605,102.046,104.862,0.0074647,0.0926542,20.9081,13.7277,-0.244124,0.0,0.0
416,103.75,40.0159,45.1732,161.875,102.039,105.039,0.00742305,0.0924438,20.9081,13.7677,-0.259886,0.0,0.0
418,104.25,40.4881,45.0084,158.203,102.023,105.219,0.00738931,0.0922338,20.9081,13.8178,-0.276617,0.0,0.0
420,104.75,40.334,45.1673,159.658,102.03,105.359,0.00735646,0.0920638,20.908,13.7978,-0.287928,0.0,0.0
422,105.25,40.0222,44.8998,161.714,102.004,104.802,0.00732488,0.0918426,20.908,13.7978,-0.242657,0.0,0.0
424,105.75,40.2234,44.6823,166.925,102.018,106.486,0.00729586,0.0916635,20.908,13.8178,-0.384355,0.0,0.0
426,106.25,40.0021,44.8992,167.122,102.009,105.053,0.00728185,0.0915619,20.9082,13.7978,-0.263619,0.0,0.0
428,106.75,39.8218,44.6839,167.344,102.007,104.499,0.00725789,0.0915187,20.9086,13.7878,-0.216448,0.0,0.0
430,107.25,39.8916,44.6003,164.113,101.994,105.268,0.00724194,0.091581,20.9089,13.7978,-0.283241,0.0,0.0
432,107.75,39.4717,44.3442,165.445,102.006,105.076,0.00723212,0.0916315,20.9087,13.7878,-0.265873,0.0,0.0
434,108.25,39.7875,44.3285,168.568,101.996,104.861,0.00722762,0.0916651,20.9085,13.7177,-0.248422,0.0,0.0
436,108.75,39.9609,44.4149,170.783,102,105.408,0.00722708,0.0916857,20.9084,13.7577,-0.294665,0.0,0.0
438,109.25,39.6587,44.9573,159.461,101.996,104.918,0.00722802,0.0916945,20.9083,13.8278,-0.25327,0.0,0.0
440,109.75,39.6865,44.9018,163.631,101.983,105.136,0.00723003,0.0917241,20.9082,13.8278,-0.272997,0.0,0.0
442,110.25,40.0259,44.6389,157.828,101.975,105.699,0.00723303,0.0917613,20.9082,13.7077,-0.321627,0.0,0.0
444,110.75,39.8779,44.2459,165.604,101.981,104.885,0.00723671,0.0917914,20.9081,13.7477,-0.251711,0.0,0.0
446,111.25,40.0944,44.9376,159.755,101.984,105.452,0.00723969,0.091649,20.9081,13.7177,-0.299858,0.0,0.0
448,111.75,39.7688,44.298,165.83,101.972,104.941,0.00723816,0.0915337,20.908,13.7277,-0.257282,0.0,0.0
450,112.25,39.5394,44.6079,161.193,101.978,105.066,0.00723693,0.0913152,20.908,13.7177,-0.267537,0.0,0.0
452,112.75,39.849,45.0424,165.364,101.98,104.891,0.00721365,0.0911382,20.908,13.7978,-0.2524,0.0,0.0
454,113.25,40.1296,44.8773,165.501,101.97,106.116,0.00719479,0.0910921,20.908,13.7778,-0.357389,0.0,0.0
456,113.75,38.9005,44.723,165.533,101.962,105.281,0.00717951,0.0910548,20.9079,13.8178,-0.287231,0.0,0.0
458,114.25,39.7481,44.3905,161.32,101.954,104.796,0.00712927,0.0911358,20.9079,13.7778,-0.246512,0.0,0.0
460,114.75,39.6886,44.7344,163.347,101.955,105.205,0.00708858,0.0912013,20.9079,13.7778,-0.281359,0.0,0.0
462,115.25,40.0495,44.5256,162.952,101.957,105.488,0.00705562,0.0911813,20.9079,13.7177,-0.30531,0.0,0.0
464,115.75,39.5419,45.0672,164.712,101.956,105.285,0.00702065,0.0910992,20.9079,13.6776,-0.288057,0.0,0.0
466,116.25,40.3517,45.1698,163.651,101.954,104.743,0.00698489,0.0910328,20.9083,13.7177,-0.241984,0.0,0.0
468,116.75,39.6909,44.8526,164.386,101.946,105.434,0.00695523,0.0907713,20.9086,13.7477,-0.301594,0.0,0.0
470,117.25,39.6651,44.6855,165.568,101.965,106.716,0.00693059,0.0905596,20.9093,13.6976,-0.408395,0.0,0.0
472,117.75,39.5831,44.4374,168.302,101.942,105.656,0.00690856,0.090388,20.9099,13.7878,-0.320845,0.0,0.0
474,118.25,39.5386,44.4541,161.135,101.946,105.401,0.00688886,0.090263,20.9104,13.8378,-0.298766,0.0,0.0
476,118.75,39.94,44.7379,164.066,101.941,105.193,0.00687359,0.0901617,20.9107,13.8378,-0.281588,0.0,0.0
478,119.25,39.9212,45.0746,161.744,101.946,104.814,0.00686184,0.0900212,20.911,13.8178,-0.248731,0.0,0.0
480,119.75,39.9298,44.8958,159.29,101.947,105.588,0.00685164,0.0898547,20.9115,13.8178,-0.314625,0.0,0.0
482,120.25,39.3603,44.9072,162.119,101.938,105.37,0.00684275,0.0896323,20.9121,13.7978,-0.296897,0.0,0.0
484,120.75,40.0501,44.6168,163.347,101.941,104.703,0.00683556,0.0893731,20.9126,13.6876,-0.239732,0.0,0.0
486,121.25,39.8031,44.6773,165.817,101.946,104.847,0.00682057,0.0891413,20.913,13.6576,-0.251567,0.0,0.0
488,121.75,40.0094,45.0986,162.328,101.946,105.197,0.00680843,0.0889338,20.9133,13.7077,-0.281462,0.0,0.0
490,122.25,39.7213,45.115,164.748,101.931,105.156,0.00679033,0.0887657,20.9135,13.6976,-0.279336,0.0,0.0
492,122.75,39.5772,44.9939,163.492,101.922,105.302,0.00676824,0.0886296,20.9137,13.6175,-0.292586,0.0,0.0
494,123.25,39.6112,45.749,162.612,101.917,104.929,0.00675034,0.0885193,20.9139,13.6576,-0.261174,0.0,0.0
496,123.75,40.1055,45.3517,161.641,101.92,104.637,0.00670447,0.0882357,20.914,13.6075,-0.235933,0.0,0.0
498,124.25,40.1445,45.4322,164.184,101.905,105.084,0.00666732,0.088006,20.9142,13.6476,-0.275428,0.0,0.0
500,124.75,39.7209,45.2275,160.999,101.905,104.663,0.00661371,0.0876448,20.9142,13.7978,-0.239449,0.0,0.0
502,125.25,40.2403,45.3062,164.025,101.907,105.037,0.00657029,0.0871945,20.9147,13.7377,-0.271282,0.0,0.0
504,125.75,39.8766,45.677,164.717,101.895,104.758,0.00652344,0.0866912,20.9152,13.7377,-0.248513,0.0,0.0
506,126.25,39.8308,45.3816,167.294,101.894,105.402,0.00647497,0.0861589,20.9159,13.6476,-0.303548,0.0,0.0
508,126.75,40.2299,45.0905,164.685,101.889,104.626,0.00643571,0.0857276,20.9166,13.6376,-0.237721,0.0,0.0
510,127.25,40.0432,45.4101,165.747,101.902,104.684,0.00637652,0.0853091,20.9171,13.6676,-0.24148,0.0,0.0
512,127.75,40.0948,45.1181,165.414,101.883,104.746,0.00632857,0.08497,20.9175,13.6876,-0.248524,0.0,0.0
514,128.25,40.165,45.4929,160.082,101.886,106.125,0.0062664,0.0846298,20.9178,13.6476,-0.365557,0.0,0.0
516,128.75,40.8096,45.8091,167.44,101.881,104.519,0.00619505,0.0842952,20.9185,13.6976,-0.229217,0.0,0.0
518,129.25,39.8498,45.5953,164.743,101.885,104.457,0.00611396,0.0840242,20.9191,13.7778,-0.22349,0.0,0.0
520,129.75,40.1133,45.4146,168.697,101.883,104.99,0.0060273,0.0836108,20.9195,13.7778,-0.269393,0.0,0.0
522,130.25,40.2283,45.1767,168.66,101.872,104.669,0.00594068,0.083276,20.9199,13.7277,-0.242855,0.0,0.0
524,130.75,39.9507,45.8755,164.225,101.853,104.876,0.00585573,0.0829902,20.9202,13.6876,-0.262211,0.0,0.0
526,131.25,40.4065,45.6144,158.929,101.865,105.019,0.00578144,0.0827456,20.9205,13.6576,-0.273465,0.0,0.0
528,131.75,40.1166,45.2379,162.266,101.852,104.565,0.00571634,0.0825475,20.9207,13.6476,-0.235722,0.0,0.0
530,132.25,40.0357,45.804,165.38,101.858,105.141,0.00566224,0.0823593,20.9208,13.6476,-0.284392,0.0,0.0
532,132.75,40.146,45.3506,160.752,101.853,104.805,0.00561719,0.0821268,20.9214,13.6776,-0.256242,0.0,0.0
534,133.25,40.4341,45.5482,167.032,101.847,104.544,0.00557591,0.0818664,20.9218,13.6876,-0.234346,0.0,0.0
536,133.75,40.2457,45.3948,162.473,101.837,105.352,0.00553817,0.0814953,20.9222,13.6976,-0.304244,0.0,0.0
538,134.25,39.9932,45.2699,163.203,101.855,104.657,0.00550759,0.0810506,20.9225,13.6876,-0.243264,0.0,0.0
540,134.75,40.229,46.1867,165.239,101.828,105.365,0.00548283,0.0805303,20.9228,13.6876,-0.306169,0.0,0.0
542,135.25,40.0349,45.5759,163.343,101.829,104.978,0.00539796,0.0799649,20.9232,13.6876,-0.273062,0.0,0.0
544,135.75,40.6179,45.7312,161.428,101.811,104.917,0.00532921,0.0793833,20.9237,13.6776,-0.269494,0.0,0.0
546,136.25,40.0928,45.5341,160.883,101.816,105.217,0.00522296,0.078801,20.9247,13.6476,-0.294551,0.0,0.0
548,136.75,40.338,45.9698,163.374,101.793,105.419,0.0051369,0.0783294,20.926,13.6476,-0.313825,0.0,0.0
550,137.25,39.7838,45.4495,166.786,101.802,104.948,0.00504265,0.0779259,20.9271,13.5875,-0.272889,0.0,0.0
552,137.75,40.5245,45.7899,165.981,101.782,104.379,0.00494423,0.0775798,20.9279,13.6276,-0.225883,0.0,0.0
554,138.25,40.1463,45.8296,166.688,101.793,105.67,0.00486451,0.0772995,20.9286,13.6876,-0.335142,0.0,0.0
556,138.75,40.2383,45.7414,163.847,101.781,105.615,0.00477883,0.076962,20.9291,13.6776,-0.331583,0.0,0.0
558,139.25,40.6222,46.2201,165.521,101.786,105.217,0.00469043,0.0766886,20.9296,13.6676,-0.297247,0.0,0.0
560,139.75,40.2171,45.8823,167.165,101.769,104.948,0.00460591,0.0763437,20.93,13.6075,-0.275726,0.0,0.0
562,140.25,40.3534,45.7177,166.378,101.785,104.699,0.00452581,0.0759532,20.9303,13.5975,-0.253155,0.0,0.0
564,140.75,40.1852,45.2872,162.17,101.761,104.566,0.00444938,0.0756369,20.9306,13.5975,-0.243828,0.0,0.0
566,141.25,40.4315,44.789,161.496,101.772,104.957,0.00441132,0.0751484,20.9309,13.5875,-0.276266,0.0,0.0
568,141.75,39.971,45.5349,165.543,101.763,104.912,0.00434623,0.0745437,20.9315,13.5975,-0.273217,0.0,0.0
570,142.25,40.2516,44.873,159.478,101.774,104.659,0.00427518,0.0739161,20.932,13.5975,-0.250689,0.0,0.0
572,142.75,39.9265,45.5218,164.12,101.754,105.042,0.00420111,0.0732837,20.9323,13.5975,-0.285161,0.0,0.0
574,143.25,40.2915,45.1759,159.632,101.78,105.349,0.00413026,0.0726338,20.9326,13.6476,-0.309047,0.0,0.0
576,143.75,40.1352,45.041,165.061,101.759,104.63,0.00406309,0.0719834,20.9338,13.6376,-0.249527,0.0,0.0
578,144.25,40.4466,45.5742,164.742,101.759,104.586,0.00400869,0.0717061,20.9347,13.6376,-0.245742,0.0,0.0
580,144.75,40.2747,44.8053,163.401,101.752,104.87,0.00394646,0.0711088,20.9354,13.6676,-0.270663,0.0,0.0
582,145.25,40.0005,45.2817,161.288,101.74,104.678,0.00389606,0.0705141,20.936,13.6376,-0.255285,0.0,0.0
584,145.75,40.4988,45.207,166.579,101.731,105.058,0.00383333,0.0699528,20.9364,13.6476,-0.288539,0.0,0.0
586,146.25,39.909,45.1848,165.415,101.75,104.339,0.00378252,0.0694264,20.9366,13.6376,-0.225337,0.0,0.0
588,146.75,40.1857,45.1005,159.555,101.751,104.424,0.00370918,0.0690001,20.9368,13.6276,-0.232537,0.0,0.0
590,147.25,40.1795,45.3425,165.71,101.743,104.092,0.00364977,0.0685447,20.937,13.6476,-0.204689,0.0,0.0
592,147.75,40.72,45.1255,167.229,101.722,105.058,0.0035739,0.0681758,20.9371,13.6075,-0.289345,0.0,0.0
594,148.25,40.3915,45.0303,163.025,101.731,104.445,0.00348746,0.0677388,20.9377,13.6476,-0.236021,0.0,0.0
596,148.75,39.6721,45.3089,158.929,101.704,104.43,0.00341745,0.0673848,20.9381,13.6376,-0.237131,0.0,0.0
598,149.25,40.2277,45.4186,164.016,101.703,104.598,0.00333303,0.0670041,20.9385,13.6075,-0.251683,0.0,0.0
600,149.75,40.2279,44.7838,160.45,101.698,104.378,0.0032397,0.066611,20.9388,13.6276,-0.233269,0.0,0.0
602,150.25,40.2156,45.2255,165.345,101.705,104.499,0.00311537,0.0662926,20.939,13.6175,-0.242987,0.0,0.0
604,150.75,40.1717,45.323,163.115,101.684,105.224,0.00301466,0.0657874,20.9392,13.5775,-0.30685,0.0,0.0
606,151.25,40.1571,44.7865,161.542,101.681,104.638,0.00290746,0.0653781,20.9393,13.5374,-0.257079,0.0,0.0
608,151.75,40.155,44.8363,163.431,101.672,104.961,0.00279758,0.0648544,20.9403,13.5475,-0.285495,0.0,0.0
610,152.25,39.916,45.5649,162.647,101.674,104.801,0.00268433,0.0644301,20.9411,13.5274,-0.27163,0.0,0.0
612,152.75,39.9859,44.833,163.689,101.667,105.383,0.00257078,0.0639781,20.9422,13.4974,-0.321865,0.0,0.0
614,153.25,40.3077,45.7346,160.787,101.662,105.704,0.00245997,0.0635144,20.9431,13.5074,-0.349623,0.0,0.0
616,153.75,40.4708,45.6221,163.559,101.651,105.362,0.00235327,0.0630233,20.9438,13.4974,-0.321504,0.0,0.0
618,154.25,39.657,44.946,168.691,101.646,104.454,0.00225474,0.0625214,20.9444,13.5174,-0.244332,0.0,0.0
620,154.75,40.1521,44.8009,163.121,101.64,105.127,0.00216405,0.0620428,20.9449,13.5274,-0.302415,0.0,0.0
622,155.25,40.4697,44.961,161.315,101.622,104.935,0.00209059,0.06159,20.9452,13.5074,-0.287597,0.0,0.0
624,155.75,39.578,44.4551,163.819,101.632,104.731,0.00202369,0.0612234,20.9455,13.5475,-0.269335,0.0,0.0
626,156.25,39.8862,44.6697,165.179,101.613,104.781,0.00196286,0.0609263,20.9458,13.5374,-0.275262,0.0,0.0
628,156.75,39.5147,45.0675,164.014,101.656,104.608,0.00191022,0.0607074,20.946,13.4674,-0.256679,0.0,0.0
630,157.25,40.2814,45.1214,162.084,101.597,104.815,0.00186457,0.0605496,20.9462,13.5374,-0.279558,0.0,0.0
632,157.75,39.6679,44.6429,165.777,101.618,104.936,0.00182758,0.0604217,20.9463,13.5174,-0.288056,0.0,0.0
634,158.25,39.7183,44.906,165.705,101.595,104.579,0.00178232,0.0602676,20.9466,13.5074,-0.25955,0.0,0.0
636,158.75,39.8569,44.8595,165.278,101.599,104.885,0.00174566,0.0600973,20.9471,13.5374,-0.28537,0.0,0.0
638,159.25,39.759,45.1636,163.037,101.581,104.838,0.00170858,0.0599594,20.9475,13.5975,-0.282964,0.0,0.0
640,159.75,39.9444,45.0564,160.346,101.58,104.76,0.0016719,0.0597243,20.9478,13.6376,-0.276371,0.0,0.0
642,160.25,40.1096,44.8106,162.018,101.569,105.076,0.00163481,0.0595338,20.9481,13.6376,-0.304327,0.0,0.0
644,160.75,39.8255,44.4203,159.328,101.572,104.973,0.00159812,0.0592836,20.9483,13.6376,-0.295331,0.0,0.0
646,161.25,39.8569,44.5723,168.902,101.559,104.639,0.00156841,0.0590809,20.9484,13.6276,-0.267893,0.0,0.0
648,161.75,39.4571,44.8317,166.216,101.552,105.484,0.00153428,0.058859,20.9486,13.6075,-0.340659,0.0,0.0
650,162.25,40.0624,44.1639,165.788,101.533,104.482,0.00149759,0.0586273,20.9488,13.6075,-0.25669,0.0,0.0
652,162.75,39.6192,44.2954,161.157,101.54,104.256,0.00146786,0.0584324,20.9491,13.5975,-0.236645,0.0,0.0
654,163.25,39.9071,44.6327,157.297,101.522,104.526,0.00143976,0.0582681,20.9492,13.6075,-0.261405,0.0,0.0
656,163.75,40.0512,44.3938,167.599,101.523,104.66,0.00141338,0.058135,20.9494,13.5875,-0.272903,0.0,0.0
658,164.25,39.1257,44.5941,162.492,101.506,105.327,0.00138733,0.0580271,20.9495,13.5875,-0.331269,0.0,0.0
660,164.75,39.9615,45.0395,164.657,101.491,104.403,0.001362,0.0578439,20.95,13.5775,-0.253652,0.0,0.0
662,165.25,39.8145,44.6045,164.721,101.479,104.019,0.00134148,0.0576954,20.9505,13.6075,-0.221621,0.0,0.0
664,165.75,40.0631,44.5471,160.854,101.475,104.615,0.00130322,0.0574887,20.9508,13.5675,-0.273217,0.0,0.0
666,166.25,39.6656,44.7196,163.779,101.463,104.176,0.00127223,0.0572433,20.9511,13.5775,-0.236587,0.0,0.0
668,166.75,39.8502,45.1027,166.29,101.456,105.243,0.00123568,0.0570446,20.9513,13.5875,-0.32863,0.0,0.0
670,167.25,40.2021,44.9356,164.218,101.435,104.453,0.00120608,0.0568151,20.9515,13.5875,-0.262917,0.0,0.0
672,167.75,39.7568,44.8966,164.895,101.426,105.456,0.00117828,0.0565788,20.9517,13.6075,-0.34931,0.0,0.0
674,168.25,40.1007,45.0902,163.876,101.424,104.881,0.00115576,0.056342,20.9522,13.5975,-0.300501,0.0,0.0
676,168.75,40.13,45.2741,163.62,101.432,104.554,,0.0561502,,13.6075,-0.27186,0.0,0.0
678,169.25,40.0294,45.2096,168.912,101.41,104.687,,0.0559264,,13.5875,-0.28515,0.0,0.0
680,169.75,39.9102,45.1461,168.267,101.421,104.961,,0.055745,,13.6175,-0.307679,0.0,0.0
682,170.25,39.9909,44.8295,161.108,101.406,105.022,,0.0555571,,13.6175,-0.314213,0.0,0.0
684,170.75,40.3083,45.5067,161.483,101.4,104.244,,0.0554049,,13.5975,-0.248004,0.0,0.0
686,171.25,40.0425,45.7714,165.88,101.384,103.788,,0.0552816,,13.6175,-0.210169,0.0,0.0
688,171.75,40.051,45.6372,165.641,101.4,104.396,,,,13.6175,-0.261087,0.0,0.0
690,172.25,40.1723,45.456,159.846,101.391,104.154,,,,13.6276,-0.241124,0.0,0.0
692,172.75,39.8847,44.7862,162.015,101.389,104.002,,,,13.6276,-0.228114,0.0,0.0
694,173.25,40.3993,45.1767,163.272,101.368,104,,,,13.6075,-0.229871,0.0,0.0
696,173.75,39.3509,45.1947,168.471,101.375,103.953,,,,13.5975,-0.225164,0.0,0.0
698,174.25,39.9558,44.9626,162.576,101.375,104.092,,,,13.5975,-0.237165,0.0,0.0
700,174.75,39.4343,45.083,164.401,101.364,104.34,,,,13.5975,-0.259413,0.0,0.0
702,175.25,39.9509,45.0648,163.537,101.355,104.988,,,,13.5775,-0.315692,0.0,0.0
704,175.75,40.088,45.2802,160.761,101.345,104.429,,,,13.5374,-0.268833,0.0,0.0
706,176.25,39.7504,45.0333,166.789,101.332,104.104,,,,13.5274,-0.241987,0.0,0.0
708,176.75,39.8809,45.4502,159.229,101.35,104.292,,,,13.5475,-0.256574,0.0,0.0
710,177.25,39.59,45.3004,163.613,101.342,103.98,,,,13.5675,-0.230388,0.0,0.0
712,177.75,39.991,44.7686,168.063,101.359,104.489,,,,13.5675,-0.272744,0.0,0.0
714,178.25,40.1411,45.2111,165.695,101.343,104.418,,,,13.5675,-0.268044,0.0,0.0
716,178.75,40.3206,44.7889,164.122,101.34,104.658,,,,13.5975,-0.288809,0.0,0.0
718,179.25,39.8748,44.7794,169.628,101.329,104.246,,,,13.5675,-0.254446,0.0,0.0