File: 01_Data/Cotton_Raw/Cone/Cotton_Raw_Cone_HF50-Frame+GridScan_200909_R2.csv
Names,Time,Stack TC,Smoke TC,Exh Press,Smoke Comp,Smoke Meas,CO Meter,CO2 Meter,O2 Meter,Sample Mass,Ext Coeff,Start Test,Flame Verif
Chan Gain,,500,500,1,1,1,1,1,1,1,1,1.0,1.0
Offset,,0,0,0.136754,0,0,0,0,0,0,0,0.0,0.0
Gain,,1,1,25.011,13.7501,16.9893,1,1,1,1.00105,1.02582,1.0,1.0
Units,sec,C,C,Pa,%,%,%,%,%,g,/m,,
Baseline,,30.7636,33.8264,163.684,102.669,103.841,-0.000467375,0.0537324,20.9599,-900.72,-0.102076,,
2,0.25,30.185,32.7909,159.811,102.633,103.413,7.92507e-05,0.0565139,20.9567,13.7044,-0.0681194,0.0,0.0
4,0.75,29.9035,32.7168,162.717,102.648,103.972,0.000199053,0.0579307,20.9559,13.6643,-0.115289,0.0,0.0
6,1.25,28.8161,31.7237,158.708,102.625,102.406,0.000296093,0.0705566,20.9484,13.5342,0.0192321,0.0,0.0
8,1.75,27.878,30.7994,167.021,102.644,100.82,0.000374695,0.0807836,20.9361,13.4842,0.161294,0.0,0.0
10,2.25,28.5567,31.4025,158.39,102.623,103.74,0.000483062,0.102153,20.9202,13.4641,-0.0974163,0.0,0.0
12,2.75,29.1506,31.7733,157.117,102.641,104.102,0.000611069,0.119463,20.9019,13.4141,-0.127178,0.0,1.0
14,3.25,29.0524,32.1609,156.377,102.614,104.503,0.000731439,0.138818,20.887,13.4041,-0.164146,0.0,1.0
16,3.75,29.9931,34.413,158.176,102.624,104.467,0.000843957,0.154495,20.8704,13.354,-0.160137,0.0,1.0
18,4.25,30.2651,35.0627,154.182,102.611,104.697,0.000935095,0.167194,20.8569,13.2239,-0.181129,0.0,1.0
20,4.75,30.8113,36.8799,158.483,102.622,105.881,0.00101693,0.177749,20.846,13.2539,-0.281291,0.0,1.0
22,5.25,31.7781,37.0268,155.814,102.61,105.13,0.00109043,0.186298,20.8371,13.1938,-0.218372,0.0,1.0
24,5.75,32.0735,38.2159,156.356,102.619,104.125,0.00114997,0.192097,20.8299,13.2039,-0.131137,0.0,1.0
26,6.25,32.8655,38.2677,158.381,102.589,105.499,0.001202,0.19578,20.8241,13.1838,-0.251709,0.0,1.0
28,6.75,33.0371,38.9131,155.69,102.606,104.21,0.00124415,0.198764,20.8194,13.1938,-0.139541,0.0,1.0
30,7.25,32.8787,39.6632,159.259,102.586,104.689,0.00128336,0.199777,20.8161,13.1438,-0.18258,0.0,1.0
32,7.75,32.6583,38.6932,162.014,102.604,104.161,0.00131513,0.200597,20.8138,13.0537,-0.135552,0.0,1.0
34,8.25,32.224,38.897,156.841,102.592,105.556,0.00134847,0.201261,20.8119,13.0737,-0.256271,0.0,0.0
36,8.75,32.5533,38.8329,157.912,102.601,105.404,0.00138016,0.201799,20.8104,13.0537,-0.242501,0.0,0.0
38,9.25,32.8558,38.9401,153.978,102.58,104.213,0.00141004,0.202235,20.8092,13.0637,-0.142099,0.0,0.0
40,9.75,33.0014,39.9385,156.896,102.591,104.517,0.00143826,0.202721,20.8082,12.9636,-0.167294,0.0,0.0
42,10.25,32.9969,40.3346,158.646,102.581,104.504,0.00146472,0.203114,20.807,12.9236,-0.167098,0.0,0.0
44,10.75,33.4785,40.4994,160.71,102.574,105.073,0.00148615,0.204068,20.806,12.8735,-0.216617,0.0,0.0
46,11.25,33.6163,40.6796,152.399,102.575,104.459,0.00150686,0.204841,20.8052,12.8335,-0.163773,0.0,0.0
48,11.75,33.318,40.8876,154.675,102.58,105.015,0.00152664,0.206815,20.8028,12.7634,-0.21109,0.0,0.0
50,12.25,33.8366,40.654,155.192,102.593,104.405,0.00154065,0.208414,20.8008,12.7434,-0.1575,0.0,0.0
52,12.75,33.6118,40.9591,156.656,102.572,104.737,0.0015502,0.211243,20.7984,12.7234,-0.187901,0.0,0.0
54,13.25,34.3898,41.5136,156.781,102.559,105.207,0.00155793,0.213534,20.7964,12.7033,-0.229346,0.0,0.0
56,13.75,34.4457,41.8292,154.083,102.564,104.062,0.00155277,0.216811,20.7935,12.6633,-0.13049,0.0,0.0
58,14.25,34.7671,41.7111,155.664,102.559,104.553,0.00154858,0.219465,20.7911,12.6333,-0.173215,0.0,0.0
60,14.75,34.5726,42.3816,155.877,102.561,104.625,0.00154011,0.222264,20.7892,12.5932,-0.17935,0.0,0.0
62,15.25,35.2034,42.1522,154.817,102.558,104.298,0.00153325,0.225114,20.7859,12.5532,-0.15139,0.0,0.0
64,15.75,35.1321,42.8643,155.349,102.553,104.893,0.00153638,0.227423,20.7832,12.5231,-0.202993,0.0,0.0
66,16.25,35.4532,43.2949,155.51,102.545,104.839,0.00154674,0.230183,20.7802,12.4731,-0.199102,0.0,0.0
68,16.75,35.6891,43.2948,147.865,102.541,103.774,0.00156516,0.232419,20.7777,12.4431,-0.107524,0.0,0.0
70,17.25,35.3943,43.7574,152.457,102.537,104.177,0.00158911,0.23426,20.7758,12.373,-0.142839,0.0,0.0
72,17.75,35.9576,43.9907,153.721,102.525,104.507,0.00160852,0.235751,20.7741,12.3229,-0.172271,0.0,0.0
74,18.25,36.3028,44.5048,155.127,102.534,104.388,0.00165093,0.236808,20.7728,12.2328,-0.161268,0.0,0.0
76,18.75,36.6638,44.8006,154.39,102.51,103.504,0.00168529,0.237528,20.7718,12.1728,-0.0869154,0.0,0.0
78,19.25,35.4963,44.7445,153.095,102.515,103.466,0.00171713,0.237992,20.7709,12.1828,-0.0830999,0.0,0.0
80,19.75,36.7479,44.8331,153.496,102.498,104.465,0.00174655,0.238261,20.7698,12.0927,-0.171085,0.0,0.0
82,20.25,36.177,45.0391,159.707,102.507,103.689,0.00176702,0.238479,20.7691,12.0827,-0.103169,0.0,0.0
84,20.75,36.7513,45.1209,156.415,102.497,103.867,0.00178059,0.238882,20.7688,12.0326,-0.11948,0.0,0.0
86,21.25,36.8017,46.3335,155.191,102.503,103.355,0.00178489,0.239208,20.7685,12.0526,-0.0745132,0.0,0.0
88,21.75,36.9285,44.9496,152.416,102.494,103.655,0.00178235,0.239655,20.7683,12.0026,-0.101385,0.0,0.0
90,22.25,36.6992,45.347,155.327,102.497,104.636,0.00177092,0.240181,20.7681,11.9726,-0.185876,0.0,0.0
92,22.75,37.2697,45.4182,157.05,102.488,103.86,0.00175324,0.240473,20.7679,11.9525,-0.119617,0.0,0.0
94,23.25,38.2674,45.6653,158.573,102.482,104.08,0.00172615,0.240587,20.7678,11.9125,-0.139204,0.0,0.0
96,23.75,36.8292,45.6669,162.182,102.471,103.997,0.00169273,0.240505,20.7677,11.9525,-0.132979,0.0,0.0
98,24.25,36.2274,45.8806,155.906,102.47,104.014,0.00166566,0.240282,20.7679,11.9425,-0.13457,0.0,0.0
100,24.75,37.5979,45.9942,157.814,102.465,103.463,0.00164374,0.239918,20.7682,11.8925,-0.0872512,0.0,0.0
102,25.25,37.4059,45.9088,151.471,102.46,104.192,0.00160526,0.239459,20.7684,11.8124,-0.150843,0.0,0.0
104,25.75,37.4876,45.898,155.2,102.451,104.582,0.00155546,0.238819,20.7687,11.7824,-0.185263,0.0,0.0
106,26.25,37.2056,46.039,159.52,102.451,103.807,0.00151512,0.238057,20.769,11.7523,-0.118314,0.0,0.0
108,26.75,37.7231,45.8668,152.795,102.448,105.018,0.00145454,0.237441,20.7694,11.7323,-0.222996,0.0,0.0
110,27.25,37.7462,45.6119,158.414,102.467,104.314,0.00140547,0.236941,20.7699,11.6823,-0.160806,0.0,0.0
112,27.75,37.9177,45.919,155.79,102.432,104.258,0.00134165,0.235754,20.7708,11.6322,-0.159033,0.0,0.0
114,28.25,37.7604,46.1956,157.814,102.443,103.825,0.00131444,0.234089,20.7715,11.6122,-0.120587,0.0,0.0
116,28.75,37.6126,46.0341,156.635,102.425,103.778,0.00125658,0.232741,20.7732,11.5021,-0.118082,0.0,0.0
118,29.25,37.8862,46.1512,152.936,102.423,104.07,0.00119951,0.231098,20.7752,11.5021,-0.143586,0.0,0.0
120,29.75,37.793,45.9335,155.959,102.418,103.336,0.00114595,0.229272,20.7771,11.452,-0.0802877,0.0,0.0
122,30.25,37.3368,45.7098,154.613,102.429,104.161,0.00109598,0.227614,20.7788,11.392,-0.150838,0.0,0.0
124,30.75,37.4606,45.8089,160.943,102.414,104.28,0.00105217,0.226272,20.7802,11.3819,-0.162497,0.0,0.0
126,31.25,37.836,46.2531,156.813,102.417,105.182,0.00101368,0.225707,20.7813,11.3819,-0.239714,0.0,0.0
128,31.75,37.7176,45.8559,156.014,102.412,104.271,0.000982511,0.224742,20.7822,11.3719,-0.161885,0.0,0.0
130,32.25,37.7074,46.1656,159.701,102.417,104.123,0.000961258,0.223921,20.7829,11.3019,-0.148673,0.0,0.0
132,32.75,38.0028,45.9397,149.937,102.403,104.09,0.00094764,0.22322,20.7835,11.3219,-0.14703,0.0,0.0
134,33.25,37.6749,45.9515,158.844,102.39,104.295,0.000940608,0.222629,20.784,11.2218,-0.16586,0.0,0.0
136,33.75,37.4009,45.8716,154.639,102.386,104.693,0.000938509,0.222129,20.7844,11.2118,-0.20051,0.0,0.0
138,34.25,37.6002,45.9505,158.795,102.387,104.909,0.00093681,0.221725,20.7847,11.2618,-0.218927,0.0,0.0
140,34.75,37.6319,46.0045,159.668,102.379,103.806,0.000944297,0.221039,20.785,11.2218,-0.124491,0.0,0.0
142,35.25,37.9519,46.096,157.911,102.387,104.611,0.000950361,0.220484,20.7852,11.1317,-0.193356,0.0,0.0
144,35.75,38.0237,45.4092,158.259,102.362,104.324,0.000961606,0.220035,20.7856,11.0716,-0.170873,0.0,0.0
146,36.25,37.9184,45.3181,158.324,102.371,104.279,0.000970714,0.219507,20.7861,11.1117,-0.166088,0.0,0.0
148,36.75,37.5957,45.6118,153.854,102.355,104.083,0.000981425,0.21908,20.7865,11.0716,-0.150636,0.0,0.0
150,37.25,37.7562,44.5466,154.638,102.37,104.576,0.00098757,0.218897,20.7867,11.0015,-0.191798,0.0,0.0
152,37.75,38.0471,45.3309,153.593,102.369,104.043,0.000998745,0.218749,20.787,10.9315,-0.145974,0.0,0.0
154,38.25,36.7086,45.0226,164.657,102.37,104.188,0.0010084,0.218377,20.7873,10.9115,-0.158403,0.0,0.0
156,38.75,37.504,45.1176,154.709,102.345,103.88,0.00101622,0.218075,20.7875,10.9315,-0.133978,0.0,0.0
158,39.25,37.7972,44.7645,162.158,102.366,104.422,0.00102322,0.217736,20.7877,10.9014,-0.178871,0.0,0.0
160,39.75,37.5768,45.0917,156.99,102.337,104.216,0.00102948,0.217378,20.7878,10.8514,-0.163743,0.0,0.0
162,40.25,37.6345,45.0747,157.193,102.344,104.635,0.0010399,0.217225,20.7879,10.8113,-0.199251,0.0,0.0
164,40.75,37.8319,45.6056,161.57,102.332,104.118,0.00105313,0.217008,20.7884,10.7713,-0.155713,0.0,0.0
166,41.25,37.6961,44.81,155.746,102.332,104.371,0.0010772,0.216833,20.7888,10.7513,-0.177516,0.0,0.0
168,41.75,37.3436,45.1742,157.28,102.309,104.383,0.0011087,0.216408,20.7896,10.7513,-0.180611,0.0,0.0
170,42.25,37.5295,45.2516,154.575,102.327,104.536,0.00114757,0.216065,20.7903,10.7313,-0.192207,0.0,0.0
172,42.75,37.6299,45.6948,156.055,102.301,104.037,0.00119108,0.215786,20.7908,10.6512,-0.151376,0.0,0.0
174,43.25,37.6497,45.2564,153.522,102.314,104.436,0.00124101,0.214834,20.7912,10.5811,-0.184652,0.0,0.0
176,43.75,37.333,44.8779,157.768,102.306,104.696,0.00129469,0.213674,20.7928,10.5511,-0.207795,0.0,0.0
178,44.25,37.5698,45.3974,154.473,102.309,104.79,0.00133817,0.212384,20.7942,10.6211,-0.215555,0.0,0.0
180,44.75,37.3997,45.0632,156.891,102.293,104.639,0.00140006,0.210997,20.7957,10.6111,-0.20411,0.0,0.0
182,45.25,37.778,44.2231,158.045,102.28,104.888,0.0014502,0.209566,20.7969,10.5411,-0.226549,0.0,0.0
184,45.75,37.7649,45.9481,156.009,102.277,105.322,0.00149081,0.208228,20.7979,10.511,-0.264005,0.0,0.0
186,46.25,37.6403,45.0242,159.875,102.274,104.345,0.00154658,0.206985,20.7989,10.5311,-0.180419,0.0,0.0
188,46.75,37.904,44.6864,160.811,102.281,103.672,0.00159176,0.205845,20.8,10.511,-0.121605,0.0,0.0
190,47.25,37.7261,45.23,160.78,102.282,105.155,0.0016398,0.204804,20.8008,10.491,-0.249243,0.0,0.0
192,47.75,37.7328,44.8184,157.905,102.254,104.741,0.00167871,0.203961,20.8015,10.461,-0.21616,0.0,0.0
194,48.25,37.819,44.5914,160.64,102.244,103.914,0.00171023,0.202999,20.8021,10.4109,-0.145793,0.0,0.0
196,48.75,37.8832,44.8459,154.756,102.247,103.932,0.00174514,0.201969,20.8025,10.3409,-0.147068,0.0,0.0
198,49.25,37.4332,44.8004,160.57,102.235,103.823,0.00178185,0.201135,20.8027,10.3308,-0.138671,0.0,0.0
200,49.75,37.2244,44.8656,158.862,102.211,104.939,0.00182565,0.200034,20.8029,10.3208,-0.237045,0.0,0.0
202,50.25,37.8819,44.4337,160.903,102.226,103.915,0.0018738,0.199141,20.804,10.3208,-0.147433,0.0,0.0
204,50.75,37.1994,44.753,157.928,102.217,104.135,0.00193493,0.198419,20.8048,10.2307,-0.167307,0.0,0.0
206,51.25,37.4154,44.893,154.461,102.215,104.051,0.00200436,0.197679,20.8055,10.2508,-0.160202,0.0,0.0
208,51.75,37.423,44.6445,154.885,102.205,104.517,0.00208679,0.196941,20.806,10.2407,-0.201255,0.0,0.0
210,52.25,37.4655,44.538,156.323,102.189,105.184,0.00217712,0.196228,20.8069,10.2007,-0.25997,0.0,0.0
212,52.75,37.4633,44.6938,157.729,102.186,104.414,0.00225029,0.195546,20.8076,10.1607,-0.194112,0.0,0.0
214,53.25,37.8294,44.6462,157.987,102.184,103.662,0.00236577,0.194947,20.8084,10.1607,-0.129228,0.0,0.0
216,53.75,37.7478,44.5741,156.4,102.171,105.274,0.00245931,0.194421,20.8093,10.0806,-0.269148,0.0,0.0
218,54.25,37.6627,44.4005,152.453,102.163,104.54,0.00255393,0.193902,20.81,10.1106,-0.206959,0.0,0.0
220,54.75,37.6978,44.8358,161.206,102.159,104.547,0.00264753,0.193398,20.8106,10.0205,-0.207871,0.0,0.0
222,55.25,37.2583,44.2903,151.965,102.163,104.335,0.00272335,0.19299,20.811,10.0606,-0.189232,0.0,0.0
224,55.75,37.8988,44.4058,156.1,102.153,104.735,0.00283097,0.192119,20.8114,10.0706,-0.224574,0.0,0.0
226,56.25,37.5634,44.595,159.521,102.136,104.957,0.00291814,0.191413,20.8117,10.0405,-0.245171,0.0,0.0
228,56.75,37.6803,44.6383,157.823,102.131,103.78,0.00302207,0.190641,20.8125,9.99048,-0.144105,0.0,0.0
230,57.25,37.8236,44.3833,158.594,102.132,103.796,0.00310626,0.189837,20.8136,9.97046,-0.145469,0.0,0.0
232,57.75,37.6456,44.516,157.834,102.112,104.848,0.00317715,0.189185,20.8145,9.93042,-0.237902,0.0,0.0
234,58.25,37.7954,44.6691,150.346,102.117,103.974,0.00323701,0.188525,20.8152,9.94043,-0.162204,0.0,0.0
236,58.75,37.8295,44.1224,155.91,102.111,104.181,0.00327334,0.187991,20.8158,9.89038,-0.180526,0.0,0.0
238,59.25,37.0939,44.8059,160.211,102.105,105.311,0.00329184,0.187167,20.8168,9.83032,-0.278261,0.0,0.0
240,59.75,37.6467,44.2358,157.551,102.1,104.619,0.00330682,0.186498,20.8175,9.82031,-0.219293,0.0,0.0
242,60.25,37.4083,44.0553,153.348,102.086,104.53,0.00331086,0.18552,20.8186,9.83032,-0.212914,0.0,0.0
244,60.75,37.868,44.3127,155.042,102.079,104.036,0.00330685,0.184728,20.8198,9.82031,-0.170915,0.0,0.0
246,61.25,37.2271,44.533,156.583,102.064,104.65,0.0033117,0.184086,20.8209,9.80029,-0.225149,0.0,0.0
248,61.75,37.6391,43.9288,161.384,102.064,104.859,0.00332291,0.183203,20.8217,9.77025,-0.243097,0.0,0.0
250,62.25,37.6049,44.2478,162.019,102.052,103.781,0.00334076,0.182488,20.8224,9.73021,-0.151184,0.0,0.0
252,62.75,37.5561,44.4211,161.238,102.055,104.099,0.00336312,0.181748,20.8229,9.7202,-0.178448,0.0,0.0
254,63.25,36.8375,44.1063,162.564,102.045,103.529,0.0033873,0.181149,20.8234,9.69017,-0.129947,0.0,0.0
256,63.75,37.804,43.9172,158.103,102.063,104.198,0.00341236,0.180611,20.8237,9.66014,-0.186264,0.0,0.0
258,64.25,37.4592,44.0703,157.818,102.059,103.85,0.00344143,0.180127,20.824,9.63011,-0.156541,0.0,0.0
260,64.75,37.3267,42.7954,151.809,102.055,103.598,0.00347288,0.179704,20.8243,9.6201,-0.135087,0.0,0.0
262,65.25,37.5214,43.8134,154.449,102.066,104.81,0.00351457,0.179333,20.8245,9.58005,-0.238685,0.0,0.0
264,65.75,37.2918,43.3512,157.464,102.073,104.355,0.00356294,0.179087,20.8246,9.57004,-0.199007,0.0,0.0
266,66.25,37.2051,43.9935,160.419,102.076,103.999,0.00360211,0.178936,20.8247,9.54001,-0.167937,0.0,0.0
268,66.75,37.7364,43.9513,155.221,102.062,104.176,0.00365543,0.178829,20.8248,9.51999,-0.184487,0.0,0.0
270,67.25,37.6603,44.1228,156.815,102.069,103.965,0.00371804,0.178755,20.8249,9.46994,-0.165575,0.0,0.0
272,67.75,37.2871,43.722,162.75,102.083,103.677,0.00376875,0.178667,20.8248,9.49997,-0.139369,0.0,0.0
274,68.25,37.2319,44.0319,156.8,102.072,104.216,0.00382269,0.178596,20.8248,9.47995,-0.187047,0.0,0.0
276,68.75,36.9402,43.8316,156.483,102.095,104.042,0.00386638,0.178538,20.8247,9.43991,-0.17004,0.0,0.0
278,69.25,37.7281,44.1007,155.69,102.079,103.917,0.00391335,0.178273,20.8246,9.39987,-0.160558,0.0,0.0
280,69.75,37.2996,44.1108,158.041,102.097,103.887,0.00395139,0.178059,20.8248,9.39987,-0.156318,0.0,0.0
282,70.25,37.3974,44.1025,158.132,102.081,104.145,0.00398992,0.177625,20.8252,9.38985,-0.180135,0.0,0.0
284,70.75,37.8806,44.0768,155.944,102.093,104.733,0.00402114,0.177039,20.8255,9.38985,-0.229727,0.0,0.0
286,71.25,37.4511,43.6067,163.019,102.092,104.341,0.00404642,0.176565,20.8259,9.35982,-0.196135,0.0,0.0
288,71.75,37.6908,44.1664,156.343,102.085,103.598,0.004052,0.175877,20.8265,9.31978,-0.132424,0.0,0.0
290,72.25,37.5954,43.7561,154.036,102.093,104.367,0.00404312,0.175319,20.827,9.29976,-0.198259,0.0,0.0
292,72.75,37.572,44.3138,156.329,102.103,104.49,0.00401226,0.174636,20.8283,9.29976,-0.207997,0.0,0.0
294,73.25,37.6932,44.0443,159.165,102.101,103.741,0.00396595,0.174083,20.8293,9.27974,-0.143358,0.0,0.0
296,73.75,37.4886,44.1015,158.241,102.116,103.528,0.00392844,0.173288,20.8301,9.25972,-0.12356,0.0,0.0
298,74.25,37.7165,43.6845,156.499,102.1,104.832,0.00387442,0.172643,20.8308,9.24971,-0.237676,0.0,0.0
300,74.75,37.4276,43.4925,159.519,102.121,104.776,0.00380938,0.172122,20.8313,9.2397,-0.230939,0.0,0.0
302,75.25,37.2731,43.7934,160.599,102.114,103.837,0.00375602,0.171448,20.8322,9.20967,-0.150564,0.0,0.0
304,75.75,37.2513,43.7717,159.169,102.113,104.656,0.00371219,0.170677,20.8329,9.17963,-0.221313,0.0,0.0
306,76.25,37.414,43.4746,162.539,102.116,103.8,0.00367669,0.170052,20.8339,9.1496,-0.147226,0.0,0.0
308,76.75,37.5707,43.0835,160.228,102.135,104.809,0.00367874,0.16946,20.8347,9.13959,-0.232576,0.0,0.0
310,77.25,36.9446,43.1539,156.08,102.134,104.157,0.00368039,0.16898,20.8358,9.11957,-0.176513,0.0,0.0
312,77.75,36.9747,43.4238,158.936,102.127,103.48,0.00372155,0.168545,20.8367,9.07953,-0.11837,0.0,0.0
314,78.25,36.8868,43.4348,158.407,102.13,105.089,0.00375489,0.168152,20.8374,9.09955,-0.257061,0.0,0.0
316,78.75,37.0878,42.606,162.746,102.157,104.176,0.00381532,0.167637,20.838,9.03949,-0.176093,0.0,0.0
318,79.25,37.1693,42.7661,156.989,102.125,104.07,0.00386427,0.167042,20.8385,8.98943,-0.169754,0.0,0.0
320,79.75,37.0235,42.9089,156.061,102.143,103.642,0.00391272,0.16656,20.8389,8.96941,-0.131066,0.0,0.0
322,80.25,37.0425,43.0442,159.589,102.132,103.904,0.00395989,0.165838,20.8392,8.98943,-0.154768,0.0,0.0
324,80.75,37.3471,42.7164,161.162,102.139,103.423,0.00399809,0.165254,20.8398,8.94939,-0.112375,0.0,0.0
326,81.25,37.1431,43.0131,156.933,102.131,103.908,0.00404062,0.164766,20.8404,8.89934,-0.155201,0.0,0.0
328,81.75,36.5961,42.8834,158.514,102.147,103.726,0.00407507,0.164371,20.8411,8.89934,-0.137986,0.0,0.0
330,82.25,36.6705,42.8799,158.434,102.139,104.621,0.00411199,0.163821,20.8418,8.88933,-0.215988,0.0,0.0
332,82.75,36.6358,42.4143,160.476,102.15,104.981,0.00414189,0.163375,20.8425,8.86931,-0.245967,0.0,0.0
334,83.25,37.2024,42.6874,155.577,102.136,103.903,0.00418285,0.162825,20.843,8.72916,-0.154345,0.0,0.0
336,83.75,36.5863,42.6144,160.811,102.144,104.055,0.00421603,0.162209,20.8436,8.78922,-0.166835,0.0,0.0
338,84.25,36.8274,42.6901,155.471,102.151,104.77,0.00425036,0.16171,20.8443,8.73917,-0.227742,0.0,0.0
340,84.75,36.4441,42.2671,155.016,102.159,104.747,0.00428489,0.160961,20.8449,8.74918,-0.225162,0.0,0.0
342,85.25,36.4734,42.7794,161.575,102.148,103.703,0.00432438,0.160355,20.8454,8.7692,-0.135888,0.0,0.0
344,85.75,36.8069,42.5399,157.084,102.173,103.992,0.00436675,0.159706,20.8457,8.75919,-0.158813,0.0,0.0
346,86.25,36.9734,42.6384,160.794,102.155,103.873,0.00441804,0.15918,20.8465,8.75919,-0.150077,0.0,0.0
348,86.75,36.5845,42.2143,156.845,102.184,104.308,0.00447486,0.158582,20.8471,8.70914,-0.185095,0.0,0.0
350,87.25,36.5543,42.3989,155.074,102.169,103.995,0.00452089,0.158098,20.8476,8.67911,-0.15946,0.0,0.0
352,87.75,36.5101,42.695,154.525,102.176,104.877,0.00458541,0.157517,20.848,8.63907,-0.234782,0.0,0.0
354,88.25,36.7086,42.0751,162.849,102.178,104.255,0.00466219,0.156876,20.8483,8.60904,-0.181094,0.0,0.0
356,88.75,36.5061,41.9932,160.437,102.174,103.97,0.00472439,0.156102,20.8491,8.61905,-0.156781,0.0,0.0
358,89.25,36.6164,41.8192,155.152,102.176,103.344,0.00479415,0.155244,20.8498,8.63907,-0.10227,0.0,0.0
360,89.75,36.6881,41.6011,163.947,102.199,104.486,0.00485066,0.154549,20.8508,8.60904,-0.199101,0.0,0.0
362,90.25,36.489,41.8804,160.657,102.194,103.683,0.00490419,0.1533,20.8517,8.56899,-0.130195,0.0,0.0
364,90.75,36.4886,41.6563,159.427,102.197,104.034,0.00494755,0.152288,20.8528,8.579,-0.160348,0.0,0.0
366,91.25,36.4706,41.9533,163.006,102.194,104.039,0.00498811,0.151146,20.8541,8.55898,-0.160928,0.0,0.0
368,91.75,36.5609,41.7881,159.694,102.196,103.465,0.00502587,0.149932,20.8554,8.53896,-0.111083,0.0,0.0
370,92.25,36.4424,42.3266,157.731,102.207,104.086,0.00507845,0.148948,20.8566,8.55898,-0.163862,0.0,0.0
372,92.75,36.459,41.6388,161.46,102.202,103.856,0.00513534,0.147425,20.8576,8.64908,-0.144464,0.0,0.0
374,93.25,36.5214,41.6159,163.625,102.205,104.122,0.00519431,0.146191,20.8593,8.59902,-0.167229,0.0,0.0
376,93.75,36.1205,41.7796,157.515,102.211,104.4,0.00524207,0.144538,20.8607,8.46889,-0.190697,0.0,0.0
378,94.25,36.0143,41.889,161.626,102.217,104.231,0.00531008,0.143199,20.8618,8.4789,-0.175591,0.0,0.0
380,94.75,36.2346,41.6962,163.961,102.214,103.754,0.00539157,0.141746,20.8627,8.58901,-0.134576,0.0,0.0
382,95.25,36.2982,41.6027,164.206,102.225,103.762,0.00545757,0.140569,20.8639,8.53896,-0.134253,0.0,0.0
384,95.75,36.1165,41.4905,160.908,102.22,104.022,0.00554177,0.139275,20.8648,8.51894,-0.157247,0.0,0.0
386,96.25,35.8089,40.9948,156.722,102.226,104.069,0.00563764,0.138227,20.866,8.42885,-0.160766,0.0,0.0
388,96.75,35.8681,41.209,156.639,102.212,103.705,0.00571529,0.137103,20.8669,8.48891,-0.130451,0.0,0.0
390,97.25,35.8654,40.6104,163.477,102.225,103.644,0.00581847,0.135944,20.8677,8.44887,-0.124004,0.0,0.0
392,97.75,35.8867,41.0022,161.938,102.214,104.12,0.00590205,0.135005,20.8683,8.49892,-0.166311,0.0,0.0
394,98.25,35.8896,40.8064,157.17,102.233,103.748,0.00598275,0.134245,20.8688,8.48891,-0.1323,0.0,0.0
396,98.75,35.5495,40.7219,161.557,102.228,104.172,0.00605983,0.13264,20.871,8.43886,-0.16949,0.0,0.0
398,99.25,35.7434,40.3964,157.575,102.241,104.196,0.00612636,0.13134,20.8727,8.43886,-0.170412,0.0,0.0
400,99.75,35.7921,40.5347,158.681,102.236,103.422,0.00618396,0.129864,20.8745,8.45888,-0.103749,0.0,0.0
402,100.25,35.9421,40.4106,162.016,102.247,103.48,0.00623609,0.128668,20.876,8.43886,-0.107802,0.0,0.0
404,100.75,35.9254,40.2027,161.355,102.233,104.839,0.00628325,0.127522,20.8773,8.37879,-0.226465,0.0,0.0
406,101.25,35.6079,40.2392,157.805,102.245,103.642,0.00632144,0.126433,20.8782,8.3888,-0.12217,0.0,0.0
408,101.75,35.5719,40.2719,156.345,102.25,103.623,0.00635718,0.125329,20.879,8.39882,-0.120024,0.0,0.0
410,102.25,35.2048,39.9724,159.58,102.258,103.464,0.00639044,0.124235,20.8801,8.33875,-0.105481,0.0,0.0
412,102.75,34.7572,39.6387,163.332,102.251,104.321,0.00641601,0.12309,20.881,8.35877,-0.18034,0.0,0.0
414,103.25,35.183,39.4945,156.723,102.265,103.845,0.00643549,0.121929,20.8826,8.37879,-0.137981,0.0,0.0
416,103.75,35.2274,39.6479,164.676,102.25,104.117,0.00643894,0.120989,20.8838,8.36878,-0.162784,0.0,0.0
418,104.25,35.2719,39.1973,157.776,102.28,103.935,0.00643064,0.11994,20.8853,8.34876,-0.144429,0.0,0.0
420,104.75,35.1518,39.483,159.879,102.258,104.158,0.00640749,0.11883,20.8865,8.34876,-0.165703,0.0,0.0
422,105.25,35.0263,39.3625,161.839,102.278,103.834,0.00637396,0.117732,20.8879,8.37879,-0.135856,0.0,0.0
424,105.75,35.0812,39.628,162.269,102.265,104.129,0.00634679,0.116664,20.889,8.39882,-0.162567,0.0,0.0
426,106.25,34.9136,39.2365,164.352,102.267,103.324,0.0062949,0.115798,20.8904,8.30872,-0.0925309,0.0,0.0
428,106.75,34.825,39.4898,156.903,102.256,103.794,0.00625287,0.114663,20.892,8.26868,-0.134389,0.0,0.0
430,107.25,35.177,39.4318,157.371,102.28,104.32,0.00620324,0.113744,20.8932,8.22864,-0.177629,0.0,0.0
432,107.75,35.075,39.281,157.731,102.266,103.802,0.00616304,0.112551,20.8942,8.23865,-0.134095,0.0,0.0
434,108.25,35.0352,39.1395,160.354,102.281,103.479,0.00613047,0.111585,20.895,8.24866,-0.104758,0.0,0.0
436,108.75,34.7918,39.3282,164.402,102.277,103.535,0.0061041,0.110523,20.8957,8.23865,-0.109922,0.0,0.0
438,109.25,34.6939,39.2755,164.015,102.279,103.77,0.00608273,0.109663,20.8962,8.22864,-0.130246,0.0,0.0
440,109.75,34.8213,38.7065,156.164,102.286,104.158,0.00606885,0.108799,20.8966,8.30872,-0.163148,0.0,0.0
442,110.25,34.6662,38.823,159.575,102.288,103.74,0.00606067,0.108099,20.8974,8.25867,-0.126834,0.0,0.0
444,110.75,34.098,38.754,160.515,102.278,103.725,0.0060602,0.107436,20.8981,8.24866,-0.126415,0.0,0.0
446,111.25,34.891,38.782,167.605,102.296,103.936,0.00606536,0.106814,20.899,8.31873,-0.143108,0.0,0.0
448,111.75,34.1409,38.683,161.336,102.282,103.611,0.00607433,0.106309,20.8998,8.22864,-0.116174,0.0,0.0
450,112.25,34.5707,38.4524,156.964,102.302,104.643,0.0060859,0.105673,20.9008,8.18859,-0.203529,0.0,0.0
452,112.75,34.2906,38.7946,161.214,102.291,104.294,0.00610074,0.104953,20.9017,8.18859,-0.174507,0.0,0.0
454,113.25,34.0218,38.515,161.157,102.302,103.703,0.00611769,0.10437,20.9024,8.21863,-0.122369,0.0,0.0
456,113.75,34.6023,38.1245,159.134,102.298,103.737,0.0061321,0.103437,20.903,8.20861,-0.125715,0.0,0.0
458,114.25,34.4324,38.2563,163.694,102.321,103.563,0.00614439,0.102682,20.9038,8.22864,-0.108553,0.0,0.0
460,114.75,34.4373,38.2701,160.891,102.304,104.549,0.00615434,0.101875,20.9046,8.21863,-0.195307,0.0,0.0
462,115.25,33.9544,38.2113,158.16,102.314,104.018,0.00615009,0.101222,20.9052,8.22864,-0.148655,0.0,0.0
464,115.75,33.1141,36.9826,160.738,102.307,103.502,0.00613557,0.100526,20.9056,8.1986,-0.104498,0.0,0.0
466,116.25,32.2199,36.9918,156.333,102.308,104.742,0.00611015,0.0999619,20.906,8.18859,-0.211568,0.0,0.0
468,116.75,32.3962,36.5323,155.426,102.299,103.569,0.00607725,0.0992408,20.9068,8.13854,-0.110976,0.0,0.0
470,117.25,32.8701,36.8636,162.977,102.32,103.96,0.00604445,0.0986567,20.9074,8.06847,-0.143077,0.0,0.0
472,117.75,32.6493,36.2496,163.693,102.306,104.724,0.00601235,0.0977666,20.9079,8.03844,-0.210231,0.0,0.0
474,118.25,32.6353,36.0166,156.448,102.316,104.224,0.00598635,0.0970457,20.9087,8.0985,-0.166259,0.0,0.0
476,118.75,32.6856,36.359,161.601,102.301,104.14,0.00596529,0.0963813,20.9094,8.07848,-0.160251,0.0,0.0
478,119.25,32.4103,36.621,162.719,102.316,104.092,0.0059729,0.0957707,20.9097,8.0985,-0.154919,0.0,0.0
480,119.75,32.3455,36.3302,168.477,102.303,104.023,0.00597906,0.0953493,20.9097,8.08849,-0.150018,0.0,0.0
482,120.25,32.2966,36.0944,162.661,102.321,103.711,0.00599822,0.0950738,20.9097,8.12853,-0.121436,0.0,0.0
484,120.75,32.0821,36.1876,162.71,102.306,103.798,0.00601373,0.0948506,20.9096,8.13854,-0.130237,0.0,0.0
486,121.25,32.1592,36.0906,163.166,102.322,104.428,0.00602357,0.0947721,20.9095,8.11852,-0.183362,0.0,0.0
488,121.75,31.993,35.9581,165.629,102.314,104.069,0.00602907,0.0948008,20.9094,8.07848,-0.153087,0.0,0.0
490,122.25,32.1966,36.0007,163.567,102.322,104.14,0.00603353,0.0948239,20.9093,8.11852,-0.15848,0.0,0.0
492,122.75,31.9492,35.3734,161.654,102.306,104.184,0.00602143,0.0948141,20.9093,8.10851,-0.163615,0.0,0.0
494,123.25,32.1494,35.9896,158.592,102.321,104.815,0.00599748,0.0948062,20.9093,8.13854,-0.216658,0.0,0.0
496,123.75,32.2886,35.7176,161.639,102.324,103.843,0.00596237,0.0947631,20.9092,8.11852,-0.132515,0.0,0.0
498,124.25,31.7459,35.6416,160.721,102.327,103.943,0.00591981,0.0946954,20.9092,8.14855,-0.141042,0.0,0.0
500,124.75,31.851,35.6024,163.007,102.317,103.928,0.00586827,0.0946405,20.9092,8.13854,-0.140626,0.0,0.0
502,125.25,32.152,36.0283,160.224,102.327,103.811,0.00581118,0.094471,20.9092,8.0985,-0.129589,0.0,0.0
504,125.75,32.2307,35.9685,158.183,102.33,104.116,0.00575266,0.0943337,20.9092,8.15856,-0.155763,0.0,0.0
506,126.25,31.959,35.6199,162.597,102.332,103.452,0.00569421,0.0941933,20.9091,8.13854,-0.0979189,0.0,0.0
508,126.75,31.5011,35.2792,157.754,102.313,103.56,0.00563461,0.0940532,20.9091,8.11852,-0.109074,0.0,0.0
510,127.25,31.9245,35.3759,160.098,102.338,103.545,0.00557529,0.0939105,20.9091,7.99839,-0.105508,0.0,0.0
512,127.75,31.843,35.506,164.128,102.32,103.46,0.00551975,0.0937686,20.9091,7.98838,-0.0997111,0.0,0.0
514,128.25,31.647,35.7215,157.369,102.321,104.082,0.00546803,0.0936026,20.9091,8.0084,-0.15358,0.0,0.0
516,128.75,31.5903,35.3486,155.487,102.315,103.997,0.00542613,0.093422,20.9091,8.04845,-0.146705,0.0,0.0
518,129.25,32.0052,35.6542,158.207,102.33,103.843,0.00539219,0.0932538,20.9091,7.93833,-0.132117,0.0,0.0
520,129.75,31.924,35.9944,163.553,102.317,103.718,0.00534659,0.0930978,20.9091,7.96836,-0.122427,0.0,0.0
522,130.25,31.7283,35.6976,163.709,102.325,103.582,0.00530965,0.0930154,20.9091,7.96836,-0.109896,0.0,0.0
524,130.75,31.7191,35.6176,156.657,102.322,103.537,0.00526552,0.092988,20.9091,8.0084,-0.106234,0.0,0.0
526,131.25,31.3944,35.5763,164.751,102.326,103.545,0.00522976,0.0929659,20.9091,8.04845,-0.106623,0.0,0.0
528,131.75,31.7472,35.3656,163.864,102.326,103.823,0.00519196,0.0930941,20.9091,7.97837,-0.130704,0.0,0.0
530,132.25,31.3705,35.5016,161.471,102.354,104.03,0.00515338,0.0933296,20.9091,7.93833,-0.146144,0.0,0.0
532,132.75,31.3593,35.3676,162.856,102.33,103.762,0.00511738,0.0935203,20.9091,7.94834,-0.125031,0.0,0.0
534,133.25,32.181,35.5835,155.303,102.321,103.863,0.00508393,0.0936821,20.9091,7.94834,-0.134599,0.0,0.0
536,133.75,31.5466,35.2857,155.642,102.332,103.922,0.00505343,0.0938197,20.9091,8.0084,-0.138804,0.0,0.0
538,134.25,32.191,35.589,159.101,102.337,104.643,0.00502568,0.0938874,20.9091,8.11852,-0.200511,0.0,0.0
540,134.75,32.0421,35.7375,164.177,102.338,103.634,0.00500319,0.0939027,20.9091,8.11852,-0.113254,0.0,0.0
542,135.25,31.8394,35.9747,159.1,102.342,104.188,0.00498498,0.093915,20.9091,8.0084,-0.160874,0.0,0.0
544,135.75,32.2874,35.7451,158.821,102.344,103.867,0.00497022,0.0938556,20.9091,7.96836,-0.132892,0.0,0.0
546,136.25,31.6294,35.9512,161.227,102.343,104.317,0.0049576,0.0938294,20.9091,7.98838,-0.171914,0.0,0.0
548,136.75,31.9484,35.6772,166.992,102.357,103.53,0.00494675,0.0938279,20.9091,7.96836,-0.102586,0.0,0.0
550,137.25,31.9227,35.8839,162.336,102.347,104.585,0.00492574,0.0938413,20.9091,7.89829,-0.194712,0.0,0.0
552,137.75,32.067,35.9154,161.85,102.356,104.171,0.00489771,0.0938654,20.9091,7.94834,-0.158142,0.0,0.0
554,138.25,31.59,36.0785,166.015,102.349,104.062,0.00485736,0.0938848,20.9091,7.88828,-0.149322,0.0,0.0
556,138.75,31.8307,35.5672,160.127,102.354,104.195,0.00480878,0.0939562,20.9091,7.88828,-0.160394,0.0,0.0
558,139.25,32.0433,35.418,158.916,102.341,104.057,0.00476943,0.094014,20.9091,7.9083,-0.149657,0.0,0.0
560,139.75,31.792,35.5423,165.029,102.347,103.741,0.00471306,0.09409,20.9091,7.93833,-0.121794,0.0,0.0
562,140.25,31.7965,35.4674,163.454,102.356,103.856,0.0046674,0.0941779,20.9091,7.89829,-0.130953,0.0,0.0
564,140.75,32.1737,35.6124,164.059,102.367,103.74,0.00463686,0.0942492,20.9091,7.86826,-0.119889,0.0,0.0
566,141.25,31.7025,35.5775,160.285,102.351,103.913,0.00461213,0.0943207,20.9091,7.83823,-0.136291,0.0,0.0
568,141.75,31.7425,35.1735,160.217,102.363,103.901,0.00459209,0.0943787,20.9091,7.85825,-0.134196,0.0,0.0
570,142.25,31.431,35.433,159.749,102.358,104.052,0.00461321,0.0943284,20.9091,7.88828,-0.147733,0.0,0.0
572,142.75,31.7313,35.4293,158.055,102.365,103.781,0.00466393,0.0942877,20.9099,7.9083,-0.123588,0.0,0.0
574,143.25,31.7779,35.3498,159.322,102.364,104.675,0.00470501,0.0942766,20.9106,7.86826,-0.200913,0.0,0.0
576,143.75,31.8318,35.0781,162.377,102.374,103.603,0.00477298,0.0942874,20.9112,7.85825,-0.107344,0.0,0.0
578,144.25,31.8256,35.4846,159.303,102.352,103.967,0.00485926,0.0942961,20.9116,7.86826,-0.140901,0.0,0.0
580,144.75,31.5152,35.6654,163.02,102.371,104.083,0.00493936,0.0943691,20.912,7.82822,-0.149279,0.0,0.0
582,145.25,31.4304,35.557,161.437,102.364,104.509,0.00501343,0.0944873,20.9118,7.8182,-0.18664,0.0,0.0
584,145.75,31.3551,35.1215,160.929,102.365,103.995,0.00507003,0.0945832,20.9117,7.74813,-0.142217,0.0,0.0
586,146.25,31.8724,35.15,158.646,102.36,103.853,0.0051128,0.0946469,20.9116,7.82822,-0.130314,0.0,0.0
588,146.75,31.1476,35.2028,162.597,102.36,104.138,0.00513588,0.0946985,20.9116,7.83823,-0.154988,0.0,0.0
590,147.25,32.1763,35.486,157.319,102.353,104.055,0.00514415,0.0947183,20.9115,7.84824,-0.148326,0.0,0.0
592,147.75,31.3311,35.5915,160.387,102.364,103.815,0.00513588,0.0947147,20.9115,7.86826,-0.126621,0.0,0.0
594,148.25,31.6768,35.81,161.883,102.362,103.699,0.00511571,0.0947044,20.9114,7.86826,-0.11674,0.0,0.0
596,148.75,31.7672,35.4337,160.361,102.374,103.783,0.00508918,0.0946895,20.9114,7.83823,-0.12303,0.0,0.0
598,149.25,31.4208,35.5384,158.792,102.355,104.091,0.0050585,0.0946774,20.9114,7.83823,-0.151361,0.0,0.0
600,149.75,31.8008,35.5601,160.072,102.372,104.035,0.00503365,0.0946676,20.9113,7.82822,-0.145007,0.0,0.0
602,150.25,31.5616,35.7117,161.527,102.355,103.992,0.00501353,0.0946597,20.9113,7.8182,-0.142788,0.0,0.0
604,150.75,32.2617,35.4589,158.245,102.37,103.419,0.00497011,0.0946533,20.9115,7.87827,-0.0917571,0.0,0.0
606,151.25,31.7799,35.6262,161.017,102.355,104.079,0.00493494,0.0946481,20.9119,7.89829,-0.150322,0.0,0.0
608,151.75,32.2428,35.8447,160.268,102.373,104.083,0.00489613,0.0947134,20.9122,7.84824,-0.149095,0.0,0.0
610,152.25,32.0353,36.3649,158.679,102.362,104.596,0.0048647,0.0947662,20.9125,7.8182,-0.194275,0.0,0.0
612,152.75,32.1722,36.2137,158.863,102.371,103.731,0.00483652,0.0948749,20.9127,7.83823,-0.118792,0.0,0.0
614,153.25,32.3535,36.2849,159.476,102.368,104.006,0.00481124,0.0950222,20.9128,7.78817,-0.142856,0.0,0.0
616,153.75,32.0518,36.1116,158.911,102.403,103.673,0.00479145,0.0951415,20.913,7.80819,-0.11095,0.0,0.0
618,154.25,31.7772,36.1019,163.492,102.361,103.549,0.00477603,0.0952937,20.9131,7.80819,-0.103802,0.0,0.0
620,154.75,31.6743,35.995,160.328,102.387,104.435,0.00476694,0.095417,20.9132,7.83823,-0.178262,0.0,0.0
622,155.25,32.313,35.9569,162.761,102.363,103.71,0.00476263,0.0954752,20.9132,7.83823,-0.117657,0.0,0.0
624,155.75,32.6311,36.4222,160.907,102.376,103.454,0.00475982,0.0955223,20.9133,7.82822,-0.0942543,0.0,0.0
626,156.25,32.0164,36.0181,162.976,102.363,104.257,0.00475815,0.0954654,20.9133,7.80819,-0.164946,0.0,0.0
628,156.75,31.9234,35.8713,162.927,102.372,103.943,0.00475681,0.0953337,20.9134,7.76815,-0.137021,0.0,0.0
630,157.25,32.243,36.1224,165.856,102.36,104.483,0.00475164,0.0951685,20.9134,7.74813,-0.184694,0.0,0.0
632,157.75,32.0778,36.118,159.988,102.377,103.546,0.00474378,0.0949821,20.9134,7.7181,-0.102176,0.0,0.0
634,158.25,32.4221,36.4536,163.604,102.374,103.736,0.00472724,0.0948091,20.9135,7.65804,-0.118865,0.0,0.0
636,158.75,32.0269,35.7676,158.234,102.384,103.767,0.00470467,0.0946493,20.9135,7.66805,-0.120678,0.0,0.0
638,159.25,32.0636,36.4591,164.578,102.375,103.902,0.00467553,0.0945198,20.9135,7.64803,-0.133171,0.0,0.0
640,159.75,32.2531,36.1296,162.836,102.381,103.793,0.00464216,0.094401,20.9135,7.63802,-0.123302,0.0,0.0
642,160.25,31.7873,35.9487,162.403,102.368,104.172,0.00460496,0.0943048,20.9135,7.74813,-0.157199,0.0,0.0
644,160.75,31.8095,35.6695,159.023,102.38,103.859,0.00456566,0.0943,20.9135,7.77816,-0.129083,0.0,0.0
646,161.25,31.4949,35.7444,158.57,102.36,103.846,0.0045257,0.0943619,20.9135,7.76815,-0.129648,0.0,0.0
648,161.75,31.8738,35.4756,161.335,102.374,103.826,0.00448601,0.0944267,20.9135,7.77816,-0.126769,0.0,0.0
650,162.25,31.2915,35.4668,162.806,102.355,103.679,0.00444709,0.0944924,20.9135,7.76815,-0.11565,0.0,0.0
652,162.75,31.6243,35.5555,160.991,102.379,103.798,0.00440946,0.0945602,20.9135,7.76815,-0.123891,0.0,0.0
654,163.25,31.3266,35.4733,162.371,102.366,104.52,0.00437898,0.0946282,20.9135,7.72811,-0.187311,0.0,0.0
656,163.75,31.7153,35.5111,162.612,102.392,103.736,0.00435429,0.0946834,20.9135,7.74813,-0.117324,0.0,0.0
658,164.25,31.1406,35.2805,162.652,102.374,104.884,0.00432657,0.0948393,20.9135,7.76815,-0.217935,0.0,0.0
660,164.75,31.9919,35.343,161.268,102.377,103.908,0.00430411,0.0949655,20.9135,7.74813,-0.133644,0.0,0.0
662,165.25,31.4677,35.104,157.672,102.382,104.101,0.00428593,0.0951651,20.9135,7.73812,-0.149815,0.0,0.0
664,165.75,31.2709,35.3203,162.793,102.392,104.447,0.00428278,0.0953267,20.9132,7.72811,-0.178773,0.0,0.0
666,166.25,31.9681,35.3508,157.98,102.389,104.19,0.00428023,0.095487,20.9127,7.73812,-0.156886,0.0,0.0
668,166.75,31.8687,35.3207,164.19,102.395,104.224,0.00427688,0.0956431,20.9119,7.74813,-0.159242,0.0,0.0
670,167.25,31.5053,35.4114,160.469,102.393,104.098,0.00427545,0.0957695,20.9115,7.74813,-0.148624,0.0,0.0
672,167.75,32.0283,35.5007,159.628,102.379,103.967,0.00425627,0.095872,20.9111,7.72811,-0.138577,0.0,0.0
674,168.25,31.8137,36.1909,160.106,102.392,104.154,0.00424074,0.0958298,20.911,7.65804,-0.153492,0.0,0.0
676,168.75,32.0309,36.2123,160.4,102.394,103.621,0.00419986,0.0957957,20.911,7.60798,-0.107187,0.0,0.0
678,169.25,32.2557,36.3315,155.764,102.397,104.42,0.00416674,0.09549,20.9109,7.73812,-0.176081,0.0,0.0
680,169.75,31.8054,36.1765,166.958,102.393,104.115,0.00411292,0.0952425,20.9108,7.77816,-0.150058,0.0,0.0
682,170.25,31.7612,36.5909,157.368,102.404,103.89,0.00406933,0.0950785,20.9108,7.67806,-0.12963,0.0,0.0
684,170.75,32.1248,36.2385,161.34,102.408,104.304,0.00403402,0.094798,20.9108,7.65804,-0.165034,0.0,0.0
686,171.25,32.2996,35.9945,154.038,102.41,104.306,0.00399,0.0946125,20.9107,7.69808,-0.165021,0.0,0.0
688,171.75,32.4062,36.0468,156.758,102.401,104.86,0.00395435,0.0944622,20.9107,7.70809,-0.213521,0.0,0.0
690,172.25,31.835,36.1116,164.367,102.413,103.849,0.00393026,0.0944377,20.9107,7.65804,-0.125308,0.0,0.0
692,172.75,31.7288,35.817,159.678,102.417,104.002,0.00391506,0.0944179,20.9107,7.63802,-0.138182,0.0,0.0
694,173.25,32.1187,35.9612,162.539,102.421,103.727,0.00390275,0.0944384,20.9107,7.68807,-0.114044,0.0,0.0
696,173.75,31.7278,35.6708,162.216,102.428,103.647,0.00390562,0.0944879,20.9108,7.68807,-0.106488,0.0,0.0
698,174.25,31.6529,36.3905,160.43,102.418,103.806,0.00391472,0.0945281,20.9109,7.69808,-0.121181,0.0,0.0
700,174.75,31.9325,36.0621,158.054,102.431,103.422,0.00392818,0.094539,20.911,7.65804,-0.0865992,0.0,0.0
702,175.25,31.9761,35.7833,161.335,102.435,103.852,0.00393908,0.0945286,20.9111,7.73812,-0.123587,0.0,0.0
704,175.75,32.0885,36.0661,157.458,102.421,104.4,0.00396077,0.0944616,20.9112,7.62801,-0.1722,0.0,0.0
706,176.25,31.4724,36.3563,163.4,102.432,103.822,0.00398307,0.0943547,20.9112,7.59797,-0.121239,0.0,0.0
708,176.75,32.1104,36.2483,161.601,102.435,104.067,0.00400541,0.0942681,20.9113,7.66805,-0.142203,0.0,0.0
710,177.25,32.066,36.1681,163.071,102.433,103.859,0.0040235,0.0941424,20.9113,7.64803,-0.124392,0.0,0.0
712,177.75,32.2159,35.8902,164.092,102.438,103.791,0.0040395,0.0940406,20.9113,7.64803,-0.118108,0.0,0.0
714,178.25,32.153,36.2577,159.407,102.446,103.969,0.00405369,0.093847,20.9118,7.618,-0.132768,0.0,0.0
716,178.75,32.229,36.1896,162.156,102.445,104.003,0.00406518,0.0936903,20.9122,7.59797,-0.135802,0.0,0.0
718,179.25,32.0544,35.8537,163.107,102.454,103.877,0.00405648,0.0934661,20.9125,7.58796,-0.124122,0.0,0.0
720,179.75,32.4125,35.8899,164.17,102.456,103.866,0.00404943,0.0932845,20.9127,7.60798,-0.122956,0.0,0.0
722,180.25,31.7847,35.8474,158.989,102.439,103.875,0.00401544,0.0931447,20.9129,7.55793,-0.125232,0.0,0.0
724,180.75,32.0527,36.1849,155.948,102.445,104.466,0.00398791,0.093038,20.9131,7.57795,-0.175854,0.0,0.0
726,181.25,31.9971,36.2255,162.336,102.46,103.521,0.00393992,0.0929517,20.9132,7.53791,-0.0927422,0.0,0.0
728,181.75,32.2546,35.9378,165.109,102.456,103.514,0.00390105,0.0929233,20.9133,7.54792,-0.0924057,0.0,0.0
730,182.25,31.7561,36.2191,162.541,102.474,104.524,0.00386483,0.0929004,20.9134,7.57795,-0.178274,0.0,0.0
732,182.75,32.0294,35.8393,161.372,102.463,104.097,0.00383124,0.0928402,20.9134,7.60798,-0.14237,0.0,0.0
734,183.25,32.1176,36.0726,159.363,102.468,104.157,0.00380802,0.0927914,20.9135,7.55793,-0.147133,0.0,0.0
736,183.75,31.7919,36.2398,161.184,102.473,103.743,0.00379282,0.0925714,20.9134,7.58796,-0.110839,0.0,0.0
738,184.25,32.1194,36.3397,158.638,102.49,103.906,0.0037805,0.0923932,20.9133,7.5279,-0.123512,0.0,0.0
740,184.75,32.1568,36.1252,162.436,102.477,103.756,0.00378201,0.0920824,20.9132,7.54792,-0.111668,0.0,0.0
742,185.25,32.0538,36.2878,158.076,102.494,103.709,0.00379358,0.0918307,20.9136,7.55793,-0.106057,0.0,0.0
744,185.75,31.9096,36.1698,162.658,102.487,104.006,0.00381175,0.0916268,20.9139,7.51789,-0.132395,0.0,0.0
746,186.25,31.6519,36.2023,164.845,102.502,104.046,0.00383438,0.0914885,20.9141,7.49787,-0.134551,0.0,0.0
748,186.75,32.6492,36.3746,159.898,102.481,103.755,0.00385744,0.0913766,20.9143,7.46784,-0.111173,0.0,0.0
750,187.25,31.9159,36.0065,164.896,102.502,103.919,0.00388038,0.0914392,20.9145,7.59797,-0.123484,0.0,0.0
752,187.75,31.9885,36.2558,160.518,102.499,104.013,0.00389897,0.0916281,20.9146,7.51789,-0.131938,0.0,0.0
754,188.25,32.2332,36.4291,160,102.504,103.541,0.00390861,0.0917956,20.9147,7.47785,-0.0905489,0.0,0.0
756,188.75,31.8467,36.0442,163.296,102.518,104.058,0.00391155,0.0919445,20.9147,7.59797,-0.134227,0.0,0.0
758,189.25,32.6663,35.8956,161.965,102.517,104.813,0.00391393,0.0920651,20.9144,7.60798,-0.1993,0.0,0.0
760,189.75,32.1519,36.0633,161.923,102.504,104.301,0.00390043,0.0920795,20.9143,7.59797,-0.156364,0.0,0.0
762,190.25,31.9013,35.9876,162.002,102.527,104.024,0.00389468,0.0920911,20.9142,7.57795,-0.13042,0.0,0.0
764,190.75,32.1015,36.1661,159.416,102.515,104.701,0.00386943,0.0921005,20.9141,7.57795,-0.189872,0.0,0.0
766,191.25,31.7933,36.153,155.017,102.525,104.132,0.00384898,0.0922887,20.914,7.56794,-0.139936,0.0,0.0
768,191.75,32.2972,36.0539,155.316,102.515,104.396,0.00383241,0.092441,20.9139,7.56794,-0.163625,0.0,0.0
770,192.25,32.047,36.266,163.938,102.534,104.63,0.00382156,0.0927172,20.9138,7.5279,-0.182027,0.0,0.0
772,192.75,31.8859,36.7319,162.477,102.511,104.301,0.00381277,0.0930287,20.9138,7.53791,-0.155774,0.0,0.0
774,193.25,31.9419,35.9351,158.958,102.538,103.969,0.00382492,0.0932031,20.9135,7.5279,-0.124744,0.0,0.0
776,193.75,32.2987,36.4194,162.659,102.52,104.692,0.00383476,0.0935012,20.9131,7.55793,-0.188665,0.0,0.0
778,194.25,31.9991,36.6319,165.221,102.536,103.455,0.00384544,0.0938158,20.9127,7.58796,-0.0803488,0.0,0.0
780,194.75,32.2687,36.2501,157.913,102.527,104.15,0.00385652,0.0941365,20.9124,7.618,-0.141357,0.0,0.0
782,195.25,31.845,36.3572,159.129,102.563,104.468,0.0038655,0.0943963,20.9122,7.54792,-0.165608,0.0,0.0
784,195.75,32.3311,36.8262,161.771,102.544,104.041,0.00386763,0.0945921,20.912,7.5279,-0.130427,0.0,0.0
786,196.25,32.7507,36.7259,159.759,102.557,104.694,0.00386604,0.0947375,20.9119,7.5279,-0.185573,0.0,0.0
788,196.75,32.117,36.1469,160.965,102.539,104.065,0.00386305,0.0948187,20.9118,7.51789,-0.13294,0.0,0.0
790,197.25,32.4143,36.5496,159.475,102.563,104.125,0.00385794,0.0948515,20.9117,7.51789,-0.136031,0.0,0.0
792,197.75,32.3971,36.6463,156.177,102.552,103.771,0.00383838,0.0948782,20.9116,7.47785,-0.106379,0.0,0.0
794,198.25,32.5938,36.5815,159.699,102.559,103.648,0.00382255,0.0946219,20.9115,7.48786,-0.0949649,0.0,0.0
796,198.75,32.6123,36.9834,154.743,102.552,104.045,0.00379418,0.0944142,20.9115,7.5279,-0.130042,0.0,0.0
798,199.25,31.9549,36.6193,160.511,102.572,104.549,0.00375721,0.0937981,20.9119,7.49787,-0.171762,0.0,0.0
800,199.75,32.3724,36.6712,159.224,102.55,104.226,0.00371242,0.0936324,20.9122,7.49787,-0.145906,0.0,0.0
802,200.25,32.1226,36.3939,159.937,102.568,105.046,0.00366277,0.0932935,20.9124,7.54792,-0.214823,0.0,0.0
804,200.75,32.4046,36.5099,160.078,102.566,103.772,0.00360838,0.0930189,20.9126,7.47785,-0.105172,0.0,0.0
806,201.25,32.5911,36.898,162.794,102.578,104.382,0.00355158,0.0928331,20.9128,7.51789,-0.156858,0.0,0.0
808,201.75,32.3608,36.6042,158.909,102.565,104.372,0.00349748,0.0927154,20.913,7.5279,-0.157195,0.0,0.0
810,202.25,32.2989,36.5306,162.767,102.572,104.478,0.00344637,0.0925836,20.9131,7.53791,-0.165601,0.0,0.0
812,202.75,32.3219,36.3213,160.52,102.559,104.044,0.00340498,0.092444,20.9132,7.49787,-0.129408,0.0,0.0
814,203.25,32.4077,36.7753,161.267,102.588,103.599,0.00337145,0.0922943,20.9135,7.45783,-0.0882293,0.0,0.0
816,203.75,32.816,36.6652,164.191,102.578,103.491,0.00334429,0.0921402,20.9139,7.40777,-0.0797411,0.0,0.0
818,204.25,32.2737,36.3288,156.796,102.591,104.183,0.00333126,0.0920155,20.9143,7.37774,-0.138582,0.0,0.0
820,204.75,32.1083,37.0253,160.414,102.599,104.42,0.0033207,0.091734,20.9146,7.36773,-0.158288,0.0,0.0
822,205.25,32.1063,36.7373,160.983,102.6,104.293,0.00331215,0.0915061,20.9148,7.41778,-0.147261,0.0,0.0
824,205.75,31.9358,36.7128,163.266,102.599,104.865,0.00330523,0.0911966,20.9154,7.4278,-0.196541,0.0,0.0
826,206.25,32.3699,36.4754,164.245,102.606,105.336,0.00331884,0.0909459,20.916,7.44782,-0.236267,0.0,0.0
828,206.75,31.7548,36.627,163.643,102.61,104.054,0.00332987,0.0906772,20.9164,7.38775,-0.125732,0.0,0.0
830,207.25,32.251,36.0467,158.726,102.616,104.365,0.00332983,0.0904005,20.9167,7.40777,-0.152034,0.0,0.0
832,207.75,32.0938,36.1854,158.965,102.615,104.289,0.0033298,0.0901763,20.917,7.43781,-0.145616,0.0,0.0
834,208.25,32.2337,36.4745,160.832,102.625,104.119,0.00330927,0.0900086,20.9172,7.43781,-0.130084,0.0,0.0
836,208.75,32.0714,36.2199,160.639,102.621,104.631,0.00329265,0.0898728,20.9174,7.44782,-0.174533,0.0,0.0
838,209.25,32.104,36.4578,161.575,102.619,104.063,0.00326125,0.0897189,20.9175,7.44782,-0.12573,0.0,0.0
840,209.75,32.6449,36.6431,160.203,102.622,103.789,0.00323582,0.089555,20.9176,7.4278,-0.101679,0.0,0.0
842,210.25,32.2178,36.8919,158.456,102.602,105.314,0.00321522,0.0893784,20.9177,7.37774,-0.234729,0.0,0.0
844,210.75,32.0669,36.4151,161.708,102.62,104.105,0.00320622,0.089196,20.9178,7.39776,-0.129279,0.0,0.0
846,211.25,32.3619,36.8391,160.672,102.621,104.858,0.00319893,0.0890847,20.918,7.37774,-0.194049,0.0,0.0
848,211.75,32.0214,37.0349,158.288,102.621,104.35,0.00321608,0.0890273,20.9184,7.39776,-0.150296,0.0,0.0
850,212.25,32.1575,36.2266,159.406,102.619,104.468,0.00322997,0.0890101,20.9186,7.40777,-0.160749,0.0,0.0
852,212.75,32.5844,36.6712,160.432,102.626,104.394,0.00324122,0.0890224,20.9188,7.35772,-0.153654,0.0,0.0
854,213.25,32.8079,36.7352,159.121,102.624,104.645,0.00328751,0.0890323,20.919,7.38775,-0.175524,0.0,0.0
856,213.75,32.3602,36.4134,165.021,102.643,104.645,0.003325,0.0890404,20.9192,7.37774,-0.173823,0.0,0.0
858,214.25,32.246,36.3027,163.529,102.646,104.397,0.00336556,0.0889222,20.9193,7.37774,-0.15223,0.0,0.0
860,214.75,32.0614,36.2566,160.785,102.637,104.162,0.00340757,0.0888264,20.9194,7.43781,-0.13278,0.0,0.0
862,215.25,31.901,36.2423,160.695,102.629,104.23,0.00344161,0.0886687,20.9195,7.4278,-0.139263,0.0,0.0
864,215.75,31.7245,36.101,161.094,102.637,104.312,0.00347559,0.0884687,20.9197,7.36773,-0.145671,0.0,0.0
866,216.25,31.8106,35.791,160.815,102.636,103.924,0.00350312,0.0883067,20.9199,7.36773,-0.11219,0.0,0.0
868,216.75,31.9464,35.5905,160.226,102.64,104.745,0.00351731,0.088176,20.92,7.41778,-0.182682,0.0,0.0
870,217.25,31.866,35.5553,164.817,102.632,103.823,0.00352151,0.0880704,20.9202,7.43781,-0.103836,0.0,0.0
872,217.75,31.9773,35.4144,160.277,102.652,104.454,0.00348517,0.0880068,20.9202,7.40777,-0.156556,0.0,0.0
874,218.25,31.8207,35.7727,160.035,102.624,104.141,0.00345573,0.0879749,20.9203,7.3377,-0.132039,0.0,0.0
876,218.75,31.6539,36.1254,161.235,102.657,103.968,0.0033909,0.0879491,20.9204,7.29766,-0.114166,0.0,0.0
878,219.25,32.0101,36.0335,160.739,102.643,103.636,0.00333838,0.0877343,20.9204,7.32769,-0.086643,0.0,0.0
880,219.75,32.4844,35.9679,159.479,102.64,104.218,0.00329585,0.0875603,20.9209,7.41778,-0.137358,0.0,0.0
882,220.25,31.8298,36.2255,160.413,102.646,104.238,0.00321533,0.0872671,20.9213,7.44782,-0.1385,0.0,0.0
884,220.75,31.8858,35.8061,161.566,102.646,104.003,0.00315012,0.0870296,20.9216,7.40777,-0.118173,0.0,0.0
886,221.25,32.274,36.2827,162.939,102.639,104.111,0.00308068,0.0868372,20.9218,7.34771,-0.128124,0.0,0.0
888,221.75,32.0245,36.1647,160.637,102.654,104.004,0.00302443,0.0866814,20.9221,7.36773,-0.117601,0.0,0.0
890,222.25,31.9632,35.9283,158.102,102.638,104.163,0.00296609,0.0865551,20.9222,7.37774,-0.132723,0.0,0.0
892,222.75,31.9928,36.0057,159.084,102.662,103.928,0.00291884,0.0864529,20.9224,7.31768,-0.11026,0.0,0.0
894,223.25,31.7678,36.1742,158.852,102.661,103.909,0.00286906,0.0863701,20.9225,7.31768,-0.108726,0.0,0.0
896,223.75,32.2227,36.3246,163.507,102.675,104.162,,0.0860401,,7.27764,-0.129396,0.0,0.0
898,224.25,32.07,35.9507,160.891,102.647,103.909,,0.0857728,,7.25762,-0.109932,0.0,0.0
900,224.75,32.5386,35.821,159.592,102.656,104.472,,0.0852797,,7.18754,-0.157788,0.0,0.0
902,225.25,31.8643,35.9706,163.166,102.661,104.169,,0.0848803,,7.25762,-0.131266,0.0,0.0
904,225.75,31.7657,36.0252,159.998,102.659,104.009,,0.0844462,,7.34771,-0.117645,0.0,0.0
906,226.25,32.2685,35.7047,160.697,102.646,103.918,,0.0840946,,7.30767,-0.110887,0.0,0.0
908,226.75,32.0324,35.5068,161.549,102.664,104.309,,,,7.32769,-0.142974,0.0,0.0
910,227.25,32.0436,35.8957,158.837,102.672,104.508,,,,7.3377,-0.159508,0.0,0.0
912,227.75,32.1637,35.6826,163.338,102.674,104.488,,,,7.28765,-0.157583,0.0,0.0
914,228.25,31.8952,35.7869,158.727,102.662,104.296,,,,7.31768,-0.142121,0.0,0.0
916,228.75,31.761,35.5574,159.016,102.688,104.595,,,,7.30767,-0.165571,0.0,0.0
918,229.25,31.8147,35.6768,163.328,102.677,104.114,,,,7.25762,-0.125001,0.0,0.0
920,229.75,32.4383,35.8694,159.25,102.67,104.416,,,,7.35772,-0.151713,0.0,0.0
922,230.25,31.9777,35.6998,160.998,102.669,103.869,,,,7.25762,-0.104606,0.0,0.0
924,230.75,31.8947,36.1222,156.055,102.687,104.411,,,,7.2376,-0.149795,0.0,0.0
926,231.25,32.0841,36.0427,160.408,102.681,103.815,,,,7.25762,-0.0988141,0.0,0.0
928,231.75,32.3738,35.8666,163.993,102.678,104.064,,,,7.27764,-0.120625,0.0,0.0
930,232.25,31.9231,36.107,161.261,102.679,104.221,,,,7.2376,-0.134162,0.0,0.0
932,232.75,32.0965,35.9456,160.559,102.692,104.519,,,,7.30767,-0.158607,0.0,0.0
934,233.25,32.0393,36.5001,158.382,102.685,104.204,,,,7.27764,-0.132178,0.0,0.0
936,233.75,32.1513,36.2475,157.483,102.692,104.433,,,,7.24761,-0.151276,0.0,0.0
938,234.25,31.8111,35.7931,162.795,102.691,104.1,,,,7.20756,-0.122659,0.0,0.0
939,234.5,31.97,36.1778,160.694,102.704,103.771,,,,7.19755,-0.0930154,0.0,0.0