File: 01_Data/Cotton_Raw/Cone/Cotton_Raw_Cone_HF50-Frame+GridScan_200909_R1.csv
Names,Time,Stack TC,Smoke TC,Exh Press,Smoke Comp,Smoke Meas,CO Meter,CO2 Meter,O2 Meter,Sample Mass,Ext Coeff,Start Test,Flame Verif
Chan Gain,,500,500,1,1,1,1,1,1,1,1,1.0,1.0
Offset,,0,0,0.136754,0,0,0,0,0,0,0,0.0,0.0
Gain,,1,1,25.011,13.7501,16.9893,1,1,1,1.00105,1.02582,1.0,1.0
Units,sec,C,C,Pa,%,%,%,%,%,g,/m,,
Baseline,,28.8312,32.1356,164.836,102.127,103.221,-7.6491e-06,0.0540683,20.9606,-900.542,-0.0958699,,
2,0.25,28.7039,31.6654,165.125,102.214,103.061,0.000222239,0.0581077,20.9558,17.6786,-0.0742542,0.0,0.0
4,0.75,28.6507,31.8866,165.789,102.238,103.213,0.000321197,0.0617637,20.9492,17.7386,-0.0854025,0.0,0.0
6,1.25,27.3942,30.5805,159.43,102.232,102.878,0.000401354,0.0675067,20.9439,17.6685,-0.0566719,0.0,0.0
8,1.75,27.2575,30.2293,167.577,102.243,101.562,0.000508266,0.0778543,20.9396,17.6185,0.0601641,0.0,0.0
10,2.25,27.6045,30.592,156.051,102.23,102.624,0.000632652,0.0913619,20.9241,17.5184,-0.0346082,0.0,0.0
12,2.75,27.373,30.6374,152.292,102.238,104.558,0.000733404,0.102303,20.9116,17.4984,-0.201871,0.0,1.0
14,3.25,27.4544,31.4953,155.39,102.224,104.365,0.000853062,0.1212,20.8966,17.5384,-0.186467,0.0,1.0
16,3.75,28.1839,32.4585,154.744,102.234,104.506,0.000949984,0.136506,20.8801,17.5384,-0.197814,0.0,1.0
18,4.25,29.1002,33.4735,156.483,102.223,104.011,0.00105642,0.151864,20.8661,17.3782,-0.155994,0.0,1.0
20,4.75,29.6525,34.5092,153.66,102.225,105.586,0.00114263,0.164303,20.8541,17.3782,-0.291021,0.0,1.0
22,5.25,30.0152,35.2431,158.452,102.223,104.459,0.00122643,0.17438,20.8444,17.3582,-0.194674,0.0,1.0
24,5.75,30.4548,35.8713,159.621,102.207,105.153,0.00129431,0.181443,20.8365,17.3182,-0.255683,0.0,1.0
26,6.25,31.2332,36.8047,154.872,102.193,104.024,0.0013531,0.187164,20.8297,17.2881,-0.15982,0.0,1.0
28,6.75,32.2206,37.0269,155.575,102.206,104.423,0.00140072,0.190719,20.8238,17.2281,-0.193106,0.0,1.0
30,7.25,31.9833,37.9661,154.085,102.193,103.916,0.00144311,0.193598,20.819,17.2081,-0.150486,0.0,1.0
32,7.75,32.1612,38.5461,157.249,102.187,104.162,0.00147744,0.19537,20.8151,17.188,-0.17226,0.0,1.0
34,8.25,30.865,37.362,154.185,102.165,104.136,0.00150525,0.196805,20.8119,17.148,-0.171904,0.0,1.0
36,8.75,30.8989,38.1912,157.025,102.166,103.853,0.00153667,0.198424,20.8093,17.108,-0.14738,0.0,0.0
38,9.25,31.8252,37.4519,164.696,102.136,104.315,0.00156212,0.199736,20.8073,17.0679,-0.189972,0.0,0.0
40,9.75,31.1253,38.4386,154.628,102.131,103.807,0.00158274,0.202204,20.8056,17.0179,-0.146442,0.0,0.0
42,10.25,31.7358,38.3883,156.446,102.123,104.234,0.00159743,0.204203,20.8042,16.9678,-0.184064,0.0,0.0
44,10.75,32.1657,38.7162,158.271,102.124,103.818,0.00160752,0.206863,20.8024,16.9578,-0.148059,0.0,0.0
46,11.25,31.9071,39.105,161.716,102.105,104.519,0.00160767,0.209956,20.801,16.9077,-0.210276,0.0,0.0
48,11.75,32.6003,39.456,161.049,102.117,103.836,0.00160057,0.21246,20.7985,16.8777,-0.150223,0.0,0.0
50,12.25,32.5885,40.0257,155.826,102.09,104.564,0.00159482,0.214489,20.7965,16.8176,-0.215526,0.0,0.0
52,12.75,32.8775,40.2515,149.806,102.113,104.352,0.00157239,0.219162,20.7922,16.8176,-0.195107,0.0,0.0
54,13.25,33.6671,40.812,158.349,102.079,104.203,0.00155422,0.222947,20.7888,16.7476,-0.18538,0.0,0.0
56,13.75,33.5203,40.9617,153.381,102.064,102.954,0.00153315,0.226561,20.7851,16.7075,-0.0781211,0.0,0.0
58,14.25,33.2645,41.6358,164.819,102.048,103.863,0.00151608,0.229982,20.7813,16.6475,-0.158655,0.0,0.0
60,14.75,33.8618,41.8154,155.31,102.058,104.049,0.00149845,0.23296,20.7779,16.6375,-0.173848,0.0,0.0
62,15.25,33.7039,42.0123,158.067,102.025,103.49,0.00148417,0.235559,20.775,16.5874,-0.128298,0.0,0.0
64,15.75,34.1945,42.1413,158.395,102.027,104.721,0.0014726,0.237664,20.7727,16.5374,-0.234511,0.0,0.0
66,16.25,34.4708,42.7089,156.787,102.019,103.947,0.00145054,0.239536,20.7708,16.5073,-0.168445,0.0,0.0
68,16.75,34.2795,43.3507,155.116,102.016,103.809,0.00143267,0.241052,20.7692,16.4673,-0.156758,0.0,0.0
70,17.25,34.4537,43.5635,154.783,101.988,104.374,0.00140678,0.241992,20.768,16.4373,-0.20813,0.0,0.0
72,17.75,34.6244,43.5809,156.33,101.981,103.395,0.00138581,0.242754,20.767,16.3872,-0.123894,0.0,0.0
74,18.25,35.148,43.3767,153.511,101.967,103.481,0.00135748,0.243044,20.7664,16.3371,-0.132604,0.0,0.0
76,18.75,35.357,43.6346,155.718,101.958,103.663,0.00132432,0.242986,20.7661,16.3071,-0.149184,0.0,0.0
78,19.25,35.1841,43.9664,162.163,101.942,103.178,0.00127084,0.242938,20.7659,16.0969,-0.108413,0.0,0.0
80,19.75,35.5177,44.5147,155.835,101.943,104.078,0.00122753,0.242206,20.7662,16.3071,-0.186503,0.0,0.0
82,20.25,35.0266,44.4637,161.081,101.918,103.93,0.00118178,0.241612,20.7664,16.187,-0.175933,0.0,0.0
84,20.75,35.2604,44.5586,159.15,101.913,103.205,0.00113513,0.240641,20.7678,16.1069,-0.113365,0.0,0.0
86,21.25,34.9076,44.7183,155.24,101.9,103.995,0.00109734,0.239411,20.769,16.0669,-0.183099,0.0,0.0
88,21.75,36.2249,44.5587,149.111,101.913,103.872,0.00105407,0.237974,20.7709,15.8967,-0.171312,0.0,0.0
90,22.25,35.9754,44.5345,158.634,101.883,103.674,0.00101902,0.236411,20.7724,15.9167,-0.156843,0.0,0.0
92,22.75,35.9202,44.7816,159.899,101.881,103.456,0.000990628,0.234916,20.7736,15.9968,-0.138034,0.0,0.0
94,23.25,36.1644,44.6357,156.584,101.88,104.456,0.000963836,0.2335,20.7748,15.9567,-0.224672,0.0,0.0
96,23.75,36.1756,44.7749,154.53,101.872,104.115,0.000942134,0.232353,20.776,15.9768,-0.196021,0.0,0.0
98,24.25,35.65,44.3543,158.802,101.85,104.199,0.000922025,0.230841,20.7774,15.9167,-0.205205,0.0,0.0
100,24.75,35.7063,44.3955,153.343,101.863,103.389,0.000905737,0.229616,20.7789,15.8566,-0.133763,0.0,0.0
102,25.25,35.9701,44.483,159.11,101.846,103.226,0.000893209,0.228232,20.7802,15.7866,-0.121057,0.0,0.0
104,25.75,36.1513,44.352,159.645,101.904,103.748,0.000883661,0.226757,20.7812,15.7966,-0.161423,0.0,0.0
106,26.25,35.9804,44.2128,157.006,101.949,104.278,0.00088792,0.225562,20.7821,15.8166,-0.2033,0.0,0.0
108,26.75,35.7186,44.2303,159.99,102.016,103.582,0.000902163,0.223746,20.784,15.8266,-0.137097,0.0,0.0
110,27.25,35.5918,43.9677,153.952,102.077,103.923,0.000926367,0.222276,20.7856,15.7966,-0.161282,0.0,0.0
112,27.75,35.2161,43.7586,162.755,102.143,103.932,0.000957373,0.220967,20.7874,15.7966,-0.156276,0.0,0.0
114,28.25,35.4973,44.2491,159.382,102.191,104.641,0.000982488,0.219802,20.7888,15.7265,-0.213189,0.0,0.0
116,28.75,35.3463,43.8553,161.038,102.248,104.092,0.00102184,0.218741,20.7899,15.7365,-0.160862,0.0,0.0
118,29.25,35.66,43.7838,159.253,102.291,104.223,0.00105372,0.217776,20.7908,15.6765,-0.168302,0.0,0.0
120,29.75,35.5943,43.8662,156.736,102.346,104.853,0.00108288,0.216994,20.7916,15.6464,-0.217693,0.0,0.0
122,30.25,35.755,44.066,161.952,102.387,104.663,0.0011095,0.215724,20.7931,15.6164,-0.197815,0.0,0.0
124,30.75,35.8503,43.9596,154.471,102.428,104.172,0.00113106,0.214695,20.7943,15.6064,-0.151926,0.0,0.0
126,31.25,36.2288,43.4807,159.178,102.458,104.462,0.00114599,0.213122,20.7957,15.5563,-0.174309,0.0,0.0
128,31.75,35.8901,43.9215,151.996,102.502,104.488,0.00115808,0.211848,20.7973,15.5363,-0.172681,0.0,0.0
130,32.25,35.9178,43.6124,160.318,102.53,104.318,0.00117295,0.210513,20.7985,15.4762,-0.155593,0.0,0.0
132,32.75,36.0901,44.3477,155.594,102.553,104.128,0.00118499,0.209159,20.7998,15.4762,-0.137103,0.0,0.0
134,33.25,36.072,44.3121,157.88,102.591,104.82,0.00119474,0.208063,20.801,15.4462,-0.19345,0.0,0.0
136,33.75,35.9202,43.7446,156.208,102.614,104.974,0.00120799,0.206821,20.802,15.4262,-0.204591,0.0,0.0
138,34.25,35.7952,44.1147,158.621,102.635,105.025,0.00122352,0.205815,20.8039,15.3861,-0.207187,0.0,0.0
140,34.75,36.154,43.3081,156.892,102.653,105.029,0.00123676,0.204603,20.8055,15.3161,-0.205961,0.0,0.0
142,35.25,36.2332,43.8174,156.244,102.675,104.837,0.0012481,0.203621,20.8067,15.3061,-0.187561,0.0,0.0
144,35.75,35.7939,43.9917,155.977,102.685,105.289,0.00125727,0.202826,20.8078,15.246,-0.225312,0.0,0.0
146,36.25,35.8805,43.7529,163.903,102.721,104.513,0.00126471,0.202097,20.809,15.206,-0.155579,0.0,0.0
148,36.75,35.7937,43.729,156.238,102.729,104.49,0.00127073,0.201429,20.81,15.206,-0.152945,0.0,0.0
150,37.25,35.481,43.4856,158.812,102.729,104.83,0.00127895,0.200781,20.8109,15.266,-0.182232,0.0,0.0
152,37.75,35.3182,43.5179,160.13,102.734,104.588,0.00128861,0.200158,20.8115,15.226,-0.160902,0.0,0.0
154,38.25,35.4267,43.1697,161.976,102.741,105.053,0.00129977,0.199653,20.8121,15.1259,-0.200239,0.0,0.0
156,38.75,35.6398,43.5422,160.536,102.732,104.694,0.00131182,0.198936,20.8125,15.1159,-0.170262,0.0,0.0
158,39.25,35.6267,43.1971,160.931,102.738,105.203,0.00132158,0.198355,20.8129,15.0958,-0.213366,0.0,0.0
160,39.75,35.9352,43.3039,152.74,102.738,104.311,0.00133836,0.197985,20.8132,15.0758,-0.136764,0.0,0.0
162,40.25,35.5973,43.1725,164.994,102.725,104.575,0.00135196,0.197776,20.8134,15.0358,-0.160603,0.0,0.0
164,40.75,35.6283,43.242,155.877,102.722,104.198,0.00136678,0.197606,20.8138,14.9757,-0.12836,0.0,0.0
166,41.25,35.3144,43.4175,152.897,102.713,104.877,0.00137879,0.19741,20.8144,14.9257,-0.187641,0.0,0.0
168,41.75,35.7779,43.2609,156.309,102.695,105.087,0.00138785,0.197251,20.815,14.8155,-0.207213,0.0,0.0
170,42.25,35.4726,43.0828,158.173,102.682,104.489,0.00139458,0.19658,20.8158,14.8055,-0.156981,0.0,0.0
172,42.75,36.0073,43.5975,157.807,102.661,105.042,0.00139798,0.196036,20.8164,14.8656,-0.206336,0.0,0.0
174,43.25,35.5374,43.2099,157.415,102.651,105.136,0.00139888,0.195127,20.8167,14.7655,-0.215291,0.0,0.0
176,43.75,35.7027,43.8075,159.931,102.622,104.386,0.00139961,0.194391,20.817,14.7355,-0.153396,0.0,0.0
178,44.25,35.4331,43.159,159.577,102.61,103.81,0.00140087,0.193677,20.8172,14.6554,-0.104671,0.0,0.0
180,44.75,35.8625,43.1992,158.331,102.58,104.843,0.00140249,0.193099,20.8178,14.7355,-0.196329,0.0,0.0
182,45.25,35.9217,42.6977,154.987,102.563,104.968,0.00140714,0.192646,20.8183,14.6754,-0.208593,0.0,0.0
184,45.75,35.5581,42.7852,159.354,102.513,104.573,0.00141392,0.192292,20.8187,14.7154,-0.178998,0.0,0.0
186,46.25,35.6154,42.9732,163.713,102.509,104.562,0.00142141,0.192005,20.819,14.6954,-0.17843,0.0,0.0
188,46.75,35.6373,42.5359,160.507,102.45,104.728,0.00142928,0.191436,20.8193,14.6253,-0.197819,0.0,0.0
190,47.25,35.6942,42.9158,158.8,102.435,104.494,0.00143566,0.190976,20.8195,14.5853,-0.179032,0.0,0.0
192,47.75,35.6038,42.4949,164.731,102.377,104.209,0.00144082,0.190603,20.8201,14.6053,-0.159603,0.0,0.0
194,48.25,35.5337,42.5999,159.134,102.332,104.194,0.00144501,0.189833,20.8206,14.5753,-0.162297,0.0,0.0
196,48.75,35.3737,42.9968,159.682,102.286,103.962,0.00145347,0.18921,20.821,14.5252,-0.146238,0.0,0.0
198,49.25,35.9369,42.4416,157.816,102.256,104.332,0.00146033,0.188618,20.8213,14.5052,-0.180925,0.0,0.0
200,49.75,35.5737,42.7738,163.928,102.199,103.802,0.00147986,0.188138,20.8216,14.4752,-0.139968,0.0,0.0
202,50.25,35.4779,42.7936,157.372,102.149,105.044,0.00149567,0.188027,20.8218,14.4752,-0.251453,0.0,0.0
204,50.75,35.5367,42.6267,157.889,102.101,104.536,0.00150848,0.187936,20.822,14.4151,-0.212036,0.0,0.0
206,51.25,35.8812,42.4625,161.635,102.071,105.11,0.0015341,0.18817,20.8221,14.4051,-0.263932,0.0,0.0
208,51.75,35.5437,42.4907,161.809,102.068,103.889,0.00155486,0.188359,20.8222,14.3851,-0.159125,0.0,0.0
210,52.25,35.1033,42.6535,157.957,102.076,104.256,0.001573,0.188381,20.8221,14.3851,-0.190123,0.0,0.0
212,52.75,35.6604,42.2487,158.238,102.103,104.157,0.00158891,0.188399,20.8218,14.3851,-0.179249,0.0,0.0
214,53.25,35.6034,42.3397,163.344,102.112,104.367,0.00160184,0.188298,20.8216,14.3751,-0.196595,0.0,0.0
216,53.75,35.587,42.5441,159.701,102.11,103.777,0.00161237,0.188112,20.8215,14.285,-0.145683,0.0,0.0
218,54.25,35.5562,42.7044,158.05,102.144,104.029,0.00161755,0.187962,20.8215,14.275,-0.164592,0.0,0.0
220,54.75,36.099,42.5731,160.657,102.142,103.782,0.00161874,0.188059,20.8215,14.2049,-0.143367,0.0,0.0
222,55.25,35.6679,42.307,156.496,102.168,103.88,0.0016197,0.188138,20.8214,14.1649,-0.149531,0.0,0.0
224,55.75,35.4316,42.5461,163.749,102.189,104.795,0.0016154,0.188241,20.8214,14.1649,-0.226635,0.0,0.0
226,56.25,35.4792,42.3744,153.705,102.201,103.741,0.00161192,0.18836,20.8214,14.1148,-0.13456,0.0,0.0
228,56.75,35.6637,42.3833,157.265,102.211,103.957,0.00160909,0.188494,20.8214,14.0948,-0.152362,0.0,0.0
230,57.25,35.9148,42.1633,157.638,102.246,103.525,0.00161283,0.188638,20.8213,14.0548,-0.111917,0.0,0.0
232,57.75,35.3603,42.5989,156.925,102.256,104.419,0.00162126,0.188754,20.8213,14.0548,-0.188346,0.0,0.0
234,58.25,35.4579,42.2563,162.742,102.299,103.982,0.0016281,0.18879,20.8213,14.1749,-0.146807,0.0,0.0
236,58.75,35.4085,42.6352,157.958,102.293,103.785,0.00164568,0.188819,20.8213,14.1248,-0.130257,0.0,0.0
238,59.25,35.3522,42.1588,160.108,102.323,104.149,0.00167076,0.188842,20.8213,14.0548,-0.15922,0.0,0.0
240,59.75,35.4164,42.2629,161.262,102.331,104.096,0.00169509,0.188723,20.8213,13.9546,-0.153867,0.0,0.0
242,60.25,35.4094,42.9536,160.814,102.37,104.122,0.00171841,0.188502,20.8209,13.8846,-0.152713,0.0,0.0
244,60.75,35.2591,42.5241,159.974,102.379,104.558,0.00173596,0.188322,20.8205,13.8445,-0.18947,0.0,0.0
246,61.25,35.6459,42.4969,157.44,102.412,104.667,0.00174897,0.188425,20.8202,13.8045,-0.196004,0.0,0.0
248,61.75,35.6516,42.3013,164.521,102.418,104,0.00175683,0.188509,20.82,13.8345,-0.137929,0.0,0.0
250,62.25,35.4274,42.4274,155.34,102.447,104.676,0.00176079,0.188669,20.8202,13.8045,-0.193739,0.0,0.0
252,62.75,35.6184,42.6023,158.379,102.453,105.229,0.001764,0.188882,20.8204,13.7845,-0.240617,0.0,0.0
254,63.25,35.9549,42.2824,157.494,102.478,104.344,0.00177295,0.188946,20.8206,13.8245,-0.162441,0.0,0.0
256,63.75,36.1244,42.4167,156.304,102.497,104.749,0.00178021,0.188902,20.8207,13.7745,-0.195518,0.0,0.0
258,64.25,35.9632,42.4219,154.452,102.52,104.443,0.00180008,0.188597,20.8211,13.7745,-0.167256,0.0,0.0
260,64.75,35.8795,42.8931,155.224,102.538,104.39,0.00181617,0.188107,20.8215,13.7344,-0.161063,0.0,0.0
262,65.25,35.7342,42.4984,155.084,102.567,104.661,0.0018292,0.187711,20.8219,13.6844,-0.181874,0.0,0.0
264,65.75,35.2157,42.7866,159.921,102.565,104.081,0.00188559,0.187026,20.8222,13.6844,-0.131957,0.0,0.0
266,66.25,35.6403,42.6419,161.711,102.593,104.089,0.00193127,0.18647,20.8225,13.6744,-0.130208,0.0,0.0
268,66.75,35.6836,42.9547,165.215,102.609,104.28,0.0020167,0.18589,20.8227,13.7344,-0.14537,0.0,0.0
270,67.25,35.8723,42.5459,160.185,102.652,104.482,0.0020859,0.185419,20.8229,13.6844,-0.159049,0.0,0.0
272,67.75,35.7133,42.427,153.632,102.646,105.594,0.00216142,0.184762,20.823,13.5943,-0.254757,0.0,0.0
274,68.25,35.7364,42.7777,155.227,102.679,104.233,0.00224013,0.183982,20.824,13.5843,-0.135162,0.0,0.0
276,68.75,35.6225,42.465,156.094,102.682,104.41,0.002318,0.18335,20.8248,13.5742,-0.150184,0.0,0.0
278,69.25,35.9979,42.5919,154.743,102.71,104.235,0.00239377,0.182039,20.8259,13.5442,-0.132613,0.0,0.0
280,69.75,35.7192,42.6279,157.136,102.724,103.742,0.00246793,0.180977,20.8267,13.5042,-0.0887336,0.0,0.0
282,70.25,36.0199,42.9785,158.247,102.726,104.219,0.00253951,0.17998,20.8279,13.4942,-0.129873,0.0,0.0
284,70.75,36.0592,42.7499,160.833,102.737,104.882,0.00260892,0.179049,20.8288,13.4341,-0.185947,0.0,0.0
286,71.25,35.8143,42.3216,163.137,102.76,104.881,0.00267544,0.178279,20.8295,13.4341,-0.183837,0.0,0.0
288,71.75,35.84,41.8164,163.536,102.766,104.477,0.00272933,0.177642,20.8302,13.364,-0.148595,0.0,0.0
290,72.25,35.6532,42.1258,157.179,102.761,104.928,0.00278509,0.176897,20.8306,13.4141,-0.187765,0.0,0.0
292,72.75,35.8961,42.1466,154.089,102.781,104.774,0.00284117,0.176087,20.8315,13.4141,-0.17275,0.0,0.0
294,73.25,35.494,42.163,157.015,102.795,104.379,0.0028866,0.174976,20.8322,13.304,-0.137624,0.0,0.0
296,73.75,35.5548,42.016,156.071,102.794,104.213,0.00295669,0.173664,20.8332,13.2739,-0.123383,0.0,0.0
298,74.25,35.7473,42.2074,159.448,102.804,104.432,0.00301346,0.172602,20.8344,13.344,-0.141366,0.0,0.0
300,74.75,35.3736,41.6659,158.608,102.804,104.585,0.00310046,0.170876,20.8356,13.334,-0.154543,0.0,0.0
302,75.25,35.9162,41.8804,159.037,102.812,105.374,0.00317092,0.169478,20.8368,13.374,-0.221441,0.0,0.0
304,75.75,35.9326,41.9174,163.128,102.815,104.643,0.00325164,0.167862,20.8378,13.364,-0.158584,0.0,0.0
306,76.25,35.7775,41.7872,157.812,102.822,104.413,0.0033383,0.166117,20.8394,13.294,-0.138178,0.0,0.0
308,76.75,35.441,41.5853,161.364,102.812,105.932,0.00342539,0.164703,20.8408,13.304,-0.269,0.0,0.0
310,77.25,35.5703,40.9737,160.43,102.813,104.291,0.00351114,0.162468,20.8436,13.2839,-0.128479,0.0,0.0
312,77.75,35.0117,41.5956,161.506,102.824,104.719,0.00359345,0.160658,20.8459,13.294,-0.164363,0.0,0.0
314,78.25,35.125,41.1411,157.304,102.817,104.536,0.0036717,0.158695,20.8482,13.2639,-0.149166,0.0,0.0
316,78.75,34.931,41.3811,162.797,102.834,104.423,0.00373508,0.156658,20.8501,13.1938,-0.138007,0.0,0.0
318,79.25,35.1403,40.9803,162.411,102.815,105.237,0.00381485,0.155009,20.8516,13.1938,-0.209488,0.0,0.0
320,79.75,35.0383,40.2935,160.136,102.813,104.311,0.00390507,0.152874,20.8528,13.1338,-0.130224,0.0,0.0
322,80.25,34.5038,40.9253,156.271,102.808,104.655,0.00397815,0.151145,20.8546,13.1338,-0.160233,0.0,0.0
324,80.75,35.2569,40.4439,160.089,102.805,104.437,0.00408688,0.149004,20.8561,13.2439,-0.141784,0.0,0.0
326,81.25,34.7949,40.1499,159.493,102.801,104.192,0.00421952,0.14727,20.858,13.0937,-0.120968,0.0,0.0
328,81.75,34.0712,40.4729,162.564,102.791,104.345,0.00435688,0.14517,20.8595,13.0337,-0.135041,0.0,0.0
330,82.25,34.7752,39.9002,160.662,102.78,105.535,0.00449506,0.143469,20.8611,13.0837,-0.238028,0.0,0.0
332,82.75,34.6066,40.1254,161.5,102.789,104.393,0.0046315,0.142091,20.8625,13.0637,-0.139382,0.0,0.0
334,83.25,34.3537,39.4884,161.602,102.76,105.108,0.00476407,0.140789,20.864,13.0837,-0.203262,0.0,0.0
336,83.75,34.556,39.1755,155.708,102.765,104.344,0.00487145,0.139565,20.8652,13.0837,-0.137237,0.0,0.0
338,84.25,34.249,39.7445,162.285,102.738,104.874,0.00500116,0.138575,20.8662,13.1238,-0.185161,0.0,0.0
340,84.75,33.9906,39.5411,156.514,102.735,104.723,0.00510622,0.13739,20.867,13.1038,-0.172508,0.0,0.0
342,85.25,34.1796,39.7948,153.582,102.707,105.593,0.00523151,0.13643,20.8683,13.0437,-0.249337,0.0,0.0
344,85.75,33.972,39.11,162.21,102.706,104.418,0.005333,0.135214,20.87,12.9836,-0.148766,0.0,0.0
346,86.25,34.1715,39.3744,161.776,102.701,104.35,0.0054152,0.134028,20.8714,12.9736,-0.143353,0.0,0.0
348,86.75,34.1684,39.3771,158.393,102.663,103.786,0.00550705,0.132887,20.8725,13.0237,-0.0978864,0.0,0.0
350,87.25,33.9309,39.0361,163.046,102.646,103.975,0.0056042,0.131963,20.8735,13.0537,-0.115705,0.0,0.0
352,87.75,33.5184,39.0936,160.752,102.642,104.227,0.00565177,0.130692,20.8738,13.0036,-0.137891,0.0,0.0
354,88.25,34.3214,38.3973,158.633,102.602,104.806,0.00573311,0.129662,20.8754,12.9736,-0.191247,0.0,0.0
356,88.75,34.0531,38.9681,163.98,102.598,104.836,0.00579558,0.128643,20.8766,12.9836,-0.194205,0.0,0.0
358,89.25,34.0412,38.7438,156.497,102.567,104.028,0.00584311,0.12765,20.8776,12.9736,-0.127281,0.0,0.0
360,89.75,33.5832,38.9309,163.648,102.555,103.651,0.00587955,0.126846,20.8784,12.9736,-0.0956853,0.0,0.0
362,90.25,33.2918,38.3358,160.378,102.537,104.338,0.00590722,0.125958,20.88,12.9736,-0.156711,0.0,0.0
364,90.75,33.2547,38.3989,158.121,102.525,104.289,0.00593579,0.125467,20.8812,12.9236,-0.153575,0.0,0.0
366,91.25,33.3479,38.3018,159.077,102.478,104.171,0.00596447,0.124627,20.8822,12.9436,-0.147421,0.0,0.0
368,91.75,33.5034,38.3908,158.249,102.466,104.403,0.00599795,0.123693,20.883,12.9136,-0.168487,0.0,0.0
370,92.25,33.4441,38.1985,157.423,102.432,104.68,0.00603431,0.122819,20.8837,12.9136,-0.195341,0.0,0.0
372,92.75,33.2501,38.2539,161.707,102.418,104.58,0.00606376,0.122004,20.8842,12.9136,-0.187959,0.0,0.0
374,93.25,33.5355,38.0276,165.202,102.396,103.839,0.00610061,0.121203,20.8846,12.8435,-0.125929,0.0,0.0
376,93.75,33.1185,37.7203,160.418,102.379,103.532,0.00614216,0.120428,20.8854,12.8335,-0.10073,0.0,0.0
378,94.25,33.2764,37.2246,161.195,102.335,103.491,0.00617582,0.119631,20.8861,12.8335,-0.101043,0.0,0.0
380,94.75,33.7037,37.5919,169.674,102.327,103.953,0.00623939,0.118832,20.8868,12.8435,-0.141866,0.0,0.0
382,95.25,33.3548,37.8792,159.225,102.299,103.504,0.00629088,0.118184,20.8876,12.7033,-0.105388,0.0,0.0
384,95.75,33.3193,37.6717,160.629,102.279,103.751,0.00638209,0.117323,20.8885,12.6733,-0.128627,0.0,0.0
386,96.25,33.422,37.8519,163.039,102.229,104.024,0.00645596,0.116626,20.8893,12.9436,-0.156643,0.0,0.0
388,96.75,32.8991,37.6981,161.027,102.228,103.779,0.00656405,0.115884,20.8901,12.8034,-0.135486,0.0,0.0
390,97.25,32.7491,37.917,166.322,102.174,103.665,0.00665161,0.115124,20.891,12.6733,-0.130349,0.0,0.0
392,97.75,32.7865,37.4599,156.623,102.162,103.466,0.00677606,0.114508,20.892,12.8535,-0.114166,0.0,0.0
394,98.25,32.5386,37.3735,160.724,102.119,103.297,0.00687687,0.113644,20.8929,12.9035,-0.103225,0.0,0.0
396,98.75,33.0401,37.3951,158.756,102.089,103.031,0.00698728,0.112944,20.8937,12.7934,-0.0826517,0.0,0.0
398,99.25,32.7389,37.0743,160.975,102.055,103.395,0.00707672,0.112056,20.8944,12.7234,-0.11738,0.0,0.0
400,99.75,32.2781,36.6273,159.295,102.044,103.504,0.00714916,0.111336,20.8949,12.7534,-0.127813,0.0,0.0
402,100.25,32.6497,36.6198,162.143,102.004,102.674,0.00723924,0.110672,20.8955,12.7234,-0.0588732,0.0,0.0
404,100.75,32.8687,36.946,162.095,101.988,103.173,0.0073122,0.110062,20.8963,12.7334,-0.103924,0.0,0.0
406,101.25,32.0953,36.6636,160.797,101.945,103.571,0.00738831,0.109582,20.8969,12.7834,-0.142408,0.0,0.0
408,101.75,30.6112,34.8718,165.196,101.924,103.421,0.00744996,0.109206,20.8973,12.7834,-0.131187,0.0,0.0
410,102.25,31.0523,34.5985,162.794,101.89,103.571,0.0075143,0.108843,20.8977,12.7534,-0.147253,0.0,0.0
412,102.75,30.5321,35.2483,163.374,101.868,103.369,0.00756642,0.108496,20.898,12.7434,-0.131603,0.0,0.0
414,103.25,30.5727,35.2992,158.12,101.826,103.538,0.00760864,0.108215,20.8983,12.7033,-0.150049,0.0,0.0
416,103.75,30.7906,34.8687,160.459,101.813,103.735,0.00765869,0.107764,20.8985,12.6733,-0.168343,0.0,0.0
418,104.25,30.5013,34.8095,160.87,101.775,102.804,0.00771351,0.107398,20.8994,12.6333,-0.09046,0.0,0.0
420,104.75,30.9258,35.0647,168.022,101.762,103.161,0.00775791,0.106999,20.9001,12.6833,-0.122824,0.0,0.0
422,105.25,30.2545,34.7764,163.268,101.712,102.949,0.00782154,0.106584,20.9011,12.7234,-0.108807,0.0,0.0
424,105.75,30.7634,35.2191,163.326,101.687,103.164,0.00787308,0.106247,20.902,12.6333,-0.129777,0.0,0.0
426,106.25,30.8884,34.567,161.5,101.648,102.838,0.0079332,0.105857,20.9027,12.6433,-0.104666,0.0,0.0
428,106.75,29.842,34.7598,160.577,101.627,102.88,0.00798189,0.105435,20.9034,12.7033,-0.110316,0.0,0.0
430,107.25,30.424,34.8527,160.557,101.591,102.784,0.00802133,0.104997,20.904,12.6433,-0.105074,0.0,0.0
432,107.75,30.7094,34.6887,159.719,101.567,103.486,0.00805984,0.104557,20.9044,12.6232,-0.168443,0.0,0.0
434,108.25,30.4112,34.6751,161.394,101.541,102.566,0.00809103,0.104201,20.9048,12.7033,-0.0903679,0.0,0.0
436,108.75,30.1583,34.3047,160.928,101.515,102.796,0.00810732,0.103718,20.9051,12.7133,-0.112819,0.0,0.0
438,109.25,30.2729,34.5689,164.854,101.489,103.022,0.00811244,0.103327,20.9057,12.6833,-0.134846,0.0,0.0
440,109.75,30.3803,34.6474,160.906,101.472,103.386,0.00809794,0.102944,20.9063,12.7334,-0.168151,0.0,0.0
442,110.25,30.395,34.5976,161.03,101.426,102.69,0.00806943,0.102574,20.9072,12.6633,-0.111436,0.0,0.0
444,110.75,30.3547,34.4943,157.172,101.413,102.444,0.00802841,0.102274,20.9079,12.6733,-0.0910668,0.0,0.0
446,111.25,30.5837,34.6955,162.864,101.394,102.215,0.00797904,0.101863,20.9085,12.5932,-0.0725903,0.0,0.0
448,111.75,30.5734,34.4659,165.096,101.364,102.241,0.00792597,0.101378,20.9089,12.6232,-0.0775628,0.0,0.0
450,112.25,30.6997,34.538,161.492,101.37,102.602,0.00787119,0.10092,20.9093,12.6232,-0.108699,0.0,0.0
452,112.75,30.4164,34.3984,163.411,101.321,102.03,0.00782682,0.100489,20.9096,12.5732,-0.0627714,0.0,0.0
454,113.25,30.3724,33.9645,165.336,101.304,102.222,0.00777649,0.100243,20.9099,12.5932,-0.08112,0.0,0.0
456,113.75,30.7084,33.7788,165.592,101.275,102.42,0.00773572,0.100135,20.9101,12.6032,-0.101184,0.0,0.0
458,114.25,30.3394,33.8582,168.7,101.255,102.171,0.00771028,0.100195,20.9102,12.5832,-0.0810534,0.0,0.0
460,114.75,30.4651,33.8497,162.393,101.223,103.061,0.00769648,0.100376,20.9099,12.5932,-0.161944,0.0,0.0
462,115.25,30.1806,34.1155,156.783,101.219,102.626,0.00768531,0.100522,20.9097,12.5432,-0.124173,0.0,0.0
464,115.75,30.1653,33.9038,163.068,101.176,102.132,0.00768935,0.100877,20.9095,12.5532,-0.0845502,0.0,0.0
466,116.25,29.9646,33.6422,155.402,101.164,102.232,0.00769262,0.101165,20.9093,12.6433,-0.0944445,0.0,0.0
468,116.75,29.9861,33.2762,158.315,101.134,102.67,0.00769527,0.101427,20.9092,12.5832,-0.135695,0.0,0.0
470,117.25,30.1587,33.549,160.502,101.113,102.129,0.0076964,0.101667,20.9091,12.6032,-0.0900044,0.0,0.0
472,117.75,30.2308,33.5864,159.924,101.087,102.315,0.00767952,0.101816,20.909,12.5432,-0.108651,0.0,0.0
474,118.25,30.3247,33.746,161.581,101.066,102.591,0.0076719,0.101898,20.909,12.5532,-0.13479,0.0,0.0
476,118.75,29.8703,34.048,160.794,101.042,103.172,0.00764026,0.101964,20.9089,12.5332,-0.187754,0.0,0.0
478,119.25,30.3246,33.8556,156.739,101.035,102.287,0.00759791,0.101822,20.9088,12.4931,-0.110783,0.0,0.0
480,119.75,30.3318,33.9017,161.927,101.016,102.173,0.00754366,0.101707,20.9088,12.433,-0.102509,0.0,0.0
482,120.25,30.4444,34.0005,158.85,100.994,101.915,0.00748177,0.1016,20.9088,12.4931,-0.0817299,0.0,0.0
484,120.75,30.1579,34.3781,161.288,100.976,102.035,0.00743164,0.101337,20.9087,12.4531,-0.0938684,0.0,0.0
486,121.25,30.6239,34.1178,159.64,100.942,102.99,0.00736767,0.101267,20.9087,12.4431,-0.180684,0.0,0.0
488,121.75,29.9792,33.9975,167.47,100.919,102.142,0.00729483,0.101244,20.9087,12.423,-0.108415,0.0,0.0
490,122.25,29.8554,33.8981,161.99,100.919,102.337,0.00722897,0.101225,20.9087,12.4431,-0.125565,0.0,0.0
492,122.75,30.3375,33.5352,160.498,100.899,102.881,0.00716944,0.101363,20.9087,12.4731,-0.175019,0.0,0.0
494,123.25,29.9263,33.2874,161.697,100.892,103.329,0.00711985,0.101475,20.9087,12.423,-0.214714,0.0,0.0
496,123.75,30.0917,33.5139,165.324,100.858,102.173,0.00707844,0.101677,20.9082,12.4531,-0.116528,0.0,0.0
498,124.25,30.1534,33.6938,165.396,100.863,102.247,0.00704216,0.101841,20.9079,12.4531,-0.122614,0.0,0.0
500,124.75,30.1635,33.725,164.242,100.837,102.099,0.0070103,0.101995,20.9076,12.393,-0.111998,0.0,0.0
502,125.25,29.7555,33.4504,162.636,100.815,102.048,0.00698449,0.102141,20.9073,12.403,-0.109382,0.0,0.0
504,125.75,30.3662,33.6389,159.022,100.792,101.563,0.00694142,0.102258,20.9071,12.383,-0.0686317,0.0,0.0
506,126.25,29.9166,34.0372,163.888,100.802,102.211,0.00690654,0.102339,20.907,12.383,-0.124933,0.0,0.0
508,126.75,29.9915,33.8538,162.764,100.783,101.617,0.00687829,0.102405,20.9069,12.373,-0.0741109,0.0,0.0
510,127.25,30.0002,33.5876,162.012,100.781,101.433,0.00683689,0.102403,20.9068,12.343,-0.0580305,0.0,0.0
512,127.75,30.2191,33.6423,164.557,100.757,102.366,0.0067867,0.102401,20.9065,12.363,-0.142571,0.0,0.0
514,128.25,29.9874,33.2147,165.559,100.769,102.283,0.00674604,0.102274,20.9063,12.423,-0.134189,0.0,0.0
516,128.75,29.7236,33.2161,160.694,100.738,102.947,0.00670146,0.102171,20.9062,12.423,-0.195121,0.0,0.0
518,129.25,30.2072,33.4924,167.671,100.74,102.462,0.00665487,0.102087,20.906,12.413,-0.152536,0.0,0.0
520,129.75,29.6444,33.8171,165.025,100.721,101.937,0.00661645,0.101954,20.9059,12.363,-0.107978,0.0,0.0
522,130.25,29.8237,33.7256,160.253,100.732,101.764,0.00658471,0.101786,20.9058,12.363,-0.0917208,0.0,0.0
524,130.75,30.2357,33.1965,161.286,100.722,102.036,0.00656037,0.10165,20.9058,12.383,-0.116566,0.0,0.0
526,131.25,29.8746,33.5528,159.576,100.713,101.917,0.00654189,0.101666,20.9057,12.3229,-0.106914,0.0,0.0
528,131.75,30.0883,33.494,164.979,100.705,102.361,0.00652692,0.101678,20.9057,12.343,-0.146809,0.0,0.0
530,132.25,29.7128,33.2727,162.877,100.704,102.462,0.00651739,0.101688,20.9056,12.3029,-0.155805,0.0,0.0
532,132.75,29.9442,34.1008,164.18,100.692,102.055,0.00650968,0.101766,20.9056,12.343,-0.120994,0.0,0.0
534,133.25,29.8033,33.4546,161.13,100.71,101.896,0.00649953,0.101888,20.9056,12.363,-0.105382,0.0,0.0
536,133.75,29.4776,33.4304,160.052,100.688,102.038,0.0064913,0.10204,20.9056,12.393,-0.119786,0.0,0.0
538,134.25,30.2392,33.4148,166.053,100.707,102.175,0.00647684,0.102162,20.9055,12.3229,-0.130161,0.0,0.0
540,134.75,30.2396,33.7529,163.072,100.692,101.855,0.00646512,0.102276,20.9055,12.343,-0.103377,0.0,0.0
542,135.25,30.108,33.7509,159.276,100.701,101.545,0.00645562,0.102368,20.9055,12.4431,-0.0750817,0.0,0.0
544,135.75,30.0037,33.713,160.678,100.692,102.072,0.00643232,0.102372,20.9055,12.413,-0.122512,0.0,0.0
546,136.25,30.1881,33.649,157.42,100.712,102.3,0.00641345,0.102376,20.9055,12.353,-0.140746,0.0,0.0
548,136.75,30.1579,34.0527,160.015,100.688,102.274,0.00638585,0.102449,20.9055,12.3029,-0.14064,0.0,0.0
550,137.25,29.7426,33.4255,158.818,100.712,102.642,0.0063524,0.102508,20.9055,12.3229,-0.170796,0.0,0.0
552,137.75,30.2838,33.5431,162.221,100.698,102.546,0.00631232,0.102556,20.9055,12.353,-0.163583,0.0,0.0
554,138.25,30.0531,33.9122,158.872,100.712,101.916,0.00626816,0.102636,20.9055,12.3229,-0.106981,0.0,0.0
556,138.75,29.7698,33.4452,164.371,100.702,102.224,0.00623239,0.102701,20.9055,12.2929,-0.134985,0.0,0.0
558,139.25,30.349,33.8785,159.45,100.732,101.913,0.00617355,0.102712,20.9055,12.3029,-0.104898,0.0,0.0
560,139.75,29.8859,33.6903,167.752,100.723,102.374,0.00612589,0.102721,20.9055,12.2529,-0.146291,0.0,0.0
562,140.25,29.9928,33.6061,158.325,100.733,102.454,0.006073,0.102714,20.9055,12.2529,-0.152406,0.0,0.0
564,140.75,30.0916,33.5287,154.079,100.748,102.519,0.00603017,0.102695,20.9055,12.2529,-0.156876,0.0,0.0
566,141.25,29.8616,33.9492,161.318,100.746,102.16,0.00597861,0.102664,20.9055,12.2428,-0.125396,0.0,0.0
568,141.75,29.9001,33.9279,163.525,100.747,101.992,0.00593685,0.102627,20.9055,12.3029,-0.11055,0.0,0.0
570,142.25,29.9616,33.4729,163.678,100.765,102.682,0.00590302,0.102596,20.9055,12.2929,-0.169535,0.0,0.0
572,142.75,30.2988,33.8195,159.164,100.777,102.125,0.00586136,0.102571,20.9055,12.2529,-0.119562,0.0,0.0
574,143.25,30.4113,33.7307,159.588,100.782,102.219,0.00582761,0.102551,20.9055,12.2529,-0.12737,0.0,0.0
576,143.75,30.3825,34.1733,161.11,100.792,101.918,0.00579768,0.102465,20.9055,12.2929,-0.100043,0.0,0.0
578,144.25,30.0791,33.446,159.242,100.808,102.394,0.00577344,0.102395,20.9055,12.3229,-0.140461,0.0,0.0
580,144.75,30.7078,33.9166,161.781,100.821,102.976,0.0057564,0.102302,20.9055,12.2529,-0.190241,0.0,0.0
582,145.25,30.6691,33.806,161.496,100.825,102.448,0.00574259,0.102194,20.9055,12.1628,-0.1437,0.0,0.0
584,145.75,30.2845,34.0545,159.915,100.841,102.505,0.00573271,0.102106,20.9055,12.2128,-0.147331,0.0,0.0
586,146.25,30.2006,34.0744,164.183,100.854,102.41,0.0057247,0.102035,20.9055,12.2128,-0.137754,0.0,0.0
588,146.75,30.7239,34.4682,153.931,100.868,102.323,0.00571173,0.101977,20.9055,12.1928,-0.1289,0.0,0.0
590,147.25,30.2184,34.2646,164.774,100.867,102.393,0.00570123,0.101847,20.9055,12.1327,-0.13509,0.0,0.0
592,147.75,30.5983,34.1091,156.739,100.89,102.773,0.00567908,0.101741,20.9055,12.1628,-0.166368,0.0,0.0
594,148.25,30.6186,34.1399,160.189,100.901,102.653,0.00564886,0.101649,20.9055,12.1528,-0.15494,0.0,0.0
596,148.75,30.4276,34.2601,160.339,100.923,102.891,0.00562439,0.101567,20.9055,12.1828,-0.173794,0.0,0.0
598,149.25,30.3273,34.3612,160.469,100.93,102.072,0.00558255,0.101473,20.9055,12.2428,-0.101312,0.0,0.0
600,149.75,30.1192,33.6602,159.885,100.955,102.206,0.00554865,0.101396,20.9055,12.2028,-0.110815,0.0,0.0
602,150.25,30.4272,34.4937,165.425,100.962,102.681,0.0055212,0.101327,20.9055,12.1528,-0.151849,0.0,0.0
604,150.75,30.0397,34.0492,157.957,100.996,102.777,0.00549897,0.101265,20.9055,12.2228,-0.15726,0.0,0.0
606,151.25,30.5638,33.9367,159.34,101.008,102.56,0.00547836,0.101214,20.9058,12.0426,-0.137264,0.0,0.0
608,151.75,30.2944,34.0719,163.252,101.014,102.99,0.00546168,0.101257,20.9065,12.0226,-0.174252,0.0,0.0
610,152.25,30.4094,33.9315,161.293,101.021,102.32,0.00545722,0.101291,20.9069,12.1127,-0.114972,0.0,0.0
612,152.75,30.6459,34.5032,163.613,101.044,102.279,0.00545362,0.101319,20.9074,12.0827,-0.109315,0.0,0.0
614,153.25,30.0676,33.8609,154.979,101.044,102.524,0.00545717,0.101342,20.9077,12.0827,-0.130827,0.0,0.0
616,153.75,30.5225,33.9511,158.589,101.076,102.162,0.00546005,0.101374,20.9079,12.1027,-0.0961601,0.0,0.0
618,154.25,29.8425,33.6051,162.333,101.08,102.268,0.00546374,0.1014,20.9082,12.1127,-0.105144,0.0,0.0
620,154.75,29.9761,33.6047,161.255,101.105,102.396,0.00546796,0.101435,20.9083,12.1828,-0.114172,0.0,0.0
622,155.25,29.971,33.6731,162.758,101.105,102.458,0.00546879,0.101464,20.9085,12.1628,-0.119547,0.0,0.0
624,155.75,30.0063,33.7427,162.901,101.13,102.346,0.00546946,0.101501,20.9086,12.1628,-0.10754,0.0,0.0
626,156.25,29.4256,33.8592,157.412,101.15,102.415,0.00547001,0.101531,20.9087,12.1427,-0.111892,0.0,0.0
628,156.75,29.9315,33.6427,158.595,101.164,102.331,0.00547174,0.101527,20.9087,12.1528,-0.103203,0.0,0.0
630,157.25,29.9604,33.8261,166.046,101.191,102.362,0.00547314,0.101524,20.9088,12.1227,-0.103586,0.0,0.0
632,157.75,29.7436,33.3338,166.089,101.205,103.734,0.00547775,0.101522,20.9089,12.1127,-0.22207,0.0,0.0
634,158.25,30.4494,34.0913,165.064,101.209,103.139,0.00548461,0.10152,20.9089,12.1327,-0.170007,0.0,0.0
636,158.75,29.9671,34.3234,161.104,101.244,103.475,0.00549016,0.101467,20.9089,12.1528,-0.196213,0.0,0.0
638,159.25,30.7512,34.299,160.991,101.245,102.75,0.00549466,0.101378,20.9091,12.1027,-0.132756,0.0,0.0
640,159.75,30.2209,34.2807,161.646,101.283,102.47,0.00549831,0.101306,20.9093,12.0727,-0.104819,0.0,0.0
642,160.25,30.2348,34.0065,164.215,101.293,102.671,0.00549349,0.101269,20.9094,12.0627,-0.121527,0.0,0.0
644,160.75,30.4768,33.9446,159.054,101.314,102.965,0.00548958,0.101259,20.9095,12.0226,-0.145436,0.0,0.0
646,161.25,30.6356,34.1779,156.524,101.331,103.431,0.00548771,0.101223,20.9096,12.0627,-0.184543,0.0,0.0
648,161.75,29.9957,33.6557,165.919,101.346,102.718,0.0054862,0.101167,20.9096,12.0426,-0.120965,0.0,0.0
650,162.25,30.372,34.3893,162.451,101.353,102.81,0.00548886,0.101048,20.9097,12.0326,-0.128442,0.0,0.0
652,162.75,30.277,34.0185,160.539,101.387,102.83,0.00549102,0.100886,20.9097,12.0026,-0.127195,0.0,0.0
654,163.25,30.7643,34.5942,161.355,101.383,103.218,0.00549276,0.100755,20.9098,12.0226,-0.161448,0.0,0.0
656,163.75,30.4556,34.312,158.983,101.409,103.731,0.00549936,0.100663,20.9098,11.9826,-0.203649,0.0,0.0
658,164.25,29.8265,34.5826,164.312,101.412,102.889,0.0055047,0.100588,20.9098,12.0126,-0.130094,0.0,0.0
660,164.75,30.5076,34.3819,157.108,101.449,102.603,0.00550514,0.100597,20.9101,12.0226,-0.101753,0.0,0.0
662,165.25,30.2198,34.3982,165.946,101.46,103.099,0.0055055,0.100604,20.9105,12.0226,-0.144113,0.0,0.0
664,165.75,30.5757,34.4393,156.476,101.487,102.873,0.00549154,0.10061,20.9108,12.0526,-0.122071,0.0,0.0
666,166.25,30.828,34.6217,159.906,101.497,102.885,0.00548024,0.100615,20.9111,12.0326,-0.122221,0.0,0.0
668,166.75,30.5327,34.5898,161.117,101.529,102.931,0.00545037,0.100619,20.9113,12.0026,-0.123421,0.0,0.0
670,167.25,30.2771,34.9398,163.061,101.543,103.179,0.00542617,0.100525,20.9115,12.0426,-0.143842,0.0,0.0
672,167.75,30.7006,35.0916,159.121,101.578,103.181,0.00540249,0.100448,20.9116,12.0326,-0.140974,0.0,0.0
674,168.25,30.0278,34.7154,159.445,101.576,103.254,0.00537963,0.100191,20.9117,12.0627,-0.147414,0.0,0.0
676,168.75,30.5856,34.9111,160.119,101.609,102.887,0.00536111,0.0999833,20.9118,12.0326,-0.112504,0.0,0.0
678,169.25,31.1985,35.1842,157.221,101.614,103.013,0.00534211,0.0996755,20.9119,11.9826,-0.123071,0.0,0.0
680,169.75,30.7234,35.1038,159.908,101.664,103.354,0.00532672,0.0994262,20.9119,12.0226,-0.148356,0.0,0.0
682,170.25,30.9388,34.7441,159.353,101.653,102.751,0.00531426,0.0992609,20.912,12.0026,-0.0966778,0.0,0.0
684,170.75,30.4176,35.1709,159.89,101.701,103.936,0.00526408,0.09916,20.912,11.9525,-0.195639,0.0,0.0
686,171.25,30.4057,34.7365,156.558,101.69,103.682,0.00522343,0.0990782,20.9118,11.9926,-0.174627,0.0,0.0
688,171.75,30.5813,34.7149,164.019,101.721,103.25,0.0051582,0.0991226,20.9117,11.9926,-0.134273,0.0,0.0
690,172.25,30.2441,34.9459,162.794,101.721,104.051,0.00510537,0.0991585,20.9117,11.9826,-0.203779,0.0,0.0
692,172.75,30.4467,34.5463,160.723,101.748,103.405,0.00504451,0.099107,20.9116,11.9826,-0.145324,0.0,0.0
694,173.25,30.3415,34.6365,160.72,101.773,103.246,0.0049952,0.0989927,20.9116,11.9325,-0.129273,0.0,0.0
696,173.75,30.7682,34.8456,162.042,101.778,103.327,0.00495527,0.0989001,20.9115,11.9025,-0.135875,0.0,0.0
698,174.25,30.6665,34.6153,157.373,101.778,103.696,0.00493039,0.0987592,20.9113,11.9425,-0.168048,0.0,0.0
700,174.75,30.7349,34.8709,164.243,101.813,103.174,0.00491697,0.0985858,20.9109,11.9325,-0.119503,0.0,0.0
702,175.25,31.1081,34.5964,158.749,101.811,103.467,0.00491426,0.0984526,20.9107,11.9626,-0.145172,0.0,0.0
704,175.75,31.1486,35.0417,160.958,101.838,103.303,0.0049194,0.0983513,20.9109,11.9425,-0.128531,0.0,0.0
706,176.25,30.6024,34.8319,161.745,101.849,103.059,0.00492357,0.0982692,20.911,11.9826,-0.106196,0.0,0.0
708,176.75,30.5356,35.0023,160.408,101.861,103.652,0.00493082,0.0981442,20.9114,11.9726,-0.156843,0.0,0.0
710,177.25,30.9941,34.7933,163.254,101.877,102.931,0.00493669,0.0979902,20.9119,11.9826,-0.0926057,0.0,0.0
712,177.75,30.9009,34.3479,158.273,101.903,103.489,0.00494145,0.0977995,20.9123,11.9626,-0.138992,0.0,0.0
714,178.25,31.032,34.993,159.527,101.904,103.43,0.00494326,0.0975858,20.9126,11.9425,-0.13374,0.0,0.0
716,178.75,30.863,34.9296,162.094,101.934,103.116,0.00494374,0.0974127,20.9129,11.9225,-0.103688,0.0,0.0
718,179.25,30.7592,34.9341,159.505,101.923,103.643,0.0049252,0.0970917,20.9131,11.9025,-0.150593,0.0,0.0
720,179.75,30.8411,35.0413,159.185,101.944,103.423,0.00491019,0.0968317,20.9133,11.8825,-0.129627,0.0,0.0
722,180.25,30.8379,34.7847,159.425,101.958,103.399,0.00486705,0.0966211,20.9134,11.9125,-0.126284,0.0,0.0
724,180.75,30.725,35.3363,157.559,101.976,103.326,0.00483211,0.0964505,20.9135,11.9225,-0.118336,0.0,0.0
726,181.25,31.0918,35.2311,161.675,101.974,103.115,0.00477802,0.0963123,20.9136,11.9025,-0.100079,0.0,0.0
728,181.75,30.8664,35.1669,160.691,101.99,103.42,0.004711,0.096117,20.9141,11.8925,-0.125246,0.0,0.0
730,182.25,30.9652,35.4812,160.548,101.998,103.708,0.00463773,0.0959587,20.9145,11.8825,-0.149544,0.0,0.0
732,182.75,30.9154,35.343,161.517,102.019,103.448,0.0045613,0.095775,20.9149,11.8524,-0.125165,0.0,0.0
734,183.25,30.9615,35.0787,167.54,102.012,104.027,0.00448179,0.0956262,20.9151,11.8524,-0.176029,0.0,0.0
736,183.75,30.6437,34.7502,156.764,102.024,103.501,0.00440154,0.0954544,20.9154,11.8825,-0.129401,0.0,0.0
738,184.25,30.4796,35.203,162.752,102.033,103.426,0.00433653,0.0952692,20.9155,11.8524,-0.122049,0.0,0.0
740,184.75,30.7561,34.8771,159.137,102.043,103.611,0.00425046,0.095068,20.9157,11.8224,-0.137286,0.0,0.0
742,185.25,31.0526,34.9431,159.854,102.043,103.264,0.00418073,0.094859,20.9158,11.7523,-0.107029,0.0,0.0
744,185.75,30.7741,35.0616,162.443,102.06,103.306,0.00411817,0.0946165,20.9159,11.8224,-0.109217,0.0,0.0
746,186.25,30.8631,35.3211,161.575,102.077,103.241,0.00406202,0.0943544,20.9164,11.8524,-0.101963,0.0,0.0
748,186.75,31.0293,34.674,163.344,102.069,103.595,0.00402059,0.0941421,20.9168,11.8524,-0.133523,0.0,0.0
750,187.25,31.0345,34.5788,163.211,102.073,103.4,0.00399068,0.0937202,20.9172,11.8324,-0.116241,0.0,0.0
752,187.75,30.6193,34.8745,162.62,102.1,103.125,0.00396917,0.0933784,20.9174,11.8424,-0.0898452,0.0,0.0
754,188.25,30.6157,34.6534,163.481,102.097,103.335,0.00395417,0.0930651,20.9181,11.8925,-0.108482,0.0,0.0
756,188.75,30.4149,34.4188,160.594,102.091,103.494,0.00393932,0.0927785,20.9186,11.8925,-0.122813,0.0,0.0
758,189.25,30.5928,34.188,158.724,102.105,103.701,0.00392486,0.0925609,20.919,11.8424,-0.139569,0.0,0.0
760,189.75,30.3587,34.0612,163.157,102.103,103.417,0.00391314,0.0923978,20.9194,11.8124,-0.115066,0.0,0.0
762,190.25,30.4056,34.405,161.447,102.113,103.146,0.00389486,0.0922584,20.9197,11.7623,-0.090628,0.0,0.0
764,190.75,30.5259,34.6523,157.692,102.115,103.601,0.00387215,0.0921389,20.9199,11.7724,-0.130068,0.0,0.0
766,191.25,30.5737,34.2545,162.875,102.129,103.706,0.00385375,0.0920421,20.9201,11.7724,-0.137896,0.0,0.0
768,191.75,29.7478,34.1654,164.976,102.119,103.067,0.00382803,0.0918943,20.9202,11.7323,-0.0831129,0.0,0.0
770,192.25,30.3779,34.427,151.86,102.129,103.741,0.00379747,0.0917746,20.9204,11.7623,-0.140925,0.0,0.0
772,192.75,30.6381,34.4866,161.397,102.122,103.447,0.00376123,0.0915251,20.9205,11.8224,-0.116018,0.0,0.0
774,193.25,30.3305,34.7803,165.073,102.152,103.552,0.00372154,0.0913229,20.9205,11.8324,-0.122499,0.0,0.0
776,193.75,30.4941,34.5563,159.527,102.129,103.513,0.00367657,0.0910133,20.9206,11.8124,-0.121189,0.0,0.0
778,194.25,30.0176,34.0981,161.783,102.139,104.546,0.0036286,0.0906311,20.9211,11.7824,-0.209639,0.0,0.0
780,194.75,30.2778,34.0992,166.015,102.152,103.513,0.00357761,0.0903215,20.9215,11.7223,-0.119074,0.0,0.0
782,195.25,30.3615,34.2336,162.494,102.153,103.362,0.00352537,0.0899978,20.9218,11.8224,-0.10592,0.0,0.0
784,195.75,30.3312,34.4119,160.603,102.154,103.477,0.00348306,0.08967,20.9221,11.7724,-0.115779,0.0,0.0
786,196.25,30.3182,34.321,158.656,102.157,103.22,0.00343598,0.089317,20.9223,11.8024,-0.0931741,0.0,0.0
788,196.75,31.0105,34.4798,159.879,102.142,103.937,0.00339784,0.0889523,20.9224,11.8124,-0.156762,0.0,0.0
790,197.25,30.076,34.1202,159.375,102.165,103.641,0.00336695,0.0885694,20.9226,11.8224,-0.129054,0.0,0.0
792,197.75,30.5462,34.5467,157.712,102.154,104.131,0.00332656,0.0881806,20.9229,11.8224,-0.172455,0.0,0.0
794,198.25,30.5014,34.3431,159.902,102.163,103.269,0.00329384,0.0878656,20.9233,11.8124,-0.09686,0.0,0.0
796,198.75,30.2877,34.1647,166.489,102.167,103.624,0.00325656,0.0874444,20.9237,11.8124,-0.127383,0.0,0.0
798,199.25,30.3053,34.5347,158.561,102.159,103.483,0.00321667,0.0871032,20.9244,11.8124,-0.115831,0.0,0.0
800,199.75,30.3362,34.288,161.486,102.165,103.669,0.00318435,0.0868269,20.9249,11.7824,-0.131448,0.0,0.0
802,200.25,30.5101,34.2002,160.552,102.172,103.29,0.0031441,0.08652,20.9254,11.8124,-0.0979357,0.0,0.0
804,200.75,30.7493,34.5721,161.862,102.181,103.269,0.00311149,0.0862714,20.9258,11.8024,-0.0952787,0.0,0.0
806,201.25,29.7717,34.1055,159.979,102.176,103.629,0.00308509,0.0860118,20.9261,11.7824,-0.12714,0.0,0.0
808,201.75,30.2908,34.4932,165.197,102.171,103.901,0.0030637,0.0857491,20.9266,11.7724,-0.151061,0.0,0.0
810,202.25,30.0704,34.2708,161.149,102.17,103.128,0.00304637,0.0855363,20.9272,11.7523,-0.0838979,0.0,0.0
812,202.75,30.8393,34.4473,162.1,102.175,103.999,0.00302722,0.0851427,20.9277,11.7724,-0.159256,0.0,0.0
814,203.25,30.7439,34.5593,159.914,102.184,103.692,0.0030117,0.0848239,20.928,11.7724,-0.131802,0.0,0.0
816,203.75,30.0155,34.5822,163.563,102.177,103.307,0.00298507,0.0844565,20.9286,11.7523,-0.0989822,0.0,0.0
818,204.25,30.5292,34.8371,158.602,102.177,103.474,0.0029635,0.0840607,20.9292,11.7724,-0.113513,0.0,0.0
820,204.75,29.9926,34.7469,161.222,102.172,103.354,0.00293964,0.0837401,20.9298,11.7724,-0.103534,0.0,0.0
822,205.25,30.5999,34.6078,158.981,102.184,103.728,0.00292031,0.0833284,20.9302,11.7523,-0.134914,0.0,0.0
824,205.75,30.6885,34.2115,166.082,102.165,103.682,0.00289259,0.082995,20.9305,11.7623,-0.132573,0.0,0.0
826,206.25,30.4992,33.9283,160.95,102.181,103.834,0.00288174,0.0824901,20.9308,11.7523,-0.144417,0.0,0.0
828,206.75,30.7318,34.1825,158.676,102.173,103.869,0.00286318,0.0820811,20.931,11.7724,-0.148145,0.0,0.0
830,207.25,30.4485,34.4374,162.633,102.176,103.539,0.00282005,0.0816482,20.9314,11.7423,-0.119266,0.0,0.0
832,207.75,30.0638,34.3779,162.356,102.164,103.502,0.00278511,0.0812059,20.932,11.7523,-0.117092,0.0,0.0
834,208.25,29.9295,33.8829,168.797,102.187,103.753,0.00273195,0.0808477,20.9324,11.7623,-0.136814,0.0,0.0
836,208.75,30.3111,34.2706,161.86,102.155,103.635,0.00266653,0.0804471,20.9328,11.7724,-0.129409,0.0,0.0
838,209.25,30.2752,34.2829,159.298,102.165,103.339,0.00257911,0.0801227,20.9333,11.7623,-0.10278,0.0,0.0
840,209.75,30.1818,34.3385,161.437,102.156,103.459,,0.0797495,,11.7724,-0.114061,0.0,0.0
842,210.25,29.9252,34.2254,162.097,102.163,103.298,,0.0794473,,11.7623,-0.0994345,0.0,0.0
844,210.75,30.2365,34.2833,162.045,102.16,103.643,,0.0791589,,11.7623,-0.129715,0.0,0.0
846,211.25,30.2875,34.5201,162.98,102.15,102.99,,0.0788861,,11.7423,-0.073675,0.0,0.0
848,211.75,30.6593,34.3085,163.781,102.127,103.525,,0.0786506,,11.7423,-0.122336,0.0,0.0
850,212.25,30.1822,34.1857,160.94,102.159,103.443,,0.0784467,,11.7323,-0.112441,0.0,0.0
852,212.75,30.4161,34.3243,165.087,102.15,103.511,,,,11.7123,-0.119079,0.0,0.0
854,213.25,30.1912,34.2427,158.977,102.148,103.332,,,,11.6823,-0.103708,0.0,0.0
856,213.75,30.2926,33.4763,158.803,102.125,103.375,,,,11.6923,-0.10948,0.0,0.0
858,214.25,29.9199,33.5567,159.908,102.138,103.175,,,,11.7323,-0.0909048,0.0,0.0
860,214.75,29.8078,34.1415,167.172,102.123,103.179,,,,11.7323,-0.0926344,0.0,0.0
862,215.25,30.0184,33.8755,158.278,102.132,103.392,,,,11.6722,-0.110303,0.0,0.0
864,215.75,30.2168,34.2562,160.23,102.118,103.426,,,,11.7123,-0.114576,0.0,0.0
866,216.25,30.1347,34.0019,163.491,102.125,103.454,,,,11.7023,-0.116382,0.0,0.0
868,216.75,30.1145,33.9322,161.796,102.114,103.136,,,,11.6923,-0.0896117,0.0,0.0
870,217.25,30.1593,34.2501,158.751,102.122,103.74,,,,11.7023,-0.141501,0.0,0.0
872,217.75,30.19,34.1544,165.512,102.094,102.907,,,,11.7123,-0.0713333,0.0,0.0
874,218.25,30.0165,34.0433,163.399,102.095,103.4,,,,11.7423,-0.11428,0.0,0.0
876,218.75,30.1145,33.8901,160.066,102.083,103.234,,,,11.6622,-0.100939,0.0,0.0
878,219.25,30.4407,33.9347,163.04,102.086,103.436,,,,11.7023,-0.118243,0.0,0.0
880,219.75,30.1591,33.7275,166.195,102.078,103.699,,,,11.7223,-0.141785,0.0,0.0
882,220.25,30.1218,34.1002,161.988,102.077,103.924,,,,11.7023,-0.161327,0.0,0.0