File: 01_Data/Cotton_Raw/Cone/Raw_Cotton_Cone_HF35-Frame+GridScan_200909_R1.csv
Names,Time,Stack TC,Smoke TC,Exh Press,Smoke Comp,Smoke Meas,CO Meter,CO2 Meter,O2 Meter,Sample Mass,Ext Coeff,Start Test,Flame Verif
Chan Gain,,500,500,1,1,1,1,1,1,1,1,1.0,1.0
Offset,,0,0,0.136754,0,0,0,0,0,0,0,0.0,0.0
Gain,,1,1,25.011,13.7501,16.9893,1,1,1,1.00105,1.02582,1.0,1.0
Units,sec,C,C,Pa,%,%,%,%,%,g,/m,,
Baseline,,27.254,29.3184,167.069,102.649,103.332,8.26694e-05,0.0530394,20.9638,-900.749,-0.0596409,,
3,0.5,27.0808,29.1644,164.142,102.134,102.455,0.000175256,0.0540321,20.9626,18.5495,-0.0282825,0.0,0.0
6,1.25,25.5242,27.7539,165.15,102.116,103.1,0.000186771,0.0541295,20.9627,18.5795,-0.0863051,0.0,0.0
9,2,24.5169,27.285,164.193,102.099,103.205,0.000230827,0.0542008,20.9628,18.6296,-0.0969576,0.0,0.0
12,2.75,25.3242,27.5218,165.398,102.091,102.438,0.000317489,0.0542918,20.9628,18.6296,-0.0305974,0.0,0.0
15,3.5,25.5943,27.8976,171.631,102.081,102.176,0.00050879,0.0543941,20.9627,18.5495,-0.00837303,0.0,0.0
18,4.25,25.4433,28.0032,165.819,102.077,101.925,0.000707005,0.0545301,20.9621,18.4994,0.0134212,0.0,0.0
21,5,25.6328,27.783,165.426,102.057,101.414,0.000951977,0.0548827,20.9617,18.5395,0.0568913,0.0,0.0
24,5.75,25.6107,27.7655,167.257,102.055,100.522,0.00125211,0.055882,20.9606,18.5995,0.136183,0.0,0.0
27,6.5,25.7946,27.6838,165.749,102.059,100.131,0.00147091,0.0578795,20.9594,18.5194,0.171578,0.0,0.0
30,7.25,25.3564,27.965,163.185,102.045,99.7124,0.00170857,0.0694465,20.9486,18.6195,0.208046,0.0,0.0
33,8,25.4559,27.8171,162.741,102.047,101.037,0.00188821,0.0872598,20.9359,18.3893,0.0894731,0.0,0.0
36,8.75,25.5638,28.034,156.79,102.027,103.313,0.00200912,0.104245,20.9184,18.2992,-0.112646,0.0,1.0
39,9.5,26.2436,29.2228,162.439,102.03,103.483,0.00207547,0.124166,20.9031,18.3793,-0.127186,0.0,1.0
42,10.25,27.6071,30.4935,158.027,102.054,103.278,0.00212384,0.138727,20.8877,18.1991,-0.107287,0.0,1.0
45,11,27.0897,31.8822,156.261,102.081,103.702,0.00209187,0.149408,20.877,18.2191,-0.141796,0.0,1.0
48,11.75,27.9834,32.4762,162.585,102.115,104.055,0.00204694,0.155788,20.8695,18.1791,-0.169341,0.0,1.0
51,12.5,28.2528,32.7596,164.558,102.153,103.108,0.00200495,0.15984,20.8641,18.079,-0.0837761,0.0,1.0
54,13.25,28.8748,33.3154,157.938,102.178,103.076,0.0019689,0.161394,20.8601,18.099,-0.0787071,0.0,1.0
57,14,27.9447,32.53,162.213,102.21,103.199,0.00194262,0.161802,20.8572,17.9789,-0.0866652,0.0,1.0
60,14.75,28.0692,32.9744,163.048,102.236,103.501,0.00193254,0.161879,20.8551,17.9789,-0.110611,0.0,0.0
63,15.5,28.1338,33.1578,168.206,102.264,103.661,0.00193282,0.161964,20.8535,17.9388,-0.122083,0.0,0.0
66,16.25,28.444,33.3204,165.148,102.293,103.254,0.00194231,0.162038,20.8524,17.9588,-0.0841079,0.0,0.0
69,17,28.3476,33.5873,161.16,102.313,104.155,0.00195954,0.162955,20.8516,17.8888,-0.160517,0.0,0.0
72,17.75,28.6175,33.4706,167.224,102.338,103.535,0.00199026,0.164071,20.8501,17.8387,-0.104616,0.0,0.0
75,18.5,28.4513,34.3345,163.501,102.373,103.946,0.00201467,0.165652,20.8487,17.7586,-0.137253,0.0,0.0
78,19.25,29.1301,33.9281,161.571,102.388,103.477,0.0020359,0.167402,20.8476,17.7486,-0.0951773,0.0,0.0
81,20,29.0165,34.8324,161.713,102.408,103.029,0.00204774,0.169446,20.846,17.6786,-0.0544415,0.0,0.0
84,20.75,29.2324,35.0066,162.1,102.438,104.007,0.00205905,0.171263,20.8444,17.6886,-0.136796,0.0,0.0
87,21.5,29.192,34.0981,164.406,102.438,104.094,0.00207189,0.173997,20.8408,17.6085,-0.144321,0.0,0.0
90,22.25,29.271,34.604,165.628,102.453,104.004,0.0020976,0.176879,20.8377,17.6085,-0.1352,0.0,0.0
93,23,29.6244,35.0803,160.788,102.481,103.643,0.00212103,0.179358,20.8353,17.5784,-0.10141,0.0,0.0
96,23.75,29.4634,35.5182,164.65,102.488,103.669,0.00214615,0.18179,20.8335,17.4884,-0.103116,0.0,0.0
99,24.5,29.6755,35.6589,163.099,102.491,104.459,0.00217354,0.183441,20.8322,17.4583,-0.171176,0.0,0.0
102,25.25,30.0455,35.4604,160.017,102.512,103.693,0.00219734,0.184433,20.8313,17.4583,-0.103005,0.0,0.0
105,26,29.5524,35.9061,158.789,102.52,104.016,0.0022143,0.184928,20.8306,17.4083,-0.130411,0.0,0.0
108,26.75,30.2936,36.3428,158.361,102.526,103.995,0.00222323,0.184924,20.8301,17.3682,-0.127982,0.0,0.0
111,27.5,30.7109,36.2576,161.019,102.53,104.232,0.00222638,0.184766,20.8297,17.2982,-0.148165,0.0,0.0
114,28.25,30.8492,36.347,165.413,102.555,103.563,0.00222294,0.184006,20.8295,17.2681,-0.0879845,0.0,0.0
117,29,30.3169,36.4259,160.741,102.561,103.97,0.0022368,0.183351,20.8301,17.2281,-0.122764,0.0,0.0
120,29.75,30.572,36.8523,166.692,102.574,103.672,0.00226301,0.182883,20.831,17.188,-0.0958284,0.0,0.0
123,30.5,30.5134,36.6559,155.564,102.579,104.216,0.00230966,0.182634,20.8316,17.108,-0.142434,0.0,0.0
126,31.25,30.6312,36.5343,159.818,102.596,104.149,0.00238372,0.182147,20.8321,17.128,-0.135148,0.0,0.0
129,32,31.0912,36.4844,161.853,102.596,103.842,0.00245942,0.181661,20.8324,17.0679,-0.108589,0.0,0.0
132,32.75,30.7385,36.5015,159.714,102.604,104.814,0.00252386,0.180355,20.8331,17.0679,-0.191695,0.0,0.0
135,33.5,30.7101,36.4476,160.59,102.599,103.686,0.00257084,0.179054,20.8338,17.0179,-0.0948434,0.0,0.0
138,34.25,30.6696,36.3745,165.452,102.62,104.22,0.00258687,0.177957,20.8348,17.0279,-0.139266,0.0,0.0
141,35,31.5248,36.4263,160.29,102.631,104.104,0.00259855,0.176889,20.8358,16.9578,-0.128241,0.0,0.0
144,35.75,31.4906,36.3667,162.509,102.631,104.124,0.00256337,0.17611,20.8372,16.9278,-0.129899,0.0,0.0
147,36.5,31.2523,36.3353,158.005,102.627,103.958,0.00251477,0.175171,20.8382,16.9178,-0.115999,0.0,0.0
150,37.25,30.4973,36.6567,159.457,102.648,103.652,0.00246216,0.174486,20.8389,16.8677,-0.0875973,0.0,0.0
153,38,31.0958,36.3329,162.635,102.654,104.597,0.00241119,0.173079,20.8407,16.9178,-0.168727,0.0,0.0
156,38.75,30.9474,36.9449,163.857,102.656,103.792,0.00235767,0.171735,20.8424,16.8076,-0.0990137,0.0,0.0
159,39.5,30.9255,36.8962,165.502,102.657,104.453,0.00231262,0.170209,20.8441,16.7676,-0.156025,0.0,0.0
162,40.25,30.99,36.8013,163.243,102.679,104.203,0.00226945,0.168706,20.8457,16.7175,-0.132558,0.0,0.0
165,41,30.7517,36.6469,166.772,102.685,104.547,0.00223799,0.167336,20.8473,16.6775,-0.161715,0.0,0.0
168,41.75,30.9828,37.1064,162.367,102.69,103.724,0.00221505,0.1661,20.8486,16.6475,-0.0901366,0.0,0.0
171,42.5,30.6144,36.4745,164.531,102.69,104.128,0.00222195,0.164992,20.8501,16.6174,-0.125071,0.0,0.0
174,43.25,30.5702,36.0154,160.715,102.688,103.904,0.00224229,0.164126,20.8513,16.5674,-0.105923,0.0,0.0
177,44,31.3344,36.417,159.884,102.703,103.637,0.00226363,0.163471,20.8522,16.5674,-0.0815189,0.0,0.0
180,44.75,30.9991,36.3299,165.538,102.708,104.116,0.00228602,0.162993,20.8526,16.5374,-0.122533,0.0,0.0
183,45.5,30.5427,35.996,166.822,102.708,103.683,0.00231792,0.162645,20.8532,16.5173,-0.0850013,0.0,0.0
186,46.25,30.7496,35.7827,163.422,102.713,103.408,0.00235151,0.162575,20.8536,16.4773,-0.0606722,0.0,0.0
189,47,30.4153,36.6234,158.667,102.705,103.985,0.00238692,0.162238,20.8538,16.4373,-0.111446,0.0,0.0
192,47.75,30.5862,36.1476,162.038,102.712,103.8,0.00241273,0.162065,20.854,16.3972,-0.0948348,0.0,0.0
195,48.5,30.4014,35.8555,162.714,102.709,104.106,0.00243155,0.161455,20.8542,16.3271,-0.121616,0.0,0.0
198,49.25,30.4314,35.8521,164.103,102.694,103.5,0.00242103,0.160638,20.8545,16.2671,-0.0703987,0.0,0.0
201,50,31.0145,35.7234,165.047,102.706,104.083,0.00239828,0.159746,20.8552,16.2571,-0.119775,0.0,0.0
204,50.75,30.7979,36.4558,166.454,102.708,103.822,0.00237356,0.158864,20.8556,16.227,-0.0970612,0.0,0.0
207,51.5,30.7468,36.1556,160.266,102.713,104.171,0.00236646,0.158106,20.8558,16.217,-0.126848,0.0,0.0
210,52.25,30.9156,35.8473,163.912,102.697,103.917,0.00238806,0.157505,20.8561,16.2571,-0.106273,0.0,0.0
213,53,31.0901,35.683,165.136,102.706,104.331,0.00243809,0.156821,20.8567,16.167,-0.141294,0.0,0.0
216,53.75,30.3248,35.6681,166.146,102.702,103.632,0.00251362,0.156164,20.8584,16.187,-0.0811427,0.0,0.0
219,54.5,30.4031,35.2678,158.868,102.703,103.683,0.00261983,0.155413,20.8596,16.1469,-0.0855243,0.0,0.0
222,55.25,30.3829,35.9377,160.227,102.691,103.914,0.00271905,0.154315,20.8605,16.0869,-0.106474,0.0,0.0
225,56,30.2846,36.037,163.174,102.698,104.053,0.00284644,0.153228,20.8612,16.0769,-0.117918,0.0,0.0
228,56.75,30.668,35.1317,168.127,102.682,104.629,0.00296277,0.152208,20.8621,16.0468,-0.168984,0.0,0.0
231,57.5,30.3991,35.6383,164.721,102.691,104.463,0.00307962,0.151285,20.863,15.9968,-0.153931,0.0,0.0
234,58.25,30.4098,35.2838,165.876,102.673,103.707,0.00319196,0.150256,20.8638,15.9167,-0.0901604,0.0,0.0
237,59,30.521,35.674,162.364,102.672,103.734,0.00329695,0.149353,20.8644,15.8867,-0.0925808,0.0,0.0
240,59.75,30.4311,35.4882,167.662,102.671,104.4,0.00343757,0.148695,20.8649,15.8566,-0.150255,0.0,0.0
243,60.5,30.5971,34.7031,161.921,102.664,103.55,0.00360695,0.147849,20.8652,15.8667,-0.0773356,0.0,0.0
246,61.25,30.5719,34.7788,164.271,102.659,104.19,0.00379966,0.147403,20.8654,15.8266,-0.133167,0.0,0.0
249,62,30.3579,34.8922,167.529,102.645,103.708,0.00400981,0.147379,20.8662,15.8166,-0.092759,0.0,0.0
252,62.75,30.0612,34.526,166.672,102.648,103.81,0.00419426,0.147339,20.8668,15.8266,-0.10136,0.0,0.0
255,63.5,29.9617,34.7355,162.364,102.639,103.889,0.00438214,0.147105,20.8674,15.7866,-0.108961,0.0,0.0
258,64.25,30.0273,34.9255,164.053,102.623,104.026,0.00455964,0.146222,20.8684,15.7866,-0.12217,0.0,0.0
261,65,30.3977,34.6459,158.534,102.613,104.003,0.00470606,0.144879,20.8692,15.7966,-0.12108,0.0,0.0
264,65.75,29.6243,34.5109,161.816,102.615,103.84,0.00484188,0.143221,20.8711,15.7165,-0.106791,0.0,0.0
267,66.5,30.3665,35.0497,166.743,102.609,103.558,0.00500182,0.141587,20.8729,15.6564,-0.0827946,0.0,0.0
270,67.25,29.8996,34.6797,165.707,102.595,103.479,0.00520007,0.140214,20.8743,15.6264,-0.0771868,0.0,0.0
273,68,30.3151,34.2823,164.751,102.568,103.423,0.00537941,0.13889,20.8754,15.6264,-0.0747171,0.0,0.0
276,68.75,30.0583,34.4645,162.184,102.569,103.114,0.00565285,0.137782,20.8767,15.5763,-0.0476354,0.0,0.0
279,69.5,30.2557,33.8122,162.473,102.559,103.556,0.0059352,0.136795,20.8777,15.5463,-0.0870394,0.0,0.0
282,70.25,30.2694,34.5905,165.686,102.562,103.48,0.00628299,0.135872,20.8792,15.5663,-0.0801935,0.0,0.0
285,71,29.636,34.4547,163.429,102.534,103.798,0.00663986,0.134929,20.8802,15.5363,-0.1103,0.0,0.0
288,71.75,30.1079,34.4702,165.007,102.524,103.821,0.00694406,0.134128,20.8809,15.4662,-0.113079,0.0,0.0
291,72.5,29.8966,34.2178,166.866,102.511,103.997,0.00725743,0.133301,20.8815,15.4662,-0.12948,0.0,0.0
294,73.25,29.5318,34.5257,160.812,102.501,103.465,0.00750161,0.132557,20.8819,15.3661,-0.0842173,0.0,0.0
297,74,30.0341,34.1319,165.522,102.482,103.698,0.00768772,0.131773,20.8822,15.3861,-0.106107,0.0,0.0
300,74.75,29.727,33.8576,163.713,102.456,103.197,0.00782575,0.130707,20.883,15.3461,-0.0648618,0.0,0.0
303,75.5,29.6048,34.1619,161.34,102.458,103.162,0.00792076,0.129526,20.884,15.206,-0.0616399,0.0,0.0
306,76.25,30.3897,34.2544,160.457,102.433,103.208,0.00799002,0.128334,20.885,15.266,-0.0678838,0.0,0.0
309,77,29.3954,34.0287,167.385,102.405,103.464,0.00802742,0.127225,20.8857,15.286,-0.0926116,0.0,0.0
312,77.75,29.7851,33.6459,167.62,102.408,103.946,0.00807173,0.126387,20.8862,15.1959,-0.134148,0.0,0.0
315,78.5,29.9543,33.5224,164.309,102.393,103.564,0.00813343,0.125765,20.8865,15.1859,-0.102261,0.0,0.0
318,79.25,30.006,34.268,166.415,102.396,102.865,0.00821623,0.125271,20.8868,15.1759,-0.0411081,0.0,0.0
321,80,30.1644,33.8447,166.802,102.358,103.3,0.00829388,0.124881,20.887,15.1759,-0.0824374,0.0,0.0
324,80.75,29.1724,33.117,160.142,102.352,103.291,0.00838006,0.124547,20.8879,15.0958,-0.0821489,0.0,0.0
327,81.5,29.0079,32.9936,163.488,102.335,103.01,0.00843368,0.124387,20.8885,15.0158,-0.0591475,0.0,0.0
330,82.25,29.5237,33.5421,160.837,102.313,103.011,0.00845433,0.124307,20.889,14.9857,-0.0611566,0.0,0.0
333,83,29.4984,33.3137,161.121,102.293,102.901,0.00844454,0.124206,20.8893,15.0358,-0.0533672,0.0,0.0
336,83.75,28.8575,33.1439,163.084,102.275,102.907,0.00843671,0.124122,20.8896,15.1159,-0.055416,0.0,0.0
339,84.5,29.4831,33.1719,164.117,102.275,103.459,0.00842982,0.124073,20.8898,15.0558,-0.103607,0.0,0.0
342,85.25,28.9545,33.2447,164.54,102.246,103.008,0.00844729,0.123996,20.8899,15.0458,-0.0667917,0.0,0.0
345,86,29.6286,33.151,160.359,102.222,103.218,0.00847109,0.123921,20.89,15.0158,-0.0872588,0.0,0.0
348,86.75,29.5376,32.7892,160.465,102.194,103.477,0.00850737,0.123746,20.8901,14.9056,-0.112231,0.0,0.0
351,87.5,29.309,33.1926,162.521,102.176,103.002,0.00854566,0.123492,20.8901,14.9056,-0.0724541,0.0,0.0
354,88.25,29.7151,33.4286,163.133,102.155,103.573,0.00858138,0.123092,20.8902,14.9257,-0.12408,0.0,0.0
357,89,29.3197,33.1854,164.4,102.126,102.967,0.00861216,0.122539,20.8902,14.8956,-0.0737437,0.0,0.0
360,89.75,29.5972,32.844,164.922,102.1,103.291,0.00862334,0.122195,20.8902,14.8356,-0.10443,0.0,0.0
363,90.5,29.0254,33.0368,165.242,102.081,103.257,0.00863149,0.122046,20.8902,14.7455,-0.10303,0.0,0.0
366,91.25,29.351,33.1848,164.599,102.046,103.023,0.00861493,0.121957,20.8902,14.7555,-0.0857831,0.0,0.0
369,92,29.3874,32.8112,165.71,102.017,102.854,0.00859939,0.121892,20.8902,14.7255,-0.0734798,0.0,0.0
372,92.75,29.12,33.173,165.732,101.977,102.767,0.00858216,0.121845,20.8902,14.7054,-0.06941,0.0,0.0
375,93.5,28.9968,32.9629,161.59,101.972,102.941,0.00856584,0.121911,20.8902,14.6754,-0.0851772,0.0,0.0
378,94.25,28.6821,32.7202,162.728,101.941,102.812,0.00854737,0.121959,20.8902,14.6554,-0.0765431,0.0,0.0
381,95,29.0076,32.71,169.644,101.918,102.474,0.00852627,0.122035,20.8902,14.6854,-0.0489538,0.0,0.0
384,95.75,29.183,32.966,167.243,101.9,102.527,0.0085026,0.122075,20.8902,14.6654,-0.0551894,0.0,0.0
387,96.5,29.3954,33.1567,159.919,101.867,102.833,0.00847222,0.122099,20.8902,14.6554,-0.0849617,0.0,0.0
390,97.25,29.2378,32.7962,164.915,101.848,102.816,0.00844446,0.122257,20.8902,14.6354,-0.0851783,0.0,0.0
393,98,29.0644,32.8722,168.843,101.837,102.915,0.00842285,0.122471,20.8902,14.5753,-0.0948055,0.0,0.0
396,98.75,28.8625,32.6663,161.085,101.86,102.902,0.00840888,0.122669,20.8902,14.5052,-0.0916244,0.0,0.0
399,99.5,28.7678,32.8855,165.752,101.841,102.608,0.00840578,0.122813,20.8902,14.4652,-0.0675487,0.0,0.0
402,100.25,28.9454,32.746,167.571,101.851,102.894,0.00840878,0.122844,20.8902,14.4251,-0.0916401,0.0,0.0
405,101,28.671,32.6294,163.79,101.844,102.797,0.00841183,0.12274,20.8902,14.4151,-0.0837956,0.0,0.0
408,101.75,28.9095,32.6997,168.74,101.857,102.779,0.00841168,0.122622,20.8902,14.3651,-0.0811324,0.0,0.0
411,102.5,29.1859,32.5696,168.219,101.844,102.417,0.00838722,0.122547,20.8902,14.3851,-0.0504666,0.0,0.0
414,103.25,29.1929,32.3609,164.282,101.856,102.768,0.00836939,0.122543,20.8902,14.315,-0.0802162,0.0,0.0
417,104,29.0452,32.4973,163.409,101.849,102.967,0.00830128,0.1223,20.8902,14.4652,-0.0981792,0.0,0.0
420,104.75,28.9777,32.0967,165.434,101.857,103.017,0.00822813,0.121742,20.89,14.3751,-0.101861,0.0,0.0
423,105.5,28.4976,32.633,165.878,101.855,103.053,0.00814073,0.121174,20.8903,14.3951,-0.105253,0.0,0.0
426,106.25,29.084,32.2464,160.296,101.87,102.647,0.00805069,0.120493,20.8908,14.3451,-0.0683637,0.0,0.0
429,107,28.9611,32.3712,160.749,101.865,102.309,0.00798003,0.119541,20.8911,14.315,-0.039125,0.0,0.0
432,107.75,28.6825,32.3786,167.733,101.863,103.008,0.00794424,0.11934,20.8913,14.2249,-0.100535,0.0,0.0
435,108.5,29.0141,32.5432,160.317,101.853,103.088,0.00794348,0.119402,20.8915,14.1949,-0.108479,0.0,0.0
438,109.25,28.7974,32.2698,165.893,101.86,102.976,0.00797477,0.120472,20.8916,14.1649,-0.098023,0.0,0.0
441,110,28.769,32.2703,161.42,101.874,102.869,0.00807246,0.121326,20.8912,14.1749,-0.08747,0.0,0.0
444,110.75,29.1938,32.5173,161.644,101.881,102.835,0.00819098,0.122075,20.8908,14.2249,-0.0839201,0.0,0.0
447,111.5,28.9441,32.4915,166.19,101.878,102.998,0.00829755,0.12242,20.8905,14.1749,-0.0983402,0.0,0.0
450,112.25,28.782,32.6542,161.499,101.868,102.988,0.00840812,0.122545,20.89,14.1248,-0.0983982,0.0,0.0
453,113,29.3654,32.6552,160.727,101.889,103.032,0.00850274,0.12259,20.8893,14.1549,-0.100357,0.0,0.0
456,113.75,29.0776,32.8523,165.135,101.887,102.667,0.00853795,0.122635,20.8892,14.0648,-0.068608,0.0,0.0
459,114.5,29.3255,33.1325,166.479,101.885,102.762,0.008536,0.12271,20.8893,14.1048,-0.0771052,0.0,0.0
462,115.25,29.4376,32.6127,160.597,101.916,102.628,0.00852282,0.122783,20.8894,14.1549,-0.0626504,0.0,0.0
465,116,29.3593,32.693,166.513,101.901,102.503,0.00845888,0.122568,20.8894,14.0648,-0.052976,0.0,0.0
468,116.75,29.6012,32.8164,165.878,101.917,102.398,0.0083952,0.122224,20.8897,14.0748,-0.0424067,0.0,0.0
471,117.5,29.4051,32.1988,163.428,101.908,102.657,0.00834151,0.121846,20.8903,14.0648,-0.0659002,0.0,0.0
474,118.25,29.2668,32.5781,168.921,101.915,102.793,0.00830423,0.121345,20.8907,14.0047,-0.0771241,0.0,0.0
477,119,28.7706,32.4363,165.418,101.915,102.737,0.00827706,0.120795,20.8911,13.9647,-0.0722659,0.0,0.0
480,119.75,29.3725,32.9698,161.997,101.923,103.101,0.00827785,0.120243,20.8913,13.9747,-0.103421,0.0,0.0
483,120.5,29.3278,32.4504,166.277,101.917,102.756,0.00828105,0.11994,20.8914,13.9546,-0.0737529,0.0,0.0
486,121.25,29.6583,32.7438,168.452,101.915,102.968,0.00828312,0.11972,20.8916,13.9146,-0.0925336,0.0,0.0
489,122,29.0265,32.7817,167.414,101.932,103.09,0.00828226,0.119459,20.8917,13.9146,-0.101656,0.0,0.0
492,122.75,28.9724,32.9645,166.544,101.934,102.893,0.0082777,0.119187,20.8922,13.8545,-0.0842492,0.0,0.0
495,123.5,29.1645,32.2287,171.477,101.929,102.745,0.0082727,0.11885,20.8927,13.8545,-0.071762,0.0,0.0
498,124.25,29.0895,32.7586,165.563,101.933,102.973,0.00827841,0.118463,20.8931,13.8345,-0.0913036,0.0,0.0
501,125,28.8773,32.4748,162.259,101.954,102.568,0.0082852,0.118048,20.8936,13.7945,-0.0540049,0.0,0.0
504,125.75,29.0752,32.4247,163.462,101.96,102.595,0.00829127,0.117619,20.8944,13.7845,-0.0558888,0.0,0.0
507,126.5,29.1808,32.643,162.729,101.953,102.694,0.00829307,0.117166,20.895,13.7945,-0.0651173,0.0,0.0
510,127.25,29.4666,32.5767,162.18,101.955,102.515,0.00829327,0.116761,20.8954,13.7745,-0.0492811,0.0,0.0
513,128,29.163,32.6871,168.12,101.957,103.046,0.00829203,0.11634,20.8957,13.7544,-0.0955416,0.0,0.0
516,128.75,29.2868,32.301,158.757,101.973,102.463,0.00828876,0.115921,20.8961,13.7544,-0.0431461,0.0,0.0
519,129.5,28.8083,32.4346,170.36,101.967,102.646,0.00829761,0.115568,20.8964,13.7044,-0.0597603,0.0,0.0
522,130.25,28.7879,32.6765,163.227,101.965,102.658,0.00830275,0.115259,20.8966,13.7144,-0.0609449,0.0,0.0
525,131,28.5958,32.2922,164.127,101.977,102.967,0.00830179,0.114945,20.8967,13.7244,-0.0869246,0.0,0.0
528,131.75,28.6889,32.4452,164.539,101.996,102.474,0.008294,0.114786,20.8968,13.6844,-0.0421394,0.0,0.0
531,132.5,28.7847,32.4729,161.59,101.997,102.897,0.00829769,0.114634,20.8973,13.6944,-0.0790204,0.0,0.0
534,133.25,28.8095,32.4161,162.639,101.998,102.921,0.00830038,0.114409,20.8979,13.6643,-0.0810686,0.0,0.0
537,134,28.6147,32.3396,166.457,101.992,103.015,0.00835292,0.113866,20.8983,13.6243,-0.0897509,0.0,0.0
540,134.75,28.6033,32.3584,163.208,102.006,102.335,0.00841338,0.113133,20.8986,13.5943,-0.0289674,0.0,0.0
543,135.5,29.0333,32.2593,168.221,102.012,102.589,0.00849531,0.112456,20.8995,13.5843,-0.0507147,0.0,0.0
546,136.25,28.3408,32.2295,164.436,102.009,102.98,0.0085832,0.111603,20.9001,13.5342,-0.0852806,0.0,0.0
549,137,28.5722,32.0002,166.327,102.016,102.458,0.00864727,0.110981,20.9007,13.5042,-0.0388772,0.0,0.0
552,137.75,28.7437,32.2737,163.993,102.037,103.176,0.00868705,0.110248,20.9016,13.4141,-0.0999465,0.0,0.0
555,138.5,28.6637,32.0342,167.659,102.036,103.192,0.00870421,0.10956,20.9023,13.4441,-0.101422,0.0,0.0
558,139.25,28.661,31.704,162.865,102.019,102.718,0.00869607,0.108912,20.9032,13.4441,-0.0614849,0.0,0.0
561,140,28.1186,31.8663,160.72,102.028,102.815,0.00869014,0.108301,20.904,13.4641,-0.0691517,0.0,0.0
564,140.75,28.2364,31.7997,160.507,102.047,103.37,0.00865206,0.107358,20.9046,13.4942,-0.115917,0.0,0.0
567,141.5,28.6471,32.5136,168.799,102.052,102.622,0.00860195,0.106487,20.9053,13.5242,-0.050109,0.0,0.0
570,142.25,28.7689,31.9506,162.726,102.048,102.816,0.00854761,0.105537,20.9062,13.4341,-0.0674742,0.0,0.0
573,143,28.2964,31.7269,168.449,102.044,102.876,0.00849381,0.104706,20.9068,13.4641,-0.0730975,0.0,0.0
576,143.75,28.401,31.9274,162.091,102.055,102.605,0.00843585,0.104049,20.9073,13.4741,-0.0483946,0.0,0.0
579,144.5,28.241,31.7969,164.244,102.059,103.034,0.00838946,0.103482,20.9077,13.4541,-0.0855497,0.0,0.0
582,145.25,28.6549,32.0525,166.194,102.063,102.716,0.00834855,0.102889,20.9085,13.4341,-0.057454,0.0,0.0
585,146,28.9253,31.7821,162.494,102.052,102.861,0.00831517,0.102392,20.9093,13.384,-0.0710338,0.0,0.0
588,146.75,28.6546,31.6344,167.306,102.061,102.55,0.00829083,0.101916,20.9099,13.324,-0.0430103,0.0,0.0
591,147.5,28.2176,31.7887,163.29,102.065,102.74,0.00828433,0.101311,20.9104,13.304,-0.0593127,0.0,0.0
594,148.25,28.5027,31.3078,161.226,102.06,103.072,0.00829534,0.100752,20.911,13.294,-0.0888176,0.0,0.0
597,149,28.6462,31.3423,163.661,102.067,102.837,0.00831008,0.100146,20.9118,13.294,-0.0676152,0.0,0.0
600,149.75,28.3822,31.2103,161.386,102.072,102.7,0.00834332,0.0994811,20.9124,13.314,-0.0551862,0.0,0.0
603,150.5,28.6143,30.5963,165.976,102.078,102.6,0.00836754,0.0989015,20.9129,13.304,-0.0459053,0.0,0.0
606,151.25,28.1786,31.4254,164.007,102.071,103.159,0.00837995,0.0983004,20.9132,13.354,-0.0953833,0.0,0.0
609,152,27.8878,31.1897,164.249,102.079,103.322,0.00837639,0.0978036,20.9137,13.294,-0.108943,0.0,0.0
612,152.75,28.2347,31.1447,166.8,102.069,102.727,0.00835606,0.0973413,20.914,13.2839,-0.0578896,0.0,0.0
615,153.5,28.3136,31.1645,165.372,102.088,102.652,0.0083038,0.0969677,20.9142,13.2839,-0.0495179,0.0,0.0
618,154.25,28.1815,31.2441,165.993,102.089,102.306,0.00825189,0.0966328,20.9144,13.2839,-0.0191158,0.0,0.0
621,155,26.5111,30.0276,165.147,102.082,102.563,0.00819044,0.096468,20.9145,13.2439,-0.0422973,0.0,0.0
624,155.75,26.3364,29.6083,164.024,102.088,102.782,0.00812454,0.0962644,20.9146,13.2339,-0.0609563,0.0,0.0
627,156.5,26.4791,29.9048,164.389,102.099,103.214,0.00805716,0.0960804,20.9146,13.2239,-0.0977345,0.0,0.0
630,157.25,26.2394,29.6548,165.737,102.107,102.705,0.00799035,0.0955498,20.9145,13.2339,-0.0525342,0.0,0.0
633,158,26.5645,29.2695,168.076,102.085,102.582,0.00792296,0.0950895,20.9148,13.1838,-0.043685,0.0,0.0
636,158.75,26.7555,29.6352,169.031,102.092,102.605,0.00786991,0.0946282,20.9152,13.1738,-0.0451393,0.0,0.0
639,159.5,26.6481,29.8829,162.345,102.097,102.661,0.00782956,0.0942364,20.9155,13.1538,-0.0495961,0.0,0.0
642,160.25,26.9159,29.2275,166.05,102.1,102.898,0.00779828,0.0939124,20.9157,13.1538,-0.0700905,0.0,0.0
645,161,26.6386,29.2058,165.444,102.1,102.609,0.00777548,0.0936513,20.9158,13.1338,-0.044673,0.0,0.0
648,161.75,26.6272,29.3411,163.784,102.103,102.435,0.00772711,0.0935401,20.9159,13.1538,-0.0292429,0.0,0.0
651,162.5,26.3833,29.498,165.706,102.107,102.742,0.00766962,0.0933896,20.916,13.1538,-0.0557587,0.0,0.0
654,163.25,26.5138,29.7488,164.951,102.11,102.886,0.0076079,0.0932503,20.9161,13.1238,-0.0681232,0.0,0.0
657,164,26.0814,29.3434,168.867,102.108,102.98,0.00754526,0.0928518,20.9161,13.1138,-0.0765853,0.0,0.0
660,164.75,26.5773,29.3455,166.821,102.112,102.639,0.00749959,0.0925321,20.9162,13.1038,-0.046356,0.0,0.0
663,165.5,26.2485,29.4496,163.602,102.118,103.021,0.00747456,0.092249,20.9162,13.0937,-0.0792314,0.0,0.0
666,166.25,26.7049,29.7069,165.147,102.122,102.831,0.00747043,0.0920823,20.9162,13.0737,-0.0622712,0.0,0.0
669,167,25.9104,29.1895,162.638,102.121,102.899,0.00748607,0.0919826,20.9162,13.0637,-0.0682869,0.0,0.0
672,167.75,26.4148,29.2833,165.963,102.111,102.377,0.00749748,0.0919474,20.9162,13.0537,-0.0234463,0.0,0.0
675,168.5,26.4041,29.3225,164.401,102.129,102.623,0.007489,0.0920208,20.9162,13.0437,-0.0434317,0.0,0.0
678,169.25,26.169,29.245,168.529,102.142,102.304,0.00745145,0.0921839,20.9162,13.0337,-0.014283,0.0,0.0
681,170,26.4106,29.2352,166.583,102.142,102.683,0.0074107,0.0924902,20.9162,13.0637,-0.0475491,0.0,0.0
684,170.75,26.1599,29.1258,166.094,102.135,102.591,0.00732138,0.092872,20.9162,13.0337,-0.0400575,0.0,0.0
687,171.5,26.12,29.0965,161.294,102.14,103.065,0.00723931,0.0931137,20.916,13.0237,-0.0810832,0.0,0.0
690,172.25,26.52,28.9775,168.878,102.162,103.153,0.00717224,0.0932275,20.9155,13.0137,-0.0868532,0.0,0.0
693,173,26.5046,28.9605,166.601,102.155,102.815,0.0071066,0.0933937,20.9151,13.0137,-0.0579528,0.0,0.0
696,173.75,26.067,28.9803,164.265,102.152,102.715,0.00705875,0.0935724,20.9148,12.9836,-0.0494866,0.0,0.0
699,174.5,26.6585,29.4238,167.419,102.158,102.81,0.00699411,0.0937402,20.9148,12.9636,-0.057277,0.0,0.0
702,175.25,26.4246,29.5104,161.092,102.185,102.618,0.00694699,0.0937236,20.9149,12.9436,-0.0380606,0.0,0.0
705,176,26.132,29.5026,162.058,102.173,102.787,0.00683831,0.0936522,20.915,12.9436,-0.0539413,0.0,0.0
708,176.75,26.5566,29.2345,163.577,102.173,102.974,0.00672758,0.0933503,20.915,12.9136,-0.0702381,0.0,0.0
711,177.5,26.6997,29.2701,167.202,102.156,102.635,0.006593,0.0930237,20.9157,12.8935,-0.0420742,0.0,0.0
714,178.25,26.5726,29.4317,165.671,102.19,103.1,0.00645072,0.0928846,20.9162,12.8935,-0.0797627,0.0,0.0
717,179,26.7769,29.5222,167.204,102.157,102.944,0.00631129,0.0927831,20.9165,12.8835,-0.0690144,0.0,0.0
720,179.75,26.3096,29.2358,162.084,102.166,103.066,0.00620313,0.0930657,20.9168,12.8735,-0.0789192,0.0,0.0
723,180.5,26.1186,29.2477,164.502,102.159,102.841,0.00612545,0.0932864,20.9165,12.8935,-0.0598807,0.0,0.0
726,181.25,26.6215,29.0652,165.393,102.168,102.809,0.00607791,0.0934722,20.9162,12.8935,-0.0562623,0.0,0.0
729,182,26.3408,29.3259,170.536,102.179,103.03,0.00604713,0.0937464,20.9159,12.8835,-0.0745673,0.0,0.0
732,182.75,26.0591,29.0902,165.756,102.178,102.948,0.00603765,0.0940852,20.9157,12.8835,-0.0675206,0.0,0.0
735,183.5,26.1858,29.4144,168.577,102.172,102.664,0.00602945,0.0944354,20.9156,12.8435,-0.0432145,0.0,0.0
738,184.25,26.0596,29.0168,167.396,102.17,102.576,0.00601881,0.0947657,20.9154,12.8134,-0.0356792,0.0,0.0
741,185,26.1945,29.4533,164.907,102.156,102.675,0.00600404,0.0950066,20.9154,12.7834,-0.0456185,0.0,0.0
744,185.75,26.4804,29.3882,161.372,102.163,102.754,0.00597847,0.0951236,20.9153,12.8134,-0.051923,0.0,0.0
747,186.5,26.6793,29.1877,164.701,102.162,102.54,0.00595463,0.0951088,20.9153,12.8134,-0.0332337,0.0,0.0
750,187.25,26.618,28.9031,163.118,102.158,103.322,0.00593504,0.0950584,20.9152,12.7734,-0.102001,0.0,0.0
753,188,26.5602,29.297,165.773,102.178,102.879,0.00592816,0.0950216,20.9152,12.7734,-0.0615368,0.0,0.0
756,188.75,26.2187,29.4743,166.054,102.157,102.79,0.00592315,0.0949802,20.9152,12.7834,-0.0555812,0.0,0.0
759,189.5,26.5947,29.3512,166.118,102.154,103.314,0.00593801,0.094925,20.9152,12.7834,-0.101565,0.0,0.0
762,190.25,26.5017,29.5905,165.167,102.134,103.029,0.00595144,0.0948153,20.9152,12.7734,-0.0785507,0.0,0.0
765,191,26.8683,29.6194,165.113,102.138,102.65,0.00596234,0.0947057,20.9152,12.7834,-0.0450185,0.0,0.0
768,191.75,26.2138,29.5299,162.359,102.143,102.602,0.00593696,0.0946654,20.9152,12.7734,-0.0403096,0.0,0.0
771,192.5,27.279,29.3921,169.707,102.134,103.264,0.00588992,0.094636,20.9152,12.7734,-0.0989665,0.0,0.0
774,193.25,26.3809,29.6541,165.167,102.126,102.704,0.00583186,0.094575,20.9152,12.7734,-0.0508247,0.0,0.0
777,194,26.6176,29.6049,163.62,102.131,102.887,0.0057697,0.0945159,20.9152,12.7834,-0.0663654,0.0,0.0
780,194.75,26.2404,29.5669,167.385,102.135,103.243,0.00570406,0.0944624,20.9152,12.7334,-0.0970405,0.0,0.0
783,195.5,26.668,29.8754,160.349,102.121,103.206,0.00565621,0.0944484,20.9152,12.7133,-0.0950516,0.0,0.0
786,196.25,26.5207,29.7423,162.189,102.111,103.107,0.00559915,0.0944521,20.9152,12.7234,-0.087346,0.0,0.0
789,197,26.4074,29.7952,160.19,102.125,102.856,0.00555756,0.0945024,20.9152,12.7133,-0.0641898,0.0,0.0
792,197.75,26.5044,29.424,163.809,102.118,102.848,0.00552594,0.0945569,20.9152,12.7133,-0.0641012,0.0,0.0
795,198.5,26.9422,30.1385,165.67,102.103,103.22,0.00550507,0.0944975,20.9153,12.7234,-0.0979807,0.0,0.0
798,199.25,26.6472,29.2056,163.287,102.093,102.409,0.00549451,0.0944542,20.9153,12.7133,-0.0278246,0.0,0.0
801,200,26.6072,29.5885,163.029,102.099,102.767,0.00549236,0.0941032,20.9154,12.6733,-0.0586778,0.0,0.0
804,200.75,26.561,29.8035,165.076,102.096,102.947,0.00549216,0.0937111,20.9154,12.6433,-0.0746841,0.0,0.0
807,201.5,26.3211,30.0369,165.628,102.087,102.931,0.00549434,0.0932867,20.9154,12.6333,-0.0740931,0.0,0.0
810,202.25,26.1973,29.2025,171.856,102.087,102.594,0.00548669,0.0929481,20.9159,12.5832,-0.0445744,0.0,0.0
813,203,26.3226,29.5055,161.519,102.086,102.821,0.00548112,0.0926513,20.9164,12.6032,-0.0645442,0.0,0.0
816,203.75,26.6063,29.0319,166.783,102.08,103.241,0.00546043,0.0925735,20.9167,12.6132,-0.101704,0.0,0.0
819,204.5,26.5922,29.2052,167.71,102.076,103.243,0.00544017,0.0924474,20.917,12.6032,-0.102291,0.0,0.0
822,205.25,26.9026,29.3034,166.782,102.043,102.782,0.00540378,0.0923258,20.9172,12.6032,-0.064959,0.0,0.0
825,206,26.1086,28.7937,163.542,102.061,102.851,0.00536898,0.0919799,20.9174,12.6032,-0.0693214,0.0,0.0
828,206.75,26.7232,29.0579,167.423,102.059,102.977,0.0052938,0.0917351,20.9175,12.6132,-0.0805674,0.0,0.0
831,207.5,26.1761,29.2281,169.055,102.04,102.886,0.00520281,0.0915691,20.9175,12.5832,-0.0743386,0.0,0.0
834,208.25,26.4271,29.4542,165.772,102.03,102.773,0.00510753,0.0915272,20.9176,12.5732,-0.0652983,0.0,0.0
837,209,26.2767,29.4915,166.216,102.018,103.2,0.00501493,0.0915106,20.9176,12.5732,-0.103655,0.0,0.0
840,209.75,26.2572,29.5476,167.299,102.022,102.557,0.00493113,0.0914897,20.9177,12.5632,-0.0470892,0.0,0.0
843,210.5,26.2377,29.3529,164.257,101.999,102.723,0.00484218,0.0914496,20.9179,12.5732,-0.0636248,0.0,0.0
846,211.25,26.4255,29.3001,162.772,101.991,102.629,0.00476056,0.0913795,20.9181,12.5832,-0.0561122,0.0,0.0
849,212,26.248,29.4992,159.384,101.984,103.162,0.00469392,0.091311,20.9182,12.5732,-0.103307,0.0,0.0
852,212.75,26.1357,29.1743,163.464,101.972,102.739,0.00463431,0.0915184,20.9183,12.5732,-0.0674023,0.0,0.0
855,213.5,26.5578,29.568,164.436,101.964,102.802,0.00461931,0.0917645,20.9184,12.5832,-0.0736896,0.0,0.0
858,214.25,26.3977,29.1713,159.181,101.947,102.931,0.00461216,0.0921064,20.9184,12.5632,-0.0864102,0.0,0.0
861,215,25.8443,29.2915,168.777,101.928,102.792,0.00462436,0.0923755,20.9185,12.5432,-0.0759589,0.0,0.0
864,215.75,26.0778,29.5405,164.801,101.939,103.1,0.00464246,0.0925497,20.9185,12.5532,-0.101841,0.0,0.0
867,216.5,26.2449,29.9716,164.437,101.923,102.603,0.00465565,0.0926124,20.9185,12.5532,-0.0598386,0.0,0.0
870,217.25,26.4513,29.3743,164.896,101.912,103.063,0.00465606,0.0926651,20.9186,12.5432,-0.101036,0.0,0.0
873,218,26.1505,29.4488,162.609,101.896,102.71,0.0046408,0.0925508,20.9186,12.5532,-0.0716458,0.0,0.0
876,218.75,26.0386,29.0865,168.951,101.89,102.591,0.00462316,0.0924024,20.9186,12.5131,-0.061674,0.0,0.0
879,219.5,26.5976,29.4658,164.676,101.874,102.442,0.00457337,0.0920369,20.9186,12.5031,-0.0500124,0.0,0.0
882,220.25,26.5944,29.597,165.605,101.867,102.714,0.00453708,0.0917047,20.9192,12.4631,-0.0745668,0.0,0.0
885,221,26.3898,29.8761,165.771,101.859,102.683,0.00449773,0.0914562,20.9196,12.4931,-0.0725082,0.0,0.0
888,221.75,26.7389,29.4619,164.093,101.855,102.299,0.00446085,0.0911395,20.9197,12.4831,-0.0391853,0.0,0.0
891,222.5,26.2406,29.7756,166.492,101.845,102.763,0.00442932,0.0908579,20.9198,12.4731,-0.0807628,0.0,0.0
894,223.25,26.6535,29.7118,166.792,101.849,102.438,0.00439532,0.0906526,20.9199,12.4831,-0.0519268,0.0,0.0
897,224,26.0146,29.6969,163.276,101.875,102.544,0.00437053,0.090503,20.9199,12.4831,-0.0588322,0.0,0.0
900,224.75,26.3454,30.0009,164.057,101.934,102.486,0.00434878,0.0902753,20.9199,12.4631,-0.0486302,0.0,0.0
903,225.5,26.822,29.7455,163.042,101.997,102.689,0.00433422,0.0900509,20.92,12.4431,-0.0608656,0.0,0.0
906,226.25,26.4535,29.6846,160.714,102.07,102.717,0.00432716,0.0897875,20.92,12.413,-0.0569159,0.0,0.0
909,227,26.2239,29.4134,162.404,102.126,102.906,0.00430248,0.0895539,20.92,12.433,-0.0685145,0.0,0.0
912,227.75,26.8296,29.1506,163.359,102.186,102.948,0.00426904,0.0893659,20.9202,12.4431,-0.066782,0.0,0.0
915,228.5,26.3669,29.1301,165.675,102.254,102.831,0.00423807,0.0892288,20.9208,12.433,-0.0505949,0.0,0.0
918,229.25,26.4133,29.3544,163.005,102.297,102.96,0.00418615,0.0890894,20.9212,12.433,-0.0580743,0.0,0.0
921,230,25.9963,29.7117,168.746,102.345,103.679,0.00413929,0.0889576,20.9215,12.403,-0.11658,0.0,0.0
924,230.75,25.5727,29.51,165.379,102.391,103.038,0.00410129,0.0889114,20.9217,12.393,-0.0566493,0.0,0.0
927,231.5,26.3396,29.4893,169.744,102.457,103.451,0.0040556,0.0888639,20.9219,12.413,-0.086832,0.0,0.0
930,232.25,26.5675,29.1897,167.465,102.497,103.267,0.00400852,0.088765,20.922,12.403,-0.0673445,0.0,0.0
933,233,26.3999,29.2474,166.834,102.526,103.162,0.0039638,0.0885931,20.9221,12.413,-0.0556346,0.0,0.0
936,233.75,26.2302,29.0963,163.999,102.558,103.465,0.00391835,0.0883431,20.9222,12.393,-0.0792536,0.0,0.0
939,234.5,26.211,29.2101,166.041,102.591,102.891,0.00387433,0.0881077,20.9222,12.363,-0.0263275,0.0,0.0
942,235.25,26.381,29.5684,165.978,102.626,103.376,0.003833,0.0878571,20.9222,12.343,-0.0655409,0.0,0.0
945,236,26.5201,29.3446,165.048,102.656,103.362,0.00378875,0.087689,20.9223,12.3329,-0.061702,0.0,0.0
948,236.75,26.5668,29.2523,165.768,102.659,103.811,0.00374979,0.0875914,20.9223,12.3329,-0.100448,0.0,0.0
951,237.5,26.5887,29.2636,163.242,102.693,103.358,0.00371228,0.0875064,20.9223,12.3329,-0.0580759,0.0,0.0
954,238.25,25.7895,29.8181,169.058,102.723,103.078,0.00371795,0.0874093,20.9223,12.3329,-0.0310947,0.0,0.0
957,239,26.4525,29.9068,166.343,102.726,103.414,0.00372449,0.0872887,20.9223,12.3029,-0.0600826,0.0,0.0
960,239.75,26.0713,29.9419,167.214,102.713,103.297,0.00375491,0.0871811,20.9223,12.2829,-0.0509752,0.0,0.0
963,240.5,26.7974,29.7451,166.944,102.721,103.367,0.0037764,0.0871507,20.9223,12.2829,-0.0564539,0.0,0.0
966,241.25,26.2991,30.0558,166.14,102.721,103.689,0.00378416,0.0871707,20.9223,12.2629,-0.084357,0.0,0.0
969,242,26.7232,29.9322,164.14,102.712,103.665,0.00377825,0.0870968,20.9223,12.2829,-0.0831043,0.0,0.0
972,242.75,26.4931,29.9457,160.122,102.695,103.718,0.00376367,0.0870017,20.9223,12.2829,-0.0892379,0.0,0.0
975,243.5,26.5314,29.8512,164.384,102.695,103.948,0.00374867,0.0868336,20.9228,12.2729,-0.109069,0.0,0.0
978,244.25,26.6012,29.8994,169.946,102.669,103.305,0.00374043,0.0866695,20.9233,12.2629,-0.05564,0.0,0.0
981,245,26.7282,30.1227,166.427,102.64,103.69,0.00373905,0.086554,20.9242,12.2629,-0.091626,0.0,0.0
984,245.75,26.2529,29.7365,163.902,102.603,103.611,0.00373804,0.0865072,20.9248,12.3029,-0.0879851,0.0,0.0
987,246.5,26.6985,29.8048,166.953,102.554,103.506,0.00377945,0.0864731,20.9247,12.2729,-0.0830647,0.0,0.0
990,247.25,26.3013,29.6746,163.002,102.523,103.133,0.00383163,0.08631,20.9248,12.2428,-0.0533235,0.0,0.0
993,248,26.3146,29.8631,164.593,102.47,103.395,0.003869,0.0861911,20.9253,12.2228,-0.0808624,0.0,0.0
996,248.75,26.436,29.5568,162.374,102.429,103.091,0.00389508,0.0860255,20.9256,12.2428,-0.0579852,0.0,0.0
999,249.5,26.5755,29.6988,165.157,102.363,103.186,0.00390126,0.0859558,20.9259,12.2428,-0.0720978,0.0,0.0
1002,250.25,26.323,29.7732,165.549,102.3,103.04,0.00389035,0.0859921,20.9261,12.2428,-0.0648731,0.0,0.0
1005,251,26.3609,29.5421,164.069,102.242,103.312,0.00387582,0.0859791,20.9262,12.2128,-0.0936711,0.0,0.0
1008,251.75,26.6901,29.7377,166.545,102.167,102.984,0.00383408,0.0858866,20.9263,12.2128,-0.0716988,0.0,0.0
1011,252.5,26.3161,29.8177,165.038,102.08,102.962,0.00381275,0.0857838,20.9264,12.2028,-0.0773957,0.0,0.0
1014,253.25,26.2096,30.205,166.492,102.06,103.05,0.00372039,0.0857286,20.9264,12.2228,-0.0868336,0.0,0.0
1017,254,26.7531,29.8851,168.732,102.061,102.888,0.00363382,0.085716,20.9265,12.1928,-0.0726239,0.0,0.0
1020,254.75,26.5729,30.1915,161.513,102.074,102.903,0.00355509,0.0857186,20.9265,12.2028,-0.0727098,0.0,0.0
1023,255.5,26.4755,29.5373,162.303,102.093,102.846,0.00348502,0.0857476,20.9265,12.1928,-0.0661384,0.0,0.0
1026,256.25,26.1433,29.437,163.79,102.135,103.086,0.00343027,0.0857374,20.9265,12.2028,-0.0833376,0.0,0.0
1029,257,26.2952,29.7229,161.015,102.158,102.809,0.00340499,0.0856553,20.9265,12.2028,-0.0571496,0.0,0.0
1032,257.75,26.3,29.4906,164.841,102.188,102.94,0.00337925,0.0854375,20.9265,12.2028,-0.0660358,0.0,0.0
1035,258.5,26.4231,29.8429,168.288,102.218,103.124,0.00336414,0.0852715,20.9265,12.1928,-0.0794056,0.0,0.0
1038,259.25,26.6006,29.8749,167.187,102.249,103.265,0.00335312,0.085138,20.9266,12.1828,-0.0890071,0.0,0.0
1041,260,26.2784,30.4125,166.498,102.286,103.088,0.00330854,0.0850421,20.9266,12.1628,-0.0702646,0.0,0.0
1044,260.75,26.7505,29.8281,165.778,102.314,102.986,0.00325853,0.0848483,20.9266,12.1828,-0.0588716,0.0,0.0
1047,261.5,26.405,29.9138,165.262,102.341,102.964,0.00319212,0.0846717,20.9266,12.1628,-0.0546077,0.0,0.0
1050,262.25,26.8826,29.821,162.844,102.387,103.299,0.00312363,0.0844443,20.9266,12.1528,-0.0798472,0.0,0.0
1053,263,26.4161,30.1453,161.757,102.422,103.626,,0.0842566,,12.1528,-0.105121,0.0,0.0
1056,263.75,26.4006,29.8928,166.054,102.454,103.139,,0.0840825,,12.1427,-0.0599816,0.0,0.0
1059,264.5,26.4849,30.0432,167.096,102.489,103.433,,0.0839411,,12.1327,-0.0825348,0.0,0.0
1062,265.25,26.5039,29.7709,168.91,102.509,103.186,,0.083813,,12.1427,-0.0592252,0.0,0.0
1065,266,26.5907,29.9103,165.109,102.562,103.248,,,,12.1327,-0.0600545,0.0,0.0
1068,266.75,26.1322,29.9212,163.856,102.589,103.526,,,,12.1427,-0.0817673,0.0,0.0
1071,267.5,26.6506,29.985,169.855,102.6,103.401,,,,12.1327,-0.0699435,0.0,0.0
1074,268.25,27.0782,29.7021,164.699,102.635,103.997,,,,12.1427,-0.118665,0.0,0.0
1077,269,26.2419,29.893,166.318,102.685,103.567,,,,12.1227,-0.0769759,0.0,0.0
1080,269.75,26.3887,29.8885,167.24,102.715,103.723,,,,12.1027,-0.0878859,0.0,0.0
1083,270.5,26.3416,29.2603,167.205,102.714,103.342,,,,12.1027,-0.0548381,0.0,0.0
1086,271.25,26.4565,29.7538,164.436,102.741,103.864,,,,12.1027,-0.0977888,0.0,0.0
1089,272,26.4173,29.2755,162.484,102.764,103.984,,,,12.1127,-0.106182,0.0,0.0
1092,272.75,26.4716,29.559,165.359,102.77,103.581,,,,12.1027,-0.0706938,0.0,0.0
1095,273.5,26.3721,29.9912,167.677,102.794,103.853,,,,12.0827,-0.0922231,0.0,0.0