File: 01_Data/Cotton_Raw/Cone/Raw_Cotton_Cone_HF25-Frame+GridScan_200908_R3.csv
Names,Time,Stack TC,Smoke TC,Exh Press,Smoke Comp,Smoke Meas,CO Meter,CO2 Meter,O2 Meter,Sample Mass,Ext Coeff,Start Test,Flame Verif
Chan Gain,,500,500,1,1,1,1,1,1,1,1,1.0,1.0
Offset,,0,0,0.136754,0,0,0,0,0,0,0,0.0,0.0
Gain,,1,1,25.011,13.5073,16.5741,1,1,1,1.00105,1.03303,1.0,1.0
Units,sec,C,C,Pa,%,%,%,%,%,g,/m,,
Baseline,,23.3372,24.7761,168.755,100.643,100.601,9.9223e-05,0.0591226,20.9666,-948.024,0.00381667,,
3,0.5,21.5726,22.358,172.808,100.568,100.46,4.48744e-05,0.0600298,20.9658,-28.8101,0.0097363,0.0,0.0
6,1.25,20.2887,21.15,169.4,100.571,100.979,3.11565e-05,0.0599867,20.9658,-28.9503,-0.0366485,0.0,0.0
9,2,19.9098,21.1327,167.317,100.592,100.645,1.25866e-05,0.0600228,20.9659,-28.9703,-0.00479263,0.0,0.0
12,2.75,20.5643,20.8585,164.075,100.566,100.423,-2.42448e-05,0.0600993,20.9659,-28.8502,0.0128899,0.0,0.0
15,3.5,20.5623,21.9143,172.217,100.562,100.53,-4.30695e-05,0.0601916,20.9659,-28.8402,0.00287728,0.0,0.0
18,4.25,20.3666,21.5647,169.706,100.566,100.435,-8.63185e-05,0.0604904,20.9659,-28.9603,0.0117863,0.0,0.0
21,5,20.5249,21.9195,163.932,100.558,100.247,-0.00011388,0.0608029,20.9659,-28.9703,0.028118,0.0,0.0
24,5.75,21.0628,22.0563,167.411,100.561,100.221,-0.000127189,0.0610711,20.9653,-28.9503,0.0306278,0.0,0.0
27,6.5,21.1072,21.7976,172.138,100.556,100.208,-0.000119103,0.0612218,20.9647,-28.9703,0.0314083,0.0,0.0
30,7.25,20.9087,22.9058,168.076,100.56,100.048,-9.68769e-05,0.0613815,20.9642,-28.9803,0.0462066,0.0,0.0
33,8,21.2243,22.169,171.775,100.557,100.27,-6.11468e-05,0.0614736,20.9638,-28.9302,0.0258584,0.0,0.0
36,8.75,20.9684,22.5863,173.186,100.553,100.561,-1.36127e-05,0.0615537,20.9635,-29.0304,-0.00067571,0.0,0.0
39,9.5,21.0353,22.4293,169.586,100.548,100.157,5.87673e-05,0.0616746,20.9633,-28.9903,0.0353324,0.0,0.0
42,10.25,21.2019,22.9901,166.124,100.545,100.241,0.000107038,0.0618601,20.9632,-28.9603,0.0273954,0.0,0.0
45,11,21.8864,22.8063,166.135,100.54,100.336,0.000162805,0.0620726,20.9631,-28.9302,0.0184327,0.0,0.0
48,11.75,21.339,22.9549,168.776,100.563,100.308,0.000305855,0.0622489,20.9628,-29.0003,0.0229884,0.0,0.0
51,12.5,21.6274,23.1304,163.209,100.529,100.397,0.000447978,0.0624139,20.9624,-29.0203,0.0119481,0.0,0.0
54,13.25,21.7126,23.0527,167.888,100.545,99.8572,0.000588318,0.0624983,20.9621,-28.9903,0.0621653,0.0,0.0
57,14,21.5794,23.5454,167.63,100.543,100.17,0.000725854,0.0626228,20.9613,-28.9703,0.0336504,0.0,0.0
60,14.75,21.3379,23.3605,170.793,100.556,100.175,0.000889221,0.0627893,20.9607,-29.0404,0.0343897,0.0,0.0
63,15.5,21.2014,22.7978,169.545,100.539,99.7636,0.00103696,0.0630203,20.9602,-29.0804,0.0701417,0.0,0.0
66,16.25,21.2392,23.4185,169.468,100.543,100.089,0.00119365,0.0633239,20.9599,-29.0704,0.040983,0.0,0.0
69,17,21.9428,23.234,168.577,100.532,99.6351,0.0013621,0.0636401,20.9593,-29.0504,0.0812237,0.0,0.0
72,17.75,21.8604,23.5337,169.542,100.532,99.758,0.00151161,0.063911,20.9586,-29.0304,0.0700516,0.0,0.0
75,18.5,21.6334,23.1106,168.812,100.53,99.757,0.00162005,0.064379,20.9582,-29.0704,0.0699208,0.0,0.0
78,19.25,21.5633,23.8549,168.235,100.517,99.6579,0.0017674,0.0649236,20.9578,-29.1305,0.077779,0.0,0.0
81,20,21.3039,23.6231,163.685,100.534,99.3165,0.00193128,0.0654073,20.9575,-29.1305,0.110401,0.0,0.0
84,20.75,21.74,23.5017,169.599,100.52,99.6245,0.0020828,0.0659726,20.9573,-29.1104,0.0811134,0.0,0.0
87,21.5,21.6837,23.4394,166.128,100.522,99.2988,0.00222775,0.0662615,20.9572,-29.1305,0.110975,0.0,0.0
90,22.25,21.6196,23.5382,164.604,100.543,99.4925,0.00235634,0.0666341,20.9571,-29.0604,0.0951714,0.0,0.0
93,23,22.1955,23.9932,170.567,100.518,99.0479,0.00247125,0.0669328,20.957,-29.1204,0.133489,0.0,0.0
96,23.75,21.646,23.6149,169.734,100.52,99.0641,0.00257452,0.0671835,20.9563,-29.1004,0.132232,0.0,0.0
99,24.5,22.0398,23.7176,173.401,100.528,99.3144,0.00267061,0.0674029,20.9556,-29.1104,0.110102,0.0,0.0
102,25.25,22.2355,23.9861,168.377,100.509,99.0732,0.00277624,0.0677177,20.9547,-29.1405,0.130358,0.0,0.0
105,26,21.9449,24.0837,168.394,100.511,98.7439,0.00292791,0.0679878,20.954,-29.1805,0.160711,0.0,0.0
108,26.75,21.8258,23.5644,166.147,100.495,98.4505,0.00308229,0.0682593,20.9535,-29.3006,0.186224,0.0,0.0
111,27.5,22.3043,23.612,165.698,100.507,99.1283,0.00326975,0.0685549,20.9534,-29.2105,0.125131,0.0,0.0
114,28.25,22.0457,23.6839,174.22,100.499,97.9498,0.00349232,0.0690147,20.9533,-29.2706,0.23284,0.0,0.0
117,29,21.9182,24.2045,167.126,100.505,98.9745,0.0036905,0.0694541,20.953,-29.2206,0.139012,0.0,0.0
120,29.75,22.3633,23.6069,166.571,100.493,98.2725,0.00385029,0.0700273,20.9524,-29.2306,0.202477,0.0,0.0
123,30.5,21.8284,23.9931,168.202,100.51,97.9225,0.00394115,0.070948,20.9515,-29.2606,0.236296,0.0,0.0
126,31.25,22.1487,23.9281,167.723,100.505,98.2305,0.00396691,0.0737242,20.9507,-29.3807,0.207428,0.0,0.0
129,32,22.0442,23.67,171.34,100.501,97.9255,0.00391647,0.0789807,20.9445,-29.3807,0.235234,0.0,0.0
132,32.75,21.9816,23.708,161.75,100.497,98.8,0.00378663,0.0871019,20.9399,-29.5008,0.154334,0.0,0.0
135,33.5,21.5327,23.9428,158.079,100.507,101.551,0.00369197,0.100357,20.9296,-29.3507,-0.0936796,0.0,1.0
138,34.25,22.6223,25,164.745,100.504,100.76,0.0035438,0.11668,20.9165,-29.5409,-0.0230382,0.0,1.0
141,35,23.1973,25.6515,166.542,100.502,100.809,0.00340202,0.128924,20.9024,-29.1705,-0.0276345,0.0,1.0
144,35.75,23.7179,26.3911,158.325,100.502,100.874,0.00324774,0.138439,20.8922,-29.5309,-0.0334522,0.0,1.0
147,36.5,24.1012,27.2835,162.918,100.505,100.975,0.00311616,0.145001,20.8847,-29.641,-0.042275,0.0,1.0
150,37.25,24.1654,27.7981,165.502,100.501,100.811,0.00301545,0.149145,20.8792,-29.691,-0.0278452,0.0,1.0
153,38,23.1098,26.5404,165.22,100.505,100.754,0.00294775,0.151811,20.8752,-29.7311,-0.0224621,0.0,1.0
156,38.75,23.0687,26.1614,164.922,100.504,101.15,0.00291585,0.153521,20.8723,-29.7611,-0.0580786,0.0,0.0
159,39.5,23.2335,26.617,163.033,100.506,100.522,0.00292242,0.154627,20.8702,-29.7811,-0.00140117,0.0,0.0
162,40.25,23.6686,27.1492,165.822,100.503,101.311,0.00294761,0.155675,20.8687,-29.8212,-0.0725594,0.0,0.0
165,41,23.0237,27.114,165.157,100.493,100.969,0.00297804,0.156691,20.8675,-29.8712,-0.0428079,0.0,0.0
168,41.75,23.1208,27.1516,160.137,100.494,100.72,0.00300596,0.157687,20.8661,-29.8913,-0.0202895,0.0,0.0
171,42.5,24.0725,27.1493,162.764,100.503,100.708,0.0030336,0.158442,20.8651,-29.9113,-0.0185081,0.0,0.0
174,43.25,24.1264,27.8707,164.112,100.507,100.713,0.00306396,0.159004,20.8643,-29.9013,-0.0185087,0.0,0.0
177,44,24.285,28.0287,165.308,100.496,100.683,0.00309246,0.159779,20.8637,-30.0014,-0.0169014,0.0,0.0
180,44.75,23.7848,28.2857,162.445,100.509,100.746,0.00311668,0.160912,20.8621,-30.0214,-0.0213175,0.0,0.0
183,45.5,24.2993,28.6081,166.814,100.521,100.851,0.00312695,0.162312,20.8609,-29.9713,-0.0297351,0.0,0.0
186,46.25,24.4578,28.03,163.675,100.505,101.41,0.0031218,0.163896,20.8594,-29.9914,-0.0812651,0.0,0.0
189,47,24.6513,29.0693,161.561,100.503,100.972,0.00309438,0.165825,20.858,-30.0414,-0.0422343,0.0,0.0
192,47.75,24.7581,28.6274,163.918,100.51,100.799,0.00306634,0.167533,20.8567,-30.0714,-0.0260277,0.0,0.0
195,48.5,25.1859,29.2277,165.953,100.519,100.633,0.00303213,0.169292,20.8557,-30.0915,-0.0102745,0.0,0.0
198,49.25,24.5139,29.5142,164.218,100.512,100.789,0.003009,0.170575,20.855,-30.1515,-0.0249244,0.0,0.0
201,50,24.6327,29.2823,169.016,100.496,101.082,0.00300745,0.17151,20.8544,-30.2116,-0.052628,0.0,0.0
204,50.75,25.1474,29.955,161.936,100.506,101.172,0.00302157,0.171519,20.8541,-30.2216,-0.0598405,0.0,0.0
207,51.5,25.6838,30.1591,163.051,100.505,101.299,0.0030468,0.171282,20.8538,-30.2216,-0.0712865,0.0,0.0
210,52.25,25.0898,29.692,165.296,100.516,100.868,0.00305969,0.170983,20.8536,-30.2416,-0.0317262,0.0,0.0
213,53,25.5467,30.2828,162.978,100.504,101.45,0.00308005,0.170727,20.8535,-30.2616,-0.0849172,0.0,0.0
216,53.75,25.6026,30.2491,166.252,100.499,101.75,0.0030834,0.170283,20.8536,-30.3617,-0.112114,0.0,0.0
219,54.5,25.7932,30.228,159.259,100.504,100.956,0.00307692,0.169557,20.8541,-30.3918,-0.0406614,0.0,0.0
222,55.25,25.5621,30.4753,163.308,100.498,101.254,0.00306531,0.168835,20.855,-30.4218,-0.0678832,0.0,0.0
225,56,25.6425,30.3269,165.719,100.502,101.137,0.0030532,0.168001,20.8557,-30.4018,-0.057086,0.0,0.0
228,56.75,25.8847,30.3868,166.596,100.506,101.038,0.00304438,0.166906,20.8562,-30.4418,-0.047873,0.0,0.0
231,57.5,25.7757,30.2327,165.114,100.499,101.039,0.00304522,0.165985,20.8566,-30.5219,-0.0485952,0.0,0.0
234,58.25,25.8465,30.1056,164.88,100.499,100.752,0.0030492,0.165229,20.8567,-30.572,-0.0227929,0.0,0.0
237,59,25.8799,30.7022,166.966,100.507,100.562,0.00305525,0.164641,20.8572,-30.572,-0.00497367,0.0,0.0
240,59.75,25.9713,30.3993,161.429,100.487,100.673,0.003073,0.163616,20.8577,-30.6721,-0.0167715,0.0,0.0
243,60.5,25.4518,30.3677,166.285,100.511,101.004,0.00310432,0.162614,20.8582,-30.6521,-0.0443872,0.0,0.0
246,61.25,25.6146,30.0391,166.704,100.504,101.242,0.00315269,0.161478,20.8585,-30.6521,-0.0662769,0.0,0.0
249,62,25.2597,29.9049,166.472,100.501,101.011,0.00321162,0.160898,20.8587,-30.6721,-0.0458773,0.0,0.0
252,62.75,25.1292,29.531,162.867,100.501,100.758,0.00326205,0.160633,20.8595,-30.7221,-0.0231985,0.0,0.0
255,63.5,25.8272,30.1781,165.487,100.494,100.994,0.00330227,0.160319,20.86,-30.7922,-0.0449208,0.0,0.0
258,64.25,26.1213,30.3266,168.699,100.51,101.134,0.0033303,0.159887,20.8607,-30.8322,-0.0561159,0.0,0.0
261,65,25.3907,29.7752,164.605,100.505,101.112,0.00335356,0.158419,20.8615,-30.9123,-0.0545677,0.0,0.0
264,65.75,25.4265,29.9651,171.436,100.501,100.741,0.00337627,0.156981,20.8622,-30.8823,-0.0216521,0.0,0.0
267,66.5,25.5567,30.0237,165.337,100.505,100.805,0.00340224,0.155843,20.8626,-30.9123,-0.0270104,0.0,0.0
270,67.25,24.9101,30.0401,166.309,100.504,101.032,0.00343729,0.155128,20.8636,-30.9424,-0.0474321,0.0,0.0
273,68,25.2681,29.3416,162.33,100.492,101.338,0.00350481,0.15489,20.8643,-30.9724,-0.0759144,0.0,0.0
276,68.75,25.4126,29.4614,164.617,100.497,100.695,0.00357358,0.15482,20.8648,-31.0024,-0.0177992,0.0,0.0
279,69.5,25.1978,29.3323,161.089,100.51,101.375,0.00366523,0.154948,20.8645,-31.0224,-0.0776548,0.0,0.0
282,70.25,25.4845,29.5434,166.151,100.494,100.827,0.00374588,0.155551,20.8637,-31.1526,-0.0299692,0.0,0.0
285,71,25.2984,29.3913,167.273,100.496,100.656,0.00379736,0.156208,20.8632,-31.0525,-0.0144136,0.0,0.0
288,71.75,25.5504,29.5139,161.77,100.508,101.772,0.00381938,0.15691,20.8627,-31.0825,-0.11327,0.0,0.0
291,72.5,25.8281,29.5412,161.271,100.482,101.711,0.00380892,0.157166,20.8624,-31.0925,-0.110161,0.0,0.0
294,73.25,25.375,29.4843,165.687,100.494,100.748,0.00378176,0.157065,20.8624,-31.1426,-0.0228833,0.0,0.0
297,74,25.1588,29.2597,164.628,100.496,101.168,0.00372855,0.156685,20.8628,-31.2226,-0.0604527,0.0,0.0
300,74.75,25.6156,29.3792,164.632,100.489,100.711,0.00367882,0.156186,20.8631,-31.2427,-0.0199999,0.0,0.0
303,75.5,25.2943,29.5263,167.003,100.485,101.341,0.00365152,0.155755,20.8633,-31.2527,-0.0769003,0.0,0.0
306,76.25,25.5505,29.9409,159.601,100.476,101.376,0.00364486,0.155326,20.8635,-31.3027,-0.0808379,0.0,0.0
309,77,25.7962,29.8831,164.411,100.489,100.909,0.00365613,0.154844,20.8642,-31.3127,-0.0377397,0.0,0.0
312,77.75,25.8434,29.8852,167.343,100.481,101.018,0.00370635,0.154271,20.8647,-31.3328,-0.0482965,0.0,0.0
315,78.5,25.4862,29.7719,163.593,100.484,101.142,0.0037686,0.153599,20.8651,-31.3728,-0.0591,0.0,0.0
318,79.25,25.5116,29.6219,169.736,100.493,100.787,0.00385781,0.152728,20.8656,-31.4128,-0.0265342,0.0,0.0
321,80,25.8452,30.0676,160.964,100.476,100.749,0.00392284,0.15152,20.8664,-31.4329,-0.0246097,0.0,0.0
324,80.75,26.0538,30.0946,167.459,100.487,101.003,0.0040673,0.150229,20.8675,-31.4829,-0.0464522,0.0,0.0
327,81.5,26.0896,29.9778,163.764,100.482,100.947,0.00419222,0.148881,20.8686,-31.543,-0.0418143,0.0,0.0
330,82.25,25.6869,29.8088,163.072,100.479,101.298,0.00431684,0.147899,20.8706,-31.573,-0.0736124,0.0,0.0
333,83,25.5349,29.8119,169.225,100.47,101.076,0.00443986,0.146718,20.8721,-31.573,-0.0545085,0.0,0.0
336,83.75,25.4275,29.455,164.445,100.468,101.083,0.00456562,0.145659,20.8731,-31.6131,-0.055292,0.0,0.0
339,84.5,25.7668,29.7799,164.814,100.465,100.627,0.00469554,0.144767,20.8745,-31.6331,-0.0145976,0.0,0.0
342,85.25,25.6728,29.4548,169.386,100.474,100.584,0.00483668,0.14408,20.8756,-31.603,-0.00994521,0.0,0.0
345,86,25.579,28.9441,161.165,100.461,101.271,0.0050265,0.143515,20.8763,-31.6131,-0.0727679,0.0,0.0
348,86.75,25.3304,29.4193,165.199,100.461,100.408,0.0051935,0.142483,20.8775,-31.6331,0.00476581,0.0,0.0
351,87.5,25.3168,29.3039,162.965,100.471,101.077,0.0054421,0.141405,20.8788,-31.6531,-0.0544873,0.0,0.0
354,88.25,25.4571,29.0884,164.16,100.463,101.149,0.00560708,0.140064,20.8805,-31.7332,-0.061667,0.0,0.0
357,89,25.4723,29.4534,162.192,100.47,100.735,0.0059711,0.138287,20.8818,-31.8033,-0.0238483,0.0,0.0
360,89.75,25.1763,29.2203,168.19,100.465,100.965,0.00620219,0.136896,20.8827,-31.7132,-0.0450104,0.0,0.0
363,90.5,25.482,29.0471,165.083,100.462,101.013,0.00640126,0.135718,20.8834,-31.7732,-0.049545,0.0,0.0
366,91.25,25.4197,29.2709,163.029,100.464,100.63,0.00656745,0.135116,20.8845,-31.8333,-0.0149817,0.0,0.0
369,92,25.301,29.066,161.857,100.46,100.565,0.00672895,0.134116,20.8853,-31.8333,-0.00940235,0.0,0.0
372,92.75,25.3476,28.9673,159.044,100.464,100.577,0.00687623,0.133373,20.8859,-31.8233,-0.0102069,0.0,0.0
375,93.5,25.538,29.1135,170.878,100.462,100.673,0.00700471,0.132532,20.887,-31.9434,-0.0190023,0.0,0.0
378,94.25,24.9078,28.9751,163.832,100.46,100.259,0.00713487,0.131779,20.8877,-31.9634,0.0181384,0.0,0.0
381,95,25.0961,28.9346,165.075,100.451,100.716,0.00724532,0.131171,20.8883,-32.0135,-0.0238375,0.0,0.0
384,95.75,25.397,28.9213,165.546,100.447,100.514,0.00737795,0.130548,20.8887,-32.0435,-0.00598808,0.0,0.0
387,96.5,25.2229,29.0258,165.771,100.44,100.456,0.00753082,0.129976,20.8892,-32.0435,-0.0013747,0.0,0.0
390,97.25,24.7065,28.5054,165.188,100.459,100.578,0.00769651,0.129359,20.89,-31.9734,-0.010699,0.0,0.0
393,98,24.9319,28.7541,165.853,100.45,100.813,0.00786911,0.128616,20.8912,-32.0435,-0.0326737,0.0,0.0
396,98.75,25.2251,28.6558,165.942,100.444,100.459,0.00808278,0.127832,20.8921,-32.0936,-0.00135903,0.0,0.0
399,99.5,25.2381,28.5599,163.136,100.448,101.261,0.00826616,0.12706,20.8927,-32.1636,-0.0730157,0.0,0.0
402,100.25,25.0809,28.7819,163.745,100.438,100.548,0.00844709,0.126,20.8931,-32.2537,-0.00986032,0.0,0.0
405,101,24.7365,28.3079,161.017,100.448,100.341,0.00859475,0.125033,20.8935,-32.2037,0.00965753,0.0,0.0
408,101.75,25.0132,28.5008,167.018,100.453,100.178,0.00870151,0.12426,20.8937,-32.1436,0.024779,0.0,0.0
411,102.5,24.8128,28.2071,166.051,100.442,100.989,0.00876633,0.123721,20.8939,-32.2037,-0.0491887,0.0,0.0
414,103.25,25.1211,27.7091,168.903,100.448,100.524,0.00881359,0.123394,20.894,-32.3338,-0.00686261,0.0,0.0
417,104,24.5028,28.0372,166.369,100.449,100.256,0.00880498,0.123268,20.8937,-32.3338,0.017484,0.0,0.0
420,104.75,24.7605,27.958,166.474,100.449,100.481,0.00878427,0.123058,20.8933,-32.3738,-0.00288252,0.0,0.0
423,105.5,24.7618,27.884,168.508,100.454,100.492,0.00875819,0.122904,20.8929,-32.4139,-0.00344065,0.0,0.0
426,106.25,24.6653,27.6178,164.415,100.452,100.435,0.00873091,0.122987,20.8927,-32.3738,0.00153812,0.0,0.0
429,107,24.5382,27.5233,167.843,100.465,100.379,0.00871103,0.123101,20.893,-32.3338,0.00774843,0.0,0.0
432,107.75,24.303,27.4109,164.491,100.454,100.284,0.00869654,0.123134,20.8934,-32.3638,0.0153705,0.0,0.0
435,108.5,24.6463,27.261,164.772,100.456,100.418,0.00868784,0.122894,20.8936,-32.4539,0.00346148,0.0,0.0
438,109.25,24.3859,27.3437,165.724,100.451,100.404,0.00868937,0.122592,20.8938,-32.504,0.00420221,0.0,0.0
441,110,24.5859,27.6492,167.537,100.462,100.395,0.00869384,0.122346,20.894,-32.504,0.00603541,0.0,0.0
444,110.75,24.8071,27.5335,168.169,100.454,100.63,0.00872704,0.122167,20.8941,-32.524,-0.015829,0.0,0.0
447,111.5,24.6113,27.228,167.844,100.456,100.803,0.00877224,0.121971,20.8942,-32.564,-0.0312525,0.0,0.0
450,112.25,25.0315,27.6321,168.491,100.45,100.875,0.00882798,0.121715,20.8942,-32.5941,-0.0382273,0.0,0.0
453,113,24.4072,27.7147,164.801,100.453,100.305,0.00889225,0.120917,20.8961,-32.6141,0.0133764,0.0,0.0
456,113.75,24.2758,27.2161,165.464,100.46,100.261,0.00897854,0.119725,20.898,-32.6141,0.0179475,0.0,0.0
459,114.5,24.3825,27.4646,166.621,100.451,100.067,0.00905826,0.118256,20.8995,-32.5841,0.0347847,0.0,0.0
462,115.25,24.1365,26.9979,164.338,100.466,99.8688,0.0091708,0.116573,20.9006,-32.5741,0.0540488,0.0,0.0
465,116,24.0272,27.1692,165.605,100.464,99.971,0.00926996,0.115085,20.9016,-32.6041,0.0445611,0.0,0.0
468,116.75,24.4906,27.2212,166.851,100.463,100.179,0.00936134,0.113551,20.9028,-32.6441,0.0256171,0.0,0.0
471,117.5,24.3811,27.3586,168.284,100.463,99.7009,0.0094481,0.112074,20.9042,-32.7042,0.0690022,0.0,0.0
474,118.25,24.2446,26.7663,166.753,100.463,99.8298,0.00953955,0.110837,20.9053,-32.7242,0.0573234,0.0,0.0
477,119,23.9474,26.6898,168.353,100.457,99.9082,0.00961809,0.109922,20.9061,-32.7442,0.0496516,0.0,0.0
480,119.75,23.7213,26.7175,166.007,100.458,99.8288,0.00968179,0.109334,20.9067,-32.7743,0.0569691,0.0,0.0
483,120.5,24.0551,26.4396,165.04,100.463,99.8799,0.0097306,0.108809,20.9075,-32.7643,0.0527054,0.0,0.0
486,121.25,24.0603,26.4733,161.146,100.459,99.978,0.00976618,0.108283,20.9083,-32.7643,0.0435087,0.0,0.0
489,122,23.6858,26.4395,169.961,100.471,99.2527,0.0097791,0.107726,20.9087,-32.8343,0.110567,0.0,0.0
492,122.75,23.8311,26.334,169.11,100.463,99.5304,0.00980588,0.107182,20.9092,-32.8143,0.0845452,0.0,0.0
495,123.5,23.5219,25.9785,166.672,100.455,100.048,0.00983047,0.106786,20.9095,-32.8544,0.03673,0.0,0.0
498,124.25,23.7373,25.8843,167.583,100.45,99.8212,0.00986533,0.106477,20.9098,-32.8744,0.0568768,0.0,0.0
501,125,23.6781,26.1832,160.709,100.452,99.9467,0.00989471,0.106319,20.91,-32.8744,0.0456832,0.0,0.0
504,125.75,23.3569,26.1384,169.434,100.461,99.8556,0.00991781,0.10596,20.9101,-32.8844,0.0547962,0.0,0.0
507,126.5,23.6079,26.3299,166.56,100.449,99.8248,0.00993333,0.105422,20.9105,-32.9144,0.0564818,0.0,0.0
510,127.25,23.6261,25.8807,172.441,100.448,99.58,0.00994269,0.104774,20.9113,-32.9545,0.0786197,0.0,0.0
513,128,23.2974,25.9652,171.004,100.451,99.5678,0.00994714,0.104067,20.9125,-32.9745,0.0800588,0.0,0.0
516,128.75,23.8705,26.1507,168.342,100.459,99.3038,0.0099476,0.10337,20.9134,-32.9945,0.104789,0.0,0.0
519,129.5,23.591,26.0689,170.419,100.457,99.4065,0.0099432,0.102552,20.914,-32.9645,0.0952387,0.0,0.0
522,130.25,23.1302,25.6179,167.585,100.453,99.5638,0.00994186,0.101681,20.9149,-32.9945,0.0806134,0.0,0.0
525,131,23.3394,25.7191,165.685,100.446,99.7818,0.00994159,0.100798,20.9157,-33.0445,0.060087,0.0,0.0
528,131.75,23.4772,25.8869,167.67,100.457,99.8754,0.00994188,0.0999315,20.917,-33.0245,0.052598,0.0,0.0
531,132.5,23.6655,25.9913,167.662,100.455,99.8354,0.0099409,0.09919,20.9179,-32.9945,0.0560373,0.0,0.0
534,133.25,23.401,25.5804,168.953,100.451,99.6412,0.00994019,0.098581,20.9185,-33.0445,0.0733493,0.0,0.0
537,134,23.1485,25.7973,172.769,100.439,99.1556,0.00993481,0.0980998,20.919,-33.0445,0.116538,0.0,0.0
540,134.75,22.1723,24.4885,164.541,100.443,99.2209,0.00992258,0.0977766,20.9193,-33.0646,0.110949,0.0,0.0
543,135.5,21.4545,23.75,167.721,100.456,99.2057,0.00991633,0.0975382,20.9195,-33.0546,0.11345,0.0,0.0
546,136.25,21.4584,23.6933,163.632,100.451,99.6523,0.00987337,0.0973396,20.9198,-33.0946,0.0723002,0.0,0.0
549,137,21.8181,24.1735,171.827,100.445,99.2214,0.00983453,0.0969206,20.9201,-33.2047,0.111052,0.0,0.0
552,137.75,21.2661,23.7257,166.178,100.437,98.9619,0.00980136,0.0966369,20.9208,-33.2247,0.134036,0.0,0.0
555,138.5,21.7224,23.5057,164.003,100.442,99.4702,0.00976888,0.0965178,20.9213,-33.1947,0.0880547,0.0,0.0
558,139.25,21.2798,23.1184,170.265,100.446,99.4065,0.00973017,0.0965249,20.9217,-33.1847,0.0942338,0.0,0.0
561,140,21.0754,22.9295,165.576,100.444,98.9781,0.00968746,0.0967774,20.9219,-33.1947,0.133223,0.0,0.0
564,140.75,21.6722,23.8278,170.748,100.443,99.5339,0.00963698,0.0969026,20.9221,-33.2147,0.0823627,0.0,0.0
567,141.5,21.5488,23.4174,168.288,100.451,99.4323,0.00957767,0.0967741,20.9222,-33.2347,0.0923297,0.0,0.0
570,142.25,21.1159,23.8569,170.08,100.453,99.4328,0.00953443,0.0965072,20.9223,-33.2548,0.0925071,0.0,0.0
573,143,21.0855,23.4362,164.143,100.449,99.322,0.009456,0.0961767,20.9224,-33.3549,0.102235,0.0,0.0
576,143.75,21.2632,23.8442,169.057,100.439,99.364,0.00939093,0.0958396,20.9225,-33.3649,0.0975505,0.0,0.0
579,144.5,21.4458,23.5909,165.58,100.44,99.275,0.00934014,0.095553,20.9225,-33.2748,0.105709,0.0,0.0
582,145.25,21.4981,23.5353,166.949,100.443,99.5663,0.00929186,0.0952657,20.9225,-33.2748,0.0794538,0.0,0.0
585,146,21.2626,23.7084,169.719,100.447,100.033,0.00923958,0.0950996,20.9226,-33.3449,0.0374347,0.0,0.0
588,146.75,21.1983,24.0055,170.595,100.441,99.234,0.00918243,0.0950526,20.9226,-33.3949,0.109524,0.0,0.0
591,147.5,21.4836,23.6638,170.124,100.434,99.5537,0.00912067,0.0949498,20.9226,-33.3849,0.0797858,0.0,0.0
594,148.25,21.6607,23.9587,167.401,100.446,99.5016,0.00904381,0.0948311,20.9226,-33.3949,0.0855703,0.0,0.0
597,149,21.1406,23.7328,165.653,100.443,99.6361,0.00898778,0.0947198,20.9226,-33.485,0.0730653,0.0,0.0
600,149.75,21.5942,23.2974,167.187,100.436,99.3094,0.00892071,0.0946113,20.9228,-33.485,0.102236,0.0,0.0
603,150.5,21.1053,23.4984,167.456,100.437,99.8703,0.00882695,0.0945494,20.9234,-33.485,0.0513091,0.0,0.0
606,151.25,21.3777,23.4822,169.989,100.45,99.3959,0.00871188,0.0945536,20.9238,-33.515,0.0955743,0.0,0.0
609,152,21.3395,23.2254,167.603,100.438,99.7054,0.00860595,0.0945929,20.9241,-33.505,0.0663195,0.0,0.0
612,152.75,21.5893,23.5703,172.555,100.434,99.9229,0.00849102,0.0946832,20.9243,-33.455,0.0462024,0.0,0.0
615,153.5,21.336,23.1534,170.161,100.432,99.3863,0.00835687,0.0947491,20.9245,-33.485,0.0948143,0.0,0.0
618,154.25,21.233,23.4349,165.281,100.442,99.3756,0.00824326,0.0947393,20.9246,-33.5451,0.0967501,0.0,0.0
621,155,21.2928,23.3274,164.278,100.433,99.28,0.00813339,0.0946334,20.9247,-33.5851,0.104652,0.0,0.0
624,155.75,21.2951,23.5832,171.231,100.425,99.4004,0.00804546,0.0944189,20.9247,-33.5651,0.092891,0.0,0.0
627,156.5,21.4772,23.3811,163.681,100.424,99.6012,0.00797802,0.0942041,20.9248,-33.5951,0.0745665,0.0,0.0
630,157.25,20.5964,23.6984,167.798,100.427,99.2922,0.00796426,0.0939692,20.9248,-33.6152,0.102987,0.0,0.0
633,158,21.3142,23.1515,169.861,100.415,99.7049,0.00799344,0.093798,20.9248,-33.5551,0.0642818,0.0,0.0
636,158.75,20.9139,23.5173,167.77,100.422,99.6113,0.00803144,0.0936732,20.9249,-33.6152,0.0734232,0.0,0.0
639,159.5,21.5687,23.1154,166.17,100.42,99.9366,0.00809834,0.0936645,20.9249,-33.6952,0.0436989,0.0,0.0
642,160.25,21.3187,23.1135,162.806,100.417,99.1232,0.00814579,0.0936933,20.9249,-33.5751,0.117525,0.0,0.0
645,161,21.2847,23.0173,165.299,100.427,99.6326,0.00817983,0.0939883,20.9249,-33.6352,0.0719744,0.0,0.0
648,161.75,21.0321,23.5878,163.117,100.415,99.7378,0.00816359,0.0943269,20.9249,-33.6152,0.0612952,0.0,0.0
651,162.5,21.1497,23.0571,168.816,100.413,99.4404,0.00811776,0.0946336,20.9249,-33.6352,0.0881703,0.0,0.0
654,163.25,21.4859,23.121,169.317,100.403,100.179,0.00808417,0.0948696,20.9249,-33.7052,0.0202695,0.0,0.0
657,164,21.3381,23.2206,165.176,100.408,99.4394,0.00803299,0.0950279,20.9249,-33.7853,0.0878162,0.0,0.0
660,164.75,21.2906,23.3056,166.617,100.405,99.5699,0.00797451,0.0951736,20.9249,-33.7253,0.0757096,0.0,0.0
663,165.5,21.3329,23.3203,166.466,100.397,99.5466,0.0079123,0.0953416,20.9249,-33.6552,0.0770828,0.0,0.0
666,166.25,21.0434,23.4426,168.42,100.39,99.6695,0.00784486,0.0954274,20.9249,-33.7353,0.0652685,0.0,0.0
669,167,21.652,23.8167,168.871,100.381,99.5658,0.00777221,0.0953308,20.9249,-33.7553,0.0739193,0.0,0.0
672,167.75,21.4724,23.4793,164.01,100.383,100.317,0.0076932,0.0952242,20.9249,-33.7353,0.00591882,0.0,0.0
675,168.5,21.0966,23.5641,166.789,100.376,99.9548,0.00762126,0.0950847,20.9249,-33.7553,0.0381415,0.0,0.0
678,169.25,21.6551,23.6086,167.972,100.39,100.257,0.00755996,0.0948656,20.9249,-33.7953,0.0119988,0.0,0.0
681,170,21.2016,23.2195,168.939,100.382,99.3787,0.00751058,0.094651,20.9249,-33.8154,0.0910058,0.0,0.0
684,170.75,21.1176,23.5242,167.009,100.386,99.2719,0.00747527,0.0944711,20.9249,-33.8254,0.101151,0.0,0.0
687,171.5,21.4942,23.0959,166.466,100.383,100.229,0.0074507,0.09434,20.9249,-33.8754,0.0138348,0.0,0.0
690,172.25,21.0258,23.0774,170.145,100.375,99.7575,0.00741977,0.0944401,20.9249,-33.8854,0.055931,0.0,0.0
693,173,21.0692,23.4351,165.579,100.368,100.131,0.00739723,0.0945132,20.9249,-33.8954,0.021372,0.0,0.0
696,173.75,20.8157,23.2202,165.955,100.368,100.137,0.00735474,0.0947034,20.925,-33.9054,0.0209043,0.0,0.0
699,174.5,21.2868,23.1316,165.397,100.379,99.798,0.00730855,0.0948559,20.9251,-33.9054,0.0526292,0.0,0.0
702,175.25,21.4492,23.2467,169.737,100.368,99.7408,0.00726785,0.0949729,20.9252,-33.8554,0.0568145,0.0,0.0
705,176,21.3255,23.6059,164.176,100.365,99.9492,0.00722386,0.0950148,20.9253,-33.8754,0.0376412,0.0,0.0
708,176.75,21.3255,23.2917,162.687,100.37,99.9957,0.0071761,0.0949712,20.9254,-33.8654,0.0338334,0.0,0.0
711,177.5,20.841,23.1269,167.144,100.365,99.7585,0.00712488,0.0948846,20.9254,-33.8554,0.0549465,0.0,0.0
714,178.25,21.0906,23.6829,164.954,100.364,100.02,0.00707249,0.0947835,20.9255,-33.8954,0.0311952,0.0,0.0
717,179,20.9263,23.7433,165.021,100.376,99.9507,0.00700855,0.0946852,20.9255,-33.9355,0.0385083,0.0,0.0
720,179.75,21.2987,22.9521,166.72,100.367,99.7479,0.0069434,0.0945743,20.9255,-33.9455,0.0560974,0.0,0.0
723,180.5,21.2995,23.2264,168.938,100.364,99.5557,0.00689071,0.0944935,20.9255,-33.9755,0.07324,0.0,0.0
726,181.25,21.3155,23.435,169.268,100.37,100.084,0.0068494,0.0944346,20.9255,-33.8854,0.0258982,0.0,0.0
729,182,21.1945,23.7381,166.288,100.367,100.187,0.00681811,0.0942956,20.9255,-33.9255,0.0162634,0.0,0.0
732,182.75,20.4713,23.0646,166.14,100.375,99.6538,0.00678975,0.0941534,20.9255,-33.9155,0.0653168,0.0,0.0
735,183.5,21.5601,24.0012,166.214,100.371,99.9447,0.00675867,0.0939714,20.9256,-33.9655,0.0385749,0.0,0.0
738,184.25,21.1353,23.8243,166.069,100.357,99.7459,0.00673159,0.093921,20.9256,-33.9655,0.0553878,0.0,0.0
741,185,20.7788,23.2865,163.74,100.377,99.9548,0.00670406,0.0939627,20.9256,-33.9655,0.0381791,0.0,0.0
744,185.75,21.2536,23.5524,172.709,100.363,99.8779,0.00668067,0.0940672,20.9256,-33.9755,0.043886,0.0,0.0
747,186.5,21.3731,23.362,166.831,100.373,100.24,0.00666917,0.0942609,20.9256,-33.9655,0.012056,0.0,0.0
750,187.25,21.2588,23.3027,168.705,100.36,99.9153,0.00665942,0.0944021,20.9256,-33.9555,0.0402679,0.0,0.0
753,188,21.3757,23.1886,170.793,100.367,99.9664,0.00664402,0.094505,20.9249,-33.9755,0.0362685,0.0,0.0
756,188.75,21.4963,23.3802,165.438,100.369,100.091,0.00663383,0.0945511,20.9245,-33.9955,0.0251076,0.0,0.0
759,189.5,21.3419,22.8387,164.746,100.374,99.8637,0.00661167,0.0945353,20.9241,-34.0156,0.0462131,0.0,0.0
762,190.25,21.1904,23.7536,170.606,100.361,99.9968,0.00657777,0.0945042,20.9238,-34.0256,0.0329594,0.0,0.0
765,191,21.0516,23.7836,168.702,100.368,100.351,0.006562,0.0944267,20.9237,-34.0156,0.00148196,0.0,0.0
768,191.75,21.4071,23.528,165.281,100.365,100.462,0.00653558,0.0943323,20.9236,-34.0156,-0.00869301,0.0,0.0
771,192.5,21.2975,23.5946,164.579,100.365,99.9007,0.0064989,0.0942388,20.9235,-34.0256,0.0420454,0.0,0.0
774,193.25,21.5369,23.4162,169.073,100.358,100.214,0.00646632,0.0942268,20.9234,-34.2258,0.012974,0.0,0.0
777,194,21.4422,23.5979,167.582,100.361,100.221,0.00643147,0.0941932,20.9234,-34.1857,0.0126774,0.0,0.0
780,194.75,21.5637,23.2154,166.985,100.372,99.6923,0.00639992,0.0941678,20.9234,-34.1657,0.0615624,0.0,0.0
783,195.5,21.1684,23.6406,170.941,100.352,99.8673,0.00636642,0.094111,20.9233,-34.1958,0.0438828,0.0,0.0
786,196.25,21.3555,23.4129,168.381,100.354,100.081,0.006342,0.0940723,20.9233,-34.1857,0.0246842,0.0,0.0
789,197,21.3667,23.6486,169.727,100.359,99.7651,0.00628907,0.0940688,20.923,-34.2558,0.0537535,0.0,0.0
792,197.75,20.8977,23.5993,169.746,100.36,99.9168,0.00622459,0.094125,20.9226,-34.1357,0.0401302,0.0,0.0
795,198.5,21.6559,23.1313,166.467,100.359,99.8071,0.00616654,0.094166,20.9223,-34.0656,0.0500158,0.0,0.0
798,199.25,20.952,23.3653,167.442,100.366,100.585,0.0060673,0.094235,20.9221,-34.1357,-0.0197065,0.0,0.0
801,200,21.2788,23.3056,168.49,100.354,100.141,0.00594484,0.0942564,20.922,-34.2258,0.0192282,0.0,0.0
804,200.75,21.4181,23.3888,167.849,100.374,100.291,0.00581138,0.0942226,20.9225,-34.3159,0.00747644,0.0,0.0
807,201.5,20.9886,23.2486,166.937,100.353,100.122,0.00565887,0.0941294,20.9229,-34.2558,0.0208558,0.0,0.0
810,202.25,21.3176,23.3643,165.029,100.363,100.344,0.00553738,0.0940322,20.9232,-34.3059,0.00171957,0.0,0.0
813,203,21.244,23.0736,167.663,100.356,99.8445,0.00545595,0.0939339,20.9234,-34.2358,0.0463206,0.0,0.0
816,203.75,21.4121,23.0319,167.75,100.348,99.9113,0.00541632,0.0939465,20.9235,-34.2558,0.0395559,0.0,0.0
819,204.5,21.3417,23.1499,168.014,100.368,100.161,0.00541454,0.094069,20.9236,-34.1857,0.0187539,0.0,0.0
822,205.25,21.0598,23.491,162.247,100.36,100.266,0.00542479,0.0942817,20.9237,-34.1857,0.00848773,0.0,0.0
825,206,21.2655,23.2275,160.794,100.36,100.425,0.00543771,0.0944643,20.9238,-34.1857,-0.00589134,0.0,0.0
828,206.75,21.4277,23.8597,168.519,100.359,100.37,0.00545642,0.0945513,20.9238,-34.1857,-0.00090744,0.0,0.0
831,207.5,20.8135,23.778,166.219,100.362,99.8521,0.00547558,0.0945159,20.9238,-34.2358,0.0461895,0.0,0.0
834,208.25,20.7557,23.5187,162.569,100.355,99.8627,0.00549214,0.0942019,20.9239,-34.1757,0.0445933,0.0,0.0
837,209,21.5448,23.6915,169.022,100.359,99.9345,0.00550531,0.0938503,20.9239,-34.2658,0.0384502,0.0,0.0
840,209.75,21.1494,23.843,166.605,100.349,100.496,0.00551491,0.0936135,20.9239,-34.2558,-0.0132468,0.0,0.0
843,210.5,20.9641,23.655,162.081,100.362,99.8273,0.00551287,0.093513,20.9239,-34.2458,0.0483645,0.0,0.0
846,211.25,21.3832,23.29,162.362,100.353,100.434,0.00550549,0.0935633,20.9239,-34.2458,-0.00730855,0.0,0.0
849,212,21.1162,23.7233,170.678,100.355,100.316,0.00549662,0.0935412,20.9239,-34.2558,0.00347984,0.0,0.0
852,212.75,20.8658,23.7208,162.332,100.343,100.309,0.00548472,0.0934977,20.9239,-34.2858,0.0030857,0.0,0.0
855,213.5,21.4875,23.8286,164.596,100.345,100.51,0.00546675,0.0934542,20.9239,-34.3259,-0.0148876,0.0,0.0
858,214.25,21.3362,23.8384,165.882,100.355,100.18,0.00543816,0.0934813,20.9239,-34.3059,0.0157415,0.0,0.0
861,215,21.386,23.6816,163.526,100.345,99.9725,0.00540053,0.093597,20.9239,-34.3459,0.0337085,0.0,0.0
864,215.75,20.8371,23.3841,165.89,100.348,99.8334,0.00535568,0.0937224,20.9239,-34.3359,0.0465484,0.0,0.0
867,216.5,20.9633,23.8727,164.62,100.358,100.39,0.0053088,0.0937415,20.9239,-34.406,-0.00284524,0.0,0.0
870,217.25,21.6321,23.4766,165.731,100.346,100.37,0.00526858,0.093632,20.9239,-34.386,-0.00218125,0.0,0.0
873,218,21.4138,23.9463,169.362,100.343,100.202,0.00522455,0.0935522,20.9239,-34.3759,0.0128144,0.0,0.0
876,218.75,21.1015,23.9593,166.325,100.327,100.443,0.00519245,0.0934579,20.9239,-34.3759,-0.0105124,0.0,0.0
879,219.5,21.305,23.7298,168.337,100.339,100.092,0.00515434,0.0933274,20.9243,-34.3459,0.0223742,0.0,0.0
882,220.25,21.1103,23.5535,170.761,100.346,100.282,0.00512656,0.0931345,20.9248,-34.406,0.0058141,0.0,0.0
885,221,21.045,23.3077,167.282,100.344,100.057,0.00509161,0.0929939,20.9252,-34.396,0.0259435,0.0,0.0
888,221.75,21.2647,23.7838,168.958,100.346,100.178,0.00506226,0.0929599,20.9255,-34.3759,0.0151797,0.0,0.0
891,222.5,21.3833,23.6957,166.15,100.338,100.272,0.00504194,0.0929644,20.9257,-34.426,0.00592961,0.0,0.0
894,223.25,21.1229,23.9136,165.309,100.342,100.288,0.00503176,0.0927721,20.9264,-34.3459,0.00492992,0.0,0.0
897,224,21.3183,23.6764,171.851,100.342,99.932,0.00503536,0.0925742,20.927,-34.426,0.0371163,0.0,0.0
900,224.75,20.8166,23.435,166.246,100.336,100.273,0.00503799,0.0923312,20.9274,-34.466,0.00565109,0.0,0.0
903,225.5,21.4209,23.1396,167.436,100.324,100.313,0.0050399,0.0921541,20.9277,-34.4861,0.000969996,0.0,0.0
906,226.25,21.1382,23.8093,169.408,100.338,99.9275,0.00502476,0.0920033,20.9279,-34.426,0.0371195,0.0,0.0
909,227,20.9552,23.3944,165.99,100.341,100.398,0.00500965,0.0918852,20.9281,-34.416,-0.00510121,0.0,0.0
912,227.75,20.61,23.7191,168.938,100.327,100.779,0.00499168,0.0918485,20.9282,-34.3459,-0.040753,0.0,0.0
915,228.5,21.0876,23.2306,168.892,100.331,100.172,0.0049876,0.0919782,20.9283,-34.416,0.0143967,0.0,0.0
918,229.25,21.3166,23.093,163.38,100.317,100.169,0.00499525,0.0920943,20.9279,-34.4961,0.0133688,0.0,0.0
921,230,21.5025,23.3942,165.511,100.336,99.8895,0.00501242,0.092216,20.9274,-34.436,0.0404485,0.0,0.0
924,230.75,21.058,23.8567,169.702,100.329,100.03,0.00503046,0.0922687,20.9271,-34.406,0.0271143,0.0,0.0
927,231.5,21.0915,23.8762,169.584,100.305,100.3,0.00502814,0.0922453,20.9269,-34.416,0.000437483,0.0,0.0
930,232.25,21.1506,23.8004,166.357,100.324,100.126,0.00500495,0.0922283,20.9267,-34.4961,0.0179292,0.0,0.0
933,233,21.3443,23.6675,172.69,100.326,100.278,0.00496254,0.0921337,20.9266,-34.5061,0.00430154,0.0,0.0
936,233.75,21.1997,23.4577,168.823,100.324,100.198,0.00492079,0.0919791,20.9265,-34.4961,0.0113947,0.0,0.0
939,234.5,21.2759,23.6067,166.939,100.305,100.396,0.00487182,0.0917801,20.9264,-34.4961,-0.00823294,0.0,0.0
942,235.25,21.2738,23.6791,169.538,100.321,99.9968,0.00485448,0.0915764,20.9263,-34.5161,0.0293477,0.0,0.0
945,236,21.2871,23.4022,164.263,100.315,99.9846,0.00486501,0.0914207,20.9263,-34.5061,0.0298904,0.0,0.0
948,236.75,21.0215,23.321,166.003,100.317,100.204,0.00488257,0.0912949,20.9267,-34.5161,0.0102488,0.0,0.0
951,237.5,21.1766,22.9321,166.462,100.317,100.114,0.00491374,0.0912031,20.927,-34.5061,0.0183486,0.0,0.0
954,238.25,21.4447,23.3682,165.735,100.312,100.096,0.00492358,0.0911225,20.9268,-34.5361,0.0195872,0.0,0.0
957,239,21.1937,23.6627,163.733,100.317,100.565,0.00492526,0.0910579,20.9271,-34.5361,-0.0223511,0.0,0.0
960,239.75,21.4532,23.9083,164.628,100.332,100.365,0.00487692,0.0910499,20.9274,-34.5561,-0.00303596,0.0,0.0
963,240.5,21.2295,23.6545,165.91,100.333,100.361,0.0048261,0.091003,20.9271,-34.5361,-0.00251351,0.0,0.0
966,241.25,21.3421,23.8441,168.791,100.357,100.388,0.00476244,0.0909513,20.9269,-34.5461,-0.00281174,0.0,0.0
969,242,21.5573,23.6295,166.689,100.366,100.037,0.00471399,0.0909135,20.9273,-34.6062,0.0298236,0.0,0.0
972,242.75,21.0262,23.6154,167.751,100.378,100.263,0.00467521,0.0909077,20.9278,-34.5762,0.0103621,0.0,0.0
975,243.5,21.8018,23.7567,164.836,100.403,100.382,,0.0909404,,-34.5661,0.00189561,0.0,0.0
978,244.25,20.9766,23.405,170.561,100.404,100.318,,0.0909095,,-34.5962,0.00773332,0.0,0.0
981,245,21.9042,23.8364,164.734,100.428,100.211,,0.0908635,,-34.5661,0.0195742,0.0,0.0
984,245.75,21.0941,23.7302,165.591,100.46,100.333,,0.0907128,,-34.5862,0.0114206,0.0,0.0
987,246.5,21.0106,23.5604,162.078,100.48,100.77,,,,-34.5962,-0.0260575,0.0,0.0
990,247.25,20.7908,23.6886,164.095,100.496,100.448,,,,-34.6062,0.00424648,0.0,0.0
993,248,21.4533,23.7502,165.535,100.52,100.339,,,,-34.6262,0.0163464,0.0,0.0
996,248.75,21.1725,23.6323,170.9,100.517,100.324,,,,-34.6362,0.0174926,0.0,0.0
999,249.5,20.74,23.4057,167.633,100.541,100.561,,,,-34.6262,-0.00179066,0.0,0.0
1002,250.25,21.6335,23.4794,164.403,100.55,100.668,,,,-34.6462,-0.010713,0.0,0.0
1005,251,21.3374,23.6391,171.485,100.582,100.495,,,,-34.6662,0.00785204,0.0,0.0
1008,251.75,21.3404,23.8045,166.202,100.589,100.51,,,,-34.6662,0.00716019,0.0,0.0
1011,252.5,21.5517,23.7333,170.221,100.599,100.409,,,,-34.6562,0.017085,0.0,0.0
1014,253.25,21.6262,24.0445,166.679,100.625,100.833,,,,-34.6662,-0.0187111,0.0,0.0
1017,254,20.8054,23.5727,167.933,100.651,100.538,,,,-34.6662,0.0101377,0.0,0.0