File: 01_Data/Cotton_Raw/Cone/Raw_Cotton_Cone_HF50-Frame+GridScan_200909_R3.csv
Names,Time,Stack TC,Smoke TC,Exh Press,Smoke Comp,Smoke Meas,CO Meter,CO2 Meter,O2 Meter,Sample Mass,Ext Coeff,Start Test,Flame Verif
Chan Gain,,500,500,1,1,1,1,1,1,1,1,1.0,1.0
Offset,,0,0,0.136754,0,0,0,0,0,0,0,0.0,0.0
Gain,,1,1,25.011,13.7501,16.9893,1,1,1,1.00105,1.02582,1.0,1.0
Units,sec,C,C,Pa,%,%,%,%,%,g,/m,,
Baseline,,31.8444,34.8672,163.323,102.091,103.158,-0.000415174,0.0530955,20.9589,-900.838,-0.0935756,,
2,0.25,30.7144,33.468,165.794,102.673,103.259,0.000173554,0.0551101,20.9549,13.0036,-0.0511705,0.0,0.0
4,0.75,31.0055,33.6695,166.14,102.674,103.258,0.000319418,0.057892,20.9534,12.8735,-0.0509698,0.0,0.0
6,1.25,29.8875,31.9203,163.866,102.674,102.642,0.00047715,0.0601454,20.9511,12.9035,0.00282181,0.0,0.0
8,1.75,29.1287,32.0544,166.034,102.68,101.686,0.000646317,0.0619706,20.9493,12.8435,0.0875548,0.0,0.0
10,2.25,28.9679,32.3239,170.667,102.68,99.7544,0.000820606,0.0755812,20.9369,12.7434,0.260142,0.0,0.0
12,2.75,29.0969,32.3455,157.441,102.68,102.532,0.000985192,0.0866059,20.9269,12.6533,0.0129413,0.0,0.0
14,3.25,29.1253,32.315,153.483,102.689,105.182,0.00113958,0.1011,20.9126,12.2228,-0.215893,0.0,1.0
16,3.75,29.413,33.1551,159.422,102.673,104.583,0.00126463,0.117849,20.8954,12.6533,-0.165832,0.0,1.0
18,4.25,30.7391,34.0098,153.986,102.69,104.652,0.00137737,0.132937,20.8799,12.7033,-0.1703,0.0,1.0
20,4.75,31.1068,35.4009,160.45,102.683,104.652,0.00146869,0.146529,20.8659,12.5932,-0.17088,0.0,1.0
22,5.25,31.5945,35.8503,153.801,102.689,104.51,0.00153503,0.157764,20.8536,12.5432,-0.158186,0.0,1.0
24,5.75,31.7178,36.4736,157.277,102.678,104.193,0.00158876,0.167067,20.8428,12.5332,-0.131781,0.0,1.0
26,6.25,32.7325,36.8938,158.603,102.685,105.296,0.00163228,0.174603,20.8341,12.4631,-0.225933,0.0,1.0
28,6.75,32.7055,37.7854,160.355,102.675,104.06,0.00166245,0.180706,20.8271,12.4531,-0.120568,0.0,1.0
30,7.25,32.6629,38.5202,162.269,102.697,104.83,0.00168688,0.18565,20.8214,12.4731,-0.185026,0.0,1.0
32,7.75,33.2825,39.1694,155.942,102.682,104.555,0.00170413,0.189936,20.8165,12.433,-0.162695,0.0,1.0
34,8.25,33.3296,39.0752,154.409,102.689,104.461,0.00171811,0.193407,20.8123,12.373,-0.153937,0.0,1.0
36,8.75,32.2938,38.5452,155.155,102.683,104.481,0.00172052,0.196663,20.809,12.343,-0.156156,0.0,0.0
38,9.25,32.2904,38.4453,152.826,102.695,104.352,0.00172248,0.1997,20.8054,12.2829,-0.144002,0.0,0.0
40,9.75,33.0057,39.2162,156.422,102.679,103.807,0.00171074,0.20216,20.8025,12.2328,-0.0983234,0.0,0.0
42,10.25,33.1983,39.6276,156.887,102.692,105.074,0.00168924,0.20499,20.8001,12.1227,-0.206323,0.0,0.0
44,10.75,33.2912,39.8918,153.796,102.683,104.134,0.00167183,0.208035,20.796,12.1227,-0.126315,0.0,0.0
46,11.25,33.8443,40.4355,156.094,102.69,104.301,0.00163901,0.211194,20.7927,12.0727,-0.140068,0.0,0.0
48,11.75,33.9889,40.6945,157.737,102.683,104.71,0.00159559,0.214375,20.7899,12.0927,-0.175909,0.0,0.0
50,12.25,34.5947,41.2683,151.887,102.712,104.964,0.00154906,0.217504,20.7877,12.0627,-0.195177,0.0,0.0
52,12.75,34.8615,41.6962,153.782,102.679,103.784,0.00150116,0.220537,20.7852,12.0026,-0.0963455,0.0,0.0
54,13.25,34.8613,42.0423,152.959,102.689,104.012,0.00146235,0.222994,20.7825,11.9626,-0.115221,0.0,0.0
56,13.75,34.9621,42.2888,152.978,102.676,103.95,0.00143092,0.225506,20.7804,11.9125,-0.110977,0.0,0.0
58,14.25,35.2786,42.9386,160.475,102.694,104.414,0.00138898,0.228012,20.7778,11.7924,-0.149438,0.0,0.0
60,14.75,35.1447,43.3542,150.58,102.682,103.991,0.001355,0.230327,20.7756,11.8124,-0.114007,0.0,0.0
62,15.25,35.5862,43.6374,155.334,102.683,104.006,0.00133002,0.23246,20.7735,11.8124,-0.115206,0.0,0.0
64,15.75,35.5234,43.1399,155.013,102.667,103.582,0.00130978,0.234187,20.7713,11.8324,-0.0798721,0.0,0.0
66,16.25,36.1297,43.5361,155.587,102.687,104.268,0.00129466,0.235746,20.7695,11.7023,-0.137536,0.0,0.0
68,16.75,36.0931,43.4614,154.83,102.665,104.108,0.00128241,0.237151,20.7681,11.6823,-0.125619,0.0,0.0
70,17.25,36.2178,44.2319,153.688,102.682,104.35,0.00127756,0.238289,20.767,11.6823,-0.145044,0.0,0.0
72,17.75,36.4282,44.4512,153.814,102.673,104.522,0.00127363,0.238683,20.766,11.6522,-0.160647,0.0,0.0
74,18.25,36.3294,44.4109,157.999,102.687,104.489,0.00127679,0.239001,20.7657,11.5521,-0.156532,0.0,0.0
76,18.75,36.9404,44.8511,154.408,102.666,104.305,0.00127935,0.238566,20.7659,11.5621,-0.142514,0.0,0.0
78,19.25,36.8721,44.4645,153.355,102.679,103.853,0.0012903,0.238214,20.766,11.5021,-0.102293,0.0,0.0
80,19.75,36.7805,44.819,151.632,102.67,104.287,0.00129917,0.237417,20.7666,11.452,-0.140581,0.0,0.0
82,20.25,37.022,45.0856,159.402,102.668,105.062,0.00130636,0.236772,20.767,11.432,-0.207442,0.0,0.0
84,20.75,36.846,44.7348,158.816,102.669,105.11,0.00131588,0.236129,20.7676,11.392,-0.211453,0.0,0.0
86,21.25,36.8302,44.5866,155.914,102.669,104.167,0.0013236,0.235608,20.7683,11.3619,-0.130388,0.0,0.0
88,21.75,37.4295,45.1834,155.172,102.67,104.701,0.00132604,0.235066,20.7688,11.3319,-0.176291,0.0,0.0
90,22.25,37.2007,45.0978,156.232,102.685,104.249,0.00132802,0.234627,20.7691,11.3119,-0.136064,0.0,0.0
92,22.75,37.3972,45.15,156.206,102.671,103.985,0.00132495,0.234272,20.7694,11.2718,-0.114425,0.0,0.0
94,23.25,37.3926,45.0575,156.006,102.661,104.246,0.00131826,0.233352,20.77,11.2018,-0.137892,0.0,0.0
96,23.75,37.2848,45.665,156.209,102.662,104.393,0.0013035,0.232608,20.7705,11.1717,-0.150438,0.0,0.0
98,24.25,37.5639,45.3722,159.468,102.666,103.832,0.00128313,0.231627,20.7714,11.1117,-0.101628,0.0,0.0
100,24.75,37.759,45.4559,157.046,102.682,104.159,0.00126663,0.230491,20.7725,11.1117,-0.128502,0.0,0.0
102,25.25,37.5739,45.6037,155.214,102.65,104.365,0.00123425,0.229218,20.7738,11.0916,-0.149054,0.0,0.0
104,25.75,37.5643,45.5763,156.282,102.668,104.097,0.00120803,0.227869,20.7754,11.0816,-0.124376,0.0,0.0
106,26.25,37.8258,45.574,152.701,102.665,104.007,0.00117665,0.226478,20.7771,11.0716,-0.116832,0.0,0.0
108,26.75,37.8842,45.4298,158.368,102.668,104.703,0.00115123,0.225083,20.7788,11.0015,-0.176572,0.0,0.0
110,27.25,37.5883,45.6225,158.767,102.658,104.104,0.00113064,0.223953,20.7803,10.9115,-0.125841,0.0,0.0
112,27.75,37.9942,45.5393,155.583,102.664,105.043,0.00108358,0.222905,20.7817,10.9215,-0.20616,0.0,0.0
114,28.25,37.479,45.8532,154.987,102.66,105.148,0.00104545,0.221936,20.783,10.8814,-0.215421,0.0,0.0
116,28.75,37.5416,45.4438,151.952,102.663,104.31,0.000979148,0.220943,20.7841,10.7913,-0.143256,0.0,0.0
118,29.25,37.8134,45.605,154.625,102.659,104.027,0.00092544,0.220139,20.785,10.7313,-0.119051,0.0,0.0
120,29.75,37.9477,45.7532,152.811,102.662,104.356,0.000857918,0.219354,20.7857,10.7313,-0.147227,0.0,0.0
122,30.25,37.7975,45.6623,160.12,102.662,104.665,0.000803225,0.218599,20.7863,10.7112,-0.173834,0.0,0.0
124,30.75,37.9456,45.4313,155.155,102.67,104.481,0.000757644,0.217988,20.7867,10.7012,-0.157378,0.0,0.0
126,31.25,37.8642,45.6121,155.084,102.658,104.122,0.000719572,0.217359,20.7871,10.6912,-0.127455,0.0,0.0
128,31.75,37.8873,45.9314,155.292,102.659,103.777,0.000698048,0.216849,20.7874,10.6011,-0.0974081,0.0,0.0
130,32.25,37.8416,45.5616,156.381,102.668,104.165,0.000688996,0.216585,20.7878,10.5511,-0.130282,0.0,0.0
132,32.75,37.84,45.52,156.213,102.673,104.56,0.000696974,0.216371,20.7881,10.6612,-0.163905,0.0,0.0
134,33.25,37.6918,45.5167,155.256,102.671,104.767,0.000717217,0.216284,20.7884,10.6412,-0.181883,0.0,0.0
136,33.75,37.8413,45.1357,157.936,102.682,104.679,0.000733613,0.216292,20.7886,10.6011,-0.173345,0.0,0.0
138,34.25,37.8302,45.4254,158.857,102.669,104.928,0.000746894,0.216228,20.7888,10.5611,-0.195853,0.0,0.0
140,34.75,37.5349,45.4461,158.701,102.664,104.523,0.000757651,0.216113,20.789,10.511,-0.161501,0.0,0.0
142,35.25,37.7808,45.5307,161.121,102.666,104.278,0.000832218,0.21602,20.7891,10.491,-0.140151,0.0,0.0
144,35.75,38.6458,45.9915,154.084,102.665,104.677,0.000892618,0.215677,20.7893,10.441,-0.174646,0.0,0.0
146,36.25,38.1007,45.426,157.035,102.659,104.258,0.000956755,0.215399,20.7897,10.4209,-0.139149,0.0,0.0
148,36.75,37.8322,46.1474,154.246,102.665,104.72,0.00100871,0.215174,20.7903,10.3509,-0.178344,0.0,0.0
150,37.25,37.5469,45.1782,159.129,102.665,103.99,0.00105713,0.214852,20.7907,10.3409,-0.115433,0.0,0.0
152,37.75,37.9619,45.8391,159.525,102.68,104.771,0.00109635,0.214464,20.791,10.3108,-0.181341,0.0,0.0
154,38.25,37.9797,45.6976,155.148,102.676,104.003,0.00112685,0.21415,20.7913,10.2407,-0.115598,0.0,0.0
156,38.75,38.0125,45.8655,154.746,102.684,103.951,0.00115155,0.214058,20.7915,10.1907,-0.110331,0.0,0.0
158,39.25,37.4925,45.34,155.588,102.682,104.166,0.0011703,0.213984,20.7917,10.2307,-0.129122,0.0,0.0
160,39.75,37.6904,45.7583,154.388,102.674,103.852,0.00118548,0.214088,20.7919,10.1607,-0.102637,0.0,0.0
162,40.25,37.6893,45.5696,159.854,102.663,104.834,0.00120792,0.214171,20.7918,10.0005,-0.188317,0.0,0.0
164,40.75,38.0814,45.5917,155.324,102.677,104.296,0.0012261,0.214447,20.7915,10.0706,-0.14079,0.0,0.0
166,41.25,37.7766,45.7522,154.756,102.666,104.704,0.00124083,0.21467,20.7912,10.0606,-0.176845,0.0,0.0
168,41.75,38.1006,45.7952,157.667,102.672,104.489,0.00127179,0.215104,20.7908,10.0906,-0.157864,0.0,0.0
170,42.25,38.0407,45.7924,155.078,102.665,104.581,0.00129687,0.215455,20.7903,10.0606,-0.166389,0.0,0.0
172,42.75,38.4126,45.784,156.782,102.69,104.47,0.00134003,0.215763,20.7896,10.0505,-0.154631,0.0,0.0
174,43.25,37.8526,45.7932,160.502,102.672,104.534,0.001375,0.216033,20.7888,9.97046,-0.16174,0.0,0.0
176,43.75,37.6414,45.7663,156.097,102.68,104.465,0.00142271,0.216252,20.7882,9.9104,-0.155111,0.0,0.0
178,44.25,37.7766,45.8412,155.296,102.67,104.622,0.00147881,0.216474,20.7877,9.90039,-0.169516,0.0,0.0
180,44.75,38.4222,45.5259,157.253,102.685,104.771,0.00153965,0.216654,20.7873,9.93042,-0.181017,0.0,0.0
182,45.25,38.0057,45.7264,153.823,102.671,104.909,0.00160278,0.2168,20.787,9.86035,-0.194031,0.0,0.0
184,45.75,38.1464,45.9405,158.407,102.679,104.744,0.00165392,0.216918,20.7867,9.80029,-0.179172,0.0,0.0
186,46.25,38.7121,46.2227,155.504,102.668,104.738,0.00172079,0.217061,20.7863,9.76024,-0.179646,0.0,0.0
188,46.75,38.6691,46.2579,157.885,102.686,105.523,0.00177496,0.217218,20.7857,9.73021,-0.245208,0.0,0.0
190,47.25,37.947,46.1661,157.925,102.68,104.948,0.00183539,0.217503,20.7853,9.71019,-0.196557,0.0,0.0
192,47.75,38.4733,46.5684,159.448,102.692,104.693,0.00188434,0.217874,20.7849,9.67015,-0.173592,0.0,0.0
194,48.25,38.6752,46.2931,157.679,102.682,103.919,0.00192868,0.218175,20.7846,9.65013,-0.107813,0.0,0.0
196,48.75,38.4941,46.5815,156.042,102.685,104.852,0.00196882,0.218523,20.7844,9.60008,-0.187924,0.0,0.0
198,49.25,38.8165,46.2893,154.854,102.685,104.744,0.00200736,0.218805,20.7842,9.59007,-0.17862,0.0,0.0
200,49.75,38.6866,46.7462,159.45,102.682,104.503,0.00204402,0.218899,20.784,9.55002,-0.158223,0.0,0.0
202,50.25,38.5706,46.6843,151.802,102.672,104.038,0.00207371,0.218975,20.7839,9.54001,-0.118934,0.0,0.0
204,50.75,39.0517,46.1453,158.57,102.688,104.722,0.00211178,0.219029,20.7838,9.44992,-0.176492,0.0,0.0
206,51.25,38.8391,46.7028,149.334,102.679,104.636,0.00214261,0.219066,20.7837,9.48996,-0.16991,0.0,0.0
208,51.75,38.7205,46.7557,158.739,102.692,104.69,0.00218799,0.219095,20.7836,9.51999,-0.173398,0.0,0.0
210,52.25,38.9052,46.5974,153.12,102.678,105.206,0.00222475,0.219403,20.7836,9.53,-0.218889,0.0,0.0
212,52.75,38.991,46.4805,155.415,102.694,105.132,0.0022646,0.219651,20.7835,9.45993,-0.211155,0.0,0.0
214,53.25,38.8662,46.2717,152.688,102.688,104.359,0.00230594,0.219912,20.7835,9.45993,-0.14526,0.0,0.0
216,53.75,38.6847,46.6373,152.127,102.698,104.395,0.00235017,0.220124,20.7835,9.44992,-0.147536,0.0,0.0
218,54.25,38.9225,46.784,155.236,102.681,105.28,0.00239567,0.22017,20.7834,9.36983,-0.224926,0.0,0.0
220,54.75,38.7644,46.6792,160.198,102.686,103.893,0.00243253,0.220094,20.7834,9.29976,-0.105201,0.0,0.0
222,55.25,38.5985,46.6676,159.763,102.687,104.596,0.00248282,0.219797,20.7834,9.25972,-0.165815,0.0,0.0
224,55.75,39.4049,46.8084,155.488,102.694,104.483,0.00252355,0.219346,20.7838,9.25972,-0.155461,0.0,0.0
226,56.25,39.5118,47.1406,157.301,102.694,104.197,0.00255655,0.218792,20.7842,9.2397,-0.130778,0.0,0.0
228,56.75,38.8832,46.8176,157.824,102.683,104.57,0.00258455,0.218175,20.7844,9.19965,-0.163834,0.0,0.0
230,57.25,39.0844,46.8038,158.314,102.694,104.761,0.00260723,0.217675,20.7847,9.15961,-0.179281,0.0,0.0
232,57.75,38.7197,46.5321,157.111,102.696,104.68,0.00262561,0.217374,20.7848,9.15961,-0.172192,0.0,0.0
234,58.25,39.1828,46.9121,157.884,102.69,104.951,0.00260984,0.21713,20.7849,9.13959,-0.19597,0.0,0.0
236,58.75,39.0237,46.9027,158.534,102.692,104.547,0.00259707,0.216933,20.7849,9.1496,-0.161016,0.0,0.0
238,59.25,38.4935,46.767,151.988,102.686,105.134,0.00257652,0.216521,20.7849,9.10956,-0.211987,0.0,0.0
240,59.75,38.842,46.8381,156.051,102.679,104.722,0.00255987,0.216186,20.785,9.06952,-0.177264,0.0,0.0
242,60.25,39.1576,46.6832,156.893,102.682,104.3,0.00255276,0.215916,20.7854,9.07953,-0.140714,0.0,0.0
244,60.75,39.3722,47.1267,154.891,102.695,105.328,0.00254701,0.214748,20.7862,9.07953,-0.227841,0.0,0.0
246,61.25,38.9056,46.7481,158.109,102.696,104.348,0.00255894,0.213802,20.7868,8.99944,-0.143578,0.0,0.0
248,61.75,38.9626,46.476,160.762,102.681,104.953,0.00256861,0.212787,20.7882,8.99944,-0.196928,0.0,0.0
250,62.25,39.3185,46.6617,161.565,102.678,104.198,0.00257644,0.21174,20.7894,8.96941,-0.132229,0.0,0.0
252,62.75,38.8438,46.4148,158.394,102.673,104.723,0.002616,0.21014,20.7907,8.90935,-0.177913,0.0,0.0
254,63.25,38.7124,46.7197,162.123,102.687,104.693,0.00264804,0.208843,20.7922,8.94939,-0.17407,0.0,0.0
256,63.75,39.3007,46.6025,157.386,102.678,104.133,0.00269572,0.206719,20.7939,8.84929,-0.12663,0.0,0.0
258,64.25,38.9972,46.564,157.347,102.687,104.191,0.00273435,0.204998,20.7957,8.82927,-0.130793,0.0,0.0
260,64.75,39.2115,46.7635,159.623,102.674,104.489,0.00278738,0.203605,20.7976,8.80925,-0.157643,0.0,0.0
262,65.25,39.141,46.4215,159.837,102.679,104.453,0.00283034,0.201347,20.7996,8.81926,-0.154194,0.0,0.0
264,65.75,38.9125,46.3595,155.204,102.685,104.628,0.00288945,0.199518,20.8014,8.80925,-0.168645,0.0,0.0
266,66.25,38.6892,46.5292,155.7,102.683,105.128,0.00293733,0.197805,20.8031,8.80925,-0.211757,0.0,0.0
268,66.75,38.8368,45.781,157.528,102.671,104.518,0.00299499,0.19621,20.8044,8.67911,-0.160438,0.0,0.0
270,67.25,38.9103,45.7519,155.697,102.682,104.419,0.00305869,0.19471,20.8064,8.68912,-0.150952,0.0,0.0
272,67.75,38.3514,45.6728,152.647,102.688,104.868,0.00312512,0.193309,20.808,8.68912,-0.188965,0.0,0.0
274,68.25,38.8568,45.7571,157.901,102.687,104.676,0.0031923,0.191851,20.8097,8.62906,-0.172563,0.0,0.0
276,68.75,38.6226,45.6463,154.243,102.668,104.358,0.00324671,0.19038,20.8111,8.61905,-0.146928,0.0,0.0
278,69.25,38.5883,45.6049,160.849,102.684,104.397,0.00330496,0.188548,20.8127,8.59902,-0.148847,0.0,0.0
280,69.75,38.5294,45.329,156.848,102.676,105.252,0.00336491,0.187064,20.8144,8.48891,-0.222938,0.0,0.0
282,70.25,38.5294,45.0568,160.665,102.684,104.662,0.00342427,0.185396,20.8158,8.54897,-0.171653,0.0,0.0
284,70.75,38.664,45.7144,158.421,102.672,104.129,0.0034547,0.183625,20.8166,8.60904,-0.126861,0.0,0.0
286,71.25,38.1753,45.2599,158.557,102.672,104.578,0.00350674,0.182191,20.818,8.54897,-0.165459,0.0,0.0
288,71.75,38.4197,44.949,159.555,102.674,103.969,0.00358486,0.179741,20.8192,8.54897,-0.112776,0.0,0.0
290,72.25,38.0454,44.8178,157.399,102.672,105.304,0.00364813,0.177756,20.8214,8.54897,-0.227737,0.0,0.0
292,72.75,38.2176,44.9594,160.272,102.669,104.15,0.00373053,0.17564,20.8232,8.56899,-0.128873,0.0,0.0
294,73.25,37.8973,44.3865,156.664,102.675,104.78,0.0038253,0.173468,20.8251,8.56899,-0.18262,0.0,0.0
296,73.75,38.1825,44.4095,159.421,102.664,103.963,0.00393257,0.172542,20.8266,8.49892,-0.113165,0.0,0.0
298,74.25,37.7607,43.7559,155.541,102.669,104.293,0.00404692,0.170196,20.8292,8.50893,-0.141183,0.0,0.0
300,74.75,37.8971,44.3089,155.922,102.668,104.054,0.0041667,0.168295,20.8312,8.51894,-0.120656,0.0,0.0
302,75.25,37.4361,43.7386,160.153,102.689,104.047,0.00428817,0.166031,20.8336,8.50893,-0.118226,0.0,0.0
304,75.75,37.8349,43.6361,157.245,102.662,104.834,0.00438655,0.163545,20.8361,8.49892,-0.18839,0.0,0.0
306,76.25,38.0683,43.5434,162.68,102.669,104.554,0.0045057,0.160997,20.8382,8.51894,-0.163664,0.0,0.0
308,76.75,37.269,43.4668,161.879,102.656,104.089,0.0046377,0.158453,20.8412,8.49892,-0.124689,0.0,0.0
310,77.25,37.2722,43.1165,160.882,102.665,104.178,0.00477869,0.156392,20.8436,8.45888,-0.131623,0.0,0.0
312,77.75,37.4904,43.2547,159.919,102.668,104.337,0.00492355,0.153469,20.8464,8.44887,-0.145095,0.0,0.0
314,78.25,37.1479,42.5481,163.85,102.664,103.943,0.00504089,0.151101,20.8487,8.41884,-0.111378,0.0,0.0
316,78.75,37.4439,42.5045,158.241,102.653,104.289,0.00520855,0.147664,20.8518,8.41884,-0.142276,0.0,0.0
318,79.25,37.4671,42.9209,157.369,102.662,104.046,0.00534436,0.144881,20.8544,8.41884,-0.12049,0.0,0.0
320,79.75,36.4813,42.0536,160.772,102.653,104.718,0.00552322,0.142142,20.8565,8.41884,-0.179188,0.0,0.0
322,80.25,37.078,42.6344,161.16,102.651,103.963,0.0056681,0.139489,20.8588,8.40882,-0.11435,0.0,0.0
324,80.75,36.7934,42.1602,161.107,102.637,104.891,0.00578544,0.137339,20.8614,8.41884,-0.195454,0.0,0.0
326,81.25,36.6663,41.7322,156.854,102.654,104.507,0.00597032,0.134879,20.8636,8.40882,-0.160963,0.0,0.0
328,81.75,36.5907,41.939,160.443,102.648,103.721,0.00612007,0.132885,20.8657,8.36878,-0.0935074,0.0,0.0
330,82.25,36.457,41.9702,160.873,102.648,104.361,0.00625852,0.130384,20.8674,8.37879,-0.148962,0.0,0.0
332,82.75,36.6533,41.5176,154.643,102.644,104.246,0.00638611,0.128357,20.8696,8.3888,-0.139371,0.0,0.0
334,83.25,36.3796,41.1001,159.798,102.664,104.105,0.00648946,0.126716,20.8714,8.39882,-0.125416,0.0,0.0
336,83.75,36.2363,41.2161,160.304,102.64,104.338,0.00656836,0.124522,20.8728,8.40882,-0.147657,0.0,0.0
338,84.25,36.3563,41.1472,157.753,102.655,103.933,0.00662795,0.121967,20.8758,8.35877,-0.111335,0.0,0.0
340,84.75,35.7721,41.3634,160.652,102.636,103.837,0.00666044,0.119493,20.8781,8.35877,-0.104682,0.0,0.0
342,85.25,35.5424,41.047,161.704,102.655,104.317,0.00667255,0.117124,20.8814,8.36878,-0.144544,0.0,0.0
344,85.75,36.1771,41.0032,162.352,102.632,104.138,0.00666591,0.115206,20.884,8.35877,-0.131071,0.0,0.0
346,86.25,36.1363,40.4411,162.768,102.64,104.215,0.00664572,0.113093,20.8865,8.34876,-0.136972,0.0,0.0
348,86.75,35.7089,40.6312,159.88,102.625,103.713,0.00661293,0.111381,20.8886,8.35877,-0.0949302,0.0,0.0
350,87.25,35.6472,40.4952,157.299,102.641,103.82,0.00657157,0.109782,20.8907,8.32874,-0.10272,0.0,0.0
352,87.75,35.5394,40.2443,158.386,102.619,104.508,0.00653807,0.108295,20.8924,8.31873,-0.164188,0.0,0.0
354,88.25,35.4179,39.8348,158.325,102.64,103.731,0.00647322,0.107032,20.8938,8.32874,-0.0950987,0.0,0.0
356,88.75,35.5677,40.1888,158.604,102.622,103.401,0.0064207,0.105956,20.8949,8.30872,-0.0680751,0.0,0.0
358,89.25,35.3929,39.7202,164.206,102.627,104.238,0.00635901,0.105085,20.8958,8.30872,-0.140118,0.0,0.0
360,89.75,35.1391,39.6784,162.446,102.619,103.939,0.00629181,0.104476,20.8966,8.30872,-0.115037,0.0,0.0
362,90.25,34.9559,39.3747,160.537,102.635,103.644,0.00623738,0.103984,20.8972,8.2887,-0.0880338,0.0,0.0
364,90.75,34.9983,39.3496,161.273,102.619,104.253,0.00616324,0.10371,20.8977,8.30872,-0.142116,0.0,0.0
366,91.25,35.1869,39.5148,161.223,102.627,104.496,0.00607614,0.103488,20.898,8.29871,-0.162388,0.0,0.0
368,91.75,34.7929,39.6895,162.5,102.614,104.189,0.00598172,0.103265,20.8984,8.29871,-0.137059,0.0,0.0
370,92.25,35.4622,39.4885,158.578,102.625,103.481,0.00588376,0.103044,20.8986,8.27869,-0.0747263,0.0,0.0
372,92.75,34.0238,38.2809,158.07,102.616,103.649,0.00580441,0.102865,20.8988,8.2887,-0.0901231,0.0,0.0
374,93.25,33.0529,37.5382,166.176,102.629,103.967,0.00569095,0.102623,20.899,8.32874,-0.116622,0.0,0.0
376,93.75,32.9475,37.4942,163.112,102.614,104.004,0.00559905,0.102426,20.8991,8.31873,-0.121059,0.0,0.0
378,94.25,32.9061,36.893,157.19,102.617,104.052,0.0054742,0.10226,20.8995,8.2887,-0.124927,0.0,0.0
380,94.75,32.9936,37.0955,161.69,102.629,103.835,0.00537307,0.102119,20.9,8.2887,-0.105172,0.0,0.0
382,95.25,33.2926,37.1534,162.247,102.629,103.401,0.00524984,0.101968,20.9003,8.29871,-0.0674861,0.0,0.0
384,95.75,33.2513,37.0076,161.44,102.62,103.845,0.00515002,0.101812,20.9007,8.29871,-0.106753,0.0,0.0
386,96.25,33.1061,37.2403,159.7,102.617,104.329,0.00505966,0.101686,20.9009,8.30872,-0.148912,0.0,0.0
388,96.75,33.1759,36.8592,163.354,102.617,103.934,0.00497792,0.101403,20.9011,8.2887,-0.114735,0.0,0.0
390,97.25,33.4426,37.194,156.655,102.631,103.671,0.0049117,0.101174,20.9013,8.23865,-0.0906968,0.0,0.0
392,97.75,32.966,36.8116,158.228,102.622,104.453,0.00485943,0.100834,20.9014,8.24866,-0.159197,0.0,0.0
394,98.25,32.9377,36.7715,156.751,102.621,104.456,0.00481831,0.10042,20.9015,8.24866,-0.159457,0.0,0.0
396,98.75,32.8878,36.695,163.19,102.618,103.925,0.004785,0.100056,20.9016,8.20861,-0.113862,0.0,0.0
398,99.25,33.0284,36.5774,166.569,102.614,103.794,0.00476963,0.0997342,20.9019,8.20861,-0.102828,0.0,0.0
400,99.75,33.0851,36.7702,159.394,102.62,103.977,0.00475718,0.0994737,20.9024,8.20861,-0.118166,0.0,0.0
402,100.25,32.5801,36.5007,160.075,102.612,103.817,0.00476775,0.0995552,20.9027,8.21863,-0.105034,0.0,0.0
404,100.75,32.7935,36.3912,159.251,102.624,103.575,0.00477631,0.0996212,20.903,8.22864,-0.0830296,0.0,0.0
406,101.25,32.456,36.2542,155.368,102.627,103.854,0.00480132,0.0997846,20.9033,8.1986,-0.107018,0.0,0.0
408,101.75,32.3368,36.4382,160.516,102.626,103.677,0.00482158,0.100016,20.9035,8.18859,-0.0917154,0.0,0.0
410,102.25,32.3917,36.2891,160.327,102.618,103.577,0.00484574,0.100203,20.9036,8.18859,-0.0837252,0.0,0.0
412,102.75,32.5149,36.44,162.528,102.631,103.665,0.00486531,0.100313,20.9038,8.15856,-0.0902022,0.0,0.0
414,103.25,32.2724,36.5074,160.136,102.623,103.7,0.0048832,0.100403,20.9039,8.21863,-0.0939524,0.0,0.0
416,103.75,32.667,36.4825,162.65,102.625,103.802,0.00489953,0.100405,20.9039,8.23865,-0.102546,0.0,0.0
418,104.25,32.5698,36.9173,158.838,102.611,103.846,0.00491275,0.100407,20.904,8.25867,-0.107661,0.0,0.0
420,104.75,32.3163,36.5675,160.71,102.624,103.92,0.00492346,0.100214,20.9041,8.21863,-0.112934,0.0,0.0
422,105.25,32.4776,36.6519,159.6,102.623,103.663,0.00492058,0.100057,20.9041,8.17858,-0.0907212,0.0,0.0
424,105.75,32.6795,36.4456,158.605,102.616,104.201,0.00490785,0.0998935,20.9043,8.16857,-0.137978,0.0,0.0
426,106.25,32.8976,36.7197,161.542,102.627,103.891,0.00487444,0.0997281,20.9044,8.16857,-0.110125,0.0,0.0
428,106.75,32.6466,36.3363,160.535,102.634,103.863,0.0048266,0.0995941,20.9045,8.15856,-0.107075,0.0,0.0
430,107.25,32.3997,36.5234,160.387,102.623,103.719,0.0047641,0.0994856,20.9046,8.13854,-0.0955725,0.0,0.0
432,107.75,32.23,36.6433,157.765,102.618,104.09,0.00469211,0.0994416,20.9047,8.13854,-0.128126,0.0,0.0
434,108.25,32.108,35.9673,161.847,102.608,103.689,0.00461753,0.0994456,20.9047,8.15856,-0.0942505,0.0,0.0
436,108.75,32.3866,36.5898,160.497,102.627,104.155,0.00454248,0.0994488,20.9048,8.13854,-0.133,0.0,0.0
438,109.25,32.497,35.997,158.325,102.628,104.266,0.00448169,0.0994375,20.9048,8.12853,-0.142425,0.0,0.0
440,109.75,32.5356,36.3577,157.683,102.617,104.669,0.00441443,0.0994284,20.9048,8.13854,-0.17817,0.0,0.0
442,110.25,32.612,36.179,153.848,102.616,103.802,0.00435995,0.0993235,20.9048,8.13854,-0.103392,0.0,0.0
444,110.75,32.5326,36.2931,158.979,102.623,103.962,0.00431711,0.0991726,20.9051,8.13854,-0.116644,0.0,0.0
446,111.25,32.0873,36.5057,156.029,102.613,103.956,0.00428241,0.098991,20.9055,8.12853,-0.116988,0.0,0.0
448,111.75,32.324,36.6245,161.696,102.619,104.33,0.0042543,0.0988439,20.9058,8.11852,-0.148781,0.0,0.0
450,112.25,32.414,36.8164,159.641,102.62,104.155,0.00424569,0.0986134,20.9061,8.13854,-0.133625,0.0,0.0
452,112.75,32.3466,36.4286,159.718,102.622,104.295,0.00423871,0.0984267,20.9063,8.12853,-0.14549,0.0,0.0
454,113.25,32.255,36.7224,157.04,102.622,103.714,0.00423435,0.0981803,20.9067,8.10851,-0.0952776,0.0,0.0
456,113.75,32.28,36.8118,155.759,102.625,103.763,0.00423082,0.0978951,20.9073,8.02843,-0.0992474,0.0,0.0
458,114.25,32.7491,36.4701,161.82,102.616,103.566,0.00422728,0.097664,20.9077,8.03844,-0.082918,0.0,0.0
460,114.75,32.818,36.5056,160.094,102.618,103.969,0.0042238,0.0972405,20.9085,8.05846,-0.117668,0.0,0.0
462,115.25,32.5322,36.5895,164.812,102.613,103.535,0.00422234,0.0968974,20.9091,8.05846,-0.0805176,0.0,0.0
464,115.75,32.4991,36.6061,165.534,102.626,103.992,0.00422238,0.0966195,20.9096,8.06847,-0.118988,0.0,0.0
466,116.25,32.5744,36.0757,161.518,102.63,103.511,0.00422444,0.0963944,20.91,8.02843,-0.0769364,0.0,0.0
468,116.75,32.1637,36.6676,161.132,102.644,103.642,0.00422794,0.0962121,20.9104,8.07848,-0.087118,0.0,0.0
470,117.25,32.6012,36.3424,160.737,102.619,103.633,0.00423077,0.0960644,20.9107,8.02843,-0.0884704,0.0,0.0
472,117.75,32.3679,36.3961,162.684,102.627,103.896,0.00423564,0.0959814,20.9107,8.06847,-0.110656,0.0,0.0
474,118.25,32.2062,35.977,163.006,102.609,103.891,0.00423959,0.0959471,20.9104,8.01842,-0.111716,0.0,0.0
476,118.75,32.5046,35.8037,164.247,102.643,103.711,0.00424278,0.0959193,20.9103,8.08849,-0.0932132,0.0,0.0
478,119.25,32.7997,36.1249,164.547,102.623,103.721,0.00423765,0.0960497,20.9101,8.05846,-0.0957151,0.0,0.0
480,119.75,31.5854,36.0962,158.376,102.635,103.875,0.00423349,0.0961554,20.91,8.07848,-0.108035,0.0,0.0
482,120.25,32.1382,35.9949,160.985,102.627,104.054,0.00420953,0.0962827,20.9099,8.05846,-0.12426,0.0,0.0
484,120.75,32.2159,36.0542,159.326,102.636,104.027,0.00419012,0.0963858,20.9099,8.05846,-0.121074,0.0,0.0
486,121.25,32.2277,36.4783,162.478,102.637,103.849,0.00414482,0.096462,20.9098,8.05846,-0.105686,0.0,0.0
488,121.75,32.2772,35.9339,161.51,102.627,103.891,0.00410813,0.0965171,20.9097,8.03844,-0.110088,0.0,0.0
490,122.25,32.7141,36.0726,160.239,102.619,103.75,0.004045,0.0965618,20.9099,8.02843,-0.0985647,0.0,0.0
492,122.75,32.5283,36.2907,159.261,102.658,104.022,0.00399387,0.0962504,20.9103,7.97837,-0.11884,0.0,0.0
494,123.25,32.6243,36.1674,160.619,102.64,104.078,0.00392934,0.0959981,20.9106,7.93833,-0.125182,0.0,0.0
496,123.75,32.4929,36.3258,158.849,102.651,104.236,0.00387707,0.0957134,20.9108,7.94834,-0.137879,0.0,0.0
498,124.25,32.1727,36.5582,159.873,102.623,104.47,0.00382575,0.0954103,20.911,7.92832,-0.16056,0.0,0.0
500,124.75,32.3123,36.4651,161.656,102.641,104.273,0.00378418,0.0951283,20.9112,7.96836,-0.14191,0.0,0.0
502,125.25,32.6526,36.3607,161.02,102.63,103.761,0.00375051,0.0948669,20.9113,7.93833,-0.0985891,0.0,0.0
504,125.75,32.5482,35.9778,165.674,102.64,103.372,0.0037258,0.0946772,20.9114,7.95835,-0.0639656,0.0,0.0
506,126.25,31.8365,35.8307,162.784,102.624,104.869,0.00370579,0.0945432,20.9115,7.96836,-0.194719,0.0,0.0
508,126.75,32.4168,35.8872,159.029,102.646,104.69,0.00368573,0.0944639,20.9115,8.07848,-0.177489,0.0,0.0
510,127.25,32.532,36.182,160.613,102.629,104.441,0.00366948,0.0944261,20.9116,8.0084,-0.157544,0.0,0.0
512,127.75,32.3598,35.61,162.317,102.664,104.279,0.00365631,0.0943954,20.9116,8.06847,-0.140498,0.0,0.0
514,128.25,32.6166,36.4251,161.256,102.637,104.228,0.00362641,0.0942455,20.9114,8.06847,-0.138467,0.0,0.0
516,128.75,32.319,36.3398,157.01,102.64,103.947,0.00361366,0.0941241,20.9111,8.04845,-0.113842,0.0,0.0
518,129.25,32.4017,36.0969,156.658,102.63,103.94,0.00358848,0.0938723,20.9107,8.0084,-0.114133,0.0,0.0
520,129.75,32.38,36.2043,162.166,102.646,103.945,0.00356505,0.0935302,20.9108,8.02843,-0.113184,0.0,0.0
522,130.25,32.3893,36.0233,162.548,102.619,103.78,0.00354608,0.0932532,20.9109,7.94834,-0.101254,0.0,0.0
524,130.75,32.0563,35.8773,164.893,102.64,104.247,0.00353583,0.09289,20.9109,7.91831,-0.13982,0.0,0.0
526,131.25,32.4773,36.0851,163.822,102.636,103.535,0.00352754,0.0924709,20.911,7.93833,-0.0784122,0.0,0.0
528,131.75,32.1954,35.8659,162.49,102.638,103.34,0.0035298,0.0923434,20.911,8.03844,-0.0613143,0.0,0.0
530,132.25,32.3243,36.4305,163.974,102.637,103.805,0.00353163,0.0921253,20.9111,7.89829,-0.10183,0.0,0.0
532,132.75,31.6174,35.9077,160.248,102.655,103.833,0.00353311,0.0920947,20.9111,7.92832,-0.102712,0.0,0.0
534,133.25,31.7321,35.6936,162.826,102.632,104.166,0.00353303,0.0922015,20.9111,7.92832,-0.133535,0.0,0.0
536,133.75,32.2595,35.4215,168.722,102.65,104.103,0.00353296,0.0922879,20.9111,8.01842,-0.12645,0.0,0.0
538,134.25,32.191,35.3801,158.938,102.641,104.085,0.00353162,0.0926913,20.9109,7.97837,-0.125699,0.0,0.0
540,134.75,31.8842,35.5273,159.299,102.638,103.946,0.00353054,0.093018,20.9105,7.93833,-0.113936,0.0,0.0
542,135.25,31.9032,35.8178,160.937,102.655,104.281,0.00352966,0.0931803,20.9102,7.92832,-0.141412,0.0,0.0
544,135.75,31.9173,35.8603,157.644,102.655,104.272,0.00352895,0.0932196,20.91,7.91831,-0.140644,0.0,0.0
546,136.25,32.2482,36.3578,161.744,102.646,103.923,0.00352838,0.0932514,20.9098,7.9083,-0.111336,0.0,0.0
548,136.75,32.3023,36.1403,159.626,102.648,103.771,0.00352791,0.0930273,20.9096,7.96836,-0.0979064,0.0,0.0
550,137.25,32.6319,36.2964,161.555,102.647,103.988,0.00352888,0.0928458,20.9095,8.01842,-0.11679,0.0,0.0
552,137.75,32.3153,36.2537,157.619,102.646,103.661,0.00353089,0.0926572,20.9102,7.94834,-0.0885175,0.0,0.0
554,138.25,31.9962,36.6417,161.546,102.646,103.779,0.00353724,0.0925043,20.9108,7.98838,-0.0987285,0.0,0.0
556,138.75,31.6901,36.2636,159.051,102.648,104.491,0.00354663,0.0923513,20.9113,8.01842,-0.160058,0.0,0.0
558,139.25,32.8892,36.1437,161.212,102.646,104.306,0.00355425,0.0922011,20.9117,8.0084,-0.144287,0.0,0.0
560,139.75,32.2883,36.0441,160.417,102.649,105.183,0.00357325,0.0920356,20.9121,7.91831,-0.219439,0.0,0.0
562,140.25,32.2811,36.0024,158.808,102.655,104.83,0.00358864,0.0918621,20.9123,7.88828,-0.188667,0.0,0.0
564,140.75,32.1717,36.2097,159.001,102.648,104.181,0.00360651,0.0916705,20.9126,7.93833,-0.133436,0.0,0.0
566,141.25,31.9097,36.2693,160.356,102.652,104.119,0.00362585,0.0914693,20.9127,7.97837,-0.127656,0.0,0.0
568,141.75,32.4415,36.1548,161.533,102.647,103.99,0.00364016,0.0913063,20.9129,7.99839,-0.116933,0.0,0.0
570,142.25,32.2189,36.1024,157.803,102.658,103.78,0.00365054,0.0911743,20.913,7.98838,-0.0978251,0.0,0.0
572,142.75,32.2142,36.0422,158.793,102.66,103.842,0.00364611,0.0910673,20.9131,7.95835,-0.103034,0.0,0.0
574,143.25,32.5585,36.3432,160.514,102.66,103.509,0.00363097,0.0908975,20.9132,7.94834,-0.0740622,0.0,0.0
576,143.75,32.7644,36.0913,159.68,102.659,103.997,0.00361871,0.0907599,20.9132,7.89829,-0.116568,0.0,0.0
578,144.25,32.0886,36.5421,161.747,102.668,104.913,0.00356646,0.0905172,20.9133,7.88828,-0.194636,0.0,0.0
580,144.75,32.8033,36.4119,161.949,102.658,104.292,0.00350055,0.0902023,20.9133,7.91831,-0.142095,0.0,0.0
582,145.25,32.6286,36.4341,161.568,102.67,103.768,0.00342592,0.0898525,20.9138,7.87827,-0.0957324,0.0,0.0
584,145.75,32.8366,36.6339,158.434,102.675,103.535,0.00336547,0.0894838,20.9142,7.87827,-0.0749919,0.0,0.0
586,146.25,32.3337,36.7592,161.238,102.668,104.088,0.00331651,0.0891851,20.9145,7.87827,-0.123651,0.0,0.0
588,146.75,32.5977,36.6011,161.395,102.661,103.536,0.00320523,0.0889017,20.9147,7.88828,-0.0763408,0.0,0.0
590,147.25,32.559,36.3139,160.723,102.685,104.347,0.00311509,0.0886721,20.9149,7.85825,-0.144518,0.0,0.0
592,147.75,32.242,36.581,160.657,102.687,104.027,0.00302662,0.0885415,20.9151,7.85825,-0.116661,0.0,0.0
594,148.25,32.5531,36.5822,159.72,102.664,104.207,0.00294105,0.0884358,20.9152,7.83823,-0.13424,0.0,0.0
596,148.75,32.5842,36.1786,157.599,102.68,104.583,0.00287307,0.0882699,20.9153,7.79818,-0.165287,0.0,0.0
598,149.25,32.0802,36.0917,156.969,102.672,104.056,0.00281922,0.0880634,20.9154,7.79818,-0.120422,0.0,0.0
600,149.75,32.0679,36.2247,160.54,102.662,103.777,0.00277561,0.0878961,20.9155,7.86826,-0.0971956,0.0,0.0
602,150.25,32.4797,36.2514,163.158,102.677,104.351,0.00276987,0.0876499,20.9155,7.88828,-0.145538,0.0,0.0
604,150.75,31.8666,36.4065,159.022,102.671,104.05,0.00279185,0.0874504,20.9156,7.9083,-0.120084,0.0,0.0
606,151.25,32.4988,36.4952,158.828,102.677,104.175,0.00283255,0.0874273,20.9162,7.91831,-0.130324,0.0,0.0
608,151.75,32.3092,36.7425,158.858,102.66,103.851,0.00288612,0.0874086,20.9167,7.88828,-0.103798,0.0,0.0
610,152.25,32.5945,35.988,164.5,102.674,103.623,0.00294299,0.0874765,20.917,7.83823,-0.082767,0.0,0.0
612,152.75,32.1292,35.7267,158.867,102.671,104.062,0.00300119,0.0875315,20.9174,7.85825,-0.121152,0.0,0.0
614,153.25,32.3621,35.8313,156.045,102.675,104.805,0.00304833,0.0875761,20.9181,7.87827,-0.184802,0.0,0.0
616,153.75,32.3503,35.965,156.251,102.671,104.256,0.00308989,0.0873076,20.9186,7.86826,-0.137822,0.0,0.0
618,154.25,31.6882,36.3443,165.814,102.702,104.122,0.00312658,0.0870901,20.9191,7.87827,-0.12363,0.0,0.0
620,154.75,32.3326,36.1947,157.32,102.664,104.298,0.00315159,0.0867464,20.9194,7.83823,-0.142116,0.0,0.0
622,155.25,32.1618,36.1745,162.464,102.683,103.803,0.00316759,0.0863172,20.9197,7.83823,-0.0976413,0.0,0.0
624,155.75,32.3675,36.4617,164.918,102.667,104.728,0.00317516,0.0859041,20.92,7.84824,-0.178821,0.0,0.0
626,156.25,32.4825,36.3771,161.691,102.685,103.537,0.00317644,0.0855105,20.9202,7.84824,-0.0743624,0.0,0.0
628,156.75,32.1724,36.4804,161.739,102.659,104.097,0.00317748,0.0851917,20.9208,7.83823,-0.12514,0.0,0.0
630,157.25,32.3591,35.9678,165.96,102.672,104.822,0.00316157,0.0849043,20.9213,7.82822,-0.186528,0.0,0.0
632,157.75,31.953,35.8841,164.873,102.67,103.982,0.00314868,0.0846454,20.9216,7.84824,-0.114274,0.0,0.0
634,158.25,32.3627,36.3281,159.795,102.679,104.332,0.0031152,0.0843992,20.9217,7.84824,-0.143744,0.0,0.0
636,158.75,32.6423,36.2486,161.453,102.665,103.942,0.00308809,0.0841671,20.9219,7.82822,-0.11126,0.0,0.0
638,159.25,32.0199,36.3674,163.664,102.681,103.927,0.00303672,0.0839423,20.922,7.80819,-0.10856,0.0,0.0
640,159.75,32.0988,35.9994,159.031,102.671,104.046,0.00299511,0.0837272,20.9221,7.82822,-0.119762,0.0,0.0
642,160.25,32.382,36.1241,160.18,102.681,103.764,0.00297737,0.0835528,20.9221,7.8182,-0.0944169,0.0,0.0
644,160.75,32.1413,36.1556,159.672,102.673,104.125,0.00292786,0.0834117,20.9222,7.83823,-0.126346,0.0,0.0
646,161.25,32.4266,36.1715,162.212,102.684,104.067,0.00288777,0.0832973,20.9222,7.83823,-0.120379,0.0,0.0
648,161.75,32.3209,36.1937,158.654,102.67,104.194,0.00285125,0.083177,20.9223,7.83823,-0.132605,0.0,0.0
650,162.25,31.8236,36.4088,159.608,102.67,103.906,0.00281805,0.0830796,20.9223,7.83823,-0.107639,0.0,0.0
652,162.75,32.0603,36.46,161.705,102.687,103.815,0.00278443,0.0829789,20.9223,7.83823,-0.0982708,0.0,0.0
654,163.25,32.1312,35.8997,160.69,102.69,104.162,0.00275115,0.0829256,20.9226,7.8182,-0.128101,0.0,0.0
656,163.75,32.2937,36.195,166.598,102.668,104.209,0.00271881,0.0828345,20.923,7.79818,-0.134051,0.0,0.0
658,164.25,32.4011,36.5852,161.348,102.688,103.762,0.00268779,0.0826225,20.9233,7.79818,-0.093612,0.0,0.0
660,164.75,32.4519,36.3361,158.666,102.677,104.12,0.00266064,0.0824508,20.9236,7.8182,-0.125539,0.0,0.0
662,165.25,32.3282,36.048,164.006,102.684,104.022,0.00263683,0.0821954,20.924,7.80819,-0.116559,0.0,0.0
664,165.75,31.8038,36.1132,158.647,102.672,104.51,0.00261419,0.0818839,20.9246,7.80819,-0.159731,0.0,0.0
666,166.25,31.9518,36.3985,163.763,102.674,104.059,0.00259283,0.0815589,20.9251,7.79818,-0.120589,0.0,0.0
668,166.75,31.7304,36.0851,159.889,102.676,104.259,0.00257553,0.0812302,20.9254,7.77816,-0.137731,0.0,0.0
670,167.25,32.3284,36.1337,164.383,102.664,103.75,0.00255687,0.0808398,20.9257,7.80819,-0.0947475,0.0,0.0
672,167.75,32.4744,35.9793,161.897,102.666,104.023,0.00253757,0.0805235,20.926,7.78817,-0.118149,0.0,0.0
674,168.25,32.2865,36.1069,157.151,102.676,103.747,0.00252194,0.0801294,20.9262,7.8182,-0.093366,0.0,0.0
676,168.75,32.2103,36.2604,163.217,102.666,104.014,0.00250928,0.0798101,20.9264,7.79818,-0.117386,0.0,0.0
678,169.25,32.3635,36.0965,161.234,102.682,103.545,0.00249903,0.0795442,20.9266,7.75814,-0.0753494,0.0,0.0
680,169.75,32.3236,36.8242,164.787,102.668,103.952,0.00249072,0.0793223,20.9269,7.72811,-0.111818,0.0,0.0
682,170.25,32.3631,35.9718,161.452,102.681,103.773,0.00248265,0.0791426,20.9271,7.7181,-0.095218,0.0,0.0
684,170.75,32.4063,36.2832,166.72,102.675,103.567,0.0024749,0.0789031,20.9272,7.73812,-0.0778301,0.0,0.0
686,171.25,32.0282,36.3068,161.327,102.677,103.963,0.00246124,0.0786244,20.9274,7.72811,-0.111951,0.0,0.0
688,171.75,32.497,35.7814,163.01,102.668,104.054,0.00244353,0.0783334,20.9275,7.73812,-0.120692,0.0,0.0
690,172.25,32.5878,36.3396,159.946,102.687,104.329,0.00242919,0.078039,20.9275,7.73812,-0.14274,0.0,0.0
692,172.75,32.0426,35.7588,157.003,102.667,104.054,0.00241756,0.0777859,20.9276,7.73812,-0.120766,0.0,0.0
694,173.25,31.6842,35.8457,156.232,102.689,104.626,0.00235463,0.0775679,20.9277,7.65804,-0.168173,0.0,0.0
696,173.75,31.783,36.1674,160.866,102.666,103.92,0.00230364,0.0773478,20.9278,7.68807,-0.109182,0.0,0.0
698,174.25,31.9673,36.1262,159.049,102.68,103.904,0.00226235,0.0771303,20.9281,7.75814,-0.106658,0.0,0.0
700,174.75,32.4099,36.1414,159.734,102.682,103.891,0.00220089,0.0769541,20.9285,7.76815,-0.105352,0.0,0.0
702,175.25,31.6963,35.6328,162.518,102.673,104.026,0.00215111,0.0768114,20.9291,7.77816,-0.117829,0.0,0.0
704,175.75,31.9363,36.2228,161.679,102.677,103.657,0.00211206,0.0766958,20.9295,7.75814,-0.0854729,0.0,0.0
706,176.25,32.1151,35.8597,165.489,102.669,103.896,0.00208043,0.0766022,20.9299,7.73812,-0.106978,0.0,0.0
708,176.75,32.3017,35.7502,163.561,102.683,104.284,0.00207136,0.0765264,20.9302,7.72811,-0.139217,0.0,0.0
710,177.25,32.283,35.7241,162.897,102.672,104.108,0.00206749,0.076465,20.9303,7.74813,-0.125023,0.0,0.0
712,177.75,31.9415,36.1005,163.104,102.674,104.071,0.0020708,0.0764152,20.9306,7.70809,-0.121612,0.0,0.0
714,178.25,32.4303,35.772,160.158,102.678,104.925,0.00208775,0.0762233,20.9307,7.73812,-0.194777,0.0,0.0
716,178.75,32.0597,36.4162,158.448,102.671,104.076,0.00209498,0.0760679,20.9309,7.73812,-0.122326,0.0,0.0
718,179.25,32.1756,36.644,159.495,102.674,104.626,0.00211881,0.0758332,20.931,7.73812,-0.169496,0.0,0.0
720,179.75,32.0601,35.9698,166.503,102.684,103.621,0.00213812,0.0755453,20.9311,7.77816,-0.0817332,0.0,0.0
722,180.25,31.9677,35.9394,161.982,102.673,104.381,0.0021512,0.0754225,20.9316,7.77816,-0.148498,0.0,0.0
724,180.75,32.5747,36.5441,155.941,102.68,104.197,0.0021618,0.0750053,20.932,7.75814,-0.131947,0.0,0.0
726,181.25,32.0875,36.2625,164.873,102.672,104.408,0.002161,0.0747196,20.9323,7.72811,-0.150859,0.0,0.0
728,181.75,32.3852,35.661,154.268,102.688,104.112,0.0021519,0.0745634,20.9331,7.75814,-0.123947,0.0,0.0
730,182.25,32.6662,36.4165,158.746,102.668,104.162,0.00214453,0.0742964,20.9336,7.72811,-0.130021,0.0,0.0
732,182.75,32.0626,36.2618,161.881,102.681,103.896,0.00212918,0.073915,20.9341,7.7181,-0.105875,0.0,0.0
734,183.25,32.1895,36.4857,157.532,102.686,103.823,0.0021083,0.0736061,20.9345,7.73812,-0.0990912,0.0,0.0
736,183.75,32.4401,36.834,157.523,102.68,104.451,0.00208268,0.0732834,20.9348,7.76815,-0.153824,0.0,0.0
738,184.25,32.467,36.236,160.717,102.685,104.506,0.00206763,0.0729569,20.9349,7.75814,-0.158197,0.0,0.0
740,184.75,32.3907,36.3578,156.484,102.687,103.866,0.00203319,0.0726924,20.9351,7.73812,-0.102718,0.0,0.0
742,185.25,32.1685,36.7058,157.167,102.679,104.088,0.00199746,0.0722582,20.9357,7.76815,-0.122658,0.0,0.0
744,185.75,32.0988,36.058,158.595,102.678,103.933,0.00195848,0.0719064,20.9362,7.74813,-0.10932,0.0,0.0
746,186.25,32.2214,36.5084,160.763,102.663,104.012,0.00191787,0.0714985,20.9366,7.75814,-0.117464,0.0,0.0
748,186.75,32.8639,36.2194,161.01,102.677,103.878,0.00187361,0.0710573,20.937,7.74813,-0.104633,0.0,0.0
750,187.25,32.6704,36.2377,161.789,102.691,103.399,0.00182752,0.0708693,20.9377,7.69808,-0.0618624,0.0,0.0
752,187.75,32.3445,36.4512,160.367,102.692,103.444,0.00179018,0.0704241,20.9382,7.73812,-0.0657132,0.0,0.0
754,188.25,32.3016,36.5133,160.879,102.686,104.436,0.00175994,0.0700634,20.9387,7.74813,-0.152058,0.0,0.0
756,188.75,32.4563,36.4471,164.008,102.691,103.737,0.00169608,0.0696751,20.9391,7.73812,-0.0911958,0.0,0.0
758,189.25,32.0346,36.6296,160.353,102.681,103.707,0.00164435,0.0692956,20.9394,7.7181,-0.089506,0.0,0.0
760,189.75,32.1796,36.4923,154.451,102.692,104.155,0.00157834,0.0689296,20.9396,7.68807,-0.127261,0.0,0.0
762,190.25,32.1891,36.4193,157.269,102.678,103.509,0.00152487,0.0686331,20.9398,7.65804,-0.0724806,0.0,0.0
764,190.75,32.4339,36.7665,151.836,102.683,103.803,0.00146508,0.0682419,20.9402,7.67806,-0.0975594,0.0,0.0
766,191.25,32.1232,36.4211,161.902,102.682,104.03,0.00141664,0.0679251,20.9407,7.67806,-0.117379,0.0,0.0
768,191.75,31.8094,36.7485,161.366,102.692,103.607,0.00137675,0.0676684,20.9412,7.70809,-0.0798639,0.0,0.0
770,192.25,32.6133,36.4643,160.984,102.68,104.073,0.00134383,0.0673782,20.9415,7.69808,-0.121248,0.0,0.0
772,192.75,32.3243,36.1929,163.378,102.685,103.717,0.0013205,0.0671431,20.9418,7.69808,-0.0899486,0.0,0.0
774,193.25,32.477,36.6148,161.148,102.674,104.04,0.00130461,0.0668949,20.942,7.63802,-0.118848,0.0,0.0
776,193.75,32.4209,35.5964,162.919,102.686,103.985,0.00129173,0.0666418,20.9422,7.68807,-0.113146,0.0,0.0
778,194.25,32.2327,36.346,161.242,102.699,103.703,0.00126863,0.0663935,20.9423,7.69808,-0.0875653,0.0,0.0
780,194.75,32.4457,36.1595,158.276,102.692,103.685,0.00124991,0.0661534,20.9424,7.7181,-0.0865786,0.0,0.0
782,195.25,32.1177,36.5747,159.916,102.673,103.643,0.00123475,0.0659083,20.9425,7.72811,-0.084625,0.0,0.0
784,195.75,32.4059,36.2606,163.438,102.699,103.737,0.00119333,0.0656643,20.9426,7.67806,-0.0904974,0.0,0.0
786,196.25,32.3686,36.1937,155.881,102.678,103.837,0.00115977,0.0654667,20.9427,7.64803,-0.100967,0.0,0.0
788,196.75,31.8292,36.202,161.733,102.687,104.669,0.0011326,0.0651969,20.9427,7.65804,-0.172028,0.0,0.0
790,197.25,32.3438,36.3142,158.433,102.668,103.759,0.00109538,0.0649784,20.9429,7.63802,-0.0950619,0.0,0.0
792,197.75,31.9741,36.3087,160.617,102.677,103.613,0.00106524,0.0647148,20.9433,7.67806,-0.0816092,0.0,0.0
794,198.25,32.3016,36.3534,168.605,102.676,103.724,0.00105349,0.0644233,20.9435,7.56794,-0.0913502,0.0,0.0
796,198.75,32.0052,35.9425,157.185,102.675,103.705,0.00104397,0.0641872,20.9437,7.62801,-0.0898045,0.0,0.0
798,199.25,31.6888,35.7907,159.646,102.671,104.389,0.00104888,0.0639959,20.9439,7.63802,-0.149315,0.0,0.0
800,199.75,31.8075,35.7259,157.528,102.694,103.81,0.00106421,0.0637545,20.944,7.62801,-0.0972325,0.0,0.0
802,200.25,31.6,35.8417,160.339,102.667,104.085,0.00108264,0.063481,20.9441,7.65804,-0.123418,0.0,0.0
804,200.75,32.3498,35.7624,162.73,102.688,104.006,,0.0632868,,7.66805,-0.114764,0.0,0.0
806,201.25,31.716,35.9393,162.622,102.668,103.755,,0.0631296,,7.59797,-0.0947844,0.0,0.0
808,201.75,32.5681,35.6097,161.625,102.684,103.612,,0.0630307,,7.62801,-0.0809306,0.0,0.0
810,202.25,31.5095,35.9975,166.171,102.678,104.357,,0.0629762,,7.618,-0.145919,0.0,0.0
812,202.75,32.2268,36.0254,160.162,102.68,103.868,,0.0628889,,7.7181,-0.10356,0.0,0.0
814,203.25,31.4209,35.9721,162.894,102.674,104.227,,0.0627791,,7.7181,-0.135059,0.0,0.0
816,203.75,31.5975,35.3713,162.492,102.681,103.701,,,,7.70809,-0.0889665,0.0,0.0
818,204.25,31.6067,36.0568,156.551,102.668,103.966,,,,7.72811,-0.113075,0.0,0.0
820,204.75,31.357,35.4691,160.259,102.682,103.871,,,,7.77816,-0.103519,0.0,0.0
822,205.25,31.699,36.0213,162.567,102.669,103.81,,,,7.67806,-0.0994388,0.0,0.0
824,205.75,32.1488,35.6477,160.807,102.675,103.771,,,,7.63802,-0.0955524,0.0,0.0
826,206.25,31.8929,35.748,163.944,102.671,104.281,,,,7.66805,-0.13997,0.0,0.0
828,206.75,32.0072,35.6129,161.435,102.671,103.263,,,,7.63802,-0.0517158,0.0,0.0
830,207.25,31.9071,35.6813,161.201,102.682,103.686,,,,7.66805,-0.087633,0.0,0.0
832,207.75,32.0605,35.6467,156.198,102.694,104.031,,,,7.66805,-0.116439,0.0,0.0
834,208.25,31.9624,35.8608,162.042,102.661,104.061,,,,7.66805,-0.121945,0.0,0.0
836,208.75,31.7064,35.4437,160.7,102.67,103.989,,,,7.68807,-0.114865,0.0,0.0
838,209.25,31.6099,35.502,161.848,102.669,105.004,,,,7.67806,-0.202431,0.0,0.0
840,209.75,31.8094,35.6693,164.528,102.669,104.147,,,,7.64803,-0.128649,0.0,0.0
842,210.25,32.0337,35.7249,162.159,102.662,104.422,,,,7.59797,-0.152903,0.0,0.0
844,210.75,32.0927,35.7986,160.195,102.668,104.028,,,,7.62801,-0.118368,0.0,0.0
846,211.25,32.1573,35.911,163.038,102.664,103.917,,,,7.64803,-0.109133,0.0,0.0
847,211.5,32.1272,36.1403,160.782,102.669,103.718,,,,7.62801,-0.0914445,0.0,0.0