File: 01_Data/Cotton_Raw/Cone/Raw_Cotton_Cone_HF35-Frame+GridScan_200909_R2.csv
Names,Time,Stack TC,Smoke TC,Exh Press,Smoke Comp,Smoke Meas,CO Meter,CO2 Meter,O2 Meter,Sample Mass,Ext Coeff,Start Test,Flame Verif
Chan Gain,,500,500,1,1,1,1,1,1,1,1,1.0,1.0
Offset,,0,0,0.136754,0,0,0,0,0,0,0,0.0,0.0
Gain,,1,1,25.011,13.7501,16.9893,1,1,1,1.00105,1.02582,1.0,1.0
Units,sec,C,C,Pa,%,%,%,%,%,g,/m,,
Baseline,,18.5859,20.8931,170.555,101.886,102.234,0.000167133,0.0530668,20.9531,-900.076,-0.030724,,
2,0.25,18.8783,20.732,167.475,102.499,102.992,-7.55161e-05,0.0545564,20.9538,13.1338,-0.0431547,0.0,0.0
4,0.75,19.0013,20.8016,171.618,102.459,102.785,-4.50926e-05,0.0551515,20.9529,13.1738,-0.0286365,0.0,0.0
6,1.25,17.6032,19.7647,170.625,102.424,102.472,-2.04495e-05,0.0558538,20.9521,13.1438,-0.00419306,0.0,0.0
8,1.75,17.5822,19.8835,172.805,102.354,102.64,-4.88643e-07,0.0566388,20.9515,13.1438,-0.0250909,0.0,0.0
10,2.25,17.3109,19.6658,170.98,102.296,102.687,4.34236e-05,0.0574693,20.951,13.1438,-0.0343185,0.0,0.0
12,2.75,16.7811,19.9212,168.278,102.233,102.415,7.89925e-05,0.0583295,20.9506,13.1238,-0.0159361,0.0,0.0
14,3.25,17.526,19.7191,167.734,102.16,102.161,0.00013683,0.059195,20.9496,13.1238,-8.95702e-05,0.0,0.0
16,3.75,17.4154,19.9894,173.658,102.133,102.559,0.000183678,0.0598961,20.9482,13.1238,-0.0374682,0.0,0.0
18,4.25,17.7444,20.1914,166.828,102.121,102.445,0.000277218,0.0606949,20.947,13.1138,-0.0284439,0.0,0.0
20,4.75,17.591,20.265,170.067,102.14,102.035,0.000352986,0.0615498,20.9461,13.1138,0.00923221,0.0,0.0
22,5.25,17.5516,19.5724,169.947,102.157,102.112,0.000482355,0.0622423,20.9453,13.1138,0.00389946,0.0,0.0
24,5.75,17.7058,19.856,168.144,102.173,101.873,0.000648342,0.0631051,20.9447,13.0937,0.0264662,0.0,0.0
26,6.25,17.3974,20.4037,166.926,102.178,101.236,0.000782791,0.0638041,20.9442,13.0837,0.0833322,0.0,0.0
28,6.75,17.9964,20.2542,167.798,102.214,101.335,0.00115827,0.0645624,20.9435,13.0537,0.0777125,0.0,0.0
30,7.25,17.8623,20.3685,171.631,102.227,100.349,0.00129391,0.0651767,20.9433,13.0637,0.166854,0.0,0.0
32,7.75,17.5092,20.2337,167.28,102.26,99.2312,0.00160459,0.0656743,20.9429,13.0337,0.270571,0.0,0.0
34,8.25,17.9944,20.3131,173.864,102.277,99.5304,0.00192712,0.0662559,20.9425,13.0237,0.244997,0.0,0.0
36,8.75,17.7936,20.0959,169.311,102.309,99.2919,0.00218837,0.066727,20.9423,13.0137,0.269354,0.0,0.0
38,9.25,18.2328,20.5299,167.635,102.318,99.2343,0.00250885,0.0671375,20.942,13.0036,0.275383,0.0,0.0
40,9.75,18.1822,21.1031,171.202,102.361,98.9564,0.00286641,0.0676489,20.9419,12.9836,0.304343,0.0,0.0
42,10.25,17.9079,20.627,172.219,102.381,99.6818,0.00321104,0.0677865,20.9417,12.9636,0.240435,0.0,0.0
44,10.75,18.052,20.9047,169.614,102.402,99.3494,0.00353968,0.068008,20.9416,12.9436,0.272329,0.0,0.0
46,11.25,18.5004,20.94,171.829,102.437,99.1296,0.00380588,0.0681874,20.9415,12.9336,0.295358,0.0,0.0
48,11.75,18.2652,20.7752,169.315,102.464,98.7138,0.00413274,0.0683111,20.9414,12.9236,0.335506,0.0,0.0
50,12.25,18.3891,21.2518,166.672,102.486,99.478,0.00439751,0.0683917,20.9414,12.9136,0.268025,0.0,0.0
52,12.75,18.1653,21.2049,170.124,102.536,99.3572,0.00468977,0.0684642,20.9411,12.9035,0.283416,0.0,0.0
54,13.25,18.4906,21.1432,168.146,102.536,98.9492,0.0049265,0.0685295,20.9406,12.8935,0.320447,0.0,0.0
56,13.75,18.8735,20.888,169.639,102.575,99.1903,0.00518841,0.0685823,20.9403,12.8735,0.301936,0.0,0.0
58,14.25,18.6568,21.335,168.719,102.591,99.1006,0.00540056,0.0686938,20.94,12.8535,0.311475,0.0,0.0
60,14.75,18.5849,21.2297,171.344,102.625,99.3904,0.00559842,0.0687842,20.9398,12.8535,0.288142,0.0,0.0
62,15.25,19.0242,21.7852,167.985,102.645,98.9497,0.00575868,0.068908,20.9396,12.8235,0.329896,0.0,0.0
64,15.75,18.5257,21.2437,165.418,102.677,98.916,0.00588849,0.0690538,20.9394,12.8134,0.335756,0.0,0.0
66,16.25,18.7503,21.7233,173.414,102.697,98.3674,0.00594781,0.0698457,20.9386,12.7934,0.387561,0.0,0.0
68,16.75,18.4973,21.769,167.198,102.718,99.3982,0.0059546,0.0710935,20.9374,12.7834,0.295601,0.0,0.0
70,17.25,18.3701,21.6633,168.307,102.742,98.5256,0.00583566,0.0742617,20.9334,12.7634,0.377041,0.0,0.0
72,17.75,18.0625,21.3519,174.027,102.767,99.0259,0.00573932,0.0787698,20.9274,12.6633,0.333702,0.0,0.0
74,18.25,18.7024,21.4444,166.576,102.767,101.83,0.00551274,0.0824213,20.9226,12.6533,0.0824171,0.0,0.0
76,18.75,19.1048,21.4687,165.74,102.8,103.518,0.00532921,0.0924713,20.9127,12.6433,-0.0625969,0.0,1.0
78,19.25,18.6951,21.6121,163.31,102.796,104.088,0.00506341,0.100612,20.9028,12.6032,-0.112359,0.0,1.0
80,19.75,19.2424,22.5607,167.029,102.825,103.523,0.00484811,0.110596,20.8931,12.5932,-0.0609179,0.0,1.0
82,20.25,19.5297,23.1967,160.778,102.828,103.458,0.00462911,0.118684,20.8853,12.4931,-0.0549072,0.0,1.0
84,20.75,19.9411,23.7476,164.383,102.839,103.386,0.00441159,0.12599,20.8776,12.6232,-0.0477189,0.0,1.0
86,21.25,20.1182,23.7769,165.739,102.834,103.853,0.00417261,0.132587,20.8714,12.4931,-0.088726,0.0,1.0
88,21.75,20.3434,24.305,166.443,102.861,103.476,0.00397904,0.138416,20.8655,12.4931,-0.0536213,0.0,1.0
90,22.25,20.5002,24.5113,165.456,102.847,103.839,0.00382224,0.143573,20.8608,12.4731,-0.0863755,0.0,1.0
92,22.75,20.7082,25.0946,163.335,102.861,103.699,0.00366292,0.148093,20.8567,12.4431,-0.0730694,0.0,1.0
94,23.25,20.999,25.0433,162.049,102.854,103.689,0.00350478,0.152061,20.8531,12.393,-0.072712,0.0,1.0
96,23.75,20.9402,25.3486,166.005,102.863,103.469,0.00334857,0.155755,20.8503,12.373,-0.0528519,0.0,1.0
98,24.25,19.8506,24.1351,165.725,102.854,103.594,0.00322205,0.159179,20.8467,12.3229,-0.0645566,0.0,0.0
100,24.75,19.974,23.7438,166.93,102.849,103.513,0.00309658,0.161952,20.8431,12.3129,-0.0579312,0.0,0.0
102,25.25,20.2294,23.9848,166.075,102.848,103.817,0.00299495,0.165635,20.8395,12.2629,-0.0843694,0.0,0.0
104,25.75,20.3267,24.7966,162.538,102.84,104.149,0.00290053,0.168619,20.8367,12.2529,-0.11379,0.0,0.0
106,26.25,19.5188,25.4003,164.676,102.817,104.515,0.00281318,0.171819,20.8326,12.2128,-0.14738,0.0,0.0
108,26.75,20.7588,25.4964,163.14,102.806,103.736,0.00274309,0.175115,20.8293,12.1928,-0.0810734,0.0,0.0
110,27.25,20.868,25.0633,160.54,102.795,104.351,0.00268693,0.178108,20.8262,12.1728,-0.13521,0.0,0.0
112,27.75,21.0616,26.3032,163.748,102.777,103.614,0.00265084,0.180824,20.8237,12.1427,-0.072951,0.0,0.0
114,28.25,20.2091,26.3002,166.628,102.745,104.124,0.00263007,0.183201,20.8216,12.1027,-0.119978,0.0,0.0
116,28.75,21.2798,26.3751,162.955,102.722,103.599,0.00261324,0.185285,20.8191,12.0727,-0.0765042,0.0,0.0
118,29.25,21.4835,27.1372,166.604,102.682,103.153,0.00259961,0.187052,20.8171,12.0526,-0.0412584,0.0,0.0
120,29.75,21.4104,27.0298,164.186,102.663,103.988,0.00260807,0.188551,20.8154,12.0126,-0.115401,0.0,0.0
122,30.25,21.359,27.3519,161.541,102.626,104.13,0.00263246,0.189774,20.8146,11.9926,-0.130923,0.0,0.0
124,30.75,22.0934,27.5477,163.563,102.593,103.881,0.00265221,0.190771,20.8139,11.9626,-0.112216,0.0,0.0
126,31.25,21.9504,27.5339,158.478,102.567,103.158,0.00267205,0.191579,20.8133,11.9425,-0.0516732,0.0,0.0
128,31.75,22.2409,27.8909,163.642,102.536,103.438,0.00268812,0.192234,20.8129,11.9025,-0.0788153,0.0,0.0
130,32.25,22.264,28.2323,162.942,102.494,103.689,0.0026973,0.19274,20.8125,11.8725,-0.104311,0.0,0.0
132,32.75,22.711,28.609,162.876,102.454,103.153,0.00270473,0.19313,20.8122,11.8524,-0.0612112,0.0,0.0
134,33.25,22.2589,28.0447,166.781,102.412,103.827,0.00271204,0.193446,20.812,11.8124,-0.123503,0.0,0.0
136,33.75,22.9036,28.3149,164.193,102.389,103.578,0.00271795,0.193701,20.8118,11.8124,-0.103891,0.0,0.0
138,34.25,22.2582,28.8472,160.157,102.335,102.985,0.00273935,0.193909,20.8116,11.7724,-0.0570184,0.0,0.0
140,34.75,22.1845,28.2937,163.38,102.298,102.929,0.00275669,0.194164,20.8115,11.7223,-0.0552892,0.0,0.0
142,35.25,23.1259,28.527,162.168,102.249,103.24,0.00278991,0.194371,20.8114,11.7123,-0.0867557,0.0,0.0
144,35.75,23.1458,29.3132,166.875,102.209,103.048,0.00281682,0.194466,20.8113,11.6722,-0.073529,0.0,0.0
146,36.25,23.0688,29.1732,161.955,102.158,103.142,0.00283862,0.194542,20.8113,11.6522,-0.0861909,0.0,0.0
148,36.75,22.9974,29.5139,161.401,102.102,103.188,0.00287446,0.194535,20.8112,11.6222,-0.0952147,0.0,0.0
150,37.25,22.9731,29.1144,164.084,102.057,103.145,0.00291985,0.194466,20.8112,11.5822,-0.0954565,0.0,0.0
152,37.75,22.9423,29.4849,165.682,102.012,102.706,0.00296808,0.194311,20.8111,11.5822,-0.0609417,0.0,0.0
154,38.25,23.015,29.7668,161.491,101.967,103.358,0.00301745,0.194094,20.8115,11.5621,-0.121904,0.0,0.0
156,38.75,23.2717,29.3827,168.216,101.911,103.384,0.00306756,0.193919,20.8119,11.5021,-0.129124,0.0,0.0
158,39.25,22.9914,29.7898,163.85,101.869,103.066,0.00311725,0.193455,20.8121,11.472,-0.10517,0.0,0.0
160,39.75,23.2905,29.745,163.287,101.809,102.84,0.00316357,0.193079,20.8123,11.462,-0.0906686,0.0,0.0
162,40.25,23.3153,29.6114,167.079,101.776,103.258,0.00320655,0.192674,20.8125,11.422,-0.130135,0.0,0.0
164,40.75,23.495,29.8369,164.883,101.717,102.665,0.00324542,0.192256,20.8126,11.392,-0.0834561,0.0,0.0
166,41.25,23.4962,29.8954,162.842,101.663,102.966,0.00328054,0.191764,20.8132,11.3519,-0.114647,0.0,0.0
168,41.75,23.7655,29.7185,164.136,101.616,102.231,0.00330899,0.191227,20.8136,11.3219,-0.0543276,0.0,0.0
170,42.25,23.934,30.3938,162.174,101.567,102.329,0.00334614,0.190791,20.8145,11.3219,-0.0672969,0.0,0.0
172,42.75,23.8536,30.3151,165.03,101.511,102.454,0.00337623,0.190074,20.8155,11.3019,-0.0831779,0.0,0.0
174,43.25,23.9487,30.2261,166.647,101.457,102.36,0.00340061,0.189431,20.8164,11.2618,-0.0797774,0.0,0.0
176,43.75,23.794,29.9574,162.726,101.397,102.37,0.00345628,0.188855,20.8171,11.2418,-0.0859212,0.0,0.0
178,44.25,23.9248,29.8917,164.107,101.365,102.528,0.00350137,0.188388,20.8177,11.2018,-0.102641,0.0,0.0
180,44.75,24.164,30.1899,157.135,101.301,101.964,0.00355588,0.187792,20.8181,11.1817,-0.0587431,0.0,0.0
182,45.25,23.9679,30.1247,164.083,101.261,102.505,0.00360003,0.187308,20.8185,11.1517,-0.109882,0.0,0.0
184,45.75,24.1856,30.5265,162.88,101.208,102.47,0.00363964,0.186748,20.8191,11.1017,-0.111531,0.0,0.0
186,46.25,23.7884,30.4045,164.613,101.173,102.279,0.00367173,0.186142,20.8197,11.1117,-0.0978208,0.0,0.0
188,46.75,23.8495,30.3551,162.013,101.116,102.103,0.00368541,0.185652,20.82,11.0816,-0.0873297,0.0,0.0
190,47.25,23.9432,29.9826,164.554,101.089,102.177,0.00372243,0.185208,20.8204,11.0416,-0.0962892,0.0,0.0
192,47.75,24.0976,29.6855,161.693,101.045,102.529,0.00373239,0.184808,20.8208,11.0216,-0.131207,0.0,0.0
194,48.25,23.9325,30.2552,162.017,101.006,101.657,0.0037687,0.18444,20.8213,10.9915,-0.0577736,0.0,0.0
196,48.75,23.348,30.2228,156.056,100.97,102.031,0.00379811,0.184142,20.822,10.9615,-0.0941464,0.0,0.0
198,49.25,24.254,29.9451,166.017,100.939,101.955,0.00385408,0.183816,20.8225,10.9215,-0.0901155,0.0,0.0
200,49.75,24.3011,29.8005,163.532,100.902,102.195,0.00389941,0.183637,20.8229,10.9014,-0.11457,0.0,0.0
202,50.25,24.0047,30.1989,173.582,100.874,102.022,0.00393613,0.183331,20.8232,10.8814,-0.101854,0.0,0.0
204,50.75,24.1152,30.0542,164.699,100.842,102.04,0.0040135,0.182808,20.8237,10.8214,-0.106262,0.0,0.0
206,51.25,24.1921,30.3792,171.562,100.821,101.928,0.00408498,0.182136,20.8244,10.8013,-0.0982535,0.0,0.0
208,51.75,24.103,30.2018,167.101,100.779,101.684,0.00415081,0.18104,20.8249,10.7813,-0.0804154,0.0,0.0
210,52.25,23.8736,30.2933,165.873,100.77,101.155,0.00420413,0.180153,20.8253,10.7112,-0.034318,0.0,0.0
212,52.75,24.3951,30.1684,166.149,100.751,101.612,0.00424733,0.179235,20.8256,10.6412,-0.0764998,0.0,0.0
214,53.25,23.8742,30.0031,168.007,100.75,101.778,0.00426428,0.178314,20.8263,10.5911,-0.0914223,0.0,0.0
216,53.75,23.7611,29.8603,161.163,100.711,101.764,0.00427801,0.177567,20.8272,10.6111,-0.0936326,0.0,0.0
218,54.25,23.646,29.8136,160.232,100.703,101.741,0.00427497,0.177006,20.828,10.5311,-0.0922735,0.0,0.0
220,54.75,23.7581,29.6976,172.317,100.677,101.504,0.0042725,0.176552,20.829,10.5611,-0.0735809,0.0,0.0
222,55.25,23.6573,29.7225,167.071,100.683,101.651,0.00426441,0.176183,20.8299,10.5311,-0.0861367,0.0,0.0
224,55.75,24.2417,29.5153,160.137,100.652,102.249,0.00425236,0.175943,20.8306,10.491,-0.141601,0.0,0.0
226,56.25,24.2104,29.2656,164.482,100.659,102.297,0.00424193,0.175748,20.8311,10.461,-0.145281,0.0,0.0
228,56.75,24.0354,29.678,161.509,100.638,101.443,0.00423287,0.175417,20.8316,10.441,-0.0716063,0.0,0.0
230,57.25,23.7087,29.7781,165.02,100.654,101.895,0.00422553,0.175148,20.8319,10.491,-0.110316,0.0,0.0
232,57.75,24.1559,29.3411,163.971,100.644,102.115,0.00423314,0.174687,20.8322,10.471,-0.130655,0.0,0.0
234,58.25,24.0626,29.4834,166.074,100.674,101.858,0.0042515,0.174094,20.8329,10.491,-0.105218,0.0,0.0
236,58.75,23.8182,29.3774,163.532,100.655,101.968,0.00426637,0.173393,20.8335,10.511,-0.116657,0.0,0.0
238,59.25,23.6419,29.5292,164.067,100.68,101.669,0.00430418,0.172626,20.8339,10.451,-0.0879596,0.0,0.0
240,59.75,23.7547,29.343,169.519,100.681,101.957,0.00433481,0.172006,20.8343,10.4009,-0.113333,0.0,0.0
242,60.25,23.304,29.6245,162.945,100.704,102.017,0.00439185,0.171459,20.8345,10.3509,-0.116569,0.0,0.0
244,60.75,24.0958,29.0761,164.997,100.704,102.165,0.00446318,0.171017,20.8348,10.2708,-0.129601,0.0,0.0
246,61.25,23.6085,29.1823,165.537,100.722,102.015,0.00454358,0.170659,20.835,10.2608,-0.11482,0.0,0.0
248,61.75,23.6559,28.955,162.432,100.73,101.803,0.00463795,0.170325,20.8351,10.2908,-0.0953839,0.0,0.0
250,62.25,23.1474,28.8699,166.918,100.771,101.949,0.00474071,0.170055,20.8357,10.1607,-0.104496,0.0,0.0
252,62.75,23.4482,28.8372,168.384,100.768,101.726,0.00482395,0.169591,20.8361,10.1907,-0.085096,0.0,0.0
254,63.25,23.9235,28.9195,162.829,100.811,102.049,0.00494443,0.169214,20.8365,10.1907,-0.109886,0.0,0.0
256,63.75,23.9755,29.27,165.105,100.824,102.174,0.00504202,0.168852,20.8368,10.1907,-0.11969,0.0,0.0
258,64.25,23.3388,28.8732,160.955,100.853,102.456,0.00512107,0.168559,20.837,10.1406,-0.141883,0.0,0.0
260,64.75,23.7778,29.2935,164.997,100.877,101.581,0.00523175,0.16848,20.8372,10.1006,-0.0626002,0.0,0.0
262,65.25,23.6701,28.8755,168.739,100.919,101.782,0.0053214,0.168416,20.8374,10.0706,-0.0766151,0.0,0.0
264,65.75,23.9265,28.8743,165.441,100.941,102.188,0.00541381,0.168356,20.8375,10.0405,-0.110488,0.0,0.0
266,66.25,23.7784,28.9093,165.266,100.972,102.33,0.00550649,0.168301,20.8376,9.98047,-0.120222,0.0,0.0
268,66.75,23.636,28.6741,169.556,100.993,102.708,0.00559727,0.168257,20.8377,10.0505,-0.151565,0.0,0.0
270,67.25,23.927,28.822,166.04,101.038,102.393,0.00568495,0.167932,20.8378,10.0606,-0.119867,0.0,0.0
272,67.75,23.7137,29.3369,168.956,101.067,101.91,0.00575597,0.167669,20.8378,10.0205,-0.0747231,0.0,0.0
274,68.25,23.8361,29.3198,167.12,101.11,102.355,0.00583428,0.167312,20.8379,9.95044,-0.110107,0.0,0.0
276,68.75,23.8547,29.0699,166.576,101.144,102.368,0.00589772,0.166893,20.8379,9.88037,-0.108231,0.0,0.0
278,69.25,23.9483,28.9065,167.66,101.174,101.967,0.005953,0.166394,20.8382,9.90039,-0.0702441,0.0,0.0
280,69.75,24.3043,29.1237,160.471,101.218,102.46,0.00599777,0.165847,20.8386,9.98047,-0.109726,0.0,0.0
282,70.25,23.7805,28.5449,167.333,101.258,102.091,0.00603336,0.165161,20.8391,9.95044,-0.0737032,0.0,0.0
284,70.75,23.3481,29.0862,161.061,101.29,102.444,0.00606157,0.164388,20.8398,9.83032,-0.101983,0.0,0.0
286,71.25,23.7274,28.7199,165.4,101.32,102.413,0.00608442,0.163761,20.8403,9.83032,-0.0964832,0.0,0.0
288,71.75,23.8423,28.7769,165.995,101.357,103.003,0.00608343,0.163231,20.8408,9.83032,-0.144943,0.0,0.0
290,72.25,24.181,29.2468,166.596,101.401,103.119,0.00608264,0.162781,20.8411,9.8103,-0.15121,0.0,0.0
292,72.75,23.8064,28.9146,162.565,101.446,102.497,0.00606641,0.162388,20.8417,9.83032,-0.092687,0.0,0.0
294,73.25,24.1398,28.9102,164.474,101.479,103.306,0.00605327,0.16207,20.8423,9.80029,-0.160558,0.0,0.0
296,73.75,23.6973,29.4126,165.023,101.51,102.183,0.00602834,0.161668,20.8428,9.8103,-0.0594137,0.0,0.0
298,74.25,23.6612,29.0434,162.923,101.557,102.689,0.00600815,0.161213,20.8432,9.7202,-0.0997377,0.0,0.0
300,74.75,23.5257,28.6052,158.144,101.601,102.615,0.00599043,0.160845,20.8435,9.67015,-0.0893809,0.0,0.0
302,75.25,23.8926,28.5915,164.467,101.608,102.27,0.00597484,0.160317,20.8438,9.65013,-0.0584554,0.0,0.0
304,75.75,23.547,28.2684,165.293,101.648,102.798,0.00596222,0.159889,20.844,9.67015,-0.101246,0.0,0.0
306,76.25,23.7026,28.3495,165.583,101.685,103.65,0.005952,0.159457,20.8442,9.65013,-0.172237,0.0,0.0
308,76.75,23.7189,28.2647,166.921,101.723,103.27,0.00598267,0.159106,20.8448,9.61009,-0.135804,0.0,0.0
310,77.25,23.499,28.0655,168.347,101.749,102.894,0.00600752,0.158732,20.8453,9.61009,-0.10069,0.0,0.0
312,77.75,23.6919,28.4764,165.715,101.789,102.464,0.00604583,0.158347,20.8457,9.60008,-0.059507,0.0,0.0
314,78.25,23.8157,28.6615,164.467,101.833,103.873,0.00607687,0.158035,20.8461,9.58005,-0.178481,0.0,0.0
316,78.75,23.5603,28.51,159.166,101.861,102.928,0.00610201,0.157368,20.8463,9.58005,-0.0937432,0.0,0.0
318,79.25,23.8691,28.6888,162.767,101.889,102.899,0.00611198,0.156454,20.8468,9.54001,-0.0888029,0.0,0.0
320,79.75,23.3198,28.6699,167.574,101.944,102.837,0.00612005,0.155714,20.8474,9.54001,-0.0784701,0.0,0.0
322,80.25,23.7789,28.6428,166.695,101.956,103.179,0.0061084,0.154728,20.8481,9.53,-0.107363,0.0,0.0
324,80.75,23.5556,28.5091,166.753,102.011,102.595,0.00609897,0.15393,20.8488,9.49997,-0.0512891,0.0,0.0
326,81.25,23.9206,28.3751,165.718,102.021,102.776,0.00607964,0.15308,20.8499,9.46994,-0.06634,0.0,0.0
328,81.75,23.535,28.3655,161.426,102.055,103.019,0.00606398,0.152209,20.8512,9.4299,-0.0846434,0.0,0.0
330,82.25,24.0693,28.4841,169.743,102.088,103.355,0.00605779,0.151504,20.8522,9.4299,-0.110974,0.0,0.0
332,82.75,23.6437,28.0903,164.952,102.123,102.852,0.00605278,0.150461,20.8531,9.40987,-0.0640574,0.0,0.0
334,83.25,23.6282,28.2198,167.18,102.13,102.777,0.00605781,0.149617,20.8537,9.35982,-0.0568123,0.0,0.0
336,83.75,23.8915,28.4079,164.32,102.158,102.868,0.00606188,0.148848,20.8543,9.38985,-0.0623128,0.0,0.0
338,84.25,23.1591,28.3535,166.885,102.175,102.919,0.00607298,0.148224,20.855,9.34981,-0.0652778,0.0,0.0
340,84.75,23.304,27.8804,164.901,102.21,102.946,0.00608196,0.147748,20.8557,9.34981,-0.0645312,0.0,0.0
342,85.25,23.3153,27.5804,169.316,102.202,102.951,0.00608924,0.147362,20.8563,9.32979,-0.0656868,0.0,0.0
344,85.75,23.671,27.7505,165.91,102.236,103.384,0.00610293,0.146982,20.8568,9.28975,-0.100492,0.0,0.0
346,86.25,23.3317,28.2627,164.415,102.23,103.688,0.00611403,0.146614,20.8572,9.25972,-0.127386,0.0,0.0
348,86.75,23.5544,28.2278,165.074,102.255,103.191,0.00612916,0.145959,20.8576,9.2397,-0.0819903,0.0,0.0
350,87.25,23.8444,27.9293,166.492,102.254,103.829,0.00614697,0.145429,20.8578,9.16962,-0.13754,0.0,0.0
352,87.75,23.2557,27.9379,164.541,102.267,103.273,0.00616481,0.144842,20.858,9.15961,-0.0881416,0.0,0.0
354,88.25,23.5247,27.9687,160.991,102.27,102.947,0.00618234,0.144225,20.8586,9.13959,-0.0593775,0.0,0.0
356,88.75,23.4412,27.9867,164.617,102.288,103.272,0.00619654,0.143725,20.8591,9.09955,-0.0860864,0.0,0.0
358,89.25,23.206,28.192,166.197,102.279,103.174,0.00620804,0.143208,20.8595,9.16962,-0.0784014,0.0,0.0
360,89.75,23.3855,27.6489,166.979,102.294,103.153,0.00621736,0.142688,20.8599,9.11957,-0.0752553,0.0,0.0
362,90.25,23.4095,27.6652,165.827,102.282,103.49,0.00621711,0.142162,20.8603,9.08954,-0.10564,0.0,0.0
364,90.75,23.157,27.7127,160.936,102.313,103.497,0.0062169,0.141642,20.861,9.06952,-0.103494,0.0,0.0
366,91.25,23.2721,27.7776,166.796,102.293,103.032,0.00621934,0.141221,20.8617,9.09955,-0.0647851,0.0,0.0
368,91.75,23.5317,28.083,167.59,102.287,103.447,0.00622131,0.140553,20.8625,8.99944,-0.101491,0.0,0.0
370,92.25,23.2932,27.8002,161.551,102.267,103.326,0.0062229,0.140012,20.8631,9.05951,-0.0926295,0.0,0.0
372,92.75,23.1135,27.671,165.083,102.264,102.937,0.0062398,0.139205,20.8636,9.10956,-0.0589969,0.0,0.0
374,93.25,23.0811,27.3699,169.932,102.246,103.387,0.00625348,0.138551,20.864,8.98943,-0.0999215,0.0,0.0
376,93.75,23.3029,27.4623,164.199,102.253,103.328,0.00628928,0.137724,20.8646,9.09955,-0.094148,0.0,0.0
378,94.25,23.1679,27.1782,166.331,102.233,103.222,0.00631828,0.137054,20.8653,9.07953,-0.0866225,0.0,0.0
380,94.75,23.4517,27.378,162.026,102.236,102.925,0.00636911,0.136347,20.8662,9.00946,-0.0604282,0.0,0.0
382,95.25,23.3526,26.7095,163.401,102.235,103.182,0.00641027,0.135627,20.867,8.99944,-0.0829944,0.0,0.0
384,95.75,22.8359,27.0318,167.665,102.226,103.623,0.00647358,0.135044,20.8677,9.09955,-0.122166,0.0,0.0
386,96.25,22.9807,27.2787,165.857,102.22,102.873,0.00652486,0.134373,20.8682,9.01947,-0.0573801,0.0,0.0
388,96.75,23.0636,26.5891,171.523,102.229,102.737,0.00658855,0.13383,20.8686,8.94939,-0.0445868,0.0,0.0
390,97.25,23.0319,26.9853,166.121,102.207,102.943,0.00664015,0.133248,20.8694,8.91936,-0.0645631,0.0,0.0
392,97.75,22.675,27.2765,165.37,102.209,102.862,0.00669223,0.132777,20.87,8.89934,-0.0573061,0.0,0.0
394,98.25,22.9286,26.9882,170.516,102.197,102.959,0.00674369,0.132057,20.8705,8.89934,-0.0668549,0.0,0.0
396,98.75,23.1818,27.2404,165.823,102.2,103.35,0.00678537,0.131473,20.8714,8.86931,-0.100706,0.0,0.0
398,99.25,23.0448,26.9452,164.452,102.179,103.593,0.00681913,0.130562,20.872,8.91936,-0.123647,0.0,0.0
400,99.75,23.1536,27.5477,165.686,102.17,102.721,0.00686021,0.129824,20.8726,8.96941,-0.0483887,0.0,0.0
402,100.25,22.8876,27.1438,161.536,102.158,102.94,0.00690585,0.129108,20.8737,8.7692,-0.0686598,0.0,0.0
404,100.75,23.0662,27.1675,164.992,102.154,102.902,0.00694076,0.128421,20.8746,8.86931,-0.0656754,0.0,0.0
406,101.25,22.9905,26.9607,170.03,102.132,103.027,0.00696718,0.127864,20.8754,8.81926,-0.0785626,0.0,0.0
408,101.75,22.8209,26.5952,162.129,102.134,102.681,0.00698858,0.127413,20.876,8.74918,-0.0480322,0.0,0.0
410,102.25,22.8331,26.5891,167.016,102.107,102.802,0.00697982,0.126724,20.8767,8.74918,-0.0610249,0.0,0.0
412,102.75,22.5142,26.5935,169.39,102.102,103.023,0.00697272,0.126165,20.8775,8.80925,-0.080818,0.0,0.0
414,103.25,22.8546,26.352,165.646,102.09,102.896,0.00693568,0.125713,20.8783,8.77921,-0.0707965,0.0,0.0
416,103.75,23.1002,26.5349,161.475,102.084,102.654,0.00690567,0.124952,20.8793,8.83928,-0.0500782,0.0,0.0
418,104.25,23.2225,26.3228,163.427,102.077,102.885,0.00686443,0.124336,20.88,8.80925,-0.0709457,0.0,0.0
420,104.75,22.8021,26.5432,169.092,102.075,102.604,0.00683102,0.123851,20.8806,8.71915,-0.0465279,0.0,0.0
422,105.25,22.5686,26.678,167.791,102.043,102.991,0.00679745,0.123458,20.8811,8.68912,-0.0831882,0.0,0.0
424,105.75,23.1176,26.3603,162.294,102.039,103.104,0.00677026,0.122999,20.8815,8.74918,-0.093392,0.0,0.0
426,106.25,22.6284,26.7073,170.512,102.013,102.56,0.00674823,0.122627,20.8818,8.69913,-0.0481395,0.0,0.0
428,106.75,22.7113,26.5193,166.306,102.021,102.763,0.00675254,0.121963,20.8825,8.74918,-0.0651595,0.0,0.0
430,107.25,22.3773,26.442,168.971,102.011,102.616,0.00675603,0.121099,20.8835,8.74918,-0.0532275,0.0,0.0
432,107.75,22.532,25.8125,162.879,101.988,102.035,0.00677944,0.119934,20.8843,8.75919,-0.00415227,0.0,0.0
434,108.25,22.7078,26.0847,167.114,101.974,102.395,0.00681694,0.118571,20.8854,8.71915,-0.0371418,0.0,0.0
436,108.75,22.6927,25.7535,165.399,101.972,101.913,0.00686517,0.117468,20.8862,8.69913,0.00519247,0.0,0.0
438,109.25,22.3628,26.2914,168.66,101.961,102.575,0.00692031,0.115986,20.8874,8.70914,-0.0540859,0.0,0.0
440,109.75,22.4802,25.7459,167.898,101.947,102.148,0.00696498,0.114785,20.8883,8.68912,-0.0176695,0.0,0.0
442,110.25,22.3188,25.6061,170.744,101.944,101.914,0.00702336,0.113599,20.8895,8.65909,0.00269313,0.0,0.0
444,110.75,22.6086,26.1719,166.26,101.932,101.767,0.00707065,0.112446,20.8909,8.68912,0.0146293,0.0,0.0
446,111.25,22.1932,25.7412,165.074,101.933,102.232,0.0071181,0.111351,20.8923,8.63907,-0.0263339,0.0,0.0
448,111.75,22.6616,25.9903,171.106,101.928,102.141,0.00715654,0.110318,20.8936,8.62906,-0.0188621,0.0,0.0
450,112.25,22.7416,26.2153,165.995,101.942,102.003,0.00719028,0.109481,20.8946,8.64908,-0.00540745,0.0,0.0
452,112.75,22.6821,25.584,165.522,101.992,102.625,0.00721762,0.108719,20.8955,8.64908,-0.055674,0.0,0.0
454,113.25,22.2228,25.5997,169.103,102.046,102.516,0.00723976,0.108103,20.8962,8.62906,-0.0413473,0.0,0.0
456,113.75,22.171,25.412,168.25,102.099,102.562,0.00726292,0.107701,20.8967,8.579,-0.0407364,0.0,0.0
458,114.25,21.9724,25.5045,166.445,102.155,103.06,0.00728168,0.107375,20.8972,8.58901,-0.0794191,0.0,0.0
460,114.75,22.3169,25.5558,169.129,102.193,102.616,0.0073191,0.107056,20.8976,8.56899,-0.0371396,0.0,0.0
462,115.25,22.2548,25.4061,167.236,102.271,102.657,0.00734942,0.106797,20.8979,8.55898,-0.0338981,0.0,0.0
464,115.75,21.6907,25.0114,160.777,102.288,102.536,0.0074106,0.106403,20.8981,8.55898,-0.021752,0.0,0.0
466,116.25,21.8551,25.0999,166.811,102.328,102.239,0.00746016,0.105919,20.8983,8.58901,0.00782724,0.0,0.0
468,116.75,21.759,25.2509,170.007,102.392,101.798,0.00751754,0.105527,20.8985,8.579,0.0523055,0.0,0.0
470,117.25,21.7482,25.2402,171.544,102.404,102.142,0.00757952,0.104917,20.899,8.55898,0.0229948,0.0,0.0
472,117.75,21.8611,24.647,169.427,102.435,102.221,0.00764214,0.104422,20.8995,8.51894,0.0187825,0.0,0.0
474,118.25,21.8367,24.4925,169.14,102.462,102.372,0.00770404,0.103971,20.8998,8.46889,0.0079162,0.0,0.0
476,118.75,20.5103,23.5608,168.261,102.49,101.801,0.00775417,0.103558,20.9001,8.44887,0.0607012,0.0,0.0
478,119.25,20.0967,23.1164,168.822,102.538,102.313,0.00780003,0.103224,20.9004,8.4789,0.0197801,0.0,0.0
480,119.75,20.3268,23.3551,167.044,102.547,102.264,0.00783717,0.102954,20.9006,8.51894,0.0248318,0.0,0.0
482,120.25,20.1506,22.6143,168.748,102.585,102.278,0.00786725,0.102727,20.9007,8.50893,0.0269132,0.0,0.0
484,120.75,20.1571,22.9391,168.425,102.602,102.281,0.00786803,0.102537,20.9009,8.46889,0.0282307,0.0,0.0
486,121.25,19.7867,22.9225,169.174,102.634,102.483,0.00786866,0.102383,20.901,8.41884,0.0132187,0.0,0.0
488,121.75,19.7375,22.8097,164.422,102.637,102.427,0.00784821,0.102091,20.9011,8.40882,0.0184764,0.0,0.0
490,122.25,19.9382,23.0235,166.612,102.685,102.916,0.00783165,0.101855,20.9014,8.3888,-0.0202258,0.0,0.0
492,122.75,20.0664,22.8682,168.012,102.689,103.079,0.00781823,0.10159,20.9018,8.37879,-0.0341635,0.0,0.0
494,123.25,19.7129,22.8868,167.659,102.708,103.069,0.00779014,0.10131,20.9022,8.32874,-0.0315753,0.0,0.0
496,123.75,19.7006,22.9487,165.959,102.726,103.053,0.00775188,0.101082,20.9029,8.32874,-0.0285913,0.0,0.0
498,124.25,20.2059,23.1179,165.961,102.743,103.425,0.00770644,0.10087,20.9035,8.31873,-0.0595233,0.0,0.0
500,124.75,20.03,22.8546,167.395,102.74,104.333,0.00765662,0.100699,20.904,8.36878,-0.138422,0.0,0.0
502,125.25,19.9923,22.6245,170.456,102.76,102.436,0.00760388,0.10056,20.9044,8.35877,0.0283837,0.0,0.0
504,125.75,19.6249,22.5627,167.788,102.758,102.755,0.00755002,0.100469,20.9047,8.40882,0.000278895,0.0,0.0
506,126.25,20.0353,22.3841,163.667,102.779,102.782,0.00749951,0.100415,20.9049,8.35877,-0.000289095,0.0,0.0
508,126.75,19.6812,22.4279,168.812,102.77,102.992,0.00745241,0.100409,20.9047,8.35877,-0.0194625,0.0,0.0
510,127.25,19.7968,22.6054,168.156,102.767,103.328,0.00741426,0.100436,20.9045,8.3888,-0.0489441,0.0,0.0
512,127.75,19.517,22.5596,169.62,102.774,103.126,0.00738598,0.100444,20.9044,8.37879,-0.0307379,0.0,0.0
514,128.25,19.6306,22.1636,168.484,102.774,102.735,0.00736306,0.100437,20.9042,8.37879,0.00343839,0.0,0.0
516,128.75,19.5143,22.563,170.075,102.772,103.178,0.00735413,0.10046,20.9041,8.32874,-0.035481,0.0,0.0
518,129.25,19.3929,22.6843,172.571,102.766,102.78,0.00735556,0.100506,20.9041,8.36878,-0.00123851,0.0,0.0
520,129.75,19.9229,22.8099,169.615,102.76,103.19,0.0073656,0.100543,20.904,8.3888,-0.03755,0.0,0.0
522,130.25,19.5639,22.4048,166.511,102.763,103.436,0.00738172,0.100754,20.9038,8.32874,-0.0587431,0.0,0.0
524,130.75,20.0343,22.3603,170.038,102.747,103.524,0.00740028,0.100925,20.9036,8.27869,-0.067759,0.0,0.0
526,131.25,19.9301,22.5428,166.972,102.744,103.179,0.00742028,0.10113,20.9035,8.26868,-0.0380789,0.0,0.0
528,131.75,19.9398,22.6344,165.521,102.72,102.896,0.00743647,0.101355,20.9034,8.26868,-0.0153692,0.0,0.0
530,132.25,19.869,22.5213,164.644,102.72,103.494,0.00744043,0.101515,20.9033,8.24866,-0.0674969,0.0,0.0
532,132.75,19.5285,22.5059,161.959,102.694,103.098,0.00744364,0.101624,20.9032,8.1986,-0.0353152,0.0,0.0
534,133.25,19.8447,22.6471,169.125,102.679,103.169,0.0074201,0.101712,20.9029,8.21863,-0.0428276,0.0,0.0
536,133.75,19.9261,22.4661,167.104,102.668,102.788,0.00740103,0.101812,20.9025,8.20861,-0.0105384,0.0,0.0
538,134.25,20.1914,22.4914,168.32,102.667,102.885,0.00738558,0.101893,20.9021,8.1986,-0.0190502,0.0,0.0
540,134.75,19.6954,22.8148,164.694,102.638,102.915,0.00734042,0.102056,20.9018,8.20861,-0.0242917,0.0,0.0
542,135.25,20.0747,22.6431,167.093,102.614,102.821,0.00730383,0.102188,20.9016,8.21863,-0.0181425,0.0,0.0
544,135.75,19.6047,22.7349,167.244,102.599,102.83,0.00725462,0.102211,20.9014,8.16857,-0.0202027,0.0,0.0
546,136.25,20.2483,22.483,164.093,102.583,102.979,0.00721475,0.10223,20.9012,8.22864,-0.0346857,0.0,0.0
548,136.75,19.5014,22.8123,165.409,102.553,102.791,0.0071642,0.102157,20.9011,8.26868,-0.0208478,0.0,0.0
550,137.25,19.5625,22.4141,162.847,102.532,102.798,0.00712325,0.102019,20.901,8.23865,-0.0233613,0.0,0.0
552,137.75,19.4472,22.7295,165.47,102.494,102.738,0.00708528,0.101907,20.9009,8.22864,-0.0214101,0.0,0.0
554,138.25,20.1743,22.4213,170.612,102.476,102.67,0.00705019,0.101593,20.9009,8.20861,-0.0170806,0.0,0.0
556,138.75,20.3308,22.7881,169.15,102.436,102.617,0.00701697,0.101339,20.9008,8.20861,-0.0159087,0.0,0.0
558,139.25,19.6712,22.9589,168.5,102.423,102.749,0.00698574,0.101111,20.9008,8.20861,-0.0285918,0.0,0.0
560,139.75,19.8181,22.3917,167.816,102.387,102.79,0.00696044,0.100907,20.9007,8.1986,-0.0352667,0.0,0.0
562,140.25,19.869,22.9138,164.339,102.359,102.984,0.00692182,0.100866,20.9009,8.18859,-0.0547426,0.0,0.0
564,140.75,19.6727,22.7998,165.745,102.324,102.855,0.00689054,0.100945,20.9013,8.1986,-0.0465916,0.0,0.0
566,141.25,19.471,22.5334,169.126,102.306,102.509,0.0068652,0.101083,20.9016,8.16857,-0.0178356,0.0,0.0
568,141.75,19.9655,22.8964,167.754,102.253,103.321,0.00681862,0.10126,20.9019,8.12853,-0.0935156,0.0,0.0
570,142.25,19.6584,22.9794,168.281,102.225,102.638,0.00678089,0.101404,20.9023,8.07848,-0.0362414,0.0,0.0
572,142.75,19.842,22.7004,165.939,102.176,102.623,0.00673601,0.101507,20.9023,8.03844,-0.0392548,0.0,0.0
574,143.25,19.9942,23.0628,162.869,102.144,102.495,0.00669965,0.101591,20.9021,8.05846,-0.0309009,0.0,0.0
576,143.75,19.7456,22.8953,166.409,102.1,103.104,0.00665458,0.101754,20.902,8.03844,-0.0880723,0.0,0.0
578,144.25,19.614,22.7443,162.848,102.084,102.423,0.00661808,0.101972,20.9019,8.02843,-0.0299053,0.0,0.0
580,144.75,19.689,22.8691,168.265,102.085,102.819,0.00657071,0.102149,20.9018,8.11852,-0.0643994,0.0,0.0
582,145.25,19.7105,22.6982,162.242,102.086,102.724,0.00651632,0.102375,20.9017,8.11852,-0.0560637,0.0,0.0
584,145.75,20.0258,23.0505,162.055,102.105,102.881,0.00647227,0.102559,20.9021,8.0985,-0.068187,0.0,0.0
586,146.25,19.8446,22.8698,165.731,102.115,102.38,0.00640854,0.10261,20.9024,8.0985,-0.0233866,0.0,0.0
588,146.75,19.9338,22.9603,161.773,102.122,102.825,0.00633169,0.102652,20.9025,8.07848,-0.0617269,0.0,0.0
590,147.25,20.2607,23.3272,166.424,102.16,102.918,0.00625783,0.102604,20.9025,8.10851,-0.0665631,0.0,0.0
592,147.75,19.7699,23.0225,166.279,102.141,102.836,0.00618755,0.102494,20.9026,8.05846,-0.0610162,0.0,0.0
594,148.25,20.5537,22.7076,167.176,102.141,102.897,0.00613062,0.102404,20.9026,7.97837,-0.0663308,0.0,0.0
596,148.75,19.9284,22.7761,170.974,102.156,102.685,0.0060845,0.102331,20.9026,8.07848,-0.0464735,0.0,0.0
598,149.25,19.9298,23.2547,166.73,102.169,102.81,0.0060238,0.102216,20.9026,8.10851,-0.0562337,0.0,0.0
600,149.75,20.0126,22.5373,169.861,102.19,103.089,0.00597463,0.102123,20.9026,8.05846,-0.0788126,0.0,0.0
602,150.25,20.0762,23.1887,170.473,102.197,103.394,0.00593003,0.101964,20.9027,8.01842,-0.104792,0.0,0.0
604,150.75,19.8362,22.7793,168.362,102.211,103.086,0.00588959,0.101836,20.9031,7.98838,-0.0767308,0.0,0.0
606,151.25,20.2486,22.9788,168.102,102.226,103.183,0.00585685,0.101673,20.9035,7.99839,-0.0837782,0.0,0.0
608,151.75,20.1191,22.877,168.562,102.233,102.895,0.00583032,0.101488,20.9033,7.95835,-0.0581396,0.0,0.0
610,152.25,20.1161,23.0527,164.867,102.241,103.255,0.00580883,0.101338,20.9032,7.92832,-0.0888501,0.0,0.0
612,152.75,19.8128,22.9503,168.562,102.273,103.11,0.00579791,0.101342,20.9033,7.99839,-0.07331,0.0,0.0
614,153.25,19.8839,22.5604,167.179,102.276,102.956,0.00578907,0.101457,20.9037,8.01842,-0.0596026,0.0,0.0
616,153.75,20.1008,22.5708,167.762,102.308,103.169,0.0057819,0.101631,20.9039,7.94834,-0.0753943,0.0,0.0
618,154.25,19.9462,23.1862,164.896,102.306,103.285,0.0057761,0.101844,20.9041,7.92832,-0.0856737,0.0,0.0
620,154.75,19.7718,22.9229,167.404,102.318,103.359,0.00576621,0.102017,20.9043,7.94834,-0.0910977,0.0,0.0
622,155.25,20.0995,22.8832,164.675,102.33,103.369,0.0057582,0.102185,20.9044,8.02843,-0.0908767,0.0,0.0
624,155.75,20.0712,23.2034,169.117,102.379,103.065,0.00575172,0.102321,20.9045,7.99839,-0.0601182,0.0,0.0
626,156.25,19.9901,23.4436,165.692,102.367,103.322,0.00574257,0.102351,20.9046,8.0084,-0.0835303,0.0,0.0
628,156.75,20.3064,23.0579,165.702,102.393,103.444,0.00573516,0.102302,20.9047,7.95835,-0.0918855,0.0,0.0
630,157.25,20.4645,23.164,170.383,102.382,103.147,0.00572787,0.102204,20.9048,7.93833,-0.0669279,0.0,0.0
632,157.75,20.4014,23.2132,162.452,102.403,103.359,0.00572196,0.102072,20.9048,7.95835,-0.0836829,0.0,0.0
634,158.25,20.2986,23.1727,160.904,102.421,103.499,0.00571199,0.101928,20.9048,7.97837,-0.094277,0.0,0.0
636,158.75,19.8945,23.1984,166.728,102.445,103.401,0.00570391,0.101778,20.9049,7.96836,-0.0836153,0.0,0.0
638,159.25,20.1304,23.0292,165.901,102.444,103.315,0.00569088,0.101657,20.9049,7.96836,-0.0761964,0.0,0.0
640,159.75,20.1961,23.063,164.486,102.481,103.469,0.00568033,0.101419,20.9049,7.92832,-0.0863095,0.0,0.0
642,160.25,20.2695,23.4104,166.521,102.489,103.639,0.00566272,0.101227,20.9049,7.88828,-0.100387,0.0,0.0
644,160.75,20.5266,23.3548,171.937,102.501,103.16,0.00564845,0.101155,20.9049,7.87827,-0.0576268,0.0,0.0
646,161.25,20.2128,23.2235,164.836,102.5,103.129,0.00563075,0.101096,20.905,7.9083,-0.0550691,0.0,0.0
648,161.75,20.0032,23.2113,171.964,102.531,102.872,0.00561089,0.101174,20.905,7.91831,-0.0298402,0.0,0.0
650,162.25,20.1974,23.2945,164.868,102.54,103.643,0.00559481,0.101238,20.905,7.88828,-0.0963358,0.0,0.0
652,162.75,19.7961,22.923,173.956,102.565,103.268,0.00556951,0.101261,20.905,7.9083,-0.0615141,0.0,0.0
654,163.25,19.8346,22.7054,165.528,102.544,103.409,0.00553798,0.10128,20.905,7.9083,-0.0755527,0.0,0.0
656,163.75,19.7711,22.9905,163.69,102.57,103.477,0.00551448,0.101295,20.905,7.89829,-0.0792601,0.0,0.0
658,164.25,20.3897,23.2774,168.344,102.584,103.301,0.00549729,0.101308,20.905,7.9083,-0.0626747,0.0,0.0
660,164.75,20.0726,23.3942,169.192,102.599,103.178,0.00549018,0.101318,20.905,7.9083,-0.0506764,0.0,0.0
662,165.25,19.881,23.5454,162.623,102.595,103.935,0.00549055,0.101242,20.905,7.9083,-0.116776,0.0,0.0
664,165.75,20.1434,23.3195,168.712,102.623,103.348,0.00550108,0.101181,20.905,7.88828,-0.0633158,0.0,0.0
666,166.25,20.3488,23.0183,165.603,102.628,103.415,0.00551882,0.101131,20.905,7.88828,-0.0686955,0.0,0.0
668,166.75,20.3937,23.5797,163.565,102.639,103.526,0.00553319,0.100924,20.905,7.88828,-0.0773881,0.0,0.0
670,167.25,20.0514,23.2459,169.267,102.641,103.67,0.0055513,0.100756,20.9052,7.89829,-0.0897612,0.0,0.0
672,167.75,19.8299,23.3491,171.627,102.664,103.328,0.00556598,0.100606,20.9056,7.87827,-0.0579954,0.0,0.0
674,168.25,20.4123,23.2407,174.472,102.671,103.461,0.0055662,0.100485,20.9059,7.86826,-0.0690403,0.0,0.0
676,168.75,20.8004,22.9252,165.659,102.686,103.568,0.00556638,0.100386,20.9062,7.86826,-0.0769559,0.0,0.0
678,169.25,20.7257,22.9581,170.028,102.682,103.876,0.00556653,0.100307,20.9064,7.83823,-0.103968,0.0,0.0
680,169.75,20.0507,23.0769,162.215,102.708,103.813,0.00554761,0.100242,20.9066,7.83823,-0.0962523,0.0,0.0
682,170.25,19.9317,23.6263,167.298,102.698,103.946,0.00553048,0.10019,20.9064,7.83823,-0.108714,0.0,0.0
684,170.75,19.7997,23.2403,171.746,102.712,103.469,0.00550118,0.100217,20.9063,7.83823,-0.0660309,0.0,0.0
686,171.25,19.9305,23.2586,168.72,102.721,103.265,0.00545934,0.100239,20.9061,7.82822,-0.0475297,0.0,0.0
688,171.75,20.1992,23.3841,168.509,102.74,103.716,0.00542544,0.100257,20.906,7.82822,-0.0850511,0.0,0.0
690,172.25,20.1641,23.1962,168.119,102.742,103.518,0.00538505,0.100286,20.9062,7.82822,-0.0677125,0.0,0.0
692,172.75,20.3225,23.5798,166.766,102.755,103.977,0.00535233,0.100323,20.9065,7.80819,-0.106399,0.0,0.0
694,173.25,20.2047,23.379,165.228,102.75,103.447,0.00531562,0.100353,20.9068,7.80819,-0.0609109,0.0,0.0
696,173.75,20.4943,23.5149,165.581,102.769,103.318,0.00527669,0.100238,20.907,7.82822,-0.0479017,0.0,0.0
698,174.25,19.8062,23.8828,167.633,102.767,103.504,0.0052601,0.100019,20.9072,7.8182,-0.0642822,0.0,0.0
700,174.75,20.4563,23.3968,167.419,102.781,103.362,0.00521234,0.0997397,20.9075,7.79818,-0.0507195,0.0,0.0
702,175.25,20.4076,23.3618,170.041,102.773,103.233,0.00515869,0.0994208,20.908,7.79818,-0.0401712,0.0,0.0
704,175.75,20.1611,23.5672,167.852,102.805,103.474,0.00510178,0.0990747,20.9084,7.80819,-0.0584068,0.0,0.0
706,176.25,20.2674,23.2886,164.545,102.788,103.409,0.00505568,0.0987152,20.9088,7.78817,-0.0541846,0.0,0.0
708,176.75,20.2872,24.0654,165.021,102.813,103.561,0.00499593,0.0982923,20.9091,7.78817,-0.0652346,0.0,0.0
710,177.25,20.758,23.6886,168.868,102.792,103.595,0.00492735,0.0980496,20.9097,7.78817,-0.0699997,0.0,0.0
712,177.75,20.4026,23.0811,163.496,102.812,103.615,0.0048562,0.0976346,20.9102,7.78817,-0.0700295,0.0,0.0
714,178.25,20.234,23.6779,168.141,102.808,103.498,0.00478452,0.0970621,20.9107,7.76815,-0.0601868,0.0,0.0
716,178.75,20.2814,23.4511,168.223,102.812,103.429,0.00471154,0.0965984,20.911,7.76815,-0.0538134,0.0,0.0
718,179.25,20.4473,23.6029,166.245,102.804,103.344,0.00463901,0.09607,20.9117,7.75814,-0.0471555,0.0,0.0
720,179.75,20.4518,23.4681,164.792,102.821,103.708,0.00456602,0.095642,20.9123,7.75814,-0.0772853,0.0,0.0
722,180.25,20.5174,23.5487,163.756,102.822,103.952,0.0044941,0.0952295,20.9128,7.74813,-0.098331,0.0,0.0
724,180.75,20.1687,23.9307,167.371,102.818,103.535,0.00443584,0.0948362,20.9132,7.72811,-0.0625418,0.0,0.0
726,181.25,20.3459,23.411,172.196,102.823,103.615,0.00435906,0.0945176,20.9135,7.7181,-0.0690009,0.0,0.0
728,181.75,20.5128,23.6258,166.84,102.828,103.46,0.00429687,0.0941207,20.9137,7.73812,-0.0552061,0.0,0.0
730,182.25,20.5804,23.51,165.61,102.846,103.563,0.00423235,0.0937992,20.9142,7.72811,-0.0624776,0.0,0.0
732,182.75,20.2489,23.3095,164.645,102.826,103.776,0.0041801,0.0934556,20.9147,7.73812,-0.0827649,0.0,0.0
734,183.25,20.2952,23.0968,164.256,102.832,103.773,0.00413777,0.0931772,20.9152,7.73812,-0.0819075,0.0,0.0
736,183.75,20.847,23.4307,164.048,102.836,103.823,0.00408806,0.0929239,20.9155,7.73812,-0.0859737,0.0,0.0
738,184.25,20.2069,23.0057,166.497,102.827,103.83,0.00404779,0.0927188,20.9158,7.73812,-0.0873368,0.0,0.0
740,184.75,20.353,23.4877,170.029,102.844,103.77,0.00401721,0.0924577,20.9161,7.72811,-0.0806178,0.0,0.0
742,185.25,20.1329,23.0273,167.335,102.828,103.462,0.00399426,0.0921608,20.9163,7.69808,-0.0553416,0.0,0.0
744,185.75,20.1422,23.4213,169.595,102.841,103.512,0.00398108,0.0918181,20.9164,7.69808,-0.0584942,0.0,0.0
746,186.25,20.2647,23.4057,171.299,102.831,103.883,0.00397528,0.0914486,20.917,7.70809,-0.0916336,0.0,0.0
748,186.75,20.2828,23.4299,165.577,102.822,103.621,0.00397464,0.0911492,20.9174,7.7181,-0.0696884,0.0,0.0
750,187.25,20.7048,23.3372,166.743,102.824,103.799,0.00397778,0.0908557,20.9178,7.70809,-0.0849428,0.0,0.0
752,187.75,20.1823,23.3507,169.571,102.822,103.638,0.00397964,0.090572,20.9181,7.72811,-0.071129,0.0,0.0
754,188.25,20.2291,22.9764,167.667,102.821,103.533,0.00398054,0.0903567,20.9184,7.70809,-0.0620676,0.0,0.0
756,188.75,20.1309,23.4025,170.737,102.818,103.833,0.00398127,0.0901955,20.9186,7.68807,-0.0883328,0.0,0.0
758,189.25,20.1,23.087,169.77,102.815,103.959,0.00397929,0.090065,20.9187,7.68807,-0.0995755,0.0,0.0
760,189.75,20.0368,22.5723,170.559,102.809,103.945,0.00397768,0.0899731,20.9188,7.69808,-0.0988863,0.0,0.0
762,190.25,20.4641,22.6529,166.426,102.811,104.304,0.0039757,0.0898986,20.9189,7.67806,-0.129708,0.0,0.0
764,190.75,19.8325,22.5913,165.14,102.799,103.634,0.00397349,0.0897274,20.919,7.65804,-0.0727526,0.0,0.0
766,191.25,20.1511,23.3758,165.249,102.805,103.736,0.0039717,0.0895888,20.9191,7.66805,-0.081147,0.0,0.0
768,191.75,20.1994,23.1134,163.754,102.797,103.499,0.00397154,0.0893517,20.9192,7.65804,-0.0612317,0.0,0.0
770,192.25,20.3408,23.1878,171.775,102.799,103.59,0.00397141,0.0891597,20.9192,7.64803,-0.0689328,0.0,0.0
772,192.75,20.5821,23.2089,169.242,102.782,103.769,0.0039713,0.0889167,20.9192,7.64803,-0.0859634,0.0,0.0
774,193.25,20.6881,23.4404,162.255,102.783,103.715,0.0039378,0.0886411,20.9195,7.62801,-0.081258,0.0,0.0
776,193.75,20.0688,23.2589,171.262,102.787,103.616,0.00391067,0.0884179,20.9198,7.64803,-0.0722497,0.0,0.0
778,194.25,20.6011,23.2233,166.207,102.768,103.595,0.0038643,0.0880294,20.9201,7.62801,-0.0721302,0.0,0.0
780,194.75,19.8933,23.4293,167.135,102.763,103.704,0.00382673,0.0877147,20.9208,7.618,-0.0819502,0.0,0.0
782,195.25,20.3551,23.3792,165.083,102.775,103.537,0.0037909,0.0874598,20.9213,7.618,-0.0665048,0.0,0.0
784,195.75,20.3641,23.3413,162.768,102.766,103.963,0.00375702,0.0872023,20.9217,7.62801,-0.104195,0.0,0.0
786,196.25,20.3818,23.2166,168.164,102.758,103.454,0.00373227,0.0869479,20.9221,7.63802,-0.0606803,0.0,0.0
788,196.75,20.5249,23.426,172.757,102.743,103.9,0.00371466,0.0867126,20.9224,7.618,-0.10074,0.0,0.0
790,197.25,20.2634,23.2121,167.531,102.756,104.266,0.00370039,0.0864959,20.9226,7.57795,-0.131247,0.0,0.0
792,197.75,20.8392,23.5594,165.557,102.732,103.945,0.00368749,0.0862402,20.9228,7.60798,-0.105683,0.0,0.0
794,198.25,19.942,23.3961,168.22,102.742,103.851,0.00367582,0.085961,20.9234,7.618,-0.0966735,0.0,0.0
796,198.75,20.5878,23.4206,163.99,102.73,103.678,0.00365623,0.0857348,20.9239,7.59797,-0.0826485,0.0,0.0
798,199.25,20.2926,23.3624,171.715,102.729,103.486,0.00363126,0.0853718,20.9243,7.59797,-0.0661309,0.0,0.0
800,199.75,20.597,22.9919,166.35,102.722,103.481,0.00359078,0.0850778,20.9246,7.60798,-0.0662308,0.0,0.0
802,200.25,19.9496,23.2309,168.285,102.716,103.839,0.00353978,0.0847669,20.9253,7.618,-0.0978744,0.0,0.0
804,200.75,20.4485,23.2255,164.657,102.713,103.58,0.00347487,0.0844496,20.9258,7.59797,-0.0756836,0.0,0.0
806,201.25,20.7809,23.3315,162.967,102.698,103.663,0.00340107,0.0841925,20.9263,7.59797,-0.0840922,0.0,0.0
808,201.75,19.9746,23.4104,168.904,102.685,103.23,0.00331503,0.0837632,20.9266,7.59797,-0.0476472,0.0,0.0
810,202.25,20.6509,23.1412,166.594,102.686,103.903,0.00322171,0.0833137,20.9269,7.60798,-0.106017,0.0,0.0
812,202.75,20.456,23.7056,172.194,102.672,103.574,0.00318193,0.0828579,20.9271,7.60798,-0.0787093,0.0,0.0
814,203.25,20.2595,23.222,164.436,102.671,103.761,0.00309473,0.082467,20.9273,7.59797,-0.0950662,0.0,0.0
816,203.75,20.2045,23.3352,166.99,102.651,103.426,0.0030241,0.0821307,20.9274,7.58796,-0.0677022,0.0,0.0
818,204.25,20.3583,22.7553,167.781,102.66,103.742,0.00296689,0.0818511,20.9276,7.60798,-0.0943589,0.0,0.0
820,204.75,20.2688,23.0131,166.546,102.628,103.999,0.00292055,0.081618,20.9277,7.60798,-0.119396,0.0,0.0
822,205.25,19.9017,22.8969,167.637,102.635,103.248,0.00288301,0.0814292,20.9278,7.59797,-0.0536138,0.0,0.0
824,205.75,20.6769,22.89,169.071,102.615,103.171,0.00286283,0.0813487,20.9281,7.59797,-0.0485628,0.0,0.0
826,206.25,20.1972,23.4733,164.14,102.62,103.879,0.00284648,0.0812111,20.9286,7.59797,-0.109681,0.0,0.0
828,206.75,20.4489,22.9517,167.969,102.601,103.407,0.00284602,0.0810851,20.9289,7.57795,-0.0704478,0.0,0.0
830,207.25,20.122,23.3272,171.457,102.614,103.671,0.00284565,0.0809699,20.9292,7.57795,-0.0922871,0.0,0.0
832,207.75,20.2822,23.4899,167.611,102.591,103.522,0.00285558,0.0808767,20.9295,7.59797,-0.0812228,0.0,0.0
834,208.25,20.1793,23.089,165.412,102.6,103.744,0.00286362,0.0808084,20.9297,7.59797,-0.0997626,0.0,0.0
836,208.75,20.1228,23.2522,165.289,102.569,103.361,0.00287652,0.0807596,20.9298,7.57795,-0.069229,0.0,0.0
838,209.25,20.5458,23.1395,167.203,102.581,103.123,0.00288698,0.0807128,20.9299,7.57795,-0.0474192,0.0,0.0
840,209.75,20.1959,23.0661,167.83,102.559,103.324,0.00289612,0.0806684,20.93,7.53791,-0.0669068,0.0,0.0
842,210.25,20.0474,23.7647,169.066,102.56,103.144,0.00290413,0.0806034,20.9301,7.45783,-0.0510782,0.0,0.0
844,210.75,20.3927,23.3442,171.305,102.552,103.389,0.00291062,0.0804664,20.9302,7.47785,-0.0731473,0.0,0.0
846,211.25,20.0131,23.0156,168.767,102.555,103.207,0.00290948,0.0803031,20.9302,7.47785,-0.0569915,0.0,0.0
848,211.75,20.4661,23.3553,163.474,102.534,103.452,0.00290856,0.0801709,20.9303,7.44782,-0.0801881,0.0,0.0
850,212.25,20.4821,23.0198,171.777,102.542,103.461,0.0028963,0.0798844,20.9303,7.43781,-0.0802925,0.0,0.0
852,212.75,20.5037,23.5519,163.888,102.523,103.052,0.00288638,0.0796523,20.9304,7.44782,-0.0463366,0.0,0.0
854,213.25,20.229,23.3763,165.052,102.525,103.381,0.00286892,0.0794207,20.9304,7.53791,-0.0747815,0.0,0.0
856,213.75,20.6727,23.3766,166.443,102.508,103.499,0.0028463,0.079194,20.9304,7.60798,-0.0865304,0.0,0.0
858,214.25,20.5886,23.2806,169.096,102.499,103.63,0.00282798,0.0790103,20.9308,7.55793,-0.0987377,0.0,0.0
860,214.75,20.1676,23.3286,168.085,102.484,103.975,0.00279398,0.0787098,20.9312,7.47785,-0.129915,0.0,0.0
862,215.25,20.1912,23.5022,169.168,102.483,103.461,0.00276644,0.0784664,20.9315,7.5279,-0.0854945,0.0,0.0
864,215.75,20.5162,23.5522,170.447,102.466,103.122,0.00274414,0.0780349,20.932,7.47785,-0.0574287,0.0,0.0
866,216.25,20.3375,22.7574,165.161,102.455,103.455,0.00272002,0.0776854,20.9326,7.44782,-0.0874218,0.0,0.0
868,216.75,20.5308,23.5199,163.254,102.454,103.315,0.00269504,0.077337,20.933,7.45783,-0.0752666,0.0,0.0
870,217.25,20.1307,22.9599,166.465,102.449,103.267,0.0026701,0.076996,20.9335,7.48786,-0.0715447,0.0,0.0
872,217.75,20.6647,23.6338,165.299,102.441,103.237,0.00264567,0.0767199,20.934,7.4278,-0.0697149,0.0,0.0
874,218.25,20.2595,23.4856,165.978,102.43,103.199,0.00262588,0.0764962,20.9343,7.4278,-0.0672829,0.0,0.0
876,218.75,20.3868,23.4006,167.691,102.418,103.165,0.00260247,0.076315,20.9346,7.40777,-0.0654582,0.0,0.0
878,219.25,20.2781,23.1588,164.238,102.41,103.376,0.00257685,0.0761682,20.9348,7.43781,-0.084501,0.0,0.0
880,219.75,20.8289,23.0827,166.805,102.391,103.173,0.0025514,0.0759913,20.935,7.44782,-0.0684593,0.0,0.0
882,220.25,20.7742,23.2553,166.817,102.397,103.378,0.00252655,0.0757958,20.9351,7.44782,-0.0858692,0.0,0.0
884,220.75,20.3943,23.3536,168.479,102.375,103.585,0.00250374,0.0756375,20.9352,7.41778,-0.105738,0.0,0.0
886,221.25,20.3121,23.5169,165.408,102.367,103.08,0.00248285,0.0753715,20.9355,7.40777,-0.0625008,0.0,0.0
888,221.75,20.5249,23.3353,171.18,102.369,103.08,0.00246324,0.075156,20.936,7.43781,-0.0623533,0.0,0.0
890,222.25,20.9143,23.5027,167.14,102.348,103.328,0.00244494,0.0747887,20.9366,7.40777,-0.0857615,0.0,0.0
892,222.75,20.497,23.2666,164.754,102.339,103.513,0.00242542,0.0744912,20.9373,7.51789,-0.102648,0.0,0.0
894,223.25,20.6204,23.1685,169.159,102.325,102.997,0.00240538,0.0741815,20.9379,7.50788,-0.0588635,0.0,0.0
896,223.75,20.0709,23.5702,168.39,102.33,103.296,0.00238915,0.0739305,20.9383,7.51789,-0.0845107,0.0,0.0
898,224.25,20.6114,23.3792,166.063,102.311,103.761,0.00235943,0.0737135,20.9387,7.5279,-0.126557,0.0,0.0
900,224.75,20.4714,23.9074,169.232,102.312,103.329,0.00233535,0.0735377,20.939,7.51789,-0.0889963,0.0,0.0
902,225.25,20.72,23.8555,164.96,102.3,103.253,0.00230445,0.0733678,20.9392,7.50788,-0.0834182,0.0,0.0
904,225.75,20.3418,23.0481,169.839,102.311,103.395,0.00226917,0.0732302,20.9394,7.48786,-0.0947936,0.0,0.0
906,226.25,20.5643,23.5367,165.081,102.29,103.045,0.00223857,0.0730608,20.9396,7.46784,-0.0661752,0.0,0.0
908,226.75,20.8286,23.3292,166.134,102.277,103.083,,0.0728714,,7.43781,-0.0705873,0.0,0.0
910,227.25,21.1533,23.4928,168.503,102.264,102.948,,0.072718,,7.46784,-0.0599568,0.0,0.0
912,227.75,20.4589,23.8662,165.782,102.26,103.326,,0.0725112,,7.49787,-0.0932945,0.0,0.0
914,228.25,20.6883,23.4257,167.711,102.266,103.149,,0.0723437,,7.5279,-0.0773751,0.0,0.0
916,228.75,20.8665,23.8547,165.628,102.247,102.913,,0.0721936,,7.47785,-0.0584257,0.0,0.0
918,229.25,20.876,23.784,165.436,102.224,103.319,,0.0720589,,7.4278,-0.0958463,0.0,0.0
920,229.75,20.7411,23.5373,158.893,102.234,103.112,,,,7.45783,-0.0769613,0.0,0.0
922,230.25,20.5825,23.2928,167.543,102.219,103.362,,,,7.46784,-0.100119,0.0,0.0
924,230.75,20.2777,23.1357,169.59,102.225,103.059,,,,7.47785,-0.0731127,0.0,0.0
926,231.25,21.0649,23.353,164.983,102.205,103.248,,,,7.46784,-0.0913654,0.0,0.0
928,231.75,20.519,23.6612,162.992,102.195,103.111,,,,7.46784,-0.0802693,0.0,0.0
930,232.25,20.5414,23.9485,163.571,102.177,102.969,,,,7.44782,-0.0695349,0.0,0.0
932,232.75,20.8294,23.8299,166.155,102.18,103.387,,,,7.45783,-0.105676,0.0,0.0
934,233.25,20.3058,23.8286,163.542,102.141,103.362,,,,7.43781,-0.106947,0.0,0.0
936,233.75,20.7136,23.84,168.736,102.144,102.903,,,,7.43781,-0.066534,0.0,0.0
938,234.25,20.8112,23.7072,167.907,102.134,103.17,,,,7.41778,-0.0908225,0.0,0.0
940,234.75,20.5541,23.6552,166.747,102.113,103.131,,,,7.38775,-0.0892422,0.0,0.0
942,235.25,20.5979,23.9623,166.838,102.108,102.646,,,,7.40777,-0.0472434,0.0,0.0
944,235.75,21.0133,23.5545,170.009,102.092,102.991,,,,7.39776,-0.078897,0.0,0.0
946,236.25,20.9761,23.746,165.93,102.09,103.279,,,,7.4278,-0.10416,0.0,0.0
948,236.75,20.4881,23.6046,167.84,102.08,103.148,,,,7.39776,-0.0936559,0.0,0.0
950,237.25,20.7111,23.3908,172.673,102.051,102.867,,,,7.35772,-0.0716155,0.0,0.0
951,237.5,20.7661,23.5153,168.623,102.052,103.046,,,,7.36773,-0.0872117,0.0,0.0