File: 01_Data/Cotton_Raw/Cone/Raw_Cotton_Cone_HF75-Frame+GridScan_200910_R1.csv
Names,Time,Stack TC,Smoke TC,Exh Press,Smoke Comp,Smoke Meas,CO Meter,CO2 Meter,O2 Meter,Sample Mass,Ext Coeff,Start Test,Flame Verif
Chan Gain,,500,500,1,1,1,1,1,1,1,1,1.0,1.0
Offset,,0,0,0.140826,0,0,0,0,0,0,0,0.0,0.0
Gain,,1,1,25.011,13.7435,17.0229,1,1,1,1.00129,1.0222,1.0,1.0
Units,sec,C,C,Pa,%,%,%,%,%,g,/m,,
Baseline,,34.8455,39.7336,168.723,102.441,105.114,0.000435624,0.0526617,20.9481,-898.4,-0.23086,,
2,0.25,33.3149,36.7898,161.641,102.37,104.847,0.00141383,0.0860311,20.9333,16.6314,-0.214357,0.0,0.0
4,0.75,33.8847,37.1309,160.651,102.366,106.078,0.00158909,0.101327,20.9287,16.6314,-0.319405,0.0,0.0
6,1.25,32.7438,36.1175,153.602,102.345,105.542,0.00175531,0.113717,20.9084,16.5113,-0.275802,0.0,1.0
8,1.75,32.3002,37.0117,155.43,102.369,105.681,0.00188995,0.133598,20.892,16.4812,-0.285448,0.0,1.0
10,2.25,33.1573,39.0348,153.138,102.358,105.889,0.00199388,0.158562,20.8728,16.5313,-0.304061,0.0,1.0
12,2.75,34.4853,40.8207,162.275,102.377,106.659,0.00207806,0.178783,20.8518,16.331,-0.367447,0.0,1.0
14,3.25,35.2429,42.041,161.053,102.352,106.537,0.00212192,0.197581,20.8312,16.271,-0.359265,0.0,1.0
16,3.75,36.1489,43.1115,152.33,102.361,105.208,0.00215745,0.214985,20.8111,16.2109,-0.24599,0.0,1.0
18,4.25,36.8645,44.2475,156.888,102.344,105.715,0.00216447,0.229081,20.7933,16.1508,-0.290568,0.0,1.0
20,4.75,37.8167,45.3929,160.567,102.363,105.239,0.00217016,0.241672,20.7774,16.1808,-0.248535,0.0,1.0
22,5.25,38.1653,46.7267,155.466,102.354,105.984,0.00216965,0.25187,20.7637,16.0807,-0.312474,0.0,1.0
24,5.75,38.9064,47.4536,156.323,102.361,105.302,0.00216924,0.261213,20.7517,16.0206,-0.254,0.0,1.0
26,6.25,38.5859,47.3741,163.32,102.347,105.224,0.0021881,0.268782,20.741,15.9606,-0.248603,0.0,1.0
28,6.75,38.6943,47.952,156.98,102.352,105.321,0.00220337,0.276299,20.7316,15.9305,-0.2564,0.0,0.0
30,7.25,38.8642,47.7989,162.344,102.36,105.226,0.00221574,0.282388,20.724,15.9005,-0.24765,0.0,0.0
32,7.75,39.3907,49.4162,153.135,102.373,104.896,0.00228084,0.288317,20.7178,15.8004,-0.218268,0.0,0.0
34,8.25,39.7338,49.4738,155.756,102.344,104.591,0.00233356,0.293119,20.7128,15.7803,-0.194697,0.0,0.0
36,8.75,40.4657,50.4308,165.12,102.368,104.324,0.00242618,0.297009,20.7087,15.7102,-0.169718,0.0,0.0
38,9.25,40.9109,51.4221,159.336,102.354,105.762,0.0025012,0.30016,20.7054,15.6902,-0.293724,0.0,0.0
40,9.75,41.0881,51.737,157.446,102.369,104.325,0.00258494,0.302038,20.7028,15.6101,-0.169661,0.0,0.0
42,10.25,41.6886,51.9089,159.748,102.359,103.565,0.00267345,0.302952,20.7004,15.5901,-0.10498,0.0,0.0
44,10.75,41.7723,52.7287,158.955,102.368,104.021,0.00274514,0.303693,20.6986,15.53,-0.14362,0.0,0.0
46,11.25,42.6013,52.9444,165.033,102.37,104.568,0.00282121,0.303281,20.6977,15.51,-0.190504,0.0,0.0
48,11.75,42.3616,53.6706,156.986,102.377,104.633,0.00288282,0.302039,20.6977,15.4699,-0.195402,0.0,0.0
50,12.25,42.919,53.5864,153.961,102.369,104.037,0.00292501,0.30039,20.6983,15.4199,-0.144935,0.0,0.0
52,12.75,42.6707,53.7482,158.442,102.387,104.342,0.00295919,0.298476,20.6995,15.3398,-0.169591,0.0,0.0
54,13.25,42.4206,54.0588,158.339,102.38,105.132,0.00295604,0.296926,20.7011,15.3097,-0.237825,0.0,0.0
56,13.75,42.9212,54.3587,159.139,102.382,104.878,0.00295349,0.294285,20.703,15.2597,-0.215949,0.0,0.0
58,14.25,43.3602,54.8576,157.191,102.387,105.473,0.00292239,0.292145,20.7045,15.2096,-0.266219,0.0,0.0
60,14.75,43.3123,54.9268,157.288,102.391,103.418,0.00287106,0.28973,20.7067,15.1495,-0.0894589,0.0,0.0
62,15.25,43.1379,54.9995,161.009,102.388,104.146,0.00280925,0.287773,20.7084,15.1495,-0.152671,0.0,0.0
64,15.75,43.301,55.4795,158.085,102.394,104.301,0.00274097,0.28577,20.7098,15.1495,-0.165476,0.0,0.0
66,16.25,43.1131,55.4083,154.304,102.395,104.858,0.00267421,0.284147,20.7109,15.0794,-0.213078,0.0,0.0
68,16.75,43.7355,55.5013,160.357,102.41,104.54,0.00260982,0.282386,20.7132,14.9793,-0.184609,0.0,0.0
70,17.25,43.5711,55.1196,158.47,102.39,104.227,0.00255295,0.280556,20.715,14.8792,-0.159426,0.0,0.0
72,17.75,44.1918,55.201,160.694,102.415,104.954,0.00250264,0.279074,20.7169,14.9192,-0.219611,0.0,0.0
74,18.25,44.0706,55.3498,158.258,102.396,104.714,0.00246458,0.27698,20.7184,14.7891,-0.200698,0.0,0.0
76,18.75,43.6832,55.6137,155.563,102.409,105.434,0.00243618,0.275179,20.7201,14.749,-0.260997,0.0,0.0
78,19.25,44.2903,55.6414,162.759,102.402,104.742,0.00241286,0.273625,20.7226,14.759,-0.202586,0.0,0.0
80,19.75,44.2169,55.1567,159.298,102.411,104.498,0.00241257,0.272367,20.7236,14.749,-0.180881,0.0,0.0
82,20.25,44.1223,55.612,156.85,102.414,103.949,0.00241208,0.271132,20.7251,14.6789,-0.13339,0.0,0.0
84,20.75,44.3799,55.3184,159.054,102.423,105.071,0.00241168,0.270019,20.7264,14.6489,-0.228894,0.0,0.0
86,21.25,44.0921,55.573,158.638,102.412,104.754,0.00243314,0.269016,20.7274,14.5588,-0.202756,0.0,0.0
88,21.75,43.6227,55.6588,157.577,102.42,104.525,0.00245052,0.268203,20.7283,14.5387,-0.182354,0.0,0.0
90,22.25,44.0629,55.0826,160.245,102.417,104.81,0.00246459,0.267026,20.7292,14.5287,-0.207088,0.0,0.0
92,22.75,44.3728,55.5818,158.207,102.422,105.889,0.00246447,0.266709,20.7296,14.4987,-0.298441,0.0,0.0
94,23.25,43.9755,55.2808,157.948,102.419,105.296,0.00246436,0.266167,20.7298,14.4887,-0.248392,0.0,0.0
96,23.75,44.057,55.0029,161.377,102.428,106.092,0.00243739,0.265406,20.7302,14.4086,-0.315112,0.0,0.0
98,24.25,44.3654,55.5908,160.874,102.436,105.724,0.00241553,0.26479,20.7308,14.3385,-0.283265,0.0,0.0
100,24.75,44.6157,55.1543,162.321,102.443,105.053,0.00237224,0.264291,20.7312,14.2684,-0.225543,0.0,0.0
102,25.25,44.2004,54.9948,161.94,102.442,105.761,0.00233718,0.263489,20.7315,14.2684,-0.285924,0.0,0.0
104,25.75,44.3925,55.2884,160.233,102.43,105.444,0.00228831,0.262839,20.7321,14.2083,-0.260037,0.0,0.0
106,26.25,44.4111,54.9687,161.464,102.433,105.57,0.00224873,0.262006,20.7327,14.1482,-0.270552,0.0,0.0
108,26.75,44.0898,55.0238,160.174,102.443,105.797,0.00220133,0.261332,20.7336,14.1582,-0.288815,0.0,0.0
110,27.25,43.9517,54.7597,164.604,102.437,105.819,0.00216293,0.260561,20.7348,14.0882,-0.291215,0.0,0.0
112,27.75,44.2154,54.6846,163.304,102.448,105.573,0.00213183,0.259734,20.7358,14.008,-0.269415,0.0,0.0
114,28.25,44.0883,54.9043,161.137,102.441,105.469,0.00208237,0.258743,20.7366,13.998,-0.261129,0.0,0.0
116,28.75,44.3007,54.7932,160.585,102.435,106.348,0.0020423,0.257941,20.7372,13.988,-0.3361,0.0,0.0
118,29.25,44.5482,55.1482,158.293,102.45,106.073,0.00199976,0.25713,20.7377,13.988,-0.311657,0.0,0.0
120,29.75,44.4798,54.7169,154.764,102.437,106.778,0.00195624,0.25633,20.7386,13.948,-0.372191,0.0,0.0
122,30.25,44.6661,54.9152,161.708,102.435,106.311,0.00191695,0.255273,20.7393,13.8879,-0.333026,0.0,0.0
124,30.75,44.2661,54.871,162.958,102.436,106.042,0.0018815,0.254049,20.7402,13.8378,-0.310153,0.0,0.0
126,31.25,44.6196,55.1036,158.486,102.448,105.909,0.00185279,0.253058,20.7411,13.8078,-0.297873,0.0,0.0
128,31.75,44.5017,55.2852,158.927,102.438,105.598,0.00182825,0.251572,20.7419,13.7778,-0.272377,0.0,0.0
130,32.25,44.3052,55.2039,163.031,102.441,105.616,0.00180838,0.250369,20.7429,13.7377,-0.273701,0.0,0.0
132,32.75,44.7843,55.1655,161.257,102.441,106.375,0.00179228,0.249147,20.7438,13.7177,-0.337826,0.0,0.0
134,33.25,44.7758,55.0138,157.835,102.452,106.202,0.00177924,0.247935,20.7448,13.6376,-0.322278,0.0,0.0
136,33.75,44.9684,54.2814,163.246,102.443,105.882,0.0017674,0.246953,20.7456,13.6075,-0.29607,0.0,0.0
138,34.25,44.6225,55.2836,161.521,102.446,105.779,0.00175782,0.245976,20.7463,13.5875,-0.287054,0.0,0.0
140,34.75,44.3956,54.9093,159.277,102.443,105.728,0.00175005,0.245185,20.7468,13.5775,-0.282958,0.0,0.0
142,35.25,45.0744,55.0647,163.111,102.455,105.735,0.00174121,0.244802,20.7472,13.5074,-0.282584,0.0,0.0
144,35.75,44.3587,55.444,156.682,102.432,105.545,0.00173404,0.244491,20.7476,13.5074,-0.268427,0.0,0.0
146,36.25,44.4599,54.8607,163.415,102.459,106.058,0.00172824,0.244263,20.7481,13.3973,-0.309533,0.0,0.0
148,36.75,44.8372,55.0638,156.811,102.443,106.208,0.00172354,0.2441,20.7487,13.4073,-0.323575,0.0,0.0
150,37.25,44.5664,55.6505,158.94,102.455,106.082,0.00172229,0.243888,20.7492,13.3973,-0.31192,0.0,0.0
152,37.75,44.8464,55.2063,159.741,102.446,106.074,0.00172127,0.243645,20.7496,13.3572,-0.312039,0.0,0.0
154,38.25,45.0542,55.5692,158.984,102.453,106.27,0.001723,0.243448,20.7502,13.2871,-0.327985,0.0,0.0
156,38.75,45.1521,55.3001,162.418,102.456,105.692,0.0017244,0.24282,20.7508,13.197,-0.278853,0.0,0.0
158,39.25,44.8108,55.484,156.608,102.451,106.31,0.00172681,0.242311,20.7514,13.2471,-0.331469,0.0,0.0
160,39.75,45.086,55.1918,167.588,102.443,105.758,0.00172876,0.241716,20.7518,13.217,-0.285557,0.0,0.0
162,40.25,45.2642,55.5561,155.812,102.456,105.863,0.00172564,0.241069,20.7522,13.177,-0.293348,0.0,0.0
164,40.75,45.2381,55.4343,162.917,102.442,105.94,0.00171888,0.240379,20.7529,13.167,-0.301062,0.0,0.0
166,41.25,45.0062,55.5777,156.193,102.451,106.315,0.00171341,0.23967,20.7535,13.0969,-0.331989,0.0,0.0
168,41.75,44.8002,55.1621,163.1,102.45,105.342,0.00170897,0.238992,20.7539,13.0869,-0.249656,0.0,0.0
170,42.25,45.0903,55.762,164.066,102.464,105.635,0.00168625,0.238351,20.7543,13.0268,-0.27335,0.0,0.0
172,42.75,44.8356,55.7732,160.671,102.466,106.072,0.00165777,0.237831,20.7546,13.0168,-0.310175,0.0,0.0
174,43.25,45.3567,55.31,156.827,102.462,105.996,0.00162565,0.237561,20.7549,12.9066,-0.304092,0.0,0.0
176,43.75,44.7481,55.3085,163.708,102.456,106.745,0.00159359,0.237342,20.7551,12.8766,-0.367717,0.0,0.0
178,44.25,45.4428,55.3279,163.769,102.456,106.181,0.00156219,0.23727,20.7552,12.9066,-0.32023,0.0,0.0
180,44.75,45.2991,55.0477,160.738,102.452,105.727,0.00153675,0.237212,20.7554,12.8666,-0.282179,0.0,0.0
182,45.25,45.1922,55.0378,154.428,102.475,105.898,0.00151615,0.237165,20.7555,12.8165,-0.294608,0.0,0.0
184,45.75,45.0069,54.6794,160.551,102.449,106.206,0.00150329,0.237504,20.7552,12.7865,-0.322966,0.0,0.0
186,46.25,44.6575,54.6224,163.291,102.465,106.051,0.00149287,0.237778,20.7546,12.7364,-0.308492,0.0,0.0
188,46.75,45.0562,54.965,159.684,102.443,106.006,0.0014959,0.238499,20.7536,12.6863,-0.306498,0.0,0.0
190,47.25,45.0983,54.4173,155.099,102.459,106.687,0.00149835,0.239083,20.7524,12.6563,-0.362527,0.0,0.0
192,47.75,44.715,55.0484,159.369,102.451,105.602,0.00151947,0.239557,20.751,12.5962,-0.271621,0.0,0.0
194,48.25,45.1995,54.952,165.399,102.458,106.835,0.00153658,0.240833,20.7495,12.5962,-0.375153,0.0,0.0
196,48.75,45.215,55.1727,159.793,102.449,106.21,0.00156521,0.241867,20.7482,12.5362,-0.323236,0.0,0.0
198,49.25,45.1384,55.014,162.073,102.458,106.286,0.00160169,0.243145,20.7463,12.5161,-0.328911,0.0,0.0
200,49.75,45.3138,54.93,163.589,102.454,106.349,0.00163125,0.24418,20.7448,12.5161,-0.334536,0.0,0.0
202,50.25,45.1321,54.8911,162.723,102.46,106.329,0.0016546,0.245368,20.7439,12.4661,-0.332363,0.0,0.0
204,50.75,44.9769,55.0296,162.057,102.451,106.22,0.00169453,0.246331,20.7424,12.416,-0.323966,0.0,0.0
206,51.25,45.6007,55.3062,159.941,102.46,106.04,0.00172957,0.247358,20.7412,12.396,-0.307929,0.0,0.0
208,51.75,45.4642,55.0584,161.97,102.453,105.814,0.00176036,0.248414,20.7402,12.3359,-0.289416,0.0,0.0
210,52.25,45.1858,55.3242,159.213,102.467,106.325,0.00178531,0.24927,20.7394,12.2958,-0.331419,0.0,0.0
212,52.75,45.3362,55.1145,161.678,102.451,105.772,0.0017953,0.250435,20.7383,12.2258,-0.286048,0.0,0.0
214,53.25,45.6165,55.2305,150.585,102.458,106.688,0.00180339,0.250932,20.7374,12.1657,-0.362725,0.0,0.0
216,53.75,45.7966,55.6026,156.492,102.46,106.334,0.00179717,0.251806,20.7367,12.0956,-0.332715,0.0,0.0
218,54.25,45.8604,55.4077,158.827,102.454,106.31,0.00179214,0.252535,20.7361,12.0756,-0.331294,0.0,0.0
220,54.75,45.6172,55.6152,161.224,102.45,106.287,0.00176892,0.252997,20.7357,12.0555,-0.329688,0.0,0.0
222,55.25,45.6242,55.1954,158.272,102.458,106.213,0.00175011,0.253256,20.7353,12.0255,-0.322766,0.0,0.0
224,55.75,45.2157,55.4132,155.132,102.467,106.725,0.00173488,0.253466,20.735,12.0856,-0.365016,0.0,0.0
226,56.25,45.2613,55.8983,156.681,102.459,106.837,0.00168555,0.253727,20.7347,12.0155,-0.375174,0.0,0.0
228,56.75,45.709,56.1021,159.308,102.456,106.367,0.0016456,0.253939,20.7345,11.9955,-0.335848,0.0,0.0
230,57.25,46.0178,55.793,155.147,102.464,106.927,0.00159794,0.254034,20.7344,11.9154,-0.382353,0.0,0.0
232,57.75,45.8347,55.7295,158.782,102.464,105.527,0.00155934,0.254111,20.7342,11.9154,-0.264173,0.0,0.0
234,58.25,46.2515,55.8374,163.753,102.458,106.273,0.0015268,0.254174,20.7344,11.8853,-0.327852,0.0,0.0
236,58.75,46.0923,55.9809,155.624,102.46,106.567,0.00150045,0.2536,20.7347,11.8352,-0.352399,0.0,0.0
238,59.25,46.1581,56.1244,159.864,102.469,106.248,0.00149312,0.253135,20.7349,11.8252,-0.324676,0.0,0.0
240,59.75,45.9693,56.4286,161.334,102.469,105.807,0.00148718,0.252343,20.7355,11.7752,-0.287413,0.0,0.0
242,60.25,46.0751,56.4361,165.149,102.462,105.483,0.00149914,0.251327,20.7361,11.7451,-0.260523,0.0,0.0
244,60.75,46.6019,56.1607,153.89,102.46,106.186,0.00152394,0.250256,20.7367,11.615,-0.320265,0.0,0.0
246,61.25,46.0963,56.0382,158.219,102.457,106.038,0.00154402,0.249166,20.7374,11.655,-0.308047,0.0,0.0
248,61.75,45.9152,56.3584,162.641,102.464,106.596,0.0015973,0.247997,20.7383,11.635,-0.354479,0.0,0.0
250,62.25,46.0279,56.3935,157.495,102.467,106.458,0.00164046,0.246792,20.7391,11.5849,-0.342627,0.0,0.0
252,62.75,46.0376,56.2365,162.305,102.472,107.033,0.00167541,0.245664,20.7398,11.5749,-0.390502,0.0,0.0
254,63.25,46.4096,56.2859,160.061,102.458,106.904,0.00175356,0.244615,20.7404,11.5549,-0.380913,0.0,0.0
256,63.75,46.0441,56.3807,158.668,102.468,107.02,0.00181686,0.243765,20.7409,11.5349,-0.389736,0.0,0.0
258,64.25,45.8651,56.216,158.345,102.467,107.027,0.00188603,0.243016,20.7415,11.4748,-0.390375,0.0,0.0
260,64.75,45.9901,56.0436,162.586,102.48,107.085,0.00194207,0.242409,20.7422,11.4748,-0.394155,0.0,0.0
262,65.25,46.052,55.5721,157.723,102.461,106.507,0.00199385,0.241656,20.7432,11.4648,-0.347217,0.0,0.0
264,65.75,45.9941,55.9114,166.423,102.477,106.006,0.0020358,0.24081,20.7444,11.4247,-0.303568,0.0,0.0
266,66.25,45.9024,55.8293,160.316,102.472,105.253,0.00208001,0.240124,20.7459,11.3847,-0.240102,0.0,0.0
268,66.75,46.2451,55.8512,160.826,102.475,105.553,0.00211582,0.23847,20.7475,11.3847,-0.265345,0.0,0.0
270,67.25,46.1647,55.7034,158.483,102.464,106.133,0.00217043,0.23713,20.7488,11.3847,-0.315459,0.0,0.0
272,67.75,45.7145,55.4276,159.057,102.503,106.444,0.00221467,0.23565,20.7503,11.2946,-0.338217,0.0,0.0
274,68.25,45.9534,55.1465,161.641,102.467,105.843,0.0022505,0.234096,20.7519,11.3046,-0.290715,0.0,0.0
276,68.75,45.7876,55.3894,164.026,102.477,105.578,0.00233206,0.232118,20.7537,11.2946,-0.267243,0.0,0.0
278,69.25,46.1494,55.3635,161.341,102.467,106.631,0.00239813,0.230517,20.7556,11.2445,-0.357157,0.0,0.0
280,69.75,45.9848,55.3312,159.732,102.485,106.245,0.00245164,0.228144,20.7571,11.2144,-0.323135,0.0,0.0
282,70.25,46.1587,55.1131,166.132,102.468,105.511,0.00249336,0.226223,20.7582,11.2144,-0.262393,0.0,0.0
284,70.75,46.0142,55.5291,162.361,102.482,106.465,0.00256471,0.224667,20.76,11.1444,-0.341889,0.0,0.0
286,71.25,45.743,55.2183,161.937,102.474,105.632,0.0026225,0.222569,20.7616,11.1644,-0.272161,0.0,0.0
288,71.75,45.4044,54.7503,157.168,102.48,106.286,0.00268086,0.220117,20.7635,11.1243,-0.326922,0.0,0.0
290,72.25,45.9531,54.9702,162.679,102.468,106.672,0.00272813,0.218131,20.7656,11.1343,-0.36049,0.0,0.0
292,72.75,45.5979,53.8195,158.207,102.479,106.115,0.00277028,0.215915,20.7679,11.1243,-0.312638,0.0,0.0
294,73.25,45.1606,54.059,160.993,102.478,105.616,0.00280441,0.21497,20.7701,11.1143,-0.270434,0.0,0.0
296,73.75,45.6378,54.01,157.674,102.482,105.512,0.00283342,0.213354,20.7721,11.0542,-0.261234,0.0,0.0
298,74.25,44.9917,54.1691,158.945,102.473,105.763,0.00285812,0.211529,20.7739,11.0643,-0.28334,0.0,0.0
300,74.75,45.389,54.2061,161.183,102.477,106.46,0.00287746,0.21005,20.7754,11.0242,-0.341922,0.0,0.0
302,75.25,45.0851,54.1112,165.226,102.468,105.479,0.00289252,0.208247,20.7771,11.0142,-0.259744,0.0,0.0
304,75.75,45.413,53.5754,164.253,102.48,106.652,0.00290809,0.206786,20.7784,11.0142,-0.357766,0.0,0.0
306,76.25,44.8788,53.4968,163.228,102.471,105.989,0.00292375,0.205224,20.7804,10.9942,-0.302662,0.0,0.0
308,76.75,45.1344,53.2468,157.262,102.484,106.595,0.00293643,0.203616,20.7819,10.9341,-0.35271,0.0,0.0
310,77.25,44.9296,53.0075,163.995,102.47,105.791,0.0029582,0.202128,20.7832,10.904,-0.285975,0.0,0.0
312,77.75,44.7331,52.8288,164.043,102.479,105.849,0.00297292,0.200756,20.784,10.864,-0.290134,0.0,0.0
314,78.25,44.9601,52.7822,163.214,102.48,106.229,0.0029981,0.199429,20.7853,10.834,-0.322136,0.0,0.0
316,78.75,44.881,52.6192,161.763,102.477,106.883,0.00304807,0.198158,20.7868,10.8239,-0.377475,0.0,0.0
318,79.25,44.7966,52.4927,160.85,102.462,105.981,0.00308854,0.197129,20.788,10.7939,-0.302854,0.0,0.0
320,79.75,44.5895,52.7515,159.307,102.469,105.965,0.00315477,0.195933,20.7893,10.7739,-0.300823,0.0,0.0
322,80.25,45.0338,52.8555,160.526,102.462,105.831,0.00320842,0.194639,20.7905,10.7438,-0.290099,0.0,0.0
324,80.75,44.5621,52.6397,160.143,102.472,106.309,0.00328794,0.194086,20.7927,10.7338,-0.329664,0.0,0.0
326,81.25,44.8217,52.6626,164.656,102.463,105.791,0.00335235,0.19228,20.7946,10.7539,-0.286562,0.0,0.0
328,81.75,44.3131,52.1732,162.117,102.461,105.335,0.00342284,0.190816,20.7961,10.6237,-0.248039,0.0,0.0
330,82.25,44.6189,52.7109,158.922,102.46,106.185,0.00349642,0.189062,20.7973,10.7138,-0.320177,0.0,0.0
332,82.75,44.0002,52.4824,160.222,102.466,105.551,0.00356892,0.187641,20.7982,10.7238,-0.265939,0.0,0.0
334,83.25,44.2983,52.2964,162.515,102.456,105.969,0.00363926,0.186039,20.7999,10.7138,-0.30224,0.0,0.0
336,83.75,43.915,51.8754,162.595,102.459,105.774,0.00369623,0.184741,20.8013,10.6838,-0.285439,0.0,0.0
338,84.25,44.4732,51.9671,156.891,102.452,106.003,0.00376752,0.183239,20.8023,10.6537,-0.305544,0.0,0.0
340,84.75,44.2546,51.8415,163.911,102.461,105.295,0.0038479,0.182022,20.8037,10.6437,-0.244633,0.0,0.0
342,85.25,44.0182,52.2058,159.356,102.459,105.6,0.00392797,0.180868,20.8047,10.6137,-0.270719,0.0,0.0
344,85.75,44.3645,51.8693,161.631,102.464,105.882,0.0040063,0.179782,20.806,10.5936,-0.294227,0.0,0.0
346,86.25,44.1817,52.1036,158.894,102.454,106.052,0.00408064,0.178902,20.8071,10.5836,-0.309527,0.0,0.0
348,86.75,44.0081,51.6233,159.978,102.459,105.659,0.00415065,0.177754,20.8084,10.5536,-0.275782,0.0,0.0
350,87.25,43.8648,51.9691,160.88,102.444,105.645,0.00421622,0.176825,20.8094,10.5636,-0.275833,0.0,0.0
352,87.75,44.0395,51.6634,163.176,102.469,105.916,0.00427729,0.175713,20.8111,10.5536,-0.296617,0.0,0.0
354,88.25,44.3796,51.7023,159.718,102.447,106.753,0.00432677,0.17449,20.8125,10.5336,-0.369215,0.0,0.0
356,88.75,43.9016,51.6477,168.565,102.443,105.849,0.0044005,0.1735,20.8139,10.5636,-0.293218,0.0,0.0
358,89.25,43.7389,51.6947,162.513,102.449,105.558,0.00446023,0.17209,20.8152,10.5135,-0.268062,0.0,0.0
360,89.75,43.9976,51.3641,170.055,102.445,105.607,0.00456435,0.170949,20.8167,10.4835,-0.272576,0.0,0.0
362,90.25,43.8626,51.4743,160.545,102.446,105.388,0.00464869,0.169317,20.8183,10.4435,-0.25384,0.0,0.0
364,90.75,44.0459,51.1901,165.675,102.442,105.518,0.004717,0.167995,20.8197,10.4334,-0.265295,0.0,0.0
366,91.25,43.2284,51.3058,161.787,102.441,105.873,0.00485285,0.166392,20.8208,10.4234,-0.295426,0.0,0.0
368,91.75,44.2347,51.5704,166.651,102.437,105.816,0.00496288,0.165093,20.8219,10.3333,-0.290951,0.0,0.0
370,92.25,43.6921,50.7389,157.684,102.439,105.925,0.00505201,0.16348,20.823,10.4334,-0.300044,0.0,0.0
372,92.75,44.14,50.9964,164.988,102.443,105.937,0.00515844,0.162173,20.8238,10.3734,-0.300688,0.0,0.0
374,93.25,43.3839,50.7809,165.851,102.446,105.827,0.00527546,0.160669,20.8254,10.3734,-0.291149,0.0,0.0
376,93.75,43.7838,51.0349,165.819,102.439,105.871,0.00538876,0.15905,20.8267,10.3934,-0.295433,0.0,0.0
378,94.25,43.7683,51.243,160.185,102.464,105.977,0.00549719,0.157739,20.8282,10.3533,-0.302282,0.0,0.0
380,94.75,43.7208,50.8003,165.089,102.441,106.076,0.00558502,0.156676,20.8294,10.3634,-0.312656,0.0,0.0
382,95.25,43.2864,50.5654,161.282,102.428,105.597,0.00568485,0.1546,20.8308,10.3433,-0.273214,0.0,0.0
384,95.75,43.2226,50.7465,159.593,102.437,105.398,0.00576571,0.152918,20.8324,10.3333,-0.255532,0.0,0.0
386,96.25,43.3299,50.936,163.536,102.446,105.285,0.00585469,0.151555,20.8341,10.3133,-0.245114,0.0,0.0
388,96.75,43.8904,50.7174,164.178,102.459,105.748,0.00592676,0.149938,20.8359,10.2933,-0.283281,0.0,0.0
390,97.25,43.4095,49.8623,165.531,102.442,106.209,0.00600733,0.148628,20.8376,10.2933,-0.323773,0.0,0.0
392,97.75,42.5245,50.0361,164.697,102.439,105.897,0.00607259,0.147125,20.8392,10.3233,-0.29767,0.0,0.0
394,98.25,42.7897,49.9795,164.375,102.44,105.433,0.00612545,0.145907,20.8405,10.3133,-0.258228,0.0,0.0
396,98.75,43.289,49.7779,164.36,102.443,106.518,0.00620485,0.144437,20.842,10.2933,-0.349801,0.0,0.0
398,99.25,43.375,49.8267,157.749,102.434,105.246,0.00626916,0.143246,20.8432,10.2732,-0.242786,0.0,0.0
400,99.75,43.4253,49.8071,168.648,102.445,105.053,0.0063487,0.141827,20.8444,10.2432,-0.225396,0.0,0.0
402,100.25,43.2147,49.8778,161.065,102.445,105.794,0.00641313,0.140677,20.8455,10.2532,-0.288442,0.0,0.0
404,100.75,42.7757,49.2915,160.762,102.424,105.679,0.00647579,0.139454,20.8467,10.2632,-0.280586,0.0,0.0
406,101.25,42.9543,48.8532,160.641,102.45,106.384,0.00652654,0.138202,20.8479,10.2332,-0.337887,0.0,0.0
408,101.75,42.7155,49.0326,160.833,102.449,105.279,0.00657026,0.137187,20.8493,10.2232,-0.244377,0.0,0.0
410,102.25,42.6039,48.5281,163.234,102.437,105.622,0.00660568,0.135827,20.8508,10.2132,-0.274517,0.0,0.0
412,102.75,42.771,49.3491,162.683,102.417,106.032,0.00666054,0.134725,20.8521,10.1831,-0.310971,0.0,0.0
414,103.25,42.608,48.8473,159.991,102.428,105.991,0.00670498,0.133365,20.8535,10.1831,-0.306582,0.0,0.0
416,103.75,42.4481,48.7625,165.768,102.412,105.763,0.00677207,0.132264,20.8547,10.1631,-0.28867,0.0,0.0
418,104.25,42.7841,48.9721,163.738,102.417,105.167,0.0068544,0.130961,20.8565,10.1731,-0.237569,0.0,0.0
420,104.75,42.3753,48.696,163.521,102.414,105.423,0.00692108,0.129907,20.858,10.1631,-0.259672,0.0,0.0
422,105.25,42.4396,48.641,164.788,102.423,105.117,0.0069751,0.128784,20.8592,10.123,-0.232838,0.0,0.0
424,105.75,42.1715,48.5582,165.202,102.405,105.867,0.00710154,0.127875,20.8603,10.1831,-0.298055,0.0,0.0
426,106.25,42.4743,48.9055,168.139,102.419,105.327,0.00720395,0.126975,20.8612,10.1731,-0.251091,0.0,0.0
428,106.75,42.1097,47.9583,162.98,102.398,105.176,0.00733292,0.1261,20.8619,10.1631,-0.239967,0.0,0.0
430,107.25,42.1322,47.7299,166.803,102.414,105.494,0.00743739,0.125391,20.8625,10.1631,-0.26568,0.0,0.0
432,107.75,41.9044,47.7646,165.112,102.399,105.238,0.0075549,0.124563,20.863,10.1531,-0.24517,0.0,0.0
434,108.25,42.1267,47.0501,167.493,102.413,105.841,0.00765009,0.123892,20.8634,10.083,-0.295201,0.0,0.0
436,108.75,42.4563,47.635,167.438,102.394,106.184,0.00775485,0.123349,20.864,10.103,-0.325934,0.0,0.0
438,109.25,41.7131,47.6823,162.838,102.405,105.528,0.0078397,0.122937,20.8647,10.113,-0.269402,0.0,0.0
440,109.75,41.9043,47.2888,163.292,102.387,105.598,0.0079282,0.122603,20.8654,10.113,-0.276937,0.0,0.0
442,110.25,41.8581,47.2459,164.445,102.394,105.131,0.00799988,0.122236,20.8662,10.113,-0.236569,0.0,0.0
444,110.75,41.9065,47.7338,165.156,102.38,105.824,0.00807245,0.121852,20.8669,10.103,-0.296687,0.0,0.0
446,111.25,41.6847,47.2518,166.687,102.387,105.153,0.00813122,0.12126,20.8674,10.073,-0.239017,0.0,0.0
448,111.75,41.6611,47.8311,166.155,102.37,105.807,0.00817883,0.12078,20.8679,10.063,-0.296078,0.0,0.0
450,112.25,41.6792,47.0322,171.016,102.385,104.831,0.00822004,0.120208,20.8687,10.0329,-0.211649,0.0,0.0
452,112.75,41.4571,46.6895,164.375,102.366,105.914,0.00825341,0.119745,20.8693,10.063,-0.305554,0.0,0.0
454,113.25,41.5681,47.2382,166.712,102.385,105.069,0.0082633,0.119313,20.8698,10.063,-0.232059,0.0,0.0
456,113.75,41.1607,47.421,166.823,102.352,105.11,0.00827132,0.118964,20.8702,10.053,-0.238462,0.0,0.0
458,114.25,40.42,46.1014,160.574,102.369,105.922,0.00826595,0.118606,20.8706,10.053,-0.305876,0.0,0.0
460,114.75,39.9508,45.4987,164.832,102.343,105.139,0.00825093,0.11825,20.8709,10.0429,-0.241634,0.0,0.0
462,115.25,39.7267,45.3941,164.044,102.375,105.599,0.00823877,0.117962,20.8711,10.0429,-0.278092,0.0,0.0
464,115.75,39.8107,45.3427,163.413,102.341,105.952,0.00822892,0.117293,20.8713,10.0429,-0.310926,0.0,0.0
466,116.25,39.702,44.9357,164.505,102.349,105.105,0.00822884,0.11675,20.8716,10.053,-0.23824,0.0,0.0
468,116.75,39.3607,44.5642,164.843,102.325,105.455,0.00822878,0.116118,20.8721,10.0029,-0.270148,0.0,0.0
470,117.25,40.0361,44.7239,162.163,102.347,106.054,0.0082485,0.115433,20.8727,10.0429,-0.319031,0.0,0.0
472,117.75,39.6076,44.7894,163.144,102.347,105.315,0.00826447,0.114878,20.8734,10.0229,-0.25631,0.0,0.0
474,118.25,39.6024,44.7592,161.383,102.324,106.108,0.00828136,0.114429,20.8744,9.99287,-0.325619,0.0,0.0
476,118.75,39.7818,44.9524,168.48,102.319,105.146,0.00829504,0.113265,20.8757,10.0029,-0.244394,0.0,0.0
478,119.25,39.8594,44.9285,164.622,102.321,105.162,0.00830612,0.112322,20.8767,9.98286,-0.245612,0.0,0.0
480,119.75,39.8029,44.8204,167.889,102.315,105.313,0.00829401,0.11125,20.8777,9.99287,-0.258964,0.0,0.0
482,120.25,39.5013,44.7016,166.072,102.329,105.173,0.0082842,0.110102,20.8788,10.0029,-0.245888,0.0,0.0
484,120.75,39.0551,44.8314,166.282,102.308,105.885,0.0082644,0.109033,20.8799,9.99287,-0.308156,0.0,0.0
486,121.25,39.1962,45.0239,166.626,102.331,105.452,0.00824836,0.10804,20.881,9.96284,-0.269413,0.0,0.0
488,121.75,39.2064,44.5107,167.54,102.3,105.406,0.00823329,0.107178,20.8818,9.95282,-0.2682,0.0,0.0
490,122.25,39.1926,44.3839,164.497,102.306,104.786,0.00821921,0.106427,20.883,9.96284,-0.214772,0.0,0.0
492,122.75,38.8331,44.3251,161.675,102.3,105.988,0.00820711,0.105818,20.8839,9.97285,-0.317487,0.0,0.0
494,123.25,38.7835,44.2727,169.396,102.309,105.302,0.00819668,0.105213,20.8847,9.98286,-0.258557,0.0,0.0
496,123.75,38.6648,44.4073,168.544,102.295,104.978,0.00818824,0.104723,20.8853,9.92278,-0.232161,0.0,0.0
498,124.25,39.5361,44.0981,165.1,102.294,105.143,0.0081814,0.10423,20.8862,9.89275,-0.246334,0.0,0.0
500,124.75,39.4178,44.2943,164.623,102.313,105.632,0.0081724,0.103746,20.8869,9.89275,-0.286235,0.0,0.0
502,125.25,39.0543,44.3504,162.572,102.292,104.899,0.00816198,0.103213,20.8876,9.92278,-0.225671,0.0,0.0
504,125.75,39.1593,44.6186,164.62,102.288,105.736,0.00815355,0.102656,20.8881,9.90276,-0.297212,0.0,0.0
506,126.25,38.6365,44.0744,165.016,102.285,105.38,0.00812565,0.10208,20.8885,9.88273,-0.267322,0.0,0.0
508,126.75,39.0123,44.0468,166.111,102.278,105.66,0.00810306,0.101502,20.8888,9.90276,-0.291697,0.0,0.0
510,127.25,39.0957,44.5241,165.417,102.3,105.157,0.00807028,0.10104,20.889,9.90276,-0.247052,0.0,0.0
512,127.75,39.1002,44.1448,164.153,102.284,106.708,0.00804373,0.100673,20.8892,9.90276,-0.379672,0.0,0.0
514,128.25,38.7773,43.7222,169.593,102.279,105.156,0.00801738,0.100375,20.8894,9.90276,-0.248728,0.0,0.0
516,128.75,39.1046,44.1551,157.711,102.279,105.168,0.00799167,0.100288,20.8896,9.87272,-0.249746,0.0,0.0
518,129.25,38.7027,43.7817,160.123,102.282,105.235,0.00795638,0.100217,20.8897,9.88273,-0.25523,0.0,0.0
520,129.75,39.2617,43.9471,167.325,102.276,105.363,0.00794134,0.100145,20.8897,9.84268,-0.266636,0.0,0.0
522,130.25,38.8514,44.153,162.296,102.266,104.964,0.00790661,0.100073,20.8898,9.87272,-0.233463,0.0,0.0
524,130.75,39.5932,43.9114,164.27,102.259,105.448,0.0078704,0.0999565,20.8899,9.86271,-0.275427,0.0,0.0
526,131.25,38.5139,43.8794,161.588,102.253,105.127,0.00783345,0.0998091,20.8899,9.89275,-0.248556,0.0,0.0
528,131.75,38.4713,43.8134,164.844,102.257,105.385,0.00779668,0.0996677,20.8904,9.87272,-0.270191,0.0,0.0
530,132.25,39.2971,44.0286,166.715,102.262,105.218,0.00776689,0.0995333,20.8908,9.85269,-0.255505,0.0,0.0
532,132.75,38.853,44.1383,164.095,102.244,105.186,0.00773309,0.099476,20.8911,9.85269,-0.254342,0.0,0.0
534,133.25,38.8054,44.2992,170.663,102.238,105.579,0.00769699,0.0993501,20.8914,9.86271,-0.28831,0.0,0.0
536,133.75,39.2869,44.4777,160.094,102.246,105.423,0.00766361,0.0992481,20.8916,9.83267,-0.274373,0.0,0.0
538,134.25,39.1098,44.5112,157.36,102.234,105.24,0.00763284,0.0991377,20.8917,9.84268,-0.259829,0.0,0.0
540,134.75,38.3662,43.6236,168.94,102.238,104.803,0.00760792,0.0990482,20.8919,9.83267,-0.222188,0.0,0.0
542,135.25,38.5933,43.871,161.518,102.219,105.594,0.00758641,0.0990315,20.892,9.83267,-0.291326,0.0,0.0
544,135.75,38.6965,44.2131,165.308,102.238,105.668,0.007569,0.099018,20.8921,9.82266,-0.295815,0.0,0.0
546,136.25,38.6286,44.3804,165.79,102.22,105.824,0.0075562,0.098985,20.8921,9.79262,-0.310656,0.0,0.0
548,136.75,38.967,44.3274,169.207,102.228,105.878,0.00754584,0.0989385,20.8922,9.74255,-0.314578,0.0,0.0
550,137.25,38.552,43.9277,164.199,102.223,105.897,0.00752563,0.0989008,20.8922,9.73254,-0.316596,0.0,0.0
552,137.75,39.0769,44.2658,161.044,102.242,105.137,0.00750926,0.0987866,20.8923,9.75257,-0.250398,0.0,0.0
554,138.25,38.771,44.0431,163.585,102.225,105.784,0.007496,0.0986941,20.8923,9.79262,-0.306898,0.0,0.0
556,138.75,39.288,44.229,164.836,102.218,105.386,0.00746593,0.098661,20.8923,9.77259,-0.2737,0.0,0.0
558,139.25,39.063,44.5482,169.564,102.211,105.143,0.00742416,0.0986342,20.8923,9.75257,-0.253609,0.0,0.0
560,139.75,38.8599,44.102,164.19,102.208,105.155,0.00739034,0.0986404,20.8923,9.74255,-0.254929,0.0,0.0
562,140.25,38.8431,44.17,164.932,102.206,105.29,0.00736294,0.0986454,20.8922,9.73254,-0.266542,0.0,0.0
564,140.75,38.8374,44.0364,165.125,102.201,105.06,0.00734074,0.0986494,20.8922,9.73254,-0.247327,0.0,0.0
566,141.25,38.558,43.8058,168.049,102.197,105.071,0.00733727,0.0985279,20.8922,9.68248,-0.24867,0.0,0.0
568,141.75,39.2984,44.2604,165.033,102.2,105.079,0.0073475,0.0983173,20.8922,9.65244,-0.249122,0.0,0.0
570,142.25,39.1961,44.1643,168.286,102.191,105.477,0.00737583,0.0981466,20.8922,9.7025,-0.283824,0.0,0.0
572,142.75,38.3911,44.2825,169.869,102.197,104.994,0.00741681,0.0979109,20.8926,9.77259,-0.242099,0.0,0.0
574,143.25,38.9072,44.3501,167.914,102.193,105.22,0.00745,0.0977199,20.893,9.74255,-0.261745,0.0,0.0
576,143.75,38.9477,44.1405,165.463,102.197,104.873,0.00750448,0.0975799,20.8932,9.76258,-0.2318,0.0,0.0
578,144.25,39.1289,44.3089,162.549,102.191,104.908,0.00754861,0.0974797,20.8935,9.76258,-0.235327,0.0,0.0
580,144.75,39.1279,44.0325,164.488,102.193,104.646,0.0075975,0.0973985,20.8937,9.73254,-0.212663,0.0,0.0
582,145.25,38.2917,44.2027,166.432,102.2,104.77,0.0076371,0.0972631,20.8938,9.72253,-0.222662,0.0,0.0
584,145.75,39.2386,44.7451,161.207,102.197,104.99,0.00766849,0.0971534,20.8939,9.7025,-0.241707,0.0,0.0
586,146.25,38.9788,44.5908,165.023,102.191,105.337,0.00769329,0.096967,20.894,9.72253,-0.271847,0.0,0.0
588,146.75,39.1389,44.46,164.378,102.205,104.861,0.00771338,0.096816,20.8941,9.68248,-0.230034,0.0,0.0
590,147.25,38.5623,44.1436,158.091,102.206,105.144,0.00771519,0.096652,20.8942,9.6224,-0.254138,0.0,0.0
592,147.75,38.7664,44.6099,166.84,102.195,105.361,0.00771666,0.0965191,20.8942,9.6224,-0.273514,0.0,0.0
594,148.25,38.9866,44.8855,167.693,102.181,105.623,0.00770401,0.0963454,20.8943,9.60237,-0.297028,0.0,0.0
596,148.75,39.1239,44.4646,167.855,102.2,105.412,0.00768132,0.0961454,20.8947,9.6224,-0.277493,0.0,0.0
598,149.25,38.8041,44.5744,159.927,102.185,105.027,0.00764222,0.0959834,20.8951,9.65244,-0.245969,0.0,0.0
600,149.75,39.0793,44.5672,164.607,102.222,104.788,0.00759188,0.0958383,20.8954,9.60237,-0.22226,0.0,0.0
602,150.25,38.5417,44.3595,168.506,102.204,105.178,0.0075311,0.0957207,20.8957,9.59236,-0.257201,0.0,0.0
604,150.75,39.283,44.3687,167.541,102.219,105.502,0.00746384,0.0955888,20.8959,9.54229,-0.283471,0.0,0.0
606,151.25,38.7592,43.8902,169.019,102.21,104.917,0.00739764,0.0954491,20.896,9.65244,-0.234434,0.0,0.0
608,151.75,39.2605,43.9341,159.889,102.218,105.141,0.00733346,0.0953358,20.8962,9.6224,-0.252769,0.0,0.0
610,152.25,38.8863,44.6459,161.603,102.201,104.807,0.00727734,0.0951328,20.8963,9.6224,-0.225708,0.0,0.0
612,152.75,38.5974,44.4491,166.013,102.232,105.357,0.00722816,0.0950195,20.8964,9.61238,-0.26993,0.0,0.0
614,153.25,38.45,43.8191,159.413,102.225,106.035,0.00718832,0.094974,20.8964,9.59236,-0.328141,0.0,0.0
616,153.75,39.0176,44.7023,167.325,102.239,105.921,0.0071495,0.0951204,20.8963,9.60237,-0.317184,0.0,0.0
618,154.25,38.6335,44.7855,162.548,102.233,105.596,0.00711806,0.0954038,20.8959,9.57233,-0.290171,0.0,0.0
620,154.75,38.9337,44.7139,161.017,102.251,104.958,0.00707819,0.0958169,20.8956,9.61238,-0.234335,0.0,0.0
622,155.25,38.7489,44.2787,168.34,102.248,104.569,0.00704589,0.0963165,20.8954,9.63241,-0.20129,0.0,0.0
624,155.75,38.9148,44.2982,164.514,102.263,105.605,0.00700727,0.0967212,20.8952,9.64242,-0.288309,0.0,0.0
626,156.25,38.6567,44.2882,163.621,102.263,105.322,0.00696477,0.0972164,20.8946,9.6224,-0.264238,0.0,0.0
628,156.75,39.2433,44.4364,161.177,102.279,105.431,0.00692414,0.0976175,20.8942,9.61238,-0.272204,0.0,0.0
630,157.25,38.6247,44.4453,172.226,102.27,105.297,0.00688566,0.0979057,20.8936,9.56232,-0.261533,0.0,0.0
632,157.75,39.3839,44.5243,164.777,102.275,105.081,0.00685724,0.098106,20.8932,9.60237,-0.242627,0.0,0.0
634,158.25,39.2132,44.4392,166.419,102.291,105.157,0.0068367,0.0982757,20.8928,9.6224,-0.247743,0.0,0.0
636,158.75,39.5452,44.5094,163.659,102.292,105.921,0.00682007,0.0984197,20.8925,9.6224,-0.312595,0.0,0.0
638,159.25,39.357,44.5853,160.45,102.286,105.139,0.00682622,0.0986975,20.8919,9.59236,-0.246633,0.0,0.0
640,159.75,38.7677,44.5863,166.604,102.292,105.043,0.0068312,0.0990676,20.8913,9.59236,-0.237926,0.0,0.0
642,160.25,38.9233,44.3839,162.829,102.313,105.525,0.00683386,0.0996099,20.8909,9.57233,-0.277176,0.0,0.0
644,160.75,38.874,44.4377,167.201,102.304,105.397,0.00683477,0.100267,20.8905,9.55231,-0.267082,0.0,0.0
646,161.25,39.0995,44.4763,164.461,102.304,105.289,0.00683551,0.1008,20.8902,9.53228,-0.257885,0.0,0.0
648,161.75,39.5681,44.4206,163.499,102.323,105.249,0.00681477,0.101749,20.89,9.53228,-0.252867,0.0,0.0
650,162.25,39.7146,44.553,166.098,102.316,105.031,0.00677876,0.102518,20.8896,9.52227,-0.234847,0.0,0.0
652,162.75,39.2699,44.4497,160.608,102.327,105.519,0.00673515,0.103252,20.889,9.53228,-0.275448,0.0,0.0
654,163.25,39.0909,44.8276,161.038,102.329,104.723,0.00668682,0.103847,20.8885,9.56232,-0.207326,0.0,0.0
656,163.75,39.2409,44.8432,163.511,102.318,104.95,0.00663598,0.104329,20.8882,9.55231,-0.227661,0.0,0.0
658,164.25,39.4338,44.653,163.914,102.324,105.47,0.00658429,0.104719,20.8879,9.54229,-0.271511,0.0,0.0
660,164.75,39.5872,44.7954,169.034,102.345,105.725,0.00654242,0.104252,20.8876,9.52227,-0.291332,0.0,0.0
662,165.25,39.3963,44.5609,163.021,102.331,105.328,0.00649284,0.103874,20.8879,9.50224,-0.258776,0.0,0.0
664,165.75,39.4638,44.3738,164.035,102.341,105.411,0.00645268,0.103163,20.8885,9.49223,-0.265004,0.0,0.0
666,166.25,38.8669,44.5172,165.933,102.344,105.486,0.00642276,0.102587,20.889,9.46219,-0.271116,0.0,0.0
668,166.75,39.2372,44.8367,166.962,102.348,105.734,0.00639852,0.101925,20.8894,9.49223,-0.29178,0.0,0.0
670,167.25,39.3749,44.5812,165.594,102.348,105.974,0.00637889,0.101389,20.8897,9.49223,-0.312191,0.0,0.0
672,167.75,39.4141,44.6827,163.634,102.346,106.074,0.00638009,0.100801,20.8901,9.49223,-0.320773,0.0,0.0
674,168.25,39.1543,44.604,158.821,102.349,105.91,0.00638105,0.100325,20.8905,9.48222,-0.306709,0.0,0.0
676,168.75,38.9725,44.2178,165.237,102.351,105.595,0.0063784,0.0996744,20.8907,9.49223,-0.279833,0.0,0.0
678,169.25,38.9865,44.2734,162.706,102.344,105.111,0.00637316,0.0991476,20.8914,9.50224,-0.239205,0.0,0.0
680,169.75,39.4632,44.5487,165.79,102.354,105.304,0.00635242,0.0987208,20.892,9.49223,-0.254837,0.0,0.0
682,170.25,39.4942,44.8635,161.876,102.358,105.473,0.00632079,0.0978746,20.8928,9.48222,-0.268799,0.0,0.0
684,170.75,39.0404,44.9278,164.077,102.372,105.782,0.00629517,0.0971891,20.8936,9.48222,-0.293782,0.0,0.0
686,171.25,39.577,44.8983,166.488,102.373,105.149,0.0062392,0.0963,20.8946,9.49223,-0.239949,0.0,0.0
688,171.75,39.0561,45.0607,167.18,102.386,105.953,0.00619387,0.0955798,20.8954,9.48222,-0.307052,0.0,0.0
690,172.25,39.5432,45.0608,163,102.376,105.031,0.0061324,0.0949965,20.8961,9.4722,-0.229512,0.0,0.0
692,172.75,39.1743,44.487,162.749,102.374,106.098,0.0060826,0.0944684,20.8966,9.48222,-0.320376,0.0,0.0
694,173.25,39.4513,45.0497,165.846,102.391,105.813,0.00603445,0.0940406,20.897,9.46219,-0.294733,0.0,0.0
696,173.75,39.0867,44.5824,167.802,102.375,105.209,0.00601392,0.0938192,20.8972,9.44217,-0.244866,0.0,0.0
698,174.25,39.6925,44.8793,167.322,102.399,105.184,0.00597882,0.0936399,20.8975,9.42214,-0.240565,0.0,0.0
700,174.75,39.7724,45.5298,163.676,102.376,105.848,0.00596993,0.0935086,20.8978,9.43215,-0.299041,0.0,0.0
702,175.25,39.1779,45.0929,164.062,102.387,105.704,0.00596273,0.0934023,20.898,9.40211,-0.285895,0.0,0.0
704,175.75,39.1968,44.8307,166.255,102.376,105.013,0.00597775,0.0932605,20.8982,9.41213,-0.228041,0.0,0.0
706,176.25,40.0232,44.6779,162.693,102.407,105.93,0.00598991,0.0931456,20.8983,9.42214,-0.303275,0.0,0.0
708,176.75,39.4679,45.0574,168.701,102.376,105.54,0.00601,0.0930967,20.8984,9.43215,-0.272988,0.0,0.0
710,177.25,38.865,44.8306,164.05,102.401,105.765,0.00603548,0.0929156,20.8989,9.42214,-0.289874,0.0,0.0
712,177.75,39.5863,44.9863,165.733,102.408,105.634,0.00605406,0.0927689,20.8993,9.42214,-0.278145,0.0,0.0
714,178.25,39.5159,45.0173,160.851,102.404,105.468,0.00606726,0.0926084,20.8995,9.42214,-0.264309,0.0,0.0
716,178.75,38.9406,45.0589,166.091,102.395,105.927,0.00606766,0.0924784,20.8996,9.41213,-0.304039,0.0,0.0
718,179.25,39.237,44.3325,162.989,102.406,105.437,0.00605871,0.0923145,20.8998,9.41213,-0.261556,0.0,0.0
720,179.75,38.8367,44.6998,164.814,102.393,105.261,0.00605146,0.0921291,20.8999,9.3921,-0.247669,0.0,0.0
722,180.25,39.267,44.9526,162.136,102.413,105.107,0.00604299,0.0919566,20.9,9.37208,-0.232834,0.0,0.0
724,180.75,39.1274,43.8542,164.247,102.396,106,0.00603612,0.0917967,20.9,9.36206,-0.310127,0.0,0.0
726,181.25,38.9722,44.5835,156.776,102.403,105.534,0.00605047,0.0916818,20.9001,9.36206,-0.270026,0.0,0.0
728,181.75,38.804,44.3833,170.28,102.397,106.395,0.00608,0.091602,20.9001,9.3921,-0.34339,0.0,0.0
730,182.25,38.88,44.3921,170.468,102.411,105.39,0.00611698,0.0915372,20.9002,9.37208,-0.257139,0.0,0.0
732,182.75,39.079,44.4935,161.718,102.393,105.52,0.00615867,0.0916378,20.9002,9.38209,-0.269724,0.0,0.0
734,183.25,39.5793,44.5841,161.391,102.415,105.665,0.00619313,0.0917192,20.9002,9.37208,-0.280202,0.0,0.0
736,183.75,39.3387,44.6761,164.004,102.401,105.377,0.00622167,0.091851,20.9002,9.37208,-0.25687,0.0,0.0
738,184.25,39.8387,44.35,166.616,102.419,106.322,0.00624478,0.092017,20.9002,9.34204,-0.335341,0.0,0.0
740,184.75,39.0275,44.7754,161.955,102.402,105.732,0.0062635,0.0921515,20.9003,9.37208,-0.286953,0.0,0.0
742,185.25,39.3466,45.0751,158.804,102.413,105.138,0.00625647,0.0921492,20.8998,9.36206,-0.235492,0.0,0.0
744,185.75,39.412,44.8116,165.409,102.414,106.037,0.00623842,0.0921474,20.8995,9.33202,-0.311741,0.0,0.0
746,186.25,39.0911,44.8299,168.325,102.421,105.707,0.00621268,0.0920485,20.8997,9.36206,-0.283178,0.0,0.0
748,186.75,39.5882,44.938,165.603,102.429,105.542,0.00619182,0.0919685,20.8998,9.30198,-0.2685,0.0,0.0
750,187.25,39.63,44.9394,162.294,102.429,105.227,0.0061619,0.0919036,20.8999,9.25192,-0.24167,0.0,0.0
752,187.75,39.6532,45.3117,166.762,102.42,105.252,0.00612592,0.0916426,20.9,9.30198,-0.244565,0.0,0.0
754,188.25,39.306,44.956,164.227,102.41,105.887,0.00609678,0.0914312,20.9,9.312,-0.29933,0.0,0.0
756,188.75,39.8574,44.9562,163.837,102.413,105.711,0.00606027,0.0912322,20.9002,9.34204,-0.284184,0.0,0.0
758,189.25,39.571,44.9536,164.333,102.436,105.028,0.00603069,0.091071,20.9004,9.23189,-0.224031,0.0,0.0
760,189.75,39.7291,44.726,161.177,102.41,106.37,0.0060081,0.0910238,20.9005,9.23189,-0.340193,0.0,0.0
762,190.25,39.2025,44.5927,163.225,102.416,105.339,0.00599104,0.0909856,20.9006,9.24191,-0.252284,0.0,0.0
764,190.75,39.7229,44.8251,159.859,102.411,105.475,0.00598065,0.0909546,20.9007,9.27195,-0.264303,0.0,0.0
766,191.25,39.2438,44.3662,169.031,102.426,105.834,0.00597532,0.0909442,20.9008,9.38209,-0.293527,0.0,0.0
768,191.75,39.1429,44.5854,169.386,102.414,105.616,0.00597032,0.0909358,20.9009,9.312,-0.276051,0.0,0.0
770,192.25,39.3425,44.1609,166.278,102.429,105.097,0.00596565,0.0908704,20.9009,9.29197,-0.230515,0.0,0.0
772,192.75,39.7479,44.4071,167.148,102.421,106.741,0.00595844,0.0907649,20.901,9.27195,-0.370488,0.0,0.0
774,193.25,39.0306,45.0375,161.999,102.428,105.71,0.00594951,0.0905697,20.901,9.24191,-0.282774,0.0,0.0
776,193.75,39.4016,44.6006,163.963,102.429,105.846,0.00593679,0.0903129,20.9011,9.27195,-0.294245,0.0,0.0
778,194.25,39.3004,44.8926,161.226,102.425,105.261,0.00592156,0.0900319,20.9015,9.26193,-0.244958,0.0,0.0
780,194.75,39.1455,44.4066,164.227,102.419,106.321,0.00590921,0.0897384,20.9019,9.15179,-0.335297,0.0,0.0
782,195.25,39.1501,44.7026,163.337,102.427,105.875,0.00588757,0.0894862,20.9022,9.21187,-0.296849,0.0,0.0
784,195.75,39.3109,44.4137,164.467,102.426,106.034,0.00585954,0.0892686,20.9024,9.26193,-0.310456,0.0,0.0
786,196.25,39.3717,44.8282,166.303,102.435,106.226,0.00582589,0.0890413,20.9026,9.32201,-0.325844,0.0,0.0
788,196.75,39.1581,44.8788,165.232,102.419,105.413,0.00578876,0.0888112,20.9028,9.34204,-0.258385,0.0,0.0
790,197.25,38.9115,44.1738,163.121,102.436,106.011,0.00575869,0.0886248,20.9029,9.34204,-0.307679,0.0,0.0
792,197.75,39.4403,44.8339,163.75,102.426,105.61,0.00570181,0.0882934,20.903,9.312,-0.274456,0.0,0.0
794,198.25,39.263,44.5638,168.323,102.441,105.815,0.00565574,0.088025,20.9031,9.24191,-0.290614,0.0,0.0
796,198.75,39.0742,44.3503,164.214,102.431,106.247,0.00558334,0.0876835,20.9032,9.24191,-0.327972,0.0,0.0
798,199.25,39.29,44.195,160.422,102.441,105.446,0.00552469,0.0872952,20.9032,9.23189,-0.259267,0.0,0.0
800,199.75,39.0944,44.7129,163.355,102.421,105.612,0.00545122,0.0869223,20.9033,9.18183,-0.27511,0.0,0.0
802,200.25,39.2469,44.3128,163.159,102.434,105.526,0.00539171,0.0865677,20.9042,9.30198,-0.266611,0.0,0.0
804,200.75,39.0794,44.5463,165.889,102.438,106.658,0.0053394,0.0862805,20.9049,9.27195,-0.362034,0.0,0.0
806,201.25,39.329,44.3469,169.598,102.435,105.923,0.00529335,0.0859232,20.9055,9.24191,-0.300235,0.0,0.0
808,201.75,39.1939,44.3225,164.147,102.429,105.989,0.00525604,0.0856337,20.906,9.32201,-0.306332,0.0,0.0
810,202.25,38.9516,44.4547,168.509,102.444,105.873,0.00523491,0.0852469,20.9064,9.33202,-0.295249,0.0,0.0
812,202.75,38.987,44.7515,162.94,102.44,105.691,0.0052178,0.0849335,20.9067,9.21187,-0.280123,0.0,0.0
814,203.25,39.1592,44.5081,167.193,102.446,105.543,0.00520666,0.0845849,20.907,9.32201,-0.267003,0.0,0.0
816,203.75,39.426,44.1698,164.2,102.448,105.166,0.00520011,0.0842173,20.9076,9.27195,-0.234837,0.0,0.0
818,204.25,39.3561,44.9226,165.763,102.444,105.071,0.00519999,0.0839195,20.9081,9.20186,-0.226977,0.0,0.0
820,204.75,39.2021,44.6713,163.29,102.445,105.618,0.00519989,0.0837337,20.9085,9.18183,-0.27351,0.0,0.0
822,205.25,39.4164,44.8682,163.219,102.46,105.709,0.00520112,0.0835832,20.9089,9.20186,-0.279896,0.0,0.0
824,205.75,39.6556,44.9575,162.926,102.461,105.157,0.0052021,0.0834613,20.9092,9.25192,-0.23291,0.0,0.0
826,206.25,39.1925,44.3733,162.845,102.461,105.724,0.00519252,0.0833625,20.9094,9.23189,-0.281063,0.0,0.0
828,206.75,38.9694,44.5317,161.328,102.452,105.344,0.00518476,0.083268,20.9096,9.24191,-0.249605,0.0,0.0
830,207.25,39.445,45.215,164.117,102.455,105.058,0.00517847,0.0831783,20.9097,9.22188,-0.224952,0.0,0.0
832,207.75,39.2121,44.5177,163.401,102.466,105.414,0.00516449,0.0830765,20.9098,9.17182,-0.254318,0.0,0.0
834,208.25,39.2026,44.755,160.064,102.446,105.197,0.00514518,0.0829678,20.9102,9.21187,-0.237678,0.0,0.0
836,208.75,39.406,44.6004,164.082,102.475,105.495,0.00513695,0.0828141,20.9104,9.23189,-0.260438,0.0,0.0
838,209.25,39.0957,44.7035,167.787,102.455,104.976,0.00512287,0.0826307,20.9106,9.22188,-0.217988,0.0,0.0
840,209.75,39.011,44.8633,163.526,102.457,105.276,0.00510628,0.0824821,20.9108,9.21187,-0.243378,0.0,0.0
842,210.25,39.5624,44.4484,165.957,102.459,105.406,0.00509284,0.0822743,20.911,9.23189,-0.254279,0.0,0.0
844,210.75,39.2005,44.875,155.837,102.46,105.842,0.00509104,0.0820273,20.9112,9.24191,-0.29117,0.0,0.0
846,211.25,39.2469,45.2125,163.963,102.461,105.383,0.00508957,0.0818273,20.9113,9.24191,-0.252194,0.0,0.0
848,211.75,39.5483,44.8792,163.105,102.47,105.457,0.00508907,0.0817056,20.9116,9.24191,-0.257581,0.0,0.0
850,212.25,39.4786,45.1872,168.822,102.456,105.857,0.00508928,0.0814975,20.9121,9.25192,-0.292857,0.0,0.0
852,212.75,39.157,44.5356,164.162,102.468,106.052,0.00508194,0.081329,20.9125,9.22188,-0.308323,0.0,0.0
854,213.25,38.8468,44.2686,163.867,102.45,106.205,0.00506923,0.0809712,20.9128,9.21187,-0.322768,0.0,0.0
856,213.75,39.6794,45.0035,165.078,102.468,105.389,0.0050487,0.0806814,20.913,9.21187,-0.252056,0.0,0.0
858,214.25,39.8913,44.7327,163.227,102.467,106.241,0.00502285,0.0803593,20.9132,9.22188,-0.324246,0.0,0.0
860,214.75,39.0314,45.6669,164.056,102.473,105.837,0.00499168,0.0800198,20.9134,9.23189,-0.289644,0.0,0.0
862,215.25,39.8382,44.9506,161.683,102.458,105.479,0.00495723,0.079723,20.9135,9.21187,-0.260581,0.0,0.0
864,215.75,39.4275,44.9877,162.595,102.48,105.928,0.00492931,0.079463,20.9136,9.19184,-0.296747,0.0,0.0
866,216.25,39.6702,44.8027,166.139,102.459,105.613,0.00489102,0.0792669,20.9137,9.19184,-0.271821,0.0,0.0
868,216.75,39.8595,45.0089,169.26,102.468,105.154,0.0048459,0.0791212,20.9138,9.18183,-0.231975,0.0,0.0
870,217.25,39.7597,45.0807,165.052,102.468,105.537,0.00479912,0.0790905,20.9138,9.17182,-0.264608,0.0,0.0
872,217.75,39.4653,45.1043,163.192,102.469,106.309,0.00475203,0.0791441,20.9139,9.18183,-0.329921,0.0,0.0
874,218.25,39.3444,45.0064,161.005,102.473,105.484,0.00470368,0.0791876,20.9139,9.21187,-0.259701,0.0,0.0
876,218.75,39.8382,44.857,165.658,102.463,105.854,0.00465532,0.0793473,20.9139,9.19184,-0.291888,0.0,0.0
878,219.25,39.5784,44.4629,159.13,102.457,105.205,0.00460729,0.0794766,20.914,9.20186,-0.23727,0.0,0.0
880,219.75,39.6083,44.4542,165.553,102.472,105.504,0.00456043,0.0795523,20.914,9.19184,-0.26149,0.0,0.0
882,220.25,39.6365,45.5571,164.981,102.464,105.413,0.00452247,0.0795874,20.914,9.21187,-0.25442,0.0,0.0
884,220.75,39.5535,45.118,165.447,102.467,105.668,0.0044607,0.0795794,20.914,9.20186,-0.275871,0.0,0.0
886,221.25,39.2821,45.0827,165.699,102.469,105.374,0.00441067,0.0795402,20.914,9.21187,-0.250658,0.0,0.0
888,221.75,40.2644,44.8771,161.206,102.48,105.458,0.00434975,0.0794866,20.914,9.19184,-0.256862,0.0,0.0
890,222.25,39.6498,44.9847,164.804,102.46,105.259,,0.0794235,,9.20186,-0.241616,0.0,0.0
892,222.75,39.6618,45.184,162.554,102.484,105.883,,0.0793725,,9.19184,-0.292598,0.0,0.0
894,223.25,39.2875,44.9913,157.439,102.473,106.386,,0.079179,,9.21187,-0.336,0.0,0.0
896,223.75,39.9855,45.023,162.097,102.476,105.18,,0.0790223,,9.20186,-0.233529,0.0,0.0
898,224.25,39.2047,44.918,165.116,102.467,105.559,,0.0787936,,9.20186,-0.266616,0.0,0.0
900,224.75,39.6896,45.4331,161.577,102.48,105.137,,0.0785167,,9.1618,-0.22953,0.0,0.0
902,225.25,39.5806,45.3531,162.814,102.464,105.233,,,,9.19184,-0.239081,0.0,0.0
904,225.75,39.8213,45.6326,161.076,102.48,107.001,,,,9.19184,-0.387105,0.0,0.0
906,226.25,39.2023,45.1878,164.992,102.469,106.717,,,,9.1618,-0.364252,0.0,0.0
908,226.75,39.7844,45.4057,167.896,102.471,105.202,,,,9.15179,-0.235837,0.0,0.0
910,227.25,39.5158,45.5412,166.171,102.457,106.015,,,,9.15179,-0.306114,0.0,0.0
912,227.75,39.3669,45.3114,161.796,102.472,105.074,,,,9.13177,-0.224902,0.0,0.0
914,228.25,40.2379,45.5894,166.301,102.467,105.29,,,,9.14178,-0.243684,0.0,0.0
916,228.75,39.8913,45.1123,168.044,102.489,106.217,,,,9.13177,-0.32032,0.0,0.0
918,229.25,40.0209,44.8577,166.838,102.472,105.369,,,,9.09171,-0.249974,0.0,0.0
920,229.75,39.5775,45.0959,164.859,102.475,106.163,,,,9.10173,-0.317006,0.0,0.0
922,230.25,39.731,45.5178,164.955,102.469,105.516,,,,9.10173,-0.262726,0.0,0.0
924,230.75,40.0564,45.1132,161.692,102.462,106.126,,,,9.13177,-0.315035,0.0,0.0
926,231.25,39.9583,45.8078,167.712,102.462,105.878,,,,9.11174,-0.29403,0.0,0.0
928,231.75,39.9124,45.5972,162.411,102.477,105.954,,,,9.06168,-0.299174,0.0,0.0
930,232.25,39.732,45.9288,164.876,102.463,105.575,,,,9.10173,-0.268307,0.0,0.0
932,232.75,39.5349,45.5188,163.043,102.472,105.624,,,,9.11174,-0.271646,0.0,0.0
933,233,39.6586,45.4324,165.074,102.471,105.315,,,,9.13177,-0.245485,0.0,0.0