File: 01_Data/Cotton_Raw/Cone/Raw_Cotton_Cone_HF75-Frame+GridScan_200910_R2.csv
Names,Time,Stack TC,Smoke TC,Exh Press,Smoke Comp,Smoke Meas,CO Meter,CO2 Meter,O2 Meter,Sample Mass,Ext Coeff,Start Test,Flame Verif
Chan Gain,,500,500,1,1,1,1,1,1,1,1,1.0,1.0
Offset,,0,0,0.140826,0,0,0,0,0,0,0,0.0,0.0
Gain,,1,1,25.011,13.7435,17.0229,1,1,1,1.00129,1.0222,1.0,1.0
Units,sec,C,C,Pa,%,%,%,%,%,g,/m,,
Baseline,,38.6433,42.6719,167.786,102.345,105.226,0.000436156,0.0514809,20.9493,-898.688,-0.24889,,
2,0.25,38.1508,41.6183,162.729,102.204,104.811,0.00100369,0.0756183,20.937,16.3411,-0.225842,0.0,0.0
4,0.75,38.0025,42.1392,157.15,102.187,105.825,0.00112363,0.100864,20.9169,16.4312,-0.313651,0.0,1.0
6,1.25,37.0986,40.7991,158.482,102.164,106.634,0.00123891,0.121314,20.8946,16.2209,-0.383994,0.0,1.0
8,1.75,36.9186,41.9087,153.023,102.131,105.914,0.00133767,0.142899,20.8712,16.2409,-0.326189,0.0,1.0
10,2.25,37.8462,43.2605,156.852,102.119,105.265,0.00142249,0.164901,20.8498,16.1808,-0.272039,0.0,1.0
12,2.75,38.6562,44.4155,155.764,102.082,106.231,0.00148583,0.182722,20.8301,16.1708,-0.357242,0.0,1.0
14,3.25,38.9879,45.5363,162.241,102.053,105.723,0.00153229,0.198825,20.8142,16.0907,-0.31676,0.0,1.0
16,3.75,40.2426,46.7377,160.379,102.013,105.385,0.00156992,0.213368,20.7996,16.0607,-0.291621,0.0,1.0
18,4.25,40.4926,47.1932,162.585,101.989,105.975,0.00159504,0.225194,20.7877,16.0106,-0.343707,0.0,1.0
20,4.75,41.1575,48.5973,162.876,101.961,105.125,0.00161054,0.234773,20.7781,15.9606,-0.273977,0.0,1.0
22,5.25,41.7264,49.3646,160.817,101.937,105.309,0.00162511,0.242779,20.7686,15.9205,-0.291789,0.0,1.0
24,5.75,42.6048,50.2417,157.83,101.911,104.934,0.00163873,0.249265,20.7609,15.8604,-0.262127,0.0,1.0
26,6.25,41.2981,49.7555,154.667,101.889,106.258,0.00165782,0.254754,20.7542,15.7803,-0.376492,0.0,0.0
28,6.75,41.2534,49.7225,160.901,101.86,104.898,0.00168054,0.259413,20.7488,15.7703,-0.263493,0.0,0.0
30,7.25,41.1761,50.0623,155.37,101.834,104.913,0.00169895,0.263187,20.7439,15.6902,-0.26707,0.0,0.0
32,7.75,42.1691,51.3889,154.885,101.795,104.372,0.00173684,0.266612,20.7396,15.7002,-0.224203,0.0,0.0
34,8.25,42.7852,51.8803,160.467,101.774,105.195,0.00176753,0.269716,20.7352,15.6201,-0.296467,0.0,0.0
36,8.75,43.3105,51.7496,160.127,101.726,105.478,0.00179622,0.27318,20.7307,15.55,-0.324782,0.0,0.0
38,9.25,43.587,52.9668,159.826,101.716,106.324,0.00181947,0.275986,20.7263,15.54,-0.397314,0.0,0.0
40,9.75,43.666,53.091,158.019,101.677,104.231,0.00183701,0.279081,20.7218,15.4699,-0.222442,0.0,0.0
42,10.25,43.7968,54.2365,156.513,101.656,104.869,0.00185123,0.282328,20.7182,15.4199,-0.278961,0.0,0.0
44,10.75,44.1547,53.9577,156.598,101.612,103.597,0.00186274,0.284958,20.7139,15.3298,-0.173489,0.0,0.0
46,11.25,44.4264,54.471,156.105,101.592,104.395,0.00189251,0.288361,20.7105,15.2897,-0.244102,0.0,0.0
48,11.75,44.7409,54.7503,160.135,101.548,103.801,0.00191663,0.291117,20.7075,15.2496,-0.196806,0.0,0.0
50,12.25,44.4557,55.0981,161.183,101.515,103.294,0.00198797,0.293602,20.7037,15.2196,-0.155745,0.0,0.0
52,12.75,45.2234,55.4114,159.578,101.489,103.511,0.002014,0.295614,20.7027,15.0694,-0.176864,0.0,0.0
54,13.25,45.4366,55.9725,157.418,101.468,102.763,0.00210205,0.297211,20.701,15.0594,-0.11368,0.0,0.0
56,13.75,45.793,56.1302,155.096,101.43,103.073,0.00217336,0.298475,20.6994,14.9893,-0.144082,0.0,0.0
58,14.25,45.5088,56.1641,159.111,101.402,103.086,0.00224732,0.299498,20.6978,14.9392,-0.147733,0.0,0.0
60,14.75,45.851,56.9877,156.425,101.359,103.235,0.00232179,0.300044,20.6966,14.9192,-0.164394,0.0,0.0
62,15.25,45.8299,57.4727,161.015,101.327,103.441,0.00238684,0.300732,20.6956,14.8591,-0.185184,0.0,0.0
64,15.75,46.198,57.1946,160.041,101.289,103.898,0.00244378,0.300954,20.6948,14.8391,-0.228021,0.0,0.0
66,16.25,45.9374,57.0278,159.059,101.27,103.62,0.00249058,0.301333,20.6941,14.779,-0.205681,0.0,0.0
68,16.75,46.5242,57.3943,157.694,101.23,103.602,0.00252909,0.301924,20.6936,14.749,-0.207673,0.0,0.0
70,17.25,46.2681,57.6493,160.373,101.197,103.694,0.00256029,0.302403,20.6936,14.6789,-0.218564,0.0,0.0
72,17.75,46.3886,57.8618,162.784,101.164,103.993,0.00258488,0.302711,20.6936,14.6789,-0.247294,0.0,0.0
74,18.25,46.6743,58.0153,154.774,101.146,104.989,0.0026042,0.302961,20.6936,14.6088,-0.334359,0.0,0.0
76,18.75,47.0559,58.5386,151.458,101.11,103.93,0.00261984,0.302802,20.6936,14.5688,-0.246668,0.0,0.0
78,19.25,47.4618,58.4373,153.708,101.079,103.587,0.00264405,0.302673,20.6936,14.4887,-0.219836,0.0,0.0
80,19.75,47.4143,59.1257,163.23,101.061,103.542,0.00266367,0.302303,20.694,14.4486,-0.217477,0.0,0.0
82,20.25,47.807,58.923,163.183,101.031,103.995,0.00269495,0.301766,20.6944,14.3986,-0.259309,0.0,0.0
84,20.75,47.5431,59.0647,163.306,100.995,104.876,0.00272029,0.30133,20.6951,14.3585,-0.338158,0.0,0.0
86,21.25,47.6856,59.3186,154.38,100.97,103.931,0.00275366,0.300565,20.6957,14.2884,-0.25919,0.0,0.0
88,21.75,47.2859,59.0145,153.683,100.946,104.505,0.00278068,0.299574,20.6962,14.2484,-0.310747,0.0,0.0
90,22.25,47.8161,59.9176,156.771,100.92,103.487,0.00280257,0.298589,20.697,14.2083,-0.225221,0.0,0.0
92,22.75,48.1181,59.4009,158.763,100.908,104.006,0.00280361,0.297629,20.6976,14.1582,-0.271118,0.0,0.0
94,23.25,48.1495,59.6149,156.352,100.881,103.686,0.00280446,0.296851,20.6981,14.0982,-0.245872,0.0,0.0
96,23.75,47.9346,59.3631,157.259,100.864,104.491,0.00277692,0.296221,20.6983,14.0481,-0.316774,0.0,0.0
98,24.25,48.4728,59.4951,156.401,100.834,104.091,0.00275462,0.295711,20.6984,14.008,-0.285104,0.0,0.0
100,24.75,48.2669,59.5868,156.44,100.822,104.099,0.00273655,0.295297,20.699,13.958,-0.286776,0.0,0.0
102,25.25,47.7167,59.8336,150.598,100.786,104.401,0.0026745,0.294962,20.6995,13.8579,-0.315951,0.0,0.0
104,25.75,48.3119,59.723,156.472,100.775,104.529,0.00262425,0.294691,20.6999,13.8478,-0.328011,0.0,0.0
106,26.25,48.1602,59.5683,158.833,100.746,105.138,0.00256049,0.293831,20.7002,13.7778,-0.382543,0.0,0.0
108,26.75,48.3719,59.9843,158.636,100.744,104.946,0.00250885,0.293134,20.7004,13.7177,-0.366485,0.0,0.0
110,27.25,48.0427,60.2118,160.359,100.729,104.979,0.00245961,0.29229,20.7011,13.7277,-0.370544,0.0,0.0
112,27.75,48.2554,60.5511,155.566,100.711,104.011,0.00241306,0.291356,20.7016,13.6876,-0.2891,0.0,0.0
114,28.25,48.3444,60.0694,154.212,100.677,104.853,0.00237065,0.290599,20.702,13.6576,-0.36443,0.0,0.0
116,28.75,48.8854,59.8267,158.834,100.673,103.001,0.00233204,0.289752,20.7023,13.6175,-0.205056,0.0,0.0
118,29.25,48.9298,60.2393,161.226,100.669,104.202,0.00230078,0.289067,20.7028,13.6175,-0.309219,0.0,0.0
120,29.75,48.8903,59.922,157.456,100.647,104.833,0.00226906,0.288184,20.7035,13.5174,-0.365349,0.0,0.0
122,30.25,49.0212,60.0769,159.361,100.625,104.53,0.00224336,0.28747,20.704,13.5174,-0.341387,0.0,0.0
124,30.75,49.128,60.1787,160.827,100.611,104.757,0.00221851,0.286801,20.7044,13.4473,-0.362118,0.0,0.0
126,31.25,49.0138,60.4586,160.061,100.593,104.419,0.00219475,0.286178,20.7047,13.4573,-0.33465,0.0,0.0
128,31.75,48.8323,60.243,158.416,100.596,104.592,0.00216729,0.285674,20.7049,13.3973,-0.349276,0.0,0.0
130,32.25,48.6652,61.1596,155.137,100.58,105.442,0.00215049,0.285079,20.7052,13.3272,-0.423257,0.0,0.0
132,32.75,48.8939,60.092,160.661,100.582,104.143,0.00212175,0.284597,20.7058,13.2671,-0.311977,0.0,0.0
134,33.25,48.8257,60.2276,160.728,100.563,104.421,0.00208705,0.2834,20.7067,13.2471,-0.337521,0.0,0.0
136,33.75,49.0662,59.7592,158.365,100.557,104.053,0.00204865,0.282431,20.7079,13.187,-0.306487,0.0,0.0
138,34.25,48.8324,60.4493,157.233,100.552,103.928,0.0020088,0.281279,20.7093,13.157,-0.296095,0.0,0.0
140,34.75,49.0174,60.1396,155.888,100.558,103.887,0.00196867,0.280017,20.7104,13.1069,-0.292037,0.0,0.0
142,35.25,48.8849,60.3472,155.886,100.556,104.842,0.00193488,0.278994,20.7114,13.0268,-0.374217,0.0,0.0
144,35.75,48.8275,60.2399,156.265,100.558,103.816,0.00190751,0.277841,20.7123,13.0168,-0.285893,0.0,0.0
146,36.25,48.7025,60.4488,159.284,100.557,103.549,0.00190578,0.276908,20.7133,12.9667,-0.26283,0.0,0.0
148,36.75,48.7382,60.0658,161.506,100.549,103.769,0.00190437,0.276121,20.7141,12.9066,-0.282632,0.0,0.0
150,37.25,48.8457,60.2316,155.273,100.549,104.326,0.00193774,0.275483,20.7148,12.8666,-0.330632,0.0,0.0
152,37.75,49.0887,60.2697,156.922,100.563,104.438,0.00196476,0.274843,20.7153,12.8265,-0.338993,0.0,0.0
154,38.25,49.2048,59.8472,158.624,100.578,104.051,0.00198666,0.274325,20.7157,12.7965,-0.304438,0.0,0.0
156,38.75,48.7281,60.1483,158.859,100.571,104.15,0.0020293,0.273767,20.7161,12.7564,-0.313576,0.0,0.0
158,39.25,48.7479,60.1271,160.843,100.572,104.11,0.00208627,0.273314,20.7163,12.7364,-0.309937,0.0,0.0
160,39.75,49.2186,60.1998,156.663,100.601,104.758,0.00214993,0.272824,20.7166,12.6863,-0.363142,0.0,0.0
162,40.25,49.3012,60.4529,154.21,100.587,103.9,0.00221728,0.272428,20.7168,12.6463,-0.290534,0.0,0.0
164,40.75,49.0544,60.1914,159.486,100.609,103.696,0.00227183,0.272123,20.7169,12.6263,-0.27099,0.0,0.0
166,41.25,48.9613,60.1449,154.598,100.618,105.592,0.00232626,0.27189,20.717,12.5862,-0.43265,0.0,0.0
168,41.75,49.1882,59.8354,162.043,100.658,104.201,0.00237035,0.271702,20.7171,12.5362,-0.310146,0.0,0.0
170,42.25,49.3571,59.7602,155.394,100.64,104.216,0.00240223,0.271646,20.7172,12.5161,-0.313123,0.0,0.0
172,42.75,49.3237,59.8904,159.966,100.681,104.514,0.0024186,0.271689,20.7173,12.4761,-0.335044,0.0,0.0
174,43.25,48.9819,59.8912,157.262,100.675,104.666,0.00242337,0.271692,20.7173,12.416,-0.348617,0.0,0.0
176,43.75,49.0943,60.3696,160.449,100.697,105.157,0.00242723,0.271664,20.7169,12.396,-0.38867,0.0,0.0
178,44.25,49.5355,59.9137,158.397,100.715,104.258,0.00240859,0.271504,20.7166,12.3659,-0.309982,0.0,0.0
180,44.75,49.1284,60.0926,160.398,100.741,104.611,0.00239349,0.27125,20.7163,12.3459,-0.337998,0.0,0.0
182,45.25,49.3246,60.4114,155.787,100.744,103.678,0.00238126,0.271029,20.7161,12.2558,-0.257397,0.0,0.0
184,45.75,49.6167,59.8161,156.853,100.78,103.907,0.00237135,0.270835,20.716,12.2157,-0.273979,0.0,0.0
186,46.25,49.2572,60.147,158.885,100.784,103.833,0.0023275,0.270766,20.7159,12.2358,-0.26723,0.0,0.0
188,46.75,49.3097,60.1356,157.34,100.816,104.419,0.00229198,0.270792,20.7159,12.1757,-0.314819,0.0,0.0
190,47.25,49.0556,60.1262,158.691,100.83,104.079,0.00224659,0.270812,20.7159,12.1557,-0.284373,0.0,0.0
192,47.75,49.3014,60.1939,157.675,100.863,105.039,0.00220982,0.270782,20.7159,12.1156,-0.363794,0.0,0.0
194,48.25,49.2913,60.0662,157.965,100.871,104.405,0.00217734,0.270758,20.7159,12.0355,-0.308693,0.0,0.0
196,48.75,49.5364,60.1916,153.964,100.905,105.245,0.00214862,0.270739,20.7163,12.0455,-0.377574,0.0,0.0
198,49.25,49.3293,59.7753,163.806,100.924,104.406,0.00212939,0.270723,20.7167,11.9955,-0.304123,0.0,0.0
200,49.75,49.109,59.9307,155.373,100.95,104.47,0.00211744,0.270448,20.717,11.9754,-0.307261,0.0,0.0
202,50.25,49.425,60.3753,154.193,100.96,105.711,0.00210777,0.270226,20.7172,11.9354,-0.41238,0.0,0.0
204,50.75,48.9585,60.1153,157.119,100.983,104.45,0.00211144,0.2699,20.7174,11.8853,-0.302706,0.0,0.0
206,51.25,49.6339,60.1766,158.703,101.004,107.261,0.00211441,0.269504,20.7175,11.8453,-0.53893,0.0,0.0
208,51.75,49.528,60.0494,157.223,101.042,105.218,0.00212066,0.268869,20.7179,11.8352,-0.363129,0.0,0.0
210,52.25,49.7536,60.1953,160.783,101.046,104.775,0.00212572,0.26807,20.7184,11.7652,-0.324907,0.0,0.0
212,52.75,49.705,59.7965,156.698,101.093,105.05,0.00212982,0.267423,20.7188,11.7451,-0.344309,0.0,0.0
214,53.25,49.6161,60.3371,155.718,101.093,105.075,0.00213569,0.265934,20.7196,11.7251,-0.346362,0.0,0.0
216,53.75,49.6315,60.0343,159.087,101.126,104.942,0.00214046,0.264728,20.7206,11.6851,-0.332149,0.0,0.0
218,54.25,49.8529,60.4689,158.888,101.141,104.32,0.0021392,0.26288,20.7219,11.665,-0.277513,0.0,0.0
220,54.75,49.8687,60.361,152.275,101.165,105.509,0.00213818,0.261383,20.7234,11.615,-0.376945,0.0,0.0
222,55.25,49.256,60.0237,164.359,101.186,104.184,0.00213479,0.259458,20.7255,11.5949,-0.261874,0.0,0.0
224,55.75,49.9036,59.91,161.776,101.213,104.404,0.00213205,0.257257,20.728,11.5649,-0.278314,0.0,0.0
226,56.25,50.0163,59.7259,158.349,101.238,104.517,0.0021439,0.255474,20.7307,11.5649,-0.285806,0.0,0.0
228,56.75,49.6376,59.9801,156.047,101.26,104.993,0.0021535,0.252561,20.7336,11.5148,-0.324599,0.0,0.0
230,57.25,49.545,59.4226,161.165,101.288,105.419,0.00221248,0.250201,20.7366,11.4748,-0.358418,0.0,0.0
232,57.75,50.2011,59.2406,158.442,101.295,104.952,0.00226025,0.247083,20.7396,11.4548,-0.318055,0.0,0.0
234,58.25,49.4238,59.5758,155.558,101.327,104.997,0.00236177,0.244558,20.7421,11.4147,-0.319013,0.0,0.0
236,58.75,48.99,59.2378,164.717,101.352,105.156,0.002444,0.241177,20.7454,11.3947,-0.330352,0.0,0.0
238,59.25,48.8982,59.456,156.621,101.362,106.963,0.0025106,0.238437,20.748,11.4047,-0.482301,0.0,0.0
240,59.75,49.5937,59.3042,157.871,101.395,104.981,0.00262272,0.235495,20.7502,11.3747,-0.31159,0.0,0.0
242,60.25,48.7809,59.0703,161.266,101.408,104.633,0.00276588,0.23246,20.7537,11.3546,-0.280744,0.0,0.0
244,60.75,48.6721,58.6184,155.038,101.428,104.506,0.00288183,0.228514,20.7565,11.3246,-0.268058,0.0,0.0
246,61.25,48.8556,58.0649,152.948,101.454,104.995,0.00305434,0.225318,20.7595,11.3046,-0.307634,0.0,0.0
248,61.75,48.9132,58.3626,157.695,101.473,104.998,0.00319407,0.222729,20.7626,11.2545,-0.306232,0.0,0.0
250,62.25,48.6534,58.3683,160.491,101.502,105.007,0.00337048,0.218517,20.7659,11.2445,-0.304437,0.0,0.0
252,62.75,48.6658,57.6638,160.178,101.515,104.919,0.00351338,0.215105,20.7695,11.1944,-0.295744,0.0,0.0
254,63.25,48.717,57.3815,161.624,101.52,105.497,0.00368471,0.212342,20.7735,11.1844,-0.344497,0.0,0.0
256,63.75,48.8852,57.0752,156.867,101.55,105.657,0.00391262,0.207973,20.7778,11.1644,-0.355501,0.0,0.0
258,64.25,48.4353,57.2226,163.64,101.576,104.753,0.00399284,0.204435,20.782,11.1744,-0.276199,0.0,0.0
260,64.75,47.9609,56.9162,160.19,101.581,105.187,0.004158,0.20053,20.786,11.1844,-0.312773,0.0,0.0
262,65.25,48.3601,56.4851,160.063,101.611,104.696,0.00431695,0.197368,20.7901,11.1544,-0.26816,0.0,0.0
264,65.75,47.5279,56.7561,162.92,101.621,104.951,0.0044457,0.194034,20.7934,11.1444,-0.289091,0.0,0.0
266,66.25,48.207,56.0066,157.369,101.654,105.679,0.00459578,0.191333,20.7961,11.1243,-0.348173,0.0,0.0
268,66.75,48.0306,55.9643,160.348,101.668,105.259,0.00475855,0.188332,20.7996,11.0643,-0.311266,0.0,0.0
270,67.25,47.458,55.8496,161.551,101.678,104.833,0.00491916,0.1859,20.8024,11.0743,-0.274016,0.0,0.0
272,67.75,47.3706,55.3227,164.333,101.708,105.712,0.00507514,0.183133,20.8047,11.0442,-0.346258,0.0,0.0
274,68.25,47.6977,55.2417,162.521,101.728,104.998,0.00520148,0.180891,20.8065,11.0442,-0.283771,0.0,0.0
276,68.75,47.5532,55.5886,164.393,101.755,105.247,0.00530381,0.178657,20.808,11.0242,-0.302549,0.0,0.0
278,69.25,47.5321,54.8687,159.858,101.768,106.159,0.00540864,0.17647,20.8096,11.0142,-0.378751,0.0,0.0
280,69.75,47.2587,54.8627,162.827,101.763,105.335,0.0055133,0.174698,20.8111,11.0042,-0.309368,0.0,0.0
282,70.25,47.0238,54.6336,163.776,101.807,104.934,0.0056047,0.172628,20.8124,10.9842,-0.271247,0.0,0.0
284,70.75,46.6762,53.8799,156.974,101.801,105.753,0.00567874,0.170951,20.8144,10.9641,-0.341534,0.0,0.0
286,71.25,47.0705,54.0831,164.246,101.834,105.068,0.00573803,0.169593,20.8161,10.9741,-0.280248,0.0,0.0
288,71.75,46.515,54.4914,159.615,101.834,105.979,0.00578543,0.167959,20.8179,10.9641,-0.357757,0.0,0.0
290,72.25,46.4286,53.6737,164.247,101.863,105.275,0.00582795,0.166636,20.8193,10.9641,-0.295453,0.0,0.0
292,72.75,46.5803,53.3514,159.404,101.879,105.348,0.00586609,0.165375,20.8214,10.9641,-0.300235,0.0,0.0
294,73.25,46.1521,53.4223,163.185,101.91,104.896,0.00589698,0.164184,20.823,10.9241,-0.25896,0.0,0.0
296,73.75,46.3211,53.0771,163.071,101.902,105.299,0.00594054,0.16322,20.8244,10.904,-0.293974,0.0,0.0
298,74.25,46.2934,53.0543,164.122,101.939,106.791,0.0059925,0.161906,20.8263,10.884,-0.416966,0.0,0.0
300,74.75,46.0261,53.1743,161.802,101.94,105.061,0.00605521,0.160842,20.8279,10.864,-0.270369,0.0,0.0
302,75.25,45.6933,52.6185,159.577,101.952,105.259,0.00612455,0.159378,20.8296,10.864,-0.286177,0.0,0.0
304,75.75,45.521,52.6259,164.829,101.951,104.627,0.00620686,0.158191,20.831,10.834,-0.232275,0.0,0.0
306,76.25,45.728,52.5021,166.523,101.986,105.424,0.00629706,0.156643,20.8326,10.844,-0.297332,0.0,0.0
308,76.75,45.2658,51.9329,163.211,101.983,105.401,0.00639078,0.155389,20.8338,10.854,-0.295602,0.0,0.0
310,77.25,45.1254,52.0893,171.614,101.998,104.852,0.00648528,0.154102,20.8353,10.854,-0.24752,0.0,0.0
312,77.75,45.0396,52.0779,161.08,102.001,105.873,0.00656183,0.152815,20.8365,10.834,-0.334092,0.0,0.0
314,78.25,45.445,51.3279,162.55,102.023,106.001,0.00663824,0.151646,20.8374,10.8039,-0.342955,0.0,0.0
316,78.75,45.2061,52.1503,157.402,102.006,106.336,0.00670013,0.150583,20.8382,10.8039,-0.372693,0.0,0.0
318,79.25,45.1504,51.6286,164.087,102.042,105.646,0.00674896,0.149512,20.8393,10.7739,-0.311232,0.0,0.0
320,79.75,44.7255,50.8872,164.008,102.027,105.875,0.0067885,0.148455,20.8406,10.7539,-0.331989,0.0,0.0
322,80.25,44.7788,50.6855,165.442,102.059,105.653,0.00682053,0.147599,20.8416,10.7639,-0.310338,0.0,0.0
324,80.75,44.5721,51.0116,161.612,102.05,105.214,0.00685946,0.146249,20.8427,10.7438,-0.27378,0.0,0.0
326,81.25,44.8504,50.6294,164.788,102.066,106.221,0.00689098,0.145157,20.8438,10.7438,-0.357853,0.0,0.0
328,81.75,44.3716,50.2417,160.723,102.067,106.231,0.00692893,0.143674,20.8447,10.7238,-0.358539,0.0,0.0
330,82.25,44.0194,50.6102,159.613,102.098,104.752,0.00697085,0.142472,20.8461,10.7238,-0.23009,0.0,0.0
332,82.75,44.1965,50.4766,162.64,102.068,105.057,0.00701929,0.141499,20.8472,10.7238,-0.25877,0.0,0.0
334,83.25,43.9691,49.7047,165.955,102.072,105.823,0.00707157,0.140185,20.8484,10.7138,-0.323602,0.0,0.0
336,83.75,44.0174,49.6994,164.551,102.077,105.192,0.00711392,0.13912,20.8495,10.7238,-0.269524,0.0,0.0
338,84.25,43.7346,49.98,163.811,102.082,106.302,0.00717315,0.138048,20.8507,10.7038,-0.363174,0.0,0.0
340,84.75,43.5572,49.5277,165.151,102.074,106.128,0.00722112,0.136992,20.8518,10.6838,-0.349219,0.0,0.0
342,85.25,43.9358,49.9074,161.985,102.1,105.538,0.00727574,0.136136,20.8532,10.6738,-0.296972,0.0,0.0
344,85.75,43.7785,49.1053,166.729,102.084,105.373,0.00731998,0.13489,20.8548,10.6637,-0.284332,0.0,0.0
346,86.25,44.295,48.8349,160.167,102.084,105.139,0.00736238,0.133881,20.8562,10.6537,-0.264336,0.0,0.0
348,86.75,43.9482,49.0978,163.837,102.11,105.789,0.00739672,0.132455,20.8576,10.6537,-0.317388,0.0,0.0
350,87.25,43.4094,48.6667,162.305,102.09,105.322,0.00742454,0.131301,20.8588,10.6337,-0.279446,0.0,0.0
352,87.75,43.9475,49.0618,163.748,102.087,105.02,0.00745757,0.129814,20.8599,10.6237,-0.254,0.0,0.0
354,88.25,43.6005,48.9523,161.663,102.084,106.312,0.00748434,0.12861,20.861,10.6637,-0.363859,0.0,0.0
356,88.75,43.4815,48.9377,162.228,102.072,105.842,0.00751652,0.127405,20.8624,10.6637,-0.325149,0.0,0.0
358,89.25,44.1873,48.6865,161.828,102.088,105.407,0.0075426,0.126221,20.864,10.6637,-0.286918,0.0,0.0
360,89.75,43.4187,48.7087,164.346,102.066,105.46,0.00756897,0.125263,20.8652,10.6437,-0.293377,0.0,0.0
362,90.25,43.5552,48.6131,160.147,102.069,105.105,0.00759033,0.123923,20.8666,10.6237,-0.262782,0.0,0.0
364,90.75,43.097,48.2472,160.108,102.076,105.22,0.00760764,0.122837,20.8678,10.6037,-0.272063,0.0,0.0
366,91.25,43.4576,48.2325,163.581,102.059,105.076,0.00762165,0.121765,20.8687,10.6237,-0.261265,0.0,0.0
368,91.75,43.0863,48.6021,161.4,102.056,105.13,0.007633,0.120724,20.8695,10.6137,-0.266051,0.0,0.0
370,92.25,43.3462,48.1514,163.637,102.061,104.758,0.0076422,0.119754,20.8701,10.5836,-0.233865,0.0,0.0
372,92.75,43.3068,48.3053,161.695,102.044,105.02,0.00764827,0.118856,20.8706,10.5936,-0.257721,0.0,0.0
374,93.25,43.0341,48.4775,163.551,102.041,104.704,0.00765193,0.118128,20.872,10.5736,-0.231016,0.0,0.0
376,93.75,42.8435,48.3112,163.748,102.04,105.183,0.00766598,0.117103,20.8732,10.5736,-0.272044,0.0,0.0
378,94.25,43.1014,48.1583,169.857,102.022,104.932,0.00768731,0.116273,20.8745,10.5836,-0.252221,0.0,0.0
380,94.75,43.2522,48.4079,164.209,102.031,105.329,0.00770459,0.1156,20.8756,10.5736,-0.285261,0.0,0.0
382,95.25,43.1893,48.4612,168.479,102.025,104.948,0.00775668,0.114467,20.8765,10.5536,-0.253249,0.0,0.0
384,95.75,43.377,48.3795,166.423,102.008,105.876,0.00783315,0.113548,20.8777,10.5636,-0.333692,0.0,0.0
386,96.25,43.0727,48.4119,162.967,101.993,104.74,0.00792493,0.11259,20.8786,10.5636,-0.23828,0.0,0.0
388,96.75,43.1461,48.5475,160.946,101.993,104.941,0.00802611,0.111622,20.8798,10.5736,-0.255475,0.0,0.0
390,97.25,43.087,48.0136,171.033,101.988,105.65,0.00810807,0.110837,20.8807,10.5536,-0.316385,0.0,0.0
392,97.75,42.6178,48.5068,162.381,101.973,105.501,0.00821537,0.110077,20.8815,10.5536,-0.305012,0.0,0.0
394,98.25,42.7586,48.5875,164.707,101.956,105.748,0.00830228,0.109348,20.8822,10.5236,-0.327436,0.0,0.0
396,98.75,42.9529,47.6139,168.99,101.944,105.011,0.00840834,0.108758,20.8827,10.4935,-0.265781,0.0,0.0
398,99.25,43.1262,47.7927,164.781,101.949,105.031,0.00849425,0.108181,20.8831,10.5135,-0.267067,0.0,0.0
400,99.75,42.4572,47.9789,162.744,101.946,104.984,0.00859556,0.107715,20.8834,10.4935,-0.263289,0.0,0.0
402,100.25,41.1697,46.102,161.115,101.94,105.32,0.00867763,0.107323,20.8837,10.5035,-0.292504,0.0,0.0
404,100.75,41.1689,45.9621,164.712,101.932,105.241,0.00876221,0.107005,20.8839,10.4835,-0.286435,0.0,0.0
406,101.25,41.2331,46.3588,166.697,101.932,105.145,0.00884701,0.106972,20.8841,10.4635,-0.27825,0.0,0.0
408,101.75,40.9924,45.9079,159.887,101.924,105.263,0.0089157,0.106945,20.8843,10.4835,-0.289046,0.0,0.0
410,102.25,40.7392,45.4909,163.688,101.922,105.095,0.00898988,0.107273,20.8841,10.4735,-0.274919,0.0,0.0
412,102.75,41.1623,45.7426,161.51,101.929,104.935,0.00904996,0.107539,20.8838,10.4735,-0.260548,0.0,0.0
414,103.25,40.3261,46.2322,167.122,101.899,105.158,0.00908609,0.107853,20.8836,10.4535,-0.282273,0.0,0.0
416,103.75,40.7312,45.3877,167.929,101.904,105.98,0.00910406,0.108107,20.8834,10.4835,-0.351717,0.0,0.0
418,104.25,41.0532,46.0369,164.559,101.879,105.047,0.00909843,0.108313,20.8832,10.4635,-0.274597,0.0,0.0
420,104.75,40.8032,46.0955,165.029,101.886,104.899,0.00907569,0.108409,20.8831,10.4234,-0.261293,0.0,0.0
422,105.25,40.8149,45.8723,166.958,101.872,104.765,0.00905728,0.108487,20.883,10.4334,-0.251121,0.0,0.0
424,105.75,40.8016,45.8472,163.443,101.873,105.261,0.00899215,0.108514,20.8829,10.4334,-0.29341,0.0,0.0
426,106.25,40.9916,45.8581,161.745,101.857,106.117,0.00893939,0.108502,20.8829,10.4234,-0.367447,0.0,0.0
428,106.75,40.7956,45.761,168.367,101.846,105.571,0.00885442,0.108485,20.8828,10.4334,-0.322116,0.0,0.0
430,107.25,41.2516,45.9774,163.716,101.853,105.142,0.0087856,0.108465,20.8828,10.4234,-0.28496,0.0,0.0
432,107.75,40.7266,45.4694,162.84,101.835,104.979,0.00869425,0.108448,20.883,10.4134,-0.272626,0.0,0.0
434,108.25,40.7108,45.0903,162.039,101.835,104.867,0.00862025,0.108295,20.8833,10.3934,-0.263081,0.0,0.0
436,108.75,40.6792,45.289,175.596,101.827,104.764,0.00854021,0.108171,20.8836,10.3834,-0.254902,0.0,0.0
438,109.25,40.2309,45.3762,162.439,101.8,104.944,0.00845728,0.107944,20.8839,10.3734,-0.272763,0.0,0.0
440,109.75,39.9834,45.7062,162.234,101.822,104.697,0.0083901,0.10776,20.884,10.3533,-0.249689,0.0,0.0
442,110.25,40.7097,45.4636,165.641,101.793,105.701,0.00831331,0.1075,20.8842,10.3634,-0.337749,0.0,0.0
444,110.75,40.5342,45.2664,161.907,101.798,105.376,0.00825111,0.107288,20.8843,10.3734,-0.309794,0.0,0.0
446,111.25,40.4623,45.2184,164.533,101.778,105.67,0.00818902,0.107088,20.8844,10.3734,-0.336479,0.0,0.0
448,111.75,40.2619,45.2957,163.756,101.786,105.405,0.00813872,0.106899,20.8845,10.3634,-0.313259,0.0,0.0
450,112.25,40.8217,45.2677,164.643,101.772,104.339,0.00810192,0.106746,20.8847,10.3634,-0.22337,0.0,0.0
452,112.75,40.2484,45.5424,162.022,101.779,104.875,0.00807212,0.106762,20.8849,10.3433,-0.268661,0.0,0.0
454,113.25,40.3372,45.2667,167.715,101.759,105.11,0.00806245,0.106775,20.885,10.3533,-0.290496,0.0,0.0
456,113.75,40.3397,44.9051,164.288,101.768,105.194,0.00805462,0.106953,20.8852,10.3433,-0.296851,0.0,0.0
458,114.25,40.2891,45.0763,163.863,101.764,105.248,0.00805868,0.107098,20.8853,10.3433,-0.301862,0.0,0.0
460,114.75,40.0743,45.2889,161.876,101.764,104.793,0.00807132,0.107356,20.8854,10.3533,-0.26297,0.0,0.0
462,115.25,40.5905,44.5929,164.627,101.73,105.085,0.00808155,0.107565,20.885,10.3834,-0.290992,0.0,0.0
464,115.75,40.5138,44.7143,164.073,101.74,105.031,0.00808984,0.107823,20.8847,10.3433,-0.285456,0.0,0.0
466,116.25,40.4317,45.1379,162.858,101.734,104.946,0.0080924,0.108112,20.8845,10.3133,-0.278779,0.0,0.0
468,116.75,40.1477,44.6662,163.466,101.742,105.118,0.00809073,0.108419,20.884,10.3133,-0.292757,0.0,0.0
470,117.25,40.5228,45.3,161.321,101.735,104.643,0.0080776,0.108735,20.8836,10.3033,-0.252746,0.0,0.0
472,117.75,40.6281,45.2977,165.075,101.738,105.216,0.00805636,0.10899,20.8833,10.3133,-0.301409,0.0,0.0
474,118.25,40.0793,44.6412,165.777,101.735,105.418,0.00803016,0.109197,20.883,10.2933,-0.318844,0.0,0.0
476,118.75,40.3552,44.9473,161.086,101.798,104.797,0.00800084,0.109267,20.8828,10.2832,-0.260377,0.0,0.0
478,119.25,40.4637,45.1966,161.958,101.834,105.457,0.00797985,0.109323,20.8826,10.3133,-0.313511,0.0,0.0
480,119.75,39.8714,45.2608,162.034,101.884,104.951,0.00796535,0.109206,20.8825,10.3133,-0.265954,0.0,0.0
482,120.25,41.0978,45.5414,164.479,101.924,105.237,0.00796468,0.108966,20.8824,10.3133,-0.286834,0.0,0.0
484,120.75,40.1303,45.1782,160.442,101.978,104.873,0.00797411,0.108771,20.8832,10.3033,-0.250985,0.0,0.0
486,121.25,40.3612,45.2669,166.379,101.991,105.269,0.00798175,0.108235,20.8838,10.2832,-0.283625,0.0,0.0
488,121.75,40.2061,45.0144,161.089,102.048,105.373,0.00801296,0.107801,20.8846,10.2732,-0.287501,0.0,0.0
490,122.25,40.7106,45.1466,166.617,102.076,105.172,0.00803823,0.107198,20.8854,10.2832,-0.267944,0.0,0.0
492,122.75,39.8492,45.4079,165.572,102.112,105.184,0.00805871,0.106709,20.886,10.2532,-0.265795,0.0,0.0
494,123.25,40.7757,45.4953,163.572,102.147,104.754,0.00808043,0.106159,20.8865,10.2632,-0.226003,0.0,0.0
496,123.75,40.3836,44.7152,169.307,102.193,105.21,0.00809803,0.105714,20.8867,10.2632,-0.260874,0.0,0.0
498,124.25,40.143,45.6753,164.126,102.215,104.771,0.00809911,0.105172,20.887,10.2732,-0.221508,0.0,0.0
500,124.75,40.4165,45.5967,165.297,102.252,105.49,0.00809999,0.104732,20.8872,10.2832,-0.279549,0.0,0.0
502,125.25,39.9711,45.2097,164.555,102.275,104.933,0.00809377,0.104266,20.8873,10.2732,-0.230028,0.0,0.0
504,125.75,40.2934,45.3509,167.234,102.309,105.129,0.0080825,0.103788,20.8874,10.2632,-0.243851,0.0,0.0
506,126.25,40.7446,45.4078,161.403,102.338,105.451,0.00806921,0.103401,20.8878,10.2432,-0.268743,0.0,0.0
508,126.75,40.8327,45.8045,165.992,102.36,105.096,0.00805471,0.102948,20.8882,10.2232,-0.236451,0.0,0.0
510,127.25,40.1742,45.6097,165.922,102.395,105.634,0.00803811,0.102581,20.8886,10.2132,-0.27924,0.0,0.0
512,127.75,40.6017,45.2434,161.968,102.418,105.49,0.0080203,0.102291,20.8889,10.2132,-0.26504,0.0,0.0
514,128.25,40.5582,45.4469,158.868,102.451,105.795,0.00800103,0.102063,20.8892,10.2031,-0.287979,0.0,0.0
516,128.75,40.237,45.586,165.191,102.464,105.563,0.00798106,0.101922,20.8894,10.1931,-0.267174,0.0,0.0
518,129.25,40.4989,45.2137,165.11,102.477,105.68,0.00796489,0.101848,20.8895,10.1931,-0.275967,0.0,0.0
520,129.75,40.4763,45.203,162.598,102.509,105.192,0.00793206,0.101766,20.8897,10.1931,-0.231613,0.0,0.0
522,130.25,40.5333,45.1098,165.923,102.52,106.051,0.00790546,0.101679,20.8898,10.1731,-0.303685,0.0,0.0
524,130.75,40.3289,45.5407,161.15,102.55,105.477,0.00786552,0.101595,20.8899,10.1731,-0.252377,0.0,0.0
526,131.25,40.2503,45.2618,166.648,102.558,105.492,0.00783317,0.101513,20.8899,10.2031,-0.252924,0.0,0.0
528,131.75,39.8281,45.5195,164.531,102.573,106.6,0.00778968,0.101447,20.89,10.2132,-0.345247,0.0,0.0
530,132.25,40.6257,45.5215,161.511,102.584,106.565,0.00773889,0.101546,20.89,10.2031,-0.34141,0.0,0.0
532,132.75,40.1507,45.6993,164.838,102.606,105.851,0.00768187,0.101627,20.8901,10.1931,-0.279205,0.0,0.0
534,133.25,40.6582,45.3308,164.383,102.602,105.926,0.00762138,0.101818,20.8901,10.2031,-0.285869,0.0,0.0
536,133.75,39.6994,44.9289,166.297,102.612,105.98,0.0075565,0.102085,20.8901,10.1931,-0.289562,0.0,0.0
538,134.25,39.9274,45.4844,159.629,102.63,106.665,0.00748966,0.102308,20.8902,10.1931,-0.34581,0.0,0.0
540,134.75,40.2487,45.0286,164.503,102.632,105.944,0.00743552,0.102496,20.8902,10.1931,-0.284799,0.0,0.0
542,135.25,40.1965,45.4179,165.278,102.635,105.697,0.0073576,0.10256,20.8902,10.1731,-0.263553,0.0,0.0
544,135.75,40.4527,45.6239,168.615,102.649,106.548,0.00729448,0.102532,20.8902,10.1931,-0.334243,0.0,0.0
546,136.25,40.4913,45.6135,167.554,102.663,106.114,0.00724335,0.102509,20.8902,10.1731,-0.296497,0.0,0.0
548,136.75,40.2705,45.2137,170.242,102.653,105.662,0.00718491,0.102435,20.8904,10.1531,-0.259068,0.0,0.0
550,137.25,40.7205,45.5712,160.97,102.657,105.625,0.00713758,0.102375,20.8908,10.1731,-0.255644,0.0,0.0
552,137.75,40.4685,45.3276,164.93,102.657,105.439,0.00711233,0.102257,20.8912,10.1631,-0.239806,0.0,0.0
554,138.25,40.5983,45.6012,164.858,102.655,105.965,0.00709188,0.102161,20.8914,10.1631,-0.28455,0.0,0.0
556,138.75,40.0966,45.2085,166.001,102.648,106.379,0.00707531,0.102083,20.8916,10.1831,-0.320133,0.0,0.0
558,139.25,40.7294,45.3764,161.935,102.652,105.998,0.00708604,0.101825,20.8918,10.1331,-0.287612,0.0,0.0
560,139.75,40.6035,45.1292,164.374,102.639,106.151,0.00710205,0.101615,20.8919,10.1831,-0.301702,0.0,0.0
562,140.25,40.3141,44.9866,162.148,102.635,105.387,0.00714116,0.101343,20.8921,10.103,-0.237285,0.0,0.0
564,140.75,39.9636,45.3601,165.604,102.612,105.285,0.00718341,0.10103,20.8922,10.083,-0.230588,0.0,0.0
566,141.25,40.3744,45.5058,162.926,102.622,106.022,0.007219,0.100776,20.8923,10.113,-0.292315,0.0,0.0
568,141.75,40.61,45.2769,165.792,102.59,105.434,0.00724908,0.100571,20.8924,10.103,-0.245228,0.0,0.0
570,142.25,39.9557,44.9047,167.189,102.599,105.639,0.00727344,0.100725,20.8924,10.1331,-0.261892,0.0,0.0
572,142.75,40.3531,45.3927,162.225,102.573,105.923,0.00727088,0.100791,20.8925,10.093,-0.288128,0.0,0.0
574,143.25,40.4736,45.1842,160.429,102.563,105.953,0.0072688,0.100764,20.8925,10.093,-0.291602,0.0,0.0
576,143.75,40.291,45.3738,162.099,102.531,106.237,0.00724297,0.100742,20.8926,10.093,-0.318442,0.0,0.0
578,144.25,40.4073,45.7766,162.015,102.521,105.466,0.00720032,0.100404,20.8926,10.073,-0.253981,0.0,0.0
580,144.75,40.5506,45.5001,163.376,102.504,106.303,0.00716577,0.0999762,20.8926,10.073,-0.326277,0.0,0.0
582,145.25,40.5912,45.5986,169.766,102.485,105.858,0.00709982,0.0996298,20.8927,10.093,-0.290368,0.0,0.0
584,145.75,40.7739,45.6482,163.208,102.453,105.218,0.00704639,0.0993492,20.8929,10.063,-0.23878,0.0,0.0
586,146.25,40.5206,45.7497,163.125,102.437,105.095,0.00699899,0.0991358,20.8933,10.073,-0.229722,0.0,0.0
588,146.75,40.6414,45.7081,160.97,102.407,105.427,0.00695687,0.098963,20.8939,10.053,-0.26057,0.0,0.0
590,147.25,40.6053,45.7627,166.053,102.377,105.887,0.00693378,0.0987717,20.8945,10.053,-0.302268,0.0,0.0
592,147.75,39.9975,45.6124,165.775,102.335,105.817,0.00692499,0.0985705,20.8951,10.0329,-0.300001,0.0,0.0
594,148.25,40.8578,45.7274,160.124,102.311,105.462,0.00693235,0.0984075,20.8955,10.053,-0.272016,0.0,0.0
596,148.75,40.5034,46.303,167.064,102.259,105.366,0.00695134,0.0980525,20.8958,10.053,-0.268408,0.0,0.0
598,149.25,40.8964,45.8327,163.076,102.232,105.394,0.00697637,0.0977649,20.8961,10.063,-0.273141,0.0,0.0
600,149.75,40.7311,45.7617,165.951,102.191,104.949,0.00700534,0.0974734,20.8963,10.0429,-0.238798,0.0,0.0
602,150.25,40.9054,45.9991,164.26,102.165,105.189,0.0070288,0.0971844,20.8965,10.0329,-0.261518,0.0,0.0
604,150.75,40.6357,45.9104,161.17,102.098,105.653,0.00705471,0.0969503,20.8967,10.053,-0.306875,0.0,0.0
606,151.25,40.9403,46.0934,163.933,102.072,105.932,0.0070819,0.0967607,20.8968,10.063,-0.332884,0.0,0.0
608,151.75,40.7166,46.1424,163.423,102.022,104.934,0.00710461,0.0965046,20.8973,10.0229,-0.252391,0.0,0.0
610,152.25,40.8062,46.2524,167.077,102.043,104.946,0.00712363,0.0962047,20.898,10.0229,-0.251539,0.0,0.0
612,152.75,40.5216,46.275,163.631,102.035,104.652,0.00713904,0.0959618,20.8987,10.0229,-0.227119,0.0,0.0
614,153.25,40.7377,46.6936,161.372,102.059,104.838,0.00713591,0.0953893,20.8993,10.0229,-0.240894,0.0,0.0
616,153.75,41.17,46.5447,168.289,102.052,104.825,0.00713338,0.0949256,20.8998,10.0229,-0.240418,0.0,0.0
618,154.25,40.9361,46.692,169.183,102.076,105.313,0.00710774,0.0943414,20.9002,10.0029,-0.279939,0.0,0.0
620,154.75,41.0015,45.9969,169.876,102.08,104.983,0.00708698,0.0938682,20.9007,10.0029,-0.251484,0.0,0.0
622,155.25,40.9957,46.2301,163.784,102.11,104.75,0.00704397,0.0934411,20.9011,9.98286,-0.228888,0.0,0.0
624,155.75,40.7744,46.1258,160.509,102.118,104.767,0.00700913,0.0930555,20.9016,10.0029,-0.229574,0.0,0.0
626,156.25,40.3425,46.2409,164.952,102.136,104.944,0.00696852,0.0926778,20.9023,9.99287,-0.243213,0.0,0.0
628,156.75,40.6401,46.1555,163.285,102.139,105.466,0.00692446,0.092313,20.9028,9.99287,-0.287454,0.0,0.0
630,157.25,41.2855,46.06,164.523,102.179,104.949,0.00688878,0.0919225,20.9032,9.98286,-0.239865,0.0,0.0
632,157.75,40.4654,45.4838,158.521,102.192,105.228,0.00684817,0.0915206,20.9036,9.97285,-0.26249,0.0,0.0
634,158.25,40.5625,45.9668,163.84,102.217,104.604,0.00680475,0.091195,20.9039,9.99287,-0.206915,0.0,0.0
636,158.75,41.0049,46.2201,161.236,102.232,105.212,0.00675307,0.0907092,20.9045,9.99287,-0.25763,0.0,0.0
638,159.25,40.8651,45.8759,162.501,102.262,104.997,0.00669635,0.0903156,20.9051,9.98286,-0.236663,0.0,0.0
640,159.75,40.9084,45.7852,157.46,102.27,104.952,0.00663117,0.0899968,20.9055,9.96284,-0.232147,0.0,0.0
642,160.25,40.3851,45.9994,166.998,102.3,104.988,0.00656105,0.0895027,20.9058,9.96284,-0.232555,0.0,0.0
644,160.75,40.4222,45.6086,167.565,102.313,104.762,0.00648571,0.0891024,20.9066,9.96284,-0.212139,0.0,0.0
646,161.25,40.3304,45.792,165.091,102.348,105.62,0.006408,0.0886395,20.9072,9.98286,-0.282163,0.0,0.0
648,161.75,40.4827,45.6122,161.938,102.357,105.052,0.00634506,0.0881396,20.9076,9.97285,-0.233057,0.0,0.0
650,162.25,41.0855,45.8754,166.792,102.385,105.772,0.00627007,0.0876326,20.908,9.96284,-0.291887,0.0,0.0
652,162.75,40.326,45.3345,158.871,102.403,104.983,0.00618772,0.08713,20.9083,9.96284,-0.223124,0.0,0.0
654,163.25,40.6885,45.9554,161.863,102.428,105.303,0.00612102,0.0866281,20.9086,9.95282,-0.248212,0.0,0.0
656,163.75,40.4191,45.8596,166.03,102.447,104.95,0.00605385,0.0861362,20.9089,9.95282,-0.216466,0.0,0.0
658,164.25,40.6352,46.1534,163.605,102.49,105.045,0.00599944,0.0856576,20.9091,9.95282,-0.220804,0.0,0.0
660,164.75,40.0814,45.6423,167.577,102.501,105.322,0.00595537,0.0851977,20.9093,9.94281,-0.243491,0.0,0.0
662,165.25,40.4044,45.6399,163.182,102.528,105.75,0.00591316,0.0848252,20.9094,9.95282,-0.277396,0.0,0.0
664,165.75,40.6766,45.5708,164.208,102.533,105.843,0.00587897,0.0845526,20.9098,9.94281,-0.284881,0.0,0.0
666,166.25,40.3421,45.328,160.879,102.556,105.401,0.00583895,0.0843581,20.9102,9.94281,-0.245333,0.0,0.0
668,166.75,40.5421,45.5126,172.339,102.577,106.392,0.00579544,0.0842005,20.9106,9.9328,-0.327384,0.0,0.0
670,167.25,40.4772,45.7598,159.971,102.601,106.501,0.00574992,0.0840433,20.9112,9.92278,-0.334522,0.0,0.0
672,167.75,40.6013,45.2462,165.444,102.616,105.73,0.00570382,0.0838894,20.9117,9.92278,-0.268067,0.0,0.0
674,168.25,40.0986,45.4559,167.068,102.63,105.44,0.00565689,0.0837647,20.9121,9.9328,-0.242194,0.0,0.0
676,168.75,40.3748,45.6329,162.308,102.657,106.437,0.00561025,0.0835529,20.9124,9.92278,-0.324236,0.0,0.0
678,169.25,40.296,45.5455,162.193,102.668,105.953,0.00556564,0.0833814,20.9127,9.91277,-0.282359,0.0,0.0
680,169.75,40.2011,45.2889,163.824,102.683,106.498,0.00552335,0.0830901,20.9131,9.92278,-0.327041,0.0,0.0
682,170.25,39.9594,44.8952,166.036,102.698,106.074,0.00548089,0.0828542,20.9137,9.90276,-0.290004,0.0,0.0
684,170.75,40.3328,45.368,166.9,102.714,105.684,0.00543911,0.0826267,20.9142,9.90276,-0.255528,0.0,0.0
686,171.25,40.4321,45.6081,166.069,102.735,105.599,0.00540527,0.0824097,20.9145,9.89275,-0.24651,0.0,0.0
688,171.75,40.4606,45.3245,170.917,102.753,105.196,0.00536556,0.0820955,20.9148,9.92278,-0.210714,0.0,0.0
690,172.25,40.2652,46.207,163.144,102.764,105.65,0.00532232,0.081841,20.9151,9.91277,-0.248351,0.0,0.0
692,172.75,40.7359,45.6447,159.93,102.763,105.514,0.00527979,0.0815242,20.9153,9.9328,-0.236939,0.0,0.0
694,173.25,40.8965,45.6145,161.658,102.773,105.771,0.00523857,0.0812676,20.9154,9.9328,-0.257842,0.0,0.0
696,173.75,40.3626,45.658,162.853,102.798,105.643,0.00519699,0.0810597,20.9156,9.9328,-0.244725,0.0,0.0
698,174.25,40.2393,45.2469,164.667,102.793,106.297,0.00515594,0.0809744,20.9157,9.92278,-0.300552,0.0,0.0
700,174.75,40.5073,45.9073,162.147,102.81,106.262,0.00511722,0.0809052,20.9157,9.89275,-0.296115,0.0,0.0
702,175.25,40.4986,45.3623,163.725,102.808,105.631,0.00508095,0.0808631,20.9158,9.86271,-0.242877,0.0,0.0
704,175.75,40.0699,45.8212,166.483,102.822,105.758,0.00504748,0.0808289,20.9161,9.85269,-0.252461,0.0,0.0
706,176.25,40.0789,45.6325,166.491,102.82,106.015,0.00501668,0.0806629,20.9165,9.88273,-0.274376,0.0,0.0
708,176.75,40.5286,45.3744,169.06,102.821,106.111,0.00500354,0.0805285,20.9167,9.85269,-0.282428,0.0,0.0
710,177.25,40.4579,45.1924,167.916,102.834,106.617,0.00497072,0.0803249,20.917,9.85269,-0.323913,0.0,0.0
712,177.75,40.3118,45.4632,166.702,102.824,105.231,0.00494413,0.080075,20.9173,9.87272,-0.207423,0.0,0.0
714,178.25,40.2157,45.3318,167.048,102.821,105.755,0.0049226,0.0798361,20.9175,9.83267,-0.252313,0.0,0.0
716,178.75,39.9348,45.6185,168.024,102.821,105.801,0.00490696,0.0796098,20.9177,9.83267,-0.256152,0.0,0.0
718,179.25,40.2918,45.5251,160.131,102.82,106.475,0.00490276,0.0794121,20.9178,9.86271,-0.313221,0.0,0.0
720,179.75,39.9877,45.2847,164.473,102.815,105.739,0.00491242,0.0793208,20.9179,9.83267,-0.251416,0.0,0.0
722,180.25,40.4211,44.9612,165.955,102.806,106.005,0.00492025,0.0791649,20.918,9.82266,-0.274791,0.0,0.0
724,180.75,40.0711,45.0837,166.329,102.81,106.274,0.00494475,0.079024,20.9183,9.84268,-0.297197,0.0,0.0
726,181.25,40.2604,45.3394,158.491,102.79,105.959,0.00496459,0.0788968,20.9188,9.84268,-0.272233,0.0,0.0
728,181.75,40.5877,45.2759,159.572,102.794,105.685,0.00499624,0.0787937,20.9191,9.83267,-0.248707,0.0,0.0
730,182.25,40.2391,45.7343,164.894,102.772,106.01,0.00502188,0.0785997,20.9194,9.82266,-0.278195,0.0,0.0
732,182.75,40.765,45.9249,159.816,102.787,106.55,0.00505173,0.0784426,20.9199,9.81264,-0.322372,0.0,0.0
734,183.25,40.5355,45.4483,163.532,102.748,105.791,0.00507591,0.0781633,20.9205,9.80263,-0.261719,0.0,0.0
736,183.75,40.39,45.794,166.102,102.743,106.306,0.0050929,0.0779371,20.921,9.81264,-0.305723,0.0,0.0
738,184.25,40.3454,45.8966,161.311,102.728,106.084,0.00510666,0.077602,20.9213,9.81264,-0.288239,0.0,0.0
740,184.75,40.2584,46.1235,162.62,102.723,105.378,0.0051178,0.0773305,20.9217,9.80263,-0.228797,0.0,0.0
742,185.25,40.688,46.6044,160.14,102.682,105.821,0.00511386,0.0769588,20.9219,9.81264,-0.270021,0.0,0.0
744,185.75,40.7889,46.0143,165.533,102.679,105.537,0.00509898,0.0766577,20.9221,9.79262,-0.246158,0.0,0.0
746,186.25,40.796,46.6569,161.049,102.653,105.83,0.00508692,0.0762895,20.9223,9.81264,-0.273333,0.0,0.0
748,186.75,40.7124,46.1609,157.948,102.632,106.179,0.0050266,0.0759914,20.9224,9.81264,-0.304695,0.0,0.0
750,187.25,40.5256,46.7379,170.772,102.602,106.407,0.00497773,0.0757499,20.9227,9.82266,-0.326498,0.0,0.0
752,187.75,40.826,46.3198,161.144,102.569,106.113,0.0049034,0.0753749,20.9229,9.84268,-0.304583,0.0,0.0
754,188.25,41.0241,46.2558,167.925,102.549,106.061,0.00481191,0.0750711,20.9235,9.85269,-0.301988,0.0,0.0
756,188.75,40.6519,45.7621,166.045,102.532,105.308,0.00470992,0.0748251,20.924,9.87272,-0.239545,0.0,0.0
758,189.25,40.5775,46.6459,167.145,102.5,106.255,0.0046022,0.0745387,20.9244,9.85269,-0.322611,0.0,0.0
760,189.75,40.9026,46.1379,164.86,102.475,106.394,0.00448981,0.0742284,20.9247,9.85269,-0.336554,0.0,0.0
762,190.25,40.9446,46.2272,164.846,102.433,105.217,0.00437614,0.073977,20.925,9.85269,-0.240454,0.0,0.0
764,190.75,40.4584,46.5079,163.496,102.415,105.351,0.00426032,0.0736906,20.9252,9.81264,-0.253375,0.0,0.0
766,191.25,40.5951,46.3484,169.468,102.369,105.794,0.00414513,0.0734151,20.9254,9.7826,-0.295132,0.0,0.0
768,191.75,40.8481,46.1249,161.454,102.35,105.588,0.00405183,0.0731528,20.9255,9.82266,-0.279252,0.0,0.0
770,192.25,40.6179,45.578,163.324,102.313,105.594,0.00394711,0.0729186,20.9256,9.83267,-0.283045,0.0,0.0
772,192.75,40.9781,46.1611,165.302,102.29,105.77,0.00383606,0.0727092,20.9257,9.85269,-0.300053,0.0,0.0
774,193.25,40.6891,45.5346,165.911,102.242,104.855,0.00373663,0.0725324,20.9258,9.84268,-0.226264,0.0,0.0
776,193.75,40.9328,45.9749,162.292,102.219,105.221,0.00364756,0.0723827,20.9263,9.82266,-0.259597,0.0,0.0
778,194.25,41.1566,46.0299,168.77,102.161,105.23,0.00357542,0.0722614,20.9267,9.79262,-0.265383,0.0,0.0
780,194.75,40.6576,45.8837,162.474,102.128,105.065,0.0035247,0.0721632,20.927,9.79262,-0.254256,0.0,0.0
782,195.25,40.6296,46.1274,157.772,102.096,105.207,0.00348361,0.0720836,20.9273,9.7826,-0.26915,0.0,0.0
784,195.75,40.9145,46.2683,165.025,102.061,104.696,0.00346449,0.0720409,20.9275,9.79262,-0.228527,0.0,0.0
786,196.25,40.6308,46.0367,163.737,102.013,105.549,0.003449,0.0720259,20.9277,9.79262,-0.30549,0.0,0.0
788,196.75,40.9794,45.9187,162.155,101.995,105.489,0.00345189,0.071992,20.9278,9.79262,-0.302079,0.0,0.0
790,197.25,40.7394,46.1787,165.351,101.94,105.117,0.00345424,0.0719449,20.9279,9.80263,-0.275194,0.0,0.0
792,197.75,40.5005,45.7284,169.024,101.925,105.425,0.00346258,0.0719068,20.928,9.80263,-0.302769,0.0,0.0
794,198.25,41.0849,46.168,166.338,101.866,104.606,0.00346933,0.0717933,20.9281,9.80263,-0.237985,0.0,0.0
796,198.75,40.4797,45.721,162.748,101.826,104.828,0.00347481,0.0717013,20.9282,9.81264,-0.26048,0.0,0.0
798,199.25,40.3704,45.5397,165.456,101.791,105.031,0.00347151,0.0715717,20.9282,9.79262,-0.280904,0.0,0.0
800,199.75,40.4916,45.5384,166.318,101.771,105.449,0.00346884,0.0714667,20.9283,9.79262,-0.318346,0.0,0.0
802,200.25,40.7993,45.7437,162.856,101.717,104.791,0.00346397,0.0713954,20.9283,9.77259,-0.267014,0.0,0.0
804,200.75,40.5666,46.1909,162.487,101.653,104.663,0.00345759,0.0713377,20.9283,9.79262,-0.261612,0.0,0.0
806,201.25,40.954,45.449,166.947,101.618,105.298,0.00344565,0.0712909,20.9283,9.77259,-0.318905,0.0,0.0
808,201.75,40.5525,45.5989,160.757,101.595,104.551,0.00342987,0.0715011,20.9284,9.79262,-0.257174,0.0,0.0
810,202.25,40.6223,45.7933,164.033,101.543,105.78,0.00340423,0.0716714,20.9284,9.79262,-0.366491,0.0,0.0
812,202.75,40.7941,45.6375,162.015,101.489,104.937,0.00337189,0.0719835,20.9279,9.7826,-0.299558,0.0,0.0
814,203.25,40.8759,45.9969,162.686,101.449,104.326,0.00334569,0.0723931,20.9276,9.77259,-0.250724,0.0,0.0
816,203.75,40.3953,45.6699,162.676,101.418,104.428,0.00326776,0.072783,20.9272,9.7826,-0.262252,0.0,0.0
818,204.25,41.1347,45.9723,159.657,101.382,104.656,0.00324679,0.0731511,20.9271,9.7826,-0.285039,0.0,0.0
820,204.75,40.9364,46.1239,164.421,101.335,105.059,0.00318012,0.0734492,20.9269,9.77259,-0.323623,0.0,0.0
822,205.25,40.7205,46.2163,161.536,101.311,104.805,0.00312611,0.0736493,20.9268,9.77259,-0.303957,0.0,0.0
824,205.75,40.9192,45.7815,166.069,101.264,103.753,0.00308237,0.0738114,20.9266,9.76258,-0.217695,0.0,0.0
826,206.25,40.4165,46.1783,162.105,101.235,104.596,0.00300973,0.0738047,20.9268,9.74255,-0.292912,0.0,0.0
828,206.75,40.7844,46.1539,161.57,101.194,104.045,0.00295088,0.0737389,20.9271,9.76258,-0.249103,0.0,0.0
830,207.25,40.6522,46.0832,163.823,101.147,103.58,0.00288655,0.0736846,20.9273,9.74255,-0.213107,0.0,0.0
832,207.75,40.516,46.3797,164.865,101.127,103.888,0.00283445,0.0735917,20.9275,9.75257,-0.241512,0.0,0.0
834,208.25,40.3963,46.4702,159.427,101.09,103.789,,0.0735164,,9.75257,-0.236217,0.0,0.0
836,208.75,40.6946,45.9992,163.546,101.072,104.365,,0.0732348,,9.75257,-0.28749,0.0,0.0
838,209.25,40.9327,46.0253,170.157,101.035,103.615,,0.0730068,,9.71251,-0.226052,0.0,0.0
840,209.75,40.5171,46.3809,169.269,101.015,104.515,,0.0727858,,9.72253,-0.305486,0.0,0.0
842,210.25,40.8403,46.4085,161.109,100.975,104.375,,0.0725741,,9.72253,-0.296945,0.0,0.0
844,210.75,41.0276,45.4869,161.922,100.955,103.662,,0.0724462,,9.73254,-0.237255,0.0,0.0
846,211.25,40.5754,45.6087,165.727,100.928,103.846,,,,9.74255,-0.255606,0.0,0.0
848,211.75,40.7216,45.4601,161.695,100.902,103.915,,,,9.73254,-0.263836,0.0,0.0
850,212.25,40.3175,46.4482,166.249,100.887,103.7,,,,9.72253,-0.246563,0.0,0.0
852,212.75,40.5611,45.9318,171.03,100.869,104.104,,,,9.72253,-0.283091,0.0,0.0
854,213.25,40.2221,46.1052,167.218,100.86,104.442,,,,9.71251,-0.312911,0.0,0.0
856,213.75,40.7284,45.5991,162.997,100.83,104.006,,,,9.72253,-0.27809,0.0,0.0
858,214.25,40.7261,45.6236,161.547,100.818,104.163,,,,9.71251,-0.292695,0.0,0.0
860,214.75,40.1911,45.975,164.676,100.809,103.925,,,,9.74255,-0.272892,0.0,0.0
862,215.25,40.2378,46.1181,166.13,100.811,103.704,,,,9.71251,-0.25371,0.0,0.0
864,215.75,40.6656,45.862,165.878,100.77,104.578,,,,9.73254,-0.332527,0.0,0.0
866,216.25,40.359,45.9103,164.871,100.794,103.997,,,,9.71251,-0.280463,0.0,0.0
868,216.75,40.5864,45.6435,164.095,100.77,105.007,,,,9.69249,-0.369288,0.0,0.0
870,217.25,40.8468,46.1553,169.983,100.782,103.733,,,,9.72253,-0.258799,0.0,0.0
872,217.75,40.6105,45.7016,163.058,100.772,103.859,,,,9.71251,-0.270481,0.0,0.0
874,218.25,40.9946,45.8478,169.418,100.776,104.193,,,,9.71251,-0.298938,0.0,0.0
876,218.75,40.9776,45.9974,168.501,100.771,104.725,,,,9.71251,-0.345086,0.0,0.0