File: 01_Data/Pallet_Wood/STA/N2/10K_min/Pallet_Wood_STA_N2_10KData_220413_R3.csv
##Temp./Â°C,Time/min,Mass loss(subtr.2)/mg,DSC(subtr.2)/(mW/mg),Sensit./(uV/mW)
49.745,10.01,-0.02227,0.02587037,1.06051
50.445,10.77367,-0.01978656,0.05497546,1.06036
51.145,10.97665,-0.02317934,0.08125645,1.06022
51.845,11.12895,-0.02183787,0.10091,1.06007
52.545,11.25727,-0.02352352,0.11639,1.05993
53.245,11.37188,-0.02097525,0.13157,1.05978
53.945,11.47822,-0.02021271,0.1449,1.05963
54.645,11.5776,-0.02011223,0.15556,1.05948
55.345,11.67164,-0.02195011,0.16437,1.05933
56.045,11.76224,-0.02226855,0.17282,1.05918
56.745,11.85036,-0.0221186,0.18032,1.05903
57.445,11.93609,-0.02288428,0.18626,1.05888
58.145,12.02027,-0.02281056,0.19545,1.05872
58.845,12.10347,-0.02159397,0.20212,1.05857
59.545,12.185,-0.02191561,0.2066,1.05841
60.245,12.26578,-0.02278728,0.21229,1.05825
60.945,12.34505,-0.02300531,0.21642,1.0581
61.645,12.4234,-0.02278099,0.21984,1.05794
62.345,12.50152,-0.02420424,0.22296,1.05778
63.045,12.57921,-0.02420087,0.22925,1.05762
63.745,12.65645,-0.0256481,0.2319,1.05746
64.445,12.73329,-0.0245129,0.23522,1.0573
65.145,12.8099,-0.02555164,0.23856,1.05713
65.845,12.8863,-0.02555692,0.24166,1.05697
66.545,12.96203,-0.02475621,0.2447,1.0568
67.245,13.03768,-0.02560285,0.2473,1.05664
67.945,13.11335,-0.02569639,0.24999,1.05647
68.645,13.18864,-0.02680157,0.25456,1.0563
69.345,13.26346,-0.02678747,0.25645,1.05614
70.045,13.338,-0.02675985,0.25999,1.05597
70.745,13.41269,-0.0280799,0.26353,1.0558
71.445,13.4872,-0.02736227,0.26557,1.05563
72.145,13.56146,-0.02806989,0.2681,1.05545
72.845,13.635,-0.02678391,0.26947,1.05528
73.545,13.70865,-0.0267497,0.27261,1.05511
74.245,13.78225,-0.02716222,0.27231,1.05493
74.945,13.8561,-0.02841954,0.277,1.05476
75.645,13.92936,-0.02941428,0.27701,1.05458
76.345,14.00262,-0.02823637,0.27958,1.0544
77.045,14.07565,-0.02943294,0.2799,1.05422
77.745,14.14877,-0.02852142,0.28235,1.05404
78.445,14.2214,-0.02939017,0.28399,1.05386
79.145,14.29408,-0.02934816,0.28608,1.05368
79.845,14.36648,-0.03171951,0.28777,1.0535
80.545,14.43885,-0.03333614,0.28719,1.05332
81.245,14.51094,-0.0326809,0.28749,1.05314
81.945,14.58295,-0.03273858,0.28981,1.05295
82.645,14.6547,-0.03331462,0.29008,1.05277
83.345,14.7261,-0.03334,0.29158,1.05258
84.045,14.79747,-0.03334169,0.29291,1.05239
84.745,14.86851,-0.03465949,0.29285,1.0522
85.445,14.9397,-0.03496575,0.29061,1.05202
86.145,15.01079,-0.03597706,0.28971,1.05183
86.845,15.08181,-0.03465309,0.28957,1.05164
87.545,15.1525,-0.03597149,0.29084,1.05144
88.245,15.22284,-0.0346475,0.28974,1.05125
88.945,15.29315,-0.0339982,0.28929,1.05106
89.645,15.36336,-0.03399888,0.28858,1.05086
90.345,15.4336,-0.03286153,0.28642,1.05067
91.045,15.5037,-0.03470842,0.28695,1.05047
91.745,15.57346,-0.03532132,0.28401,1.05028
92.445,15.64334,-0.03666289,0.28335,1.05008
93.145,15.71301,-0.0354459,0.28217,1.04988
93.845,15.78266,-0.03662993,0.28014,1.04968
94.545,15.852,-0.03611131,0.28003,1.04948
95.245,15.9213,-0.03532691,0.28112,1.04928
95.945,15.9904,-0.03664216,0.28004,1.04908
96.645,16.0594,-0.03794883,0.27503,1.04887
97.345,16.1287,-0.03927087,0.27823,1.04867
98.045,16.19826,-0.0392702,0.2752,1.04847
98.745,16.26759,-0.03792506,0.27435,1.04826
99.445,16.33642,-0.03796413,0.27136,1.04805
100.145,16.40539,-0.03925914,0.27139,1.04785
100.845,16.47429,-0.03925845,0.27108,1.04764
101.545,16.54331,-0.03787733,0.26667,1.04743
102.245,16.6123,-0.03842136,0.26998,1.04722
102.945,16.68091,-0.0386862,0.27036,1.04701
103.645,16.74951,-0.03927672,0.26797,1.0468
104.345,16.818,-0.04174781,0.267,1.04659
105.045,16.88655,-0.04190003,0.26703,1.04637
105.745,16.95513,-0.04187549,0.26888,1.04616
106.445,17.02356,-0.04058158,0.26589,1.04594
107.145,17.09228,-0.04121798,0.26579,1.04573
107.845,17.161,-0.04057827,0.26607,1.04551
108.545,17.2296,-0.03926974,0.26459,1.04529
109.245,17.29791,-0.03981629,0.26558,1.04508
109.945,17.36625,-0.03983296,0.26532,1.04486
110.645,17.43445,-0.04123944,0.26648,1.04464
111.345,17.50284,-0.04090764,0.26702,1.04442
112.045,17.5713,-0.04199602,0.26683,1.04419
112.745,17.63975,-0.04124093,0.26805,1.04397
113.445,17.70812,-0.04122913,0.26663,1.04375
114.145,17.7764,-0.04123,0.26723,1.04352
114.845,17.84478,-0.04123,0.26691,1.0433
115.545,17.91326,-0.04122999,0.267,1.04307
116.245,17.98122,-0.04125145,0.2668,1.04285
116.945,18.0496,-0.03992004,0.26659,1.04262
117.645,18.11767,-0.04122817,0.2681,1.04239
118.345,18.18595,-0.04124,0.26848,1.04216
119.045,18.25398,-0.04123853,0.26827,1.04193
119.745,18.322,-0.03992191,0.26668,1.0417
120.445,18.39047,-0.04123641,0.26889,1.04147
121.145,18.45859,-0.04254094,0.2694,1.04123
121.845,18.52685,-0.04156288,0.26992,1.041
122.545,18.59486,-0.0401598,0.26912,1.04077
123.245,18.66324,-0.03992638,0.27062,1.04053
123.945,18.73143,-0.03861112,0.27174,1.0403
124.645,18.79942,-0.0399178,0.27015,1.04006
125.345,18.86745,-0.04125193,0.27067,1.03982
126.045,18.9352,-0.0425591,0.27402,1.03958
126.745,19.0034,-0.04260781,0.27349,1.03934
127.445,19.0712,-0.04153936,0.27409,1.0391
128.145,19.13924,-0.0425529,0.27294,1.03886
128.845,19.20703,-0.04188627,0.27506,1.03862
129.545,19.275,-0.04223755,0.27485,1.03838
130.245,19.34308,-0.04223,0.27691,1.03813
130.945,19.41115,-0.04223,0.27794,1.03789
131.645,19.47927,-0.04222906,0.27754,1.03765
132.345,19.5471,-0.04255961,0.27791,1.0374
133.045,19.615,-0.04256047,0.27658,1.03715
133.745,19.68282,-0.04123303,0.27567,1.0369
134.445,19.75046,-0.04124001,0.27733,1.03666
135.145,19.81784,-0.04202268,0.27944,1.03641
135.845,19.88541,-0.0424728,0.28021,1.03616
136.545,19.95345,-0.04123014,0.27836,1.03591
137.245,20.02156,-0.04170637,0.27975,1.03565
137.945,20.08959,-0.04254999,0.28017,1.0354
138.645,20.15714,-0.04255041,0.28136,1.03515
139.345,20.22469,-0.04123326,0.28383,1.03489
140.045,20.2921,-0.04124,0.28253,1.03464
140.745,20.35951,-0.04123983,0.28368,1.03438
141.445,20.42695,-0.04126902,0.28454,1.03413
142.145,20.49426,-0.04124,0.28504,1.03387
142.845,20.56147,-0.04124004,0.2856,1.03361
143.545,20.62884,-0.04257014,0.2866,1.03335
144.245,20.69633,-0.04141169,0.28775,1.03309
144.945,20.7637,-0.04123998,0.28945,1.03283
145.645,20.8311,-0.04124,0.28752,1.03257
146.345,20.89857,-0.04123968,0.29028,1.03231
147.045,20.96603,-0.04256553,0.28986,1.03205
147.745,21.0333,-0.04256,0.29155,1.03178
148.445,21.10014,-0.04256,0.29312,1.03152
149.145,21.16715,-0.04117852,0.2928,1.03125
149.845,21.23447,-0.0425573,0.29185,1.03099
150.545,21.30213,-0.04387152,0.29281,1.03072
151.245,21.36982,-0.04454496,0.29558,1.03045
151.945,21.4372,-0.04387004,0.29435,1.03018
152.645,21.50454,-0.04385786,0.29626,1.02991
153.345,21.57173,-0.04253979,0.29812,1.02964
154.045,21.63915,-0.04123692,0.29659,1.02937
154.745,21.7063,-0.04256219,0.29528,1.0291
155.445,21.7736,-0.04386833,0.29669,1.02883
156.145,21.84058,-0.04284528,0.29906,1.02855
156.845,21.90786,-0.04124085,0.29902,1.02828
157.545,21.9754,-0.04232168,0.29986,1.02801
158.245,22.0428,-0.04256058,0.30024,1.02773
158.945,22.11016,-0.04386875,0.30197,1.02745
159.645,22.17736,-0.0451932,0.30187,1.02718
160.345,22.24445,-0.04586445,0.30286,1.0269
161.045,22.3116,-0.04551998,0.30083,1.02662
161.745,22.37872,-0.04552154,0.30498,1.02634
162.445,22.44582,-0.0451906,0.30687,1.02606
163.145,22.51294,-0.04494906,0.30781,1.02578
163.845,22.58006,-0.04255006,0.30694,1.0255
164.545,22.64721,-0.04245718,0.31011,1.02521
165.245,22.71438,-0.04387003,0.30842,1.02493
165.945,22.78145,-0.04387,0.31013,1.02465
166.645,22.84852,-0.04387,0.30869,1.02436
167.345,22.91574,-0.04387001,0.30969,1.02407
168.045,22.9829,-0.04381888,0.31135,1.02379
168.745,23.05003,-0.04386999,0.31231,1.0235
169.445,23.11719,-0.04518209,0.31244,1.02321
170.145,23.18401,-0.04520154,0.31328,1.02292
170.845,23.25103,-0.04518602,0.31659,1.02263
171.545,23.3179,-0.04519003,0.31443,1.02234
172.245,23.3851,-0.04378053,0.31598,1.02205
172.945,23.452,-0.04387001,0.31745,1.02176
173.645,23.51896,-0.04387,0.31731,1.02147
174.345,23.58616,-0.04387001,0.31858,1.02117
175.045,23.6534,-0.04454341,0.31928,1.02088
175.745,23.7205,-0.04519001,0.31904,1.02058
176.445,23.78742,-0.0440799,0.31999,1.02029
177.145,23.85439,-0.04387563,0.32173,1.01999
177.845,23.9213,-0.04455379,0.32441,1.01969
178.545,23.98819,-0.04519002,0.32567,1.0194
179.245,24.05497,-0.04660268,0.32704,1.0191
179.945,24.12169,-0.04730931,0.32617,1.0188
180.645,24.1889,-0.04782,0.32671,1.0185
181.345,24.25564,-0.04750982,0.32808,1.0182
182.045,24.32263,-0.04652666,0.32809,1.01789
182.745,24.38934,-0.04519012,0.33105,1.01759
183.445,24.4562,-0.04617649,0.32843,1.01729
184.145,24.52335,-0.04717107,0.33063,1.01698
184.845,24.59038,-0.04782003,0.3305,1.01668
185.545,24.6575,-0.04710744,0.33114,1.01637
186.245,24.72438,-0.04572255,0.33327,1.01607
186.945,24.79125,-0.04388519,0.33416,1.01576
187.645,24.85793,-0.04447923,0.33419,1.01545
188.345,24.9249,-0.04668825,0.33602,1.01514
189.045,24.99165,-0.04715783,0.33457,1.01483
189.745,25.0585,-0.04847948,0.33886,1.01452
190.445,25.1253,-0.04848692,0.34004,1.01421
191.145,25.19218,-0.04714837,0.34064,1.0139
191.845,25.2592,-0.04583989,0.34057,1.01359
192.545,25.32604,-0.04513243,0.34147,1.01327
193.245,25.39281,-0.0438823,0.341,1.01296
193.945,25.45958,-0.04647843,0.34053,1.01265
194.645,25.52646,-0.04646378,0.34215,1.01233
195.345,25.5934,-0.04783655,0.34239,1.01201
196.045,25.6605,-0.04781997,0.34581,1.0117
196.745,25.72729,-0.0498383,0.34582,1.01138
197.445,25.79419,-0.05044998,0.34756,1.01106
198.145,25.86115,-0.05049211,0.34721,1.01074
198.845,25.9281,-0.0517902,0.3486,1.01042
199.545,25.99501,-0.05308988,0.34775,1.0101
200.245,26.06168,-0.05309,0.34965,1.00978
200.945,26.1285,-0.05177908,0.35163,1.00946
201.645,26.1955,-0.05165996,0.35208,1.00914
202.345,26.2625,-0.05169516,0.35329,1.00881
203.045,26.3296,-0.05099998,0.35831,1.00849
203.745,26.3964,-0.05100184,0.35713,1.00816
204.445,26.46313,-0.05231389,0.35845,1.00784
205.145,26.5296,-0.05364024,0.36186,1.00751
205.845,26.5963,-0.05526167,0.36078,1.00718
206.545,26.66279,-0.05527284,0.36304,1.00686
207.245,26.7296,-0.05461964,0.3641,1.00653
207.945,26.7963,-0.05461902,0.36603,1.0062
208.645,26.86318,-0.05329116,0.36732,1.00587
209.345,26.92998,-0.05462,0.36928,1.00554
210.045,26.9966,-0.05461305,0.36763,1.00521
210.745,27.06314,-0.05589782,0.371,1.00488
211.445,27.1297,-0.05724994,0.37134,1.00454
212.145,27.19618,-0.05724985,0.37242,1.00421
212.845,27.26285,-0.0561582,0.37363,1.00388
213.545,27.3296,-0.05724536,0.37673,1.00354
214.245,27.3964,-0.05757905,0.37649,1.0032
214.945,27.46323,-0.05890693,0.37829,1.00287
215.645,27.5299,-0.0589,0.37713,1.00253
216.345,27.5967,-0.0601929,0.38108,1.00219
217.045,27.6635,-0.06021,0.38087,1.00186
217.745,27.73025,-0.06021,0.3813,1.00152
218.445,27.79717,-0.06011842,0.3819,1.00118
219.145,27.86395,-0.0615315,0.38435,1.00084
219.845,27.9307,-0.06283748,0.38744,1.00049
220.545,27.9976,-0.06529568,0.38637,1.00015
221.245,28.06451,-0.06688458,0.38755,0.99981
221.945,28.1316,-0.06547499,0.38924,0.99947
222.645,28.1983,-0.06548,0.38721,0.99912
223.345,28.26505,-0.06548094,0.38887,0.99878
224.045,28.3318,-0.06678927,0.39164,0.99843
224.745,28.39865,-0.06946837,0.39418,0.99809
225.445,28.46554,-0.06942097,0.39527,0.99774
226.145,28.5323,-0.07072796,0.39486,0.99739
226.845,28.599,-0.07075406,0.39555,0.99704
227.545,28.66559,-0.07337828,0.39911,0.99669
228.245,28.73235,-0.07338047,0.39897,0.99634
228.945,28.7992,-0.07469715,0.40206,0.99599
229.645,28.86621,-0.07469051,0.40559,0.99564
230.345,28.93297,-0.07535163,0.40618,0.99529
231.045,28.99989,-0.07666963,0.40609,0.99494
231.745,29.0667,-0.07798048,0.40665,0.99459
232.445,29.1337,-0.07919983,0.40855,0.99423
233.145,29.20032,-0.08061962,0.41106,0.99388
233.845,29.26698,-0.08192182,0.41347,0.99352
234.545,29.33369,-0.0832238,0.41172,0.99317
235.245,29.40065,-0.08458768,0.41364,0.99281
235.945,29.46769,-0.08586352,0.41104,0.99245
236.645,29.53465,-0.08690751,0.41148,0.9921
237.345,29.60146,-0.08852234,0.41281,0.99174
238.045,29.66817,-0.08982221,0.41244,0.99138
238.745,29.73477,-0.09114992,0.41221,0.99102
239.445,29.80153,-0.09245977,0.41296,0.99066
240.145,29.86849,-0.09510706,0.41248,0.9903
240.845,29.93533,-0.09655855,0.41554,0.98994
241.545,30.0022,-0.0980333,0.41663,0.98957
242.245,30.0689,-0.10126,0.41708,0.98921
242.945,30.1357,-0.10329,0.41705,0.98885
243.645,30.20243,-0.10466,0.41822,0.98848
244.345,30.26916,-0.10594,0.42167,0.98812
245.045,30.33618,-0.10858,0.42247,0.98775
245.745,30.40295,-0.11151,0.42237,0.98738
246.445,30.46997,-0.11374,0.42247,0.98702
247.145,30.5366,-0.11506,0.42292,0.98665
247.845,30.60339,-0.11805,0.42591,0.98628
248.545,30.6703,-0.12013,0.42731,0.98591
249.245,30.73713,-0.12278,0.427,0.98554
249.945,30.80394,-0.12622,0.42982,0.98517
250.645,30.8708,-0.12875,0.43172,0.9848
251.345,30.93768,-0.13125,0.43171,0.98443
252.045,31.0044,-0.13422,0.43412,0.98406
252.745,31.0709,-0.13698,0.43531,0.98368
253.445,31.13765,-0.14127,0.43331,0.98331
254.145,31.2046,-0.14524,0.43456,0.98293
254.845,31.27168,-0.14812,0.43992,0.98256
255.545,31.3384,-0.15181,0.44119,0.98218
256.245,31.40509,-0.15454,0.44273,0.98181
256.945,31.47168,-0.15856,0.44224,0.98143
257.645,31.53845,-0.16211,0.4442,0.98105
258.345,31.6052,-0.16682,0.44797,0.98067
259.045,31.672,-0.16984,0.44984,0.98029
259.745,31.73875,-0.17347,0.45028,0.97992
260.445,31.80552,-0.17879,0.45425,0.97954
261.145,31.8723,-0.18374,0.45402,0.97915
261.845,31.93937,-0.18709,0.45657,0.97877
262.545,32.0063,-0.18963,0.45769,0.97839
263.245,32.07305,-0.19383,0.4588,0.97801
263.945,32.13985,-0.19961,0.46132,0.97762
264.645,32.20673,-0.20511,0.4641,0.97724
265.345,32.2738,-0.21184,0.46474,0.97686
266.045,32.3406,-0.21719,0.4658,0.97647
266.745,32.4074,-0.22093,0.46845,0.97608
267.445,32.4743,-0.22654,0.47115,0.9757
268.145,32.54138,-0.23271,0.47313,0.97531
268.845,32.6085,-0.23886,0.47777,0.97492
269.545,32.6755,-0.24593,0.47807,0.97453
270.245,32.74243,-0.25208,0.48338,0.97415
270.945,32.8093,-0.25968,0.48289,0.97376
271.645,32.87608,-0.26659,0.48461,0.97337
272.345,32.94317,-0.27254,0.48724,0.97297
273.045,33.01042,-0.27941,0.48891,0.97258
273.745,33.07762,-0.28648,0.48917,0.97219
274.445,33.1446,-0.29455,0.49183,0.9718
275.145,33.2117,-0.30195,0.49448,0.9714
275.845,33.27868,-0.31076,0.49584,0.97101
276.545,33.34577,-0.31969,0.49926,0.97061
277.245,33.41267,-0.32752,0.49957,0.97022
277.945,33.47972,-0.33637,0.50303,0.96982
278.645,33.5466,-0.34441,0.50227,0.96943
279.345,33.6134,-0.35392,0.50508,0.96903
280.045,33.68025,-0.36254,0.50536,0.96863
280.745,33.74732,-0.37218,0.50665,0.96823
281.445,33.81445,-0.38187,0.5096,0.96783
282.145,33.88155,-0.39257,0.51146,0.96744
282.845,33.94852,-0.40277,0.51295,0.96703
283.545,34.0157,-0.41198,0.5142,0.96663
284.245,34.08274,-0.42272,0.51511,0.96623
284.945,34.14992,-0.43488,0.51383,0.96583
285.645,34.21685,-0.44519,0.51556,0.96543
286.345,34.28385,-0.45686,0.51312,0.96502
287.045,34.35076,-0.46771,0.51598,0.96462
287.745,34.4174,-0.47835,0.51477,0.96422
288.445,34.48435,-0.48827,0.51504,0.96381
289.145,34.5514,-0.49851,0.51636,0.96341
289.845,34.61891,-0.50862,0.51743,0.963
290.545,34.686,-0.52014,0.51812,0.96259
291.245,34.75294,-0.53255,0.51704,0.96218
291.945,34.81998,-0.54382,0.51504,0.96178
292.645,34.88707,-0.55624,0.51452,0.96137
293.345,34.95426,-0.56583,0.51544,0.96096
294.045,35.02152,-0.57749,0.51368,0.96055
294.745,35.08828,-0.58906,0.51672,0.96014
295.445,35.15526,-0.60303,0.51416,0.95973
296.145,35.22229,-0.61424,0.51565,0.95932
296.845,35.2896,-0.62677,0.51734,0.9589
297.545,35.35692,-0.63843,0.51553,0.95849
298.245,35.42395,-0.65208,0.51557,0.95808
298.945,35.49095,-0.66347,0.51629,0.95766
299.645,35.55813,-0.67646,0.5141,0.95725
300.345,35.62539,-0.68815,0.51821,0.95683
301.045,35.69249,-0.70173,0.51648,0.95642
301.745,35.75935,-0.71321,0.51668,0.956
302.445,35.82626,-0.72456,0.5191,0.95558
303.145,35.89338,-0.73758,0.51898,0.95517
303.845,35.96038,-0.75086,0.51766,0.95475
304.545,36.02775,-0.76328,0.51732,0.95433
305.245,36.095,-0.77579,0.51913,0.95391
305.945,36.16238,-0.78778,0.51968,0.95349
306.645,36.22945,-0.80249,0.52114,0.95307
307.345,36.29647,-0.81487,0.52292,0.95265
308.045,36.36363,-0.82824,0.52578,0.95223
308.745,36.43077,-0.84195,0.52742,0.95181
309.445,36.49801,-0.85531,0.52755,0.95138
310.145,36.56524,-0.86648,0.5283,0.95096
310.845,36.6325,-0.87939,0.53106,0.95054
311.545,36.69986,-0.89292,0.53302,0.95011
312.245,36.76706,-0.90486,0.53651,0.94969
312.945,36.83436,-0.91867,0.53625,0.94926
313.645,36.90136,-0.93301,0.54044,0.94884
314.345,36.96887,-0.94489,0.54402,0.94841
315.045,37.03598,-0.95855,0.54339,0.94798
315.745,37.10341,-0.97251,0.5487,0.94755
316.445,37.1706,-0.98809,0.55182,0.94713
317.145,37.23807,-1.00034,0.55565,0.9467
317.845,37.30542,-1.01562,0.55581,0.94627
318.545,37.37267,-1.02694,0.56124,0.94584
319.245,37.4399,-1.04429,0.56329,0.94541
319.945,37.50683,-1.05734,0.56679,0.94498
320.645,37.574,-1.07188,0.56941,0.94455
321.345,37.64143,-1.08677,0.57456,0.94411
322.045,37.70901,-1.1021,0.57558,0.94368
322.745,37.77664,-1.11663,0.58227,0.94325
323.445,37.84403,-1.13136,0.58246,0.94281
324.145,37.91154,-1.1459,0.58668,0.94238
324.845,37.97902,-1.16073,0.59126,0.94194
325.545,38.04622,-1.17508,0.59681,0.94151
326.245,38.11359,-1.19046,0.60213,0.94107
326.945,38.18088,-1.20424,0.6069,0.94064
327.645,38.2484,-1.21951,0.61132,0.9402
328.345,38.31585,-1.23457,0.6148,0.93976
329.045,38.3834,-1.2512,0.6236,0.93932
329.745,38.45087,-1.26758,0.62882,0.93888
330.445,38.51811,-1.28294,0.63481,0.93844
331.145,38.58571,-1.29826,0.64002,0.93801
331.845,38.65319,-1.31412,0.64683,0.93756
332.545,38.72074,-1.32869,0.65172,0.93712
333.245,38.7881,-1.34654,0.66112,0.93668
333.945,38.85561,-1.36258,0.66549,0.93624
334.645,38.9232,-1.38208,0.67365,0.9358
335.345,38.99064,-1.39802,0.68194,0.93535
336.045,39.0582,-1.41312,0.68951,0.93491
336.745,39.12573,-1.43046,0.69553,0.93447
337.445,39.1933,-1.44755,0.70367,0.93402
338.145,39.26079,-1.46557,0.71123,0.93358
338.845,39.32855,-1.48451,0.71932,0.93313
339.545,39.3964,-1.5026,0.72787,0.93269
340.245,39.4642,-1.52161,0.73731,0.93224
340.945,39.53201,-1.54064,0.74485,0.93179
341.645,39.59955,-1.55982,0.7544,0.93134
342.345,39.66713,-1.57742,0.76407,0.9309
343.045,39.7346,-1.59612,0.77012,0.93045
343.745,39.8023,-1.61489,0.78202,0.93
344.445,39.86984,-1.63558,0.79184,0.92955
345.145,39.9375,-1.65555,0.80351,0.9291
345.845,40.00525,-1.67695,0.81303,0.92865
346.545,40.07325,-1.69686,0.82126,0.9282
347.245,40.1408,-1.71691,0.83175,0.92774
347.945,40.20868,-1.73874,0.84118,0.92729
348.645,40.27637,-1.76033,0.85219,0.92684
349.345,40.34455,-1.78233,0.86301,0.92638
350.045,40.4126,-1.80476,0.87608,0.92593
350.745,40.4807,-1.8297,0.88692,0.92548
351.445,40.54866,-1.8519,0.89684,0.92502
352.145,40.61645,-1.87664,0.90957,0.92457
352.845,40.68452,-1.90415,0.92205,0.92411
353.545,40.75262,-1.92853,0.93332,0.92365
354.245,40.82071,-1.95201,0.94573,0.9232
354.945,40.8887,-1.97864,0.9582,0.92274
355.645,40.95673,-2.00483,0.97192,0.92228
356.345,41.0246,-2.03018,0.98216,0.92182
357.045,41.0926,-2.05759,0.99358,0.92136
357.745,41.16062,-2.08647,1.00535,0.9209
358.445,41.229,-2.11358,1.01907,0.92044
359.145,41.29716,-2.14037,1.02929,0.91998
359.845,41.36515,-2.17034,1.03838,0.91952
360.545,41.43298,-2.20079,1.04636,0.91906
361.245,41.50087,-2.22987,1.05516,0.9186
361.945,41.5687,-2.26106,1.06568,0.91814
362.645,41.63666,-2.29249,1.07258,0.91767
363.345,41.70446,-2.322,1.07757,0.91721
364.045,41.77245,-2.3524,1.08445,0.91675
364.745,41.84037,-2.38375,1.0868,0.91628
365.445,41.9084,-2.41339,1.08931,0.91582
366.145,41.97648,-2.44615,1.09046,0.91535
366.845,42.04456,-2.4785,1.09068,0.91489
367.545,42.1125,-2.50933,1.08494,0.91442
368.245,42.1804,-2.53818,1.08189,0.91395
368.945,42.24816,-2.56975,1.07208,0.91348
369.645,42.31585,-2.60145,1.06027,0.91302
370.345,42.38362,-2.63097,1.04637,0.91255
371.045,42.45128,-2.66134,1.03006,0.91208
371.745,42.51919,-2.69078,1.01284,0.91161
372.445,42.5871,-2.71897,0.99255,0.91114
373.145,42.65527,-2.74629,0.96709,0.91067
373.845,42.72306,-2.77452,0.93651,0.9102
374.545,42.79091,-2.79818,0.90764,0.90973
375.245,42.85855,-2.82391,0.87617,0.90926
375.945,42.92634,-2.84704,0.84084,0.90879
376.645,42.99398,-2.87002,0.80323,0.90831
377.345,43.06165,-2.89225,0.76069,0.90784
378.045,43.12948,-2.91282,0.72128,0.90737
378.745,43.19725,-2.9304,0.67995,0.90689
379.445,43.26509,-2.94717,0.63513,0.90642
380.145,43.33274,-2.96206,0.59291,0.90594
380.845,43.40037,-2.9764,0.54748,0.90547
381.545,43.4679,-2.98911,0.50552,0.90499
382.245,43.5355,-3.00005,0.46251,0.90452
382.945,43.60328,-3.00981,0.42297,0.90404
383.645,43.67102,-3.01943,0.387,0.90356
384.345,43.7389,-3.02912,0.34979,0.90308
385.045,43.80644,-3.03571,0.31875,0.90261
385.745,43.87409,-3.04215,0.28847,0.90213
386.445,43.94181,-3.04697,0.26155,0.90165
387.145,44.0095,-3.05217,0.244,0.90117
387.845,44.07724,-3.05604,0.22637,0.90069
388.545,44.1449,-3.05754,0.20974,0.90021
389.245,44.21261,-3.06293,0.19513,0.89973
389.945,44.28052,-3.06508,0.18666,0.89925
390.645,44.3482,-3.06665,0.17741,0.89876
391.345,44.4161,-3.06988,0.16962,0.89828
392.045,44.484,-3.07106,0.1656,0.8978
392.745,44.5518,-3.07183,0.16009,0.89732
393.445,44.6197,-3.07373,0.15401,0.89683
394.145,44.6875,-3.07493,0.14929,0.89635
394.845,44.75543,-3.07852,0.14732,0.89586
395.545,44.82338,-3.0795,0.14158,0.89538
396.245,44.89125,-3.08171,0.14251,0.89489
396.945,44.95939,-3.08367,0.1396,0.89441
397.645,45.02749,-3.08644,0.13895,0.89392
398.345,45.0957,-3.08806,0.13476,0.89343
399.045,45.16381,-3.08975,0.13307,0.89295
399.745,45.2319,-3.09105,0.13089,0.89246
400.445,45.2997,-3.09107,0.12576,0.89197
401.145,45.3677,-3.0924,0.12659,0.89148
401.845,45.43573,-3.09659,0.12587,0.89099
402.545,45.50411,-3.0995,0.12166,0.89051
403.245,45.57241,-3.10067,0.12255,0.89002
403.945,45.64052,-3.10241,0.12178,0.88953
404.645,45.70858,-3.10484,0.11951,0.88903
405.345,45.77662,-3.10684,0.11692,0.88854
406.045,45.8448,-3.10798,0.11665,0.88805
406.745,45.9131,-3.11046,0.11461,0.88756
407.445,45.98134,-3.11246,0.11275,0.88707
408.145,46.0496,-3.11483,0.1128,0.88658
408.845,46.11793,-3.11495,0.11399,0.88608
409.545,46.1863,-3.11686,0.11082,0.88559
410.245,46.25447,-3.11917,0.11171,0.88509
410.945,46.32265,-3.12014,0.11118,0.8846
411.645,46.39085,-3.12292,0.1073,0.88411
412.345,46.4593,-3.12419,0.1071,0.88361
413.045,46.52776,-3.12684,0.10493,0.88311
413.745,46.5963,-3.12823,0.10447,0.88262
414.445,46.66471,-3.12991,0.10337,0.88212
415.145,46.7331,-3.13124,0.1032,0.88162
415.845,46.80129,-3.13369,0.10178,0.88113
416.545,46.8694,-3.13362,0.10219,0.88063
417.245,46.93789,-3.13541,0.09947371,0.88013
417.945,47.00628,-3.13774,0.09956161,0.87963
418.645,47.075,-3.139,0.10201,0.87913
419.345,47.14333,-3.14164,0.10238,0.87863
420.045,47.2118,-3.14294,0.10201,0.87813
420.745,47.28015,-3.14437,0.10045,0.87763
421.445,47.34834,-3.14567,0.10078,0.87713
422.145,47.41673,-3.14839,0.10219,0.87663
422.845,47.48498,-3.15016,0.10386,0.87613
423.545,47.55355,-3.15098,0.10134,0.87563
424.245,47.62214,-3.15163,0.10307,0.87513
424.945,47.69084,-3.15402,0.10252,0.87463
425.645,47.75956,-3.15533,0.10335,0.87412
426.345,47.82815,-3.15672,0.10587,0.87362
427.045,47.89673,-3.15936,0.10549,0.87311
427.745,47.9653,-3.15989,0.10428,0.87261
428.445,48.0339,-3.16246,0.10573,0.87211
429.145,48.10275,-3.16466,0.10605,0.8716
429.845,48.17138,-3.16598,0.10948,0.8711
430.545,48.24015,-3.16884,0.11029,0.87059
431.245,48.30872,-3.17006,0.10692,0.87008
431.945,48.37758,-3.17127,0.10771,0.86958
432.645,48.44618,-3.17153,0.10892,0.86907
433.345,48.51477,-3.17135,0.1081,0.86856
434.045,48.58339,-3.17296,0.11218,0.86805
434.745,48.65218,-3.17408,0.10903,0.86755
435.445,48.7209,-3.17398,0.11076,0.86704
436.145,48.78942,-3.17589,0.11313,0.86653
436.845,48.85801,-3.17927,0.116,0.86602
437.545,48.92693,-3.18055,0.11498,0.86551
438.245,48.99592,-3.1819,0.11653,0.865
438.945,49.06473,-3.18419,0.11853,0.86449
439.645,49.1334,-3.1855,0.11964,0.86398
440.345,49.20214,-3.18682,0.12039,0.86347
441.045,49.27089,-3.18811,0.12208,0.86296
441.745,49.3398,-3.18944,0.12244,0.86244
442.445,49.40833,-3.18957,0.12437,0.86193
443.145,49.4771,-3.19075,0.12413,0.86142
443.845,49.5454,-3.19208,0.12693,0.86091
444.545,49.6143,-3.1922,0.12738,0.86039
445.245,49.68288,-3.19221,0.13247,0.85988
445.945,49.75172,-3.19472,0.13298,0.85936
446.645,49.8204,-3.19734,0.13795,0.85885
447.345,49.88904,-3.19866,0.14091,0.85833
448.045,49.95778,-3.19999,0.13989,0.85782
448.745,50.02664,-3.20097,0.14553,0.8573
449.445,50.09541,-3.20143,0.14675,0.85679
450.145,50.1642,-3.20261,0.14873,0.85627
450.845,50.23297,-3.20389,0.1496,0.85575
451.545,50.30137,-3.2036,0.14964,0.85524
452.245,50.37027,-3.20491,0.14989,0.85472
452.945,50.4391,-3.20623,0.1527,0.8542
453.645,50.50854,-3.20886,0.1535,0.85368
454.345,50.5775,-3.20823,0.15628,0.85317
455.045,50.64635,-3.20876,0.15667,0.85265
455.745,50.7151,-3.21013,0.15751,0.85213
456.445,50.78399,-3.21169,0.15733,0.85161
457.145,50.85286,-3.21282,0.15932,0.85109
457.845,50.92174,-3.21511,0.1598,0.85057
458.545,50.99067,-3.21643,0.1608,0.85005
459.245,51.0596,-3.21643,0.15894,0.84953
459.945,51.12859,-3.21643,0.16194,0.849
460.645,51.19755,-3.21778,0.16507,0.84848
461.345,51.26655,-3.21891,0.16332,0.84796
462.045,51.33559,-3.22037,0.16272,0.84744
462.745,51.40452,-3.2217,0.1641,0.84691
463.445,51.47351,-3.222,0.16395,0.84639
464.145,51.54242,-3.22302,0.16595,0.84587
464.845,51.61161,-3.2231,0.16371,0.84534
465.545,51.6806,-3.22435,0.1668,0.84482
466.245,51.74968,-3.22695,0.16495,0.8443
466.945,51.81877,-3.22827,0.16896,0.84377
467.645,51.88785,-3.22959,0.16541,0.84325
468.345,51.95712,-3.23024,0.16787,0.84272
469.045,52.02619,-3.22927,0.16933,0.84219
469.745,52.09554,-3.2296,0.17057,0.84167
470.445,52.16474,-3.23085,0.16973,0.84114
471.145,52.23387,-3.23222,0.17171,0.84061
471.845,52.30299,-3.2333,0.17464,0.84009
472.545,52.37218,-3.23353,0.17619,0.83956
473.245,52.4415,-3.23492,0.18247,0.83903
473.945,52.51059,-3.23621,0.18383,0.8385
474.645,52.5796,-3.23618,0.1894,0.83797
475.345,52.64852,-3.23672,0.19191,0.83745
476.045,52.71755,-3.2375,0.19646,0.83692
476.745,52.78638,-3.23749,0.19801,0.83639
477.445,52.85544,-3.23881,0.20116,0.83586
478.145,52.9245,-3.23881,0.20365,0.83533
478.845,52.9938,-3.23788,0.20206,0.8348
479.545,53.06318,-3.23946,0.20554,0.83427
480.245,53.13245,-3.24012,0.20624,0.83373
480.945,53.20168,-3.24276,0.20875,0.8332
481.645,53.27064,-3.24407,0.21156,0.83267
482.345,53.33975,-3.24504,0.21336,0.83214
483.045,53.40874,-3.24539,0.21366,0.83161
483.745,53.4776,-3.24671,0.21448,0.83107
484.445,53.54605,-3.24802,0.21799,0.83054
485.145,53.6152,-3.24909,0.21465,0.83001
485.845,53.6844,-3.24911,0.21649,0.82947
486.545,53.75416,-3.24703,0.21527,0.82894
487.245,53.8232,-3.24675,0.21458,0.8284
487.945,53.8925,-3.24789,0.21663,0.82787
488.645,53.9619,-3.24831,0.21628,0.82734
489.345,54.03147,-3.24966,0.21599,0.8268
490.045,54.1008,-3.24965,0.21598,0.82626
490.745,54.16985,-3.2523,0.21506,0.82573
491.445,54.2389,-3.2523,0.21517,0.82519
492.145,54.3079,-3.25362,0.21489,0.82466
492.845,54.3771,-3.25362,0.21561,0.82412
493.545,54.44624,-3.25486,0.21362,0.82358
494.245,54.51555,-3.25488,0.21673,0.82304
494.945,54.58486,-3.25625,0.21736,0.82251
495.645,54.65404,-3.25625,0.21449,0.82197
496.345,54.7233,-3.25626,0.21478,0.82143
497.045,54.7926,-3.25627,0.21341,0.82089
497.745,54.86192,-3.25686,0.21603,0.82035
498.445,54.93116,-3.25789,0.21883,0.81981
499.145,55.00009,-3.25954,0.21653,0.81927
499.845,55.06909,-3.26105,0.21683,0.81873
500.545,55.13814,-3.26184,0.21656,0.81819
501.245,55.20751,-3.26184,0.21929,0.81765
501.945,55.27675,-3.26184,0.21826,0.81711
502.645,55.3461,-3.26185,0.22009,0.81657
503.345,55.41502,-3.26315,0.22225,0.81603
504.045,55.48435,-3.26324,0.22062,0.81549
504.745,55.55341,-3.26316,0.21985,0.81495
505.445,55.62249,-3.26376,0.21475,0.8144
506.145,55.69155,-3.26511,0.21154,0.81386
506.845,55.76104,-3.26638,0.20973,0.81332
507.545,55.8305,-3.26514,0.20444,0.81278
508.245,55.8995,-3.26513,0.20393,0.81223
508.945,55.96878,-3.26644,0.20303,0.81169
509.645,56.03847,-3.26777,0.20176,0.81115
510.345,56.1084,-3.26874,0.20071,0.8106
511.045,56.17784,-3.26974,0.20075,0.81006
511.745,56.24711,-3.26974,0.20007,0.80951
512.445,56.31666,-3.26971,0.19943,0.80897
513.145,56.3864,-3.26967,0.19935,0.80842
513.845,56.45595,-3.27003,0.19949,0.80788
514.545,56.5256,-3.27006,0.19879,0.80733
515.245,56.5953,-3.27139,0.1964,0.80678
515.945,56.66502,-3.27139,0.19638,0.80624
516.645,56.7347,-3.27263,0.19733,0.80569
517.345,56.80431,-3.27412,0.19724,0.80514
518.045,56.87389,-3.27402,0.19469,0.8046
518.745,56.9435,-3.27664,0.19917,0.80405
519.445,57.0128,-3.27665,0.19689,0.8035
520.145,57.0826,-3.27681,0.19936,0.80295
520.845,57.15218,-3.27665,0.19475,0.80241
521.545,57.22201,-3.27665,0.19445,0.80186
522.245,57.2914,-3.27665,0.19385,0.80131
522.945,57.36079,-3.27665,0.19779,0.80076
523.645,57.4303,-3.27898,0.19562,0.80021
524.345,57.49994,-3.27928,0.19436,0.79966
525.045,57.5694,-3.28056,0.19432,0.79911
525.745,57.6388,-3.2819,0.19367,0.79856
526.445,57.70815,-3.28192,0.19252,0.79801
527.145,57.7778,-3.28193,0.19189,0.79746
527.845,57.8473,-3.28191,0.19279,0.79691
528.545,57.9169,-3.28204,0.19549,0.79636
529.245,57.9864,-3.28325,0.19719,0.79581
529.945,58.0557,-3.28532,0.19598,0.79525
530.645,58.1251,-3.28554,0.19489,0.7947
531.345,58.1945,-3.28445,0.19891,0.79415
532.045,58.26399,-3.28455,0.19671,0.7936
532.745,58.3334,-3.28455,0.19524,0.79305
533.445,58.403,-3.28582,0.19374,0.79249
534.145,58.47251,-3.28555,0.196,0.79194
534.845,58.54224,-3.28685,0.19666,0.79139
535.545,58.6119,-3.28685,0.19601,0.79083
536.245,58.6815,-3.28816,0.19783,0.79028
536.945,58.75102,-3.28816,0.19595,0.78972
537.645,58.8206,-3.28948,0.19665,0.78917
538.345,58.89036,-3.28948,0.19339,0.78862
539.045,58.96018,-3.2908,0.19528,0.78806
539.745,59.03,-3.2908,0.19329,0.78751
540.445,59.0998,-3.28949,0.19124,0.78695
541.145,59.16953,-3.2895,0.19342,0.78639
541.845,59.23895,-3.2908,0.19174,0.78584
542.545,59.3086,-3.29207,0.19274,0.78528
543.245,59.3781,-3.29082,0.19254,0.78473
543.945,59.44785,-3.29212,0.19074,0.78417
544.645,59.51729,-3.29207,0.1928,0.78361
545.345,59.58684,-3.29343,0.19058,0.78306
546.045,59.65661,-3.29572,0.19204,0.7825
546.745,59.72661,-3.29738,0.19052,0.78194
547.445,59.79665,-3.29738,0.19247,0.78138
548.145,59.86634,-3.29747,0.19357,0.78083
548.845,59.9363,-3.2954,0.18886,0.78027
549.545,60.0059,-3.29632,0.19121,0.77971
550.245,60.0757,-3.29606,0.19439,0.77915
550.945,60.1451,-3.29747,0.18979,0.77859
551.645,60.21521,-3.29738,0.19179,0.77803
552.345,60.2852,-3.29729,0.19254,0.77747
553.045,60.35546,-3.29873,0.18811,0.77691
553.745,60.4253,-3.29839,0.18912,0.77635
554.445,60.4952,-3.2987,0.18852,0.77579
555.145,60.565,-3.29994,0.18833,0.77523
555.845,60.6347,-3.30133,0.18582,0.77467
556.545,60.7044,-3.30133,0.18585,0.77411
557.245,60.77404,-3.30137,0.18072,0.77355
557.945,60.84394,-3.30265,0.18313,0.77299
558.645,60.91384,-3.30133,0.17942,0.77243
559.345,60.9839,-3.30129,0.18079,0.77187
560.045,61.05365,-3.30264,0.17702,0.77131
560.745,61.1235,-3.30294,0.17525,0.77074
561.445,61.1932,-3.30529,0.17476,0.77018
562.145,61.2631,-3.30528,0.17352,0.76962
562.845,61.333,-3.30528,0.17155,0.76906
563.545,61.40302,-3.3066,0.16938,0.76849
564.245,61.4729,-3.30854,0.16847,0.76793
564.945,61.5429,-3.30857,0.16955,0.76737
565.645,61.61254,-3.30837,0.17104,0.7668
566.345,61.6827,-3.30823,0.16732,0.76624
567.045,61.75258,-3.30585,0.16441,0.76568
567.745,61.82278,-3.30583,0.1638,0.76511
568.445,61.89265,-3.30694,0.16228,0.76455
569.145,61.9629,-3.30846,0.16348,0.76398
569.845,62.03312,-3.30846,0.16019,0.76342
570.545,62.10329,-3.30873,0.15921,0.76286
571.245,62.17337,-3.30978,0.15993,0.76229
571.945,62.24346,-3.31109,0.15785,0.76172
572.645,62.31365,-3.31127,0.15763,0.76116
573.345,62.38378,-3.31241,0.15827,0.76059
574.045,62.454,-3.31315,0.15594,0.76003
574.745,62.5242,-3.31236,0.15684,0.75946
575.445,62.5944,-3.31236,0.15666,0.7589
576.145,62.6645,-3.31308,0.15603,0.75833
576.845,62.73431,-3.31241,0.15341,0.75776
577.545,62.80434,-3.3131,0.15393,0.7572
578.245,62.87455,-3.31226,0.15517,0.75663
578.945,62.945,-3.31175,0.15309,0.75606
579.645,63.0152,-3.3124,0.14965,0.75549
580.345,63.08534,-3.3137,0.15379,0.75493
581.045,63.15555,-3.31512,0.15329,0.75436
581.745,63.2259,-3.31504,0.15214,0.75379
582.445,63.2961,-3.31503,0.15682,0.75322
583.145,63.3663,-3.31636,0.15563,0.75266
583.845,63.43648,-3.31635,0.15285,0.75209
584.545,63.50668,-3.31898,0.1492,0.75152
585.245,63.57696,-3.31832,0.15063,0.75095
585.945,63.6473,-3.31899,0.15044,0.75038
586.645,63.71756,-3.31899,0.15045,0.74981
587.345,63.7879,-3.31891,0.1496,0.74924
588.045,63.858,-3.32164,0.14966,0.74867
588.745,63.92821,-3.3203,0.14438,0.7481
589.445,63.99841,-3.3203,0.14832,0.74753
590.145,64.0686,-3.32161,0.14929,0.74696
590.845,64.13893,-3.32162,0.14575,0.74639
591.545,64.209,-3.32162,0.14554,0.74582
592.245,64.27905,-3.31899,0.14997,0.74525
592.945,64.3489,-3.32031,0.15018,0.74468
593.645,64.419,-3.32188,0.1507,0.74411
594.345,64.4892,-3.32355,0.14713,0.74354
595.045,64.55926,-3.32491,0.14813,0.74297
595.745,64.6294,-3.32554,0.15215,0.7424
596.445,64.6994,-3.32557,0.14873,0.74182
597.145,64.76945,-3.32454,0.14485,0.74125
597.845,64.8394,-3.32557,0.14972,0.74068
598.545,64.90932,-3.32557,0.14912,0.74011
599.245,64.97944,-3.32426,0.14734,0.73954
599.945,65.04951,-3.32329,0.15222,0.73896
600.645,65.11971,-3.32458,0.15018,0.73839
601.345,65.18978,-3.32722,0.15149,0.73782
602.045,65.25984,-3.3259,0.15269,0.73725
602.745,65.33,-3.3259,0.15509,0.73667
603.445,65.40015,-3.32721,0.15295,0.7361
604.145,65.4701,-3.32853,0.15609,0.73553
604.845,65.54008,-3.32721,0.15442,0.73495
605.545,65.61001,-3.32589,0.15481,0.73438
606.245,65.68016,-3.32589,0.15644,0.7338
606.945,65.75025,-3.32854,0.15431,0.73323
607.645,65.82049,-3.32919,0.15633,0.73266
608.345,65.89072,-3.32985,0.15415,0.73208
609.045,65.96082,-3.33117,0.1555,0.73151
609.745,66.0307,-3.33117,0.15415,0.73093
610.445,66.10082,-3.32985,0.15559,0.73036
611.145,66.1707,-3.33116,0.15828,0.72978
611.845,66.2406,-3.33017,0.15902,0.72921
612.545,66.31053,-3.33083,0.1615,0.72863
613.245,66.38093,-3.33087,0.16101,0.72806
613.945,66.45147,-3.33149,0.16242,0.72748
614.645,66.52184,-3.33281,0.16474,0.72691
615.345,66.592,-3.33281,0.16429,0.72633
616.045,66.66221,-3.33282,0.16726,0.72576
616.745,66.73229,-3.33397,0.16489,0.72518
617.445,66.8025,-3.33368,0.16494,0.7246
618.145,66.8727,-3.33511,0.17031,0.72403
618.845,66.9431,-3.33575,0.16935,0.72345
619.545,67.01335,-3.33642,0.16942,0.72287
620.245,67.08368,-3.33511,0.17006,0.7223
620.945,67.15375,-3.33507,0.16887,0.72172
621.645,67.22366,-3.33508,0.17169,0.72114
622.345,67.29378,-3.33482,0.17502,0.72057
623.045,67.36412,-3.33645,0.17608,0.71999
623.745,67.43434,-3.33785,0.17624,0.71941
624.445,67.50451,-3.3392,0.18027,0.71883
625.145,67.5746,-3.33785,0.17711,0.71826
625.845,67.645,-3.337,0.1765,0.71768
626.545,67.7153,-3.33703,0.18249,0.7171
627.245,67.7855,-3.33786,0.18332,0.71652
627.945,67.85591,-3.33786,0.18068,0.71594
628.645,67.92628,-3.33786,0.18537,0.71537
629.345,67.99674,-3.33785,0.18561,0.71479
630.045,68.06713,-3.33917,0.18728,0.71421
630.745,68.13758,-3.33917,0.18594,0.71363
631.445,68.20804,-3.33788,0.19018,0.71305
632.145,68.27849,-3.33917,0.19013,0.71247
632.845,68.3485,-3.33917,0.19038,0.71189
633.545,68.4186,-3.33912,0.18898,0.71131
634.245,68.48884,-3.34123,0.19303,0.71074
634.945,68.5594,-3.3426,0.19552,0.71016
635.645,68.62998,-3.34115,0.19731,0.70958
636.345,68.7002,-3.34115,0.19775,0.709
637.045,68.7704,-3.34183,0.19692,0.70842
637.745,68.84057,-3.34292,0.19678,0.70784
638.445,68.91096,-3.34159,0.19621,0.70726
639.145,68.98141,-3.34159,0.19876,0.70668
639.845,69.05176,-3.34297,0.20193,0.7061
640.545,69.12196,-3.34487,0.20274,0.70552
641.245,69.19215,-3.34552,0.20211,0.70494
641.945,69.2625,-3.34619,0.20466,0.70436
642.645,69.33252,-3.34487,0.20475,0.70377
643.345,69.40268,-3.34355,0.20373,0.70319
644.045,69.47283,-3.34356,0.20572,0.70261
644.745,69.54351,-3.34357,0.20772,0.70203
645.445,69.61409,-3.34388,0.20756,0.70145
646.145,69.6846,-3.34491,0.20622,0.70087
646.845,69.75485,-3.34489,0.21094,0.70029
647.545,69.8252,-3.34487,0.20722,0.69971
648.245,69.8956,-3.3452,0.20761,0.69913
648.945,69.9661,-3.34577,0.21461,0.69854
649.645,70.0365,-3.34652,0.21346,0.69796
650.345,70.10632,-3.34652,0.2127,0.69738
651.045,70.17657,-3.34652,0.21683,0.6968
651.745,70.24701,-3.34652,0.2171,0.69622
652.445,70.31793,-3.3465,0.21694,0.69564
653.145,70.38834,-3.34521,0.21839,0.69505
653.845,70.45872,-3.34609,0.21979,0.69447
654.545,70.529,-3.34612,0.22369,0.69389
655.245,70.5994,-3.34619,0.22188,0.69331
655.945,70.66971,-3.34715,0.2243,0.69272
656.645,70.7401,-3.34751,0.2237,0.69214
657.345,70.8104,-3.34817,0.22536,0.69156
658.045,70.88071,-3.34889,0.22959,0.69098
658.745,70.9511,-3.34947,0.22875,0.69039
659.445,71.02146,-3.34816,0.23054,0.68981
660.145,71.09184,-3.35028,0.22824,0.68923
660.845,71.16215,-3.35088,0.23648,0.68864
661.545,71.23262,-3.3508,0.23494,0.68806
662.245,71.30315,-3.35114,0.23558,0.68748
662.945,71.37376,-3.34976,0.2379,0.68689
663.645,71.44422,-3.34916,0.24034,0.68631
664.345,71.51469,-3.35046,0.2416,0.68573
665.045,71.58516,-3.34927,0.24474,0.68514
665.745,71.6557,-3.35005,0.24664,0.68456
666.445,71.72627,-3.35181,0.24931,0.68398
667.145,71.79684,-3.35281,0.24932,0.68339
667.845,71.8673,-3.35146,0.25191,0.68281
668.545,71.938,-3.35181,0.25242,0.68222
669.245,72.00859,-3.35115,0.2523,0.68164
669.945,72.07911,-3.35047,0.25532,0.68106
670.645,72.14969,-3.3508,0.25517,0.68047
671.345,72.22018,-3.3508,0.259,0.67989
672.045,72.29082,-3.3508,0.26048,0.6793
672.745,72.36097,-3.35254,0.26163,0.67872
673.445,72.43096,-3.35237,0.26629,0.67813
674.145,72.5008,-3.35107,0.268,0.67755
674.845,72.5709,-3.35212,0.26929,0.67696
675.545,72.64135,-3.35212,0.27323,0.67638
676.245,72.7119,-3.35211,0.27741,0.67579
676.945,72.78223,-3.35146,0.27643,0.67521
677.645,72.85248,-3.35211,0.28037,0.67463
678.345,72.92285,-3.35315,0.2812,0.67404
679.045,72.99276,-3.35312,0.27931,0.67346
679.745,73.0628,-3.35442,0.28465,0.67287
680.445,73.13292,-3.35442,0.28555,0.67228
681.145,73.20347,-3.35442,0.28572,0.6717
681.845,73.2739,-3.35515,0.28695,0.67111
682.545,73.34432,-3.35576,0.29012,0.67053
683.245,73.4152,-3.35573,0.28664,0.66994
683.945,73.48616,-3.35704,0.29084,0.66936
684.645,73.55683,-3.35704,0.28852,0.66877
685.345,73.6271,-3.35672,0.28636,0.66819
686.045,73.69739,-3.35539,0.28587,0.6676
686.745,73.76816,-3.35678,0.28791,0.66702
687.445,73.83914,-3.35672,0.28921,0.66643
688.145,73.90995,-3.35672,0.28647,0.66584
688.845,73.98052,-3.35675,0.28986,0.66526
689.545,74.05089,-3.35804,0.29306,0.66467
690.245,74.12135,-3.3598,0.29111,0.66409
690.945,74.1919,-3.36066,0.29508,0.6635
691.645,74.2626,-3.35935,0.29444,0.66291
692.345,74.33305,-3.35921,0.29624,0.66233
693.045,74.4034,-3.35803,0.29777,0.66174
693.745,74.4736,-3.35935,0.29705,0.66116
694.445,74.54397,-3.35799,0.29392,0.66057
695.145,74.6145,-3.35804,0.29881,0.65998
695.845,74.68521,-3.35804,0.30201,0.6594
696.545,74.756,-3.36004,0.30042,0.65881
697.245,74.8267,-3.36021,0.29978,0.65822
697.945,74.89712,-3.35929,0.30121,0.65764
698.645,74.96754,-3.36066,0.30445,0.65705
699.345,75.03789,-3.36199,0.3036,0.65647
700.045,75.10856,-3.36112,0.3054,0.65588
700.745,75.17919,-3.36007,0.30446,0.65529
701.445,75.25005,-3.35771,0.30884,0.65471
702.145,75.32075,-3.35639,0.30756,0.65412
702.845,75.39143,-3.35672,0.30957,0.65353
703.545,75.46191,-3.35804,0.31357,0.65295
704.245,75.53237,-3.35803,0.31154,0.65236
704.945,75.60308,-3.35935,0.31373,0.65177
705.645,75.67384,-3.35935,0.31299,0.65119
706.345,75.74459,-3.35989,0.31489,0.6506
707.045,75.81521,-3.36166,0.31628,0.65001
707.745,75.88606,-3.36166,0.31392,0.64942
708.445,75.95697,-3.36199,0.31534,0.64884
709.145,76.02806,-3.36199,0.31667,0.64825
709.845,76.09895,-3.36199,0.31471,0.64766
710.545,76.16988,-3.36233,0.31391,0.64708
711.245,76.2408,-3.36166,0.31496,0.64649
711.945,76.3117,-3.36166,0.31323,0.6459
712.645,76.38266,-3.36166,0.31731,0.64532
713.345,76.45361,-3.36164,0.31916,0.64473
714.045,76.52452,-3.36339,0.31978,0.64414
714.745,76.59536,-3.36337,0.31936,0.64355
715.445,76.6659,-3.36264,0.31364,0.64297
716.145,76.73683,-3.36311,0.32,0.64238
716.845,76.80775,-3.3633,0.31745,0.64179
717.545,76.87881,-3.36329,0.32111,0.64121
718.245,76.9495,-3.36428,0.32367,0.64062
718.945,77.0204,-3.36428,0.32366,0.64003
719.645,77.09128,-3.3633,0.32789,0.63944
720.345,77.16248,-3.3633,0.32652,0.63886
721.045,77.2333,-3.36403,0.32916,0.63827
721.745,77.30408,-3.36396,0.33068,0.63768
722.445,77.3749,-3.36396,0.33018,0.63709
723.145,77.4459,-3.36396,0.33012,0.63651
723.845,77.51694,-3.36592,0.32775,0.63592
724.545,77.5877,-3.36736,0.33206,0.63533
725.245,77.65853,-3.36591,0.33088,0.63475
725.945,77.72952,-3.36725,0.33324,0.63416
726.645,77.8005,-3.36725,0.33512,0.63357
727.345,77.87128,-3.36626,0.33271,0.63298
728.045,77.94181,-3.36626,0.33811,0.6324
728.745,78.01215,-3.36518,0.33297,0.63181
729.445,78.08266,-3.36519,0.33287,0.63122
730.145,78.1533,-3.36613,0.33328,0.63063
730.845,78.22409,-3.36627,0.33683,0.63005
731.545,78.29457,-3.36758,0.34141,0.62946
732.245,78.36492,-3.36758,0.33941,0.62887
732.945,78.43545,-3.36758,0.33414,0.62828
733.645,78.50607,-3.36758,0.33923,0.6277
734.345,78.57691,-3.36896,0.33818,0.62711
735.045,78.64747,-3.36758,0.33932,0.62652
735.745,78.71795,-3.36626,0.33624,0.62593
736.445,78.78829,-3.36758,0.34012,0.62535
737.145,78.8591,-3.36889,0.3408,0.62476
737.845,78.93006,-3.37153,0.34171,0.62417
738.545,79.00099,-3.37153,0.34129,0.62359
739.245,79.07172,-3.37024,0.33949,0.623
739.945,79.1425,-3.3689,0.34139,0.62241
740.645,79.21336,-3.36874,0.34577,0.62182
741.345,79.28448,-3.36656,0.33955,0.62124
742.045,79.35554,-3.36626,0.33964,0.62065
742.745,79.4268,-3.36626,0.3458,0.62006
743.445,79.49781,-3.36626,0.34374,0.61947
744.145,79.5692,-3.36854,0.34307,0.61889
744.845,79.64022,-3.37044,0.3423,0.6183
745.545,79.7114,-3.37173,0.34637,0.61771
746.245,79.78222,-3.37311,0.34779,0.61713
746.945,79.8535,-3.37311,0.34834,0.61654
747.645,79.92474,-3.37175,0.34713,0.61595
748.345,79.996,-3.37178,0.34956,0.61536
749.045,80.06688,-3.37171,0.34468,0.61478
749.745,80.13784,-3.37306,0.34838,0.61419
750.445,80.20864,-3.37088,0.34861,0.6136
751.145,80.2796,-3.37043,0.3494,0.61302
751.845,80.35044,-3.37043,0.35282,0.61243
752.545,80.42145,-3.37043,0.35554,0.61184
753.245,80.49239,-3.37175,0.35432,0.61125
753.945,80.56325,-3.37306,0.35743,0.61067
754.645,80.63395,-3.37306,0.35863,0.61008
755.345,80.70475,-3.37173,0.35839,0.60949
756.045,80.77571,-3.37166,0.35871,0.60891
756.745,80.84674,-3.37148,0.35997,0.60832
757.445,80.91765,-3.37175,0.35869,0.60773
758.145,80.98858,-3.37307,0.36141,0.60715
758.845,81.05974,-3.37308,0.36086,0.60656
759.545,81.13091,-3.37281,0.36018,0.60597
760.245,81.20222,-3.37309,0.36273,0.60539
760.945,81.27334,-3.37307,0.3611,0.6048
761.645,81.34437,-3.37443,0.361,0.60421
762.345,81.4154,-3.37429,0.36189,0.60363
763.045,81.48646,-3.37709,0.36102,0.60304
763.745,81.5577,-3.3756,0.3602,0.60245
764.445,81.62876,-3.37482,0.35978,0.60187
765.145,81.6998,-3.37307,0.36219,0.60128
765.845,81.77079,-3.37307,0.36501,0.60069
766.545,81.84175,-3.37438,0.36463,0.60011
767.245,81.9128,-3.37438,0.36705,0.59952
767.945,81.98397,-3.37437,0.37249,0.59894
768.645,82.05513,-3.37569,0.37337,0.59835
769.345,82.12617,-3.37569,0.37167,0.59776
770.045,82.19713,-3.37569,0.37644,0.59718
770.745,82.26824,-3.3757,0.38116,0.59659
771.445,82.33926,-3.37833,0.37843,0.596
772.145,82.41019,-3.37833,0.38003,0.59542
772.845,82.48116,-3.37724,0.37567,0.59483
773.545,82.5522,-3.37559,0.37534,0.59425
774.245,82.62312,-3.37427,0.37683,0.59366
774.945,82.6942,-3.37554,0.3805,0.59308
775.645,82.76528,-3.37833,0.38324,0.59249
776.345,82.83662,-3.37765,0.38553,0.5919
777.045,82.90767,-3.37701,0.38699,0.59132
777.745,82.979,-3.37701,0.38279,0.59073
778.445,83.0501,-3.37833,0.38655,0.59015
779.145,83.12142,-3.37828,0.38699,0.58956
779.845,83.19248,-3.37758,0.38937,0.58898
780.545,83.26398,-3.37966,0.38978,0.58839
781.245,83.3353,-3.38096,0.38562,0.58781
781.945,83.40638,-3.37859,0.39006,0.58722
782.645,83.47756,-3.37759,0.38914,0.58663
783.345,83.54887,-3.37998,0.39177,0.58605
784.045,83.62034,-3.37964,0.39066,0.58546
784.745,83.69154,-3.37964,0.38954,0.58488
785.445,83.76271,-3.37964,0.39265,0.58429
786.145,83.83386,-3.38096,0.39129,0.58371
786.845,83.9051,-3.38096,0.39057,0.58313
787.545,83.97601,-3.38096,0.3899,0.58254
788.245,84.04685,-3.38079,0.3897,0.58196
788.945,84.1177,-3.37998,0.39428,0.58137
789.645,84.18855,-3.37998,0.39364,0.58079
790.345,84.25976,-3.37998,0.3971,0.5802
791.045,84.33091,-3.37998,0.39449,0.57962
791.745,84.40223,-3.38225,0.3967,0.57903
792.445,84.47331,-3.38272,0.39849,0.57845
793.145,84.54449,-3.38143,0.40063,0.57786
793.845,84.61568,-3.38276,0.39951,0.57728
794.545,84.6869,-3.38272,0.39945,0.5767
795.245,84.758,-3.38128,0.39635,0.57611
795.945,84.82939,-3.38106,0.40067,0.57553
796.645,84.90052,-3.3814,0.39874,0.57494
797.345,84.97162,-3.38275,0.40487,0.57436
797.545,84.99175,-3.38271,0.40395,0.57419