File: 01_Data/Pallet_Wood/STA/N2/10K_min/Pallet_Wood_STA_N2_10KData_220413_R2.csv
##Temp./Â°C,Time/min,Mass loss(subtr.2)/mg,DSC(subtr.2)/(mW/mg),Sensit./(uV/mW)
49.75,10.01,-0.00362,0.0219182,1.06051
50.45,10.76957,-0.00407847,0.06352936,1.06036
51.15,10.97288,-0.00304455,0.09599188,1.06022
51.85,11.1252,-0.00173708,0.11876,1.06007
52.55,11.25394,-0.00201893,0.13959,1.05993
53.25,11.369,-0.00313627,0.158,1.05978
53.95,11.4743,-0.00223484,0.17425,1.05963
54.65,11.573,-0.002198626,0.18625,1.05948
55.35,11.66748,-0.002086994,0.19959,1.05933
56.05,11.7583,-0.00191476,0.20945,1.05918
56.75,11.8459,-0.002203292,0.22072,1.05903
57.45,11.93115,-0.0021709,0.22782,1.05887
58.15,12.0151,-0.003186445,0.23866,1.05872
58.85,12.09787,-0.00227327,0.24602,1.05857
59.55,12.179,-0.002106997,0.25021,1.05841
60.25,12.25955,-0.002102952,0.25697,1.05825
60.95,12.33905,-0.003463301,0.26278,1.0581
61.65,12.4177,-0.002266058,0.26583,1.05794
62.35,12.49585,-0.00206434,0.27125,1.05778
63.05,12.57358,-0.002014721,0.27582,1.05762
63.75,12.6508,-0.0031021,0.28044,1.05746
64.45,12.72764,-0.002044929,0.28586,1.05729
65.15,12.8043,-0.000823404,0.28848,1.05713
65.85,12.8805,-0.003412343,0.2931,1.05697
66.55,12.95653,-0.003415879,0.29491,1.0568
67.25,13.03204,-0.00403083,0.29977,1.05664
67.95,13.10762,-0.004387562,0.30056,1.05647
68.65,13.1827,-0.004931738,0.30595,1.0563
69.35,13.25772,-0.00351779,0.30817,1.05613
70.05,13.3321,-0.004835855,0.3131,1.05597
70.75,13.40668,-0.003901939,0.31336,1.05579
71.45,13.4812,-0.003555949,0.31714,1.05562
72.15,13.556,-0.00483007,0.32164,1.05545
72.85,13.6304,-0.00454639,0.32344,1.05528
73.55,13.7046,-0.005504517,0.32557,1.05511
74.25,13.7783,-0.00581823,0.33083,1.05493
74.95,13.85154,-0.00725133,0.33331,1.05475
75.65,13.92462,-0.00746337,0.33517,1.05458
76.35,13.9977,-0.006311361,0.33626,1.0544
77.05,14.0707,-0.007460591,0.34077,1.05422
77.75,14.14308,-0.00646996,0.34155,1.05404
78.45,14.21566,-0.00778841,0.34501,1.05386
79.15,14.28781,-0.007832287,0.34807,1.05368
79.85,14.36028,-0.008780088,0.34681,1.0535
80.55,14.43268,-0.00845131,0.35221,1.05332
81.25,14.5051,-0.008779953,0.35328,1.05313
81.95,14.577,-0.008780136,0.35362,1.05295
82.65,14.64882,-0.01009158,0.35368,1.05276
83.35,14.72025,-0.01076005,0.35602,1.05258
84.05,14.79171,-0.009926392,0.35684,1.05239
84.75,14.86271,-0.01075002,0.35801,1.0522
85.45,14.93401,-0.01075011,0.35601,1.05201
86.15,15.00501,-0.01200263,0.35743,1.05182
86.85,15.07581,-0.01207,0.35979,1.05163
87.55,15.1465,-0.01208205,0.35907,1.05144
88.25,15.21725,-0.01207221,0.35929,1.05125
88.95,15.2879,-0.01335169,0.35851,1.05106
89.65,15.35837,-0.01339019,0.35799,1.05086
90.35,15.4286,-0.01316615,0.35847,1.05067
91.05,15.4987,-0.0120712,0.35492,1.05047
91.75,15.56889,-0.01338962,0.35714,1.05027
92.45,15.6393,-0.01339037,0.35508,1.05008
93.15,15.70979,-0.01469951,0.35249,1.04988
93.85,15.7799,-0.0147,0.35322,1.04968
94.55,15.84975,-0.01373507,0.35242,1.04948
95.25,15.91944,-0.01437005,0.35103,1.04928
95.95,15.989,-0.01467548,0.35203,1.04908
96.65,16.05821,-0.01469964,0.35136,1.04887
97.35,16.12718,-0.01602395,0.35014,1.04867
98.05,16.19623,-0.01602013,0.34843,1.04846
98.75,16.26535,-0.01731044,0.3486,1.04826
99.45,16.33458,-0.01602756,0.34684,1.04805
100.15,16.40391,-0.01638762,0.34471,1.04785
100.85,16.47286,-0.01559916,0.3433,1.04764
101.55,16.54189,-0.01569001,0.34177,1.04743
102.25,16.61068,-0.01569,0.34296,1.04722
102.95,16.67985,-0.01569,0.34142,1.04701
103.65,16.74849,-0.01566566,0.3423,1.0468
104.35,16.81711,-0.01672045,0.34008,1.04658
105.05,16.88551,-0.0160117,0.34169,1.04637
105.75,16.95409,-0.01674043,0.33941,1.04616
106.45,17.02267,-0.01667381,0.3389,1.04594
107.15,17.09133,-0.01733077,0.33963,1.04573
107.85,17.15987,-0.01635011,0.33976,1.04551
108.55,17.22853,-0.01602262,0.34019,1.04529
109.25,17.2971,-0.01607264,0.33799,1.04507
109.95,17.3656,-0.0163504,0.33731,1.04486
110.65,17.434,-0.01671582,0.33744,1.04464
111.35,17.5024,-0.01732383,0.33856,1.04441
112.05,17.57098,-0.01770091,0.33769,1.04419
112.75,17.63953,-0.01670857,0.33829,1.04397
113.45,17.7079,-0.01667547,0.33839,1.04375
114.15,17.7761,-0.01865811,0.33974,1.04352
114.85,17.8444,-0.01733524,0.33747,1.0433
115.55,17.91273,-0.01667581,0.33771,1.04307
116.25,17.98108,-0.01799254,0.34066,1.04284
116.95,18.04964,-0.01734115,0.33747,1.04262
117.65,18.1182,-0.01734287,0.33818,1.04239
118.35,18.18668,-0.01603594,0.33987,1.04216
119.05,18.25481,-0.01664667,0.34054,1.04193
119.75,18.32305,-0.01733013,0.34109,1.0417
120.45,18.39145,-0.01732973,0.3408,1.04147
121.15,18.4598,-0.01601816,0.34332,1.04123
121.85,18.52792,-0.01734284,0.34355,1.041
122.55,18.59606,-0.01741108,0.34182,1.04077
123.25,18.66406,-0.01667898,0.34428,1.04053
123.95,18.73191,-0.0160257,0.34444,1.04029
124.65,18.79973,-0.01733008,0.34312,1.04006
125.35,18.86779,-0.01667806,0.34507,1.03982
126.05,18.93639,-0.01667001,0.34629,1.03958
126.75,19.00467,-0.01654961,0.34642,1.03934
127.45,19.07284,-0.01601003,0.34517,1.0391
128.15,19.14034,-0.01601576,0.34679,1.03886
128.85,19.2086,-0.01602193,0.34838,1.03862
129.55,19.27646,-0.01602,0.34905,1.03838
130.25,19.345,-0.0160326,0.35216,1.03813
130.95,19.41314,-0.01733903,0.35255,1.03789
131.65,19.4812,-0.01733956,0.35374,1.03764
132.35,19.5489,-0.01635578,0.35572,1.0374
133.05,19.61682,-0.01635,0.35632,1.03715
133.75,19.6846,-0.01635023,0.3566,1.0369
134.45,19.75255,-0.01688849,0.35634,1.03665
135.15,19.82045,-0.01663237,0.35629,1.03641
135.85,19.88831,-0.01601864,0.35603,1.03616
136.55,19.9561,-0.01470326,0.35872,1.0359
137.25,20.02378,-0.01601813,0.35928,1.03565
137.95,20.09134,-0.01602,0.35921,1.0354
138.65,20.1589,-0.01601993,0.36125,1.03515
139.35,20.22641,-0.01471867,0.36097,1.03489
140.05,20.2941,-0.0147,0.36245,1.03464
140.75,20.36182,-0.0146999,0.36584,1.03438
141.45,20.42943,-0.01600075,0.36371,1.03413
142.15,20.49682,-0.01602499,0.36545,1.03387
142.85,20.56411,-0.01536137,0.36738,1.03361
143.55,20.63127,-0.01533725,0.36677,1.03335
144.25,20.69866,-0.01470997,0.3663,1.03309
144.95,20.7656,-0.01471013,0.36682,1.03283
145.65,20.83286,-0.01586799,0.3688,1.03257
146.35,20.90019,-0.01470001,0.36953,1.03231
147.05,20.96772,-0.0147,0.37074,1.03204
147.75,21.03531,-0.0147,0.3719,1.03178
148.45,21.1027,-0.01470013,0.37396,1.03152
149.15,21.16986,-0.01469628,0.37408,1.03125
149.85,21.23704,-0.01511766,0.37526,1.03098
150.55,21.30421,-0.01609531,0.37708,1.03072
151.25,21.37143,-0.01338969,0.37798,1.03045
151.95,21.4387,-0.01425651,0.3798,1.03018
152.65,21.50579,-0.01469999,0.37868,1.02991
153.35,21.57291,-0.01469942,0.38073,1.02964
154.05,21.64019,-0.01338154,0.3804,1.02937
154.75,21.7073,-0.01338,0.38038,1.0291
155.45,21.77453,-0.01337393,0.38149,1.02883
156.15,21.84157,-0.01470034,0.38413,1.02855
156.85,21.90869,-0.01471586,0.38404,1.02828
157.55,21.9757,-0.01411117,0.38632,1.028
158.25,22.04278,-0.01338009,0.38629,1.02773
158.95,22.10973,-0.01338,0.3888,1.02745
159.65,22.17681,-0.01344151,0.39135,1.02717
160.35,22.2439,-0.01405047,0.38842,1.0269
161.05,22.31108,-0.0129779,0.39305,1.02662
161.75,22.3782,-0.01272963,0.39126,1.02634
162.45,22.44538,-0.01405608,0.3923,1.02606
163.15,22.51256,-0.01402717,0.39477,1.02578
163.85,22.57949,-0.01403998,0.39553,1.02549
164.55,22.64646,-0.01173819,0.39796,1.02521
165.25,22.71336,-0.0117401,0.39525,1.02493
165.95,22.78055,-0.01304245,0.39873,1.02464
166.65,22.8477,-0.01305,0.39609,1.02436
167.35,22.91464,-0.01304381,0.39919,1.02407
168.05,22.98156,-0.01438086,0.40189,1.02379
168.75,23.0484,-0.01403985,0.40235,1.0235
169.45,23.11564,-0.01278063,0.40274,1.02321
170.15,23.18262,-0.01273,0.40473,1.02292
170.85,23.2494,-0.01273,0.4055,1.02263
171.55,23.31607,-0.01273,0.40327,1.02234
172.25,23.38299,-0.01272998,0.40723,1.02205
172.95,23.44993,-0.01272711,0.40766,1.02176
173.65,23.51698,-0.01469877,0.40954,1.02146
174.35,23.58393,-0.0146893,0.40962,1.02117
175.05,23.65095,-0.01339047,0.41055,1.02088
175.75,23.71787,-0.01339,0.41032,1.02058
176.45,23.78494,-0.01338993,0.40888,1.02029
177.15,23.85202,-0.01313973,0.41273,1.01999
177.85,23.91899,-0.0137136,0.41386,1.01969
178.55,23.98601,-0.01240161,0.41441,1.01939
179.25,24.053,-0.01336634,0.4155,1.01909
179.95,24.11962,-0.01370987,0.41416,1.01879
180.65,24.18655,-0.01335231,0.41659,1.01849
181.35,24.25339,-0.01207067,0.41716,1.01819
182.05,24.3204,-0.01370446,0.42047,1.01789
182.75,24.3873,-0.01389902,0.42153,1.01759
183.45,24.45405,-0.01338628,0.42267,1.01729
184.15,24.52078,-0.01338908,0.42175,1.01698
184.85,24.58747,-0.01469898,0.42297,1.01668
185.55,24.6542,-0.01465264,0.424,1.01637
186.25,24.72103,-0.01339007,0.42485,1.01606
186.95,24.7877,-0.01339001,0.42377,1.01576
187.65,24.85442,-0.01330807,0.42591,1.01545
188.35,24.92135,-0.01471002,0.42528,1.01514
189.05,24.98818,-0.01471,0.42699,1.01483
189.75,25.05506,-0.01471001,0.42709,1.01452
190.45,25.12184,-0.01466075,0.42685,1.01421
191.15,25.18873,-0.01438974,0.42995,1.0139
191.85,25.2555,-0.01338972,0.43123,1.01359
192.55,25.32229,-0.01339464,0.43341,1.01327
193.25,25.38926,-0.01404868,0.43303,1.01296
193.95,25.45627,-0.01407602,0.43483,1.01264
194.65,25.5232,-0.01535987,0.43605,1.01233
195.35,25.58985,-0.01536045,0.43623,1.01201
196.05,25.65638,-0.01470096,0.43599,1.0117
196.75,25.723,-0.01483644,0.43864,1.01138
197.45,25.78971,-0.01602001,0.43903,1.01106
198.15,25.85639,-0.01602,0.44227,1.01074
198.85,25.92321,-0.01601988,0.44328,1.01042
199.55,25.99006,-0.01634965,0.44168,1.0101
200.25,26.05692,-0.01635,0.4417,1.00978
200.95,26.1238,-0.01635,0.44358,1.00946
201.65,26.19065,-0.01635,0.44652,1.00913
202.35,26.25771,-0.01634957,0.44727,1.00881
203.05,26.32455,-0.01767651,0.44671,1.00849
203.75,26.39159,-0.01767,0.44599,1.00816
204.45,26.45839,-0.01767,0.44899,1.00784
205.15,26.52542,-0.01767,0.4485,1.00751
205.85,26.5924,-0.01767,0.44963,1.00718
206.55,26.6593,-0.01767,0.45065,1.00685
207.25,26.72578,-0.01767,0.45283,1.00653
207.95,26.79239,-0.01767016,0.45496,1.0062
208.65,26.8591,-0.01865912,0.45421,1.00587
209.35,26.92612,-0.01865941,0.45433,1.00554
210.05,26.99305,-0.01898019,0.45725,1.00521
210.75,27.0599,-0.01898302,0.45704,1.00487
211.45,27.1268,-0.01833197,0.45778,1.00454
212.15,27.1934,-0.02035775,0.45883,1.00421
212.85,27.2601,-0.02062436,0.46066,1.00387
213.55,27.32695,-0.02094998,0.46189,1.00354
214.25,27.3938,-0.02095143,0.46346,1.0032
214.95,27.4608,-0.02226922,0.46386,1.00287
215.65,27.52764,-0.02227012,0.46531,1.00253
216.35,27.5944,-0.02356446,0.46603,1.00219
217.05,27.66126,-0.02359,0.46655,1.00185
217.75,27.7279,-0.02354869,0.47002,1.00151
218.45,27.79475,-0.02556514,0.47006,1.00117
219.15,27.8613,-0.02555999,0.4715,1.00083
219.85,27.92807,-0.02673594,0.47342,1.00049
220.55,27.99472,-0.02687374,0.47563,1.00015
221.25,28.06165,-0.02820036,0.47606,0.99981
221.95,28.1284,-0.0282,0.47914,0.99946
222.65,28.1953,-0.02821344,0.47877,0.99912
223.35,28.2619,-0.02950923,0.48154,0.99877
224.05,28.32866,-0.02950884,0.48133,0.99843
224.75,28.3952,-0.03156936,0.48017,0.99808
225.45,28.4619,-0.03148954,0.48238,0.99774
226.15,28.5285,-0.03280014,0.48418,0.99739
226.85,28.59512,-0.03280013,0.48584,0.99704
227.55,28.66174,-0.03390383,0.48599,0.99669
228.25,28.7284,-0.03410965,0.48806,0.99634
228.95,28.7954,-0.03543651,0.48681,0.99599
229.65,28.8622,-0.0367248,0.4884,0.99564
230.35,28.929,-0.03806058,0.49377,0.99529
231.05,28.99573,-0.03937784,0.49152,0.99494
231.75,29.06235,-0.03976917,0.49139,0.99458
232.45,29.12896,-0.04101501,0.4912,0.99423
233.15,29.1956,-0.04239881,0.49507,0.99388
233.85,29.26228,-0.04383485,0.49487,0.99352
234.55,29.329,-0.04408205,0.49621,0.99316
235.25,29.3957,-0.04624908,0.49626,0.99281
235.95,29.46227,-0.04759838,0.49671,0.99245
236.65,29.52925,-0.04853365,0.49437,0.99209
237.35,29.59621,-0.04886672,0.49576,0.99174
238.05,29.6634,-0.05184514,0.49421,0.99138
238.75,29.72992,-0.05023152,0.4935,0.99102
239.45,29.79638,-0.05283917,0.49656,0.99066
240.15,29.8629,-0.05353137,0.49654,0.99029
240.85,29.9296,-0.05615751,0.49778,0.98993
241.55,29.9971,-0.0590852,0.49991,0.98957
242.25,30.06411,-0.06032817,0.50373,0.98921
242.95,30.13121,-0.06141966,0.50349,0.98884
243.65,30.19775,-0.06306321,0.50239,0.98848
244.35,30.2646,-0.06568653,0.50527,0.98811
245.05,30.33127,-0.06837032,0.50703,0.98775
245.75,30.398,-0.06966423,0.50704,0.98738
246.45,30.46463,-0.07103015,0.50917,0.98701
247.15,30.5314,-0.07228983,0.51116,0.98665
247.85,30.5983,-0.07366629,0.51088,0.98628
248.55,30.6653,-0.07651212,0.5097,0.98591
249.25,30.7321,-0.08082659,0.51121,0.98554
249.95,30.79893,-0.08330387,0.51108,0.98517
250.65,30.86553,-0.08551643,0.51349,0.9848
251.35,30.93236,-0.08838629,0.5144,0.98442
252.05,30.99938,-0.08846178,0.51438,0.98405
252.75,31.06608,-0.09196691,0.51765,0.98368
253.45,31.1331,-0.0955058,0.51771,0.98331
254.15,31.19985,-0.099365,0.51837,0.98293
254.85,31.2666,-0.10172,0.51914,0.98256
255.55,31.3335,-0.10556,0.51814,0.98218
256.25,31.40038,-0.10885,0.51942,0.9818
256.95,31.4673,-0.11292,0.52165,0.98143
257.65,31.5339,-0.11634,0.5227,0.98105
258.35,31.60077,-0.11935,0.52466,0.98067
259.05,31.6675,-0.12272,0.52707,0.98029
259.75,31.7345,-0.12563,0.52905,0.97991
260.45,31.80122,-0.13041,0.52925,0.97953
261.15,31.86815,-0.13534,0.53099,0.97915
261.85,31.93488,-0.13844,0.53237,0.97877
262.55,32.00173,-0.14388,0.53449,0.97839
263.25,32.0685,-0.14824,0.53493,0.97801
263.95,32.13532,-0.15377,0.53463,0.97762
264.65,32.202,-0.15896,0.53842,0.97724
265.35,32.26869,-0.16231,0.54155,0.97685
266.05,32.33542,-0.16693,0.54522,0.97647
266.75,32.40218,-0.17218,0.54492,0.97608
267.45,32.46918,-0.17792,0.54566,0.9757
268.15,32.5362,-0.18437,0.549,0.97531
268.85,32.60327,-0.18965,0.55001,0.97492
269.55,32.67023,-0.19627,0.5527,0.97453
270.25,32.7374,-0.20176,0.55438,0.97414
270.95,32.8044,-0.20842,0.55659,0.97375
271.65,32.87158,-0.21578,0.55879,0.97336
272.35,32.93837,-0.22093,0.55968,0.97297
273.05,33.0053,-0.22735,0.56118,0.97258
273.75,33.0721,-0.23575,0.56403,0.97219
274.45,33.1391,-0.24341,0.56599,0.97179
275.15,33.20642,-0.25089,0.56759,0.9714
275.85,33.2735,-0.2579,0.5682,0.97101
276.55,33.34042,-0.26561,0.5708,0.97061
277.25,33.40722,-0.27468,0.57373,0.97022
277.95,33.4741,-0.28308,0.57184,0.96982
278.65,33.5413,-0.29145,0.57639,0.96942
279.35,33.60836,-0.30064,0.57606,0.96903
280.05,33.67523,-0.30917,0.57736,0.96863
280.75,33.7421,-0.31817,0.57804,0.96823
281.45,33.80894,-0.32977,0.57853,0.96783
282.15,33.876,-0.33678,0.58141,0.96743
282.85,33.94288,-0.34544,0.58037,0.96703
283.55,34.00976,-0.35425,0.58063,0.96663
284.25,34.0766,-0.36568,0.58193,0.96623
284.95,34.14347,-0.37629,0.58261,0.96583
285.65,34.21024,-0.38658,0.58248,0.96542
286.35,34.2772,-0.39633,0.58213,0.96502
287.05,34.34413,-0.4077,0.58207,0.96462
287.75,34.41133,-0.41718,0.58284,0.96421
288.45,34.47828,-0.42829,0.58168,0.96381
289.15,34.54487,-0.43939,0.57988,0.9634
289.85,34.61169,-0.44894,0.58144,0.963
290.55,34.67853,-0.46235,0.57801,0.96259
291.25,34.74589,-0.47345,0.57901,0.96218
291.95,34.81299,-0.48405,0.58086,0.96177
292.65,34.8802,-0.4978,0.57937,0.96137
293.35,34.9471,-0.50806,0.58075,0.96096
294.05,35.01404,-0.51977,0.57753,0.96055
294.75,35.08083,-0.53164,0.57694,0.96014
295.45,35.14798,-0.54439,0.57891,0.95972
296.15,35.215,-0.55304,0.57827,0.95931
296.85,35.2819,-0.56683,0.57378,0.9589
297.55,35.34871,-0.57879,0.57565,0.95849
298.25,35.41567,-0.59008,0.57575,0.95807
298.95,35.48267,-0.60225,0.57641,0.95766
299.65,35.5498,-0.61498,0.5767,0.95725
300.35,35.61673,-0.62589,0.57696,0.95683
301.05,35.68385,-0.63829,0.57594,0.95642
301.75,35.75087,-0.65081,0.57735,0.956
302.45,35.818,-0.66211,0.57452,0.95558
303.15,35.88519,-0.67467,0.57681,0.95516
303.85,35.95232,-0.68753,0.57729,0.95475
304.55,36.0194,-0.69945,0.57569,0.95433
305.25,36.08644,-0.712,0.57942,0.95391
305.95,36.15355,-0.72463,0.57859,0.95349
306.65,36.22061,-0.73712,0.57884,0.95307
307.35,36.28776,-0.74952,0.58057,0.95265
308.05,36.35485,-0.76318,0.58141,0.95223
308.75,36.42204,-0.7753,0.58218,0.9518
309.45,36.4891,-0.78739,0.58403,0.95138
310.15,36.55637,-0.79969,0.58338,0.95096
310.85,36.6235,-0.81164,0.58508,0.95053
311.55,36.69058,-0.82465,0.58898,0.95011
312.25,36.75768,-0.83823,0.58884,0.94968
312.95,36.82478,-0.85075,0.59136,0.94926
313.65,36.8919,-0.86382,0.59382,0.94883
314.35,36.95901,-0.87791,0.59553,0.94841
315.05,37.02604,-0.89028,0.59692,0.94798
315.75,37.09317,-0.90561,0.6003,0.94755
316.45,37.16028,-0.9177,0.60214,0.94712
317.15,37.22739,-0.93199,0.60444,0.94669
317.85,37.2947,-0.94525,0.60674,0.94627
318.55,37.3617,-0.9606,0.60844,0.94584
319.25,37.4289,-0.97388,0.61178,0.9454
319.95,37.4962,-0.98693,0.61666,0.94497
320.65,37.56351,-0.99933,0.61806,0.94454
321.35,37.631,-1.01431,0.62341,0.94411
322.05,37.69847,-1.029,0.6246,0.94368
322.75,37.76582,-1.044,0.63181,0.94324
323.45,37.8331,-1.05756,0.63322,0.94281
324.15,37.90015,-1.07289,0.63752,0.94238
324.85,37.9675,-1.08825,0.63951,0.94194
325.55,38.035,-1.10157,0.64441,0.94151
326.25,38.10238,-1.11665,0.64744,0.94107
326.95,38.1701,-1.13254,0.65187,0.94063
327.65,38.23765,-1.14669,0.65434,0.9402
328.35,38.30535,-1.16245,0.65708,0.93976
329.05,38.37297,-1.17809,0.66194,0.93932
329.75,38.44057,-1.19363,0.66377,0.93888
330.45,38.5081,-1.20785,0.67063,0.93844
331.15,38.57561,-1.22324,0.67355,0.938
331.85,38.64315,-1.23868,0.68027,0.93756
332.55,38.71071,-1.25465,0.68455,0.93712
333.25,38.77839,-1.27123,0.68875,0.93668
333.95,38.84582,-1.28773,0.69381,0.93624
334.65,38.91364,-1.30715,0.69997,0.93579
335.35,38.98114,-1.32076,0.70691,0.93535
336.05,39.04889,-1.33569,0.71152,0.93491
336.75,39.11649,-1.35439,0.71787,0.93446
337.45,39.1841,-1.37109,0.72152,0.93402
338.15,39.25173,-1.38727,0.72781,0.93357
338.85,39.31927,-1.40458,0.73565,0.93313
339.55,39.3869,-1.42415,0.74211,0.93268
340.25,39.4546,-1.44238,0.7495,0.93224
340.95,39.52216,-1.45943,0.75549,0.93179
341.65,39.5899,-1.47986,0.75942,0.93134
342.35,39.65766,-1.49703,0.76852,0.93089
343.05,39.72487,-1.51667,0.77737,0.93044
343.75,39.79244,-1.53723,0.78477,0.92999
344.45,39.86014,-1.55485,0.79214,0.92954
345.15,39.92841,-1.57487,0.80276,0.92909
345.85,39.99617,-1.59568,0.80958,0.92864
346.55,40.06369,-1.61684,0.81978,0.92819
347.25,40.13156,-1.63718,0.82947,0.92774
347.95,40.1995,-1.65777,0.8385,0.92729
348.65,40.2676,-1.68157,0.85019,0.92683
349.35,40.3354,-1.70428,0.85966,0.92638
350.05,40.40318,-1.72566,0.87217,0.92593
350.75,40.47101,-1.75007,0.88237,0.92547
351.45,40.53875,-1.7707,0.89231,0.92502
352.15,40.60653,-1.79427,0.90279,0.92456
352.85,40.67438,-1.81886,0.91669,0.92411
353.55,40.7423,-1.84415,0.92611,0.92365
354.25,40.8102,-1.86792,0.93747,0.92319
354.95,40.87827,-1.89616,0.94909,0.92274
355.65,40.94632,-1.92119,0.96265,0.92228
356.35,41.01446,-1.9479,0.97399,0.92182
357.05,41.08207,-1.97362,0.98624,0.92136
357.75,41.15,-2.002,0.99601,0.9209
358.45,41.21796,-2.03011,1.00755,0.92044
359.15,41.28635,-2.05945,1.0182,0.91998
359.85,41.35433,-2.08732,1.02586,0.91952
360.55,41.42224,-2.1163,1.03783,0.91906
361.25,41.49006,-2.14539,1.04544,0.9186
361.95,41.55803,-2.1759,1.05215,0.91813
362.65,41.6261,-2.20538,1.05905,0.91767
363.35,41.69419,-2.23586,1.06374,0.91721
364.05,41.7622,-2.26644,1.06826,0.91674
364.75,41.83035,-2.30039,1.06975,0.91628
365.45,41.8983,-2.32985,1.07276,0.91581
366.15,41.96634,-2.35846,1.07099,0.91535
366.85,42.0341,-2.39041,1.06659,0.91488
367.55,42.10207,-2.42049,1.06534,0.91442
368.25,42.1701,-2.45253,1.05585,0.91395
368.95,42.23837,-2.48382,1.04699,0.91348
369.65,42.30628,-2.51468,1.03407,0.91301
370.35,42.3742,-2.54339,1.01911,0.91255
371.05,42.44173,-2.5717,1.00454,0.91208
371.75,42.50945,-2.60207,0.9804,0.91161
372.45,42.5772,-2.62854,0.95933,0.91114
373.15,42.6449,-2.65551,0.93417,0.91067
373.85,42.71266,-2.68226,0.90476,0.9102
374.55,42.78032,-2.70675,0.87333,0.90973
375.25,42.84811,-2.73114,0.84039,0.90925
375.95,42.916,-2.75383,0.80438,0.90878
376.65,42.9837,-2.77643,0.76826,0.90831
377.35,43.05142,-2.79717,0.72756,0.90784
378.05,43.11888,-2.81409,0.68637,0.90736
378.75,43.18631,-2.83223,0.64546,0.90689
379.45,43.25392,-2.84906,0.60426,0.90641
380.15,43.32114,-2.865,0.56382,0.90594
380.85,43.3887,-2.87872,0.52379,0.90546
381.55,43.45606,-2.89077,0.48534,0.90499
382.25,43.52296,-2.90134,0.44634,0.90451
382.95,43.59042,-2.91126,0.4075,0.90403
383.65,43.65791,-2.9203,0.37637,0.90356
384.35,43.72618,-2.92639,0.34247,0.90308
385.05,43.7941,-2.9339,0.31459,0.9026
385.75,43.86187,-2.93895,0.29206,0.90212
386.45,43.9296,-2.94539,0.2677,0.90164
387.15,43.9973,-2.95045,0.24844,0.90116
387.85,44.06494,-2.95241,0.23328,0.90068
388.55,44.1325,-2.95527,0.2183,0.9002
389.25,44.20044,-2.95803,0.20874,0.89972
389.95,44.26838,-2.96095,0.20018,0.89924
390.65,44.3365,-2.9641,0.19292,0.89876
391.35,44.40435,-2.96547,0.18891,0.89828
392.05,44.47235,-2.96842,0.18527,0.8978
392.75,44.5402,-2.97131,0.18093,0.89731
393.45,44.6083,-2.97541,0.17683,0.89683
394.15,44.67625,-2.97534,0.1715,0.89634
394.85,44.74426,-2.97658,0.17025,0.89586
395.55,44.8122,-2.97952,0.169,0.89538
396.25,44.88033,-2.98082,0.16614,0.89489
396.95,44.9486,-2.98336,0.16451,0.8944
397.65,45.01681,-2.98468,0.16266,0.89392
398.35,45.08486,-2.98757,0.16159,0.89343
399.05,45.15295,-2.98754,0.15885,0.89294
399.75,45.22105,-2.99018,0.15672,0.89246
400.45,45.28927,-2.99056,0.15435,0.89197
401.15,45.35752,-2.99312,0.15033,0.89148
401.85,45.42561,-2.9945,0.14992,0.89099
402.55,45.49388,-2.99349,0.14808,0.8905
403.25,45.5621,-2.9945,0.14481,0.89001
403.95,45.63037,-2.99699,0.14228,0.88952
404.65,45.69843,-3.00048,0.14525,0.88903
405.35,45.7667,-3.00305,0.14147,0.88854
406.05,45.83495,-3.00597,0.14036,0.88805
406.75,45.90345,-3.01005,0.1369,0.88756
407.45,45.97166,-3.01212,0.1362,0.88706
408.15,46.03983,-3.01406,0.13533,0.88657
408.85,46.1081,-3.01676,0.13661,0.88608
409.55,46.17641,-3.01673,0.13468,0.88559
410.25,46.24479,-3.0193,0.1339,0.88509
410.95,46.31297,-3.01948,0.13288,0.8846
411.65,46.3812,-3.02173,0.13129,0.8841
412.35,46.44943,-3.0223,0.12972,0.88361
413.05,46.51777,-3.02362,0.12507,0.88311
413.75,46.58596,-3.02605,0.12838,0.88261
414.45,46.65418,-3.02722,0.12669,0.88212
415.15,46.72262,-3.02914,0.12622,0.88162
415.85,46.79101,-3.03118,0.12585,0.88112
416.55,46.85951,-3.0325,0.12491,0.88063
417.25,46.92788,-3.033,0.12334,0.88013
417.95,46.99641,-3.0344,0.12257,0.87963
418.65,47.06497,-3.0373,0.122,0.87913
419.35,47.13351,-3.03888,0.12143,0.87863
420.05,47.202,-3.04018,0.12063,0.87813
420.75,47.27049,-3.04252,0.12259,0.87763
421.45,47.33912,-3.04423,0.12292,0.87713
422.15,47.40769,-3.04554,0.12202,0.87663
422.85,47.47611,-3.04718,0.12006,0.87613
423.55,47.54467,-3.04995,0.12252,0.87563
424.25,47.6132,-3.05127,0.1222,0.87512
424.95,47.68196,-3.05259,0.12228,0.87462
425.65,47.75054,-3.05454,0.12238,0.87412
426.35,47.81915,-3.05645,0.12107,0.87361
427.05,47.88774,-3.05861,0.122,0.87311
427.75,47.95628,-3.05857,0.12602,0.87261
428.45,48.02498,-3.06018,0.12405,0.8721
429.15,48.09352,-3.06122,0.12561,0.8716
429.85,48.1622,-3.06256,0.12601,0.87109
430.55,48.2306,-3.0649,0.12637,0.87059
431.25,48.2993,-3.0665,0.12866,0.87008
431.95,48.36793,-3.068,0.13043,0.86957
432.65,48.4368,-3.07066,0.13153,0.86907
433.35,48.50551,-3.07197,0.13177,0.86856
434.05,48.57411,-3.07449,0.13417,0.86805
434.75,48.6428,-3.07599,0.13419,0.86754
435.45,48.71163,-3.07478,0.13697,0.86703
436.15,48.7804,-3.07768,0.13708,0.86653
436.85,48.8493,-3.07896,0.14014,0.86602
437.55,48.9178,-3.08167,0.1415,0.86551
438.25,48.98669,-3.08162,0.14194,0.865
438.95,49.05549,-3.08297,0.14439,0.86449
439.65,49.12449,-3.0857,0.14611,0.86398
440.35,49.19342,-3.08571,0.14886,0.86346
441.05,49.2624,-3.08837,0.15038,0.86295
441.75,49.33142,-3.08941,0.15241,0.86244
442.45,49.4001,-3.09064,0.15247,0.86193
443.15,49.46885,-3.09238,0.15515,0.86142
443.85,49.53757,-3.0937,0.15357,0.8609
444.55,49.60634,-3.09504,0.15348,0.86039
445.25,49.67517,-3.09641,0.15618,0.85987
445.95,49.744,-3.09666,0.16118,0.85936
446.65,49.81299,-3.09796,0.162,0.85885
447.35,49.8819,-3.09929,0.16239,0.85833
448.05,49.95073,-3.10193,0.16277,0.85782
448.75,50.01975,-3.10194,0.16552,0.8573
449.45,50.08846,-3.10277,0.16538,0.85678
450.15,50.15736,-3.10319,0.16661,0.85627
450.85,50.22605,-3.10583,0.16887,0.85575
451.55,50.29513,-3.1072,0.1701,0.85523
452.25,50.36408,-3.10719,0.17144,0.85472
452.95,50.43314,-3.1078,0.17339,0.8542
453.65,50.50209,-3.1085,0.1724,0.85368
454.35,50.57108,-3.10983,0.17608,0.85316
455.05,50.64013,-3.11114,0.17656,0.85264
455.75,50.70901,-3.11245,0.17891,0.85212
456.45,50.778,-3.11362,0.17953,0.8516
457.15,50.8469,-3.11508,0.18176,0.85108
457.85,50.91603,-3.1164,0.18434,0.85056
458.55,50.98487,-3.11642,0.18304,0.85004
459.25,51.05379,-3.11772,0.1838,0.84952
459.95,51.12253,-3.11769,0.18624,0.849
460.65,51.1917,-3.11915,0.18987,0.84848
461.35,51.26052,-3.12035,0.18854,0.84796
462.05,51.32945,-3.12167,0.18888,0.84743
462.75,51.39803,-3.12297,0.19103,0.84691
463.45,51.46705,-3.12417,0.19387,0.84639
464.15,51.53586,-3.12298,0.19256,0.84586
464.85,51.60488,-3.12428,0.1944,0.84534
465.55,51.67372,-3.12563,0.19674,0.84482
466.25,51.7429,-3.12662,0.20036,0.84429
466.95,51.81212,-3.12793,0.19715,0.84377
467.65,51.88109,-3.12791,0.19998,0.84324
468.35,51.94998,-3.12924,0.19954,0.84272
469.05,52.0188,-3.13048,0.20262,0.84219
469.75,52.08775,-3.13056,0.20017,0.84166
470.45,52.15667,-3.13193,0.20184,0.84114
471.15,52.2256,-3.13319,0.20259,0.84061
471.85,52.2947,-3.13362,0.20424,0.84008
472.55,52.3637,-3.1345,0.20541,0.83956
473.25,52.43277,-3.13561,0.20744,0.83903
473.95,52.5017,-3.13582,0.20523,0.8385
474.65,52.571,-3.13714,0.20575,0.83797
475.35,52.6401,-3.13713,0.20864,0.83744
476.05,52.70907,-3.13768,0.20916,0.83691
476.75,52.77779,-3.13977,0.20934,0.83638
477.45,52.8467,-3.13987,0.21243,0.83585
478.15,52.91564,-3.13978,0.20984,0.83532
478.85,52.98466,-3.14212,0.2128,0.83479
479.55,53.05361,-3.14277,0.21244,0.83426
480.25,53.1226,-3.14272,0.21631,0.83373
480.95,53.1915,-3.14204,0.21522,0.8332
481.65,53.2606,-3.14338,0.21549,0.83267
482.35,53.3299,-3.1447,0.21851,0.83213
483.05,53.39929,-3.1447,0.22031,0.8316
483.75,53.4685,-3.14602,0.22307,0.83107
484.45,53.5377,-3.14731,0.22218,0.83054
485.15,53.60651,-3.14733,0.22654,0.83
485.85,53.67575,-3.14865,0.22694,0.82947
486.55,53.7451,-3.14995,0.2278,0.82894
487.25,53.8146,-3.14997,0.22906,0.8284
487.95,53.88385,-3.14998,0.22963,0.82787
488.65,53.95301,-3.15128,0.23297,0.82733
489.35,54.02219,-3.15145,0.23587,0.8268
490.05,54.0913,-3.15153,0.2394,0.82626
490.75,54.1602,-3.15392,0.24084,0.82572
491.45,54.2294,-3.15453,0.244,0.82519
492.15,54.29849,-3.15524,0.24908,0.82465
492.85,54.3677,-3.15654,0.24945,0.82411
493.55,54.43685,-3.15655,0.2526,0.82358
494.25,54.5062,-3.15523,0.25484,0.82304
494.95,54.57535,-3.15656,0.25455,0.8225
495.65,54.6443,-3.15787,0.25496,0.82196
496.35,54.7135,-3.15787,0.25724,0.82143
497.05,54.78265,-3.15928,0.25626,0.82089
497.75,54.8519,-3.15923,0.25887,0.82035
498.45,54.9211,-3.16051,0.2641,0.81981
499.15,54.99021,-3.1605,0.26195,0.81927
499.85,55.0595,-3.16182,0.2594,0.81873
500.55,55.12863,-3.16224,0.26103,0.81819
501.25,55.198,-3.16214,0.26229,0.81765
501.95,55.2673,-3.16312,0.26375,0.81711
502.65,55.3366,-3.16448,0.26352,0.81657
503.35,55.40603,-3.16545,0.2653,0.81603
504.05,55.4755,-3.16607,0.26646,0.81548
504.75,55.5447,-3.16708,0.26626,0.81494
505.45,55.61384,-3.16745,0.26761,0.8144
506.15,55.683,-3.16708,0.26773,0.81386
506.85,55.75232,-3.1684,0.26718,0.81332
507.55,55.8216,-3.16837,0.2654,0.81277
508.25,55.8909,-3.16971,0.26718,0.81223
508.95,55.96024,-3.17138,0.26696,0.81169
509.65,56.02964,-3.17235,0.26789,0.81114
510.35,56.099,-3.17108,0.26759,0.8106
511.05,56.1684,-3.17223,0.26802,0.81005
511.75,56.23757,-3.17234,0.26536,0.80951
512.45,56.30699,-3.17267,0.26405,0.80896
513.15,56.37639,-3.17382,0.2645,0.80842
513.85,56.4459,-3.17399,0.26759,0.80787
514.55,56.51545,-3.1749,0.26392,0.80733
515.25,56.5848,-3.17531,0.26561,0.80678
515.95,56.65446,-3.17671,0.26387,0.80623
516.65,56.7239,-3.17664,0.26371,0.80569
517.35,56.7935,-3.17778,0.2607,0.80514
518.05,56.86306,-3.17883,0.26366,0.80459
518.75,56.93249,-3.17926,0.26445,0.80405
519.45,57.002,-3.1799,0.2638,0.8035
520.15,57.0714,-3.18059,0.26494,0.80295
520.85,57.1411,-3.18058,0.26259,0.8024
521.55,57.21055,-3.18057,0.26321,0.80185
522.25,57.27997,-3.18057,0.26365,0.8013
522.95,57.34949,-3.18188,0.26067,0.80076
523.65,57.41944,-3.1832,0.25953,0.80021
524.35,57.48933,-3.18186,0.26156,0.79966
525.05,57.55919,-3.1832,0.25725,0.79911
525.75,57.62888,-3.18452,0.25453,0.79856
526.45,57.6987,-3.18454,0.25441,0.79801
527.15,57.7684,-3.18583,0.25058,0.79746
527.85,57.83805,-3.18583,0.25011,0.7969
528.55,57.9075,-3.18658,0.2518,0.79635
529.25,57.9771,-3.18715,0.25009,0.7958
529.95,58.04662,-3.18819,0.24956,0.79525
530.65,58.1165,-3.18847,0.2487,0.7947
531.35,58.1863,-3.18847,0.24533,0.79415
532.05,58.2562,-3.18978,0.24736,0.79359
532.75,58.32575,-3.18977,0.24608,0.79304
533.45,58.39518,-3.19362,0.24461,0.79249
534.15,58.4645,-3.19396,0.24689,0.79194
534.85,58.5341,-3.19294,0.24507,0.79138
535.55,58.6039,-3.19258,0.24708,0.79083
536.25,58.67357,-3.19259,0.24455,0.79027
536.95,58.74309,-3.18781,0.24515,0.78972
537.65,58.81255,-3.19014,0.24478,0.78917
538.35,58.8821,-3.19207,0.24562,0.78861
539.05,58.9517,-3.19331,0.24731,0.78806
539.75,59.02125,-3.19637,0.24662,0.7875
540.45,59.0908,-3.19856,0.24635,0.78695
541.15,59.1602,-3.19856,0.24646,0.78639
541.85,59.22962,-3.19725,0.24474,0.78583
542.55,59.29903,-3.19595,0.24359,0.78528
543.25,59.36849,-3.19582,0.24326,0.78472
543.95,59.43796,-3.19594,0.24318,0.78417
544.65,59.50741,-3.19856,0.24363,0.78361
545.35,59.57722,-3.1982,0.24381,0.78305
546.05,59.6469,-3.19823,0.24285,0.78249
546.75,59.7167,-3.19823,0.24506,0.78194
547.45,59.7863,-3.19859,0.24498,0.78138
548.15,59.85606,-3.19987,0.24455,0.78082
548.85,59.9257,-3.20119,0.24345,0.78026
549.55,59.99534,-3.20119,0.24384,0.7797
550.25,60.0648,-3.20119,0.24337,0.77915
550.95,60.13448,-3.20142,0.24189,0.77859
551.65,60.20417,-3.20251,0.23893,0.77803
552.35,60.2741,-3.20261,0.23849,0.77747
553.05,60.34372,-3.20504,0.23914,0.77691
553.75,60.41347,-3.20514,0.23771,0.77635
554.45,60.4829,-3.20384,0.23283,0.77579
555.15,60.55255,-3.20499,0.23196,0.77523
555.85,60.62223,-3.20515,0.23205,0.77467
556.55,60.69205,-3.20646,0.23186,0.77411
557.25,60.76177,-3.20646,0.22863,0.77355
557.95,60.83125,-3.20647,0.22894,0.77299
558.65,60.9008,-3.20778,0.2291,0.77243
559.35,60.97051,-3.20909,0.22828,0.77186
560.05,61.04045,-3.20909,0.22938,0.7713
560.75,61.11028,-3.20909,0.22767,0.77074
561.45,61.18023,-3.20975,0.22587,0.77018
562.15,61.2503,-3.21041,0.22777,0.76962
562.85,61.3205,-3.20871,0.2267,0.76905
563.55,61.39062,-3.20957,0.2258,0.76849
564.25,61.4605,-3.21217,0.22466,0.76793
564.95,61.5306,-3.21221,0.22179,0.76736
565.65,61.60057,-3.21381,0.2215,0.7668
566.35,61.67065,-3.21311,0.22213,0.76624
567.05,61.74065,-3.21282,0.22013,0.76567
567.75,61.8107,-3.21425,0.21714,0.76511
568.45,61.88083,-3.21435,0.21651,0.76454
569.15,61.9509,-3.21567,0.2181,0.76398
569.85,62.02101,-3.21567,0.21671,0.76342
570.55,62.09095,-3.21567,0.21281,0.76285
571.25,62.1607,-3.21699,0.2108,0.76229
571.95,62.2307,-3.21771,0.21127,0.76172
572.65,62.30081,-3.21695,0.21149,0.76116
573.35,62.371,-3.21836,0.21061,0.76059
574.05,62.441,-3.21728,0.2075,0.76002
574.75,62.51087,-3.2183,0.20811,0.75946
575.45,62.58096,-3.21743,0.20794,0.75889
576.15,62.65121,-3.22034,0.2067,0.75833
576.85,62.72159,-3.22159,0.20627,0.75776
577.55,62.79166,-3.22159,0.20462,0.75719
578.25,62.86161,-3.22158,0.20458,0.75662
578.95,62.9316,-3.22159,0.20329,0.75606
579.65,63.0014,-3.22159,0.20135,0.75549
580.35,63.0715,-3.22165,0.20297,0.75492
581.05,63.14155,-3.22292,0.20223,0.75436
581.75,63.2117,-3.22323,0.19933,0.75379
582.45,63.28175,-3.22331,0.20073,0.75322
583.15,63.35173,-3.22456,0.20223,0.75265
583.85,63.4217,-3.22547,0.20122,0.75208
584.55,63.49182,-3.22423,0.20155,0.75151
585.25,63.562,-3.22562,0.19923,0.75095
585.95,63.6324,-3.22552,0.19847,0.75038
586.65,63.70244,-3.22686,0.19973,0.74981
587.35,63.7726,-3.22691,0.19968,0.74924
588.05,63.8427,-3.22588,0.19864,0.74867
588.75,63.913,-3.22588,0.19602,0.7481
589.45,63.98301,-3.22549,0.19811,0.74753
590.15,64.05319,-3.22697,0.20144,0.74696
590.85,64.12339,-3.22829,0.19936,0.74639
591.55,64.1938,-3.22703,0.20012,0.74582
592.25,64.26392,-3.22828,0.19696,0.74525
592.95,64.33429,-3.22849,0.19909,0.74468
593.65,64.40465,-3.22824,0.19911,0.74411
594.35,64.47485,-3.2296,0.20035,0.74353
595.05,64.54477,-3.2296,0.1994,0.74296
595.75,64.61482,-3.22675,0.19973,0.74239
596.45,64.68516,-3.22759,0.20002,0.74182
597.15,64.7555,-3.22878,0.19857,0.74125
597.85,64.8258,-3.23005,0.19706,0.74068
598.55,64.896,-3.23142,0.1975,0.7401
599.25,64.96619,-3.23289,0.19746,0.73953
599.95,65.03645,-3.23549,0.19626,0.73896
600.65,65.1067,-3.23542,0.19342,0.73839
601.35,65.1771,-3.23542,0.19529,0.73781
602.05,65.24736,-3.23541,0.19658,0.73724
602.75,65.3175,-3.23673,0.19521,0.73667
603.45,65.38773,-3.23684,0.19337,0.7361
604.15,65.45791,-3.23815,0.19179,0.73552
604.85,65.52816,-3.23685,0.19475,0.73495
605.55,65.59825,-3.23685,0.19301,0.73437
606.25,65.66861,-3.23685,0.19134,0.7338
606.95,65.73903,-3.23785,0.19096,0.73323
607.65,65.80933,-3.23782,0.19196,0.73265
608.35,65.87939,-3.2375,0.18949,0.73208
609.05,65.94951,-3.2375,0.19349,0.7315
609.75,66.01964,-3.23783,0.19127,0.73093
610.45,66.09,-3.23882,0.19353,0.73035
611.15,66.16037,-3.23882,0.19541,0.72978
611.85,66.23069,-3.23915,0.19576,0.7292
612.55,66.3008,-3.23949,0.19806,0.72863
613.25,66.37088,-3.23947,0.19702,0.72805
613.95,66.44103,-3.23947,0.20052,0.72748
614.65,66.51122,-3.23981,0.199,0.7269
615.35,66.58161,-3.24112,0.20271,0.72633
616.05,66.65196,-3.24112,0.20238,0.72575
616.75,66.72199,-3.24047,0.20155,0.72518
617.45,66.79217,-3.24178,0.20539,0.7246
618.15,66.8626,-3.24178,0.20567,0.72402
618.85,66.93336,-3.24168,0.20666,0.72345
619.55,67.0038,-3.24141,0.2058,0.72287
620.25,67.07389,-3.24276,0.20894,0.72229
620.95,67.14407,-3.24276,0.20804,0.72172
621.65,67.2142,-3.24276,0.21213,0.72114
622.35,67.28451,-3.24271,0.21208,0.72056
623.05,67.35466,-3.24408,0.21329,0.71998
623.75,67.42488,-3.24407,0.21383,0.71941
624.45,67.49495,-3.2454,0.21672,0.71883
625.15,67.56511,-3.2445,0.21416,0.71825
625.85,67.6353,-3.24408,0.21584,0.71767
626.55,67.70575,-3.24535,0.21509,0.7171
627.25,67.77603,-3.24505,0.21744,0.71652
627.95,67.84615,-3.2454,0.2161,0.71594
628.65,67.9161,-3.2454,0.21552,0.71536
629.35,67.98597,-3.24673,0.21685,0.71478
630.05,68.05594,-3.24607,0.21854,0.7142
630.75,68.1261,-3.24606,0.22024,0.71363
631.45,68.19634,-3.24737,0.22314,0.71305
632.15,68.26655,-3.24738,0.22228,0.71247
632.85,68.33668,-3.24671,0.22032,0.71189
633.55,68.40677,-3.24803,0.2226,0.71131
634.25,68.47718,-3.24803,0.2294,0.71073
634.95,68.5476,-3.24935,0.22695,0.71015
635.65,68.6182,-3.24869,0.22613,0.70957
636.35,68.68841,-3.24934,0.22771,0.70899
637.05,68.75855,-3.24935,0.22957,0.70841
637.75,68.8286,-3.24935,0.23098,0.70783
638.45,68.89883,-3.25058,0.23242,0.70725
639.15,68.96899,-3.25067,0.23182,0.70667
639.85,69.0391,-3.25198,0.2353,0.70609
640.55,69.10915,-3.25198,0.23431,0.70551
641.25,69.1794,-3.24967,0.23725,0.70493
641.95,69.24974,-3.24965,0.2371,0.70435
642.65,69.3202,-3.25099,0.23627,0.70377
643.35,69.39057,-3.25099,0.2381,0.70319
644.05,69.4609,-3.2523,0.23946,0.70261
644.75,69.53139,-3.2523,0.23895,0.70203
645.45,69.60169,-3.2523,0.24116,0.70145
646.15,69.6721,-3.2537,0.24327,0.70087
646.85,69.74229,-3.25362,0.24435,0.70028
647.55,69.81251,-3.25229,0.24392,0.6997
648.25,69.88277,-3.2533,0.24691,0.69912
648.95,69.95271,-3.2533,0.24987,0.69854
649.65,70.0232,-3.2533,0.25024,0.69796
650.35,70.09368,-3.2533,0.24908,0.69738
651.05,70.16464,-3.25335,0.25348,0.6968
651.75,70.23506,-3.25197,0.25589,0.69621
652.45,70.30545,-3.25264,0.25239,0.69563
653.15,70.3758,-3.25297,0.2553,0.69505
653.85,70.44632,-3.25435,0.25716,0.69447
654.55,70.5168,-3.25428,0.25749,0.69388
655.25,70.58725,-3.25428,0.25899,0.6933
655.95,70.6577,-3.25429,0.25964,0.69272
656.65,70.72791,-3.25427,0.2629,0.69214
657.35,70.79813,-3.25428,0.26325,0.69155
658.05,70.86836,-3.25428,0.26454,0.69097
658.75,70.93867,-3.25559,0.26122,0.69039
659.45,71.0091,-3.25559,0.26395,0.68981
660.15,71.07943,-3.25559,0.26258,0.68922
660.85,71.14981,-3.25691,0.26023,0.68864
661.55,71.21991,-3.25559,0.25964,0.68806
662.25,71.29011,-3.25428,0.26342,0.68747
662.95,71.3605,-3.2543,0.26029,0.68689
663.65,71.43101,-3.2556,0.26393,0.68631
664.35,71.50165,-3.25658,0.26531,0.68572
665.05,71.57219,-3.25658,0.264,0.68514
665.75,71.64282,-3.25658,0.26434,0.68456
666.45,71.71329,-3.25668,0.26901,0.68397
667.15,71.7838,-3.25814,0.26819,0.68339
667.85,71.85432,-3.25671,0.2682,0.6828
668.55,71.92491,-3.25452,0.26684,0.68222
669.25,71.99551,-3.25594,0.26757,0.68164
669.95,72.06609,-3.25658,0.26683,0.68105
670.65,72.1365,-3.25657,0.26881,0.68047
671.35,72.20693,-3.25526,0.26872,0.67988
672.05,72.2773,-3.25526,0.27061,0.6793
672.75,72.34756,-3.25526,0.27089,0.67871
673.45,72.4179,-3.25544,0.27587,0.67813
674.15,72.4881,-3.25723,0.2723,0.67754
674.85,72.55856,-3.25855,0.27382,0.67696
675.55,72.62889,-3.25724,0.2778,0.67638
676.25,72.69932,-3.25757,0.27338,0.67579
676.95,72.76969,-3.25757,0.27678,0.67521
677.65,72.8399,-3.25757,0.27813,0.67462
678.35,72.9101,-3.25757,0.28147,0.67404
679.05,72.98037,-3.26012,0.27994,0.67345
679.75,73.05074,-3.26108,0.28309,0.67287
680.45,73.12125,-3.26149,0.28017,0.67228
681.15,73.19167,-3.26098,0.28055,0.6717
681.85,73.2621,-3.25965,0.28479,0.67111
682.55,73.33244,-3.25601,0.28236,0.67052
683.25,73.4028,-3.25254,0.28444,0.66994
683.95,73.47313,-3.25115,0.2856,0.66935
684.65,73.5436,-3.2542,0.28664,0.66877
685.35,73.61435,-3.25672,0.28899,0.66818
686.05,73.6852,-3.26011,0.29071,0.6676
686.75,73.75609,-3.26116,0.28942,0.66701
687.45,73.82685,-3.25988,0.2926,0.66643
688.15,73.89735,-3.26089,0.29277,0.66584
688.85,73.96821,-3.26171,0.29048,0.66525
689.55,74.03922,-3.26036,0.29208,0.66467
690.25,74.1105,-3.2591,0.2924,0.66408
690.95,74.18151,-3.26121,0.29227,0.6635
691.65,74.25215,-3.26174,0.29205,0.66291
692.35,74.32293,-3.26174,0.28935,0.66232
693.05,74.39366,-3.26042,0.29287,0.66174
693.75,74.46466,-3.26042,0.29438,0.66115
694.45,74.53541,-3.26042,0.29349,0.66057
695.15,74.60635,-3.26042,0.29788,0.65998
695.85,74.6773,-3.26216,0.29797,0.65939
696.55,74.7484,-3.26025,0.2997,0.65881
697.25,74.81913,-3.26054,0.29396,0.65822
697.95,74.8899,-3.26054,0.29956,0.65763
698.65,74.9606,-3.25989,0.29931,0.65705
699.35,75.0315,-3.2599,0.2977,0.65646
700.05,75.10235,-3.25922,0.30363,0.65587
700.75,75.17319,-3.25944,0.30305,0.65529
701.45,75.24396,-3.26185,0.30657,0.6547
702.15,75.31459,-3.26322,0.30092,0.65411
702.85,75.38531,-3.26264,0.3068,0.65353
703.55,75.456,-3.26182,0.30681,0.65294
704.25,75.5267,-3.26185,0.30745,0.65235
704.95,75.59729,-3.26185,0.30935,0.65177
705.65,75.66799,-3.26317,0.31196,0.65118
706.35,75.73873,-3.26185,0.30975,0.65059
707.05,75.8096,-3.26448,0.31322,0.65001
707.75,75.88037,-3.26317,0.31311,0.64942
708.45,75.9512,-3.26448,0.3149,0.64883
709.15,76.02186,-3.26451,0.31649,0.64825
709.85,76.09255,-3.26306,0.31549,0.64766
710.55,76.16359,-3.26312,0.31755,0.64707
711.25,76.2344,-3.26545,0.31511,0.64649
711.95,76.30513,-3.26581,0.31859,0.6459
712.65,76.37559,-3.26338,0.32282,0.64531
713.35,76.44614,-3.26449,0.31822,0.64472
714.05,76.51695,-3.26448,0.32437,0.64414
714.75,76.58771,-3.26517,0.32094,0.64355
715.45,76.65854,-3.26514,0.32424,0.64296
716.15,76.72946,-3.26518,0.32578,0.64238
716.85,76.80045,-3.26514,0.32668,0.64179
717.55,76.87154,-3.26514,0.32374,0.6412
718.25,76.94232,-3.26645,0.32891,0.64061
718.95,77.01325,-3.26646,0.32319,0.64003
719.65,77.08394,-3.26509,0.32805,0.63944
720.35,77.15481,-3.26647,0.32952,0.63885
721.05,77.22547,-3.26646,0.33188,0.63827
721.75,77.2962,-3.26636,0.33776,0.63768
722.45,77.36695,-3.26514,0.33294,0.63709
723.15,77.4376,-3.26644,0.33778,0.6365
723.85,77.5082,-3.26646,0.33494,0.63592
724.55,77.5787,-3.26448,0.33483,0.63533
725.25,77.6495,-3.26449,0.33773,0.63474
725.95,77.7204,-3.26711,0.33604,0.63415
726.65,77.79154,-3.2671,0.33675,0.63357
727.35,77.86242,-3.26579,0.33719,0.63298
728.05,77.9334,-3.26608,0.34209,0.63239
728.75,78.00399,-3.2672,0.34434,0.6318
729.45,78.075,-3.26711,0.34131,0.63122
730.15,78.14616,-3.26753,0.34317,0.63063
730.85,78.21749,-3.26777,0.34535,0.63004
731.55,78.28868,-3.2681,0.34274,0.62945
732.25,78.35964,-3.26745,0.34695,0.62887
732.95,78.4307,-3.26745,0.34086,0.62828
733.65,78.50163,-3.26779,0.34661,0.62769
734.35,78.5726,-3.26908,0.34068,0.62711
735.05,78.64354,-3.26843,0.34294,0.62652
735.75,78.71446,-3.26843,0.34066,0.62593
736.45,78.78536,-3.26843,0.34282,0.62534
737.15,78.8564,-3.26843,0.34488,0.62476
737.85,78.92761,-3.26909,0.34154,0.62417
738.55,78.9988,-3.26903,0.34589,0.62358
739.25,79.0698,-3.27041,0.34543,0.62299
739.95,79.14068,-3.2691,0.34648,0.62241
740.65,79.21169,-3.26958,0.3473,0.62182
741.35,79.2826,-3.27041,0.34774,0.62123
742.05,79.35337,-3.27041,0.34943,0.62064
742.75,79.42412,-3.27039,0.34864,0.62006
743.45,79.49498,-3.26909,0.35244,0.61947
744.15,79.56582,-3.26909,0.35485,0.61888
744.85,79.63671,-3.2691,0.35449,0.6183
745.55,79.7075,-3.26974,0.35323,0.61771
746.25,79.77847,-3.27039,0.35413,0.61712
746.95,79.84947,-3.2704,0.35936,0.61653
747.65,79.92041,-3.27041,0.35337,0.61595
748.35,79.9916,-3.27041,0.36256,0.61536
749.05,80.06245,-3.27172,0.36232,0.61477
749.75,80.13336,-3.27079,0.36336,0.61419
750.45,80.20396,-3.27041,0.3615,0.6136
751.15,80.27479,-3.27044,0.35987,0.61301
751.85,80.34567,-3.2714,0.36138,0.61242
752.55,80.41678,-3.2714,0.36741,0.61184
753.25,80.48722,-3.27005,0.36456,0.61125
753.95,80.55745,-3.27008,0.36521,0.61066
754.65,80.62818,-3.2704,0.36495,0.61008
755.35,80.69969,-3.27172,0.36655,0.60949
756.05,80.7714,-3.27172,0.36758,0.6089
756.75,80.8424,-3.27172,0.36796,0.60832
757.45,80.91335,-3.27205,0.36694,0.60773
758.15,80.9842,-3.27205,0.36844,0.60714
758.85,81.05494,-3.27205,0.36856,0.60656
759.55,81.12576,-3.27237,0.37025,0.60597
760.25,81.19673,-3.27302,0.36726,0.60538
760.95,81.26762,-3.27304,0.36787,0.6048
761.65,81.3385,-3.27304,0.36835,0.60421
762.35,81.40952,-3.27304,0.36718,0.60362
763.05,81.4803,-3.27436,0.36952,0.60304
763.75,81.55096,-3.27435,0.36632,0.60245
764.45,81.62186,-3.27305,0.36241,0.60186
765.15,81.69305,-3.27303,0.36821,0.60128
765.85,81.76448,-3.27303,0.36225,0.60069
766.55,81.83566,-3.27303,0.36326,0.6001
767.25,81.90703,-3.27302,0.36525,0.59952
767.95,81.97839,-3.27412,0.35975,0.59893
768.65,82.04975,-3.27337,0.35654,0.59835
769.35,82.12129,-3.27337,0.36144,0.59776
770.05,82.19275,-3.27337,0.36148,0.59717
770.75,82.26426,-3.27479,0.36189,0.59659
771.45,82.3357,-3.27436,0.36195,0.596
772.15,82.40726,-3.27436,0.3599,0.59541
772.85,82.47867,-3.27501,0.35899,0.59483
773.55,82.55,-3.27402,0.36119,0.59424
774.25,82.62136,-3.27402,0.36171,0.59366
774.95,82.69296,-3.27402,0.36022,0.59307
775.65,82.7643,-3.27402,0.36204,0.59249
776.35,82.8355,-3.27468,0.36004,0.5919
777.05,82.90671,-3.27597,0.36009,0.59131
777.75,82.97802,-3.276,0.36096,0.59073
778.45,83.0493,-3.276,0.36139,0.59014
779.15,83.1204,-3.276,0.36023,0.58956
779.85,83.19155,-3.2771,0.36115,0.58897
780.55,83.26272,-3.27731,0.35932,0.58839
781.25,83.33408,-3.27531,0.35977,0.5878
781.95,83.40491,-3.27475,0.36147,0.58722
782.65,83.476,-3.27773,0.36432,0.58663
783.35,83.5469,-3.27775,0.36056,0.58605
784.05,83.61844,-3.27775,0.36359,0.58546
784.75,83.68948,-3.27713,0.36403,0.58488
785.45,83.7607,-3.27644,0.36039,0.58429
786.15,83.8316,-3.27642,0.36032,0.58371
786.85,83.9024,-3.27781,0.36561,0.58312
787.55,83.97322,-3.27776,0.36387,0.58254
788.25,84.0441,-3.27634,0.36576,0.58195
788.95,84.11493,-3.27639,0.36825,0.58137
789.65,84.1858,-3.27777,0.3661,0.58078
790.35,84.25669,-3.27644,0.3659,0.5802
791.05,84.3278,-3.27775,0.36658,0.57961
791.75,84.39881,-3.27875,0.36573,0.57903
792.45,84.4699,-3.27874,0.36749,0.57844
793.15,84.54082,-3.27874,0.36792,0.57786
793.85,84.61152,-3.28013,0.36555,0.57728
794.55,84.6824,-3.27873,0.36673,0.57669
795.25,84.75326,-3.27874,0.36423,0.57611
795.95,84.82425,-3.27973,0.36666,0.57552
796.65,84.8952,-3.27877,0.36324,0.57494
797.35,84.96641,-3.27874,0.36675,0.57436
797.65,84.9966,-3.27874,0.3638,0.57411