File: 01_Data/Pallet_Wood/STA/N2/10K_min/Pallet_Wood_STA_N2_10KData_220412_R1.csv
##Temp./Â°C,Time/min,Mass loss(subtr.2)/mg,DSC(subtr.2)/(mW/mg),Sensit./(uV/mW)
49.658,10.00917,-0.06055,0.0282296,1.06053
50.358,10.76883,-0.06076989,0.0629984,1.06038
51.058,10.97259,-0.06024224,0.08726196,1.06024
51.758,11.12493,-0.06033203,0.10904,1.06009
52.458,11.2538,-0.06536952,0.12657,1.05995
53.158,11.36825,-0.06229241,0.13968,1.0598
53.858,11.47412,-0.06328862,0.1542,1.05965
54.558,11.57347,-0.06341024,0.16528,1.0595
55.258,11.66852,-0.06228932,0.17581,1.05935
55.958,11.75953,-0.06471927,0.18329,1.0592
56.658,11.84751,-0.06423184,0.19229,1.05905
57.358,11.93303,-0.06683776,0.19931,1.05889
58.058,12.0166,-0.06566004,0.20519,1.05874
58.758,12.0993,-0.06569972,0.21364,1.05859
59.458,12.18104,-0.06701736,0.21574,1.05843
60.158,12.26158,-0.06698812,0.2201,1.05827
60.858,12.3412,-0.06739945,0.227,1.05812
61.558,12.42029,-0.06877495,0.23011,1.05796
62.258,12.4984,-0.06878359,0.23631,1.0578
62.958,12.57599,-0.06867601,0.23802,1.05764
63.658,12.65335,-0.06869342,0.24314,1.05748
64.358,12.7303,-0.07036129,0.2439,1.05732
65.058,12.80705,-0.07185372,0.24839,1.05715
65.758,12.8833,-0.07053773,0.25265,1.05699
66.458,12.95941,-0.07052953,0.25528,1.05682
67.158,13.03502,-0.07052705,0.25817,1.05666
67.858,13.1106,-0.0718222,0.2592,1.05649
68.558,13.1858,-0.07217043,0.26301,1.05632
69.258,13.2612,-0.07356526,0.26704,1.05616
69.958,13.3362,-0.07332235,0.26854,1.05599
70.658,13.41089,-0.07447476,0.27318,1.05582
71.358,13.48505,-0.07306417,0.27467,1.05565
72.058,13.559,-0.07447929,0.27704,1.05547
72.758,13.6327,-0.07458394,0.28104,1.0553
73.458,13.70684,-0.07579163,0.28258,1.05513
74.158,13.78057,-0.07447959,0.28617,1.05495
74.858,13.8545,-0.07584707,0.28838,1.05478
75.558,13.92799,-0.076118,0.2912,1.0546
76.258,14.0015,-0.07716351,0.29403,1.05442
76.958,14.07435,-0.07746543,0.2963,1.05425
77.658,14.1471,-0.07715471,0.29798,1.05407
78.358,14.21969,-0.07711985,0.29864,1.05389
79.058,14.2922,-0.07614492,0.3004,1.05371
79.758,14.3644,-0.07744167,0.30355,1.05352
80.458,14.43658,-0.07878264,0.30529,1.05334
81.158,14.5087,-0.08006987,0.30665,1.05316
81.858,14.5808,-0.08138864,0.3078,1.05297
82.558,14.6525,-0.08138361,0.30754,1.05279
83.258,14.7243,-0.08256034,0.31019,1.0526
83.958,14.79561,-0.08106727,0.30907,1.05242
84.658,14.86675,-0.08104714,0.31157,1.05223
85.358,14.93736,-0.08106,0.31074,1.05204
86.058,15.00808,-0.08106106,0.31179,1.05185
86.758,15.07855,-0.0823798,0.31203,1.05166
87.458,15.1492,-0.08237927,0.31082,1.05147
88.158,15.21967,-0.08369001,0.30965,1.05128
88.858,15.2902,-0.08369,0.30955,1.05108
89.558,15.36,-0.08369413,0.30965,1.05089
90.258,15.4301,-0.08501434,0.31016,1.05069
90.958,15.5002,-0.08632011,0.30964,1.0505
91.658,15.57063,-0.08763067,0.30957,1.0503
92.358,15.64054,-0.08687439,0.30526,1.0501
93.058,15.71045,-0.08797002,0.3055,1.0499
93.758,15.78002,-0.08836635,0.30252,1.04971
94.458,15.84976,-0.08927996,0.30234,1.04951
95.158,15.91942,-0.09060099,0.30097,1.0493
95.858,15.98867,-0.09060005,0.30002,1.0491
96.558,16.05787,-0.09051046,0.30053,1.0489
97.258,16.12679,-0.09026997,0.29734,1.0487
97.958,16.19615,-0.08927,0.29688,1.04849
98.658,16.26556,-0.08964506,0.29686,1.04829
99.358,16.33468,-0.09059989,0.29528,1.04808
100.058,16.40395,-0.09023615,0.29294,1.04787
100.758,16.47307,-0.09124742,0.29098,1.04767
101.458,16.54223,-0.09290762,0.2906,1.04746
102.158,16.6111,-0.09289087,0.28831,1.04725
102.858,16.67985,-0.09289919,0.28781,1.04704
103.558,16.74859,-0.09159685,0.28902,1.04682
104.258,16.81756,-0.0929098,0.28489,1.04661
104.958,16.88619,-0.09422351,0.28551,1.0464
105.658,16.95498,-0.09284605,0.28333,1.04619
106.358,17.0233,-0.09421988,0.28205,1.04597
107.058,17.0918,-0.09422,0.28234,1.04576
107.758,17.16041,-0.09421997,0.28104,1.04554
108.458,17.22898,-0.09324553,0.28016,1.04532
109.158,17.29747,-0.09421549,0.27971,1.0451
109.858,17.3658,-0.09525219,0.27999,1.04488
110.558,17.43427,-0.09552978,0.27809,1.04466
111.258,17.5027,-0.09690134,0.2771,1.04444
111.958,17.57124,-0.09689394,0.27722,1.04422
112.658,17.63962,-0.09554021,0.28034,1.044
113.358,17.7082,-0.09553664,0.2785,1.04378
114.058,17.77662,-0.09669973,0.27733,1.04355
114.758,17.845,-0.09553973,0.27608,1.04333
115.458,17.9133,-0.09643656,0.27885,1.0431
116.158,17.98139,-0.09685026,0.27647,1.04287
116.858,18.0498,-0.09552691,0.27747,1.04265
117.558,18.11808,-0.09684962,0.27574,1.04242
118.258,18.1868,-0.0968484,0.2761,1.04219
118.958,18.25539,-0.09553777,0.27874,1.04196
119.658,18.32372,-0.09685367,0.27669,1.04173
120.358,18.39211,-0.09775192,0.27771,1.0415
121.058,18.46033,-0.09779154,0.27823,1.04126
121.758,18.5288,-0.09751038,0.27929,1.04103
122.458,18.5971,-0.09882934,0.27914,1.0408
123.158,18.66515,-0.09814925,0.27781,1.04056
123.858,18.73319,-0.09812862,0.27937,1.04033
124.558,18.80126,-0.09819052,0.27941,1.04009
125.258,18.86925,-0.09685009,0.2803,1.03985
125.958,18.93733,-0.09816078,0.28135,1.03961
126.658,19.00506,-0.09817135,0.28185,1.03937
127.358,19.07287,-0.09882128,0.28184,1.03913
128.058,19.14057,-0.09816976,0.28103,1.03889
128.758,19.20863,-0.09817,0.28189,1.03865
129.458,19.27665,-0.09817,0.28557,1.03841
130.158,19.34478,-0.09816996,0.28423,1.03816
130.858,19.41265,-0.09846095,0.28133,1.03792
131.558,19.4805,-0.09948656,0.2831,1.03768
132.258,19.54828,-0.1008,0.2857,1.03743
132.958,19.61611,-0.09948556,0.28521,1.03718
133.658,19.68388,-0.10078,0.28574,1.03694
134.358,19.75173,-0.1008,0.28573,1.03669
135.058,19.81955,-0.10175,0.28721,1.03644
135.758,19.8874,-0.1008,0.28897,1.03619
136.458,19.95502,-0.09949139,0.28793,1.03594
137.158,20.02255,-0.09948,0.28912,1.03569
137.858,20.08999,-0.09948,0.29322,1.03543
138.558,20.15774,-0.09948015,0.29027,1.03518
139.258,20.22547,-0.09951323,0.28978,1.03493
139.958,20.29351,-0.09948,0.29546,1.03467
140.658,20.3613,-0.09947691,0.29465,1.03442
141.358,20.42897,-0.1008,0.29338,1.03416
142.058,20.49624,-0.10211,0.29608,1.0339
142.758,20.56351,-0.1008,0.29586,1.03364
143.458,20.63075,-0.1008,0.29624,1.03339
144.158,20.69815,-0.10212,0.29765,1.03313
144.858,20.76534,-0.10081,0.29808,1.03287
145.558,20.8326,-0.10075,0.3007,1.0326
146.258,20.89989,-0.10311,0.29939,1.03234
146.958,20.96754,-0.10311,0.30094,1.03208
147.658,21.03473,-0.10313,0.30006,1.03182
148.358,21.1022,-0.10213,0.30315,1.03155
149.058,21.16933,-0.10179,0.30268,1.03129
149.758,21.2368,-0.10179,0.3048,1.03102
150.458,21.30408,-0.1031,0.30381,1.03075
151.158,21.37133,-0.10442,0.30472,1.03048
151.858,21.43844,-0.10442,0.30687,1.03022
152.558,21.50562,-0.10311,0.30761,1.02995
153.258,21.57312,-0.10311,0.30789,1.02968
153.958,21.64057,-0.10411,0.30647,1.02941
154.658,21.70801,-0.10311,0.30812,1.02913
155.358,21.77508,-0.1031,0.31152,1.02886
156.058,21.8422,-0.10316,0.31029,1.02859
156.758,21.90936,-0.10178,0.31291,1.02831
157.458,21.97646,-0.10263,0.31287,1.02804
158.158,22.04363,-0.10366,0.31273,1.02776
158.858,22.11092,-0.10366,0.31512,1.02749
159.558,22.17825,-0.10366,0.31303,1.02721
160.258,22.24544,-0.10387,0.31298,1.02693
160.958,22.31255,-0.10532,0.315,1.02665
161.658,22.37963,-0.10427,0.31446,1.02637
162.358,22.44673,-0.10332,0.31652,1.02609
163.058,22.51385,-0.10332,0.31644,1.02581
163.758,22.58101,-0.10332,0.31844,1.02553
164.458,22.6484,-0.10332,0.32081,1.02525
165.158,22.71554,-0.10332,0.32199,1.02496
165.858,22.78264,-0.10333,0.31934,1.02468
166.558,22.84972,-0.10201,0.32063,1.0244
167.258,22.91691,-0.10248,0.32119,1.02411
167.958,22.98394,-0.10333,0.32086,1.02382
168.658,23.05101,-0.10202,0.32425,1.02354
169.358,23.11807,-0.10201,0.32294,1.02325
170.058,23.18526,-0.10235,0.32489,1.02296
170.758,23.2523,-0.10466,0.32803,1.02267
171.458,23.31918,-0.10399,0.32778,1.02238
172.158,23.38606,-0.10464,0.32977,1.02209
172.858,23.45296,-0.10464,0.32929,1.0218
173.558,23.52007,-0.10462,0.33009,1.0215
174.258,23.58718,-0.10596,0.33111,1.02121
174.958,23.65447,-0.10488,0.3304,1.02092
175.658,23.72147,-0.10464,0.33155,1.02062
176.358,23.7884,-0.10491,0.33349,1.02032
177.058,23.8554,-0.10597,0.33562,1.02003
177.758,23.92236,-0.10502,0.33672,1.01973
178.458,23.98944,-0.10464,0.33859,1.01943
179.158,24.05622,-0.10595,0.33822,1.01913
179.858,24.12323,-0.10595,0.34018,1.01883
180.558,24.19019,-0.10595,0.34059,1.01853
181.258,24.2573,-0.10663,0.34006,1.01823
181.958,24.3243,-0.10727,0.3413,1.01793
182.658,24.39116,-0.10727,0.34361,1.01763
183.358,24.45796,-0.10663,0.34266,1.01733
184.058,24.5246,-0.10794,0.34719,1.01702
184.758,24.59131,-0.10795,0.34567,1.01672
185.458,24.6582,-0.10892,0.34538,1.01641
186.158,24.72498,-0.10891,0.34655,1.0161
186.858,24.79182,-0.1076,0.34675,1.0158
187.558,24.8586,-0.10627,0.35005,1.01549
188.258,24.92556,-0.1076,0.34993,1.01518
188.958,24.99241,-0.1076,0.35039,1.01487
189.658,25.0592,-0.1076,0.35372,1.01456
190.358,25.12589,-0.10892,0.3525,1.01425
191.058,25.1927,-0.10826,0.35191,1.01394
191.758,25.25947,-0.10826,0.35505,1.01363
192.458,25.3262,-0.11095,0.357,1.01331
193.158,25.393,-0.11098,0.35656,1.013
193.858,25.45996,-0.11155,0.35578,1.01268
194.558,25.52705,-0.11155,0.35753,1.01237
195.258,25.59388,-0.11155,0.36011,1.01205
195.958,25.66055,-0.11023,0.35628,1.01174
196.658,25.72735,-0.11023,0.36102,1.01142
197.358,25.7943,-0.11208,0.36243,1.0111
198.058,25.8613,-0.11205,0.36171,1.01078
198.758,25.92802,-0.11089,0.36234,1.01046
199.458,25.99462,-0.11089,0.36601,1.01014
200.158,26.0613,-0.11086,0.36468,1.00982
200.858,26.12816,-0.11155,0.36539,1.0095
201.558,26.1951,-0.11287,0.36623,1.00918
202.258,26.26186,-0.11156,0.36579,1.00885
202.958,26.32868,-0.11155,0.36718,1.00853
203.658,26.39558,-0.11155,0.36801,1.0082
204.358,26.46262,-0.11287,0.36898,1.00788
205.058,26.5294,-0.11155,0.3719,1.00755
205.758,26.5961,-0.11287,0.37127,1.00723
206.458,26.6628,-0.11337,0.37122,1.0069
207.158,26.7295,-0.11452,0.37305,1.00657
207.858,26.79634,-0.11437,0.37476,1.00624
208.558,26.863,-0.11483,0.37439,1.00591
209.258,26.92965,-0.11594,0.37633,1.00558
209.958,26.9962,-0.11825,0.37689,1.00525
210.658,27.06291,-0.11856,0.37612,1.00492
211.358,27.12952,-0.11857,0.38142,1.00458
212.058,27.19619,-0.11857,0.37996,1.00425
212.758,27.263,-0.11859,0.38178,1.00392
213.458,27.32988,-0.11989,0.38284,1.00358
214.158,27.39671,-0.12064,0.38341,1.00325
214.858,27.46333,-0.12121,0.38312,1.00291
215.558,27.53006,-0.12121,0.38486,1.00257
216.258,27.5968,-0.12121,0.38676,1.00224
216.958,27.66348,-0.12121,0.38642,1.0019
217.658,27.7303,-0.12252,0.38754,1.00156
218.358,27.7972,-0.12382,0.38656,1.00122
219.058,27.86378,-0.12398,0.38928,1.00088
219.758,27.9303,-0.12415,0.38845,1.00054
220.458,27.997,-0.12548,0.39159,1.00019
221.158,28.06379,-0.12547,0.3925,0.99985
221.858,28.1304,-0.1268,0.39278,0.99951
222.558,28.197,-0.1268,0.39297,0.99917
223.258,28.2638,-0.12695,0.39671,0.99882
223.958,28.3309,-0.12713,0.3964,0.99848
224.658,28.3977,-0.12843,0.39833,0.99813
225.358,28.4641,-0.12975,0.39958,0.99778
226.058,28.5307,-0.13055,0.39954,0.99743
226.758,28.59727,-0.13107,0.40168,0.99709
227.458,28.6643,-0.13135,0.40565,0.99674
228.158,28.7312,-0.13281,0.40569,0.99639
228.858,28.79787,-0.13373,0.40521,0.99604
229.558,28.8647,-0.13677,0.40661,0.99569
230.258,28.9312,-0.13699,0.40888,0.99534
230.958,28.99813,-0.13699,0.41006,0.99498
231.658,29.0647,-0.13859,0.41088,0.99463
232.358,29.13151,-0.1408,0.4146,0.99428
233.058,29.1982,-0.14117,0.4134,0.99392
233.758,29.2653,-0.14126,0.41623,0.99357
234.458,29.33237,-0.14248,0.41512,0.99321
235.158,29.3991,-0.1438,0.41845,0.99286
235.858,29.46612,-0.14522,0.41856,0.9925
236.558,29.5329,-0.14654,0.41808,0.99214
237.258,29.6001,-0.14786,0.42095,0.99178
237.958,29.6669,-0.14919,0.4212,0.99142
238.658,29.7337,-0.15182,0.41803,0.99106
239.358,29.8007,-0.15311,0.41797,0.9907
240.058,29.86748,-0.15443,0.41977,0.99034
240.758,29.93437,-0.15443,0.41931,0.98998
241.458,30.00105,-0.15378,0.41845,0.98962
242.158,30.0679,-0.15801,0.41647,0.98925
242.858,30.1348,-0.16097,0.41711,0.98889
243.558,30.20187,-0.16382,0.41762,0.98853
244.258,30.26888,-0.16519,0.4212,0.98816
244.958,30.33581,-0.16614,0.41995,0.9878
245.658,30.40247,-0.16809,0.42048,0.98743
246.358,30.46915,-0.17068,0.42228,0.98706
247.058,30.5357,-0.17262,0.42378,0.98669
247.758,30.60251,-0.17474,0.42408,0.98633
248.458,30.6691,-0.17736,0.42765,0.98596
249.158,30.73585,-0.18025,0.42638,0.98559
249.858,30.80214,-0.18035,0.42538,0.98522
250.558,30.8689,-0.1857,0.42895,0.98485
251.258,30.9359,-0.18969,0.42792,0.98447
251.958,31.00324,-0.19298,0.42769,0.9841
252.658,31.06986,-0.19588,0.43064,0.98373
253.358,31.13659,-0.2001,0.43246,0.98335
254.058,31.20325,-0.20264,0.43376,0.98298
254.758,31.27014,-0.20477,0.43301,0.98261
255.458,31.33677,-0.20816,0.43633,0.98223
256.158,31.4034,-0.20969,0.43461,0.98185
256.858,31.46995,-0.21431,0.43637,0.98148
257.558,31.5366,-0.21803,0.43901,0.9811
258.258,31.6035,-0.21964,0.43936,0.98072
258.958,31.67056,-0.22295,0.43998,0.98034
259.658,31.73756,-0.2283,0.4404,0.97996
260.358,31.8044,-0.23146,0.44178,0.97958
261.058,31.87097,-0.23573,0.44313,0.9792
261.758,31.9376,-0.23948,0.44169,0.97882
262.458,32.00437,-0.24515,0.44892,0.97844
263.158,32.0713,-0.24965,0.44912,0.97806
263.858,32.13831,-0.25405,0.45004,0.97767
264.558,32.20514,-0.25944,0.45089,0.97729
265.258,32.27171,-0.2629,0.45405,0.9769
265.958,32.33846,-0.26745,0.45641,0.97652
266.658,32.40532,-0.2718,0.45664,0.97613
267.358,32.47229,-0.27797,0.45896,0.97575
268.058,32.53929,-0.28321,0.45925,0.97536
268.758,32.60635,-0.28782,0.46109,0.97497
269.458,32.67334,-0.29422,0.46246,0.97458
270.158,32.74029,-0.30186,0.46389,0.97419
270.858,32.80727,-0.30755,0.46695,0.9738
271.558,32.87429,-0.31383,0.46721,0.97341
272.258,32.9413,-0.3201,0.46815,0.97302
272.958,33.00819,-0.32735,0.46946,0.97263
273.658,33.07528,-0.33441,0.47141,0.97224
274.358,33.14248,-0.34173,0.47226,0.97185
275.058,33.20973,-0.34647,0.47183,0.97145
275.758,33.27673,-0.35535,0.47434,0.97106
276.458,33.34385,-0.36343,0.47689,0.97066
277.158,33.41107,-0.37172,0.47754,0.97027
277.858,33.47815,-0.38078,0.47908,0.96987
278.558,33.54513,-0.38976,0.48055,0.96948
279.258,33.612,-0.39815,0.48109,0.96908
279.958,33.67915,-0.40616,0.48054,0.96868
280.658,33.74627,-0.41517,0.48293,0.96828
281.358,33.81325,-0.42335,0.48184,0.96788
282.058,33.88028,-0.43461,0.48153,0.96748
282.758,33.94746,-0.44339,0.48129,0.96708
283.458,34.0146,-0.45246,0.481,0.96668
284.158,34.0817,-0.46214,0.48269,0.96628
284.858,34.14869,-0.47188,0.48458,0.96588
285.558,34.21597,-0.48251,0.48376,0.96548
286.258,34.28313,-0.49261,0.48206,0.96507
286.958,34.35018,-0.50396,0.48174,0.96467
287.658,34.4172,-0.51334,0.47971,0.96427
288.358,34.48417,-0.52357,0.48042,0.96386
289.058,34.5511,-0.53413,0.47974,0.96346
289.758,34.61789,-0.54379,0.48188,0.96305
290.458,34.68483,-0.55656,0.48122,0.96264
291.158,34.75161,-0.56718,0.47911,0.96224
291.858,34.81875,-0.5779,0.4793,0.96183
292.558,34.88568,-0.5896,0.47834,0.96142
293.258,34.9527,-0.60198,0.47866,0.96101
293.958,35.01959,-0.61243,0.47469,0.9606
294.658,35.08645,-0.62272,0.47685,0.96019
295.358,35.15355,-0.63333,0.47491,0.95978
296.058,35.22061,-0.64622,0.47153,0.95937
296.758,35.28778,-0.65854,0.47347,0.95895
297.458,35.35472,-0.66996,0.47128,0.95854
298.158,35.42171,-0.68184,0.47147,0.95813
298.858,35.48884,-0.69251,0.4675,0.95771
299.558,35.5559,-0.70541,0.4719,0.9573
300.258,35.6227,-0.71547,0.47012,0.95689
300.958,35.68978,-0.72707,0.46903,0.95647
301.658,35.75685,-0.73918,0.47204,0.95605
302.358,35.82399,-0.74923,0.47062,0.95564
303.058,35.89096,-0.76257,0.47103,0.95522
303.758,35.95793,-0.77493,0.47101,0.9548
304.458,36.02505,-0.78674,0.46897,0.95438
305.158,36.09196,-0.79851,0.47016,0.95396
305.858,36.15892,-0.81162,0.47253,0.95354
306.558,36.22568,-0.82353,0.47386,0.95312
307.258,36.29258,-0.83557,0.47293,0.9527
307.958,36.3593,-0.84756,0.47379,0.95228
308.658,36.4265,-0.86017,0.47583,0.95186
309.358,36.49348,-0.87329,0.47642,0.95144
310.058,36.56064,-0.88551,0.47747,0.95101
310.758,36.62755,-0.89757,0.47755,0.95059
311.458,36.69454,-0.91107,0.48098,0.95017
312.158,36.76161,-0.9241,0.48133,0.94974
312.858,36.82881,-0.9352,0.48321,0.94932
313.558,36.89601,-0.94891,0.48633,0.94889
314.258,36.96309,-0.9619,0.48581,0.94846
314.958,37.03024,-0.97363,0.487,0.94804
315.658,37.09749,-0.98734,0.48894,0.94761
316.358,37.16487,-1.00082,0.49362,0.94718
317.058,37.23214,-1.01388,0.4946,0.94675
317.758,37.29929,-1.02603,0.49865,0.94632
318.458,37.36655,-1.03943,0.4995,0.94589
319.158,37.43385,-1.0557,0.50259,0.94546
319.858,37.5011,-1.06733,0.50365,0.94503
320.558,37.56827,-1.08028,0.50648,0.9446
321.258,37.63556,-1.09471,0.51047,0.94417
321.958,37.70282,-1.1082,0.51319,0.94373
322.658,37.7701,-1.12271,0.51576,0.9433
323.358,37.83741,-1.13646,0.52023,0.94287
324.058,37.9049,-1.15001,0.52088,0.94243
324.758,37.97235,-1.16317,0.52642,0.942
325.458,38.03978,-1.17856,0.52836,0.94156
326.158,38.10713,-1.1941,0.5324,0.94113
326.858,38.17459,-1.20913,0.53473,0.94069
327.558,38.242,-1.22292,0.53974,0.94025
328.258,38.3097,-1.23802,0.54328,0.93982
328.958,38.37717,-1.25317,0.54818,0.93938
329.658,38.44449,-1.26846,0.54969,0.93894
330.358,38.51175,-1.28482,0.55444,0.9385
331.058,38.57931,-1.29894,0.55988,0.93806
331.758,38.6468,-1.3132,0.5619,0.93762
332.458,38.7145,-1.32945,0.5671,0.93718
333.158,38.78202,-1.34688,0.57299,0.93674
333.858,38.8499,-1.3627,0.57718,0.9363
334.558,38.91774,-1.37761,0.58043,0.93585
335.258,38.9854,-1.39433,0.5876,0.93541
335.958,39.05283,-1.41175,0.59105,0.93497
336.658,39.12023,-1.4271,0.59853,0.93452
337.358,39.18789,-1.44403,0.6021,0.93408
338.058,39.2555,-1.4609,0.61018,0.93363
338.758,39.3232,-1.47742,0.61698,0.93319
339.458,39.39074,-1.49633,0.62236,0.93274
340.158,39.45856,-1.51342,0.63091,0.93229
340.858,39.52646,-1.52735,0.63484,0.93185
341.558,39.5944,-1.54946,0.64179,0.9314
342.258,39.6622,-1.56946,0.64812,0.93095
342.958,39.72995,-1.58785,0.65987,0.9305
343.658,39.79785,-1.60675,0.66458,0.93005
344.358,39.86558,-1.62464,0.67264,0.9296
345.058,39.93354,-1.6442,0.68334,0.92915
345.758,40.0015,-1.66364,0.68903,0.9287
346.458,40.06929,-1.68426,0.69727,0.92825
347.158,40.137,-1.70544,0.70691,0.9278
347.858,40.20483,-1.72566,0.71654,0.92735
348.558,40.27283,-1.74655,0.72547,0.92689
349.258,40.3407,-1.76981,0.73879,0.92644
349.958,40.40842,-1.7907,0.74619,0.92599
350.658,40.47592,-1.81231,0.75864,0.92553
351.358,40.54381,-1.83471,0.7705,0.92508
352.058,40.6118,-1.85953,0.78187,0.92462
352.758,40.67993,-1.88258,0.7921,0.92417
353.458,40.74772,-1.90736,0.80355,0.92371
354.158,40.8156,-1.93331,0.81523,0.92325
354.858,40.8836,-1.95674,0.82718,0.9228
355.558,40.95148,-1.98146,0.83815,0.92234
356.258,41.01935,-2.00764,0.84877,0.92188
356.958,41.0873,-2.03323,0.86009,0.92142
357.658,41.15531,-2.05959,0.87134,0.92096
358.358,41.22331,-2.08762,0.88057,0.9205
359.058,41.2911,-2.1163,0.89143,0.92004
359.758,41.35908,-2.14267,0.89853,0.91958
360.458,41.42703,-2.17145,0.90688,0.91912
361.158,41.49517,-2.20043,0.9161,0.91866
361.858,41.56312,-2.22857,0.92263,0.91819
362.558,41.63111,-2.25919,0.92989,0.91773
363.258,41.69915,-2.28969,0.93451,0.91727
363.958,41.76724,-2.31901,0.93367,0.9168
364.658,41.83494,-2.34932,0.9362,0.91634
365.358,41.9029,-2.37953,0.93767,0.91587
366.058,41.97088,-2.40862,0.93551,0.91541
366.758,42.0392,-2.43756,0.93098,0.91494
367.458,42.1075,-2.46834,0.92803,0.91448
368.158,42.1757,-2.49941,0.91816,0.91401
368.858,42.24382,-2.52738,0.90724,0.91354
369.558,42.3114,-2.55668,0.89523,0.91308
370.258,42.3791,-2.58571,0.87751,0.91261
370.958,42.44689,-2.61199,0.86036,0.91214
371.658,42.51502,-2.64116,0.83928,0.91167
372.358,42.5831,-2.66782,0.81449,0.9112
373.058,42.65106,-2.69387,0.78854,0.91073
373.758,42.7188,-2.71799,0.76073,0.91026
374.458,42.7866,-2.74178,0.73252,0.90979
375.158,42.85432,-2.76567,0.69631,0.90932
375.858,42.92205,-2.78611,0.66245,0.90884
376.558,42.98958,-2.80916,0.6272,0.90837
377.258,43.05724,-2.82956,0.58868,0.9079
377.958,43.12489,-2.84573,0.549,0.90742
378.658,43.19253,-2.86361,0.50828,0.90695
379.358,43.2603,-2.87853,0.46492,0.90648
380.058,43.32802,-2.89216,0.427,0.906
380.758,43.39581,-2.90534,0.38687,0.90553
381.458,43.4634,-2.91779,0.34911,0.90505
382.158,43.53089,-2.92831,0.3122,0.90457
382.858,43.59854,-2.93798,0.27527,0.9041
383.558,43.6662,-2.94453,0.24399,0.90362
384.258,43.73381,-2.95018,0.21654,0.90314
384.958,43.8015,-2.9575,0.18993,0.90266
385.658,43.86911,-2.96371,0.16358,0.90219
386.358,43.93694,-2.9681,0.14457,0.90171
387.058,44.00464,-2.97351,0.12586,0.90123
387.758,44.07251,-2.97706,0.11156,0.90075
388.458,44.14045,-2.98006,0.1017,0.90027
389.158,44.2083,-2.98407,0.09076766,0.89979
389.858,44.2761,-2.98555,0.08001002,0.89931
390.558,44.34387,-2.98753,0.07491715,0.89882
391.258,44.4116,-2.99049,0.06616687,0.89834
391.958,44.47927,-2.99181,0.06281991,0.89786
392.658,44.54705,-2.99465,0.06108032,0.89738
393.358,44.6151,-2.99606,0.05672989,0.89689
394.058,44.68316,-2.99861,0.05198572,0.89641
394.758,44.7515,-3.0002,0.05159069,0.89592
395.458,44.81929,-3.00201,0.04917088,0.89544
396.158,44.88738,-3.00512,0.04867308,0.89495
396.858,44.95507,-3.00701,0.04557483,0.89447
397.558,45.02312,-3.00859,0.04389906,0.89398
398.258,45.0912,-3.01084,0.04007144,0.89349
398.958,45.15948,-3.01253,0.03993726,0.89301
399.658,45.2276,-3.01351,0.03675054,0.89252
400.358,45.2956,-3.01622,0.03692991,0.89203
401.058,45.36358,-3.01744,0.03224515,0.89154
401.758,45.4319,-3.02026,0.0337612,0.89106
402.458,45.50027,-3.02288,0.03030789,0.89057
403.158,45.5687,-3.02281,0.02644187,0.89008
403.858,45.637,-3.02545,0.02368628,0.88959
404.558,45.70512,-3.0268,0.02456404,0.8891
405.258,45.77365,-3.02681,0.02340637,0.8886
405.958,45.84207,-3.02836,0.01915897,0.88811
406.658,45.91061,-3.03233,0.02122405,0.88762
407.358,45.97882,-3.03513,0.02131959,0.88713
408.058,46.04704,-3.03646,0.01861576,0.88664
408.758,46.11521,-3.03786,0.01801246,0.88614
409.458,46.18354,-3.0393,0.01380866,0.88565
410.158,46.25203,-3.0404,0.01383866,0.88516
410.858,46.3204,-3.04172,0.0146459,0.88466
411.558,46.3887,-3.04445,0.01076628,0.88417
412.258,46.45695,-3.04587,0.009041294,0.88367
412.958,46.5252,-3.04723,0.00927723,0.88318
413.658,46.59345,-3.04729,0.00609831,0.88268
414.358,46.66098,-3.05055,0.008694059,0.88218
415.058,46.729,-3.05268,0.006321426,0.88169
415.758,46.7971,-3.0553,0.006434756,0.88119
416.458,46.86578,-3.05805,0.007951502,0.88069
417.158,46.93417,-3.05937,0.00570604,0.88019
417.858,47.0026,-3.06062,0.00584238,0.8797
418.558,47.0711,-3.06066,0.006014788,0.8792
419.258,47.13941,-3.06375,0.004358202,0.8787
419.958,47.20786,-3.06509,0.002014667,0.8782
420.658,47.2762,-3.06653,0.003877926,0.8777
421.358,47.34465,-3.06979,0.00525802,0.8772
422.058,47.41308,-3.07101,0.004006018,0.8767
422.758,47.4814,-3.07231,0.004242269,0.87619
423.458,47.54981,-3.07313,0.00476574,0.87569
424.158,47.61822,-3.07368,0.00305969,0.87519
424.858,47.6868,-3.07768,0.001737489,0.87469
425.558,47.75533,-3.07902,0.004404223,0.87418
426.258,47.82378,-3.08031,0.003762239,0.87368
426.958,47.89222,-3.08166,0.004515777,0.87318
427.658,47.9608,-3.08242,0.00231093,0.87267
428.358,48.0296,-3.08295,0.002323401,0.87217
429.058,48.0985,-3.08295,0.00246532,0.87166
429.758,48.16737,-3.08559,0.003763421,0.87116
430.458,48.23604,-3.08827,0.004757725,0.87065
431.158,48.3048,-3.0892,0.004082002,0.87015
431.858,48.37345,-3.089,0.0068397,0.86964
432.558,48.44225,-3.091,0.00660317,0.86913
433.258,48.51104,-3.09291,0.00537268,0.86863
433.958,48.57973,-3.09424,0.007818284,0.86812
434.658,48.64855,-3.09556,0.005576927,0.86761
435.358,48.71733,-3.09589,0.008961744,0.8671
436.058,48.78633,-3.0984,0.007120087,0.86659
436.758,48.85512,-3.10134,0.01062593,0.86608
437.458,48.92388,-3.10267,0.01348874,0.86557
438.158,48.9926,-3.10395,0.01262007,0.86506
438.858,49.06135,-3.10385,0.01350888,0.86455
439.558,49.13028,-3.10522,0.0179846,0.86404
440.258,49.19903,-3.1075,0.01946506,0.86353
440.958,49.26782,-3.10786,0.01755561,0.86302
441.658,49.33656,-3.10918,0.02422925,0.86251
442.358,49.40551,-3.11112,0.02341721,0.862
443.058,49.4744,-3.11137,0.02225676,0.86148
443.758,49.54318,-3.11427,0.02364294,0.86097
444.458,49.61193,-3.11552,0.0255293,0.86046
445.158,49.68067,-3.11553,0.02426243,0.85994
445.858,49.74948,-3.11684,0.03175908,0.85943
446.558,49.8183,-3.11815,0.0308774,0.85891
447.258,49.8872,-3.11943,0.03199413,0.8584
447.958,49.95592,-3.12079,0.03443676,0.85788
448.658,50.02449,-3.12204,0.03225122,0.85737
449.358,50.09305,-3.12343,0.03714934,0.85685
450.058,50.16186,-3.12342,0.03815779,0.85634
450.758,50.23038,-3.12475,0.03901778,0.85582
451.458,50.29908,-3.12606,0.03927107,0.8553
452.158,50.36787,-3.12736,0.04064549,0.85478
452.858,50.43718,-3.12737,0.04281654,0.85427
453.558,50.50629,-3.12869,0.0431869,0.85375
454.258,50.57509,-3.13009,0.04372266,0.85323
454.958,50.64375,-3.13021,0.04308815,0.85271
455.658,50.7126,-3.13133,0.0435675,0.85219
456.358,50.78141,-3.13141,0.04847547,0.85167
457.058,50.85031,-3.134,0.05047266,0.85115
457.758,50.91905,-3.13527,0.049503,0.85063
458.458,50.98792,-3.13659,0.05146361,0.85011
459.158,51.0569,-3.13789,0.05152651,0.84959
459.858,51.12607,-3.13878,0.05300768,0.84907
460.558,51.19497,-3.14011,0.05235058,0.84855
461.258,51.26396,-3.1403,0.05669445,0.84802
461.958,51.33283,-3.14148,0.05564053,0.8475
462.658,51.40204,-3.14284,0.05579828,0.84698
463.358,51.47102,-3.14414,0.05854384,0.84646
464.058,51.54002,-3.14547,0.06141138,0.84593
464.758,51.609,-3.14547,0.0623874,0.84541
465.458,51.67811,-3.14679,0.06076351,0.84488
466.158,51.74738,-3.14712,0.06109467,0.84436
466.858,51.81674,-3.14843,0.06186794,0.84384
467.558,51.88602,-3.14843,0.06121182,0.84331
468.258,51.95514,-3.14876,0.06360071,0.84278
468.958,52.02422,-3.15106,0.06416134,0.84226
469.658,52.0933,-3.15238,0.06744059,0.84173
470.358,52.16253,-3.15231,0.06912148,0.84121
471.058,52.23162,-3.1537,0.06864425,0.84068
471.758,52.30075,-3.15414,0.07074533,0.84015
472.458,52.36984,-3.15603,0.07557802,0.83962
473.158,52.43878,-3.15599,0.07641774,0.8391
473.858,52.5077,-3.15666,0.07598046,0.83857
474.558,52.57645,-3.15863,0.08118989,0.83804
475.258,52.64545,-3.15772,0.0822652,0.83751
475.958,52.71441,-3.15863,0.08851465,0.83698
476.658,52.7835,-3.15867,0.08877601,0.83645
477.358,52.8525,-3.15891,0.09100671,0.83592
478.058,52.9215,-3.15995,0.09747004,0.83539
478.758,52.99057,-3.16126,0.10405,0.83486
479.458,53.0595,-3.16258,0.10421,0.83433
480.158,53.1286,-3.16258,0.10573,0.8338
480.858,53.1978,-3.16258,0.1062,0.83327
481.558,53.2669,-3.16258,0.10799,0.83274
482.258,53.33594,-3.16253,0.11098,0.8322
482.958,53.4047,-3.16387,0.11261,0.83167
483.658,53.47367,-3.1662,0.11126,0.83114
484.358,53.5426,-3.16655,0.11422,0.83061
485.058,53.6117,-3.16653,0.11483,0.83007
485.758,53.68084,-3.16652,0.11657,0.82954
486.458,53.7501,-3.16789,0.11662,0.82901
487.158,53.8194,-3.16881,0.114,0.82847
487.858,53.8884,-3.16915,0.11767,0.82794
488.558,53.9573,-3.17047,0.11427,0.8274
489.258,54.02624,-3.16917,0.11516,0.82687
489.958,54.09545,-3.17347,0.11559,0.82633
490.658,54.1646,-3.17475,0.11699,0.82579
491.358,54.23389,-3.17475,0.11937,0.82526
492.058,54.30285,-3.17468,0.11758,0.82472
492.758,54.37211,-3.17607,0.11644,0.82419
493.458,54.4413,-3.17493,0.114,0.82365
494.158,54.51054,-3.17475,0.11672,0.82311
494.858,54.57954,-3.1762,0.11629,0.82257
495.558,54.6487,-3.17748,0.11332,0.82204
496.258,54.7181,-3.17877,0.11264,0.8215
496.958,54.78745,-3.18012,0.11062,0.82096
497.658,54.85654,-3.18012,0.11131,0.82042
498.358,54.92575,-3.18144,0.11162,0.81988
499.058,54.9949,-3.18145,0.11064,0.81934
499.758,55.06423,-3.18013,0.11057,0.8188
500.458,55.13296,-3.18154,0.10709,0.81826
501.158,55.2023,-3.18263,0.10323,0.81772
501.858,55.2716,-3.18271,0.10017,0.81718
502.558,55.3413,-3.18407,0.09985373,0.81664
503.258,55.4106,-3.18539,0.09653087,0.8161
503.958,55.47987,-3.18671,0.09352915,0.81556
504.658,55.54926,-3.18671,0.08814708,0.81501
505.358,55.61841,-3.1854,0.09042907,0.81447
506.058,55.68772,-3.1867,0.09021026,0.81393
506.758,55.7569,-3.18804,0.08838625,0.81339
507.458,55.8265,-3.18799,0.08889769,0.81284
508.158,55.89572,-3.18974,0.0855932,0.8123
508.858,55.9651,-3.18966,0.08512802,0.81176
509.558,56.03419,-3.19092,0.08192473,0.81121
510.258,56.1036,-3.1896,0.08157648,0.81067
510.958,56.1729,-3.18895,0.08062396,0.81012
511.658,56.2423,-3.19026,0.08066174,0.80958
512.358,56.3115,-3.19315,0.07935402,0.80903
513.058,56.3808,-3.19362,0.08235144,0.80849
513.758,56.44995,-3.19362,0.08065943,0.80794
514.458,56.5193,-3.19494,0.07916145,0.8074
515.158,56.5888,-3.19494,0.07857757,0.80685
515.858,56.65844,-3.19627,0.07874636,0.80631
516.558,56.7279,-3.19626,0.08085056,0.80576
517.258,56.79735,-3.19626,0.07906881,0.80521
517.958,56.8667,-3.19689,0.08031169,0.80467
518.658,56.9363,-3.19823,0.0790331,0.80412
519.358,57.00574,-3.19823,0.07836912,0.80357
520.058,57.0751,-3.19951,0.07916882,0.80302
520.758,57.14436,-3.19955,0.07952649,0.80247
521.458,57.2137,-3.19955,0.08204766,0.80193
522.158,57.2832,-3.19987,0.08111997,0.80138
522.858,57.35264,-3.20022,0.08007719,0.80083
523.558,57.422,-3.20152,0.08344256,0.80028
524.258,57.4913,-3.20152,0.07937943,0.79973
524.958,57.5609,-3.2025,0.08189847,0.79918
525.658,57.63041,-3.20249,0.07901761,0.79863
526.358,57.7001,-3.20193,0.08154829,0.79808
527.058,57.76967,-3.20283,0.08250795,0.79753
527.758,57.83916,-3.20415,0.07828047,0.79698
528.458,57.90863,-3.20415,0.08101859,0.79643
529.158,57.9782,-3.20545,0.07867478,0.79587
529.858,58.0478,-3.20547,0.07812832,0.79532
530.558,58.11733,-3.20675,0.08181104,0.79477
531.258,58.18671,-3.20709,0.07826968,0.79422
531.958,58.25626,-3.20711,0.07761445,0.79367
532.658,58.3258,-3.20701,0.0747892,0.79311
533.358,58.39572,-3.20978,0.07699824,0.79256
534.058,58.46561,-3.20974,0.07285738,0.79201
534.758,58.53536,-3.21041,0.07513054,0.79145
535.458,58.60499,-3.2104,0.07508628,0.7909
536.158,58.6745,-3.21094,0.07366627,0.79035
536.858,58.74415,-3.21105,0.0731904,0.78979
537.558,58.8137,-3.21238,0.07284729,0.78924
538.258,58.8834,-3.21238,0.07252992,0.78868
538.958,58.95305,-3.2123,0.07264185,0.78813
539.658,59.0229,-3.21337,0.07110898,0.78757
540.358,59.09271,-3.21337,0.06885324,0.78702
541.058,59.1625,-3.21337,0.07008545,0.78646
541.758,59.23226,-3.21373,0.0728767,0.78591
542.458,59.30194,-3.21501,0.06949322,0.78535
543.158,59.37154,-3.21501,0.07209842,0.7848
543.858,59.44118,-3.21633,0.06646405,0.78424
544.558,59.51079,-3.2168,0.06754323,0.78368
545.258,59.58056,-3.21894,0.06963403,0.78312
545.958,59.6502,-3.21764,0.06643046,0.78257
546.658,59.71999,-3.21896,0.06492588,0.78201
547.358,59.78977,-3.21764,0.06536528,0.78145
548.058,59.85963,-3.21764,0.06261408,0.78089
548.758,59.92944,-3.21764,0.06478084,0.78034
549.458,59.9992,-3.21995,0.057961,0.77978
550.158,60.0689,-3.22028,0.05956282,0.77922
550.858,60.13853,-3.22028,0.05916741,0.77866
551.558,60.20841,-3.21901,0.05963686,0.7781
552.258,60.27815,-3.21952,0.0597444,0.77754
552.958,60.3479,-3.22137,0.05862353,0.77698
553.658,60.4176,-3.22313,0.05969492,0.77642
554.358,60.48738,-3.22325,0.0522561,0.77586
555.058,60.55705,-3.22443,0.05013634,0.7753
555.758,60.62661,-3.22444,0.0535734,0.77474
556.458,60.6962,-3.2229,0.0536025,0.77418
557.158,60.766,-3.22512,0.05568619,0.77362
557.858,60.8361,-3.22576,0.05319493,0.77306
558.558,60.90591,-3.22691,0.04855073,0.7725
559.258,60.97595,-3.22608,0.05242223,0.77194
559.958,61.04543,-3.22737,0.04770128,0.77138
560.658,61.11551,-3.22773,0.04972467,0.77081
561.358,61.18549,-3.22905,0.04635347,0.77025
562.058,61.25589,-3.22776,0.04879594,0.76969
562.758,61.32603,-3.22911,0.04863717,0.76913
563.458,61.3962,-3.22905,0.04764901,0.76856
564.158,61.46629,-3.22905,0.04519658,0.768
564.858,61.5358,-3.2314,0.0454534,0.76744
565.558,61.6057,-3.23168,0.04399804,0.76687
566.258,61.67575,-3.23168,0.04478958,0.76631
566.958,61.7463,-3.23168,0.04383738,0.76575
567.658,61.81629,-3.23167,0.04126662,0.76518
568.358,61.88621,-3.233,0.03727967,0.76462
569.058,61.9564,-3.23169,0.04105497,0.76405
569.758,62.02665,-3.23235,0.04058196,0.76349
570.458,62.09686,-3.23431,0.04087646,0.76293
571.158,62.1668,-3.23568,0.03913701,0.76236
571.858,62.237,-3.23561,0.0359132,0.7618
572.558,62.307,-3.23432,0.03489439,0.76123
573.258,62.3774,-3.2343,0.03733332,0.76066
573.958,62.44751,-3.23432,0.03593051,0.7601
574.658,62.5182,-3.23564,0.0381934,0.75953
575.358,62.58835,-3.23696,0.03392432,0.75897
576.058,62.65857,-3.23827,0.03699855,0.7584
576.758,62.72849,-3.23958,0.03741694,0.75783
577.458,62.7986,-3.23864,0.03702879,0.75727
578.158,62.8688,-3.23826,0.03734707,0.7567
578.858,62.9391,-3.23958,0.03602871,0.75613
579.558,63.0091,-3.24089,0.03707828,0.75557
580.258,63.0789,-3.24078,0.03633806,0.755
580.958,63.1488,-3.23947,0.03514646,0.75443
581.658,63.21892,-3.24077,0.03818156,0.75386
582.358,63.289,-3.24079,0.03745092,0.75329
583.058,63.3591,-3.24079,0.03618267,0.75273
583.758,63.4291,-3.2421,0.03645533,0.75216
584.458,63.4994,-3.2421,0.03543619,0.75159
585.158,63.5694,-3.24209,0.03752547,0.75102
585.858,63.63924,-3.2421,0.03654084,0.75045
586.558,63.70907,-3.24209,0.03736223,0.74988
587.258,63.779,-3.24341,0.03896096,0.74931
587.958,63.84899,-3.24473,0.03865675,0.74874
588.658,63.9188,-3.24473,0.03874729,0.74817
589.358,63.98876,-3.24474,0.03872052,0.7476
590.058,64.0587,-3.24605,0.03899693,0.74703
590.758,64.12865,-3.24605,0.04160619,0.74646
591.458,64.19856,-3.24537,0.04004361,0.74589
592.158,64.2685,-3.24475,0.04155403,0.74532
592.858,64.3385,-3.24473,0.03861062,0.74475
593.558,64.40867,-3.24605,0.03973373,0.74418
594.258,64.47882,-3.24637,0.04069985,0.74361
594.958,64.54893,-3.2477,0.03874851,0.74304
595.658,64.61879,-3.2477,0.03922858,0.74247
596.358,64.6887,-3.2477,0.03765458,0.7419
597.058,64.75862,-3.24835,0.0408903,0.74132
597.758,64.8288,-3.24835,0.03756914,0.74075
598.458,64.89872,-3.24967,0.04125961,0.74018
599.158,64.96874,-3.25062,0.04148504,0.73961
599.858,65.03866,-3.25128,0.04230967,0.73903
600.558,65.1088,-3.2523,0.04376746,0.73846
601.258,65.179,-3.25362,0.04136826,0.73789
601.958,65.2491,-3.2523,0.04165144,0.73732
602.658,65.31925,-3.25329,0.04325052,0.73674
603.358,65.38914,-3.25395,0.04355424,0.73617
604.058,65.45905,-3.25461,0.04990941,0.7356
604.758,65.52898,-3.25362,0.04886292,0.73502
605.458,65.599,-3.25362,0.04736034,0.73445
606.158,65.66904,-3.25493,0.04818844,0.73388
606.858,65.73911,-3.25559,0.04793163,0.7333
607.558,65.80941,-3.25691,0.04874271,0.73273
608.258,65.87953,-3.25691,0.04862749,0.73215
608.958,65.9496,-3.25407,0.04921015,0.73158
609.658,66.01958,-3.25724,0.05044619,0.731
610.358,66.0897,-3.2572,0.05302215,0.73043
611.058,66.15982,-3.25723,0.05769691,0.72986
611.758,66.22995,-3.25723,0.05233129,0.72928
612.458,66.30011,-3.25756,0.05172206,0.7287
613.158,66.37024,-3.25756,0.05532674,0.72813
613.858,66.4405,-3.25654,0.05485719,0.72755
614.558,66.5106,-3.25787,0.05760727,0.72698
615.258,66.58069,-3.25922,0.05637899,0.7264
615.958,66.6507,-3.26042,0.05865306,0.72583
616.658,66.72081,-3.26174,0.05979076,0.72525
617.358,66.79109,-3.26209,0.06107113,0.72467
618.058,66.8614,-3.2611,0.06100443,0.7241
618.758,66.93189,-3.26108,0.0629302,0.72352
619.458,67.0021,-3.26076,0.05975019,0.72295
620.158,67.0723,-3.26075,0.06260491,0.72237
620.858,67.14239,-3.26075,0.06336273,0.72179
621.558,67.21263,-3.26075,0.06382437,0.72121
622.258,67.28281,-3.26075,0.06540716,0.72064
622.958,67.35305,-3.26079,0.06817066,0.72006
623.658,67.42322,-3.26242,0.06911649,0.71948
624.358,67.49341,-3.26336,0.06930427,0.71891
625.058,67.56356,-3.26401,0.07046028,0.71833
625.758,67.63373,-3.26404,0.07237441,0.71775
626.458,67.7038,-3.26338,0.07392863,0.71717
627.158,67.77388,-3.26338,0.07446734,0.71659
627.858,67.84365,-3.26338,0.07480824,0.71602
628.558,67.9136,-3.26344,0.07632984,0.71544
629.258,67.98379,-3.26371,0.07814299,0.71486
629.958,68.05426,-3.26388,0.08159424,0.71428
630.658,68.1246,-3.26275,0.08350993,0.7137
631.358,68.19501,-3.26305,0.08137536,0.71312
632.058,68.26546,-3.26535,0.08715035,0.71254
632.758,68.33595,-3.2668,0.0863004,0.71197
633.458,68.40641,-3.26799,0.08462863,0.71139
634.158,68.47691,-3.26797,0.08844053,0.71081
634.858,68.54746,-3.26668,0.08983552,0.71023
635.558,68.61776,-3.26799,0.09016488,0.70965
636.258,68.68807,-3.26929,0.08927187,0.70907
636.958,68.75834,-3.2693,0.09314458,0.70849
637.658,68.82881,-3.26994,0.09325054,0.70791
638.358,68.89931,-3.26931,0.09037897,0.70733
639.058,68.96974,-3.26931,0.09604309,0.70675
639.758,69.04001,-3.27065,0.09607172,0.70617
640.458,69.11021,-3.2716,0.09628014,0.70559
641.158,69.18038,-3.2716,0.09820809,0.70501
641.858,69.25061,-3.27029,0.10223,0.70443
642.558,69.32089,-3.26918,0.10318,0.70385
643.258,69.39103,-3.26773,0.10444,0.70327
643.958,69.4611,-3.2703,0.10651,0.70269
644.658,69.5312,-3.2716,0.10846,0.7021
645.358,69.6015,-3.2716,0.1144,0.70152
646.058,69.67174,-3.27029,0.11327,0.70094
646.758,69.74189,-3.27029,0.11762,0.70036
647.458,69.81209,-3.27161,0.12025,0.69978
648.158,69.88224,-3.27292,0.12073,0.6992
648.858,69.95235,-3.2716,0.12084,0.69862
649.558,70.02245,-3.27301,0.12431,0.69804
650.258,70.09278,-3.27296,0.12614,0.69745
650.958,70.16319,-3.2716,0.12626,0.69687
651.658,70.23343,-3.27291,0.12996,0.69629
652.358,70.30356,-3.27292,0.13434,0.69571
653.058,70.3736,-3.27287,0.1348,0.69513
653.758,70.44365,-3.2736,0.14143,0.69454
654.458,70.5141,-3.27358,0.14533,0.69396
655.158,70.5847,-3.27349,0.14592,0.69338
655.858,70.6555,-3.2749,0.14804,0.6928
656.558,70.72586,-3.27622,0.14837,0.69221
657.258,70.79635,-3.27622,0.14862,0.69163
657.958,70.8669,-3.2749,0.15343,0.69105
658.658,70.93746,-3.2749,0.1538,0.69047
659.358,71.00798,-3.2749,0.15499,0.68988
660.058,71.0784,-3.2749,0.15752,0.6893
660.758,71.1489,-3.27555,0.15817,0.68872
661.458,71.21936,-3.2749,0.15802,0.68813
662.158,71.28986,-3.2749,0.16183,0.68755
662.858,71.3604,-3.27622,0.1636,0.68697
663.558,71.43086,-3.2749,0.1651,0.68638
664.258,71.50134,-3.27568,0.16924,0.6858
664.958,71.5718,-3.27589,0.17164,0.68522
665.658,71.64235,-3.27621,0.17011,0.68463
666.358,71.71279,-3.27489,0.17213,0.68405
667.058,71.78322,-3.27489,0.1767,0.68346
667.758,71.85351,-3.27624,0.18139,0.68288
668.458,71.92373,-3.27753,0.18477,0.6823
669.158,71.99365,-3.27753,0.18692,0.68171
669.858,72.06376,-3.27753,0.18697,0.68113
670.558,72.13385,-3.27759,0.19395,0.68054
671.258,72.20427,-3.27886,0.19272,0.67996
671.958,72.27473,-3.2789,0.19498,0.67938
672.658,72.34527,-3.2795,0.19914,0.67879
673.358,72.41571,-3.2795,0.19564,0.67821
674.058,72.486,-3.28081,0.19999,0.67762
674.758,72.55624,-3.28012,0.19552,0.67704
675.458,72.6264,-3.28028,0.19712,0.67645
676.158,72.69682,-3.28016,0.1988,0.67587
676.858,72.7675,-3.28016,0.20109,0.67528
677.558,72.83815,-3.28016,0.20044,0.6747
678.258,72.90844,-3.28016,0.20238,0.67411
678.958,72.97879,-3.28016,0.20544,0.67353
679.658,73.0492,-3.28148,0.20291,0.67294
680.358,73.11998,-3.28017,0.20648,0.67236
681.058,73.19049,-3.28017,0.20293,0.67177
681.758,73.26114,-3.28053,0.20513,0.67119
682.458,73.33152,-3.2805,0.20832,0.6706
683.158,73.40208,-3.28019,0.20664,0.67002
683.858,73.47246,-3.27951,0.20838,0.66943
684.558,73.5433,-3.2795,0.20907,0.66885
685.258,73.6139,-3.28125,0.20978,0.66826
685.958,73.6845,-3.28217,0.21145,0.66767
686.658,73.75485,-3.28343,0.20755,0.66709
687.358,73.82548,-3.28214,0.21157,0.6665
688.058,73.89625,-3.28214,0.20903,0.66592
688.758,73.96701,-3.28214,0.21259,0.66533
689.458,74.03782,-3.28214,0.20821,0.66475
690.158,74.10858,-3.2828,0.21344,0.66416
690.858,74.1793,-3.28411,0.21246,0.66357
691.558,74.24983,-3.28279,0.21413,0.66299
692.258,74.3203,-3.28216,0.21272,0.6624
692.958,74.39078,-3.2839,0.21767,0.66182
693.658,74.46137,-3.28411,0.21119,0.66123
694.358,74.53194,-3.28444,0.21234,0.66064
695.058,74.60274,-3.28443,0.21512,0.66006
695.758,74.67348,-3.28313,0.21541,0.65947
696.458,74.74426,-3.28313,0.2186,0.65888
697.158,74.81488,-3.28316,0.21676,0.6583
697.858,74.88543,-3.28447,0.21954,0.65771
698.558,74.95583,-3.28477,0.22062,0.65712
699.258,75.0262,-3.28477,0.21832,0.65654
699.958,75.0969,-3.28608,0.21795,0.65595
700.658,75.16764,-3.28607,0.22137,0.65537
701.358,75.23878,-3.28872,0.22215,0.65478
702.058,75.30964,-3.28769,0.21918,0.65419
702.758,75.38067,-3.2874,0.22304,0.65361
703.458,75.45147,-3.28675,0.22172,0.65302
704.158,75.52241,-3.28774,0.2242,0.65243
704.858,75.59342,-3.28778,0.22233,0.65184
705.558,75.66456,-3.28869,0.22178,0.65126
706.258,75.7355,-3.28793,0.22196,0.65067
706.958,75.80632,-3.28604,0.22803,0.65008
707.658,75.87695,-3.28608,0.2262,0.6495
708.358,75.94788,-3.28608,0.22583,0.64891
709.058,76.01865,-3.28707,0.22751,0.64832
709.758,76.08944,-3.28707,0.22457,0.64774
710.458,76.16022,-3.2874,0.22983,0.64715
711.158,76.2311,-3.28773,0.2264,0.64656
711.858,76.30213,-3.28658,0.22814,0.64598
712.558,76.37285,-3.28741,0.2275,0.64539
713.258,76.44367,-3.28882,0.22681,0.6448
713.958,76.5143,-3.28872,0.22459,0.64421
714.658,76.58498,-3.28853,0.23032,0.64363
715.358,76.65564,-3.28872,0.22976,0.64304
716.058,76.72638,-3.28872,0.22981,0.64245
716.758,76.79724,-3.28968,0.22776,0.64187
717.458,76.86801,-3.28971,0.23355,0.64128
718.158,76.9388,-3.29004,0.23358,0.64069
718.858,77.00957,-3.29135,0.23111,0.6401
719.558,77.08033,-3.29167,0.22714,0.63952
720.258,77.15124,-3.29167,0.2294,0.63893
720.958,77.2218,-3.29267,0.23123,0.63834
721.658,77.29295,-3.29134,0.2301,0.63775
722.358,77.36392,-3.29135,0.22842,0.63717
723.058,77.4353,-3.29007,0.22905,0.63658
723.758,77.50621,-3.28907,0.22801,0.63599
724.458,77.5772,-3.29243,0.22839,0.63541
725.158,77.64824,-3.29237,0.22721,0.63482
725.858,77.7194,-3.29223,0.22236,0.63423
726.558,77.7906,-3.29152,0.22256,0.63364
727.258,77.8617,-3.29256,0.22895,0.63306
727.958,77.93273,-3.29256,0.22347,0.63247
728.658,78.00356,-3.29256,0.22532,0.63188
729.358,78.07449,-3.29255,0.22272,0.63129
730.058,78.1454,-3.29289,0.22348,0.63071
730.758,78.2165,-3.29289,0.21897,0.63012
731.458,78.28764,-3.29387,0.2166,0.62953
732.158,78.35879,-3.29418,0.21854,0.62894
732.858,78.42994,-3.29452,0.21497,0.62836
733.558,78.50129,-3.2952,0.21375,0.62777
734.258,78.57242,-3.29651,0.21366,0.62718
734.958,78.64353,-3.2951,0.21154,0.6266
735.658,78.71426,-3.29624,0.20895,0.62601
736.358,78.78525,-3.29623,0.2097,0.62542
737.058,78.8562,-3.29496,0.20671,0.62483
737.758,78.92711,-3.29355,0.20692,0.62425
738.458,78.99785,-3.2952,0.21095,0.62366
739.158,79.06857,-3.29651,0.203,0.62307
739.858,79.13928,-3.29651,0.20323,0.62248
740.558,79.2101,-3.29914,0.20291,0.6219
741.258,79.28105,-3.29914,0.20059,0.62131
741.958,79.35212,-3.29824,0.20165,0.62072
742.658,79.4231,-3.29783,0.20133,0.62013
743.358,79.49387,-3.29788,0.1945,0.61955
744.058,79.5648,-3.29651,0.195,0.61896
744.758,79.6357,-3.29651,0.19248,0.61837
745.458,79.7066,-3.29656,0.19229,0.61779
746.158,79.7774,-3.29512,0.19523,0.6172
746.858,79.84826,-3.29651,0.19169,0.61661
747.558,79.91915,-3.29651,0.19095,0.61602
748.258,79.99016,-3.29914,0.19271,0.61544
748.958,80.06095,-3.30046,0.19366,0.61485
749.658,80.13167,-3.30176,0.19198,0.61426
750.358,80.20225,-3.29971,0.18953,0.61368
751.058,80.273,-3.29675,0.19133,0.61309
751.758,80.34376,-3.29772,0.1913,0.6125
752.458,80.41465,-3.29773,0.19103,0.61191
753.158,80.48545,-3.2964,0.18696,0.61133
753.858,80.55614,-3.29747,0.18825,0.61074
754.558,80.62702,-3.29902,0.1888,0.61015
755.258,80.69792,-3.29773,0.18001,0.60957
755.958,80.76906,-3.29903,0.18271,0.60898
756.658,80.84,-3.29903,0.18489,0.60839
757.358,80.91075,-3.29774,0.17837,0.60781
758.058,80.98134,-3.2964,0.17773,0.60722
758.758,81.05218,-3.29771,0.17414,0.60663
759.458,81.12314,-3.29806,0.17067,0.60605
760.158,81.1943,-3.30034,0.17257,0.60546
760.858,81.26516,-3.30035,0.17359,0.60487
761.558,81.33617,-3.30033,0.16935,0.60429
762.258,81.407,-3.29903,0.17093,0.6037
762.958,81.47796,-3.29902,0.16965,0.60311
763.658,81.54894,-3.29902,0.16966,0.60253
764.358,81.62002,-3.29943,0.16714,0.60194
765.058,81.69105,-3.30034,0.16481,0.60135
765.758,81.76201,-3.30036,0.16759,0.60077
766.458,81.8331,-3.30167,0.16776,0.60018
767.158,81.90428,-3.30166,0.16486,0.59959
767.858,81.97545,-3.30166,0.16718,0.59901
768.558,82.0464,-3.30166,0.16506,0.59842
769.258,82.11725,-3.30256,0.16257,0.59784
769.958,82.18848,-3.30296,0.16222,0.59725
770.658,82.25971,-3.30426,0.16213,0.59666
771.358,82.33096,-3.30363,0.16353,0.59608
772.058,82.40185,-3.30495,0.16058,0.59549
772.758,82.47274,-3.30496,0.16128,0.59491
773.458,82.5438,-3.30594,0.15913,0.59432
774.158,82.6147,-3.30594,0.15982,0.59373
774.858,82.6858,-3.30594,0.15716,0.59315
775.558,82.75686,-3.30594,0.16029,0.59256
776.258,82.8276,-3.30594,0.15776,0.59198
776.958,82.89856,-3.30755,0.15838,0.59139
777.658,82.96946,-3.3066,0.15496,0.59081
778.358,83.0407,-3.3066,0.16208,0.59022
779.058,83.1116,-3.30649,0.1585,0.58963
779.758,83.18251,-3.30529,0.15612,0.58905
780.458,83.25336,-3.30334,0.15949,0.58846
781.158,83.32419,-3.30455,0.15791,0.58788
781.858,83.39505,-3.30425,0.15681,0.58729
782.558,83.46581,-3.30561,0.15736,0.58671
783.258,83.53663,-3.30692,0.15563,0.58612
783.958,83.60754,-3.30826,0.15731,0.58554
784.658,83.6784,-3.30824,0.15429,0.58495
785.358,83.74927,-3.30693,0.15368,0.58437
786.058,83.82016,-3.30792,0.15269,0.58378
786.758,83.89108,-3.3066,0.15782,0.5832
787.458,83.96226,-3.3066,0.15561,0.58261
788.158,84.03333,-3.3066,0.1523,0.58203
788.858,84.1045,-3.30527,0.15495,0.58144
789.558,84.17563,-3.30537,0.15133,0.58086
790.258,84.24669,-3.3043,0.15082,0.58027
790.958,84.3178,-3.30431,0.1511,0.57969
791.658,84.38875,-3.30692,0.15303,0.57911
792.358,84.45999,-3.30823,0.14679,0.57852
793.058,84.5312,-3.30688,0.14252,0.57794
793.758,84.60255,-3.30708,0.13763,0.57735
794.458,84.6737,-3.307,0.14041,0.57677
795.158,84.74489,-3.30695,0.13786,0.57618
795.858,84.81622,-3.30824,0.14102,0.5756
796.558,84.88747,-3.30907,0.13498,0.57502
797.258,84.95872,-3.30827,0.13967,0.57443
797.558,84.98923,-3.30923,0.13825,0.57418