File: 01_Data/Vinyl_Siding/STA/N2/3K_min/Vinyl_Siding_STA_N2_3KData_210107_R1.csv
##Temp./Â°C,Time/min,Mass loss(subtr.2)/mg,DSC(subtr.2)/mW,Sensit./(uV/mW)
48.843,10.01,0.01075,0.01044997,0.58406
49.443,12.1112,0.01306,0.06442885,0.58435
50.043,12.71204,0.01176947,0.10537,0.58463
50.643,13.1783,0.01458937,0.11282,0.58491
51.243,13.58274,0.01547404,0.13176,0.5852
51.843,13.95033,0.01722001,0.14329,0.58548
52.443,14.2933,0.01623917,0.15274,0.58576
53.043,14.6167,0.0160361,0.16705,0.58604
53.643,14.9269,0.01721328,0.17143,0.58631
54.243,15.22742,0.01838069,0.1939,0.58659
54.843,15.5176,0.01864819,0.20164,0.58687
55.443,15.79906,0.01995753,0.19787,0.58714
56.043,16.07135,0.01871051,0.22839,0.58742
56.643,16.33773,0.01865032,0.22693,0.58769
57.243,16.59836,0.01860801,0.21525,0.58796
57.843,16.85339,0.01865001,0.23288,0.58823
58.443,17.10442,0.01865024,0.22387,0.5885
59.043,17.3515,0.01871658,0.22799,0.58877
59.643,17.59556,0.01812128,0.22968,0.58904
60.243,17.8351,0.01950383,0.24886,0.58931
60.843,18.07212,0.01951916,0.25627,0.58957
61.443,18.30649,0.01787101,0.25886,0.58984
62.043,18.53991,0.02117017,0.26368,0.59011
62.643,18.76932,0.02112707,0.27256,0.59037
63.243,18.9962,0.0211704,0.26573,0.59063
63.843,19.21995,0.02084,0.26084,0.59089
64.443,19.44357,0.02122275,0.27197,0.59115
65.043,19.6659,0.02248921,0.26052,0.59141
65.643,19.88784,0.02117987,0.26595,0.59167
66.243,20.10635,0.0210848,0.27933,0.59193
66.843,20.3243,0.02116421,0.28321,0.59219
67.443,20.5416,0.02116818,0.27579,0.59245
68.043,20.75899,0.02117113,0.28078,0.5927
68.643,20.974,0.02109093,0.27697,0.59295
69.243,21.18815,0.02084,0.28709,0.59321
69.843,21.40137,0.02213389,0.30204,0.59346
70.443,21.6131,0.0208406,0.28073,0.59371
71.043,21.82483,0.02094998,0.28902,0.59396
71.643,22.03589,0.0222563,0.29318,0.59421
72.243,22.24686,0.02095977,0.28753,0.59446
72.843,22.45608,0.02238,0.29206,0.59471
73.443,22.66554,0.02238047,0.29983,0.59496
74.043,22.8744,0.02039416,0.29303,0.5952
74.643,23.08351,0.02269949,0.29761,0.59545
75.243,23.2915,0.02270004,0.30912,0.59569
75.843,23.4994,0.02336999,0.31133,0.59593
76.443,23.70618,0.02276227,0.29669,0.59618
77.043,23.91289,0.02271,0.29543,0.59642
77.643,24.1186,0.02271007,0.29927,0.59666
78.243,24.32382,0.02270475,0.29259,0.5969
78.843,24.52834,0.02270996,0.29433,0.59713
79.443,24.73339,0.02269878,0.29168,0.59737
80.043,24.9378,0.02402011,0.29907,0.59761
80.643,25.14284,0.02402,0.30032,0.59784
81.243,25.3475,0.02268443,0.31095,0.59808
81.843,25.55186,0.02227235,0.32499,0.59831
82.443,25.7552,0.0228922,0.34167,0.59854
83.043,25.9579,0.02906746,0.35058,0.59877
83.643,26.15985,0.02675677,0.34013,0.59901
84.243,26.3618,0.0243481,0.34884,0.59924
84.843,26.56325,0.01964453,0.34952,0.59946
85.443,26.7647,0.02039692,0.34297,0.59969
86.043,26.96578,0.03132793,0.33479,0.59992
86.643,27.16671,0.03809958,0.33354,0.60014
87.243,27.3669,0.02739452,0.31271,0.60037
87.843,27.56662,0.02336306,0.32018,0.60059
88.443,27.7655,0.02600052,0.32029,0.60082
89.043,27.9645,0.02532124,0.31212,0.60104
89.643,28.16295,0.02501026,0.3081,0.60126
90.243,28.36154,0.02408461,0.30412,0.60148
90.843,28.56001,0.02533999,0.29671,0.6017
91.443,28.75767,0.02400543,0.29788,0.60192
92.043,28.9557,0.02468548,0.30761,0.60213
92.643,29.15392,0.02534,0.30354,0.60235
93.243,29.35091,0.02533989,0.30717,0.60257
93.843,29.54816,0.02402152,0.31398,0.60278
94.443,29.74502,0.02434993,0.31305,0.60299
95.043,29.94179,0.02402085,0.30978,0.60321
95.643,30.13877,0.02491771,0.32276,0.60342
96.243,30.3357,0.02434997,0.33149,0.60363
96.843,30.53176,0.02546615,0.33183,0.60384
97.443,30.7281,0.02567043,0.34723,0.60405
98.043,30.92431,0.026,0.35677,0.60425
98.643,31.12016,0.02567,0.34834,0.60446
99.243,31.31607,0.02695947,0.34242,0.60467
99.843,31.51107,0.02699014,0.34919,0.60487
100.443,31.7062,0.02698999,0.3428,0.60508
101.043,31.90111,0.02467839,0.36283,0.60528
101.643,32.09618,0.02740553,0.35823,0.60548
102.243,32.2909,0.02731,0.37002,0.60568
102.843,32.4855,0.02694184,0.3653,0.60588
103.443,32.67987,0.02599,0.38267,0.60608
104.043,32.87477,0.02729706,0.39212,0.60628
104.643,33.06968,0.02698919,0.41008,0.60648
105.243,33.26359,0.02829984,0.39832,0.60667
105.843,33.4589,0.02830993,0.39568,0.60687
106.443,33.65343,0.02797749,0.4122,0.60706
107.043,33.84811,0.02796963,0.41875,0.60726
107.643,34.0439,0.02716966,0.40665,0.60745
108.243,34.23838,0.0279698,0.42098,0.60764
108.843,34.43262,0.02849624,0.4134,0.60783
109.443,34.627,0.02818487,0.4214,0.60802
110.043,34.8211,0.02764687,0.43037,0.60821
110.643,35.01526,0.02522328,0.43685,0.6084
111.243,35.20904,0.02785998,0.45264,0.60858
111.843,35.4026,0.02654,0.44424,0.60877
112.443,35.59597,0.02719964,0.43882,0.60895
113.043,35.78949,0.02655009,0.44978,0.60914
113.643,35.98369,0.02786,0.45046,0.60932
114.243,36.17733,0.028189,0.43724,0.6095
114.843,36.37102,0.02786003,0.47071,0.60968
115.443,36.564,0.02786006,0.46191,0.60986
116.043,36.75736,0.02917569,0.46578,0.61004
116.643,36.9505,0.02853032,0.46919,0.61022
117.243,37.14454,0.02853043,0.47444,0.6104
117.843,37.33741,0.02721,0.45832,0.61057
118.443,37.5297,0.0275303,0.46344,0.61075
119.043,37.7226,0.02885,0.46969,0.61092
119.643,37.91539,0.02866932,0.47713,0.6111
120.243,38.10921,0.02753,0.46273,0.61127
120.843,38.30236,0.02853681,0.46339,0.61144
121.443,38.49572,0.02885,0.47911,0.61161
122.043,38.6888,0.0288355,0.47657,0.61178
122.643,38.88245,0.02656465,0.4806,0.61195
123.243,39.0758,0.02884849,0.49274,0.61211
123.843,39.2693,0.02884995,0.49561,0.61228
124.443,39.46161,0.02885577,0.49966,0.61245
125.043,39.65455,0.02753,0.50458,0.61261
125.643,39.84755,0.02851995,0.50149,0.61278
126.243,40.04011,0.02687001,0.49793,0.61294
126.843,40.2329,0.02686371,0.51304,0.6131
127.443,40.42516,0.02723325,0.50047,0.61326
128.043,40.61677,0.02721166,0.50278,0.61342
128.643,40.80885,0.02585858,0.51174,0.61358
129.243,41.00087,0.02688,0.50964,0.61374
129.843,41.19275,0.02696022,0.50991,0.61389
130.443,41.38501,0.02721007,0.50111,0.61405
131.043,41.57694,0.02852682,0.50963,0.61421
131.643,41.76777,0.02654013,0.50199,0.61436
132.243,41.95967,0.02721,0.50037,0.61451
132.843,42.1511,0.02654981,0.51165,0.61466
133.443,42.3433,0.02720035,0.51222,0.61482
134.043,42.53523,0.02686594,0.50892,0.61497
134.643,42.72681,0.0275235,0.50862,0.61512
135.243,42.91835,0.02818929,0.49928,0.61526
135.843,43.10948,0.02819459,0.50081,0.61541
136.443,43.2997,0.02818556,0.5008,0.61556
137.043,43.48948,0.02917936,0.50883,0.6157
137.643,43.6796,0.02750193,0.50548,0.61585
138.243,43.87,0.02655,0.51029,0.61599
138.843,44.06088,0.02650769,0.5158,0.61613
139.443,44.25125,0.02688,0.4962,0.61628
140.043,44.44154,0.02687778,0.49836,0.61642
140.643,44.6319,0.027079,0.50868,0.61656
141.243,44.8219,0.02685522,0.49463,0.6167
141.843,45.01233,0.02720001,0.51066,0.61683
142.443,45.2026,0.02720002,0.50051,0.61697
143.043,45.39315,0.0272104,0.51758,0.61711
143.643,45.58256,0.02647298,0.5032,0.61724
144.243,45.77243,0.02656709,0.50115,0.61737
144.843,45.96203,0.0249,0.52339,0.61751
145.443,46.1516,0.02686841,0.51885,0.61764
146.043,46.3411,0.02622,0.50148,0.61777
146.643,46.53096,0.02622,0.51371,0.6179
147.243,46.72036,0.02624189,0.52109,0.61803
147.843,46.91061,0.02751645,0.51609,0.61816
148.443,47.1003,0.02688,0.50701,0.61829
149.043,47.28985,0.02686989,0.51202,0.61841
149.643,47.4784,0.02574148,0.51672,0.61854
150.243,47.66747,0.02621094,0.539,0.61866
150.843,47.85658,0.02621,0.52909,0.61879
151.443,48.04557,0.02629502,0.53849,0.61891
152.043,48.23462,0.02768697,0.52946,0.61903
152.643,48.4229,0.02566,0.55592,0.61915
153.243,48.6117,0.02705075,0.55022,0.61927
153.843,48.80085,0.02566002,0.55472,0.61939
154.443,48.98989,0.02632997,0.55293,0.61951
155.043,49.17962,0.02633,0.55404,0.61962
155.643,49.36931,0.02633632,0.56367,0.61974
156.243,49.5589,0.01436556,0.57051,0.61985
156.843,49.74817,0.02718497,0.56003,0.61997
157.443,49.937,0.02644079,0.56792,0.62008
158.043,50.12619,0.02509166,0.57002,0.62019
158.643,50.31507,0.02545,0.57641,0.62031
159.243,50.50407,0.02680342,0.58056,0.62042
159.843,50.69276,0.02511999,0.58413,0.62052
160.443,50.88125,0.02520562,0.58191,0.62063
161.043,51.0706,0.0246796,0.58349,0.62074
161.643,51.25983,0.02500835,0.57999,0.62085
162.243,51.44958,0.0250105,0.56412,0.62095
162.843,51.63824,0.02582116,0.57322,0.62106
163.443,51.8262,0.02371467,0.57557,0.62116
164.043,52.01352,0.02467902,0.57052,0.62126
164.643,52.2008,0.02432867,0.5869,0.62136
165.243,52.38823,0.02566995,0.58384,0.62147
165.843,52.5764,0.02567,0.58254,0.62156
166.443,52.7648,0.02441923,0.58142,0.62166
167.043,52.95285,0.02435,0.5996,0.62176
167.643,53.1408,0.02507513,0.59645,0.62186
168.243,53.32895,0.02465447,0.59996,0.62195
168.843,53.5176,0.02579955,0.60186,0.62205
169.443,53.70635,0.02599,0.60707,0.62214
170.043,53.89571,0.02337111,0.59263,0.62224
170.643,54.08433,0.0246354,0.60552,0.62233
171.243,54.27254,0.02599,0.60114,0.62242
171.843,54.4606,0.02468032,0.60407,0.62251
172.443,54.6477,0.02467331,0.59524,0.6226
173.043,54.83494,0.02468,0.59076,0.62269
173.643,55.02261,0.02534034,0.6043,0.62278
174.243,55.2108,0.02534036,0.60637,0.62286
174.843,55.3995,0.02435012,0.59864,0.62295
175.443,55.5878,0.02567056,0.60692,0.62303
176.043,55.7758,0.02566004,0.60879,0.62312
176.643,55.9642,0.02468,0.61213,0.6232
177.243,56.1526,0.0258228,0.59676,0.62328
177.843,56.3411,0.02501,0.60944,0.62336
178.443,56.5294,0.0250126,0.61432,0.62344
179.043,56.7174,0.0250081,0.60442,0.62352
179.643,56.90535,0.02506502,0.6132,0.6236
180.243,57.09335,0.02534,0.61318,0.62368
180.843,57.2814,0.02402,0.60547,0.62375
181.443,57.46982,0.02402,0.61282,0.62383
182.043,57.65825,0.02532452,0.61865,0.6239
182.643,57.84653,0.01968321,0.59918,0.62397
183.243,58.03525,0.02495997,0.60734,0.62405
183.843,58.224,0.02500997,0.6034,0.62412
184.443,58.41242,0.02468823,0.62239,0.62419
185.043,58.60044,0.02337,0.6051,0.62426
185.643,58.78826,0.02403012,0.61314,0.62433
186.243,58.9761,0.02400332,0.59979,0.6244
186.843,59.16417,0.02403,0.6076,0.62446
187.443,59.35204,0.02403,0.60939,0.62453
188.043,59.5397,0.02403,0.61811,0.62459
188.643,59.7277,0.02403,0.61248,0.62466
189.243,59.9155,0.02402531,0.60593,0.62472
189.843,60.1027,0.02403,0.60981,0.62478
190.443,60.2905,0.02402761,0.60595,0.62484
191.043,60.47845,0.02137458,0.60754,0.6249
191.643,60.6668,0.02283973,0.62877,0.62496
192.243,60.8551,0.02271,0.61292,0.62502
192.843,61.0428,0.02236415,0.6211,0.62508
193.443,61.2296,0.02369336,0.62767,0.62513
194.043,61.41644,0.02271,0.62342,0.62519
194.643,61.6043,0.02271142,0.62379,0.62524
195.243,61.7917,0.02238,0.61721,0.6253
195.843,61.97942,0.02206903,0.62,0.62535
196.443,62.16799,0.02106,0.62325,0.6254
197.043,62.35634,0.02237866,0.62943,0.62545
197.643,62.54531,0.02039371,0.62943,0.6255
198.243,62.73358,0.02238491,0.63802,0.62555
198.843,62.9213,0.01979571,0.64223,0.6256
199.443,63.1086,0.01974038,0.65557,0.62565
200.043,63.2959,0.02104879,0.6445,0.62569
200.643,63.4833,0.01904626,0.66435,0.62574
201.243,63.6704,0.01909022,0.65837,0.62578
201.843,63.85785,0.01908692,0.65992,0.62583
202.443,64.04513,0.01908369,0.65428,0.62587
203.043,64.23245,0.01875794,0.65542,0.62591
203.643,64.4199,0.01908999,0.64718,0.62595
204.243,64.607,0.02026055,0.65167,0.62599
204.843,64.79406,0.01940933,0.64888,0.62603
205.443,64.98132,0.02062448,0.66369,0.62607
206.043,65.16799,0.02062021,0.65958,0.62611
206.643,65.35445,0.01942141,0.63846,0.62614
207.243,65.54086,0.01800304,0.65683,0.62618
207.843,65.72744,0.01931,0.66966,0.62621
208.443,65.9145,0.01839275,0.64889,0.62625
209.043,66.10168,0.01832,0.66039,0.62628
209.643,66.28879,0.01774234,0.6666,0.62631
210.243,66.47583,0.01897986,0.6717,0.62634
210.843,66.6629,0.01766,0.66428,0.62637
211.443,66.84962,0.01766,0.66752,0.6264
212.043,67.03667,0.01898454,0.65897,0.62643
212.643,67.2235,0.01661073,0.65753,0.62645
213.243,67.41022,0.01569001,0.68177,0.62648
213.843,67.5974,0.01503186,0.68165,0.6265
214.443,67.7842,0.01536,0.67794,0.62653
215.043,67.97166,0.01537657,0.68962,0.62655
215.643,68.1588,0.01270005,0.6794,0.62657
216.243,68.34635,0.01271727,0.69977,0.6266
216.843,68.53409,0.01277768,0.69675,0.62662
217.443,68.72196,0.01075,0.71369,0.62664
218.043,68.9094,0.01075141,0.68285,0.62665
218.643,69.09706,0.01042,0.70414,0.62667
219.243,69.28411,0.009109999,0.73959,0.62669
219.843,69.47115,0.007789971,0.7304,0.62671
220.443,69.65833,0.008785234,0.76106,0.62672
221.043,69.84591,0.00670802,0.76526,0.62673
221.643,70.034,0.004830051,0.76176,0.62675
222.243,70.22187,0.003519951,0.77565,0.62676
222.843,70.40982,0.002199999,0.76434,0.62677
223.443,70.5976,0.00218997,0.76542,0.62678
224.043,70.785,-0.0003615728,0.77471,0.62679
224.643,70.9734,-0.001749994,0.77556,0.6268
225.243,71.1614,-0.002857872,0.77697,0.62681
225.843,71.35005,-0.006029984,0.77778,0.62681
226.443,71.53783,-0.006911874,0.77637,0.62682
227.043,71.72527,-0.009653331,0.7816,0.62683
227.643,71.9128,-0.01096615,0.78898,0.62683
228.243,72.09937,-0.01222421,0.79272,0.62683
228.843,72.28655,-0.01490999,0.78658,0.62684
229.443,72.4731,-0.01623646,0.79234,0.62684
230.043,72.66054,-0.01756486,0.79136,0.62684
230.643,72.8477,-0.01986005,0.79248,0.62684
231.243,73.03448,-0.02180455,0.7965,0.62684
231.843,73.2221,-0.02329862,0.80353,0.62683
232.443,73.40942,-0.02446432,0.80913,0.62683
233.043,73.59694,-0.02709115,0.80251,0.62683
233.643,73.78483,-0.02939954,0.82092,0.62682
234.243,73.97235,-0.03099059,0.80903,0.62682
234.843,74.1603,-0.03170604,0.82162,0.62681
235.443,74.34783,-0.03301001,0.80531,0.6268
236.043,74.53571,-0.03563005,0.80349,0.62679
236.643,74.72359,-0.03696135,0.79695,0.62678
237.243,74.9111,-0.03831876,0.81043,0.62677
237.843,75.0984,-0.04247117,0.80348,0.62676
238.443,75.28586,-0.04317859,0.81608,0.62675
239.043,75.47332,-0.04484596,0.81444,0.62674
239.643,75.661,-0.04745271,0.82553,0.62672
240.243,75.84872,-0.04675106,0.82847,0.62671
240.843,76.03634,-0.05094863,0.81586,0.62669
241.443,76.22367,-0.05231948,0.82136,0.62668
242.043,76.4105,-0.05362975,0.82791,0.62666
242.643,76.59779,-0.0591216,0.82439,0.62664
243.243,76.78516,-0.0586673,0.84183,0.62662
243.843,76.97275,-0.06059311,0.84422,0.6266
244.443,77.1604,-0.06262998,0.84392,0.62658
245.043,77.34773,-0.06530453,0.85924,0.62656
245.643,77.5349,-0.06716217,0.85784,0.62654
246.243,77.72202,-0.06962257,0.86406,0.62651
246.843,77.9094,-0.07228917,0.86704,0.62649
247.443,78.09744,-0.073944,0.86326,0.62646
248.043,78.28517,-0.07787657,0.87354,0.62644
248.643,78.4729,-0.0819139,0.87926,0.62641
249.243,78.6609,-0.0845703,0.88941,0.62638
249.843,78.8485,-0.08587943,0.8855,0.62635
250.443,79.03627,-0.08997588,0.90309,0.62632
251.043,79.22397,-0.09353196,0.89317,0.62629
251.643,79.4114,-0.08985946,0.9041,0.62626
252.243,79.5992,-0.10015,0.89198,0.62623
252.843,79.787,-0.10366,0.90263,0.6262
253.443,79.97471,-0.10923,0.91042,0.62616
254.043,80.16256,-0.11324,0.91502,0.62613
254.643,80.3506,-0.11801,0.93353,0.62609
255.243,80.5382,-0.1239,0.9479,0.62606
255.843,80.72605,-0.12985,0.95148,0.62602
256.443,80.91409,-0.13616,0.96987,0.62598
257.043,81.10191,-0.14319,0.9901,0.62594
257.643,81.29071,-0.15193,1.00373,0.6259
258.243,81.4787,-0.15785,1.02512,0.62586
258.843,81.66731,-0.16511,1.0602,0.62582
259.443,81.8554,-0.17511,1.09241,0.62577
260.043,82.04388,-0.18392,1.12587,0.62573
260.643,82.23262,-0.19619,1.14474,0.62569
261.243,82.42095,-0.20598,1.17225,0.62564
261.843,82.60936,-0.21635,1.20373,0.62559
262.443,82.79751,-0.22766,1.24114,0.62555
263.043,82.98523,-0.24062,1.25958,0.6255
263.643,83.17328,-0.25473,1.30149,0.62545
264.243,83.36125,-0.26812,1.31327,0.6254
264.843,83.54947,-0.28098,1.34184,0.62535
265.443,83.73729,-0.29834,1.36435,0.6253
266.043,83.92569,-0.31424,1.39578,0.62525
266.643,84.11442,-0.33045,1.41868,0.62519
267.243,84.3032,-0.34757,1.46189,0.62514
267.843,84.4923,-0.36639,1.47699,0.62508
268.443,84.68084,-0.38528,1.51665,0.62503
269.043,84.86984,-0.4034,1.53818,0.62497
269.643,85.05781,-0.42652,1.56347,0.62491
270.243,85.24693,-0.44737,1.59194,0.62486
270.843,85.43575,-0.46887,1.60919,0.6248
271.443,85.6245,-0.49374,1.62727,0.62474
272.043,85.81436,-0.51665,1.66336,0.62468
272.643,86.00322,-0.54077,1.67872,0.62461
273.243,86.19161,-0.56537,1.71304,0.62455
273.843,86.37989,-0.59239,1.7177,0.62449
274.443,86.56777,-0.62008,1.74745,0.62442
275.043,86.75537,-0.64613,1.77693,0.62436
275.643,86.94289,-0.6725,1.77656,0.62429
276.243,87.13011,-0.70135,1.80885,0.62423
276.843,87.3179,-0.72972,1.81176,0.62416
277.443,87.50582,-0.75912,1.81073,0.62409
278.043,87.6942,-0.78876,1.83947,0.62402
278.643,87.88297,-0.81764,1.83908,0.62395
279.243,88.07151,-0.84838,1.84514,0.62388
279.843,88.2599,-0.87955,1.85172,0.62381
280.443,88.4477,-0.90746,1.84408,0.62374
281.043,88.63541,-0.93906,1.84292,0.62366
281.643,88.8233,-0.96995,1.83762,0.62359
282.243,89.01142,-0.99977,1.83108,0.62351
282.843,89.20006,-1.03018,1.81729,0.62344
283.443,89.38869,-1.0607,1.80234,0.62336
284.043,89.57681,-1.08985,1.79989,0.62328
284.643,89.7651,-1.11847,1.78971,0.6232
285.243,89.9529,-1.14747,1.76939,0.62312
285.843,90.14066,-1.17576,1.74693,0.62304
286.443,90.32875,-1.20305,1.73271,0.62296
287.043,90.5161,-1.22998,1.73214,0.62288
287.643,90.70414,-1.2489,1.71627,0.6228
288.243,90.89185,-1.28173,1.68088,0.62271
288.843,91.0806,-1.30645,1.65765,0.62263
289.443,91.26926,-1.33115,1.64959,0.62254
290.043,91.45872,-1.35485,1.62726,0.62246
290.643,91.64765,-1.37964,1.60995,0.62237
291.243,91.83689,-1.40068,1.58853,0.62228
291.843,92.0253,-1.42484,1.5765,0.62219
292.443,92.21366,-1.44603,1.55005,0.62211
293.043,92.40207,-1.46799,1.53385,0.62202
293.643,92.58917,-1.48813,1.52025,0.62192
294.243,92.77704,-1.50799,1.51674,0.62183
294.843,92.96545,-1.52756,1.50252,0.62174
295.443,93.15449,-1.54751,1.47981,0.62165
296.043,93.3438,-1.5658,1.45782,0.62155
296.643,93.53285,-1.58492,1.44772,0.62146
297.243,93.72182,-1.6024,1.43815,0.62136
297.843,93.9109,-1.61942,1.43057,0.62126
298.443,94.09968,-1.63604,1.43442,0.62117
299.043,94.28837,-1.65367,1.42204,0.62107
299.643,94.4764,-1.67006,1.40374,0.62097
300.243,94.6647,-1.68721,1.38705,0.62087
300.843,94.8528,-1.70068,1.37801,0.62077
301.443,95.04132,-1.71752,1.35288,0.62067
302.043,95.2296,-1.73192,1.34772,0.62056
302.643,95.41849,-1.74675,1.34472,0.62046
303.243,95.60725,-1.76198,1.32081,0.62036
303.843,95.79602,-1.77697,1.30669,0.62025
304.443,95.98524,-1.79194,1.30003,0.62015
305.043,96.17385,-1.80468,1.28091,0.62004
305.643,96.36224,-1.81813,1.27694,0.61993
306.243,96.5509,-1.83193,1.27254,0.61983
306.843,96.73904,-1.84373,1.25963,0.61972
307.443,96.9285,-1.8559,1.24132,0.61961
308.043,97.11751,-1.86765,1.23528,0.6195
308.643,97.30707,-1.88141,1.23596,0.61939
309.243,97.4966,-1.89328,1.20506,0.61927
309.843,97.686,-1.90499,1.19673,0.61916
310.443,97.8755,-1.91751,1.18775,0.61905
311.043,98.06441,-1.92682,1.16685,0.61893
311.643,98.2534,-1.93834,1.15041,0.61882
312.243,98.44281,-1.94856,1.13159,0.6187
312.843,98.63204,-1.95759,1.11518,0.61858
313.443,98.82169,-1.97006,1.11172,0.61847
314.043,99.01077,-1.97843,1.09673,0.61835
314.643,99.19969,-1.98785,1.09336,0.61823
315.243,99.38892,-1.9986,1.07242,0.61811
315.843,99.57766,-2.00979,1.05203,0.61799
316.443,99.7667,-2.01989,1.04226,0.61787
317.043,99.95629,-2.02747,1.02233,0.61774
317.643,100.146,-2.03653,1.00179,0.61762
318.243,100.336,-2.04341,1.00658,0.6175
318.843,100.526,-2.05059,0.99896,0.61737
319.443,100.7158,-2.0594,0.97671,0.61725
320.043,100.905,-2.06704,0.96255,0.61712
320.643,101.094,-2.07419,0.94344,0.61699
321.243,101.283,-2.08361,0.92351,0.61687
321.843,101.472,-2.08979,0.92777,0.61674
322.443,101.662,-2.09557,0.91966,0.61661
323.043,101.851,-2.10367,0.91046,0.61648
323.643,102.041,-2.11051,0.8836,0.61635
324.243,102.231,-2.11507,0.87641,0.61621
324.843,102.422,-2.1233,0.86631,0.61608
325.443,102.6124,-2.12971,0.86595,0.61595
326.043,102.802,-2.13269,0.85129,0.61582
326.643,102.992,-2.13842,0.82355,0.61568
327.243,103.1821,-2.14383,0.83318,0.61554
327.843,103.371,-2.14941,0.81832,0.61541
328.443,103.561,-2.15337,0.80454,0.61527
329.043,103.751,-2.15731,0.78748,0.61513
329.643,103.94,-2.1629,0.78528,0.61499
330.243,104.13,-2.16685,0.76561,0.61486
330.843,104.319,-2.173,0.76413,0.61472
331.443,104.509,-2.17595,0.75208,0.61457
332.043,104.698,-2.17903,0.7358,0.61443
332.643,104.888,-2.18257,0.7124,0.61429
333.243,105.078,-2.1879,0.71959,0.61415
333.843,105.269,-2.1907,0.70049,0.614
334.443,105.46,-2.19372,0.70719,0.61386
335.043,105.651,-2.19765,0.71767,0.61371
335.643,105.842,-2.1984,0.71589,0.61357
336.243,106.033,-2.20228,0.68656,0.61342
336.843,106.224,-2.20636,0.67285,0.61327
337.443,106.414,-2.20896,0.67899,0.61312
338.043,106.604,-2.21017,0.68176,0.61297
338.643,106.795,-2.21281,0.67287,0.61282
339.243,106.987,-2.21412,0.68351,0.61267
339.843,107.178,-2.21676,0.69307,0.61252
340.443,107.369,-2.2177,0.66306,0.61237
341.043,107.56,-2.21916,0.67168,0.61222
341.643,107.751,-2.22253,0.67811,0.61206
342.243,107.942,-2.22377,0.67289,0.61191
342.843,108.1328,-2.22631,0.68302,0.61175
343.443,108.323,-2.22838,0.68793,0.6116
344.043,108.514,-2.22705,0.68571,0.61144
344.643,108.705,-2.23035,0.67727,0.61128
345.243,108.898,-2.23297,0.62338,0.61113
345.843,109.091,-2.24223,0.57993,0.61097
346.443,109.283,-2.23551,0.57219,0.61081
347.043,109.475,-2.23683,0.57606,0.61065
347.643,109.666,-2.23682,0.578,0.61048
348.243,109.858,-2.23946,0.58216,0.61032
348.843,110.049,-2.24011,0.58319,0.61016
349.443,110.24,-2.24145,0.59266,0.61
350.043,110.431,-2.24272,0.56764,0.60983
350.643,110.622,-2.24373,0.57903,0.60967
351.243,110.8129,-2.24505,0.59019,0.6095
351.843,111.003,-2.2467,0.6003,0.60934
352.443,111.194,-2.24933,0.57993,0.60917
353.043,111.386,-2.2485,0.58198,0.609
353.643,111.577,-2.25032,0.58835,0.60883
354.243,111.768,-2.25296,0.58586,0.60866
354.843,111.959,-2.25428,0.59571,0.60849
355.443,112.15,-2.25558,0.58933,0.60832
356.043,112.341,-2.25691,0.60203,0.60815
356.643,112.533,-2.2607,0.5978,0.60798
357.243,112.725,-2.25954,0.61192,0.60781
357.843,112.917,-2.2607,0.60538,0.60763
358.443,113.1093,-2.26414,0.60847,0.60746
359.043,113.301,-2.26611,0.61524,0.60729
359.643,113.493,-2.27004,0.60812,0.60711
360.243,113.686,-2.27008,0.60335,0.60693
360.843,113.878,-2.274,0.60953,0.60676
361.443,114.07,-2.27401,0.61029,0.60658
362.043,114.262,-2.27548,0.62243,0.6064
362.643,114.454,-2.27664,0.6231,0.60622
363.243,114.645,-2.28031,0.63305,0.60604
363.843,114.837,-2.28191,0.63551,0.60586
364.443,115.029,-2.28485,0.61998,0.60568
365.043,115.222,-2.28684,0.62677,0.6055
365.643,115.4143,-2.28948,0.62504,0.60531
366.243,115.606,-2.28893,0.6252,0.60513
366.843,115.798,-2.29082,0.61592,0.60495
367.443,115.99,-2.29485,0.63608,0.60476
368.043,116.181,-2.29747,0.63778,0.60458
368.643,116.374,-2.30008,0.63729,0.60439
369.243,116.566,-2.30276,0.63525,0.6042
369.843,116.758,-2.30603,0.64199,0.60402
370.443,116.95,-2.30697,0.63671,0.60383
371.043,117.141,-2.30967,0.64454,0.60364
371.643,117.333,-2.31381,0.63506,0.60345
372.243,117.524,-2.31527,0.62785,0.60326
372.843,117.715,-2.32017,0.64847,0.60307
373.443,117.907,-2.32126,0.64803,0.60288
374.043,118.099,-2.3236,0.65362,0.60268
374.643,118.291,-2.32721,0.65582,0.60249
375.243,118.483,-2.33075,0.6501,0.6023
375.843,118.675,-2.33274,0.65606,0.6021
376.443,118.868,-2.33578,0.6525,0.60191
377.043,119.061,-2.33906,0.66052,0.60171
377.643,119.254,-2.34265,0.66432,0.60152
378.243,119.447,-2.34444,0.65793,0.60132
378.843,119.64,-2.34901,0.65992,0.60112
379.443,119.833,-2.35241,0.66501,0.60092
380.043,120.025,-2.35496,0.66837,0.60072
380.643,120.218,-2.35892,0.66731,0.60052
381.243,120.411,-2.36153,0.66611,0.60032
381.843,120.604,-2.3655,0.68277,0.60012
382.443,120.797,-2.36803,0.65701,0.59992
383.043,120.99,-2.37074,0.68039,0.59972
383.643,121.1823,-2.37602,0.68106,0.59951
384.243,121.375,-2.37918,0.68359,0.59931
384.843,121.567,-2.38194,0.66898,0.59911
385.443,121.76,-2.38751,0.67894,0.5989
386.043,121.952,-2.38971,0.66203,0.59869
386.643,122.145,-2.39495,0.65724,0.59849
387.243,122.339,-2.39839,0.663,0.59828
387.843,122.533,-2.40207,0.66637,0.59807
388.443,122.726,-2.40609,0.67333,0.59786
389.043,122.92,-2.40872,0.6587,0.59766
389.643,123.113,-2.41265,0.66146,0.59745
390.243,123.307,-2.41765,0.66193,0.59724
390.843,123.501,-2.42093,0.66073,0.59702
391.443,123.694,-2.42485,0.65141,0.59681
392.043,123.888,-2.42878,0.65845,0.5966
392.643,124.082,-2.43142,0.65875,0.59639
393.243,124.276,-2.43678,0.64644,0.59617
393.843,124.469,-2.43806,0.64663,0.59596
394.443,124.662,-2.44353,0.62977,0.59574
395.043,124.855,-2.44508,0.62996,0.59553
395.643,125.049,-2.45004,0.63127,0.59531
396.243,125.243,-2.45328,0.62398,0.59509
396.843,125.438,-2.45779,0.60696,0.59488
397.443,125.6321,-2.46168,0.62355,0.59466
398.043,125.826,-2.46518,0.61509,0.59444
398.643,126.0201,-2.4697,0.61372,0.59422
399.243,126.214,-2.47132,0.60322,0.594
399.843,126.408,-2.47598,0.61938,0.59378
400.443,126.602,-2.48057,0.60396,0.59356
401.043,126.796,-2.48482,0.59828,0.59334
401.643,126.9895,-2.48709,0.59561,0.59311
402.243,127.183,-2.4914,0.58871,0.59289
402.843,127.376,-2.49273,0.57626,0.59267
403.443,127.57,-2.49668,0.57562,0.59244
404.043,127.763,-2.49847,0.57688,0.59222
404.643,127.957,-2.5036,0.57355,0.59199
405.243,128.151,-2.50626,0.5616,0.59176
405.843,128.345,-2.51153,0.56036,0.59154
406.443,128.539,-2.51455,0.55635,0.59131
407.043,128.733,-2.51849,0.55909,0.59108
407.643,128.9274,-2.52244,0.55291,0.59085
408.243,129.122,-2.52654,0.55491,0.59062
408.843,129.316,-2.53042,0.55711,0.59039
409.443,129.51,-2.5344,0.5624,0.59016
410.043,129.703,-2.53731,0.53561,0.58993
410.643,129.897,-2.54233,0.54458,0.5897
411.243,130.091,-2.54566,0.5394,0.58946
411.843,130.285,-2.55027,0.53199,0.58923
412.443,130.48,-2.55457,0.53746,0.589
413.043,130.674,-2.5599,0.53492,0.58876
413.643,130.868,-2.56471,0.52622,0.58853
414.243,131.062,-2.5693,0.5264,0.58829
414.843,131.257,-2.57329,0.53173,0.58806
415.443,131.452,-2.5773,0.53018,0.58782
416.043,131.646,-2.5839,0.53754,0.58758
416.643,131.841,-2.5894,0.52743,0.58734
417.243,132.036,-2.5943,0.52692,0.5871
417.843,132.231,-2.60186,0.52636,0.58687
418.443,132.426,-2.60642,0.53008,0.58663
419.043,132.622,-2.61192,0.54518,0.58638
419.643,132.817,-2.61746,0.55085,0.58614
420.243,133.013,-2.6237,0.541,0.5859
420.843,133.208,-2.62839,0.54641,0.58566
421.443,133.403,-2.63654,0.54288,0.58542
422.043,133.599,-2.64073,0.55004,0.58517
422.643,133.794,-2.64949,0.55444,0.58493
423.243,133.99,-2.65648,0.57153,0.58468
423.843,134.186,-2.66232,0.57085,0.58444
424.443,134.381,-2.66952,0.57615,0.58419
425.043,134.577,-2.67552,0.57396,0.58395
425.643,134.772,-2.68389,0.59212,0.5837
426.243,134.967,-2.6921,0.60209,0.58345
426.843,135.163,-2.69953,0.60937,0.5832
427.443,135.358,-2.70732,0.61592,0.58296
428.043,135.554,-2.71655,0.62195,0.58271
428.643,135.749,-2.72439,0.62604,0.58246
429.243,135.945,-2.73185,0.63322,0.58221
429.843,136.14,-2.7424,0.64904,0.58195
430.443,136.335,-2.75251,0.65679,0.5817
431.043,136.53,-2.7612,0.66398,0.58145
431.643,136.725,-2.77014,0.68197,0.5812
432.243,136.92,-2.77955,0.6829,0.58094
432.843,137.115,-2.78891,0.71346,0.58069
433.443,137.311,-2.79299,0.71774,0.58044
434.043,137.507,-2.81017,0.72357,0.58018
434.643,137.703,-2.82973,0.73107,0.57992
435.243,137.899,-2.83105,0.75826,0.57967
435.843,138.095,-2.84376,0.76228,0.57941
436.443,138.292,-2.85467,0.76211,0.57915
437.043,138.488,-2.86569,0.77714,0.5789
437.643,138.683,-2.87685,0.77842,0.57864
438.243,138.878,-2.88764,0.78788,0.57838
438.843,139.073,-2.89715,0.80703,0.57812
439.443,139.268,-2.90588,0.81879,0.57786
440.043,139.464,-2.91836,0.83174,0.5776
440.643,139.66,-2.92912,0.82441,0.57734
441.243,139.856,-2.9388,0.84196,0.57708
441.843,140.052,-2.9507,0.85013,0.57681
442.443,140.248,-2.96203,0.85255,0.57655
443.043,140.444,-2.97328,0.8577,0.57629
443.643,140.64,-2.98258,0.87284,0.57602
444.243,140.836,-2.9939,0.85506,0.57576
444.843,141.031,-3.00368,0.86225,0.57549
445.443,141.227,-3.01447,0.86121,0.57523
446.043,141.422,-3.02224,0.86939,0.57496
446.643,141.6181,-3.03302,0.87942,0.57469
447.243,141.814,-3.0442,0.88709,0.57443
447.843,142.0101,-3.05443,0.86903,0.57416
448.443,142.206,-3.06425,0.88177,0.57389
449.043,142.4022,-3.07347,0.87829,0.57362
449.643,142.598,-3.08393,0.89654,0.57335
450.243,142.795,-3.09328,0.9053,0.57308
450.843,142.993,-3.10268,0.91013,0.57281
451.443,143.1901,-3.11234,0.91283,0.57254
452.043,143.387,-3.12163,0.90944,0.57227
452.643,143.584,-3.13059,0.90351,0.572
453.243,143.781,-3.13909,0.90836,0.57173
453.843,143.978,-3.14651,0.90119,0.57145
454.443,144.174,-3.15508,0.88691,0.57118
455.043,144.371,-3.16123,0.8947,0.5709
455.643,144.568,-3.17005,0.8854,0.57063
456.243,144.765,-3.17723,0.87584,0.57035
456.843,144.962,-3.18306,0.87845,0.57008
457.443,145.159,-3.19151,0.87523,0.5698
458.043,145.355,-3.19863,0.86145,0.56953
458.643,145.552,-3.20421,0.87216,0.56925
459.243,145.748,-3.21138,0.87879,0.56897
459.843,145.945,-3.21764,0.8721,0.56869
460.443,146.142,-3.22408,0.86829,0.56841
461.043,146.339,-3.23119,0.85804,0.56813
461.643,146.536,-3.23672,0.85151,0.56785
462.243,146.733,-3.24323,0.8362,0.56757
462.843,146.93,-3.24912,0.83513,0.56729
463.443,147.127,-3.25583,0.82673,0.56701
464.043,147.323,-3.26019,0.82865,0.56673
464.643,147.52,-3.26557,0.80948,0.56645
465.243,147.717,-3.27046,0.8125,0.56616
465.843,147.914,-3.27598,0.79786,0.56588
466.443,148.111,-3.2786,0.81456,0.5656
467.043,148.309,-3.28388,0.79908,0.56531
467.643,148.506,-3.2876,0.79004,0.56503
468.243,148.703,-3.29023,0.79422,0.56474
468.843,148.9,-3.29389,0.79774,0.56446
469.443,149.097,-3.29686,0.78383,0.56417
470.043,149.294,-3.30163,0.77761,0.56388
470.643,149.491,-3.30295,0.75891,0.5636
471.243,149.6879,-3.3065,0.76108,0.56331
471.843,149.884,-3.30772,0.76866,0.56302
472.443,150.081,-3.31275,0.75967,0.56273
473.043,150.278,-3.31406,0.75902,0.56244
473.643,150.476,-3.31801,0.7608,0.56215
474.243,150.674,-3.32129,0.75585,0.56186
474.843,150.871,-3.32128,0.74673,0.56157
475.443,151.069,-3.32303,0.74384,0.56128
476.043,151.266,-3.32689,0.72884,0.56099
476.643,151.465,-3.32957,0.74654,0.5607
477.243,151.664,-3.33215,0.74131,0.5604
477.843,151.862,-3.33479,0.75476,0.56011
478.443,152.06,-3.33742,0.74957,0.55982
479.043,152.2567,-3.33874,0.75791,0.55952
479.643,152.454,-3.33872,0.75859,0.55923
480.243,152.651,-3.34035,0.75789,0.55893
480.843,152.848,-3.34543,0.75563,0.55864
481.443,153.046,-3.34828,0.74294,0.55834
482.043,153.244,-3.35331,0.73695,0.55805
482.643,153.442,-3.35496,0.72799,0.55775
483.243,153.641,-3.35765,0.73116,0.55745
483.843,153.84,-3.3566,0.75038,0.55715
484.443,154.039,-3.35759,0.72947,0.55685
485.043,154.239,-3.35893,0.74338,0.55656
485.643,154.438,-3.36023,0.74157,0.55626
486.243,154.636,-3.36155,0.73303,0.55596
486.843,154.834,-3.36287,0.74838,0.55566
487.443,155.031,-3.3643,0.73808,0.55536
488.043,155.229,-3.36547,0.73601,0.55506
488.643,155.427,-3.36811,0.72297,0.55475
489.243,155.626,-3.36945,0.73171,0.55445
489.843,155.825,-3.36945,0.73054,0.55415
490.443,156.024,-3.37076,0.73345,0.55385
491.043,156.222,-3.36945,0.72706,0.55354
491.643,156.42,-3.36945,0.73089,0.55324
492.243,156.618,-3.37109,0.74413,0.55294
492.843,156.815,-3.37209,0.72194,0.55263
493.443,157.013,-3.37273,0.7405,0.55233
494.043,157.211,-3.37438,0.73293,0.55202
494.643,157.41,-3.37438,0.73321,0.55171
495.243,157.6085,-3.37504,0.72639,0.55141
495.843,157.807,-3.37504,0.74353,0.5511
496.443,158.005,-3.3757,0.72898,0.55079
497.043,158.203,-3.37679,0.74658,0.55049
497.643,158.4002,-3.378,0.74733,0.55018
498.243,158.599,-3.37837,0.74494,0.54987
498.843,158.798,-3.37833,0.75752,0.54956
499.443,158.998,-3.38096,0.7551,0.54925
500.043,159.197,-3.3836,0.75066,0.54894
500.643,159.396,-3.38261,0.73929,0.54863
501.243,159.596,-3.38261,0.73699,0.54832
501.843,159.794,-3.38459,0.73631,0.54801
502.443,159.993,-3.38557,0.74131,0.5477
503.043,160.191,-3.38655,0.74592,0.54739
503.643,160.389,-3.38655,0.73948,0.54707
504.243,160.5879,-3.38524,0.74034,0.54676
504.843,160.787,-3.38787,0.73508,0.54645
505.443,160.986,-3.38787,0.73918,0.54613
506.043,161.186,-3.38689,0.74184,0.54582
506.643,161.386,-3.38819,0.75874,0.54551
507.243,161.5858,-3.38952,0.75027,0.54519
507.843,161.786,-3.38952,0.7568,0.54488
508.443,161.985,-3.39084,0.75435,0.54456
509.043,162.184,-3.39116,0.74561,0.54424
509.643,162.383,-3.39245,0.73071,0.54393
510.243,162.582,-3.38984,0.73982,0.54361
510.843,162.781,-3.39247,0.73484,0.54329
511.443,162.9809,-3.39117,0.71997,0.54298
512.043,163.18,-3.39346,0.72554,0.54266
512.643,163.38,-3.39347,0.71885,0.54234
513.243,163.579,-3.39412,0.71394,0.54202
513.843,163.778,-3.39478,0.70164,0.5417
514.443,163.977,-3.39577,0.69651,0.54138
515.043,164.176,-3.39583,0.68945,0.54106
515.643,164.377,-3.3961,0.69861,0.54074
516.243,164.577,-3.3961,0.70518,0.54042
516.843,164.778,-3.39643,0.72932,0.5401
517.443,164.978,-3.39762,0.76855,0.53978
518.043,165.178,-3.39874,0.76197,0.53945
518.643,165.378,-3.3986,0.77867,0.53913
519.243,165.578,-3.39776,0.79193,0.53881
519.843,165.777,-3.39905,0.7803,0.53849
520.443,165.976,-3.39776,0.77001,0.53816
521.043,166.175,-3.39809,0.75716,0.53784
521.643,166.3735,-3.39807,0.78152,0.53751
522.243,166.573,-3.39939,0.77896,0.53719
522.843,166.773,-3.40071,0.77954,0.53686
523.443,166.974,-3.40075,0.79774,0.53654
524.043,167.174,-3.40104,0.82514,0.53621
524.643,167.374,-3.40103,0.81677,0.53589
525.243,167.575,-3.39964,0.82719,0.53556
525.843,167.7753,-3.40202,0.82562,0.53523
526.443,167.9762,-3.40202,0.80598,0.5349
527.043,168.177,-3.40071,0.80114,0.53458
527.643,168.378,-3.40234,0.7847,0.53425
528.243,168.579,-3.40367,0.77984,0.53392
528.843,168.78,-3.40433,0.80206,0.53359
529.443,168.981,-3.40229,0.79882,0.53326
530.043,169.181,-3.40367,0.78154,0.53293
530.643,169.381,-3.40367,0.79281,0.5326
531.243,169.582,-3.40236,0.77246,0.53227
531.843,169.782,-3.40301,0.7947,0.53194
532.443,169.983,-3.40367,0.75955,0.53161
533.043,170.184,-3.40437,0.75333,0.53128
533.643,170.385,-3.404,0.76258,0.53095
534.243,170.586,-3.404,0.76269,0.53062
534.843,170.787,-3.4061,0.75726,0.53028
535.443,170.9883,-3.40663,0.76386,0.52995
536.043,171.1899,-3.40729,0.7462,0.52962
536.643,171.391,-3.40729,0.73082,0.52928
537.243,171.591,-3.40763,0.73115,0.52895
537.843,171.793,-3.40793,0.73862,0.52861
538.443,171.994,-3.40927,0.73163,0.52828
539.043,172.1946,-3.4096,0.7191,0.52795
539.643,172.396,-3.40959,0.73126,0.52761
540.243,172.596,-3.40789,0.73551,0.52727
540.843,172.797,-3.41058,0.74123,0.52694
541.443,172.997,-3.40849,0.73322,0.5266
542.043,173.197,-3.41092,0.73891,0.52627
542.643,173.398,-3.41123,0.73423,0.52593
543.243,173.598,-3.41124,0.71093,0.52559
543.843,173.799,-3.41025,0.81196,0.52525
544.443,174,-3.41157,0.80949,0.52492
545.043,174.201,-3.41085,0.82321,0.52458
545.643,174.4017,-3.40992,0.83103,0.52424
546.243,174.602,-3.41124,0.83675,0.5239
546.843,174.803,-3.4098,0.8208,0.52356
547.443,175.004,-3.41156,0.83809,0.52322
548.043,175.206,-3.41024,0.84531,0.52288
548.643,175.407,-3.40893,0.8517,0.52254
549.243,175.608,-3.41022,0.84724,0.5222
549.843,175.809,-3.40992,0.8507,0.52186
550.443,176.0108,-3.41025,0.85979,0.52152
551.043,176.212,-3.41156,0.86208,0.52118
551.643,176.415,-3.41025,0.86284,0.52083
552.243,176.617,-3.41228,0.85651,0.52049
552.843,176.8186,-3.41025,0.84305,0.52015
553.443,177.02,-3.41255,0.85422,0.51981
554.043,177.222,-3.41391,0.85459,0.51946
554.643,177.424,-3.41352,0.86112,0.51912
555.243,177.625,-3.41354,0.86085,0.51878
555.843,177.827,-3.41354,0.86,0.51843
556.443,178.029,-3.41387,0.85468,0.51809
557.043,178.23,-3.41551,0.86059,0.51774
557.643,178.431,-3.41551,0.87468,0.5174
558.243,178.632,-3.41419,0.8725,0.51705
558.843,178.834,-3.41792,0.89566,0.51671
559.443,179.036,-3.41782,0.89436,0.51636
560.043,179.239,-3.41783,0.8889,0.51602
560.643,179.441,-3.41815,0.90719,0.51567
561.243,179.643,-3.41815,0.90807,0.51532
561.843,179.844,-3.4185,0.9129,0.51497
562.443,180.046,-3.4185,0.91086,0.51463
563.043,180.248,-3.41948,0.90646,0.51428
563.643,180.45,-3.4211,0.91595,0.51393
564.243,180.652,-3.41981,0.92633,0.51358
564.843,180.855,-3.41979,0.92428,0.51323
565.443,181.057,-3.42045,0.94221,0.51289
566.043,181.259,-3.42045,0.93619,0.51254
566.643,181.461,-3.42176,0.95563,0.51219
567.243,181.664,-3.42045,0.95028,0.51184
567.843,181.867,-3.42144,0.93402,0.51149
568.443,182.07,-3.42276,0.93564,0.51114
569.043,182.273,-3.42144,0.91941,0.51079
569.643,182.475,-3.42308,0.91743,0.51044
570.243,182.678,-3.42308,0.93596,0.51008
570.843,182.881,-3.42176,0.94406,0.50973
571.443,183.083,-3.42308,0.94137,0.50938
572.043,183.284,-3.42303,0.94352,0.50903
572.643,183.486,-3.42269,0.96004,0.50868
573.243,183.688,-3.42341,0.95184,0.50832
573.843,183.8903,-3.42374,0.93111,0.50797
574.443,184.092,-3.42505,0.9176,0.50762
575.043,184.293,-3.42505,0.93075,0.50727
575.643,184.495,-3.42507,0.95045,0.50691
576.243,184.697,-3.42559,0.94736,0.50656
576.843,184.899,-3.42674,0.94792,0.5062
577.443,185.102,-3.42809,0.96644,0.50585
578.043,185.303,-3.4267,0.96998,0.5055
578.643,185.505,-3.42737,0.95121,0.50514
579.243,185.708,-3.42735,0.95747,0.50478
579.843,185.912,-3.42624,0.98144,0.50443
580.443,186.115,-3.42735,0.9832,0.50407
581.043,186.319,-3.42637,0.99142,0.50372
581.643,186.522,-3.429,0.99111,0.50336
582.243,186.724,-3.42769,0.98236,0.50301
582.843,186.927,-3.42769,0.98851,0.50265
583.443,187.129,-3.42901,0.96971,0.50229
584.043,187.33,-3.42901,0.96961,0.50193
584.643,187.533,-3.43129,0.97185,0.50158
585.243,187.736,-3.42999,0.9703,0.50122
585.843,187.9385,-3.42993,0.96794,0.50086
586.443,188.141,-3.43041,0.97083,0.5005
587.043,188.344,-3.42999,0.92903,0.50014
587.643,188.548,-3.43131,0.95922,0.49979
588.243,188.751,-3.43131,0.95161,0.49943
588.843,188.9537,-3.43332,0.92136,0.49907
589.443,189.156,-3.43394,0.90352,0.49871
590.043,189.3585,-3.43328,0.90279,0.49835
590.643,189.561,-3.43206,0.92637,0.49799
591.243,189.764,-3.43295,0.8851,0.49763
591.843,189.968,-3.43427,0.89893,0.49727
592.443,190.171,-3.43371,0.88605,0.49691
593.043,190.376,-3.43458,0.88389,0.49655
593.643,190.58,-3.43427,0.90874,0.49619
594.243,190.784,-3.4369,0.89154,0.49582
594.843,190.987,-3.4343,0.83525,0.49546
595.443,191.19,-3.4369,0.85996,0.4951
596.043,191.392,-3.4354,0.85932,0.49474
596.643,191.594,-3.43657,0.83515,0.49438
597.243,191.795,-3.43533,0.86228,0.49401
597.843,191.997,-3.43655,0.83779,0.49365
598.443,192.199,-3.43625,0.84548,0.49329
599.043,192.402,-3.43625,0.85191,0.49292
599.643,192.606,-3.43645,0.84478,0.49256
600.243,192.809,-3.43789,0.84652,0.4922
600.843,193.013,-3.43651,0.85257,0.49183
601.443,193.216,-3.43866,0.87149,0.49147
602.043,193.42,-3.43921,0.87621,0.49111
602.643,193.625,-3.43926,0.86091,0.49074
603.243,193.829,-3.44151,0.87917,0.49038
603.843,194.034,-3.44151,0.88271,0.49001
604.443,194.238,-3.44281,0.88578,0.48965
605.043,194.443,-3.44315,0.91228,0.48928
605.643,194.647,-3.44311,0.90715,0.48892
606.243,194.851,-3.44447,0.92928,0.48855
606.843,195.055,-3.44442,0.93052,0.48818
607.443,195.26,-3.44645,0.94147,0.48782
608.043,195.464,-3.44715,0.94087,0.48745
608.643,195.668,-3.44579,0.91201,0.48709
609.243,195.871,-3.44842,0.90226,0.48672
609.843,196.075,-3.44857,0.89551,0.48635
610.443,196.279,-3.44974,0.91428,0.48599
611.043,196.483,-3.44941,0.90709,0.48562
611.643,196.687,-3.4489,0.88759,0.48525
612.243,196.891,-3.4494,0.88113,0.48488
612.843,197.095,-3.4494,0.87162,0.48451
613.443,197.298,-3.44958,0.8538,0.48415
614.043,197.501,-3.45006,0.84853,0.48378
614.643,197.7049,-3.44809,0.83346,0.48341
615.243,197.909,-3.45039,0.83727,0.48304
615.843,198.114,-3.44904,0.83769,0.48267
616.443,198.319,-3.45038,0.84243,0.4823
617.043,198.525,-3.45039,0.83601,0.48193
617.643,198.73,-3.45105,0.84443,0.48156
618.243,198.935,-3.45039,0.84388,0.4812
618.843,199.141,-3.45138,0.86138,0.48083
619.443,199.345,-3.45132,0.87236,0.48046
620.043,199.55,-3.45193,0.88018,0.48009
620.643,199.754,-3.45193,0.87484,0.47972
621.243,199.957,-3.45193,0.86979,0.47934
621.843,200.1609,-3.45227,0.87347,0.47897
622.443,200.364,-3.45258,0.86108,0.4786
623.043,200.567,-3.45326,0.87242,0.47823
623.643,200.77,-3.45358,0.86362,0.47786
624.243,200.973,-3.45358,0.87842,0.47749
624.843,201.178,-3.45248,0.8921,0.47712
625.443,201.382,-3.4527,0.93029,0.47675
626.043,201.588,-3.455,0.93306,0.47637
626.643,201.794,-3.45368,0.95621,0.476
627.243,202,-3.45368,0.96574,0.47563
627.843,202.205,-3.454,0.95327,0.47526
628.443,202.41,-3.45533,0.96405,0.47489
629.043,202.6139,-3.45532,0.96549,0.47451
629.643,202.818,-3.45526,0.9774,0.47414
630.243,203.023,-3.45391,0.97747,0.47377
630.843,203.229,-3.45652,0.97957,0.47339
631.443,203.435,-3.45555,0.97021,0.47302
632.043,203.641,-3.45614,0.96696,0.47265
632.643,203.847,-3.45643,0.97892,0.47227
633.243,204.053,-3.45808,0.999,0.4719
633.843,204.2586,-3.45808,1.00801,0.47153
634.443,204.464,-3.45774,1.01282,0.47115
635.043,204.668,-3.45774,1.00564,0.47078
635.643,204.872,-3.45906,0.99837,0.4704
636.243,205.077,-3.45901,0.99607,0.47003
636.843,205.281,-3.46077,0.99789,0.46965
637.443,205.486,-3.46205,0.99802,0.46928
638.043,205.691,-3.46235,0.99655,0.4689
638.643,205.896,-3.46341,1.0062,0.46853
639.243,206.102,-3.46202,0.99857,0.46815
639.843,206.308,-3.46071,0.99509,0.46778
640.443,206.514,-3.46333,1.01004,0.4674
641.043,206.721,-3.46203,0.99438,0.46703
641.643,206.926,-3.46205,0.98969,0.46665
642.243,207.132,-3.46301,0.98552,0.46628
642.843,207.337,-3.4608,0.99755,0.4659
643.443,207.541,-3.4635,0.99286,0.46552
644.043,207.746,-3.46213,0.97336,0.46515
644.643,207.949,-3.46476,0.9752,0.46477
645.243,208.154,-3.46245,0.98541,0.46439
645.843,208.358,-3.46509,0.96075,0.46402
646.443,208.562,-3.46377,0.96023,0.46364
647.043,208.768,-3.4664,0.95975,0.46326
647.643,208.973,-3.46376,0.96266,0.46289
648.243,209.179,-3.46509,0.95903,0.46251
648.843,209.384,-3.46576,0.95025,0.46213
649.443,209.589,-3.46377,0.95532,0.46175
650.043,209.795,-3.46377,0.96622,0.46138
650.643,210.0002,-3.46542,0.97797,0.461
651.243,210.205,-3.46568,0.95902,0.46062
651.843,210.41,-3.46805,0.95342,0.46024
652.443,210.615,-3.46673,0.97045,0.45986
653.043,210.819,-3.46772,0.97115,0.45949
653.643,211.024,-3.46772,0.95916,0.45911
654.243,211.23,-3.46805,0.98108,0.45873
654.843,211.4362,-3.46808,0.99405,0.45835
655.443,211.643,-3.47042,0.97259,0.45797
656.043,211.848,-3.47036,0.96569,0.45759
656.643,212.054,-3.47071,0.9447,0.45721
657.243,212.26,-3.47068,0.95172,0.45684
657.843,212.4649,-3.47068,0.97045,0.45646
658.443,212.671,-3.47105,0.96483,0.45608
659.043,212.877,-3.47035,0.98116,0.4557
659.643,213.084,-3.47306,0.96653,0.45532
660.243,213.289,-3.47168,0.99315,0.45494
660.843,213.496,-3.4706,1.0035,0.45456
661.443,213.702,-3.47132,1.01592,0.45418
662.043,213.909,-3.4726,1.02734,0.4538
662.643,214.116,-3.47397,1.00622,0.45342
663.243,214.321,-3.47397,1.01381,0.45304
663.843,214.528,-3.47529,0.99463,0.45266
664.443,214.733,-3.47413,0.98056,0.45228
665.043,214.94,-3.47529,0.99462,0.4519
665.643,215.147,-3.4753,1.00595,0.45152
666.243,215.355,-3.47528,1.00037,0.45114
666.843,215.562,-3.4766,0.98908,0.45076
667.443,215.768,-3.47529,0.99494,0.45038
668.043,215.975,-3.47661,0.99391,0.45
668.643,216.182,-3.47661,1.01938,0.44961
669.243,216.389,-3.47793,1.0159,0.44923
669.843,216.595,-3.47662,1.01966,0.44885
670.443,216.802,-3.47858,1.01496,0.44847
671.043,217.009,-3.47892,1.00914,0.44809
671.643,217.2164,-3.47792,1.0142,0.44771
672.243,217.423,-3.4785,1.01743,0.44733
672.843,217.63,-3.4799,1.07178,0.44695
673.443,217.836,-3.48121,1.07012,0.44656
674.043,218.041,-3.48121,1.09031,0.44618
674.643,218.247,-3.48095,1.0966,0.4458
675.243,218.453,-3.48117,1.06822,0.44542
675.843,218.659,-3.48246,1.09141,0.44504
676.443,218.866,-3.48319,1.09071,0.44466
677.043,219.074,-3.4845,1.10036,0.44427
677.643,219.281,-3.4845,1.10352,0.44389
678.243,219.488,-3.48582,1.13074,0.44351
678.843,219.695,-3.48486,1.15838,0.44313
679.443,219.901,-3.48638,1.14286,0.44275
680.043,220.107,-3.48606,1.18652,0.44236
680.643,220.314,-3.48747,1.21038,0.44198
681.243,220.521,-3.48841,1.21429,0.4416
681.843,220.728,-3.48676,1.25897,0.44122
682.443,220.937,-3.48813,1.27763,0.44083
683.043,221.144,-3.49076,1.31008,0.44045
683.643,221.35,-3.49208,1.32803,0.44007
684.243,221.557,-3.49077,1.37298,0.43968
684.843,221.763,-3.49207,1.35958,0.4393
685.443,221.97,-3.49339,1.38194,0.43892
686.043,222.177,-3.49236,1.3988,0.43854
686.643,222.384,-3.49372,1.40531,0.43815
687.243,222.591,-3.49471,1.41883,0.43777
687.843,222.7972,-3.49673,1.42991,0.43739
688.443,223.003,-3.49668,1.45046,0.437
689.043,223.209,-3.49797,1.47824,0.43662
689.643,223.416,-3.498,1.50874,0.43624
690.243,223.623,-3.49865,1.52087,0.43585
690.843,223.83,-3.49997,1.51015,0.43547
691.443,224.037,-3.49997,1.49281,0.43509
692.043,224.2437,-3.5026,1.46997,0.4347
692.643,224.451,-3.5033,1.47567,0.43432
693.243,224.659,-3.50359,1.45234,0.43394
693.843,224.867,-3.50721,1.40836,0.43355
694.443,225.074,-3.50757,1.39977,0.43317
695.043,225.282,-3.50851,1.396,0.43279
695.643,225.489,-3.51148,1.38093,0.4324
696.243,225.696,-3.51004,1.35623,0.43202
696.843,225.903,-3.51358,1.34011,0.43163
697.443,226.111,-3.51617,1.33916,0.43125
698.043,226.3184,-3.51643,1.3358,0.43087
698.643,226.526,-3.51796,1.33912,0.43048
699.243,226.734,-3.51809,1.34033,0.4301
699.843,226.942,-3.52201,1.32832,0.42971
700.443,227.15,-3.52202,1.33281,0.42933
701.043,227.358,-3.52319,1.34307,0.42895
701.643,227.566,-3.52333,1.3668,0.42856
702.243,227.773,-3.52508,1.36912,0.42818
702.843,227.98,-3.52531,1.35541,0.42779
703.443,228.187,-3.52695,1.3742,0.42741
704.043,228.394,-3.52761,1.39209,0.42703
704.643,228.6017,-3.52892,1.40211,0.42664
705.243,228.808,-3.52961,1.41188,0.42626
705.843,229.0157,-3.5298,1.41449,0.42587
706.443,229.223,-3.53189,1.40249,0.42549
707.043,229.432,-3.53318,1.39214,0.4251
707.643,229.639,-3.53386,1.388,0.42472
708.243,229.845,-3.53321,1.37843,0.42433
708.843,230.052,-3.53453,1.35403,0.42395
709.443,230.259,-3.53343,1.36182,0.42357
710.043,230.4673,-3.53375,1.36945,0.42318
710.643,230.6759,-3.53605,1.37653,0.4228
711.243,230.883,-3.53594,1.40482,0.42241
711.843,231.091,-3.53725,1.41392,0.42203
712.443,231.298,-3.53661,1.4356,0.42164
713.043,231.507,-3.5393,1.42839,0.42126
713.643,231.715,-3.53924,1.46328,0.42087
714.243,231.922,-3.54052,1.47627,0.42049
714.843,232.129,-3.53924,1.45602,0.42011
715.443,232.336,-3.54319,1.452,0.41972
716.043,232.544,-3.54156,1.46447,0.41934
716.643,232.752,-3.54187,1.44362,0.41895
717.243,232.9608,-3.54549,1.43776,0.41857
717.843,233.17,-3.54549,1.4304,0.41818
718.443,233.3787,-3.5468,1.4223,0.4178
719.043,233.587,-3.54549,1.40756,0.41741
719.643,233.795,-3.54778,1.38141,0.41703
720.243,234.004,-3.54779,1.37462,0.41664
720.843,234.213,-3.54944,1.39887,0.41626
721.443,234.423,-3.55204,1.40065,0.41587
722.043,234.632,-3.55075,1.39261,0.41549
722.643,234.841,-3.55207,1.38914,0.41511
723.243,235.049,-3.55338,1.3999,0.41472
723.843,235.257,-3.5547,1.41186,0.41434
724.443,235.466,-3.55503,1.42667,0.41395
725.043,235.674,-3.55504,1.45939,0.41357
725.643,235.883,-3.55766,1.48302,0.41318
726.243,236.091,-3.55635,1.47466,0.4128
726.843,236.2993,-3.55767,1.49454,0.41241
727.443,236.508,-3.55899,1.48661,0.41203
728.043,236.716,-3.55899,1.49677,0.41164
728.643,236.925,-3.5603,1.50941,0.41126
729.243,237.132,-3.56128,1.52294,0.41088
729.843,237.341,-3.56028,1.55095,0.41049
730.443,237.549,-3.5626,1.53765,0.41011
731.043,237.757,-3.56294,1.53331,0.40972
731.643,237.966,-3.56289,1.54929,0.40934
732.243,238.174,-3.56556,1.53463,0.40895
732.843,238.383,-3.56688,1.54931,0.40857
733.443,238.592,-3.56688,1.55344,0.40818
734.043,238.8,-3.56951,1.53976,0.4078
734.643,239.0082,-3.56951,1.57106,0.40742
735.243,239.216,-3.57088,1.58848,0.40703
735.843,239.424,-3.56984,1.59761,0.40665
736.443,239.633,-3.57117,1.61043,0.40626
737.043,239.841,-3.57116,1.57494,0.40588
737.643,240.05,-3.5725,1.57685,0.40549
738.243,240.26,-3.57116,1.55753,0.40511
738.843,240.47,-3.57214,1.52707,0.40473
739.443,240.679,-3.57204,1.47744,0.40434
740.043,240.889,-3.57379,1.50353,0.40396
740.643,241.0985,-3.57247,1.48391,0.40357
741.243,241.3081,-3.5728,1.47875,0.40319
741.843,241.516,-3.57395,1.46274,0.40281
742.443,241.7244,-3.57412,1.47723,0.40242
743.043,241.932,-3.57273,1.47271,0.40204
743.643,242.141,-3.57401,1.49119,0.40165
744.243,242.349,-3.57392,1.49085,0.40127
744.843,242.5567,-3.57467,1.51264,0.40089
745.443,242.764,-3.575,1.54639,0.4005
746.043,242.972,-3.57631,1.53378,0.40012
746.643,243.18,-3.57499,1.52307,0.39973
747.043,243.32,-3.56639,1.53199,0.39948