File: 01_Data/Homasote/STA/N2/30K_min/Homasote_STA_N2_30KData_222204_R3.csv
##Temp./Â°C,Time/min,Mass loss(subtr.2)/mg,DSC(subtr.2)/(mW/mg),Sensit./(uV/mW)
48.469,10.00667,0.03422,0.004080579,1.07507
49.169,10.55798,0.0371756,0.04972801,1.07476
49.869,10.68244,0.03661215,0.08839007,1.07445
50.569,10.77229,0.03532663,0.12078,1.07414
51.269,10.84338,0.03738606,0.15248,1.07383
51.969,10.90813,0.03761201,0.18,1.07352
52.669,10.9653,0.03707452,0.20744,1.07321
53.369,11.01721,0.03700324,0.22913,1.0729
54.069,11.06504,0.03642228,0.25367,1.07259
54.769,11.10989,0.03576569,0.27628,1.07228
55.469,11.15255,0.03583581,0.29884,1.07196
56.169,11.19316,0.03662987,0.32152,1.07165
56.869,11.232,0.0366378,0.3411,1.07134
57.569,11.26946,0.03615778,0.36335,1.07102
58.269,11.3057,0.03584647,0.38498,1.07071
58.969,11.34108,0.03721061,0.4062,1.07039
59.669,11.37541,0.03816842,0.42313,1.07007
60.369,11.4085,0.0374865,0.43289,1.06976
61.069,11.44088,0.03830147,0.44499,1.06944
61.769,11.47285,0.03757879,0.45306,1.06912
62.469,11.50412,0.03752516,0.45988,1.0688
63.169,11.53496,0.03777722,0.46552,1.06848
63.869,11.56515,0.0371576,0.47629,1.06817
64.569,11.59503,0.0383107,0.48196,1.06784
65.269,11.62444,0.0387786,0.48957,1.06752
65.969,11.65355,0.03970751,0.49836,1.0672
66.669,11.6823,0.03884169,0.50887,1.06688
67.369,11.71073,0.03847679,0.51771,1.06656
68.069,11.73879,0.03895616,0.52668,1.06624
68.769,11.76645,0.0383894,0.53425,1.06591
69.469,11.79385,0.03879298,0.54256,1.06559
70.169,11.821,0.03892918,0.55147,1.06526
70.869,11.84811,0.03901593,0.55904,1.06494
71.569,11.8751,0.03901121,0.56955,1.06461
72.269,11.9019,0.03919296,0.57606,1.06429
72.969,11.92831,0.03868154,0.58429,1.06396
73.669,11.95444,0.03840651,0.59266,1.06363
74.369,11.98039,0.0382684,0.59978,1.06331
75.069,12.00647,0.03817372,0.60844,1.06298
75.769,12.03261,0.0380682,0.616,1.06265
76.469,12.05855,0.03736059,0.62553,1.06232
77.169,12.08429,0.03673964,0.63261,1.06199
77.869,12.1099,0.03666849,0.64072,1.06166
78.569,12.13529,0.03715407,0.64513,1.06133
79.269,12.16055,0.03869949,0.65523,1.061
79.969,12.18577,0.03876709,0.66248,1.06067
80.669,12.21096,0.03755381,0.66775,1.06034
81.369,12.23598,0.03871203,0.67653,1.06
82.069,12.26105,0.03737103,0.685,1.05967
82.769,12.28595,0.03770879,0.69136,1.05934
83.469,12.31077,0.03701921,0.69743,1.059
84.169,12.33531,0.03709861,0.70497,1.05867
84.869,12.3599,0.03576426,0.71117,1.05833
85.569,12.38443,0.03701134,0.71673,1.058
86.269,12.40888,0.03712014,0.72382,1.05766
86.969,12.43324,0.03762883,0.73456,1.05732
87.669,12.4575,0.03817819,0.73902,1.05699
88.369,12.48183,0.03684794,0.74654,1.05665
89.069,12.5061,0.03546125,0.75083,1.05631
89.769,12.5304,0.03680446,0.75645,1.05597
90.469,12.55455,0.03541688,0.76594,1.05563
91.169,12.5786,0.03539061,0.77184,1.05529
91.869,12.60258,0.03685766,0.77746,1.05495
92.569,12.6265,0.03554019,0.78346,1.05461
93.269,12.6504,0.03655972,0.78835,1.05427
93.969,12.67425,0.03552867,0.79648,1.05393
94.669,12.69811,0.03510178,0.80132,1.05359
95.369,12.72188,0.0342157,0.80641,1.05324
96.069,12.74566,0.0344694,0.8122,1.0529
96.769,12.7694,0.03553496,0.81976,1.05256
97.469,12.79319,0.03554017,0.82436,1.05221
98.169,12.8168,0.03486624,0.82991,1.05187
98.869,12.84034,0.03421964,0.83509,1.05152
99.569,12.86389,0.03421587,0.84159,1.05118
100.269,12.88756,0.03497297,0.84644,1.05083
100.969,12.91121,0.03420025,0.85166,1.05049
101.669,12.93484,0.03421849,0.85709,1.05014
102.369,12.95844,0.03293701,0.86158,1.04979
103.069,12.9819,0.03289962,0.86483,1.04944
103.769,13.00544,0.03313001,0.87048,1.0491
104.469,13.0289,0.03306277,0.87691,1.04875
105.169,13.05241,0.03289967,0.87944,1.0484
105.869,13.07594,0.03289999,0.88237,1.04805
106.569,13.09944,0.03290012,0.88567,1.0477
107.269,13.12295,0.03294475,0.88723,1.04735
107.969,13.1463,0.03158561,0.88972,1.047
108.669,13.1698,0.03158984,0.89407,1.04664
109.369,13.19321,0.03158946,0.89669,1.04629
110.069,13.2167,0.03037654,0.90139,1.04594
110.769,13.23996,0.03026999,0.90443,1.04559
111.469,13.2633,0.03026533,0.90485,1.04523
112.169,13.2867,0.02928052,0.91144,1.04488
112.869,13.31006,0.02894877,0.91119,1.04452
113.569,13.3334,0.02895,0.91444,1.04417
114.269,13.35666,0.02895,0.91789,1.04381
114.969,13.3799,0.02895,0.91927,1.04346
115.669,13.4032,0.02895,0.9236,1.0431
116.369,13.42649,0.02895,0.92772,1.04274
117.069,13.44985,0.02894993,0.92818,1.04239
117.769,13.4731,0.0289509,0.93169,1.04203
118.469,13.49635,0.02801577,0.93348,1.04167
119.169,13.5195,0.02862731,0.938,1.04131
119.869,13.5427,0.0286299,0.94162,1.04095
120.569,13.5658,0.02862996,0.94463,1.04059
121.269,13.58894,0.02862071,0.94845,1.04023
121.969,13.612,0.02738912,0.95282,1.03987
122.669,13.63505,0.02731092,0.9552,1.03951
123.369,13.65809,0.02730999,0.95856,1.03915
124.069,13.6811,0.02731,0.96068,1.03879
124.769,13.7042,0.02731,0.96238,1.03843
125.469,13.7271,0.02731,0.9649,1.03807
126.169,13.7501,0.02731,0.96531,1.0377
126.869,13.773,0.02731,0.96564,1.03734
127.569,13.79597,0.02731,0.96741,1.03698
128.269,13.8187,0.02731,0.967,1.03661
128.969,13.8416,0.02731001,0.96848,1.03625
129.669,13.8644,0.02730901,0.96822,1.03588
130.369,13.8874,0.02727052,0.96949,1.03552
131.069,13.91019,0.02600155,0.96807,1.03515
131.769,13.9329,0.0260074,0.96861,1.03478
132.469,13.9556,0.02468372,0.96724,1.03442
133.169,13.97819,0.02466986,0.96686,1.03405
133.869,14.0009,0.02467,0.96566,1.03368
134.569,14.0237,0.02466905,0.96462,1.03331
135.269,14.04645,0.02467898,0.96094,1.03294
135.969,14.06911,0.02337485,0.95792,1.03258
136.669,14.0917,0.02331259,0.95713,1.03221
137.369,14.11426,0.02467117,0.95532,1.03184
138.069,14.13669,0.02468025,0.95456,1.03147
138.769,14.1592,0.02468,0.94997,1.03109
139.469,14.1816,0.02468,0.94935,1.03072
140.169,14.20408,0.02468,0.94878,1.03035
140.869,14.22657,0.02468,0.94554,1.02998
141.569,14.249,0.02468097,0.94193,1.02961
142.269,14.27142,0.02449288,0.94167,1.02923
142.969,14.29384,0.023362,0.93951,1.02886
143.669,14.3162,0.02336001,0.94081,1.02849
144.369,14.3386,0.02335427,0.93954,1.02811
145.069,14.3608,0.02268929,0.94178,1.02774
145.769,14.38316,0.02150163,0.94072,1.02736
146.469,14.40538,0.02138951,0.94206,1.02699
147.169,14.4276,0.02139,0.94225,1.02661
147.869,14.44985,0.02139,0.94176,1.02624
148.569,14.47206,0.02139002,0.93963,1.02586
149.269,14.4943,0.02139126,0.94349,1.02548
149.969,14.51644,0.02201581,0.94261,1.02511
150.669,14.5387,0.022698,0.94447,1.02473
151.369,14.56083,0.02269881,0.94511,1.02435
152.069,14.583,0.02207831,0.94559,1.02397
152.769,14.6051,0.02134704,0.94701,1.02359
153.469,14.62734,0.02270306,0.94732,1.02321
154.169,14.6495,0.02271018,0.9497,1.02283
154.869,14.67164,0.02271472,0.951,1.02245
155.569,14.69379,0.02372782,0.95254,1.02207
156.269,14.7159,0.02402141,0.95447,1.02169
156.969,14.73805,0.02401998,0.95484,1.02131
157.669,14.7601,0.02402,0.958,1.02093
158.369,14.7822,0.02401961,0.95835,1.02055
159.069,14.80419,0.02405143,0.95941,1.02016
159.769,14.82605,0.02273958,0.9621,1.01978
160.469,14.84808,0.02270103,0.9658,1.0194
161.169,14.87,0.02269998,0.96646,1.01901
161.869,14.8921,0.0227,0.96845,1.01863
162.569,14.914,0.0227,0.96869,1.01824
163.269,14.93605,0.0227,0.97176,1.01786
163.969,14.9581,0.02269975,0.97373,1.01747
164.669,14.98005,0.02269943,0.9748,1.01709
165.369,15.00203,0.02407071,0.97818,1.0167
166.069,15.02392,0.02401918,0.98011,1.01631
166.769,15.0458,0.02402,0.98417,1.01593
167.469,15.06765,0.02402,0.98501,1.01554
168.169,15.08956,0.02402,0.98512,1.01515
168.869,15.1115,0.02402,0.99068,1.01476
169.569,15.1334,0.02402,0.99223,1.01438
170.269,15.15524,0.02402,0.99381,1.01399
170.969,15.17705,0.02402,0.99638,1.0136
171.669,15.1989,0.02401998,0.99829,1.01321
172.369,15.22074,0.02401898,1.00152,1.01282
173.069,15.24262,0.02342993,1.00401,1.01243
173.769,15.2645,0.0221183,1.00351,1.01204
174.469,15.28631,0.02203982,1.00647,1.01165
175.169,15.3081,0.02203999,1.01164,1.01126
175.869,15.3299,0.02204,1.01361,1.01086
176.569,15.35166,0.02204009,1.01669,1.01047
177.269,15.37333,0.02203999,1.01535,1.01008
177.969,15.39509,0.02272846,1.01834,1.00969
178.669,15.4167,0.02172408,1.02456,1.00929
179.369,15.4384,0.02170986,1.02384,1.0089
180.069,15.46006,0.02171,1.02714,1.0085
180.769,15.4817,0.02171,1.0286,1.00811
181.469,15.50339,0.02171,1.03041,1.00772
182.169,15.525,0.02171,1.03488,1.00732
182.869,15.54664,0.02171,1.03748,1.00692
183.569,15.5682,0.02171,1.0384,1.00653
184.269,15.58981,0.02171,1.04322,1.00613
184.969,15.61137,0.02171002,1.04517,1.00574
185.669,15.6329,0.02170954,1.04525,1.00534
186.369,15.6544,0.0216268,1.04798,1.00494
187.069,15.6759,0.0210449,1.05176,1.00454
187.769,15.6974,0.02105008,1.05309,1.00415
188.469,15.71892,0.02105,1.05753,1.00375
189.169,15.74042,0.02105,1.05639,1.00335
189.869,15.76188,0.02104953,1.0606,1.00295
190.569,15.78335,0.02113207,1.0619,1.00255
191.269,15.8048,0.02134272,1.06298,1.00215
191.969,15.82635,0.02139013,1.06678,1.00175
192.669,15.84777,0.02139004,1.06675,1.00135
193.369,15.86914,0.02138621,1.0699,1.00095
194.069,15.89057,0.02067035,1.0711,1.00055
194.769,15.91199,0.02007198,1.07575,1.00015
195.469,15.9335,0.02007,1.07701,0.99974
196.169,15.95491,0.02007,1.07947,0.99934
196.869,15.9763,0.02006994,1.08417,0.99894
197.569,15.9977,0.02007373,1.08415,0.99854
198.269,16.01908,0.01952558,1.08534,0.99813
198.969,16.04044,0.01874872,1.09015,0.99773
199.669,16.0619,0.01875007,1.09144,0.99733
200.369,16.08335,0.01874997,1.09235,0.99692
201.069,16.10475,0.01875132,1.09568,0.99652
201.769,16.12622,0.01845667,1.09617,0.99611
202.469,16.1476,0.0174332,1.10098,0.99571
203.169,16.16871,0.0174299,1.10408,0.9953
203.869,16.18982,0.01743,1.10645,0.9949
204.569,16.2111,0.01743,1.10803,0.99449
205.269,16.23251,0.01743,1.11266,0.99408
205.969,16.25406,0.01743,1.11345,0.99368
206.669,16.2755,0.01742937,1.11655,0.99327
207.369,16.29675,0.01747824,1.11886,0.99286
208.069,16.31803,0.016089,1.12379,0.99245
208.769,16.33935,0.01612017,1.12306,0.99204
209.469,16.36065,0.01612,1.12621,0.99164
210.169,16.38189,0.01612,1.13256,0.99123
210.869,16.4032,0.01612,1.13317,0.99082
211.569,16.42441,0.01612,1.13764,0.99041
212.269,16.4457,0.01611996,1.13605,0.99
212.969,16.46697,0.01611906,1.1397,0.98959
213.669,16.4882,0.01522745,1.146,0.98918
214.369,16.50941,0.01450121,1.14658,0.98877
215.069,16.53069,0.01304629,1.14897,0.98835
215.769,16.55206,0.01155204,1.15359,0.98794
216.469,16.5733,0.01151003,1.15537,0.98753
217.169,16.59476,0.01040914,1.15761,0.98712
217.869,16.61599,0.0101884,1.16125,0.98671
218.569,16.63724,0.01020633,1.1631,0.98629
219.269,16.65855,0.01114969,1.16625,0.98588
219.969,16.67979,0.01118326,1.16977,0.98547
220.669,16.7011,0.009857026,1.17197,0.98505
221.369,16.72227,0.009870548,1.17509,0.98464
222.069,16.74346,0.009856782,1.1764,0.98422
222.769,16.7647,0.008682502,1.17927,0.98381
223.469,16.7858,0.008549147,1.18085,0.98339
224.169,16.8069,0.008551094,1.18682,0.98298
224.869,16.82816,0.00744661,1.18779,0.98256
225.569,16.8494,0.007241993,1.19132,0.98215
226.269,16.87079,0.006875725,1.19394,0.98173
226.969,16.892,0.00468441,1.19517,0.98131
227.669,16.91321,0.00460494,1.19663,0.9809
228.369,16.93449,0.00317859,1.19793,0.98048
229.069,16.95575,0.002150396,1.20085,0.98006
229.769,16.97699,0.00162249,1.20414,0.97964
230.469,16.9982,0.000353985,1.20447,0.97922
231.169,17.0193,0.0002017403,1.20539,0.97881
231.869,17.04056,-0.00112172,1.20871,0.97839
232.569,17.06172,-0.00108862,1.21175,0.97797
233.269,17.08308,-0.002348755,1.21319,0.97755
233.969,17.10425,-0.00267909,1.21553,0.97713
234.669,17.1254,-0.00408356,1.21662,0.97671
235.369,17.14648,-0.005139751,1.22103,0.97629
236.069,17.1677,-0.00558808,1.22041,0.97587
236.769,17.18892,-0.007212528,1.2227,0.97545
237.469,17.21023,-0.007404693,1.22629,0.97502
238.169,17.23134,-0.008670536,1.22718,0.9746
238.869,17.25241,-0.01003522,1.23047,0.97418
239.569,17.2735,-0.01044618,1.23426,0.97376
240.269,17.29472,-0.01154183,1.23777,0.97334
240.969,17.3159,-0.01309748,1.23699,0.97291
241.669,17.3371,-0.01428828,1.24048,0.97249
242.369,17.35827,-0.01459962,1.24323,0.97207
243.069,17.37952,-0.01518573,1.24576,0.97164
243.769,17.40071,-0.01603335,1.24848,0.97122
244.469,17.4219,-0.01780568,1.25064,0.9708
245.169,17.443,-0.01931533,1.25387,0.97037
245.869,17.46418,-0.02089177,1.25758,0.96995
246.569,17.48537,-0.02220825,1.25864,0.96952
247.269,17.50655,-0.02357266,1.26216,0.96909
247.969,17.52756,-0.02449305,1.26613,0.96867
248.669,17.54867,-0.0259112,1.26752,0.96824
249.369,17.5698,-0.02713018,1.27231,0.96782
250.069,17.59103,-0.02839447,1.27454,0.96739
250.769,17.61219,-0.03013005,1.27557,0.96696
251.469,17.6333,-0.03191958,1.27993,0.96654
252.169,17.65448,-0.03275151,1.2821,0.96611
252.869,17.67556,-0.03362137,1.28304,0.96568
253.569,17.6967,-0.03558241,1.28903,0.96525
254.269,17.7178,-0.03748583,1.29157,0.96482
254.969,17.73901,-0.03916534,1.29389,0.9644
255.669,17.76014,-0.04081578,1.29604,0.96397
256.369,17.78132,-0.04256941,1.29734,0.96354
257.069,17.8025,-0.0440907,1.30189,0.96311
257.769,17.8236,-0.04601325,1.30426,0.96268
258.469,17.84475,-0.04910324,1.30769,0.96225
259.169,17.86584,-0.05113518,1.31323,0.96182
259.869,17.88697,-0.05310965,1.31431,0.96139
260.569,17.90804,-0.05514083,1.31648,0.96096
261.269,17.92914,-0.05665557,1.31804,0.96053
261.969,17.95024,-0.05854877,1.32058,0.96009
262.669,17.97137,-0.05949478,1.32355,0.95966
263.369,17.99255,-0.06203794,1.32454,0.95923
264.069,18.01367,-0.06451756,1.33005,0.9588
264.769,18.0348,-0.06653673,1.33206,0.95837
265.469,18.05583,-0.06854417,1.33394,0.95793
266.169,18.0769,-0.07055069,1.33544,0.9575
266.869,18.09799,-0.07224412,1.33859,0.95707
267.569,18.11901,-0.07457763,1.33895,0.95663
268.269,18.13989,-0.07732112,1.34204,0.9562
268.969,18.16101,-0.08005364,1.34347,0.95577
269.669,18.18216,-0.08256522,1.34693,0.95533
270.369,18.2034,-0.08575034,1.34862,0.9549
271.069,18.22459,-0.08904724,1.35151,0.95446
271.769,18.24558,-0.09128296,1.35529,0.95403
272.469,18.26663,-0.09366653,1.35792,0.95359
273.169,18.28765,-0.09629027,1.35894,0.95315
273.869,18.30866,-0.0993473,1.36067,0.95272
274.569,18.32979,-0.10231,1.36305,0.95228
275.269,18.35089,-0.10477,1.36487,0.95185
275.969,18.37216,-0.10793,1.36659,0.95141
276.669,18.39324,-0.11057,1.36648,0.95097
277.369,18.41439,-0.11218,1.37095,0.95053
278.069,18.4355,-0.11494,1.37351,0.9501
278.769,18.45658,-0.1183,1.37788,0.94966
279.469,18.47765,-0.12119,1.3776,0.94922
280.169,18.49875,-0.12427,1.38028,0.94878
280.869,18.51988,-0.12798,1.38152,0.94834
281.569,18.54101,-0.13171,1.38521,0.94791
282.269,18.56215,-0.13475,1.38301,0.94747
282.969,18.58326,-0.13721,1.38671,0.94703
283.669,18.60445,-0.14073,1.38884,0.94659
284.369,18.62554,-0.14491,1.39217,0.94615
285.069,18.6466,-0.14786,1.39344,0.94571
285.769,18.66774,-0.1511,1.39608,0.94527
286.469,18.68874,-0.15527,1.39623,0.94483
287.169,18.70973,-0.15905,1.40097,0.94439
287.869,18.73085,-0.16285,1.40214,0.94394
288.569,18.75196,-0.16656,1.40376,0.9435
289.269,18.77327,-0.17132,1.40443,0.94306
289.969,18.79448,-0.17611,1.40667,0.94262
290.669,18.81561,-0.17979,1.40759,0.94218
291.369,18.83676,-0.18422,1.40962,0.94173
292.069,18.85785,-0.1888,1.41158,0.94129
292.769,18.87889,-0.19298,1.41626,0.94085
293.469,18.9,-0.19766,1.4157,0.94041
294.169,18.9211,-0.20253,1.42007,0.93996
294.869,18.94225,-0.20666,1.42196,0.93952
295.569,18.96343,-0.21135,1.42353,0.93907
296.269,18.98461,-0.21621,1.42545,0.93863
296.969,19.0058,-0.22134,1.42572,0.93819
297.669,19.02693,-0.22713,1.43018,0.93774
298.369,19.04802,-0.23232,1.43127,0.9373
299.069,19.0691,-0.23827,1.43374,0.93685
299.769,19.09026,-0.24421,1.43887,0.93641
300.469,19.1114,-0.24963,1.44032,0.93596
301.169,19.1326,-0.25474,1.44333,0.93551
301.869,19.1538,-0.26043,1.44349,0.93507
302.569,19.175,-0.26666,1.446,0.93462
303.269,19.19604,-0.27246,1.45022,0.93417
303.969,19.2172,-0.27808,1.45408,0.93373
304.669,19.23832,-0.28406,1.45626,0.93328
305.369,19.2595,-0.29031,1.45944,0.93283
306.069,19.2806,-0.29677,1.46146,0.93239
306.769,19.30174,-0.30183,1.46693,0.93194
307.469,19.3229,-0.30801,1.46868,0.93149
308.169,19.344,-0.31447,1.47126,0.93104
308.869,19.36521,-0.32112,1.47363,0.93059
309.569,19.38636,-0.32862,1.47921,0.93014
310.269,19.4076,-0.33609,1.48186,0.9297
310.969,19.4288,-0.34358,1.48556,0.92925
311.669,19.44998,-0.35039,1.48965,0.9288
312.369,19.47118,-0.35799,1.4937,0.92835
313.069,19.49233,-0.3659,1.49782,0.9279
313.769,19.5135,-0.37311,1.50382,0.92745
314.469,19.5347,-0.38067,1.50737,0.927
315.169,19.55584,-0.38862,1.51482,0.92655
315.869,19.57708,-0.39695,1.51782,0.9261
316.569,19.59829,-0.40536,1.52373,0.92564
317.269,19.6195,-0.41355,1.52855,0.92519
317.969,19.64068,-0.42133,1.53461,0.92474
318.669,19.66191,-0.42902,1.54014,0.92429
319.369,19.68309,-0.4369,1.54381,0.92384
320.069,19.7043,-0.44604,1.55331,0.92339
320.769,19.72551,-0.45515,1.55826,0.92293
321.469,19.74671,-0.4651,1.565,0.92248
322.169,19.76795,-0.47497,1.57078,0.92203
322.869,19.78924,-0.48427,1.57685,0.92157
323.569,19.81042,-0.49339,1.58541,0.92112
324.269,19.83169,-0.50247,1.59221,0.92067
324.969,19.85294,-0.51173,1.59697,0.92021
325.669,19.87419,-0.52155,1.60627,0.91976
326.369,19.89545,-0.53213,1.61085,0.91931
327.069,19.91674,-0.54315,1.61977,0.91885
327.769,19.93796,-0.55443,1.62851,0.9184
328.469,19.9592,-0.56546,1.63437,0.91794
329.169,19.9805,-0.57657,1.64212,0.91749
329.869,20.0018,-0.58752,1.65024,0.91703
330.569,20.02316,-0.59655,1.66024,0.91658
331.269,20.0444,-0.6076,1.66735,0.91612
331.969,20.06568,-0.61908,1.67445,0.91566
332.669,20.08701,-0.63056,1.68582,0.91521
333.369,20.10828,-0.64247,1.69356,0.91475
334.069,20.1296,-0.65514,1.70072,0.91429
334.769,20.1509,-0.66761,1.7098,0.91384
335.469,20.1722,-0.67982,1.71728,0.91338
336.169,20.1935,-0.69201,1.72743,0.91292
336.869,20.2148,-0.70472,1.73507,0.91247
337.569,20.23611,-0.71706,1.74254,0.91201
338.269,20.2575,-0.72999,1.74988,0.91155
338.969,20.27873,-0.74331,1.76446,0.91109
339.669,20.30013,-0.75659,1.77273,0.91063
340.369,20.32151,-0.7703,1.78007,0.91017
341.069,20.34282,-0.78433,1.79032,0.90972
341.769,20.36411,-0.79876,1.80085,0.90926
342.469,20.38545,-0.81273,1.80935,0.9088
343.169,20.40674,-0.82665,1.81805,0.90834
343.869,20.42788,-0.84112,1.82697,0.90788
344.569,20.44924,-0.85603,1.83678,0.90742
345.269,20.47061,-0.87126,1.84556,0.90696
345.969,20.49222,-0.88658,1.85769,0.9065
346.669,20.51374,-0.90149,1.86686,0.90604
347.369,20.5351,-0.91739,1.87792,0.90558
348.069,20.55653,-0.9343,1.88632,0.90512
348.769,20.5779,-0.95037,1.89694,0.90465
349.469,20.59931,-0.96634,1.90818,0.90419
350.169,20.6207,-0.98269,1.91696,0.90373
350.869,20.6421,-0.99782,1.92846,0.90327
351.569,20.66362,-1.01444,1.93886,0.90281
352.269,20.68508,-1.03156,1.95097,0.90235
352.969,20.70651,-1.04934,1.9612,0.90188
353.669,20.72791,-1.06698,1.97454,0.90142
354.369,20.74931,-1.08572,1.98332,0.90096
355.069,20.77071,-1.10369,1.99725,0.9005
355.769,20.79216,-1.12175,2.00784,0.90003
356.469,20.81362,-1.14055,2.0203,0.89957
357.169,20.8351,-1.15957,2.03219,0.89911
357.869,20.85661,-1.17852,2.04527,0.89864
358.569,20.87807,-1.19784,2.05872,0.89818
359.269,20.89953,-1.21698,2.07337,0.89771
359.969,20.92096,-1.23693,2.08318,0.89725
360.669,20.94246,-1.25706,2.09774,0.89678
361.369,20.96394,-1.27751,2.10895,0.89632
362.069,20.98544,-1.29775,2.12549,0.89585
362.769,21.007,-1.31773,2.13491,0.89539
363.469,21.02845,-1.33856,2.14872,0.89492
364.169,21.04992,-1.3602,2.16055,0.89446
364.869,21.07145,-1.38176,2.17267,0.89399
365.569,21.093,-1.40341,2.18609,0.89353
366.269,21.11449,-1.42493,2.19834,0.89306
366.969,21.13593,-1.44731,2.21311,0.89259
367.669,21.15744,-1.46967,2.22374,0.89213
368.369,21.17896,-1.49211,2.23655,0.89166
369.069,21.20064,-1.515,2.24731,0.89119
369.769,21.2222,-1.53766,2.2607,0.89073
370.469,21.2437,-1.56091,2.27085,0.89026
371.169,21.26524,-1.58427,2.28229,0.88979
371.869,21.28685,-1.60766,2.28969,0.88932
372.569,21.30842,-1.63162,2.29782,0.88886
373.269,21.32995,-1.65551,2.30558,0.88839
373.969,21.35154,-1.67893,2.31036,0.88792
374.669,21.3732,-1.70272,2.31706,0.88745
375.369,21.3948,-1.72666,2.31691,0.88698
376.069,21.4164,-1.75158,2.31849,0.88651
376.769,21.43796,-1.77591,2.31876,0.88604
377.469,21.45952,-1.80019,2.31427,0.88558
378.169,21.48108,-1.82509,2.31234,0.88511
378.869,21.50269,-1.84956,2.3028,0.88464
379.569,21.52435,-1.87358,2.29454,0.88417
380.269,21.54595,-1.89776,2.2796,0.8837
380.969,21.5676,-1.92168,2.26396,0.88323
381.669,21.58919,-1.94541,2.24554,0.88276
382.369,21.61072,-1.96871,2.22064,0.88229
383.069,21.63216,-1.99144,2.19697,0.88181
383.769,21.65377,-2.01572,2.16962,0.88134
384.469,21.67543,-2.03748,2.13299,0.88087
385.169,21.69729,-2.05856,2.09514,0.8804
385.869,21.71892,-2.07893,2.05481,0.87993
386.569,21.74054,-2.09959,2.00916,0.87946
387.269,21.7622,-2.11985,1.96229,0.87899
387.969,21.78383,-2.13861,1.90613,0.87851
388.669,21.80542,-2.15662,1.85018,0.87804
389.369,21.827,-2.17389,1.79309,0.87757
390.069,21.8486,-2.18981,1.73006,0.8771
390.769,21.8702,-2.20536,1.66681,0.87662
391.469,21.89181,-2.2208,1.59942,0.87615
392.169,21.91345,-2.23537,1.52935,0.87568
392.869,21.935,-2.24881,1.4627,0.8752
393.569,21.95666,-2.26118,1.39366,0.87473
394.269,21.9783,-2.27244,1.32593,0.87426
394.969,21.9999,-2.28252,1.26203,0.87378
395.669,22.0215,-2.29145,1.19743,0.87331
396.369,22.04301,-2.29867,1.13169,0.87283
397.069,22.0646,-2.30601,1.0708,0.87236
397.769,22.08624,-2.31283,1.01791,0.87189
398.469,22.1079,-2.31944,0.96313,0.87141
399.169,22.12951,-2.32484,0.91832,0.87094
399.869,22.15104,-2.3298,0.87582,0.87046
400.569,22.17259,-2.33483,0.83483,0.86999
401.269,22.19415,-2.3394,0.79983,0.86951
401.969,22.21578,-2.34336,0.76859,0.86903
402.669,22.23742,-2.34678,0.73997,0.86856
403.369,22.25906,-2.35011,0.7136,0.86808
404.069,22.28073,-2.35272,0.69305,0.86761
404.769,22.30245,-2.35468,0.6749,0.86713
405.469,22.32416,-2.3576,0.65503,0.86665
406.169,22.34585,-2.35997,0.63915,0.86618
406.869,22.36747,-2.36271,0.62587,0.8657
407.569,22.38915,-2.36437,0.61573,0.86522
408.269,22.41079,-2.36585,0.60125,0.86475
408.969,22.4325,-2.3677,0.59285,0.86427
409.669,22.45402,-2.36948,0.58523,0.86379
410.369,22.4757,-2.37154,0.57563,0.86331
411.069,22.4974,-2.37368,0.5691,0.86283
411.769,22.51928,-2.37513,0.56308,0.86236
412.469,22.54107,-2.3769,0.55949,0.86188
413.169,22.5628,-2.37864,0.55004,0.8614
413.869,22.58462,-2.38053,0.5458,0.86092
414.569,22.6064,-2.38226,0.54004,0.86044
415.269,22.62811,-2.38411,0.53507,0.85996
415.969,22.64986,-2.38583,0.53114,0.85948
416.669,22.6717,-2.38785,0.5269,0.859
417.369,22.69353,-2.38952,0.52608,0.85853
418.069,22.71526,-2.39111,0.5207,0.85805
418.769,22.73706,-2.39297,0.51913,0.85757
419.469,22.75885,-2.39482,0.51566,0.85709
420.169,22.7807,-2.39676,0.51142,0.85661
420.869,22.8025,-2.3986,0.50833,0.85613
421.569,22.82433,-2.39934,0.50475,0.85564
422.269,22.84613,-2.40002,0.50406,0.85516
422.969,22.86797,-2.40158,0.5028,0.85468
423.669,22.88981,-2.40368,0.50041,0.8542
424.369,22.91165,-2.40529,0.49876,0.85372
425.069,22.9335,-2.40684,0.49852,0.85324
425.769,22.95531,-2.40838,0.49567,0.85276
426.469,22.97715,-2.41039,0.4941,0.85228
427.169,22.9989,-2.41224,0.49202,0.85179
427.869,23.02076,-2.41403,0.48928,0.85131
428.569,23.04269,-2.41679,0.48839,0.85083
429.269,23.0646,-2.41868,0.4881,0.85035
429.969,23.0867,-2.42067,0.48679,0.84987
430.669,23.1086,-2.42238,0.48374,0.84938
431.369,23.1305,-2.42422,0.48747,0.8489
432.069,23.1524,-2.4256,0.4874,0.84842
432.769,23.1743,-2.42506,0.48385,0.84793
433.469,23.1963,-2.42634,0.48455,0.84745
434.169,23.21823,-2.42776,0.48473,0.84697
434.869,23.24002,-2.42955,0.48513,0.84648
435.569,23.26189,-2.43141,0.48502,0.846
436.269,23.28385,-2.43347,0.48493,0.84552
436.969,23.30586,-2.43533,0.48532,0.84503
437.669,23.32796,-2.4373,0.4886,0.84455
438.369,23.34994,-2.43879,0.48862,0.84406
439.069,23.3719,-2.44039,0.48984,0.84358
439.769,23.39387,-2.44138,0.49069,0.84309
440.469,23.4159,-2.44247,0.4904,0.84261
441.169,23.43785,-2.44418,0.49097,0.84212
441.869,23.4599,-2.44556,0.49223,0.84164
442.569,23.48176,-2.44723,0.49582,0.84115
443.269,23.50375,-2.44894,0.49633,0.84067
443.969,23.5258,-2.45085,0.4983,0.84018
444.669,23.54785,-2.45242,0.50028,0.8397
445.369,23.56997,-2.45431,0.50135,0.83921
446.069,23.5919,-2.45589,0.50478,0.83872
446.769,23.614,-2.45886,0.50695,0.83824
447.469,23.63599,-2.46042,0.50851,0.83775
448.169,23.65813,-2.46152,0.50846,0.83726
448.869,23.68021,-2.46323,0.5113,0.83678
449.569,23.7024,-2.4647,0.51133,0.83629
450.269,23.7244,-2.46627,0.51635,0.8358
450.969,23.74652,-2.46661,0.51855,0.83532
451.669,23.76847,-2.4676,0.5218,0.83483
452.369,23.79032,-2.46924,0.52464,0.83434
453.069,23.8123,-2.47088,0.52459,0.83385
453.769,23.8344,-2.47277,0.52932,0.83337
454.469,23.85665,-2.47487,0.53155,0.83288
455.169,23.879,-2.4765,0.53413,0.83239
455.869,23.90107,-2.47805,0.53785,0.8319
456.569,23.92316,-2.47825,0.54062,0.83141
457.269,23.94531,-2.47976,0.54339,0.83092
457.969,23.96744,-2.48147,0.54765,0.83044
458.669,23.9896,-2.48336,0.54583,0.82995
459.369,24.01184,-2.48483,0.54895,0.82946
460.069,24.03399,-2.48638,0.55321,0.82897
460.769,24.05615,-2.48801,0.5561,0.82848
461.469,24.0783,-2.4899,0.5585,0.82799
462.169,24.10045,-2.49095,0.56159,0.8275
462.869,24.12262,-2.4925,0.56239,0.82701
463.569,24.14481,-2.49409,0.56675,0.82652
464.269,24.16698,-2.49537,0.56842,0.82603
464.969,24.18913,-2.49825,0.5716,0.82554
465.669,24.2113,-2.49968,0.5725,0.82505
466.369,24.23349,-2.50098,0.57344,0.82456
467.069,24.25571,-2.50074,0.57617,0.82407
467.769,24.27796,-2.50187,0.5772,0.82358
468.469,24.3002,-2.5037,0.58349,0.82309
469.169,24.32236,-2.50501,0.58343,0.82259
469.869,24.34454,-2.50567,0.58354,0.8221
470.569,24.36674,-2.50699,0.58503,0.82161
471.269,24.389,-2.50856,0.58858,0.82112
471.969,24.41124,-2.50945,0.58959,0.82063
472.669,24.43352,-2.51052,0.59286,0.82014
473.369,24.45575,-2.51176,0.59192,0.81964
474.069,24.47805,-2.51324,0.59343,0.81915
474.769,24.5003,-2.51501,0.59505,0.81866
475.469,24.52264,-2.51649,0.59848,0.81817
476.169,24.54495,-2.51774,0.60062,0.81767
476.869,24.56727,-2.51879,0.60287,0.81718
477.569,24.5896,-2.52044,0.60359,0.81669
478.269,24.61179,-2.52302,0.60353,0.8162
478.969,24.63406,-2.52305,0.60668,0.8157
479.669,24.65629,-2.5243,0.61005,0.81521
480.369,24.67858,-2.52479,0.60979,0.81472
481.069,24.70089,-2.52592,0.60986,0.81422
481.769,24.72329,-2.52767,0.61008,0.81373
482.469,24.74558,-2.52947,0.61255,0.81323
483.169,24.7678,-2.52987,0.60788,0.81274
483.869,24.78981,-2.53152,0.61322,0.81225
484.569,24.81196,-2.53145,0.61209,0.81175
485.269,24.8342,-2.53328,0.61088,0.81126
485.969,24.85662,-2.53437,0.61185,0.81076
486.669,24.87913,-2.53608,0.60957,0.81027
487.369,24.90162,-2.53768,0.61035,0.80977
488.069,24.92415,-2.53925,0.61323,0.80928
488.769,24.94651,-2.54089,0.61266,0.80878
489.469,24.96888,-2.54255,0.61393,0.80829
490.169,24.99128,-2.54251,0.61239,0.80779
490.869,25.01361,-2.54397,0.61173,0.8073
491.569,25.03593,-2.54501,0.6104,0.8068
492.269,25.05829,-2.54568,0.61056,0.80631
492.969,25.0807,-2.54702,0.6077,0.80581
493.669,25.1031,-2.54864,0.60864,0.80531
494.369,25.12547,-2.54943,0.60718,0.80482
495.069,25.14783,-2.54998,0.60601,0.80432
495.769,25.17021,-2.55148,0.6068,0.80382
496.469,25.19258,-2.55139,0.60744,0.80333
497.169,25.21496,-2.55282,0.60366,0.80283
497.869,25.23733,-2.55427,0.60435,0.80233
498.569,25.2597,-2.55469,0.60004,0.80184
499.269,25.28207,-2.55659,0.60212,0.80134
499.969,25.30443,-2.55823,0.6007,0.80084
500.669,25.3268,-2.559,0.59792,0.80034
501.369,25.34919,-2.55982,0.59802,0.79985
502.069,25.3716,-2.5612,0.5963,0.79935
502.769,25.39405,-2.56157,0.59619,0.79885
503.469,25.41655,-2.56269,0.59375,0.79835
504.169,25.43903,-2.56421,0.59265,0.79785
504.869,25.46144,-2.56432,0.59031,0.79736
505.569,25.4839,-2.56578,0.58948,0.79686
506.269,25.5063,-2.56728,0.58756,0.79636
506.969,25.5287,-2.56736,0.58904,0.79586
507.669,25.55104,-2.56887,0.58414,0.79536
508.369,25.57349,-2.56953,0.5843,0.79486
509.069,25.59607,-2.57037,0.58337,0.79436
509.769,25.61859,-2.57171,0.58202,0.79386
510.469,25.64089,-2.5704,0.57993,0.79336
511.169,25.6633,-2.57065,0.57942,0.79286
511.869,25.68575,-2.57224,0.57789,0.79236
512.569,25.7084,-2.57303,0.57618,0.79187
513.269,25.73086,-2.57376,0.57477,0.79137
513.969,25.7533,-2.57433,0.57303,0.79087
514.669,25.77577,-2.57553,0.57167,0.79036
515.369,25.79818,-2.57572,0.57069,0.78986
516.069,25.8205,-2.57718,0.56648,0.78936
516.769,25.84296,-2.57741,0.56779,0.78886
517.469,25.86544,-2.5785,0.5667,0.78836
518.169,25.88813,-2.57962,0.56616,0.78786
518.869,25.9105,-2.57988,0.56362,0.78736
519.569,25.933,-2.58124,0.56206,0.78686
520.269,25.95553,-2.58121,0.56418,0.78636
520.969,25.97821,-2.58259,0.55765,0.78586
521.669,26.0007,-2.5826,0.55749,0.78536
522.369,26.02329,-2.58397,0.55705,0.78485
523.069,26.04588,-2.58453,0.55767,0.78435
523.769,26.06845,-2.58551,0.55491,0.78385
524.469,26.09095,-2.58685,0.55445,0.78335
525.169,26.11342,-2.58695,0.55279,0.78285
525.869,26.13595,-2.58691,0.54948,0.78234
526.569,26.1585,-2.58828,0.54989,0.78184
527.269,26.1811,-2.58826,0.54945,0.78134
527.969,26.20355,-2.58893,0.54808,0.78084
528.669,26.22614,-2.58969,0.546,0.78033
529.369,26.24877,-2.59118,0.54443,0.77983
530.069,26.2715,-2.59131,0.54309,0.77933
530.769,26.29405,-2.59254,0.54451,0.77882
531.469,26.31656,-2.59265,0.54193,0.77832
532.169,26.33908,-2.59398,0.53956,0.77782
532.869,26.3617,-2.59483,0.54047,0.77731
533.569,26.38428,-2.59528,0.53997,0.77681
534.269,26.4069,-2.59528,0.53709,0.77631
534.969,26.42955,-2.59532,0.53352,0.7758
535.669,26.4522,-2.59621,0.53621,0.7753
536.369,26.4748,-2.59627,0.53063,0.7748
537.069,26.4974,-2.59627,0.53397,0.77429
537.769,26.52,-2.5966,0.53046,0.77379
538.469,26.54259,-2.59758,0.53001,0.77328
539.169,26.56519,-2.59806,0.53106,0.77278
539.869,26.5878,-2.5989,0.53067,0.77227
540.569,26.6104,-2.60013,0.53113,0.77177
541.269,26.633,-2.60022,0.53061,0.77126
541.969,26.6556,-2.60158,0.52492,0.77076
542.669,26.6783,-2.60154,0.52501,0.77025
543.369,26.70095,-2.60288,0.52471,0.76975
544.069,26.72356,-2.60285,0.524,0.76924
544.769,26.7462,-2.60283,0.52368,0.76874
545.469,26.76887,-2.60415,0.52552,0.76823
546.169,26.7915,-2.6046,0.52141,0.76773
546.869,26.81425,-2.60559,0.5253,0.76722
547.569,26.8369,-2.60628,0.52148,0.76671
548.269,26.8596,-2.60691,0.52278,0.76621
548.969,26.88226,-2.60785,0.51967,0.7657
549.669,26.9049,-2.60823,0.5228,0.76519
550.369,26.92755,-2.60823,0.52069,0.76469
551.069,26.95024,-2.60823,0.51824,0.76418
551.769,26.97294,-2.60918,0.52042,0.76367
552.469,26.99567,-2.60954,0.51875,0.76317
553.169,27.0183,-2.60954,0.52167,0.76266
553.869,27.041,-2.61061,0.51783,0.76215
554.569,27.0637,-2.61086,0.51889,0.76165
555.269,27.0864,-2.61118,0.51857,0.76114
555.969,27.10912,-2.6123,0.51681,0.76063
556.669,27.13182,-2.61313,0.51925,0.76012
557.369,27.15447,-2.61461,0.52074,0.75962
558.069,27.1771,-2.61472,0.52295,0.75911
558.769,27.1998,-2.61591,0.52194,0.7586
559.469,27.2225,-2.61591,0.52426,0.75809
560.169,27.24525,-2.61589,0.52785,0.75758
560.869,27.26792,-2.61724,0.52344,0.75708
561.569,27.2907,-2.61723,0.52561,0.75657
562.269,27.3134,-2.61755,0.52801,0.75606
562.969,27.3362,-2.61722,0.5277,0.75555
563.669,27.3589,-2.61722,0.52969,0.75504
564.369,27.38162,-2.61722,0.53203,0.75453
565.069,27.40445,-2.61722,0.53359,0.75402
565.769,27.42725,-2.6176,0.5322,0.75351
566.469,27.45005,-2.61854,0.53597,0.75301
567.169,27.47275,-2.61855,0.53485,0.7525
567.869,27.49553,-2.6199,0.53788,0.75199
568.569,27.5182,-2.61979,0.53809,0.75148
569.269,27.54095,-2.62125,0.53889,0.75097
569.969,27.56363,-2.62216,0.54247,0.75046
570.669,27.5864,-2.62216,0.54327,0.74995
571.369,27.6092,-2.62352,0.54509,0.74944
572.069,27.632,-2.62347,0.54633,0.74893
572.769,27.6547,-2.62347,0.54774,0.74842
573.469,27.6775,-2.62347,0.54755,0.74791
574.169,27.7003,-2.62347,0.54647,0.7474
574.869,27.72314,-2.62484,0.54782,0.74689
575.569,27.74598,-2.62478,0.549,0.74638
576.269,27.76868,-2.62342,0.54914,0.74586
576.969,27.7915,-2.62475,0.55317,0.74535
577.669,27.8142,-2.62479,0.55241,0.74484
578.369,27.837,-2.62627,0.5538,0.74433
579.069,27.8599,-2.62687,0.55157,0.74382
579.769,27.88275,-2.62765,0.55249,0.74331
580.469,27.9056,-2.62817,0.55206,0.7428
581.169,27.9284,-2.62906,0.55557,0.74229
581.869,27.95115,-2.63033,0.557,0.74178
582.569,27.974,-2.63039,0.55759,0.74126
583.269,27.99679,-2.63039,0.55676,0.74075
583.969,28.01963,-2.63039,0.55912,0.74024
584.669,28.04253,-2.63156,0.5557,0.73973
585.369,28.06542,-2.63171,0.55679,0.73922
586.069,28.08823,-2.63171,0.55761,0.7387
586.769,28.1111,-2.63169,0.55539,0.73819
587.469,28.13383,-2.63303,0.5566,0.73768
588.169,28.15662,-2.63302,0.55685,0.73717
588.869,28.1794,-2.63302,0.5556,0.73665
589.569,28.20225,-2.63357,0.55347,0.73614
590.269,28.2252,-2.63434,0.55269,0.73563
590.969,28.24809,-2.63434,0.55368,0.73511
591.669,28.27103,-2.63434,0.55237,0.7346
592.369,28.2939,-2.63433,0.55065,0.73409
593.069,28.31679,-2.63571,0.54896,0.73358
593.769,28.3396,-2.63566,0.55071,0.73306
594.469,28.3625,-2.63567,0.54903,0.73255
595.169,28.3853,-2.63688,0.54624,0.73203
595.869,28.40825,-2.63697,0.54714,0.73152
596.569,28.4311,-2.63695,0.54468,0.73101
597.269,28.4542,-2.6383,0.54431,0.73049
597.969,28.47705,-2.63829,0.54327,0.72998
598.669,28.4999,-2.63926,0.54408,0.72947
599.369,28.52272,-2.6396,0.53925,0.72895
600.069,28.5456,-2.6396,0.5409,0.72844
600.769,28.5685,-2.6396,0.5394,0.72792
601.469,28.5915,-2.63955,0.53502,0.72741
602.169,28.6144,-2.64091,0.53722,0.72689
602.869,28.6376,-2.64092,0.53739,0.72638
603.569,28.66052,-2.6413,0.53696,0.72586
604.269,28.68345,-2.64224,0.53698,0.72535
604.969,28.70628,-2.64224,0.53446,0.72483
605.669,28.72921,-2.6422,0.53373,0.72432
606.369,28.75214,-2.64357,0.53204,0.7238
607.069,28.77515,-2.64355,0.53162,0.72329
607.769,28.7981,-2.64356,0.5276,0.72277
608.469,28.82106,-2.64491,0.53116,0.72226
609.169,28.844,-2.64487,0.52999,0.72174
609.869,28.86685,-2.64522,0.52994,0.72123
610.569,28.88978,-2.64619,0.52919,0.72071
611.269,28.91275,-2.64619,0.52854,0.72019
611.969,28.9358,-2.64654,0.52558,0.71968
612.669,28.9588,-2.64701,0.52978,0.71916
613.369,28.98173,-2.64782,0.52685,0.71865
614.069,29.00471,-2.64782,0.52608,0.71813
614.769,29.02763,-2.64787,0.5228,0.71761
615.469,29.0506,-2.64913,0.52201,0.7171
616.169,29.0736,-2.64914,0.52124,0.71658
616.869,29.0967,-2.65019,0.51701,0.71606
617.569,29.11965,-2.65046,0.5184,0.71555
618.269,29.14262,-2.64916,0.5195,0.71503
618.969,29.16553,-2.65003,0.51807,0.71451
619.669,29.18855,-2.65046,0.51652,0.714
620.369,29.2115,-2.65046,0.51905,0.71348
621.069,29.2345,-2.6509,0.51726,0.71296
621.769,29.25743,-2.65178,0.51459,0.71244
622.469,29.2804,-2.65178,0.51675,0.71193
623.169,29.3035,-2.65179,0.51654,0.71141
623.869,29.32651,-2.65274,0.51193,0.71089
624.569,29.3495,-2.65442,0.51646,0.71037
625.269,29.37247,-2.6544,0.51481,0.70986
625.969,29.39545,-2.65435,0.51538,0.70934
626.669,29.4185,-2.65308,0.51457,0.70882
627.369,29.4415,-2.65307,0.51319,0.7083
628.069,29.46449,-2.65444,0.51297,0.70778
628.769,29.48746,-2.65441,0.51672,0.70727
629.469,29.51052,-2.65513,0.51496,0.70675
630.169,29.5336,-2.65572,0.51511,0.70623
630.869,29.55661,-2.6557,0.51769,0.70571
631.569,29.57961,-2.65764,0.5228,0.70519
632.269,29.6027,-2.65853,0.51801,0.70467
632.969,29.6257,-2.65991,0.5236,0.70416
633.669,29.64873,-2.65934,0.52195,0.70364
634.369,29.6717,-2.65832,0.52251,0.70312
635.069,29.69476,-2.65833,0.52547,0.7026
635.769,29.7177,-2.65835,0.52783,0.70208
636.469,29.7408,-2.65705,0.53066,0.70156
637.169,29.76377,-2.65834,0.53063,0.70104
637.869,29.7868,-2.65835,0.53229,0.70052
638.569,29.8098,-2.65834,0.53038,0.7
639.269,29.8328,-2.65954,0.53179,0.69948
639.969,29.85587,-2.661,0.53676,0.69896
640.669,29.87888,-2.66099,0.53883,0.69844
641.369,29.90195,-2.66099,0.54027,0.69792
642.069,29.925,-2.661,0.53979,0.6974
642.769,29.94805,-2.66235,0.54541,0.69688
643.469,29.9711,-2.66231,0.54826,0.69636
644.169,29.9942,-2.6623,0.54727,0.69584
644.869,30.01728,-2.66366,0.55414,0.69532
645.569,30.0403,-2.66398,0.55559,0.6948
646.269,30.06335,-2.66515,0.55833,0.69428
646.969,30.08633,-2.66546,0.56186,0.69376
647.669,30.10933,-2.66664,0.56668,0.69324
648.369,30.13243,-2.66798,0.56982,0.69272
649.069,30.1556,-2.66933,0.5743,0.6922
649.769,30.17871,-2.66781,0.57842,0.69168
650.469,30.2018,-2.66652,0.57895,0.69116
651.169,30.2249,-2.66758,0.58113,0.69064
651.869,30.2479,-2.66668,0.58616,0.69012
652.569,30.271,-2.66757,0.59088,0.6896
653.269,30.2939,-2.66795,0.59535,0.68907
653.969,30.3169,-2.66888,0.59612,0.68855
654.669,30.34,-2.66888,0.60655,0.68803
655.369,30.36332,-2.66989,0.60644,0.68751
656.069,30.38648,-2.67163,0.60963,0.68699
656.769,30.40962,-2.67159,0.61564,0.68647
657.469,30.43266,-2.67295,0.62098,0.68595
658.169,30.45577,-2.67294,0.62534,0.68542
658.869,30.47887,-2.67294,0.62811,0.6849
659.569,30.5019,-2.67307,0.63496,0.68438
660.269,30.5251,-2.67425,0.63935,0.68386
660.969,30.5481,-2.6738,0.64383,0.68334
661.669,30.57122,-2.67289,0.65179,0.68281
662.369,30.5944,-2.67425,0.65591,0.68229
663.069,30.6175,-2.67427,0.66246,0.68177
663.769,30.6405,-2.67559,0.66656,0.68125
664.469,30.66333,-2.67555,0.67289,0.68073
665.169,30.6865,-2.67699,0.67993,0.6802
665.869,30.7097,-2.67747,0.69071,0.67968
666.569,30.733,-2.67964,0.69389,0.67916
667.269,30.7561,-2.6796,0.70361,0.67863
667.969,30.77918,-2.68096,0.71222,0.67811
668.669,30.80231,-2.68094,0.72237,0.67759
669.369,30.8255,-2.68224,0.73452,0.67707
670.069,30.84858,-2.6824,0.74048,0.67654
670.769,30.8716,-2.68357,0.74949,0.67602
671.469,30.89472,-2.6837,0.75926,0.6755
672.169,30.91784,-2.68386,0.76948,0.67497
672.869,30.94101,-2.68511,0.78299,0.67445
673.569,30.9641,-2.68642,0.79161,0.67393
674.269,30.98722,-2.68692,0.80227,0.6734
674.969,31.0103,-2.68784,0.81283,0.67288
675.669,31.0335,-2.68928,0.82595,0.67236
676.369,31.05667,-2.68929,0.84013,0.67183
677.069,31.07987,-2.6907,0.85233,0.67131
677.769,31.10302,-2.6908,0.86317,0.67079
678.469,31.1262,-2.69203,0.87721,0.67026
679.169,31.1494,-2.69262,0.89088,0.66974
679.869,31.17255,-2.69335,0.90148,0.66921
680.569,31.19568,-2.69495,0.91827,0.66869
681.269,31.21882,-2.69538,0.93285,0.66817
681.969,31.2419,-2.69628,0.94983,0.66764
682.669,31.2651,-2.69789,0.96551,0.66712
683.369,31.28828,-2.69954,0.97599,0.66659
684.069,31.31147,-2.69943,0.99507,0.66607
684.769,31.33468,-2.69976,1.00795,0.66554
685.469,31.35786,-2.70113,1.02488,0.66502
686.169,31.38095,-2.70191,1.03768,0.66449
686.869,31.40395,-2.70242,1.05728,0.66397
687.569,31.4271,-2.7053,1.07258,0.66345
688.269,31.45032,-2.70713,1.08701,0.66292
688.969,31.4737,-2.70861,1.10827,0.6624
689.669,31.4969,-2.70978,1.1204,0.66187
690.369,31.52008,-2.71046,1.1384,0.66135
691.069,31.54335,-2.71056,1.15698,0.66082
691.769,31.5667,-2.71211,1.17308,0.6603
692.469,31.5899,-2.71395,1.1896,0.65977
693.169,31.6131,-2.71538,1.21353,0.65925
693.869,31.6363,-2.7165,1.22977,0.65872
694.569,31.65946,-2.71721,1.24396,0.65819
695.269,31.6827,-2.71865,1.26118,0.65767
695.969,31.70591,-2.72011,1.2823,0.65714
696.669,31.7291,-2.72177,1.29501,0.65662
697.369,31.75235,-2.72337,1.31475,0.65609
698.069,31.77562,-2.72521,1.32984,0.65557
698.769,31.7989,-2.7269,1.35029,0.65504
699.469,31.8221,-2.7287,1.37395,0.65452
700.169,31.8453,-2.7302,1.38661,0.65399
700.869,31.8685,-2.73198,1.40428,0.65346
701.569,31.89183,-2.73222,1.42142,0.65294
702.269,31.91505,-2.73372,1.44163,0.65241
702.969,31.93825,-2.736,1.45809,0.65189
703.669,31.96155,-2.73844,1.47819,0.65136
704.369,31.9849,-2.74001,1.4927,0.65083
705.069,32.00826,-2.74157,1.51108,0.65031
705.769,32.03154,-2.74306,1.52497,0.64978
706.469,32.0548,-2.74414,1.54287,0.64925
707.169,32.0781,-2.74593,1.55992,0.64873
707.869,32.10138,-2.74838,1.57762,0.6482
708.569,32.1246,-2.75105,1.59128,0.64768
709.269,32.14784,-2.75308,1.60689,0.64715
709.969,32.17122,-2.75462,1.61863,0.64662
710.669,32.1946,-2.75635,1.63636,0.6461
711.369,32.2179,-2.75858,1.64677,0.64557
712.069,32.24114,-2.76073,1.66025,0.64504
712.769,32.26449,-2.76297,1.67182,0.64451
713.469,32.2879,-2.76488,1.68172,0.64399
714.169,32.31122,-2.76716,1.69434,0.64346
714.869,32.3346,-2.76964,1.70418,0.64293
715.569,32.3579,-2.77179,1.71162,0.64241
716.269,32.38127,-2.7738,1.71622,0.64188
716.969,32.40456,-2.77562,1.72192,0.64135
717.669,32.4279,-2.77741,1.72514,0.64083
718.369,32.45135,-2.77915,1.7286,0.6403
719.069,32.47473,-2.78148,1.72435,0.63977
719.769,32.49815,-2.7838,1.72821,0.63924
720.469,32.5214,-2.78562,1.72353,0.63872
721.169,32.5448,-2.78781,1.72018,0.63819
721.869,32.56805,-2.79039,1.71735,0.63766
722.569,32.5915,-2.79263,1.71283,0.63713
723.269,32.61486,-2.79488,1.6998,0.63661
723.969,32.63818,-2.79744,1.69503,0.63608
724.669,32.66151,-2.80017,1.68527,0.63555
725.369,32.6849,-2.8021,1.67977,0.63502
726.069,32.70843,-2.80396,1.66712,0.6345
726.769,32.73187,-2.8051,1.6566,0.63397
727.469,32.75519,-2.8069,1.6516,0.63344
728.169,32.7785,-2.80966,1.64142,0.63291
728.869,32.80186,-2.81229,1.62829,0.63238
729.569,32.82524,-2.8141,1.62067,0.63186
730.269,32.84857,-2.81575,1.60323,0.63133
730.969,32.87184,-2.81656,1.58849,0.6308
731.669,32.8952,-2.81848,1.57136,0.63027
732.369,32.91864,-2.8198,1.54789,0.62974
733.069,32.94211,-2.8209,1.51438,0.62922
733.769,32.96553,-2.8226,1.47967,0.62869
734.469,32.98883,-2.82515,1.43465,0.62816
735.169,33.0122,-2.82734,1.38606,0.62763
735.869,33.03553,-2.8288,1.32191,0.6271
736.569,33.05892,-2.83,1.23627,0.62657
737.269,33.0822,-2.83178,1.13392,0.62605
737.969,33.10561,-2.83305,1.00151,0.62552
738.669,33.12896,-2.83351,0.85674,0.62499
739.369,33.15232,-2.83362,0.73421,0.62446
740.069,33.1756,-2.8344,0.63567,0.62393
740.769,33.19887,-2.8344,0.56182,0.6234
741.469,33.22217,-2.8344,0.50609,0.62287
742.169,33.2455,-2.8344,0.46079,0.62235
742.869,33.26882,-2.83446,0.42731,0.62182
743.569,33.29218,-2.83573,0.4018,0.62129
744.269,33.31555,-2.83571,0.37921,0.62076
744.969,33.3389,-2.83702,0.36139,0.62023
745.669,33.36206,-2.83704,0.34692,0.6197
746.369,33.38547,-2.83704,0.3387,0.61917
747.069,33.4089,-2.83704,0.32865,0.61864
747.769,33.43244,-2.83759,0.3251,0.61811
748.469,33.4559,-2.83835,0.31641,0.61759
749.169,33.4792,-2.83835,0.31299,0.61706
749.869,33.5026,-2.83835,0.30642,0.61653
750.569,33.52585,-2.83835,0.30694,0.616
751.269,33.54909,-2.83835,0.30016,0.61547
751.969,33.5726,-2.83862,0.29732,0.61494
752.669,33.5961,-2.83934,0.29199,0.61441
753.369,33.61973,-2.83934,0.2863,0.61388
754.069,33.64314,-2.83934,0.28456,0.61335
754.769,33.66664,-2.83934,0.28448,0.61282
755.469,33.69008,-2.84035,0.2828,0.61229
756.169,33.71352,-2.84033,0.28156,0.61176
756.869,33.73692,-2.84032,0.27993,0.61124
757.569,33.7603,-2.84068,0.27939,0.61071
758.269,33.78368,-2.84062,0.2757,0.61018
758.969,33.8071,-2.84065,0.27568,0.60965
759.669,33.83054,-2.84079,0.27839,0.60912
760.369,33.85398,-2.84197,0.2701,0.60859
761.069,33.8774,-2.84197,0.26783,0.60806
761.769,33.90077,-2.84197,0.26489,0.60753
762.469,33.92416,-2.84195,0.26475,0.607
763.169,33.94757,-2.84132,0.26317,0.60647
763.869,33.97103,-2.84131,0.26007,0.60594
764.569,33.9945,-2.84131,0.25898,0.60541
765.269,34.01795,-2.84131,0.25738,0.60488
765.969,34.04139,-2.84214,0.25602,0.60435
766.669,34.06485,-2.84262,0.25474,0.60382
767.369,34.08829,-2.84131,0.25439,0.60329
768.069,34.1117,-2.84264,0.25368,0.60276
768.769,34.13507,-2.84263,0.25169,0.60223
769.469,34.15849,-2.84263,0.25338,0.6017
770.169,34.18195,-2.84271,0.2475,0.60117
770.869,34.20541,-2.84397,0.25013,0.60064
771.569,34.22886,-2.84395,0.24507,0.60011
772.269,34.25227,-2.84395,0.24663,0.59958
772.969,34.27574,-2.84394,0.2451,0.59905
773.669,34.2992,-2.84525,0.23892,0.59852
774.369,34.3226,-2.84527,0.24099,0.59799
775.069,34.34598,-2.84619,0.23689,0.59746
775.769,34.36942,-2.84658,0.23836,0.59693
776.469,34.39283,-2.84658,0.23355,0.5964
777.169,34.4163,-2.84658,0.23316,0.59587
777.869,34.43976,-2.84658,0.23224,0.59534
778.569,34.4632,-2.84658,0.22892,0.59481
779.269,34.48669,-2.84658,0.22435,0.59428
779.969,34.51016,-2.84658,0.22539,0.59375
780.669,34.5336,-2.84658,0.22506,0.59322
781.369,34.55704,-2.84728,0.22281,0.59269
782.069,34.58045,-2.8479,0.22186,0.59216
782.769,34.60389,-2.8479,0.21662,0.59163
783.469,34.6274,-2.84791,0.21778,0.5911
784.169,34.6509,-2.84922,0.21708,0.59057
784.869,34.67436,-2.84915,0.21438,0.59004
785.569,34.69781,-2.8479,0.21243,0.58951
786.269,34.7213,-2.84789,0.21215,0.58898
786.969,34.74477,-2.84789,0.20881,0.58845
787.669,34.76826,-2.84789,0.2095,0.58792
788.369,34.79169,-2.84789,0.20632,0.58739
789.069,34.8151,-2.84902,0.20345,0.58686
789.769,34.83862,-2.84921,0.20157,0.58633
790.469,34.86208,-2.84921,0.20406,0.5858
791.169,34.88556,-2.84921,0.20271,0.58527
791.869,34.909,-2.8492,0.20121,0.58474
792.569,34.93258,-2.85062,0.20162,0.58421
793.269,34.9561,-2.85062,0.19759,0.58368
793.969,34.9796,-2.85194,0.19954,0.58315
794.569,34.99954,-2.85195,0.19376,0.5827