File: 01_Data/Homasote/STA/N2/30K_min/Homasote_STA_N2_30KData_222104_R2.csv
##Temp./Â°C,Time/min,Mass loss(subtr.2)/mg,DSC(subtr.2)/(mW/mg),Sensit./(uV/mW)
48.56,10.00667,-0.03378,0.01883212,1.07503
49.26,10.55745,-0.03245602,0.05810096,1.07472
49.96,10.68174,-0.02927183,0.09187626,1.07441
50.66,10.77217,-0.03007633,0.1225,1.0741
51.36,10.84538,-0.02968797,0.15448,1.07379
52.06,10.90908,-0.0315309,0.18126,1.07348
52.76,10.9654,-0.03323001,0.20624,1.07317
53.46,11.017,-0.03342754,0.23004,1.07286
54.16,11.06536,-0.03643883,0.25397,1.07255
54.86,11.11012,-0.03724065,0.2784,1.07224
55.56,11.1526,-0.03771995,0.29932,1.07192
56.26,11.1935,-0.03883307,0.32126,1.07161
56.96,11.23271,-0.03892805,0.34386,1.0713
57.66,11.2701,-0.03959695,0.36286,1.07098
58.36,11.3062,-0.04045349,0.38313,1.07067
59.06,11.3415,-0.04333197,0.40168,1.07035
59.76,11.37578,-0.04430848,0.41746,1.07003
60.46,11.40906,-0.04453485,0.43382,1.06972
61.16,11.44165,-0.04462261,0.44431,1.0694
61.86,11.47369,-0.04404767,0.45666,1.06908
62.56,11.50504,-0.04224038,0.46407,1.06876
63.26,11.53578,-0.04091124,0.47153,1.06844
63.96,11.56601,-0.04047917,0.47988,1.06812
64.66,11.59591,-0.04017787,0.48694,1.0678
65.36,11.62533,-0.03980587,0.49245,1.06748
66.06,11.65437,-0.03970501,0.50018,1.06716
66.76,11.68303,-0.03886787,0.50865,1.06684
67.46,11.71145,-0.0381238,0.51829,1.06652
68.16,11.73948,-0.03833175,0.52131,1.06619
68.86,11.76732,-0.03812886,0.53061,1.06587
69.56,11.79469,-0.03776451,0.53923,1.06555
70.26,11.8221,-0.0376869,0.54566,1.06522
70.96,11.84918,-0.03724945,0.55436,1.0649
71.66,11.87604,-0.03745344,0.5628,1.06457
72.36,11.9024,-0.03752879,0.56943,1.06425
73.06,11.92901,-0.03708739,0.57731,1.06392
73.76,11.95547,-0.0367505,0.58607,1.06359
74.46,11.98184,-0.03673914,0.59281,1.06326
75.16,12.00791,-0.03713188,0.59988,1.06294
75.86,12.03388,-0.03710581,0.60866,1.06261
76.56,12.05973,-0.03704746,0.61722,1.06228
77.26,12.08554,-0.03663796,0.62557,1.06195
77.96,12.1111,-0.0373309,0.63035,1.06162
78.66,12.1366,-0.0383247,0.63749,1.06129
79.36,12.16198,-0.03983198,0.64422,1.06096
80.06,12.18724,-0.03876886,0.65299,1.06063
80.76,12.21241,-0.03916019,0.66135,1.06029
81.46,12.23751,-0.03952181,0.66745,1.05996
82.16,12.2626,-0.03849933,0.67349,1.05963
82.86,12.2875,-0.03989978,0.68404,1.05929
83.56,12.31236,-0.04042032,0.69028,1.05896
84.26,12.33716,-0.0418275,0.69664,1.05862
84.96,12.3618,-0.04149456,0.70358,1.05829
85.66,12.38638,-0.04200062,0.71105,1.05795
86.36,12.41076,-0.04240151,0.71997,1.05762
87.06,12.43524,-0.04220192,0.7267,1.05728
87.76,12.4596,-0.04355127,0.7311,1.05694
88.46,12.48387,-0.0421619,0.73948,1.05661
89.16,12.50807,-0.04353855,0.74686,1.05627
89.86,12.53231,-0.04353787,0.75443,1.05593
90.56,12.55663,-0.04322846,0.75802,1.05559
91.26,12.58076,-0.04353919,0.76706,1.05525
91.96,12.60482,-0.0435712,0.77405,1.05491
92.66,12.62885,-0.04357244,0.77789,1.05457
93.36,12.65291,-0.04354163,0.784,1.05423
94.06,12.67682,-0.04475906,0.78998,1.05389
94.76,12.70064,-0.04485999,0.79633,1.05354
95.46,12.72447,-0.0448099,0.8009,1.0532
96.16,12.74837,-0.04615016,0.80599,1.05286
96.86,12.77219,-0.04492751,0.81308,1.05251
97.56,12.7959,-0.04485819,0.81633,1.05217
98.26,12.8195,-0.04545982,0.82332,1.05182
98.96,12.8431,-0.04618347,0.82698,1.05148
99.66,12.86665,-0.04618005,0.83121,1.05113
100.36,12.89033,-0.04740766,0.83683,1.05079
101.06,12.914,-0.04750067,0.83999,1.05044
101.76,12.93768,-0.04825495,0.84268,1.05009
102.46,12.96135,-0.04881112,0.84518,1.04975
103.16,12.98495,-0.04880875,0.85066,1.0494
103.86,13.00848,-0.04931223,0.85226,1.04905
104.56,13.03197,-0.05012798,0.85746,1.0487
105.26,13.0555,-0.05013327,0.85695,1.04835
105.96,13.0791,-0.05102752,0.86139,1.048
106.66,13.10267,-0.05144139,0.86374,1.04765
107.36,13.1262,-0.05143999,0.86654,1.0473
108.06,13.14965,-0.0514388,0.86663,1.04695
108.76,13.173,-0.05174368,0.86862,1.0466
109.46,13.1964,-0.05275511,0.87076,1.04625
110.16,13.21982,-0.05276001,0.87152,1.04589
110.86,13.24327,-0.05276126,0.87199,1.04554
111.56,13.2667,-0.05276154,0.87165,1.04519
112.26,13.29015,-0.05342334,0.87352,1.04483
112.96,13.31354,-0.05376817,0.87403,1.04448
113.66,13.3368,-0.05473531,0.87438,1.04412
114.36,13.3601,-0.05474,0.87696,1.04377
115.06,13.38352,-0.05473998,0.87488,1.04341
115.76,13.4068,-0.05473979,0.8765,1.04306
116.46,13.43016,-0.05508227,0.87736,1.0427
117.16,13.45331,-0.05538995,0.87672,1.04234
117.86,13.4766,-0.05642539,0.87297,1.04198
118.56,13.49988,-0.0567001,0.87592,1.04163
119.26,13.52314,-0.05668322,0.87634,1.04127
119.96,13.5463,-0.05801367,0.87923,1.04091
120.66,13.5694,-0.05799881,0.87819,1.04055
121.36,13.59261,-0.05868525,0.88215,1.04019
122.06,13.61571,-0.05867745,0.88293,1.03983
122.76,13.63889,-0.05920127,0.88257,1.03947
123.46,13.6619,-0.06000362,0.88537,1.03911
124.16,13.68489,-0.05999519,0.88739,1.03874
124.86,13.7079,-0.06071607,0.88746,1.03838
125.56,13.7308,-0.06065894,0.88989,1.03802
126.26,13.75371,-0.06066,0.89012,1.03766
126.96,13.77665,-0.06065878,0.89058,1.03729
127.66,13.79975,-0.06095899,0.88998,1.03693
128.36,13.8226,-0.06196492,0.88946,1.03656
129.06,13.84545,-0.06197003,0.89012,1.0362
129.76,13.86822,-0.06197,0.8909,1.03583
130.46,13.89096,-0.06196975,0.88759,1.03547
131.16,13.91355,-0.06196746,0.88719,1.0351
131.86,13.9364,-0.06396951,0.88582,1.03474
132.56,13.95915,-0.06460857,0.88554,1.03437
133.26,13.98205,-0.06460997,0.88535,1.034
133.96,14.00487,-0.06461,0.88405,1.03363
134.66,14.0275,-0.06460994,0.88083,1.03327
135.36,14.05011,-0.0646232,0.87869,1.0329
136.06,14.0726,-0.06587874,0.87787,1.03253
136.76,14.0952,-0.0659191,0.87528,1.03216
137.46,14.1177,-0.06592002,0.87251,1.03179
138.16,14.14034,-0.06592,0.86837,1.03142
138.86,14.16293,-0.06592,0.86662,1.03105
139.56,14.1854,-0.06592,0.86079,1.03068
140.26,14.208,-0.06591949,0.85845,1.0303
140.96,14.2304,-0.06604908,0.85727,1.02993
141.66,14.25285,-0.06724243,0.85159,1.02956
142.36,14.2752,-0.06724009,0.84834,1.02919
143.06,14.2976,-0.06724,0.84875,1.02881
143.76,14.32,-0.06724,0.84556,1.02844
144.46,14.3424,-0.06724,0.84164,1.02806
145.16,14.36478,-0.06724,0.8406,1.02769
145.86,14.3871,-0.06724,0.83738,1.02731
146.56,14.40944,-0.06724,0.83644,1.02694
147.26,14.43166,-0.06724,0.83545,1.02656
147.96,14.4539,-0.06724,0.83336,1.02619
148.66,14.476,-0.06724002,0.83035,1.02581
149.36,14.49818,-0.06723874,0.83078,1.02543
150.06,14.5203,-0.06759377,0.83003,1.02506
150.76,14.54239,-0.06855485,0.82973,1.02468
151.46,14.56461,-0.06856006,0.82762,1.0243
152.16,14.5867,-0.06856,0.82842,1.02392
152.86,14.60904,-0.06856,0.82764,1.02354
153.56,14.6311,-0.06856,0.82794,1.02316
154.26,14.6532,-0.06856,0.82766,1.02278
154.96,14.6753,-0.06856,0.82728,1.0224
155.66,14.6974,-0.06856,0.82929,1.02202
156.36,14.7194,-0.06856,0.828,1.02164
157.06,14.74148,-0.06855999,0.82837,1.02126
157.76,14.76351,-0.06856035,0.83137,1.02088
158.46,14.78554,-0.06854619,0.831,1.0205
159.16,14.80751,-0.06791122,0.83301,1.02011
159.86,14.82956,-0.06789966,0.83472,1.01973
160.56,14.85152,-0.06789872,0.83498,1.01935
161.26,14.8736,-0.0682513,0.83741,1.01896
161.96,14.8956,-0.06920482,0.83688,1.01858
162.66,14.9176,-0.06921007,0.83908,1.01819
163.36,14.93954,-0.06921,0.83802,1.01781
164.06,14.96139,-0.06921,0.84094,1.01742
164.76,14.9833,-0.06921,0.84194,1.01704
165.46,15.00525,-0.06921002,0.84308,1.01665
166.16,15.0272,-0.06921073,0.8447,1.01626
166.86,15.0491,-0.06977545,0.84764,1.01588
167.56,15.0707,-0.07051627,0.84693,1.01549
168.26,15.0926,-0.07052002,0.85016,1.0151
168.96,15.1144,-0.07052,0.85169,1.01471
169.66,15.1364,-0.07052,0.85216,1.01433
170.36,15.15836,-0.07052,0.85476,1.01394
171.06,15.18017,-0.07052001,0.8554,1.01355
171.76,15.20205,-0.07051146,0.85552,1.01316
172.46,15.22386,-0.06942063,0.85882,1.01277
173.16,15.2458,-0.06920909,0.86126,1.01238
173.86,15.2675,-0.06921125,0.86343,1.01199
174.56,15.2893,-0.06979836,0.86579,1.0116
175.26,15.31104,-0.07052643,0.86576,1.0112
175.96,15.33261,-0.07053002,0.87093,1.01081
176.66,15.35431,-0.07053,0.8713,1.01042
177.36,15.37601,-0.07052998,0.87167,1.01003
178.06,15.3978,-0.07053097,0.87649,1.00963
178.76,15.4197,-0.07051818,0.87934,1.00924
179.46,15.44145,-0.07182844,0.87765,1.00885
180.16,15.4631,-0.07183904,0.87984,1.00845
180.86,15.48463,-0.07201944,0.88233,1.00806
181.56,15.50624,-0.073152,0.88568,1.00766
182.26,15.52785,-0.07315007,0.88586,1.00727
182.96,15.5494,-0.07315,0.8865,1.00687
183.66,15.57099,-0.07315,0.88905,1.00648
184.36,15.59254,-0.07315,0.89145,1.00608
185.06,15.61415,-0.07315,0.89348,1.00568
185.76,15.63575,-0.07315,0.89452,1.00529
186.46,15.65734,-0.07315,0.89698,1.00489
187.16,15.67884,-0.07315,0.8988,1.00449
187.86,15.7004,-0.07315,0.90049,1.00409
188.56,15.72192,-0.07315,0.90518,1.0037
189.26,15.74341,-0.07315,0.90465,1.0033
189.96,15.76486,-0.07315,0.90533,1.0029
190.66,15.78633,-0.07315,0.90886,1.0025
191.36,15.8078,-0.07314956,0.91079,1.0021
192.06,15.82925,-0.07322398,0.91144,1.0017
192.76,15.85056,-0.07448566,0.9126,1.0013
193.46,15.8717,-0.07446983,0.9126,1.0009
194.16,15.8929,-0.07447,0.91784,1.0005
194.86,15.91424,-0.07447,0.91943,1.00009
195.56,15.9359,-0.07446976,0.92075,0.99969
196.26,15.95755,-0.07448609,0.92421,0.99929
196.96,15.97913,-0.07545013,0.927,0.99889
197.66,16.00054,-0.07578587,0.92502,0.99848
198.36,16.02189,-0.07579018,0.92967,0.99808
199.06,16.04317,-0.07579,0.93264,0.99768
199.76,16.06448,-0.07578998,0.93239,0.99727
200.46,16.08587,-0.07579057,0.93389,0.99687
201.16,16.1073,-0.07582545,0.93725,0.99646
201.86,16.12868,-0.07709642,0.93953,0.99606
202.56,16.15,-0.0771106,0.94136,0.99565
203.26,16.1713,-0.07709144,0.94169,0.99525
203.96,16.19269,-0.07840707,0.94404,0.99484
204.66,16.21408,-0.0784198,0.94776,0.99444
205.36,16.23548,-0.07842001,0.94869,0.99403
206.06,16.25678,-0.07842,0.95038,0.99362
206.76,16.27809,-0.07842007,0.9514,0.99321
207.46,16.29935,-0.07841819,0.95471,0.99281
208.16,16.32069,-0.07916591,0.95714,0.9924
208.86,16.34199,-0.07974363,0.95704,0.99199
209.56,16.36328,-0.0797396,0.96025,0.99158
210.26,16.38456,-0.07975848,0.96353,0.99117
210.96,16.40578,-0.07843903,0.96501,0.99076
211.66,16.427,-0.07843898,0.96531,0.99035
212.36,16.4483,-0.07971792,0.97023,0.98994
213.06,16.46959,-0.08093574,0.97158,0.98953
213.76,16.49087,-0.08180216,0.9757,0.98912
214.46,16.51215,-0.08236806,0.97784,0.98871
215.16,16.53346,-0.08236846,0.9795,0.9883
215.86,16.5547,-0.08373239,0.98285,0.98789
216.56,16.5759,-0.08368899,0.98408,0.98748
217.26,16.59693,-0.08369038,0.98491,0.98706
217.96,16.61821,-0.08367234,0.98875,0.98665
218.66,16.63948,-0.08499066,0.99173,0.98624
219.36,16.66082,-0.08500291,0.99253,0.98583
220.06,16.6821,-0.08591816,0.99491,0.98541
220.76,16.7033,-0.08632817,0.99807,0.985
221.46,16.72454,-0.08711132,1.00069,0.98458
222.16,16.74573,-0.08854336,1.00115,0.98417
222.86,16.7669,-0.08895893,1.00424,0.98375
223.56,16.78819,-0.09005651,1.00508,0.98334
224.26,16.80935,-0.0902563,1.0095,0.98292
224.96,16.83052,-0.0915062,1.0104,0.98251
225.66,16.8517,-0.09159509,1.01221,0.98209
226.36,16.87274,-0.09252723,1.01602,0.98167
227.06,16.89401,-0.09291317,1.01868,0.98126
227.76,16.91524,-0.09379372,1.01977,0.98084
228.46,16.93656,-0.0942346,1.02295,0.98042
229.16,16.95779,-0.0955352,1.02331,0.98001
229.86,16.97888,-0.09626593,1.02696,0.97959
230.56,17.00006,-0.09728956,1.0294,0.97917
231.26,17.02123,-0.09865016,1.03067,0.97875
231.96,17.04243,-0.0986192,1.0336,0.97833
232.66,17.06361,-0.09969484,1.03465,0.97791
233.36,17.08478,-0.0999173,1.03811,0.97749
234.06,17.10596,-0.10144,1.03798,0.97707
234.76,17.12717,-0.10184,1.03832,0.97665
235.46,17.14837,-0.103,1.04079,0.97623
236.16,17.16951,-0.10399,1.04231,0.97581
236.86,17.19073,-0.10427,1.04577,0.97539
237.56,17.21184,-0.10673,1.04391,0.97497
238.26,17.23304,-0.10823,1.04656,0.97455
238.96,17.25416,-0.10871,1.04736,0.97413
239.66,17.2754,-0.11025,1.0505,0.9737
240.36,17.2965,-0.11161,1.05194,0.97328
241.06,17.3177,-0.11266,1.05307,0.97286
241.76,17.3389,-0.11375,1.05253,0.97244
242.46,17.3601,-0.11506,1.0576,0.97201
243.16,17.3812,-0.11672,1.05858,0.97159
243.86,17.40232,-0.11772,1.0599,0.97116
244.56,17.42336,-0.11823,1.06093,0.97074
245.26,17.44448,-0.11969,1.06371,0.97032
245.96,17.46559,-0.12075,1.0637,0.96989
246.66,17.48675,-0.12165,1.06869,0.96947
247.36,17.50786,-0.12274,1.06969,0.96904
248.06,17.52901,-0.12452,1.07103,0.96861
248.76,17.55016,-0.12601,1.07243,0.96819
249.46,17.5713,-0.12699,1.07625,0.96776
250.16,17.5924,-0.12827,1.07782,0.96733
250.86,17.61355,-0.12999,1.08182,0.96691
251.56,17.6346,-0.13137,1.0801,0.96648
252.26,17.65571,-0.13312,1.08364,0.96605
252.96,17.67679,-0.1344,1.08448,0.96563
253.66,17.69784,-0.13578,1.08852,0.9652
254.36,17.71902,-0.13736,1.08972,0.96477
255.06,17.74009,-0.13909,1.09052,0.96434
255.76,17.76119,-0.14118,1.09341,0.96391
256.46,17.78236,-0.14311,1.09576,0.96348
257.16,17.80349,-0.14473,1.09733,0.96305
257.86,17.82461,-0.14625,1.10474,0.96262
258.56,17.8458,-0.14808,1.1047,0.96219
259.26,17.86684,-0.15006,1.10514,0.96176
259.96,17.8879,-0.15192,1.1075,0.96133
260.66,17.90906,-0.15387,1.11077,0.9609
261.36,17.93013,-0.15533,1.11559,0.96047
262.06,17.95126,-0.15717,1.11654,0.96004
262.76,17.97227,-0.15954,1.11808,0.95961
263.46,17.9934,-0.16178,1.12119,0.95917
264.16,18.01453,-0.16359,1.12165,0.95874
264.86,18.03565,-0.16525,1.12633,0.95831
265.56,18.0567,-0.16765,1.12567,0.95788
266.26,18.07776,-0.17007,1.12913,0.95744
266.96,18.09882,-0.1721,1.13042,0.95701
267.66,18.1198,-0.17405,1.13579,0.95658
268.36,18.14077,-0.17647,1.13655,0.95614
269.06,18.16186,-0.18008,1.13726,0.95571
269.76,18.18299,-0.18259,1.13894,0.95527
270.46,18.2043,-0.1851,1.14124,0.95484
271.16,18.22544,-0.18837,1.1428,0.9544
271.86,18.24642,-0.1905,1.14474,0.95397
272.56,18.26746,-0.19292,1.14615,0.95353
273.26,18.28856,-0.19582,1.14671,0.9531
273.96,18.3098,-0.19835,1.15108,0.95266
274.66,18.3309,-0.2008,1.15456,0.95223
275.36,18.35204,-0.20365,1.15497,0.95179
276.06,18.37312,-0.20705,1.15588,0.95135
276.76,18.39426,-0.21036,1.1574,0.95092
277.46,18.41548,-0.21306,1.15808,0.95048
278.16,18.43674,-0.21658,1.1613,0.95004
278.86,18.45789,-0.22038,1.1616,0.9496
279.56,18.47905,-0.22312,1.16311,0.94916
280.26,18.50007,-0.22618,1.16496,0.94873
280.96,18.52115,-0.22952,1.16808,0.94829
281.66,18.54224,-0.23291,1.17,0.94785
282.36,18.56335,-0.23601,1.17147,0.94741
283.06,18.58451,-0.23896,1.17111,0.94697
283.76,18.60558,-0.24331,1.17361,0.94653
284.46,18.62675,-0.24846,1.17776,0.94609
285.16,18.64785,-0.2521,1.17789,0.94565
285.86,18.66903,-0.25547,1.17988,0.94521
286.56,18.6902,-0.2588,1.18161,0.94477
287.26,18.71132,-0.2622,1.18348,0.94433
287.96,18.73241,-0.26623,1.18309,0.94389
288.66,18.75356,-0.27022,1.18689,0.94344
289.36,18.77466,-0.27437,1.18952,0.943
290.06,18.79583,-0.27944,1.19224,0.94256
290.76,18.81696,-0.28487,1.19302,0.94212
291.46,18.8381,-0.28949,1.19707,0.94168
292.16,18.85925,-0.29405,1.19595,0.94123
292.86,18.88038,-0.29886,1.19964,0.94079
293.56,18.9015,-0.30242,1.204,0.94035
294.26,18.92269,-0.30756,1.20398,0.9399
294.96,18.94387,-0.31267,1.20556,0.93946
295.66,18.96503,-0.31838,1.20539,0.93902
296.36,18.98615,-0.32289,1.20861,0.93857
297.06,19.00731,-0.32908,1.20938,0.93813
297.76,19.02846,-0.33365,1.21306,0.93768
298.46,19.0496,-0.33893,1.21522,0.93724
299.16,19.0707,-0.34443,1.21632,0.93679
299.86,19.0918,-0.35021,1.21929,0.93635
300.56,19.11301,-0.35674,1.21732,0.9359
301.26,19.13416,-0.36068,1.22544,0.93546
301.96,19.1553,-0.36687,1.22523,0.93501
302.66,19.1764,-0.3726,1.22709,0.93456
303.36,19.19746,-0.37864,1.22962,0.93412
304.06,19.21862,-0.38556,1.23466,0.93367
304.76,19.23966,-0.39203,1.236,0.93322
305.46,19.26086,-0.39881,1.23768,0.93278
306.16,19.28208,-0.4046,1.24102,0.93233
306.86,19.3034,-0.41157,1.2432,0.93188
307.56,19.3246,-0.41831,1.24639,0.93143
308.26,19.34564,-0.4243,1.24993,0.93098
308.96,19.36681,-0.43222,1.25078,0.93054
309.66,19.38789,-0.43868,1.2562,0.93009
310.36,19.40907,-0.4462,1.25781,0.92964
311.06,19.43028,-0.45354,1.26428,0.92919
311.76,19.4515,-0.46126,1.26527,0.92874
312.46,19.47275,-0.4702,1.26991,0.92829
313.16,19.4939,-0.47747,1.27226,0.92784
313.86,19.51502,-0.48572,1.27732,0.92739
314.56,19.5362,-0.49277,1.28229,0.92694
315.26,19.5574,-0.50131,1.28465,0.92649
315.96,19.57856,-0.51011,1.29148,0.92604
316.66,19.59977,-0.51773,1.29368,0.92559
317.36,19.62102,-0.5274,1.30018,0.92513
318.06,19.6422,-0.53544,1.30456,0.92468
318.76,19.6634,-0.54433,1.31057,0.92423
319.46,19.68453,-0.55311,1.31493,0.92378
320.16,19.70561,-0.56121,1.32225,0.92333
320.86,19.7268,-0.57239,1.3266,0.92287
321.56,19.74802,-0.5812,1.33289,0.92242
322.26,19.76932,-0.59195,1.33825,0.92197
322.96,19.7908,-0.60186,1.34553,0.92152
323.66,19.812,-0.60987,1.35135,0.92106
324.36,19.83313,-0.62062,1.35759,0.92061
325.06,19.8543,-0.62946,1.3644,0.92015
325.76,19.87554,-0.64043,1.36976,0.9197
326.46,19.89684,-0.65067,1.37871,0.91925
327.16,19.9181,-0.66132,1.38322,0.91879
327.86,19.9394,-0.67325,1.39174,0.91834
328.56,19.96066,-0.68294,1.39809,0.91788
329.26,19.9819,-0.69499,1.40502,0.91743
329.96,20.00319,-0.70718,1.41253,0.91697
330.66,20.02448,-0.71835,1.41911,0.91652
331.36,20.04571,-0.73101,1.42756,0.91606
332.06,20.067,-0.74133,1.4332,0.9156
332.76,20.08827,-0.75401,1.4425,0.91515
333.46,20.10955,-0.76569,1.44947,0.91469
334.16,20.13081,-0.7784,1.4572,0.91423
334.86,20.15211,-0.79166,1.46551,0.91378
335.56,20.17341,-0.80273,1.47223,0.91332
336.26,20.1948,-0.81699,1.48224,0.91286
336.96,20.2161,-0.82934,1.4871,0.91241
337.66,20.23742,-0.84244,1.49531,0.91195
338.36,20.25862,-0.8571,1.50452,0.91149
339.06,20.27979,-0.86967,1.51182,0.91103
339.76,20.30105,-0.88508,1.51838,0.91057
340.46,20.32245,-0.89814,1.52821,0.91011
341.16,20.34401,-0.91346,1.53684,0.90966
341.86,20.3654,-0.92869,1.54568,0.9092
342.56,20.3868,-0.94184,1.55581,0.90874
343.26,20.40812,-0.95817,1.56383,0.90828
343.96,20.42953,-0.97242,1.57065,0.90782
344.66,20.4509,-0.98718,1.58078,0.90736
345.36,20.4723,-1.00363,1.58708,0.9069
346.06,20.49359,-1.01655,1.59543,0.90644
346.76,20.51501,-1.03376,1.60621,0.90598
347.46,20.53637,-1.04848,1.61625,0.90552
348.16,20.55774,-1.0639,1.62307,0.90506
348.86,20.57915,-1.08235,1.63406,0.90459
349.56,20.60057,-1.09768,1.6423,0.90413
350.26,20.62195,-1.11637,1.65042,0.90367
350.96,20.64337,-1.13319,1.66133,0.90321
351.66,20.66481,-1.14823,1.67242,0.90275
352.36,20.68619,-1.16676,1.68392,0.90229
353.06,20.7077,-1.18279,1.69458,0.90182
353.76,20.72915,-1.20268,1.70167,0.90136
354.46,20.7506,-1.22122,1.71321,0.9009
355.16,20.77202,-1.23954,1.72283,0.90044
355.86,20.7935,-1.2603,1.73513,0.89997
356.56,20.81482,-1.27737,1.74733,0.89951
357.26,20.83628,-1.29763,1.75805,0.89904
357.96,20.85776,-1.31747,1.7706,0.89858
358.66,20.8793,-1.33518,1.78111,0.89812
359.36,20.90083,-1.35683,1.7949,0.89765
360.06,20.92235,-1.37557,1.80571,0.89719
360.76,20.94373,-1.39659,1.81626,0.89672
361.46,20.9651,-1.41822,1.82946,0.89626
362.16,20.98658,-1.43681,1.83912,0.89579
362.86,21.00817,-1.45966,1.85272,0.89533
363.56,21.0299,-1.48041,1.86615,0.89486
364.26,21.05145,-1.50173,1.87673,0.8944
364.96,21.07294,-1.52554,1.89,0.89393
365.66,21.0945,-1.54565,1.90133,0.89347
366.36,21.116,-1.57021,1.91316,0.893
367.06,21.1375,-1.59353,1.92514,0.89253
367.76,21.15907,-1.61504,1.93595,0.89207
368.46,21.18064,-1.63985,1.94755,0.8916
369.16,21.20224,-1.66054,1.95637,0.89113
369.86,21.22381,-1.68407,1.96752,0.89067
370.56,21.2454,-1.70982,1.97431,0.8902
371.26,21.2669,-1.73158,1.98223,0.88973
371.96,21.2885,-1.75773,1.9913,0.88926
372.66,21.31007,-1.78146,1.9963,0.8888
373.36,21.33161,-1.80543,2.00518,0.88833
374.06,21.3532,-1.83233,2.00655,0.88786
374.76,21.37484,-1.85438,2.00904,0.88739
375.46,21.39641,-1.88009,2.01011,0.88692
376.16,21.4181,-1.90535,2.01005,0.88645
376.86,21.43968,-1.92782,2.00719,0.88598
377.56,21.46132,-1.95496,2.00499,0.88551
378.26,21.48289,-1.97839,1.99725,0.88504
378.96,21.50451,-2.00322,1.98749,0.88458
379.66,21.52611,-2.03005,1.97686,0.88411
380.36,21.5477,-2.05166,1.96014,0.88364
381.06,21.56927,-2.07683,1.94322,0.88316
381.76,21.59075,-2.10065,1.92534,0.88269
382.46,21.6124,-2.12253,1.89867,0.88222
383.16,21.63409,-2.14803,1.87348,0.88175
383.86,21.65587,-2.16945,1.84553,0.88128
384.56,21.6775,-2.1919,1.80885,0.88081
385.26,21.69903,-2.21458,1.77266,0.88034
385.96,21.72063,-2.23321,1.73006,0.87987
386.66,21.74227,-2.25541,1.68472,0.8794
387.36,21.76393,-2.27588,1.63498,0.87892
388.06,21.78562,-2.29461,1.58735,0.87845
388.76,21.80728,-2.31627,1.53321,0.87798
389.46,21.82894,-2.3322,1.47445,0.87751
390.16,21.85061,-2.34888,1.4133,0.87703
390.86,21.87218,-2.36554,1.35144,0.87656
391.56,21.89376,-2.3785,1.28964,0.87609
392.26,21.91531,-2.39323,1.22634,0.87562
392.96,21.93698,-2.40474,1.16066,0.87514
393.66,21.95863,-2.41635,1.09597,0.87467
394.36,21.98028,-2.4287,1.03182,0.8742
395.06,22.00186,-2.43817,0.9671,0.87372
395.76,22.02339,-2.44798,0.90667,0.87325
396.46,22.04495,-2.45611,0.84974,0.87277
397.16,22.06652,-2.46306,0.79715,0.8723
397.86,22.08815,-2.47099,0.74746,0.87182
398.56,22.10979,-2.47807,0.6999,0.87135
399.26,22.1314,-2.4832,0.65748,0.87087
399.96,22.15314,-2.48841,0.61579,0.8704
400.66,22.1748,-2.49215,0.57868,0.86992
401.36,22.1965,-2.49687,0.54551,0.86945
402.06,22.21814,-2.50011,0.51803,0.86897
402.76,22.2397,-2.50291,0.49135,0.8685
403.46,22.26135,-2.50571,0.47109,0.86802
404.16,22.28295,-2.50914,0.44823,0.86754
404.86,22.3046,-2.51259,0.42976,0.86707
405.56,22.32637,-2.51538,0.41584,0.86659
406.26,22.34804,-2.51766,0.4016,0.86611
406.96,22.36971,-2.5197,0.38811,0.86564
407.66,22.3914,-2.52187,0.37534,0.86516
408.36,22.41305,-2.52463,0.36505,0.86468
409.06,22.43477,-2.52561,0.35692,0.86421
409.76,22.45645,-2.52703,0.3499,0.86373
410.46,22.47806,-2.52872,0.33851,0.86325
411.16,22.49986,-2.53078,0.33159,0.86277
411.86,22.52166,-2.53259,0.32577,0.86229
412.56,22.5436,-2.53436,0.31987,0.86182
413.26,22.56533,-2.536,0.31321,0.86134
413.96,22.58705,-2.53783,0.30943,0.86086
414.66,22.60885,-2.53973,0.30514,0.86038
415.36,22.6307,-2.54226,0.29967,0.8599
416.06,22.65247,-2.54395,0.2926,0.85942
416.76,22.67425,-2.54648,0.29015,0.85894
417.46,22.69599,-2.54782,0.28693,0.85846
418.16,22.71779,-2.54952,0.28429,0.85798
418.86,22.73963,-2.55092,0.27899,0.8575
419.56,22.7614,-2.55258,0.27728,0.85702
420.26,22.78331,-2.55512,0.2708,0.85654
420.96,22.80518,-2.55801,0.27177,0.85606
421.66,22.82709,-2.56,0.2664,0.85558
422.36,22.8489,-2.56143,0.2644,0.8551
423.06,22.87077,-2.56326,0.26093,0.85462
423.76,22.8926,-2.5646,0.2611,0.85414
424.46,22.91452,-2.5661,0.25569,0.85366
425.16,22.9364,-2.5676,0.25449,0.85318
425.86,22.95836,-2.56961,0.25345,0.8527
426.56,22.98028,-2.57132,0.25088,0.85221
427.26,23.00219,-2.57309,0.25126,0.85173
427.96,23.0241,-2.57594,0.24788,0.85125
428.66,23.046,-2.57767,0.24576,0.85077
429.36,23.06788,-2.57923,0.24455,0.85029
430.06,23.08973,-2.58074,0.24366,0.8498
430.76,23.1116,-2.58271,0.24115,0.84932
431.46,23.13355,-2.58465,0.24355,0.84884
432.16,23.15551,-2.5865,0.2405,0.84835
432.86,23.17748,-2.58843,0.23966,0.84787
433.56,23.19943,-2.59021,0.23949,0.84739
434.26,23.22137,-2.59117,0.23711,0.8469
434.96,23.24332,-2.59252,0.23923,0.84642
435.66,23.26523,-2.59384,0.23913,0.84594
436.36,23.28718,-2.59482,0.23968,0.84545
437.06,23.30915,-2.59708,0.2385,0.84497
437.76,23.3311,-2.59862,0.23902,0.84448
438.46,23.35311,-2.60022,0.23814,0.844
439.16,23.37507,-2.60163,0.24003,0.84352
439.86,23.39705,-2.60339,0.23969,0.84303
440.56,23.41906,-2.6057,0.24115,0.84255
441.26,23.44104,-2.60828,0.24197,0.84206
441.96,23.4631,-2.6106,0.24316,0.84158
442.66,23.48517,-2.6122,0.24393,0.84109
443.36,23.50723,-2.61486,0.24413,0.8406
444.06,23.52925,-2.61673,0.24652,0.84012
444.76,23.55126,-2.61815,0.24921,0.83963
445.46,23.57325,-2.61995,0.24928,0.83915
446.16,23.59532,-2.62152,0.25271,0.83866
446.86,23.61737,-2.62267,0.25213,0.83817
447.56,23.63944,-2.62425,0.25437,0.83769
448.26,23.66153,-2.62653,0.25592,0.8372
448.96,23.68361,-2.62888,0.25828,0.83671
449.66,23.70571,-2.63027,0.26027,0.83623
450.36,23.72781,-2.63128,0.26462,0.83574
451.06,23.74981,-2.63266,0.26407,0.83525
451.76,23.7719,-2.6343,0.26729,0.83477
452.46,23.79391,-2.63609,0.27052,0.83428
453.16,23.81607,-2.63794,0.27386,0.83379
453.86,23.83809,-2.63965,0.27549,0.8333
454.56,23.86018,-2.64114,0.27464,0.83281
455.26,23.88233,-2.64174,0.28007,0.83233
455.96,23.90449,-2.6433,0.2829,0.83184
456.66,23.92657,-2.64507,0.2852,0.83135
457.36,23.9485,-2.64674,0.28982,0.83086
458.06,23.97052,-2.64848,0.29195,0.83037
458.76,23.9926,-2.65002,0.29293,0.82988
459.46,24.01505,-2.65188,0.29642,0.82939
460.16,24.03742,-2.65369,0.29892,0.8289
460.86,24.0597,-2.65538,0.30221,0.82842
461.56,24.082,-2.65701,0.30224,0.82793
462.26,24.10418,-2.65888,0.30516,0.82744
462.96,24.1264,-2.65998,0.30839,0.82695
463.66,24.14855,-2.66113,0.3103,0.82646
464.36,24.17077,-2.66287,0.31277,0.82597
465.06,24.19294,-2.66471,0.31323,0.82548
465.76,24.21516,-2.66614,0.3185,0.82499
466.46,24.2374,-2.66774,0.32038,0.82449
467.16,24.2596,-2.66926,0.32257,0.824
467.86,24.28183,-2.66955,0.32573,0.82351
468.56,24.30398,-2.67052,0.32734,0.82302
469.26,24.32616,-2.67171,0.32991,0.82253
469.96,24.34842,-2.67344,0.33112,0.82204
470.66,24.37077,-2.67517,0.33103,0.82155
471.36,24.3931,-2.67764,0.33177,0.82106
472.06,24.41524,-2.6792,0.3339,0.82056
472.76,24.4375,-2.68167,0.33517,0.82007
473.46,24.45982,-2.68268,0.33614,0.81958
474.16,24.4821,-2.68363,0.34083,0.81909
474.86,24.50433,-2.68523,0.33965,0.8186
475.56,24.52661,-2.68698,0.34324,0.8181
476.26,24.54887,-2.68895,0.34381,0.81761
476.96,24.57116,-2.69028,0.34378,0.81712
477.66,24.5934,-2.69049,0.34728,0.81663
478.36,24.61569,-2.69198,0.34583,0.81613
479.06,24.63805,-2.69363,0.3499,0.81564
479.76,24.6604,-2.69513,0.3501,0.81515
480.46,24.68273,-2.69528,0.35299,0.81465
481.16,24.70501,-2.69658,0.35247,0.81416
481.86,24.72727,-2.69826,0.35248,0.81366
482.56,24.7496,-2.70013,0.35247,0.81317
483.26,24.77188,-2.70106,0.35191,0.81268
483.96,24.79419,-2.70173,0.35234,0.81218
484.66,24.81655,-2.70327,0.35255,0.81169
485.36,24.83888,-2.70488,0.3541,0.81119
486.06,24.86135,-2.70532,0.35117,0.8107
486.76,24.88372,-2.70619,0.35421,0.8102
487.46,24.90608,-2.70757,0.35335,0.80971
488.16,24.92844,-2.70772,0.35187,0.80921
488.86,24.9507,-2.70897,0.35468,0.80872
489.56,24.9728,-2.71092,0.35104,0.80822
490.26,24.99523,-2.71274,0.34896,0.80773
490.96,25.0178,-2.71417,0.34507,0.80723
491.66,25.04034,-2.71655,0.34807,0.80674
492.36,25.0627,-2.71802,0.34628,0.80624
493.06,25.08496,-2.71931,0.34646,0.80574
493.76,25.1073,-2.72065,0.34405,0.80525
494.46,25.12967,-2.72167,0.34345,0.80475
495.16,25.15211,-2.72197,0.34527,0.80426
495.86,25.1745,-2.72197,0.34102,0.80376
496.56,25.19691,-2.72167,0.33817,0.80326
497.26,25.21937,-2.72238,0.33849,0.80277
497.96,25.2418,-2.72383,0.33576,0.80227
498.66,25.26415,-2.72465,0.33451,0.80177
499.36,25.28651,-2.72537,0.33687,0.80127
500.06,25.30894,-2.72692,0.33166,0.80078
500.76,25.3313,-2.7281,0.3326,0.80028
501.46,25.3538,-2.72955,0.33067,0.79978
502.16,25.37633,-2.73025,0.33041,0.79928
502.86,25.39881,-2.73141,0.32689,0.79879
503.56,25.42122,-2.73274,0.32329,0.79829
504.26,25.44363,-2.73426,0.32292,0.79779
504.96,25.46606,-2.73599,0.32189,0.79729
505.66,25.48851,-2.73742,0.31881,0.79679
506.36,25.51099,-2.73792,0.31866,0.79629
507.06,25.53351,-2.73908,0.31356,0.7958
507.76,25.55592,-2.73904,0.31379,0.7953
508.46,25.57838,-2.74043,0.3114,0.7948
509.16,25.60083,-2.7404,0.30828,0.7943
509.86,25.62324,-2.74144,0.30436,0.7938
510.56,25.64563,-2.74195,0.30396,0.7933
511.26,25.668,-2.74323,0.30383,0.7928
511.96,25.6904,-2.74484,0.30133,0.7923
512.66,25.7127,-2.74476,0.30009,0.7918
513.36,25.73518,-2.7462,0.29794,0.7913
514.06,25.75769,-2.74704,0.29526,0.7908
514.76,25.78035,-2.74774,0.29636,0.7903
515.46,25.80285,-2.74897,0.29283,0.7898
516.16,25.8253,-2.74918,0.29225,0.7893
516.86,25.84787,-2.75058,0.29036,0.7888
517.56,25.87034,-2.75109,0.28838,0.7883
518.26,25.89284,-2.75235,0.284,0.7878
518.96,25.91524,-2.75325,0.28493,0.7873
519.66,25.93775,-2.75367,0.28591,0.78679
520.36,25.9603,-2.75368,0.28078,0.78629
521.06,25.9829,-2.75497,0.28054,0.78579
521.76,26.00535,-2.75496,0.27894,0.78529
522.46,26.0278,-2.75631,0.27541,0.78479
523.16,26.05026,-2.7563,0.27405,0.78429
523.86,26.07283,-2.75659,0.27262,0.78379
524.56,26.0954,-2.75762,0.27067,0.78328
525.26,26.11799,-2.75897,0.26988,0.78278
525.96,26.1405,-2.76017,0.26725,0.78228
526.66,26.16311,-2.76145,0.26477,0.78178
527.36,26.1856,-2.76145,0.26243,0.78127
528.06,26.2081,-2.76278,0.26156,0.78077
528.76,26.2306,-2.76291,0.26047,0.78027
529.46,26.25318,-2.76409,0.25606,0.77977
530.16,26.27572,-2.76416,0.255,0.77926
530.86,26.2983,-2.76554,0.25629,0.77876
531.56,26.3209,-2.76557,0.25389,0.77826
532.26,26.3435,-2.76682,0.25514,0.77775
532.96,26.36607,-2.76682,0.25148,0.77725
533.66,26.38865,-2.76817,0.24896,0.77675
534.36,26.41122,-2.76813,0.24738,0.77624
535.06,26.4338,-2.76948,0.24343,0.77574
535.76,26.4564,-2.76946,0.24471,0.77523
536.46,26.479,-2.7691,0.24247,0.77473
537.16,26.50163,-2.76946,0.23942,0.77423
537.86,26.5242,-2.77022,0.2364,0.77372
538.56,26.5469,-2.77078,0.23516,0.77322
539.26,26.56952,-2.77183,0.23452,0.77271
539.96,26.59207,-2.77216,0.2323,0.77221
540.66,26.6146,-2.77371,0.23087,0.7717
541.36,26.6372,-2.77475,0.22889,0.7712
542.06,26.65987,-2.77594,0.22746,0.77069
542.76,26.6824,-2.77594,0.22569,0.77019
543.46,26.7051,-2.7759,0.22399,0.76968
544.16,26.72765,-2.77724,0.22236,0.76918
544.86,26.7503,-2.77737,0.22003,0.76867
545.56,26.77297,-2.77857,0.21891,0.76817
546.26,26.79556,-2.77854,0.21676,0.76766
546.96,26.81802,-2.77992,0.21476,0.76715
547.66,26.8406,-2.77992,0.21527,0.76665
548.36,26.8632,-2.78119,0.21319,0.76614
549.06,26.886,-2.7812,0.21447,0.76563
549.76,26.90877,-2.78212,0.21658,0.76513
550.46,26.9315,-2.78253,0.2162,0.76462
551.16,26.9542,-2.78409,0.21671,0.76412
551.86,26.97689,-2.78404,0.21778,0.76361
552.56,26.99955,-2.78466,0.21723,0.7631
553.26,27.0222,-2.78569,0.21781,0.76259
553.96,27.0449,-2.7857,0.21745,0.76209
554.66,27.0676,-2.78611,0.21878,0.76158
555.36,27.09024,-2.78701,0.21956,0.76107
556.06,27.11293,-2.78792,0.21956,0.76057
556.76,27.1356,-2.78964,0.22303,0.76006
557.46,27.1583,-2.78964,0.22427,0.75955
558.16,27.1809,-2.78964,0.22797,0.75904
558.86,27.20362,-2.78965,0.22923,0.75853
559.56,27.2263,-2.79094,0.2313,0.75803
560.26,27.24897,-2.78981,0.23221,0.75752
560.96,27.2717,-2.7901,0.23275,0.75701
561.66,27.2943,-2.79096,0.23145,0.7565
562.36,27.31695,-2.79097,0.23119,0.75599
563.06,27.33962,-2.79226,0.23292,0.75548
563.76,27.36225,-2.79228,0.2349,0.75498
564.46,27.38508,-2.79274,0.23381,0.75447
565.16,27.40783,-2.7936,0.23507,0.75396
565.86,27.4306,-2.79361,0.23554,0.75345
566.56,27.4533,-2.79458,0.23701,0.75294
567.26,27.47608,-2.79491,0.23667,0.75243
567.96,27.4988,-2.79542,0.23417,0.75192
568.66,27.52157,-2.79623,0.24159,0.75141
569.36,27.5443,-2.79624,0.2381,0.7509
570.06,27.5669,-2.79756,0.23776,0.75039
570.76,27.5896,-2.79807,0.23691,0.74988
571.46,27.61226,-2.79955,0.23551,0.74937
572.16,27.6351,-2.79963,0.23663,0.74886
572.86,27.6579,-2.80042,0.23542,0.74835
573.56,27.6806,-2.80095,0.23583,0.74784
574.26,27.7033,-2.802,0.23403,0.74733
574.96,27.72608,-2.80226,0.23616,0.74682
575.66,27.74885,-2.80226,0.2323,0.74631
576.36,27.7717,-2.80227,0.23321,0.7458
577.06,27.7945,-2.80362,0.23287,0.74529
577.76,27.81724,-2.80359,0.23148,0.74478
578.46,27.84007,-2.8049,0.23296,0.74427
579.16,27.8629,-2.8049,0.23041,0.74375
579.86,27.8857,-2.8049,0.22686,0.74324
580.56,27.90853,-2.8049,0.22493,0.74273
581.26,27.93133,-2.8049,0.22518,0.74222
581.96,27.95413,-2.8053,0.22531,0.74171
582.66,27.97689,-2.80621,0.22198,0.7412
583.36,27.99973,-2.80621,0.22024,0.74069
584.06,28.0225,-2.80738,0.21725,0.74017
584.76,28.0453,-2.80753,0.21694,0.73966
585.46,28.0681,-2.80837,0.21765,0.73915
586.16,28.0909,-2.80885,0.21595,0.73864
586.86,28.11382,-2.80885,0.21014,0.73812
587.56,28.13663,-2.80989,0.2105,0.73761
588.26,28.15948,-2.81016,0.20975,0.7371
588.96,28.18238,-2.81033,0.20891,0.73659
589.66,28.2052,-2.81147,0.20679,0.73607
590.36,28.22809,-2.81148,0.20614,0.73556
591.06,28.2509,-2.81146,0.202,0.73505
591.76,28.2737,-2.8128,0.20123,0.73453
592.46,28.29658,-2.81279,0.19872,0.73402
593.16,28.3195,-2.81279,0.19616,0.73351
593.86,28.3424,-2.81285,0.19787,0.73299
594.56,28.3652,-2.81465,0.19727,0.73248
595.26,28.3881,-2.81474,0.19561,0.73197
595.96,28.41093,-2.81612,0.19177,0.73145
596.66,28.43385,-2.81608,0.19247,0.73094
597.36,28.45666,-2.81634,0.19169,0.73043
598.06,28.47955,-2.81739,0.18797,0.72991
598.76,28.50245,-2.8174,0.18956,0.7294
599.46,28.52539,-2.81863,0.1888,0.72888
600.16,28.54825,-2.81919,0.18649,0.72837
600.86,28.57115,-2.82003,0.18361,0.72786
601.56,28.59402,-2.82108,0.18357,0.72734
602.26,28.617,-2.82134,0.18105,0.72683
602.96,28.63985,-2.82133,0.18185,0.72631
603.66,28.66279,-2.82114,0.18039,0.7258
604.36,28.6857,-2.82101,0.17965,0.72528
605.06,28.70862,-2.82101,0.18367,0.72477
605.76,28.7315,-2.82126,0.1795,0.72425
606.46,28.75447,-2.82134,0.18062,0.72374
607.16,28.77735,-2.82247,0.18076,0.72322
607.86,28.8003,-2.82266,0.18095,0.72271
608.56,28.82317,-2.82369,0.17932,0.72219
609.26,28.84618,-2.82397,0.18115,0.72167
609.96,28.8691,-2.82397,0.18036,0.72116
610.66,28.89191,-2.82419,0.17786,0.72064
611.36,28.9148,-2.82529,0.17355,0.72013
612.06,28.93778,-2.82529,0.17522,0.71961
612.76,28.9608,-2.82531,0.17645,0.7191
613.46,28.98368,-2.82675,0.17376,0.71858
614.16,29.00661,-2.82672,0.17022,0.71806
614.86,29.0296,-2.8268,0.1709,0.71755
615.56,29.0527,-2.82768,0.17241,0.71703
616.26,29.07572,-2.82803,0.1742,0.71651
616.96,29.09865,-2.82803,0.17167,0.716
617.66,29.1216,-2.82889,0.16971,0.71548
618.36,29.1446,-2.82935,0.16958,0.71496
619.06,29.1677,-2.82935,0.17003,0.71445
619.76,29.19074,-2.83047,0.16974,0.71393
620.46,29.2137,-2.83066,0.16741,0.71341
621.16,29.23665,-2.83066,0.16973,0.71289
621.86,29.2596,-2.83126,0.16982,0.71238
622.56,29.28255,-2.83198,0.16711,0.71186
623.26,29.30555,-2.83198,0.16852,0.71134
623.96,29.3285,-2.83198,0.16779,0.71082
624.66,29.35158,-2.83218,0.16731,0.71031
625.36,29.3746,-2.8333,0.1667,0.70979
626.06,29.3976,-2.8333,0.17046,0.70927
626.76,29.42056,-2.8333,0.16585,0.70875
627.46,29.4436,-2.83451,0.16749,0.70824
628.16,29.4666,-2.83461,0.16395,0.70772
628.86,29.48963,-2.83461,0.16737,0.7072
629.56,29.5127,-2.83554,0.16478,0.70668
630.26,29.5357,-2.83593,0.16726,0.70616
630.96,29.55872,-2.83593,0.16588,0.70564
631.66,29.58172,-2.83594,0.16641,0.70513
632.36,29.60469,-2.83712,0.16555,0.70461
633.06,29.62775,-2.83725,0.16407,0.70409
633.76,29.65083,-2.83725,0.16762,0.70357
634.46,29.6739,-2.83828,0.16767,0.70305
635.16,29.69697,-2.83856,0.16677,0.70253
635.86,29.72,-2.83856,0.16769,0.70201
636.56,29.7431,-2.83851,0.16935,0.70149
637.26,29.76613,-2.83989,0.1711,0.70097
637.96,29.7892,-2.83988,0.1667,0.70045
638.66,29.81216,-2.84012,0.1714,0.69993
639.36,29.83519,-2.84119,0.17127,0.69942
640.06,29.8582,-2.84122,0.17338,0.6989
640.76,29.88128,-2.84123,0.17301,0.69838
641.46,29.9044,-2.8412,0.16995,0.69786
642.16,29.9274,-2.84124,0.17791,0.69734
642.86,29.9504,-2.84251,0.17768,0.69682
643.56,29.9734,-2.84252,0.18041,0.6963
644.26,29.9965,-2.84247,0.183,0.69578
644.96,30.01957,-2.84384,0.18675,0.69526
645.66,30.0426,-2.84377,0.18863,0.69474
646.36,30.0657,-2.84449,0.19074,0.69422
647.06,30.08884,-2.84464,0.19539,0.69369
647.76,30.11198,-2.8458,0.19878,0.69317
648.46,30.135,-2.84585,0.20229,0.69265
649.16,30.1581,-2.84714,0.20519,0.69213
649.86,30.1811,-2.84605,0.20803,0.69161
650.56,30.2043,-2.84596,0.21029,0.69109
651.26,30.2274,-2.84712,0.21776,0.69057
651.96,30.2505,-2.84712,0.21714,0.69005
652.66,30.2735,-2.8478,0.22707,0.68953
653.36,30.2966,-2.84851,0.22875,0.68901
654.06,30.3197,-2.85009,0.23413,0.68849
654.76,30.3428,-2.85006,0.23923,0.68796
655.46,30.3659,-2.85138,0.24006,0.68744
656.16,30.38901,-2.8514,0.2453,0.68692
656.86,30.4121,-2.85191,0.25053,0.6864
657.56,30.4352,-2.85272,0.25657,0.68588
658.26,30.45836,-2.85272,0.25934,0.68536
658.96,30.48146,-2.8527,0.2673,0.68483
659.66,30.5046,-2.85406,0.26948,0.68431
660.36,30.52774,-2.85403,0.27435,0.68379
661.06,30.55087,-2.85439,0.28075,0.68327
661.76,30.574,-2.85535,0.28157,0.68275
662.46,30.5971,-2.85548,0.28928,0.68222
663.16,30.62022,-2.85666,0.29653,0.6817
663.86,30.6433,-2.85666,0.29973,0.68118
664.56,30.66634,-2.85666,0.30635,0.68066
665.26,30.6894,-2.85918,0.31279,0.68013
665.96,30.71257,-2.8593,0.31722,0.67961
666.66,30.7358,-2.85987,0.32471,0.67909
667.36,30.759,-2.86062,0.33262,0.67857
668.06,30.7821,-2.86153,0.34125,0.67804
668.76,30.8053,-2.86194,0.34471,0.67752
669.46,30.8285,-2.86309,0.35337,0.677
670.16,30.85162,-2.86206,0.36071,0.67648
670.86,30.87477,-2.86349,0.3674,0.67595
671.56,30.8979,-2.86424,0.37647,0.67543
672.26,30.9211,-2.8649,0.38783,0.67491
672.96,30.9442,-2.86603,0.39481,0.67438
673.66,30.96733,-2.86621,0.40325,0.67386
674.36,30.9905,-2.86842,0.41561,0.67334
675.06,31.01363,-2.86884,0.42163,0.67281
675.76,31.03677,-2.86996,0.43376,0.67229
676.46,31.05995,-2.87027,0.44506,0.67176
677.16,31.08315,-2.87182,0.4576,0.67124
677.86,31.10636,-2.87211,0.46982,0.67072
678.56,31.12952,-2.87321,0.48042,0.67019
679.26,31.15265,-2.87394,0.49495,0.66967
679.96,31.1757,-2.87352,0.5039,0.66915
680.66,31.19887,-2.87489,0.51818,0.66862
681.36,31.22196,-2.87492,0.53061,0.6681
682.06,31.24515,-2.87631,0.543,0.66757
682.76,31.2683,-2.87721,0.55538,0.66705
683.46,31.29148,-2.87779,0.5712,0.66652
684.16,31.31467,-2.87899,0.58228,0.666
684.86,31.33795,-2.87944,0.59741,0.66548
685.56,31.36122,-2.88049,0.60971,0.66495
686.26,31.38441,-2.88223,0.62501,0.66443
686.96,31.4076,-2.884,0.63998,0.6639
687.66,31.4308,-2.88543,0.65624,0.66338
688.36,31.454,-2.88546,0.67045,0.66285
689.06,31.47717,-2.8862,0.68519,0.66233
689.76,31.5004,-2.88749,0.70107,0.6618
690.46,31.52362,-2.88895,0.71264,0.66128
691.16,31.54669,-2.89022,0.7311,0.66075
691.86,31.56972,-2.89175,0.75065,0.66023
692.56,31.59289,-2.89296,0.76282,0.6597
693.26,31.61635,-2.89484,0.77753,0.65918
693.96,31.63982,-2.89648,0.7968,0.65865
694.66,31.6631,-2.89685,0.8167,0.65813
695.36,31.68614,-2.89773,0.83546,0.6576
696.06,31.70931,-2.89844,0.84904,0.65708
696.76,31.73253,-2.90025,0.86399,0.65655
697.46,31.75585,-2.90274,0.88328,0.65602
698.16,31.7791,-2.90456,0.89778,0.6555
698.86,31.80225,-2.90621,0.91439,0.65497
699.56,31.8255,-2.90775,0.93552,0.65445
700.26,31.8488,-2.90908,0.95053,0.65392
700.96,31.87208,-2.91095,0.96794,0.6534
701.66,31.89532,-2.9126,0.98402,0.65287
702.36,31.91856,-2.91329,1.00009,0.65234
703.06,31.9418,-2.91509,1.02146,0.65182
703.76,31.965,-2.91639,1.03909,0.65129
704.46,31.9881,-2.91759,1.05728,0.65076
705.16,32.01125,-2.91953,1.07107,0.65024
705.86,32.03434,-2.92171,1.08984,0.64971
706.56,32.05769,-2.92344,1.10458,0.64919
707.26,32.08104,-2.92449,1.12206,0.64866
707.96,32.10454,-2.92537,1.13836,0.64813
708.66,32.12781,-2.92704,1.14919,0.64761
709.36,32.1511,-2.92943,1.16725,0.64708
710.06,32.17436,-2.93198,1.18246,0.64655
710.76,32.19761,-2.93374,1.19722,0.64603
711.46,32.22085,-2.93558,1.21183,0.6455
712.16,32.24412,-2.93737,1.22583,0.64497
712.86,32.2674,-2.93916,1.24079,0.64445
713.56,32.2906,-2.94154,1.25515,0.64392
714.26,32.31385,-2.94332,1.26783,0.64339
714.96,32.33713,-2.94499,1.28004,0.64287
715.66,32.36047,-2.94672,1.29093,0.64234
716.36,32.38381,-2.94845,1.30305,0.64181
717.06,32.4071,-2.95035,1.31447,0.64128
717.76,32.4304,-2.95261,1.32698,0.64076
718.46,32.45377,-2.95504,1.33357,0.64023
719.16,32.47705,-2.95548,1.3386,0.6397
719.86,32.50038,-2.95732,1.34765,0.63918
720.56,32.52362,-2.95974,1.35129,0.63865
721.26,32.54695,-2.96198,1.35627,0.63812
721.96,32.57026,-2.96509,1.36076,0.63759
722.66,32.59356,-2.96701,1.36147,0.63707
723.36,32.61678,-2.96909,1.36438,0.63654
724.06,32.64004,-2.97151,1.36403,0.63601
724.76,32.66316,-2.97413,1.36471,0.63548
725.46,32.68636,-2.97616,1.36698,0.63495
726.16,32.70968,-2.97873,1.3623,0.63443
726.86,32.7331,-2.98047,1.35973,0.6339
727.56,32.75654,-2.9825,1.35724,0.63337
728.26,32.77982,-2.98465,1.35424,0.63284
728.96,32.80316,-2.98618,1.35301,0.63232
729.66,32.82642,-2.98805,1.34708,0.63179
730.36,32.8497,-2.98876,1.34365,0.63126
731.06,32.87298,-2.99091,1.33984,0.63073
731.76,32.89633,-2.99303,1.33559,0.6302
732.46,32.91962,-2.99549,1.32871,0.62968
733.16,32.94292,-2.99789,1.3239,0.62915
733.86,32.96617,-3.00039,1.31438,0.62862
734.56,32.98949,-3.00232,1.3033,0.62809
735.26,33.01276,-3.00411,1.28787,0.62756
735.96,33.03605,-3.00637,1.27282,0.62703
736.66,33.05936,-3.00831,1.25049,0.62651
737.36,33.0827,-3.01001,1.22589,0.62598
738.06,33.1059,-3.01205,1.19622,0.62545
738.76,33.12914,-3.01383,1.15789,0.62492
739.46,33.15234,-3.01561,1.11071,0.62439
740.16,33.17561,-3.01735,1.05393,0.62386
740.86,33.19891,-3.01888,0.98492,0.62333
741.56,33.22217,-3.02088,0.89688,0.62281
742.26,33.2455,-3.02243,0.78787,0.62228
742.96,33.26875,-3.02369,0.64997,0.62175
743.66,33.29206,-3.02451,0.51395,0.62122
744.36,33.31534,-3.02563,0.39487,0.62069
745.06,33.3386,-3.02713,0.30307,0.62016
745.76,33.36189,-3.02712,0.2309,0.61963
746.46,33.38515,-3.02707,0.17374,0.6191
747.16,33.40838,-3.02842,0.13029,0.61858
747.86,33.4316,-3.02843,0.09843481,0.61805
748.56,33.45482,-3.02843,0.07377978,0.61752
749.26,33.47801,-3.02923,0.05190615,0.61699
749.96,33.50124,-3.02975,0.03501178,0.61646
750.66,33.52447,-3.02957,0.02718576,0.61593
751.36,33.54784,-3.03074,0.01230623,0.6154
752.06,33.5711,-3.03058,0.00398706,0.61487
752.76,33.5943,-3.02975,-0.00344446,0.61434
753.46,33.61737,-3.02975,-0.009503358,0.61381
754.16,33.6406,-3.02975,-0.01405979,0.61328
754.86,33.664,-3.02975,-0.01677011,0.61275
755.56,33.68741,-3.02975,-0.01557212,0.61223
756.26,33.7106,-3.02976,-0.02039575,0.6117
756.96,33.7339,-3.0312,-0.0226356,0.61117
757.66,33.75721,-3.03117,-0.02995424,0.61064
758.36,33.78058,-3.03121,-0.02962064,0.61011
759.06,33.804,-3.03212,-0.03346774,0.60958
759.76,33.82718,-3.03249,-0.03318929,0.60905
760.46,33.85048,-3.03247,-0.03826275,0.60852
761.16,33.87375,-3.03184,-0.03962134,0.60799
761.86,33.89714,-3.03293,-0.04260408,0.60746
762.56,33.92051,-3.03314,-0.04547372,0.60693
763.26,33.9439,-3.03243,-0.04888686,0.6064
763.96,33.96727,-3.03249,-0.04976814,0.60587
764.66,33.99062,-3.03249,-0.04895882,0.60534
765.36,34.01395,-3.0325,-0.05209052,0.60481
766.06,34.03723,-3.03396,-0.05116556,0.60428
766.76,34.06053,-3.03512,-0.05294467,0.60375
767.46,34.0839,-3.03512,-0.05609839,0.60322
768.16,34.10733,-3.03586,-0.05777004,0.60269
768.86,34.1307,-3.03644,-0.05644713,0.60216
769.56,34.15406,-3.03644,-0.06265162,0.60163
770.26,34.17739,-3.03645,-0.06168437,0.6011
770.96,34.20067,-3.03574,-0.0644475,0.60057
771.66,34.22396,-3.03579,-0.06624742,0.60004
772.36,34.24727,-3.03711,-0.0680468,0.59951
773.06,34.27064,-3.03689,-0.0670255,0.59898
773.76,34.2939,-3.03677,-0.06757471,0.59845
774.46,34.31705,-3.03707,-0.07118367,0.59792
775.16,34.34032,-3.03809,-0.07356196,0.59739
775.86,34.36384,-3.03809,-0.07894185,0.59686
776.56,34.38738,-3.03809,-0.07602766,0.59633
777.26,34.41087,-3.03809,-0.08162297,0.5958
777.96,34.43417,-3.03809,-0.08191853,0.59527
778.66,34.45753,-3.03823,-0.08458411,0.59474
779.36,34.4809,-3.03908,-0.08079727,0.59421
780.06,34.50432,-3.03908,-0.08238572,0.59368
780.76,34.52771,-3.03908,-0.0907901,0.59315
781.46,34.55106,-3.03908,-0.08947151,0.59262
782.16,34.57442,-3.04015,-0.08685476,0.59209
782.86,34.5978,-3.03913,-0.08741988,0.59156
783.56,34.62121,-3.03907,-0.08873301,0.59103
784.26,34.64458,-3.03902,-0.09427713,0.5905
784.96,34.66799,-3.04038,-0.09577648,0.58997
785.66,34.69137,-3.04039,-0.09108781,0.58944
786.36,34.71468,-3.04039,-0.09872744,0.58891
787.06,34.7379,-3.04039,-0.09790016,0.58838
787.76,34.76121,-3.04039,-0.09777623,0.58785
788.46,34.7846,-3.0408,-0.09934845,0.58732
789.16,34.80816,-3.0417,-0.09967997,0.58679
789.86,34.8316,-3.0405,-0.10399,0.58626
790.56,34.855,-3.04038,-0.1003,0.58573
791.26,34.87838,-3.04038,-0.10247,0.5852
791.96,34.90185,-3.04043,-0.10376,0.58467
792.66,34.92516,-3.04193,-0.10156,0.58414
793.36,34.94854,-3.04312,-0.10672,0.58361
794.06,34.97195,-3.04313,-0.10852,0.58308
794.76,34.9955,-3.04313,-0.10903,0.58255
794.86,34.99882,-3.04313,-0.10751,0.58247