File: 01_Data/Homasote/STA/N2/30K_min/Homasote_STA_N2_30KData_222104_R1.csv
##Temp./Â°C,Time/min,Mass loss(subtr.2)/mg,DSC(subtr.2)/(mW/mg),Sensit./(uV/mW)
48.5,10.00583,-0.04618,0.01453977,1.07506
49.1,10.5319,-0.0486234,0.04680166,1.07479
49.7,10.6517,-0.04905209,0.07632127,1.07453
50.3,10.73596,-0.04897434,0.10688,1.07426
50.9,10.804,-0.04859167,0.1313,1.074
51.5,10.86329,-0.0480363,0.15582,1.07373
52.1,10.91593,-0.04916622,0.17819,1.07347
52.7,10.96424,-0.04890585,0.20083,1.0732
53.3,11.0088,-0.04958069,0.22119,1.07293
53.9,11.05048,-0.04934814,0.24039,1.07267
54.5,11.08993,-0.04969097,0.25946,1.0724
55.1,11.1271,-0.04961001,0.28101,1.07213
55.7,11.16302,-0.050658,0.29854,1.07186
56.3,11.1975,-0.05024619,0.31645,1.07159
56.9,11.23068,-0.0506529,0.33467,1.07132
57.5,11.26291,-0.05104128,0.35458,1.07105
58.1,11.29467,-0.0503793,0.37108,1.07078
58.7,11.32547,-0.05017664,0.38595,1.07051
59.3,11.3551,-0.04991598,0.40384,1.07024
59.9,11.38415,-0.04981601,0.41552,1.06997
60.5,11.41261,-0.0500286,0.42993,1.0697
61.1,11.4404,-0.05072984,0.44084,1.06943
61.7,11.46765,-0.0520272,0.45336,1.06915
62.3,11.49447,-0.0525528,0.4604,1.06888
62.9,11.5205,-0.05212436,0.4688,1.06861
63.5,11.5467,-0.05102975,0.47327,1.06833
64.1,11.57213,-0.05013469,0.48062,1.06806
64.7,11.59795,-0.05064659,0.48596,1.06779
65.3,11.62325,-0.05111742,0.49335,1.06751
65.9,11.6486,-0.05122345,0.5006,1.06723
66.5,11.6732,-0.05129968,0.5075,1.06696
67.1,11.6976,-0.05161476,0.51405,1.06668
67.7,11.72183,-0.05278717,0.52208,1.06641
68.3,11.74585,-0.05364087,0.53113,1.06613
68.9,11.76961,-0.05286531,0.53722,1.06585
69.5,11.79326,-0.05227338,0.5452,1.06557
70.1,11.81659,-0.0525182,0.55024,1.0653
70.7,11.83971,-0.05251517,0.55732,1.06502
71.3,11.8627,-0.05302182,0.56754,1.06474
71.9,11.88573,-0.05344134,0.57198,1.06446
72.5,11.90863,-0.05317066,0.5789,1.06418
73.1,11.93137,-0.0531611,0.58741,1.0639
73.7,11.95407,-0.05405062,0.59264,1.06362
74.3,11.97669,-0.05413908,0.60009,1.06334
74.9,11.9992,-0.05365006,0.60776,1.06306
75.5,12.0216,-0.05406608,0.61466,1.06278
76.1,12.04385,-0.0550935,0.62024,1.0625
76.7,12.06588,-0.05572363,0.62892,1.06221
77.3,12.0878,-0.05578775,0.63551,1.06193
77.9,12.10965,-0.05701173,0.64051,1.06165
78.5,12.13141,-0.05716906,0.64895,1.06136
79.1,12.15343,-0.05572422,0.65632,1.06108
79.7,12.1752,-0.05707228,0.66269,1.0608
80.3,12.19694,-0.05653845,0.67125,1.06051
80.9,12.21846,-0.05696298,0.67572,1.06023
81.5,12.2399,-0.05747235,0.68247,1.05994
82.1,12.26132,-0.05805471,0.68547,1.05966
82.7,12.2827,-0.05775375,0.6953,1.05937
83.3,12.304,-0.05932911,0.70182,1.05908
83.9,12.32531,-0.05791454,0.70993,1.0588
84.5,12.34656,-0.05895445,0.71643,1.05851
85.1,12.3676,-0.05790175,0.72214,1.05822
85.7,12.3886,-0.05812914,0.72974,1.05793
86.3,12.40945,-0.05892384,0.73636,1.05765
86.9,12.43025,-0.05787804,0.74005,1.05736
87.5,12.451,-0.05926351,0.74726,1.05707
88.1,12.47184,-0.05896398,0.75476,1.05678
88.7,12.49272,-0.05792445,0.76096,1.05649
89.3,12.5135,-0.05947826,0.76546,1.0562
89.9,12.53427,-0.05950139,0.76958,1.05591
90.5,12.555,-0.06078955,0.77637,1.05562
91.1,12.57568,-0.06068992,0.78218,1.05533
91.7,12.59632,-0.0609007,0.78873,1.05504
92.3,12.61682,-0.06108349,0.7938,1.05474
92.9,12.63717,-0.06236374,0.79883,1.05445
93.5,12.65771,-0.0621252,0.8048,1.05416
94.1,12.6782,-0.06338043,0.80878,1.05387
94.7,12.69903,-0.0633943,0.81504,1.05357
95.3,12.7195,-0.06482528,0.81892,1.05328
95.9,12.73983,-0.06482665,0.82238,1.05298
96.5,12.76024,-0.06589458,0.82896,1.05269
97.1,12.78053,-0.06614066,0.83086,1.0524
97.7,12.8009,-0.06617132,0.83796,1.0521
98.3,12.82125,-0.06515277,0.8402,1.05181
98.9,12.8416,-0.06611695,0.84451,1.05151
99.5,12.8619,-0.06648371,0.84863,1.05121
100.1,12.88216,-0.06648026,0.85268,1.05092
100.7,12.9024,-0.06646231,0.85461,1.05062
101.3,12.92262,-0.06769792,0.85703,1.05032
101.9,12.94283,-0.06780591,0.86099,1.05002
102.5,12.96299,-0.06850088,0.86311,1.04973
103.1,12.98305,-0.06910585,0.86811,1.04943
103.7,13.0033,-0.0691101,0.86953,1.04913
104.3,13.02351,-0.06910868,0.87235,1.04883
104.9,13.04376,-0.06928637,0.87436,1.04853
105.5,13.0641,-0.07047231,0.87593,1.04823
106.1,13.08423,-0.0701044,0.87703,1.04793
106.7,13.10438,-0.07009993,0.87872,1.04763
107.3,13.1245,-0.07010006,0.88104,1.04733
107.9,13.14461,-0.07009717,0.88114,1.04703
108.5,13.1648,-0.0706261,0.87959,1.04673
109.1,13.18481,-0.07140603,0.88453,1.04643
109.7,13.20493,-0.07141008,0.88372,1.04613
110.3,13.2251,-0.07140925,0.8851,1.04582
110.9,13.24514,-0.07168384,0.88403,1.04552
111.5,13.2653,-0.0727329,0.8872,1.04522
112.1,13.2853,-0.07272817,0.88332,1.04491
112.7,13.3053,-0.07333753,0.88515,1.04461
113.3,13.32535,-0.07371934,0.88405,1.04431
113.9,13.3455,-0.07372273,0.8839,1.044
114.5,13.36549,-0.07404297,0.88332,1.0437
115.1,13.38555,-0.07404118,0.88207,1.04339
115.7,13.40565,-0.07501377,0.88433,1.04309
116.3,13.4256,-0.07535969,0.88495,1.04278
116.9,13.44554,-0.07536001,0.88264,1.04247
117.5,13.4654,-0.07536,0.88345,1.04217
118.1,13.48538,-0.07535995,0.88522,1.04186
118.7,13.5053,-0.07536321,0.88322,1.04155
119.3,13.5252,-0.07598224,0.88384,1.04125
119.9,13.54504,-0.07667857,0.88585,1.04094
120.5,13.5649,-0.07759653,0.88509,1.04063
121.1,13.5847,-0.07766144,0.88789,1.04032
121.7,13.6045,-0.07766026,0.88666,1.04001
122.3,13.6244,-0.07764389,0.88746,1.0397
122.9,13.6441,-0.07893817,0.88865,1.03939
123.5,13.66394,-0.07898077,0.89022,1.03908
124.1,13.6838,-0.07897996,0.89048,1.03877
124.7,13.7035,-0.07898097,0.89108,1.03846
125.3,13.7233,-0.07892915,0.89349,1.03815
125.9,13.74293,-0.08030952,0.89444,1.03784
126.5,13.76261,-0.0806204,0.89427,1.03753
127.1,13.78225,-0.08063018,0.89435,1.03722
127.7,13.8019,-0.08063084,0.89375,1.03691
128.3,13.8216,-0.08058926,0.89269,1.0366
128.9,13.8412,-0.08213563,0.89283,1.03628
129.5,13.86081,-0.08324665,0.8938,1.03597
130.1,13.8804,-0.08326056,0.8912,1.03566
130.7,13.89993,-0.08324939,0.89057,1.03534
131.3,13.91946,-0.08458244,0.89008,1.03503
131.9,13.939,-0.08457014,0.88985,1.03471
132.5,13.9585,-0.08456986,0.88855,1.0344
133.1,13.978,-0.08458053,0.8855,1.03409
133.7,13.99739,-0.08577393,0.88592,1.03377
134.3,14.01675,-0.08589274,0.88556,1.03345
134.9,14.0361,-0.08588994,0.88361,1.03314
135.5,14.0555,-0.08589,0.88183,1.03282
136.1,14.0748,-0.08589,0.88032,1.03251
136.7,14.09425,-0.08589,0.87678,1.03219
137.3,14.11359,-0.08589,0.87665,1.03187
137.9,14.13275,-0.08589,0.87253,1.03155
138.5,14.15195,-0.08589,0.86833,1.03124
139.1,14.17109,-0.08589,0.86513,1.03092
139.7,14.1905,-0.08589003,0.86356,1.0306
140.3,14.20987,-0.08588856,0.86181,1.03028
140.9,14.22935,-0.0860093,0.85845,1.02996
141.5,14.2486,-0.08717658,0.85547,1.02964
142.1,14.2678,-0.08857017,0.85416,1.02932
142.7,14.28705,-0.08851924,0.8508,1.029
143.3,14.3062,-0.08852,0.84853,1.02868
143.9,14.3253,-0.08852001,0.84773,1.02836
144.5,14.34424,-0.08851835,0.84532,1.02804
145.1,14.3634,-0.08869996,0.84189,1.02772
145.7,14.3825,-0.08917338,0.84081,1.0274
146.3,14.40156,-0.08918062,0.83913,1.02708
146.9,14.4207,-0.08916366,0.83748,1.02676
147.5,14.4397,-0.08950602,0.83737,1.02643
148.1,14.45889,-0.08951208,0.8348,1.02611
148.7,14.478,-0.08985215,0.83628,1.02579
149.3,14.497,-0.08983956,0.83452,1.02547
149.9,14.51604,-0.0898401,0.83399,1.02514
150.5,14.53496,-0.08983669,0.83012,1.02482
151.1,14.554,-0.08935583,0.83051,1.02449
151.7,14.57301,-0.08884826,0.83018,1.02417
152.3,14.59203,-0.08884996,0.82993,1.02385
152.9,14.61106,-0.08885,0.83073,1.02352
153.5,14.63001,-0.08885,0.82995,1.0232
154.1,14.64891,-0.08884998,0.83069,1.02287
154.7,14.66784,-0.08885071,0.82954,1.02254
155.3,14.6868,-0.08883314,0.82999,1.02222
155.9,14.7056,-0.08983637,0.83113,1.02189
156.5,14.7243,-0.0898402,0.83231,1.02156
157.1,14.74298,-0.08985897,0.83241,1.02124
157.7,14.76169,-0.09057879,0.83235,1.02091
158.3,14.7806,-0.09085898,0.833,1.02058
158.9,14.7997,-0.09082969,0.83521,1.02025
159.5,14.8188,-0.0908288,0.83489,1.01993
160.1,14.83782,-0.09131418,0.83614,1.0196
160.7,14.8567,-0.09212962,0.83669,1.01927
161.3,14.87556,-0.09214026,0.83703,1.01894
161.9,14.89445,-0.09213999,0.83797,1.01861
162.5,14.91315,-0.09214,0.8373,1.01828
163.1,14.9318,-0.09214019,0.84031,1.01795
163.7,14.9504,-0.09212138,0.84268,1.01762
164.3,14.96905,-0.09334699,0.84013,1.01729
164.9,14.9877,-0.09346131,0.84322,1.01696
165.5,15.0067,-0.09345999,0.84416,1.01663
166.1,15.02573,-0.09346,0.84554,1.0163
166.7,15.04471,-0.09346,0.84931,1.01597
167.3,15.06373,-0.09346009,0.84981,1.01563
167.9,15.0825,-0.09345523,0.8484,1.0153
168.5,15.1012,-0.0929366,0.85002,1.01497
169.1,15.11992,-0.09214273,0.852,1.01464
169.7,15.1387,-0.09214004,0.8543,1.0143
170.3,15.15741,-0.09213995,0.85569,1.01397
170.9,15.17614,-0.0921423,0.85703,1.01364
171.5,15.19486,-0.09205242,0.85805,1.0133
172.1,15.21357,-0.0941432,0.85902,1.01297
172.7,15.23226,-0.09412015,0.86249,1.01263
173.3,15.25094,-0.09411998,0.8622,1.0123
173.9,15.26958,-0.09412,0.8642,1.01196
174.5,15.2882,-0.09412,0.86515,1.01163
175.1,15.3068,-0.09412,0.86625,1.01129
175.7,15.3254,-0.09412,0.86927,1.01096
176.3,15.34419,-0.09412,0.87077,1.01062
176.9,15.36285,-0.09412,0.87199,1.01029
177.5,15.38151,-0.09412,0.87429,1.00995
178.1,15.39996,-0.09412,0.87611,1.00961
178.7,15.4185,-0.09412,0.87725,1.00928
179.3,15.4371,-0.09412,0.87981,1.00894
179.9,15.45571,-0.09412,0.88007,1.0086
180.5,15.4745,-0.09412,0.88257,1.00826
181.1,15.49305,-0.09412,0.88316,1.00792
181.7,15.51162,-0.09411984,0.88547,1.00759
182.3,15.5301,-0.09413371,0.88657,1.00725
182.9,15.5486,-0.09512291,0.88903,1.00691
183.5,15.567,-0.09619465,0.89026,1.00657
184.1,15.5855,-0.09641963,0.88991,1.00623
184.7,15.60396,-0.09642004,0.89108,1.00589
185.3,15.6225,-0.09642,0.8947,1.00555
185.9,15.641,-0.09642,0.89722,1.00521
186.5,15.65947,-0.09642,0.89686,1.00487
187.1,15.67794,-0.09642,0.8998,1.00453
187.7,15.6964,-0.09641999,0.89905,1.00419
188.3,15.7148,-0.09642039,0.90129,1.00384
188.9,15.7333,-0.09641386,0.90424,1.0035
189.5,15.75165,-0.09700937,0.9069,1.00316
190.1,15.77006,-0.09807357,0.90887,1.00282
190.7,15.7884,-0.09805964,0.90853,1.00248
191.3,15.80675,-0.09806,0.9111,1.00213
191.9,15.82511,-0.09805985,0.91253,1.00179
192.5,15.84332,-0.09807398,0.91576,1.00145
193.1,15.8617,-0.09902531,0.91706,1.0011
193.7,15.88003,-0.09938224,0.91696,1.00076
194.3,15.89843,-0.09938005,0.92094,1.00042
194.9,15.9169,-0.09938,0.92072,1.00007
195.5,15.9352,-0.09938,0.92246,0.99973
196.1,15.9536,-0.09938,0.92277,0.99938
196.7,15.9719,-0.09937996,0.92265,0.99904
197.3,15.99027,-0.09938502,0.92464,0.99869
197.9,16.00858,-0.09997853,0.92597,0.99835
198.5,16.02693,-0.1007,0.93036,0.998
199.1,16.0453,-0.1007,0.9313,0.99765
199.7,16.0636,-0.1007,0.93163,0.99731
200.3,16.082,-0.10071,0.93288,0.99696
200.9,16.10023,-0.10148,0.9348,0.99661
201.5,16.11852,-0.10201,0.93669,0.99627
202.1,16.1368,-0.10201,0.93928,0.99592
202.7,16.15491,-0.10201,0.93972,0.99557
203.3,16.1731,-0.10201,0.94004,0.99523
203.9,16.1913,-0.10252,0.94384,0.99488
204.5,16.20966,-0.10332,0.94527,0.99453
205.1,16.22805,-0.10333,0.94703,0.99418
205.7,16.24645,-0.10333,0.94983,0.99383
206.3,16.2647,-0.10333,0.95013,0.99348
206.9,16.28293,-0.10333,0.95085,0.99313
207.5,16.30113,-0.1033,0.95323,0.99278
208.1,16.31936,-0.10466,0.95436,0.99243
208.7,16.3376,-0.10465,0.95512,0.99208
209.3,16.3559,-0.10465,0.95885,0.99173
209.9,16.37421,-0.10465,0.95981,0.99138
210.5,16.39247,-0.10465,0.96135,0.99103
211.1,16.4107,-0.10509,0.96413,0.99068
211.7,16.4288,-0.10596,0.96624,0.99033
212.3,16.4469,-0.10597,0.96911,0.98998
212.9,16.4651,-0.10623,0.97037,0.98963
213.5,16.48337,-0.10729,0.97139,0.98928
214.1,16.50168,-0.10671,0.97227,0.98892
214.7,16.52,-0.10596,0.97237,0.98857
215.3,16.5382,-0.10621,0.97476,0.98822
215.9,16.55637,-0.1073,0.97749,0.98787
216.5,16.5746,-0.10728,0.97838,0.98751
217.1,16.5928,-0.10729,0.97893,0.98716
217.7,16.61101,-0.10856,0.98051,0.9868
218.3,16.6293,-0.10859,0.98392,0.98645
218.9,16.6475,-0.10856,0.98413,0.9861
219.5,16.6657,-0.1099,0.98462,0.98574
220.1,16.68393,-0.10991,0.98754,0.98539
220.7,16.7021,-0.10985,0.99017,0.98503
221.3,16.72026,-0.11234,0.99195,0.98468
221.9,16.73847,-0.11255,0.99565,0.98432
222.5,16.75664,-0.11288,0.99662,0.98397
223.1,16.77485,-0.11395,0.99936,0.98361
223.7,16.79308,-0.11397,1.00143,0.98326
224.3,16.8112,-0.11484,1.00143,0.9829
224.9,16.82946,-0.11529,1.00579,0.98254
225.5,16.8476,-0.11529,1.00562,0.98219
226.1,16.8658,-0.11529,1.00733,0.98183
226.7,16.88401,-0.11664,1.00946,0.98147
227.3,16.90222,-0.11661,1.01295,0.98112
227.9,16.92039,-0.11704,1.01121,0.98076
228.5,16.93861,-0.11803,1.01349,0.9804
229.1,16.95674,-0.11838,1.01338,0.98004
229.7,16.97486,-0.11945,1.01582,0.97968
230.3,16.99307,-0.11984,1.01773,0.97933
230.9,17.0112,-0.12078,1.02002,0.97897
231.5,17.02944,-0.12078,1.02008,0.97861
232.1,17.04759,-0.12165,1.02102,0.97825
232.7,17.0657,-0.12209,1.02452,0.97789
233.3,17.08384,-0.12348,1.02468,0.97753
233.9,17.10194,-0.12249,1.02505,0.97717
234.5,17.12014,-0.12393,1.02661,0.97681
235.1,17.13834,-0.12487,1.02926,0.97645
235.7,17.15653,-0.12526,1.02843,0.97609
236.3,17.1747,-0.12541,1.0315,0.97573
236.9,17.1928,-0.12668,1.03458,0.97537
237.5,17.21096,-0.12761,1.0337,0.97501
238.1,17.22907,-0.1282,1.03534,0.97464
238.7,17.24723,-0.12934,1.03855,0.97428
239.3,17.26533,-0.12961,1.03738,0.97392
239.9,17.28351,-0.13261,1.04099,0.97356
240.5,17.3017,-0.13307,1.04056,0.9732
241.1,17.31982,-0.13393,1.04198,0.97283
241.7,17.338,-0.13579,1.04701,0.97247
242.3,17.35608,-0.13677,1.04669,0.97211
242.9,17.37416,-0.13824,1.05017,0.97175
243.5,17.39216,-0.13892,1.05083,0.97138
244.1,17.41028,-0.13989,1.05217,0.97102
244.7,17.4284,-0.14179,1.05498,0.97065
245.3,17.4465,-0.143,1.05368,0.97029
245.9,17.46473,-0.14496,1.05722,0.96993
246.5,17.48284,-0.14637,1.06089,0.96956
247.1,17.501,-0.14793,1.06107,0.9692
247.7,17.51913,-0.14851,1.06367,0.96883
248.3,17.5372,-0.14934,1.06505,0.96847
248.9,17.55528,-0.15102,1.06689,0.9681
249.5,17.5733,-0.15184,1.06774,0.96774
250.1,17.59144,-0.15267,1.07069,0.96737
250.7,17.60957,-0.15422,1.07156,0.96701
251.3,17.62777,-0.15486,1.07363,0.96664
251.9,17.64593,-0.15598,1.07632,0.96627
252.5,17.66405,-0.15788,1.07803,0.96591
253.1,17.68216,-0.15938,1.07982,0.96554
253.7,17.7002,-0.16005,1.08379,0.96517
254.3,17.7183,-0.16133,1.08514,0.96481
254.9,17.7364,-0.16302,1.08731,0.96444
255.5,17.7545,-0.16492,1.08917,0.96407
256.1,17.7726,-0.16685,1.09233,0.9637
256.7,17.79065,-0.16883,1.09828,0.96333
257.3,17.80876,-0.16904,1.09817,0.96297
257.9,17.82687,-0.17052,1.09895,0.9626
258.5,17.84494,-0.17158,1.09945,0.96223
259.1,17.86299,-0.173,1.10613,0.96186
259.7,17.88111,-0.1748,1.10431,0.96149
260.3,17.89923,-0.17671,1.10764,0.96112
260.9,17.91735,-0.17851,1.11057,0.96075
261.5,17.93548,-0.17987,1.11265,0.96038
262.1,17.95356,-0.18129,1.11509,0.96001
262.7,17.97162,-0.1828,1.11598,0.95964
263.3,17.9897,-0.18447,1.11681,0.95927
263.9,18.00771,-0.18621,1.11905,0.9589
264.5,18.02577,-0.18976,1.12325,0.95853
265.1,18.04381,-0.1922,1.12467,0.95816
265.7,18.06186,-0.19445,1.12748,0.95779
266.3,18.08002,-0.19639,1.12884,0.95742
266.9,18.09807,-0.19801,1.13008,0.95705
267.5,18.1161,-0.19956,1.13178,0.95668
268.1,18.1342,-0.20108,1.13387,0.9563
268.7,18.15221,-0.20276,1.13795,0.95593
269.3,18.1703,-0.20457,1.13843,0.95556
269.9,18.18836,-0.20706,1.1382,0.95519
270.5,18.20648,-0.20955,1.13936,0.95481
271.1,18.22455,-0.21222,1.14073,0.95444
271.7,18.24263,-0.21465,1.14409,0.95407
272.3,18.2607,-0.21617,1.14447,0.9537
272.9,18.27871,-0.21832,1.14564,0.95332
273.5,18.2968,-0.22093,1.14957,0.95295
274.1,18.31484,-0.22323,1.15051,0.95257
274.7,18.33292,-0.22601,1.15204,0.9522
275.3,18.35098,-0.22801,1.15178,0.95183
275.9,18.369,-0.23077,1.15643,0.95145
276.5,18.38714,-0.2331,1.15531,0.95108
277.1,18.4052,-0.23577,1.15754,0.9507
277.7,18.42333,-0.23849,1.16003,0.95033
278.3,18.44146,-0.24023,1.16139,0.94995
278.9,18.45948,-0.24348,1.16248,0.94958
279.5,18.47768,-0.24649,1.16069,0.9492
280.1,18.49578,-0.24932,1.16408,0.94883
280.7,18.51395,-0.25162,1.16587,0.94845
281.3,18.53216,-0.25432,1.16728,0.94807
281.9,18.55016,-0.25646,1.16891,0.9477
282.5,18.5682,-0.25939,1.17102,0.94732
283.1,18.58623,-0.2622,1.17219,0.94694
283.7,18.6043,-0.26564,1.17253,0.94657
284.3,18.62248,-0.26866,1.17206,0.94619
284.9,18.6406,-0.27341,1.17562,0.94581
285.5,18.65875,-0.27664,1.17656,0.94544
286.1,18.67691,-0.28018,1.17722,0.94506
286.7,18.69501,-0.28379,1.17782,0.94468
287.3,18.7131,-0.2872,1.17917,0.9443
287.9,18.73124,-0.29085,1.18115,0.94392
288.5,18.74934,-0.29378,1.18148,0.94355
289.1,18.76746,-0.29687,1.18057,0.94317
289.7,18.78562,-0.29965,1.18401,0.94279
290.3,18.80369,-0.30301,1.1868,0.94241
290.9,18.82178,-0.30658,1.18875,0.94203
291.5,18.83994,-0.31136,1.19047,0.94165
292.1,18.85801,-0.31548,1.19079,0.94127
292.7,18.87615,-0.31923,1.19374,0.94089
293.3,18.89422,-0.32283,1.19211,0.94051
293.9,18.91228,-0.32748,1.19474,0.94013
294.5,18.93042,-0.33137,1.19722,0.93975
295.1,18.9485,-0.33543,1.19591,0.93937
295.7,18.96663,-0.33963,1.1988,0.93899
296.3,18.98475,-0.34351,1.20169,0.93861
296.9,19.0029,-0.34892,1.20489,0.93823
297.5,19.02104,-0.35398,1.20594,0.93785
298.1,19.039,-0.35776,1.20388,0.93747
298.7,19.05707,-0.36255,1.20888,0.93709
299.3,19.07519,-0.3682,1.21001,0.9367
299.9,19.0933,-0.37353,1.20926,0.93632
300.5,19.11161,-0.37934,1.21337,0.93594
301.1,19.1298,-0.38394,1.21353,0.93556
301.7,19.14795,-0.38847,1.21765,0.93518
302.3,19.16602,-0.39372,1.21847,0.93479
302.9,19.18417,-0.39841,1.22083,0.93441
303.5,19.2023,-0.40459,1.22032,0.93403
304.1,19.22039,-0.41066,1.22199,0.93364
304.7,19.23858,-0.41546,1.22636,0.93326
305.3,19.2567,-0.42085,1.23038,0.93288
305.9,19.2748,-0.42609,1.22758,0.93249
306.5,19.2929,-0.43109,1.23174,0.93211
307.1,19.31103,-0.4374,1.23314,0.93173
307.7,19.3292,-0.44309,1.23651,0.93134
308.3,19.34734,-0.44895,1.2398,0.93096
308.9,19.36553,-0.45608,1.23879,0.93057
309.5,19.38356,-0.46183,1.24452,0.93019
310.1,19.4017,-0.46842,1.24738,0.9298
310.7,19.41989,-0.47529,1.24944,0.92942
311.3,19.438,-0.48054,1.2541,0.92903
311.9,19.45624,-0.48705,1.25634,0.92865
312.5,19.47437,-0.49346,1.25809,0.92826
313.1,19.49245,-0.4995,1.26203,0.92788
313.7,19.51063,-0.50724,1.26517,0.92749
314.3,19.52883,-0.51433,1.26928,0.92711
314.9,19.54701,-0.52089,1.27257,0.92672
315.5,19.56524,-0.52867,1.27652,0.92633
316.1,19.58344,-0.53494,1.27946,0.92595
316.7,19.60158,-0.54227,1.28302,0.92556
317.3,19.61972,-0.5504,1.28765,0.92517
317.9,19.63786,-0.55668,1.29136,0.92479
318.5,19.65602,-0.56478,1.29615,0.9244
319.1,19.67415,-0.57322,1.29969,0.92401
319.7,19.69239,-0.58031,1.3051,0.92362
320.3,19.7106,-0.58908,1.31149,0.92324
320.9,19.7288,-0.59717,1.31429,0.92285
321.5,19.74705,-0.60487,1.31703,0.92246
322.1,19.7652,-0.61362,1.32426,0.92207
322.7,19.78332,-0.62084,1.32708,0.92168
323.3,19.8015,-0.6289,1.33326,0.9213
323.9,19.81964,-0.63804,1.3382,0.92091
324.5,19.83783,-0.64583,1.34361,0.92052
325.1,19.85608,-0.6557,1.34984,0.92013
325.7,19.87416,-0.66579,1.35399,0.91974
326.3,19.89235,-0.67406,1.36179,0.91935
326.9,19.91057,-0.6841,1.36783,0.91896
327.5,19.92882,-0.69324,1.37264,0.91857
328.1,19.94715,-0.70213,1.38163,0.91818
328.7,19.9654,-0.71263,1.3858,0.91779
329.3,19.98367,-0.72111,1.39165,0.9174
329.9,20.0018,-0.73085,1.39716,0.91701
330.5,20.02009,-0.74124,1.40409,0.91662
331.1,20.03814,-0.74956,1.4082,0.91623
331.7,20.05635,-0.76021,1.41734,0.91584
332.3,20.07461,-0.76943,1.42297,0.91545
332.9,20.09281,-0.77897,1.42855,0.91506
333.5,20.11122,-0.79093,1.43733,0.91467
334.1,20.12947,-0.80124,1.4412,0.91427
334.7,20.14773,-0.81177,1.44988,0.91388
335.3,20.16603,-0.82375,1.45532,0.91349
335.9,20.18435,-0.83343,1.46526,0.9131
336.5,20.20264,-0.84532,1.47187,0.91271
337.1,20.22093,-0.8568,1.47608,0.91231
337.7,20.2392,-0.86655,1.48614,0.91192
338.3,20.25743,-0.87882,1.48951,0.91153
338.9,20.27574,-0.88985,1.49539,0.91114
339.5,20.29403,-0.90131,1.50215,0.91074
340.1,20.31235,-0.9148,1.50871,0.91035
340.7,20.33064,-0.9257,1.51705,0.90996
341.3,20.34897,-0.9385,1.52162,0.90956
341.9,20.36731,-0.95196,1.52936,0.90917
342.5,20.38564,-0.96358,1.53786,0.90878
343.1,20.404,-0.97798,1.54456,0.90838
343.7,20.4223,-0.99051,1.55065,0.90799
344.3,20.4406,-1.00278,1.55751,0.90759
344.9,20.45889,-1.01747,1.566,0.9072
345.5,20.47726,-1.02956,1.57118,0.90681
346.1,20.49556,-1.04333,1.57799,0.90641
346.7,20.5139,-1.05902,1.5871,0.90602
347.3,20.53231,-1.07118,1.59561,0.90562
347.9,20.55061,-1.08601,1.60029,0.90523
348.5,20.56896,-1.09941,1.60756,0.90483
349.1,20.5873,-1.11301,1.61596,0.90444
349.7,20.6057,-1.12955,1.62583,0.90404
350.3,20.62412,-1.14257,1.63251,0.90365
350.9,20.64251,-1.15781,1.63948,0.90325
351.5,20.66084,-1.17328,1.64713,0.90285
352.1,20.67918,-1.18671,1.65451,0.90246
352.7,20.69755,-1.2038,1.66027,0.90206
353.3,20.71595,-1.21848,1.66979,0.90166
353.9,20.7344,-1.23355,1.67797,0.90127
354.5,20.75275,-1.25107,1.68684,0.90087
355.1,20.77117,-1.26519,1.69208,0.90047
355.7,20.7896,-1.28223,1.69984,0.90008
356.3,20.80798,-1.29877,1.70592,0.89968
356.9,20.82638,-1.31336,1.71454,0.89928
357.5,20.84477,-1.33169,1.72113,0.89889
358.1,20.86315,-1.34734,1.73075,0.89849
358.7,20.88156,-1.36428,1.73751,0.89809
359.3,20.9,-1.38273,1.74299,0.89769
359.9,20.9185,-1.39792,1.74965,0.89729
360.5,20.937,-1.41715,1.7586,0.8969
361.1,20.95544,-1.43438,1.76675,0.8965
361.7,20.97382,-1.45112,1.7731,0.8961
362.3,20.99221,-1.47136,1.78231,0.8957
362.9,21.01059,-1.48776,1.79108,0.8953
363.5,21.02903,-1.50693,1.79661,0.8949
364.1,21.0475,-1.52687,1.80721,0.8945
364.7,21.06597,-1.54419,1.81067,0.8941
365.3,21.08446,-1.56582,1.82199,0.89371
365.9,21.10295,-1.58382,1.82972,0.89331
366.5,21.12143,-1.60272,1.83707,0.89291
367.1,21.1399,-1.62405,1.84418,0.89251
367.7,21.15834,-1.64156,1.85211,0.89211
368.3,21.17687,-1.66306,1.85464,0.89171
368.9,21.19536,-1.68269,1.86444,0.89131
369.5,21.21386,-1.70151,1.86602,0.89091
370.1,21.23235,-1.72443,1.87541,0.89051
370.7,21.25075,-1.74354,1.87742,0.8901
371.3,21.26922,-1.76556,1.88278,0.8897
371.9,21.28771,-1.7871,1.88611,0.8893
372.5,21.30624,-1.80592,1.88927,0.8889
373.1,21.32487,-1.82913,1.8904,0.8885
373.7,21.3435,-1.84808,1.89364,0.8881
374.3,21.3621,-1.86958,1.89517,0.8877
374.9,21.38072,-1.8924,1.89471,0.8873
375.5,21.39919,-1.91022,1.89231,0.88689
376.1,21.41767,-1.93369,1.88982,0.88649
376.7,21.43618,-1.95352,1.88564,0.88609
377.3,21.4547,-1.97431,1.88099,0.88569
377.9,21.47327,-1.99775,1.87602,0.88529
378.5,21.49185,-2.01688,1.87041,0.88488
379.1,21.51043,-2.04035,1.8602,0.88448
379.7,21.52893,-2.06094,1.84941,0.88408
380.3,21.54746,-2.07916,1.83497,0.88368
380.9,21.56602,-2.10212,1.81862,0.88327
381.5,21.5846,-2.12046,1.80159,0.88287
382.1,21.60321,-2.14244,1.78362,0.88247
382.7,21.62163,-2.16258,1.76157,0.88206
383.3,21.6402,-2.18075,1.73811,0.88166
383.9,21.65873,-2.20235,1.70918,0.88126
384.5,21.6773,-2.21957,1.68142,0.88085
385.1,21.69606,-2.23937,1.65049,0.88045
385.7,21.71461,-2.25797,1.61959,0.88004
386.3,21.7332,-2.27433,1.58104,0.87964
386.9,21.75181,-2.29418,1.54224,0.87923
387.5,21.7704,-2.30886,1.50077,0.87883
388.1,21.78896,-2.32533,1.45902,0.87843
388.7,21.80746,-2.34144,1.41363,0.87802
389.3,21.826,-2.35498,1.3655,0.87762
389.9,21.8445,-2.37147,1.31676,0.87721
390.5,21.863,-2.38508,1.26513,0.87681
391.1,21.88157,-2.39848,1.21458,0.8764
391.7,21.9001,-2.41242,1.16177,0.87599
392.3,21.9187,-2.42258,1.10979,0.87559
392.9,21.93719,-2.43453,1.05412,0.87518
393.5,21.95572,-2.44417,1.003,0.87478
394.1,21.97423,-2.45317,0.95132,0.87437
394.7,21.9927,-2.46256,0.90113,0.87397
395.3,22.01128,-2.46942,0.85014,0.87356
395.9,22.02983,-2.47728,0.80417,0.87315
396.5,22.04841,-2.48454,0.75812,0.87275
397.1,22.0668,-2.49092,0.71251,0.87234
397.7,22.08527,-2.4978,0.6759,0.87193
398.3,22.10377,-2.50266,0.63875,0.87153
398.9,22.12228,-2.50767,0.6037,0.87112
399.5,22.14099,-2.51271,0.57063,0.87071
400.1,22.15958,-2.51663,0.54052,0.8703
400.7,22.17819,-2.52104,0.51449,0.8699
401.3,22.19671,-2.52417,0.48873,0.86949
401.9,22.21525,-2.52718,0.46996,0.86908
402.5,22.23388,-2.52972,0.44547,0.86867
403.1,22.2524,-2.53231,0.4311,0.86827
403.7,22.27085,-2.53513,0.41541,0.86786
404.3,22.28925,-2.53771,0.3993,0.86745
404.9,22.3077,-2.54026,0.38696,0.86704
405.5,22.32638,-2.54261,0.3771,0.86663
406.1,22.34516,-2.54462,0.3665,0.86622
406.7,22.364,-2.54568,0.35854,0.86581
407.3,22.3827,-2.54688,0.35071,0.86541
407.9,22.40126,-2.54872,0.34437,0.865
408.5,22.41982,-2.55064,0.33727,0.86459
409.1,22.43845,-2.55258,0.33405,0.86418
409.7,22.45712,-2.55429,0.3307,0.86377
410.3,22.4758,-2.55554,0.32738,0.86336
410.9,22.4945,-2.55646,0.32593,0.86295
411.5,22.51312,-2.55748,0.32014,0.86254
412.1,22.53171,-2.55942,0.31707,0.86213
412.7,22.5503,-2.56141,0.31747,0.86172
413.3,22.56898,-2.56343,0.31755,0.86131
413.9,22.58765,-2.56541,0.31701,0.8609
414.5,22.60632,-2.56713,0.31964,0.86049
415.1,22.62501,-2.56819,0.31839,0.86008
415.7,22.6436,-2.56899,0.32239,0.85967
416.3,22.66234,-2.57051,0.32091,0.85926
416.9,22.68102,-2.57192,0.32174,0.85885
417.5,22.69976,-2.57312,0.3198,0.85844
418.1,22.71849,-2.57427,0.3214,0.85802
418.7,22.73718,-2.57604,0.32334,0.85761
419.3,22.75592,-2.57785,0.321,0.8572
419.9,22.7746,-2.5799,0.32017,0.85679
420.5,22.79329,-2.58181,0.31637,0.85638
421.1,22.81204,-2.58383,0.31589,0.85597
421.7,22.83076,-2.58494,0.31613,0.85555
422.3,22.8495,-2.58601,0.313,0.85514
422.9,22.8683,-2.58731,0.31318,0.85473
423.5,22.88697,-2.5893,0.31129,0.85432
424.1,22.9057,-2.59101,0.30926,0.85391
424.7,22.92447,-2.59282,0.30681,0.85349
425.3,22.9433,-2.59453,0.30546,0.85308
425.9,22.96211,-2.59609,0.30114,0.85267
426.5,22.98084,-2.59799,0.30038,0.85226
427.1,22.9997,-2.59926,0.29862,0.85184
427.7,23.0184,-2.60089,0.29618,0.85143
428.3,23.03715,-2.60255,0.29626,0.85102
428.9,23.05596,-2.60418,0.29258,0.8506
429.5,23.0747,-2.60588,0.29287,0.85019
430.1,23.09352,-2.60805,0.29026,0.84978
430.7,23.11232,-2.60965,0.28764,0.84936
431.3,23.13111,-2.61138,0.28704,0.84895
431.9,23.14994,-2.61157,0.28561,0.84853
432.5,23.16874,-2.61248,0.28304,0.84812
433.1,23.18757,-2.61361,0.2808,0.84771
433.7,23.20634,-2.61403,0.27961,0.84729
434.3,23.22515,-2.61564,0.27727,0.84688
434.9,23.244,-2.61673,0.27631,0.84646
435.5,23.26272,-2.61843,0.27641,0.84605
436.1,23.2817,-2.61946,0.27511,0.84563
436.7,23.30057,-2.62109,0.2773,0.84522
437.3,23.31948,-2.62188,0.27486,0.8448
437.9,23.33843,-2.62307,0.27338,0.84439
438.5,23.3572,-2.62497,0.27546,0.84397
439.1,23.37604,-2.62679,0.27514,0.84356
439.7,23.3949,-2.6292,0.27403,0.84314
440.3,23.41382,-2.63189,0.27465,0.84273
440.9,23.4327,-2.63293,0.27444,0.84231
441.5,23.45143,-2.63393,0.27762,0.84189
442.1,23.47024,-2.63555,0.27509,0.84148
442.7,23.4891,-2.63711,0.27611,0.84106
443.3,23.50799,-2.63875,0.27866,0.84065
443.9,23.5271,-2.6406,0.27836,0.84023
444.5,23.54601,-2.64247,0.28276,0.83981
445.1,23.56488,-2.64354,0.28056,0.8394
445.7,23.58376,-2.64436,0.28298,0.83898
446.3,23.6026,-2.64587,0.28529,0.83856
446.9,23.6215,-2.64717,0.28529,0.83815
447.5,23.64041,-2.64788,0.29027,0.83773
448.1,23.65935,-2.64926,0.29002,0.83731
448.7,23.67833,-2.65098,0.28951,0.8369
449.3,23.69727,-2.65274,0.29125,0.83648
449.9,23.71622,-2.65428,0.29352,0.83606
450.5,23.7351,-2.6557,0.29329,0.83564
451.1,23.75405,-2.65623,0.29652,0.83523
451.7,23.77301,-2.65674,0.30149,0.83481
452.3,23.79201,-2.65848,0.30101,0.83439
452.9,23.811,-2.66026,0.30004,0.83397
453.5,23.82999,-2.66209,0.30711,0.83355
454.1,23.84894,-2.66353,0.30641,0.83314
454.7,23.8679,-2.66526,0.30949,0.83272
455.3,23.88689,-2.66693,0.31186,0.8323
455.9,23.90586,-2.66878,0.3163,0.83188
456.5,23.92485,-2.67055,0.31623,0.83146
457.1,23.9438,-2.67159,0.31493,0.83104
457.7,23.96278,-2.67224,0.31921,0.83062
458.3,23.98179,-2.67391,0.31894,0.8302
458.9,24.00076,-2.67432,0.32117,0.82979
459.5,24.01973,-2.67539,0.32419,0.82937
460.1,24.03878,-2.67723,0.32802,0.82895
460.7,24.0578,-2.67923,0.32936,0.82853
461.3,24.07686,-2.68096,0.33459,0.82811
461.9,24.09592,-2.68182,0.33202,0.82769
462.5,24.11492,-2.68287,0.33521,0.82727
463.1,24.1339,-2.6846,0.33815,0.82685
463.7,24.15288,-2.68571,0.33934,0.82643
464.3,24.1719,-2.68611,0.34152,0.82601
464.9,24.19096,-2.68751,0.34155,0.82559
465.5,24.21003,-2.68858,0.34659,0.82517
466.1,24.22907,-2.69039,0.34833,0.82475
466.7,24.2481,-2.69164,0.34809,0.82433
467.3,24.2671,-2.69336,0.35012,0.82391
467.9,24.2862,-2.69501,0.35227,0.82349
468.5,24.30526,-2.6967,0.35182,0.82306
469.1,24.32431,-2.69768,0.35612,0.82264
469.7,24.34335,-2.69843,0.35863,0.82222
470.3,24.36244,-2.69986,0.35843,0.8218
470.9,24.3814,-2.70098,0.36121,0.82138
471.5,24.40045,-2.70165,0.36159,0.82096
472.1,24.41946,-2.7031,0.36216,0.82054
472.7,24.4385,-2.70459,0.36336,0.82011
473.3,24.45757,-2.70517,0.36515,0.81969
473.9,24.47665,-2.70637,0.36753,0.81927
474.5,24.49573,-2.7079,0.36967,0.81885
475.1,24.51485,-2.7082,0.36851,0.81843
475.7,24.53399,-2.70959,0.36955,0.818
476.3,24.55313,-2.71113,0.36918,0.81758
476.9,24.57218,-2.71273,0.37023,0.81716
477.5,24.5913,-2.71446,0.37182,0.81674
478.1,24.6103,-2.7156,0.37519,0.81632
478.7,24.62937,-2.71697,0.37342,0.81589
479.3,24.64844,-2.71853,0.37344,0.81547
479.9,24.66752,-2.71851,0.37311,0.81505
480.5,24.68667,-2.7198,0.37613,0.81462
481.1,24.70577,-2.72011,0.37736,0.8142
481.7,24.72488,-2.72132,0.37681,0.81378
482.3,24.74397,-2.72312,0.37793,0.81335
482.9,24.76309,-2.72444,0.37586,0.81293
483.5,24.7822,-2.72471,0.37687,0.81251
484.1,24.80134,-2.7259,0.37676,0.81208
484.7,24.8205,-2.72624,0.37381,0.81166
485.3,24.83965,-2.72788,0.37687,0.81124
485.9,24.8588,-2.72953,0.37588,0.81081
486.5,24.87797,-2.72952,0.37286,0.81039
487.1,24.89712,-2.73112,0.37398,0.80996
487.7,24.91624,-2.73138,0.37373,0.80954
488.3,24.9354,-2.73245,0.37324,0.80911
488.9,24.9545,-2.73411,0.37142,0.80869
489.5,24.9737,-2.73526,0.36937,0.80827
490.1,24.99284,-2.73595,0.37196,0.80784
490.7,25.012,-2.73734,0.36831,0.80742
491.3,25.0311,-2.73882,0.37074,0.80699
491.9,25.05025,-2.73904,0.36753,0.80657
492.5,25.06943,-2.7402,0.36747,0.80614
493.1,25.0886,-2.74038,0.36627,0.80572
493.7,25.10781,-2.74175,0.36672,0.80529
494.3,25.12699,-2.74339,0.36428,0.80487
494.9,25.1462,-2.74462,0.36319,0.80444
495.5,25.1653,-2.74501,0.36688,0.80401
496.1,25.1845,-2.74642,0.36403,0.80359
496.7,25.20366,-2.7472,0.36396,0.80316
497.3,25.22283,-2.74843,0.35924,0.80274
497.9,25.242,-2.7485,0.36044,0.80231
498.5,25.2611,-2.75094,0.35618,0.80188
499.1,25.28037,-2.75149,0.35699,0.80146
499.7,25.29949,-2.75258,0.35632,0.80103
500.3,25.31868,-2.75362,0.3541,0.80061
500.9,25.33786,-2.75406,0.35134,0.80018
501.5,25.3571,-2.7558,0.3524,0.79975
502.1,25.3764,-2.7559,0.34944,0.79933
502.7,25.39555,-2.75721,0.34908,0.7989
503.3,25.41475,-2.75724,0.34694,0.79847
503.9,25.4339,-2.75851,0.34389,0.79805
504.5,25.4531,-2.75853,0.34352,0.79762
505.1,25.4724,-2.75993,0.34126,0.79719
505.7,25.4916,-2.76045,0.33983,0.79676
506.3,25.51083,-2.76145,0.33956,0.79634
506.9,25.52991,-2.7622,0.33529,0.79591
507.5,25.54911,-2.76277,0.3344,0.79548
508.1,25.56823,-2.76278,0.33095,0.79505
508.7,25.58747,-2.76326,0.33273,0.79463
509.3,25.60681,-2.76419,0.32922,0.7942
509.9,25.6261,-2.76534,0.32887,0.79377
510.5,25.64537,-2.76605,0.32653,0.79334
511.1,25.66457,-2.76764,0.32499,0.79291
511.7,25.6838,-2.76778,0.32104,0.79249
512.3,25.70305,-2.76893,0.31724,0.79206
512.9,25.72225,-2.76914,0.31677,0.79163
513.5,25.74149,-2.77045,0.3167,0.7912
514.1,25.76067,-2.77133,0.31284,0.79077
514.7,25.77991,-2.77188,0.31105,0.79034
515.3,25.79915,-2.77221,0.31025,0.78991
515.9,25.81842,-2.77321,0.30681,0.78948
516.5,25.83769,-2.77413,0.30586,0.78906
517.1,25.85698,-2.77474,0.30585,0.78863
517.7,25.87629,-2.77519,0.30111,0.7882
518.3,25.89554,-2.7748,0.302,0.78777
518.9,25.9148,-2.77656,0.29514,0.78734
519.5,25.93405,-2.77661,0.29628,0.78691
520.1,25.9532,-2.77934,0.29427,0.78648
520.7,25.97246,-2.77934,0.28975,0.78605
521.3,25.99169,-2.78062,0.29274,0.78562
521.9,26.01095,-2.78066,0.28852,0.78519
522.5,26.0303,-2.78067,0.28832,0.78476
523.1,26.0496,-2.78175,0.28619,0.78433
523.7,26.06888,-2.78197,0.28285,0.7839
524.3,26.08819,-2.78194,0.28017,0.78347
524.9,26.10746,-2.78346,0.27837,0.78304
525.5,26.12676,-2.7834,0.27726,0.78261
526.1,26.14604,-2.78339,0.27303,0.78218
526.7,26.1654,-2.78302,0.27276,0.78175
527.3,26.18469,-2.78341,0.27288,0.78132
527.9,26.20403,-2.78468,0.26899,0.78089
528.5,26.2233,-2.78493,0.26694,0.78046
529.1,26.24261,-2.78765,0.26446,0.78002
529.7,26.26192,-2.78757,0.26337,0.77959
530.3,26.28122,-2.78771,0.26184,0.77916
530.9,26.3006,-2.78887,0.26221,0.77873
531.5,26.32,-2.7889,0.25992,0.7783
532.1,26.3394,-2.79032,0.25858,0.77787
532.7,26.3587,-2.7906,0.25524,0.77744
533.3,26.37803,-2.7917,0.25265,0.777
533.9,26.39735,-2.79317,0.25117,0.77657
534.5,26.41662,-2.79403,0.25168,0.77614
535.1,26.4358,-2.79399,0.25008,0.77571
535.7,26.455,-2.79553,0.24657,0.77528
536.3,26.4743,-2.79569,0.24713,0.77485
536.9,26.49373,-2.7957,0.24295,0.77441
537.5,26.51329,-2.79645,0.24135,0.77398
538.1,26.53272,-2.79701,0.24027,0.77355
538.7,26.55213,-2.7973,0.23792,0.77312
539.3,26.57146,-2.79831,0.2376,0.77268
539.9,26.59082,-2.79756,0.23969,0.77225
540.5,26.6102,-2.7983,0.23365,0.77182
541.1,26.6296,-2.79863,0.2326,0.77139
541.7,26.64895,-2.79962,0.23106,0.77095
542.3,26.6684,-2.79962,0.23162,0.77052
542.9,26.68775,-2.80076,0.22702,0.77009
543.5,26.70706,-2.80094,0.22806,0.76965
544.1,26.7265,-2.80199,0.22451,0.76922
544.7,26.7458,-2.80227,0.22365,0.76879
545.3,26.7653,-2.80225,0.22011,0.76835
545.9,26.78473,-2.8036,0.22192,0.76792
546.5,26.80415,-2.80378,0.2178,0.76749
547.1,26.8235,-2.80491,0.21772,0.76705
547.7,26.8429,-2.8049,0.21795,0.76662
548.3,26.8623,-2.80554,0.21533,0.76618
548.9,26.88172,-2.80621,0.21604,0.76575
549.5,26.9012,-2.80623,0.21271,0.76532
550.1,26.9206,-2.80705,0.21228,0.76488
550.7,26.94003,-2.80758,0.2117,0.76445
551.3,26.95944,-2.80885,0.21144,0.76401
551.9,26.97888,-2.80885,0.21017,0.76358
552.5,26.9983,-2.81015,0.21089,0.76314
553.1,27.01769,-2.81017,0.21079,0.76271
553.7,27.03708,-2.81017,0.21006,0.76228
554.3,27.0565,-2.81031,0.2091,0.76184
554.9,27.07583,-2.8114,0.20979,0.76141
555.5,27.0953,-2.81046,0.21112,0.76097
556.1,27.1147,-2.81186,0.20873,0.76054
556.7,27.134,-2.81182,0.2095,0.7601
557.3,27.1535,-2.81259,0.21097,0.75967
557.9,27.1729,-2.81313,0.21183,0.75923
558.5,27.1924,-2.81313,0.21165,0.7588
559.1,27.21183,-2.8144,0.21072,0.75836
559.7,27.2313,-2.81445,0.21047,0.75792
560.3,27.2507,-2.81525,0.21024,0.75749
560.9,27.2701,-2.81586,0.21434,0.75705
561.5,27.28945,-2.81599,0.21233,0.75662
562.1,27.3089,-2.8172,0.21269,0.75618
562.7,27.32834,-2.81714,0.21514,0.75575
563.3,27.3478,-2.81855,0.21613,0.75531
563.9,27.36725,-2.8185,0.21536,0.75487
564.5,27.38669,-2.81852,0.2155,0.75444
565.1,27.4061,-2.81982,0.21698,0.754
565.7,27.42555,-2.81982,0.21703,0.75356
566.3,27.445,-2.81982,0.21676,0.75313
566.9,27.46439,-2.8198,0.21647,0.75269
567.5,27.48385,-2.82108,0.21855,0.75226
568.1,27.5033,-2.82113,0.21732,0.75182
568.7,27.5228,-2.82111,0.2174,0.75138
569.3,27.5422,-2.82233,0.21754,0.75094
569.9,27.5617,-2.82246,0.21824,0.75051
570.5,27.5812,-2.82294,0.21557,0.75007
571.1,27.6006,-2.82513,0.21764,0.74963
571.7,27.62015,-2.82509,0.21679,0.7492
572.3,27.6396,-2.82508,0.21535,0.74876
572.9,27.659,-2.82639,0.21409,0.74832
573.5,27.67851,-2.8264,0.21419,0.74788
574.1,27.69805,-2.8264,0.21444,0.74745
574.7,27.7176,-2.8264,0.21283,0.74701
575.3,27.7371,-2.82635,0.21019,0.74657
575.9,27.75662,-2.82779,0.21104,0.74613
576.5,27.77613,-2.82703,0.20994,0.7457
577.1,27.79565,-2.82716,0.20854,0.74526
577.7,27.81516,-2.82839,0.20931,0.74482
578.3,27.83468,-2.82837,0.20824,0.74438
578.9,27.8542,-2.82837,0.20426,0.74394
579.5,27.87375,-2.82882,0.20509,0.74351
580.1,27.8934,-2.82969,0.20498,0.74307
580.7,27.9129,-2.82969,0.20368,0.74263
581.3,27.93249,-2.82969,0.20283,0.74219
581.9,27.952,-2.82998,0.19958,0.74175
582.5,27.97152,-2.83102,0.19992,0.74131
583.1,27.9909,-2.83096,0.20109,0.74088
583.7,28.01047,-2.83235,0.19734,0.74044
584.3,28.0301,-2.83232,0.19484,0.74
584.9,28.0496,-2.83232,0.19628,0.73956
585.5,28.06927,-2.83232,0.1962,0.73912
586.1,28.0889,-2.83295,0.19363,0.73868
586.7,28.10838,-2.83364,0.18975,0.73824
587.3,28.12795,-2.83361,0.18651,0.7378
587.9,28.1475,-2.83501,0.18783,0.73736
588.5,28.167,-2.83496,0.18241,0.73692
589.1,28.18658,-2.83461,0.18063,0.73648
589.7,28.20617,-2.83463,0.17859,0.73604
590.3,28.22571,-2.83462,0.17884,0.7356
590.9,28.2454,-2.83595,0.17321,0.73517
591.5,28.26497,-2.83594,0.17211,0.73473
592.1,28.2845,-2.83643,0.17122,0.73429
592.7,28.3041,-2.83725,0.17009,0.73385
593.3,28.32367,-2.83726,0.17093,0.73341
593.9,28.34331,-2.83761,0.16667,0.73297
594.5,28.363,-2.83856,0.1658,0.73253
595.1,28.38263,-2.8384,0.16269,0.73209
595.7,28.40227,-2.83887,0.15903,0.73164
596.3,28.42189,-2.83955,0.15746,0.7312
596.9,28.4415,-2.839,0.15715,0.73076
597.5,28.4612,-2.83877,0.15646,0.73032
598.1,28.4808,-2.83956,0.15555,0.72988
598.7,28.5004,-2.83956,0.15301,0.72944
599.3,28.5199,-2.84135,0.1509,0.729
599.9,28.5395,-2.84219,0.15066,0.72856
600.5,28.55919,-2.84219,0.15308,0.72812
601.1,28.57883,-2.84219,0.14716,0.72768
601.7,28.5986,-2.84219,0.14497,0.72724
602.3,28.6182,-2.84255,0.14709,0.7268
602.9,28.63785,-2.8423,0.14519,0.72636
603.5,28.65751,-2.8425,0.14259,0.72591
604.1,28.67711,-2.84363,0.14213,0.72547
604.7,28.6968,-2.84362,0.13846,0.72503
605.3,28.71642,-2.84395,0.13757,0.72459
605.9,28.73609,-2.84493,0.1393,0.72415
606.5,28.7557,-2.84492,0.14008,0.72371
607.1,28.7754,-2.84614,0.13517,0.72327
607.7,28.79512,-2.84508,0.13441,0.72282
608.3,28.81483,-2.84493,0.13109,0.72238
608.9,28.83452,-2.84545,0.13237,0.72194
609.5,28.8542,-2.84625,0.1306,0.7215
610.1,28.8739,-2.84625,0.12831,0.72106
610.7,28.8936,-2.84625,0.12556,0.72061
611.3,28.9133,-2.84627,0.12748,0.72017
611.9,28.933,-2.84757,0.12269,0.71973
612.5,28.9526,-2.84756,0.12622,0.71929
613.1,28.97236,-2.84755,0.12267,0.71884
613.7,28.99209,-2.84889,0.12558,0.7184
614.3,29.01179,-2.84888,0.12324,0.71796
614.9,29.0315,-2.84887,0.12004,0.71752
615.5,29.05116,-2.85017,0.12178,0.71707
616.1,29.07075,-2.8502,0.12162,0.71663
616.7,29.09042,-2.8502,0.11669,0.71619
617.3,29.1101,-2.85021,0.11706,0.71575
617.9,29.12984,-2.85093,0.11418,0.7153
618.5,29.1497,-2.85149,0.11572,0.71486
619.1,29.16937,-2.85043,0.11104,0.71442
619.7,29.18918,-2.85046,0.11148,0.71397
620.3,29.20893,-2.85151,0.10904,0.71353
620.9,29.2287,-2.85152,0.10783,0.71309
621.5,29.24842,-2.85159,0.10449,0.71264
622.1,29.26807,-2.85285,0.10775,0.7122
622.7,29.2878,-2.85288,0.10699,0.71176
623.3,29.30749,-2.85417,0.10901,0.71131
623.9,29.32728,-2.85416,0.10964,0.71087
624.5,29.3471,-2.85496,0.10457,0.71043
625.1,29.36692,-2.85546,0.10562,0.70998
625.7,29.38669,-2.85546,0.10226,0.70954
626.3,29.4064,-2.85584,0.10364,0.70909
626.9,29.42612,-2.85676,0.1042,0.70865
627.5,29.4459,-2.85547,0.10274,0.70821
628.1,29.4656,-2.85547,0.10092,0.70776
628.7,29.48537,-2.85547,0.10366,0.70732
629.3,29.5051,-2.85547,0.10271,0.70687
629.9,29.5248,-2.85572,0.10243,0.70643
630.5,29.54458,-2.85679,0.10203,0.70598
631.1,29.5643,-2.85678,0.09964857,0.70554
631.7,29.58407,-2.85696,0.09911466,0.7051
632.3,29.60381,-2.85913,0.09978543,0.70465
632.9,29.62361,-2.85908,0.10098,0.70421
633.5,29.6434,-2.85908,0.1004,0.70376
634.1,29.6632,-2.85909,0.10253,0.70332
634.7,29.68297,-2.86019,0.10124,0.70287
635.3,29.7027,-2.86039,0.10252,0.70243
635.9,29.7225,-2.85935,0.10296,0.70198
636.5,29.7423,-2.85909,0.10314,0.70154
637.1,29.7621,-2.8597,0.10308,0.70109
637.7,29.78179,-2.86039,0.10122,0.70065
638.3,29.8015,-2.8604,0.10216,0.7002
638.9,29.82126,-2.86039,0.10259,0.69976
639.5,29.84082,-2.86188,0.10079,0.69931
640.1,29.8604,-2.86205,0.10249,0.69887
640.7,29.88014,-2.86204,0.10357,0.69842
641.3,29.9001,-2.8634,0.10604,0.69797
641.9,29.92006,-2.86337,0.10536,0.69753
642.5,29.9401,-2.86338,0.10479,0.69708
643.1,29.9599,-2.86535,0.10397,0.69664
643.7,29.97965,-2.86533,0.11189,0.69619
644.3,29.99938,-2.86533,0.11263,0.69575
644.9,30.0191,-2.86533,0.11374,0.6953
645.5,30.03892,-2.86596,0.11399,0.69485
646.1,30.0587,-2.86665,0.11745,0.69441
646.7,30.0784,-2.86639,0.12028,0.69396
647.3,30.0982,-2.8653,0.12113,0.69352
647.9,30.118,-2.86667,0.12386,0.69307
648.5,30.1379,-2.86666,0.12496,0.69262
649.1,30.1578,-2.86789,0.12806,0.69218
649.7,30.17762,-2.86797,0.12857,0.69173
650.3,30.19745,-2.86795,0.13423,0.69128
650.9,30.2173,-2.86924,0.13286,0.69084
651.5,30.2371,-2.86929,0.13783,0.69039
652.1,30.2569,-2.86946,0.14179,0.68995
652.7,30.27678,-2.87061,0.14219,0.6895
653.3,30.29663,-2.8706,0.14174,0.68905
653.9,30.3165,-2.87065,0.14422,0.6886
654.5,30.3364,-2.86924,0.14891,0.68816
655.1,30.3562,-2.86941,0.15477,0.68771
655.7,30.37606,-2.87062,0.15332,0.68726
656.3,30.39586,-2.87061,0.1579,0.68682
656.9,30.4156,-2.87163,0.16311,0.68637
657.5,30.43542,-2.87187,0.16333,0.68592
658.1,30.45523,-2.87324,0.16633,0.68548
658.7,30.475,-2.8746,0.16838,0.68503
659.3,30.49489,-2.87455,0.17586,0.68458
659.9,30.51472,-2.87455,0.17685,0.68413
660.5,30.5345,-2.87455,0.18151,0.68369
661.1,30.55442,-2.87471,0.18221,0.68324
661.7,30.5742,-2.87449,0.18578,0.68279
662.3,30.594,-2.87465,0.18937,0.68234
662.9,30.6138,-2.87585,0.19273,0.6819
663.5,30.6334,-2.87591,0.1989,0.68145
664.1,30.65312,-2.87717,0.20321,0.681
664.7,30.6729,-2.87718,0.20791,0.68055
665.3,30.69295,-2.87719,0.21086,0.6801
665.9,30.71299,-2.87851,0.21686,0.67966
666.5,30.7329,-2.87852,0.2193,0.67921
667.1,30.75272,-2.87992,0.22511,0.67876
667.7,30.77252,-2.87992,0.23155,0.67831
668.3,30.79236,-2.8809,0.23765,0.67786
668.9,30.81216,-2.88124,0.24011,0.67742
669.5,30.83196,-2.88153,0.24807,0.67697
670.1,30.85176,-2.88267,0.25219,0.67652
670.7,30.8716,-2.88292,0.25969,0.67607
671.3,30.8914,-2.88399,0.26587,0.67562
671.9,30.9112,-2.88397,0.27586,0.67517
672.5,30.93095,-2.88526,0.28064,0.67473
673.1,30.95062,-2.88525,0.28846,0.67428
673.7,30.97032,-2.88665,0.29834,0.67383
674.3,30.98997,-2.88656,0.3045,0.67338
674.9,31.00978,-2.88797,0.31062,0.67293
675.5,31.02968,-2.88793,0.32067,0.67248
676.1,31.0497,-2.88863,0.3292,0.67203
676.7,31.06972,-2.88937,0.33826,0.67159
677.3,31.08982,-2.89047,0.34757,0.67114
677.9,31.1097,-2.89065,0.35501,0.67069
678.5,31.12955,-2.89196,0.36811,0.67024
679.1,31.1494,-2.89237,0.37711,0.66979
679.7,31.1692,-2.89362,0.38487,0.66934
680.3,31.189,-2.89426,0.39734,0.66889
680.9,31.20883,-2.89506,0.40289,0.66844
681.5,31.22846,-2.89562,0.41589,0.66799
682.1,31.24825,-2.89715,0.42974,0.66754
682.7,31.2681,-2.89845,0.43912,0.66709
683.3,31.28802,-2.89882,0.44871,0.66664
683.9,31.308,-2.90019,0.46043,0.66619
684.5,31.32795,-2.90151,0.47462,0.66575
685.1,31.34783,-2.90229,0.48197,0.6653
685.7,31.3677,-2.90344,0.49305,0.66485
686.3,31.3876,-2.90435,0.50567,0.6644
686.9,31.40745,-2.90354,0.51564,0.66395
687.5,31.4273,-2.90483,0.52895,0.6635
688.1,31.4471,-2.90489,0.54236,0.66305
688.7,31.4669,-2.90622,0.55653,0.6626
689.3,31.4866,-2.90742,0.56736,0.66215
689.9,31.5065,-2.90782,0.57846,0.6617
690.5,31.52634,-2.90942,0.59184,0.66125
691.1,31.54624,-2.91045,0.60321,0.6608
691.7,31.5663,-2.91086,0.6179,0.66035
692.3,31.5862,-2.9124,0.6304,0.6599
692.9,31.6061,-2.91275,0.6456,0.65945
693.5,31.626,-2.91392,0.65864,0.659
694.1,31.6459,-2.91568,0.66971,0.65855
694.7,31.66579,-2.91677,0.68679,0.6581
695.3,31.6857,-2.91721,0.69738,0.65765
695.9,31.70555,-2.91852,0.71419,0.6572
696.5,31.7255,-2.91913,0.72741,0.65674
697.1,31.7454,-2.92055,0.74007,0.65629
697.7,31.7653,-2.92265,0.75389,0.65584
698.3,31.78518,-2.92421,0.76595,0.65539
698.9,31.8051,-2.92613,0.78079,0.65494
699.5,31.82491,-2.92776,0.79319,0.65449
700.1,31.84477,-2.92846,0.80441,0.65404
700.7,31.8647,-2.92946,0.81903,0.65359
701.3,31.8846,-2.9314,0.83619,0.65314
701.9,31.90452,-2.93299,0.84913,0.65269
702.5,31.92444,-2.93414,0.86022,0.65224
703.1,31.9443,-2.93586,0.87705,0.65179
703.7,31.96415,-2.93705,0.88582,0.65134
704.3,31.98408,-2.93833,0.89985,0.65089
704.9,32.00401,-2.94011,0.91614,0.65043
705.5,32.02397,-2.94179,0.92759,0.64998
706.1,32.04384,-2.94266,0.9425,0.64953
706.7,32.06378,-2.94423,0.95545,0.64908
707.3,32.0837,-2.94587,0.97012,0.64863
707.9,32.1036,-2.94787,0.98056,0.64818
708.5,32.1235,-2.94945,0.99267,0.64773
709.1,32.14338,-2.95003,1.0073,0.64728
709.7,32.16329,-2.95115,1.01694,0.64682
710.3,32.1833,-2.95303,1.03009,0.64637
710.9,32.20325,-2.95472,1.04311,0.64592
711.5,32.22319,-2.9561,1.05705,0.64547
712.1,32.2431,-2.95673,1.06885,0.64502
712.7,32.26296,-2.95853,1.07786,0.64457
713.3,32.2829,-2.9606,1.09437,0.64412
713.9,32.3029,-2.96289,1.10369,0.64366
714.5,32.32285,-2.96409,1.11189,0.64321
715.1,32.34284,-2.96562,1.12537,0.64276
715.7,32.36275,-2.96768,1.13049,0.64231
716.3,32.3827,-2.97004,1.14094,0.64186
716.9,32.40274,-2.97243,1.14766,0.6414
717.5,32.42279,-2.97407,1.15362,0.64095
718.1,32.44279,-2.97576,1.16137,0.6405
718.7,32.4627,-2.97752,1.16728,0.64005
719.3,32.48264,-2.97924,1.17927,0.6396
719.9,32.5026,-2.9797,1.18262,0.63915
720.5,32.52262,-2.9812,1.18868,0.63869
721.1,32.54251,-2.98338,1.19182,0.63824
721.7,32.5625,-2.98539,1.19387,0.63779
722.3,32.58247,-2.9867,1.19645,0.63734
722.9,32.60241,-2.98826,1.19969,0.63688
723.5,32.62235,-2.98994,1.2018,0.63643
724.1,32.6423,-2.9918,1.20121,0.63598
724.7,32.66231,-2.99379,1.20399,0.63553
725.3,32.68227,-2.99575,1.20153,0.63508
725.9,32.70231,-2.9975,1.19873,0.63462
726.5,32.72227,-2.99945,1.19573,0.63417
727.1,32.74221,-3.00092,1.19488,0.63372
727.7,32.7622,-3.00247,1.18756,0.63327
728.3,32.7821,-3.00477,1.18798,0.63281
728.9,32.80207,-3.00806,1.18253,0.63236
729.5,32.822,-3.01029,1.18167,0.63191
730.1,32.842,-3.01183,1.17389,0.63146
730.7,32.86197,-3.01295,1.17279,0.631
731.3,32.88197,-3.01463,1.16526,0.63055
731.9,32.90195,-3.01634,1.16208,0.6301
732.5,32.9219,-3.01801,1.15648,0.62965
733.1,32.94194,-3.01932,1.1504,0.62919
733.7,32.96202,-3.02102,1.14171,0.62874
734.3,32.98195,-3.02283,1.13438,0.62829
734.9,33.0019,-3.02499,1.12513,0.62783
735.5,33.02187,-3.02697,1.11311,0.62738
736.1,33.04183,-3.02895,1.09975,0.62693
736.7,33.06185,-3.0309,1.08065,0.62648
737.3,33.08186,-3.03314,1.05864,0.62602
737.9,33.1019,-3.03468,1.03345,0.62557
738.5,33.12178,-3.03609,0.99773,0.62512
739.1,33.14176,-3.03662,0.96381,0.62466
739.7,33.16168,-3.03716,0.92123,0.62421
740.3,33.18168,-3.039,0.86964,0.62376
740.9,33.2017,-3.04077,0.81148,0.6233
741.5,33.22167,-3.04176,0.73786,0.62285
742.1,33.24171,-3.04233,0.64919,0.6224
742.7,33.26167,-3.04404,0.54122,0.62194
743.3,33.28167,-3.04419,0.42029,0.62149
743.9,33.30167,-3.04475,0.3092,0.62104
744.5,33.32162,-3.04404,0.21754,0.62058
745.1,33.34163,-3.04498,0.14301,0.62013
745.7,33.36161,-3.04534,0.08428589,0.61968
746.3,33.38157,-3.04628,0.03814565,0.61923
746.9,33.4015,-3.04665,0.001813693,0.61877
747.5,33.42143,-3.04681,-0.03357973,0.61832
748.1,33.4414,-3.04796,-0.06091745,0.61786
748.7,33.46139,-3.04797,-0.08258382,0.61741
749.3,33.48141,-3.04793,-0.09538481,0.61696
749.9,33.50142,-3.04897,-0.11073,0.6165
750.5,33.52148,-3.04895,-0.12211,0.61605
751.1,33.54148,-3.04889,-0.13825,0.6156
751.7,33.5614,-3.04798,-0.14575,0.61514
752.3,33.58144,-3.04796,-0.14925,0.61469
752.9,33.60145,-3.04795,-0.15649,0.61424
753.5,33.62148,-3.04912,-0.16078,0.61378
754.1,33.64147,-3.04928,-0.16827,0.61333
754.7,33.66144,-3.04934,-0.168,0.61288
755.3,33.6815,-3.05062,-0.17325,0.61242
755.9,33.70152,-3.05059,-0.17607,0.61197
756.5,33.7216,-3.05176,-0.17629,0.61151
757.1,33.7417,-3.05196,-0.18229,0.61106
757.7,33.76168,-3.05055,-0.18634,0.61061
758.3,33.78168,-3.0506,-0.18949,0.61015
758.9,33.8017,-3.0506,-0.19331,0.6097
759.5,33.82172,-3.0506,-0.19565,0.60925
760.1,33.84173,-3.0506,-0.19651,0.60879
760.7,33.8617,-3.0506,-0.19895,0.60834
761.3,33.88177,-3.0506,-0.19897,0.60788
761.9,33.9018,-3.05118,-0.20483,0.60743
762.5,33.9219,-3.0519,-0.20393,0.60698
763.1,33.94194,-3.05191,-0.2054,0.60652
763.7,33.96197,-3.05191,-0.20841,0.60607
764.3,33.982,-3.05191,-0.20893,0.60561
764.9,34.00206,-3.05191,-0.21289,0.60516
765.5,34.0221,-3.05212,-0.21411,0.60471
766.1,34.04208,-3.05235,-0.21715,0.60425
766.7,34.06211,-3.05224,-0.22084,0.6038
767.3,34.08217,-3.05225,-0.21879,0.60334
767.9,34.10222,-3.05326,-0.21942,0.60289
768.5,34.12227,-3.05355,-0.22193,0.60244
769.1,34.14229,-3.05353,-0.21758,0.60198
769.7,34.16234,-3.05475,-0.22258,0.60153
770.3,34.18245,-3.05487,-0.22476,0.60107
770.9,34.2025,-3.05487,-0.22806,0.60062
771.5,34.22255,-3.05487,-0.22749,0.60017
772.1,34.24256,-3.05487,-0.22633,0.59971
772.7,34.26255,-3.05487,-0.23182,0.59926
773.3,34.28257,-3.05487,-0.23206,0.5988
773.9,34.30263,-3.05487,-0.23398,0.59835
774.5,34.32264,-3.05487,-0.23639,0.59789
775.1,34.3427,-3.05485,-0.2385,0.59744
775.7,34.3628,-3.0561,-0.24124,0.59699
776.3,34.3829,-3.05619,-0.24208,0.59653
776.9,34.40291,-3.05619,-0.24113,0.59608
777.5,34.423,-3.05654,-0.2438,0.59562
778.1,34.443,-3.05721,-0.24676,0.59517
778.7,34.46311,-3.05721,-0.24398,0.59471
779.3,34.48318,-3.05717,-0.24588,0.59426
779.9,34.50322,-3.05717,-0.2485,0.59381
780.5,34.52335,-3.05724,-0.24958,0.59335
781.1,34.54347,-3.05653,-0.25408,0.5929
781.7,34.56347,-3.05645,-0.25202,0.59244
782.3,34.58348,-3.05717,-0.25607,0.59199
782.9,34.6035,-3.05718,-0.25786,0.59153
783.5,34.62358,-3.05718,-0.25463,0.59108
784.1,34.64371,-3.05718,-0.25808,0.59063
784.7,34.66384,-3.05719,-0.25944,0.59017
785.3,34.68391,-3.05837,-0.26261,0.58972
785.9,34.70402,-3.0585,-0.26359,0.58926
786.5,34.7241,-3.0585,-0.26826,0.58881
787.1,34.74413,-3.0585,-0.26511,0.58835
787.7,34.7642,-3.0585,-0.26807,0.5879
788.3,34.7842,-3.0585,-0.27018,0.58744
788.9,34.80423,-3.0585,-0.27541,0.58699
789.5,34.82434,-3.05851,-0.27515,0.58654
790.1,34.8444,-3.05972,-0.27511,0.58608
790.7,34.86452,-3.05981,-0.27223,0.58563
791.3,34.88467,-3.05981,-0.27677,0.58517
791.9,34.9047,-3.05981,-0.27899,0.58472
792.5,34.92473,-3.05981,-0.2789,0.58426
793.1,34.94481,-3.06006,-0.27964,0.58381
793.7,34.9649,-3.06113,-0.2844,0.58335
794.3,34.98506,-3.06113,-0.28315,0.5829
794.7,34.99864,-3.06113,-0.2885,0.5826