File: 01_Data/Polyester_Microfiber_Sheet/STA/N2/10K_min/Polyester_Microfiber_Sheet_STA_N2_10KData_220527_R3.csv
##Temp./Â°C,Time/min,Mass loss(subtr.2)/mg,DSC(subtr.2)/(mW/mg),Sensit./(uV/mW)
49.688,10.01,0.0237,0.001454919,1.07018
50.288,10.73685,0.02312882,0.02971571,1.07002
50.888,10.9267,0.02549047,0.0547543,1.06985
51.488,11.06927,0.02535966,0.07279033,1.06969
52.088,11.1887,0.02525025,0.0868768,1.06952
52.688,11.29461,0.02732785,0.10082,1.06935
53.288,11.39107,0.02809465,0.1146,1.06919
53.888,11.48047,0.02671865,0.12307,1.06902
54.488,11.5663,0.02677048,0.13473,1.06885
55.088,11.64894,0.02683986,0.14232,1.06869
55.688,11.72921,0.02539434,0.14977,1.06852
56.288,11.80649,0.02670019,0.15659,1.06835
56.888,11.88135,0.02676666,0.16153,1.06818
57.488,11.95463,0.02744093,0.16753,1.06801
58.088,12.0266,0.02734256,0.17248,1.06784
58.688,12.09735,0.02810127,0.17585,1.06767
59.288,12.16729,0.02685409,0.18012,1.0675
59.888,12.2365,0.02675309,0.18396,1.06733
60.488,12.30513,0.02673317,0.18535,1.06716
61.088,12.37268,0.02842709,0.18741,1.06699
61.688,12.4398,0.02994707,0.19136,1.06682
62.288,12.50675,0.02978594,0.1945,1.06664
62.888,12.57375,0.02856895,0.19691,1.06647
63.488,12.6401,0.02864969,0.19914,1.0663
64.088,12.70582,0.02712317,0.20067,1.06612
64.688,12.77127,0.02721911,0.20289,1.06595
65.288,12.8362,0.02724563,0.20481,1.06578
65.888,12.90094,0.02853038,0.2075,1.0656
66.488,12.9656,0.028031,0.20945,1.06543
67.088,13.03004,0.0271121,0.21249,1.06525
67.688,13.09473,0.02866325,0.21314,1.06508
68.288,13.1593,0.0288073,0.21444,1.0649
68.888,13.22349,0.02877799,0.21832,1.06472
69.488,13.2874,0.02855203,0.21958,1.06455
70.088,13.35092,0.02853958,0.22136,1.06437
70.688,13.4146,0.02985913,0.2224,1.06419
71.288,13.47817,0.02984988,0.22334,1.06401
71.888,13.54165,0.02918379,0.22154,1.06384
72.488,13.60544,0.02952018,0.22551,1.06366
73.088,13.66881,0.02822334,0.22448,1.06348
73.688,13.73224,0.0298941,0.22429,1.0633
74.288,13.7951,0.0301304,0.22568,1.06312
74.888,13.85779,0.02907686,0.22369,1.06294
75.488,13.91976,0.02888063,0.22088,1.06276
76.088,13.98218,0.02853051,0.21949,1.06258
76.688,14.04468,0.02957634,0.21834,1.0624
77.288,14.1076,0.02858095,0.21624,1.06222
77.888,14.1698,0.02984994,0.21496,1.06203
78.488,14.23165,0.02987168,0.21217,1.06185
79.088,14.29349,0.03115069,0.21091,1.06167
79.688,14.35529,0.03239811,0.21051,1.06148
80.288,14.417,0.03116985,0.20907,1.0613
80.888,14.4786,0.03112437,0.20928,1.06112
81.488,14.54016,0.03116964,0.20802,1.06093
82.088,14.6017,0.02983008,0.20494,1.06075
82.688,14.6632,0.03116893,0.20259,1.06056
83.288,14.7246,0.02976611,0.20203,1.06038
83.888,14.78568,0.03041807,0.19953,1.06019
84.488,14.84695,0.03177424,0.19911,1.06001
85.088,14.908,0.03319316,0.19721,1.05982
85.688,14.9688,0.03051668,0.19831,1.05963
86.288,15.0296,0.03051007,0.19586,1.05945
86.888,15.08999,0.02984923,0.1966,1.05926
87.488,15.15054,0.03050997,0.19674,1.05907
88.088,15.21086,0.03051002,0.19642,1.05888
88.688,15.27121,0.03011526,0.19509,1.05869
89.288,15.3312,0.0305102,0.19501,1.0585
89.888,15.39115,0.03088816,0.19311,1.05831
90.488,15.45149,0.03077764,0.19458,1.05812
91.088,15.5115,0.03050996,0.19445,1.05793
91.688,15.57136,0.03129895,0.19564,1.05774
92.288,15.6312,0.03084018,0.19583,1.05755
92.888,15.6907,0.03049729,0.19549,1.05736
93.488,15.7501,0.03183228,0.19571,1.05717
94.088,15.8097,0.03182421,0.1952,1.05698
94.688,15.8691,0.03181978,0.19669,1.05678
95.288,15.92852,0.03056527,0.19736,1.05659
95.888,15.9879,0.0305098,0.19728,1.0564
96.488,16.04703,0.03169669,0.19549,1.0562
97.088,16.1061,0.03183045,0.19778,1.05601
97.688,16.16527,0.03056802,0.19905,1.05581
98.288,16.22426,0.03192652,0.20092,1.05562
98.888,16.28345,0.03182039,0.20016,1.05542
99.488,16.34255,0.03050659,0.20095,1.05523
100.088,16.40175,0.03051063,0.20351,1.05503
100.688,16.46051,0.03183175,0.20556,1.05484
101.288,16.51924,0.03186812,0.20576,1.05464
101.888,16.57822,0.03175674,0.20685,1.05444
102.488,16.63734,0.03051093,0.20602,1.05424
103.088,16.6965,0.03051014,0.20802,1.05405
103.688,16.75538,0.03191569,0.2085,1.05385
104.288,16.81431,0.03183015,0.21085,1.05365
104.888,16.87312,0.03324579,0.2117,1.05345
105.488,16.93196,0.03314998,0.21243,1.05325
106.088,16.9907,0.03310649,0.21533,1.05305
106.688,17.04907,0.0331584,0.21808,1.05285
107.288,17.1079,0.03315001,0.21685,1.05265
107.888,17.16659,0.03315153,0.21997,1.05245
108.488,17.22535,0.0333131,0.21932,1.05225
109.088,17.28405,0.03250077,0.22041,1.05204
109.688,17.34238,0.0321147,0.2227,1.05184
110.288,17.4009,0.03325002,0.22378,1.05164
110.888,17.45935,0.03325,0.22509,1.05144
111.488,17.51812,0.03325,0.22642,1.05123
112.088,17.57666,0.03326072,0.22682,1.05103
112.688,17.63477,0.03326,0.22831,1.05082
113.288,17.69333,0.03325984,0.23049,1.05062
113.888,17.7519,0.03356601,0.232,1.05041
114.488,17.81072,0.03326002,0.23418,1.05021
115.088,17.86962,0.0332599,0.23334,1.05
115.688,17.92802,0.03455675,0.23498,1.0498
116.288,17.9865,0.03456999,0.23554,1.04959
116.888,18.04501,0.03456824,0.23615,1.04938
117.488,18.10334,0.03324056,0.23983,1.04918
118.088,18.16167,0.03456013,0.2385,1.04897
118.688,18.22044,0.03322656,0.24236,1.04876
119.288,18.27894,0.03325365,0.24225,1.04855
119.888,18.3374,0.03391097,0.24423,1.04834
120.488,18.39593,0.03392014,0.2448,1.04813
121.088,18.45415,0.03455983,0.24432,1.04792
121.688,18.51241,0.03456681,0.24894,1.04771
122.288,18.57075,0.03588903,0.24823,1.0475
122.888,18.62912,0.03458291,0.24918,1.04729
123.488,18.6874,0.03588263,0.25057,1.04708
124.088,18.7458,0.03589,0.25252,1.04687
124.688,18.80363,0.03589,0.25393,1.04666
125.288,18.86187,0.03588494,0.25549,1.04645
125.888,18.92008,0.03457016,0.25709,1.04623
126.488,18.9783,0.03588942,0.26072,1.04602
127.088,19.03633,0.0359064,0.26301,1.04581
127.688,19.0942,0.0358903,0.26517,1.04559
128.288,19.15217,0.03516976,0.26404,1.04538
128.888,19.2103,0.03523002,0.26667,1.04516
129.488,19.2688,0.03386002,0.26661,1.04495
130.088,19.327,0.03522687,0.26738,1.04473
130.688,19.3853,0.03556231,0.26849,1.04452
131.288,19.44355,0.03556,0.2692,1.0443
131.888,19.50091,0.03556,0.27171,1.04408
132.488,19.55895,0.03556,0.27128,1.04387
133.088,19.61684,0.03556037,0.27301,1.04365
133.688,19.67486,0.03486722,0.27342,1.04343
134.288,19.73343,0.03425058,0.27329,1.04321
134.888,19.7914,0.03561932,0.27527,1.04299
135.488,19.84947,0.035563,0.27393,1.04277
136.088,19.90737,0.03556001,0.27611,1.04256
136.688,19.96526,0.03556,0.27614,1.04234
137.288,20.02287,0.03555942,0.27705,1.04211
137.888,20.08075,0.03422201,0.27735,1.04189
138.488,20.13844,0.03555591,0.27856,1.04167
139.088,20.1964,0.03555996,0.27959,1.04145
139.688,20.25431,0.03547805,0.2797,1.04123
140.288,20.31245,0.03687988,0.28141,1.04101
140.888,20.37027,0.03688,0.28163,1.04078
141.488,20.42815,0.03687962,0.28193,1.04056
142.088,20.4859,0.03814507,0.2819,1.04034
142.688,20.5436,0.0381801,0.28313,1.04011
143.288,20.60119,0.0368681,0.28323,1.03989
143.888,20.65887,0.03814903,0.28385,1.03967
144.488,20.71646,0.03818998,0.28505,1.03944
145.088,20.77423,0.03826258,0.28503,1.03921
145.688,20.8321,0.03655751,0.28771,1.03899
146.288,20.8898,0.03555987,0.28872,1.03876
146.888,20.94745,0.03629877,0.28817,1.03854
147.488,21.00469,0.03687997,0.2894,1.03831
148.088,21.06223,0.03678411,0.28842,1.03808
148.688,21.12005,0.03687994,0.29142,1.03785
149.288,21.17775,0.03688,0.29125,1.03763
149.888,21.23561,0.03688003,0.29205,1.0374
150.488,21.2931,0.03692435,0.29248,1.03717
151.088,21.35071,0.0362194,0.29143,1.03694
151.688,21.40814,0.03755872,0.29446,1.03671
152.288,21.466,0.03754002,0.29444,1.03648
152.888,21.5237,0.03754,0.29633,1.03625
153.488,21.58118,0.03754,0.29636,1.03602
154.088,21.6387,0.03754,0.29874,1.03578
154.688,21.69601,0.03752087,0.29864,1.03555
155.288,21.75328,0.03688138,0.29817,1.03532
155.888,21.81045,0.03688333,0.29973,1.03509
156.488,21.86763,0.03655585,0.29912,1.03485
157.088,21.92491,0.03671223,0.30102,1.03462
157.688,21.98225,0.03689149,0.30059,1.03439
158.288,22.03979,0.03819993,0.30112,1.03415
158.888,22.09734,0.0382,0.30238,1.03392
159.488,22.15455,0.03820453,0.30277,1.03368
160.088,22.21184,0.03763471,0.30411,1.03345
160.688,22.26909,0.03820008,0.30386,1.03321
161.288,22.32624,0.03830659,0.3049,1.03298
161.888,22.38358,0.03720259,0.30656,1.03274
162.488,22.44106,0.03687887,0.30668,1.0325
163.088,22.4984,0.03785854,0.30841,1.03226
163.688,22.55585,0.03917856,0.31009,1.03203
164.288,22.6131,0.03917404,0.31014,1.03179
164.888,22.67031,0.03818835,0.309,1.03155
165.488,22.72766,0.03742869,0.31134,1.03131
166.088,22.78491,0.03686335,0.3093,1.03107
166.688,22.84214,0.03818659,0.31312,1.03083
167.288,22.89941,0.0372017,0.31274,1.03059
167.888,22.95665,0.0372,0.31312,1.03035
168.488,23.01401,0.0372,0.31325,1.03011
169.088,23.07115,0.0372,0.31383,1.02987
169.688,23.12874,0.0372,0.31548,1.02962
170.288,23.18564,0.03724322,0.31517,1.02938
170.888,23.2428,0.04038637,0.31492,1.02914
171.488,23.30026,0.03971099,0.31474,1.0289
172.088,23.3577,0.03689159,0.31633,1.02865
172.688,23.41498,0.03623807,0.31587,1.02841
173.288,23.47244,0.03563466,0.31745,1.02816
173.888,23.52974,0.03622002,0.31808,1.02792
174.488,23.58664,0.03622014,0.31846,1.02767
175.088,23.64394,0.03763735,0.3199,1.02743
175.688,23.7011,0.03754002,0.31998,1.02718
176.288,23.75836,0.03754,0.31994,1.02694
176.888,23.8161,0.03754,0.32198,1.02669
177.488,23.87344,0.03754033,0.32142,1.02644
178.088,23.93054,0.03622745,0.32357,1.02619
178.688,23.98776,0.03622147,0.32325,1.02595
179.288,24.04475,0.03613376,0.32235,1.0257
179.888,24.10215,0.03621997,0.323,1.02545
180.488,24.15975,0.03622014,0.32387,1.0252
181.088,24.2171,0.0375706,0.32331,1.02495
181.688,24.27435,0.03717449,0.32546,1.0247
182.288,24.33135,0.03721651,0.32497,1.02445
182.888,24.388,0.03753574,0.32515,1.0242
183.488,24.44519,0.03752992,0.32552,1.02395
184.088,24.50235,0.03802245,0.3264,1.02369
184.688,24.5595,0.03852003,0.32747,1.02344
185.288,24.61692,0.03851902,0.329,1.02319
185.888,24.67401,0.03714758,0.32893,1.02294
186.488,24.7312,0.03719999,0.32987,1.02268
187.088,24.78799,0.03718902,0.33007,1.02243
187.688,24.84517,0.03588658,0.3315,1.02217
188.288,24.90221,0.03589,0.33064,1.02192
188.888,24.95905,0.03588978,0.3314,1.02166
189.488,25.0163,0.03719043,0.33221,1.02141
190.088,25.0734,0.03720999,0.333,1.02115
190.688,25.1308,0.03721,0.33284,1.0209
191.288,25.18818,0.03721,0.33225,1.02064
191.888,25.2453,0.03721,0.33112,1.02038
192.488,25.30254,0.03720997,0.3319,1.02012
193.088,25.35952,0.03722174,0.33323,1.01987
193.688,25.4166,0.0372094,0.33469,1.01961
194.288,25.47341,0.03720478,0.33644,1.01935
194.888,25.53051,0.03874885,0.33749,1.01909
195.488,25.58769,0.03883467,0.3381,1.01883
196.088,25.64475,0.03743014,0.33673,1.01857
196.688,25.70206,0.03743,0.33735,1.01831
197.288,25.75909,0.03742914,0.33971,1.01805
197.888,25.81631,0.03610452,0.34085,1.01779
198.488,25.87322,0.03610999,0.34079,1.01753
199.088,25.9302,0.03610974,0.34019,1.01726
199.688,25.98719,0.03743382,0.34005,1.017
200.288,26.0444,0.03743002,0.34124,1.01674
200.888,26.10141,0.03744398,0.34167,1.01647
201.488,26.15839,0.03610956,0.34256,1.01621
202.088,26.2155,0.03747487,0.34286,1.01595
202.688,26.27236,0.03743002,0.34312,1.01568
203.288,26.3294,0.03743006,0.34301,1.01542
203.888,26.3865,0.03706393,0.34477,1.01515
204.488,26.4436,0.03708999,0.34537,1.01488
205.088,26.5008,0.03709008,0.34547,1.01462
205.688,26.5579,0.03628337,0.34621,1.01435
206.288,26.6149,0.03611014,0.34666,1.01408
206.888,26.672,0.03611,0.34623,1.01382
207.488,26.72901,0.03611,0.34813,1.01355
208.088,26.786,0.03611,0.34897,1.01328
208.688,26.8429,0.03610997,0.35021,1.01301
209.288,26.89985,0.03611305,0.35055,1.01274
209.888,26.95686,0.03577989,0.35298,1.01247
210.488,27.0139,0.03578053,0.35116,1.0122
211.088,27.0708,0.03610479,0.35214,1.01193
211.688,27.12782,0.03577891,0.35355,1.01166
212.288,27.18488,0.03578,0.35405,1.01139
212.888,27.24192,0.03578,0.35521,1.01112
213.488,27.29908,0.03578,0.35501,1.01084
214.088,27.35622,0.03688224,0.35557,1.01057
214.688,27.41338,0.03610886,0.35745,1.0103
215.288,27.47036,0.03578187,0.35648,1.01003
215.888,27.5276,0.03578,0.35804,1.00975
216.488,27.5847,0.03580339,0.35745,1.00948
217.088,27.6417,0.03710035,0.35882,1.0092
217.688,27.69865,0.03710002,0.36035,1.00893
218.288,27.75562,0.03719537,0.36152,1.00865
218.888,27.81258,0.03578015,0.3643,1.00838
219.488,27.8695,0.03577173,0.36069,1.0081
220.088,27.92639,0.0347916,0.36613,1.00782
220.688,27.98315,0.03496525,0.36528,1.00754
221.288,28.0403,0.03710063,0.36614,1.00727
221.888,28.09736,0.03708715,0.36715,1.00699
222.488,28.1547,0.0357764,0.36872,1.00671
223.088,28.2119,0.03578,0.36979,1.00643
223.688,28.269,0.03578,0.36933,1.00615
224.288,28.32592,0.03577305,0.3718,1.00587
224.888,28.38307,0.03645348,0.37577,1.00559
225.488,28.4402,0.03578002,0.37537,1.00531
226.088,28.4976,0.03576648,0.37693,1.00503
226.688,28.5549,0.03615827,0.37669,1.00475
227.288,28.61187,0.03611003,0.37832,1.00447
227.888,28.6688,0.03586985,0.38134,1.00418
228.488,28.7259,0.03479959,0.3824,1.0039
229.088,28.78296,0.03479999,0.38402,1.00362
229.688,28.83993,0.03480055,0.38428,1.00333
230.288,28.89692,0.03611226,0.38742,1.00305
230.888,28.9539,0.03611039,0.3887,1.00277
231.488,29.0109,0.03505122,0.39183,1.00248
232.088,29.068,0.03478998,0.39467,1.00219
232.688,29.12523,0.03478344,0.39617,1.00191
233.288,29.1826,0.0363074,0.39892,1.00162
233.888,29.2395,0.03745682,0.40152,1.00134
234.488,29.29679,0.0351703,0.40589,1.00105
235.088,29.35367,0.03512002,0.40724,1.00076
235.688,29.41077,0.03512,0.4087,1.00047
236.288,29.4679,0.03511222,0.41443,1.00019
236.888,29.5251,0.03489168,0.41485,0.9999
237.488,29.5823,0.03379952,0.41869,0.99961
238.088,29.6396,0.0338,0.42377,0.99932
238.688,29.6967,0.03381618,0.42719,0.99903
239.288,29.7538,0.03479119,0.4314,0.99874
239.888,29.81105,0.03479,0.43557,0.99845
240.488,29.86823,0.03478483,0.44042,0.99815
241.088,29.9256,0.03610835,0.44517,0.99786
241.688,29.983,0.03475512,0.45023,0.99757
242.288,30.04015,0.03347001,0.45728,0.99728
242.888,30.09733,0.0334703,0.46114,0.99699
243.488,30.1545,0.0345202,0.46976,0.99669
244.088,30.2113,0.03368351,0.47764,0.9964
244.688,30.26865,0.03346974,0.48466,0.9961
245.288,30.3257,0.03441039,0.49211,0.99581
245.888,30.38291,0.0347893,0.50239,0.99551
246.488,30.44037,0.03345951,0.51443,0.99522
247.088,30.49751,0.03347004,0.52889,0.99492
247.688,30.55495,0.03346972,0.54223,0.99462
248.288,30.61195,0.03425295,0.55478,0.99433
248.888,30.66879,0.03413017,0.572,0.99403
249.488,30.72587,0.03412931,0.59318,0.99373
250.088,30.78327,0.03380941,0.61433,0.99343
250.688,30.8406,0.0337998,0.6395,0.99314
251.288,30.8983,0.03249024,0.66823,0.99284
251.888,30.95549,0.03284754,0.70488,0.99254
252.488,31.01285,0.03315031,0.74692,0.99224
253.088,31.0704,0.03347791,0.79222,0.99194
253.688,31.12779,0.03347997,0.8489,0.99164
254.288,31.18535,0.03336361,0.91085,0.99133
254.888,31.24304,0.03593401,0.98003,0.99103
255.488,31.30075,0.03281741,1.05152,0.99073
256.088,31.35845,0.03282,1.11762,0.99043
256.688,31.41625,0.03282,1.17622,0.99013
257.288,31.4739,0.03282,1.21614,0.98982
257.888,31.5319,0.0328182,1.24407,0.98952
258.488,31.58949,0.03346836,1.2487,0.98921
259.088,31.64722,0.0334636,1.2228,0.98891
259.688,31.70487,0.03483516,1.17005,0.9886
260.288,31.76237,0.03348087,1.09361,0.9883
260.888,31.81997,0.03348,1.01003,0.98799
261.488,31.87715,0.03322671,0.92683,0.98769
262.088,31.93416,0.03248819,0.84628,0.98738
262.688,31.99115,0.03249081,0.77524,0.98707
263.288,32.048,0.03107116,0.71209,0.98676
263.888,32.10471,0.03248984,0.65709,0.98646
264.488,32.16145,0.03247042,0.61534,0.98615
265.088,32.21819,0.03258516,0.57611,0.98584
265.688,32.27499,0.03200372,0.54177,0.98553
266.288,32.33187,0.03183022,0.52065,0.98522
266.888,32.3889,0.03094114,0.49833,0.98491
267.488,32.44559,0.03050993,0.4804,0.9846
268.088,32.50242,0.03045898,0.46513,0.98429
268.688,32.55911,0.03146809,0.45479,0.98398
269.288,32.61557,0.03215849,0.4444,0.98366
269.888,32.67239,0.03083376,0.43659,0.98335
270.488,32.72937,0.03084,0.42985,0.98304
271.088,32.78655,0.03084,0.42406,0.98272
271.688,32.84389,0.03083997,0.41789,0.98241
272.288,32.90106,0.0312661,0.41432,0.9821
272.888,32.9578,0.03215427,0.41113,0.98178
273.488,33.0143,0.03347823,0.4091,0.98147
274.088,33.07123,0.03348096,0.40624,0.98115
274.688,33.12806,0.03078373,0.40552,0.98083
275.288,33.18541,0.03083982,0.405,0.98052
275.888,33.24264,0.03063149,0.40276,0.9802
276.488,33.2994,0.02952001,0.4012,0.97988
277.088,33.3561,0.02952,0.40093,0.97957
277.688,33.41291,0.0295178,0.39998,0.97925
278.288,33.47019,0.03083849,0.39941,0.97893
278.888,33.52735,0.0308435,0.39858,0.97861
279.488,33.58483,0.02953358,0.40066,0.97829
280.088,33.64203,0.02952275,0.39976,0.97797
280.688,33.69894,0.02819865,0.40089,0.97765
281.288,33.75611,0.0281478,0.39992,0.97733
281.888,33.8132,0.02951881,0.39919,0.97701
282.488,33.87036,0.03019773,0.39948,0.97669
283.088,33.92734,0.02918932,0.3982,0.97637
283.688,33.9842,0.02918999,0.39905,0.97604
284.288,34.04123,0.02918416,0.39953,0.97572
284.888,34.09834,0.02787058,0.39839,0.9754
285.488,34.1559,0.02787,0.39973,0.97507
286.088,34.21337,0.02787,0.4001,0.97475
286.688,34.2707,0.02787,0.39809,0.97442
287.288,34.32808,0.02786448,0.40039,0.9741
287.888,34.38525,0.02918832,0.39938,0.97377
288.488,34.44257,0.02918972,0.39886,0.97345
289.088,34.4998,0.0285385,0.40002,0.97312
289.688,34.55705,0.02819074,0.39999,0.97279
290.288,34.61425,0.02787067,0.39946,0.97247
290.888,34.67138,0.02787,0.40051,0.97214
291.488,34.7286,0.0278688,0.40122,0.97181
292.088,34.78587,0.0265544,0.40285,0.97148
292.688,34.84301,0.02657137,0.40136,0.97115
293.288,34.90014,0.02721989,0.39977,0.97082
293.888,34.9572,0.02722,0.40154,0.97049
294.488,35.01444,0.02721557,0.40257,0.97016
295.088,35.0717,0.0278837,0.40385,0.96983
295.688,35.12908,0.02788,0.4017,0.9695
296.288,35.1864,0.02787055,0.40212,0.96917
296.888,35.24382,0.02755068,0.40371,0.96884
297.488,35.30103,0.02754966,0.40196,0.9685
298.088,35.35833,0.02623831,0.40454,0.96817
298.688,35.41552,0.02622952,0.40399,0.96784
299.288,35.47291,0.02554483,0.40239,0.9675
299.888,35.53029,0.02557,0.40227,0.96717
300.488,35.58768,0.0255162,0.40358,0.96683
301.088,35.64529,0.02655972,0.40421,0.9665
301.688,35.7027,0.02656,0.40367,0.96616
302.288,35.7602,0.02655987,0.40404,0.96583
302.888,35.8176,0.02789448,0.40512,0.96549
303.488,35.87491,0.02785739,0.40597,0.96515
304.088,35.93217,0.02655602,0.40483,0.96482
304.688,35.9896,0.02524182,0.40397,0.96448
305.288,36.04707,0.02524001,0.40491,0.96414
305.888,36.10448,0.02524,0.40529,0.9638
306.488,36.162,0.02524005,0.40504,0.96346
307.088,36.2194,0.02652454,0.40438,0.96312
307.688,36.27684,0.02655993,0.40508,0.96278
308.288,36.3343,0.02660375,0.40567,0.96244
308.888,36.39165,0.02524075,0.40672,0.9621
309.488,36.44895,0.02520875,0.40781,0.96176
310.088,36.50633,0.02622977,0.40646,0.96142
310.688,36.56365,0.02623,0.40626,0.96108
311.288,36.62088,0.0262278,0.40674,0.96073
311.888,36.67835,0.02491443,0.40723,0.96039
312.488,36.73558,0.02491,0.40727,0.96005
313.088,36.79317,0.02491,0.40814,0.9597
313.688,36.85067,0.02491024,0.408,0.95936
314.288,36.9082,0.02593724,0.40734,0.95901
314.888,36.96575,0.02590002,0.40816,0.95867
315.488,37.02323,0.02587164,0.40927,0.95832
316.088,37.0807,0.02457977,0.40898,0.95798
316.688,37.1383,0.02509558,0.40852,0.95763
317.288,37.1957,0.02590022,0.40936,0.95728
317.888,37.25308,0.02588389,0.40967,0.95693
318.488,37.31062,0.02457984,0.40837,0.95659
319.088,37.36806,0.02458038,0.4092,0.95624
319.688,37.42566,0.02328149,0.40909,0.95589
320.288,37.48325,0.02445293,0.41189,0.95554
320.888,37.54081,0.02458,0.41009,0.95519
321.488,37.5983,0.02458037,0.40857,0.95484
322.088,37.65574,0.02328171,0.41063,0.95449
322.688,37.71322,0.02326121,0.40993,0.95414
323.288,37.77073,0.02458256,0.4091,0.95379
323.888,37.8283,0.02458496,0.41056,0.95343
324.488,37.8859,0.0227009,0.41096,0.95308
325.088,37.94308,0.02194059,0.4118,0.95273
325.688,38.00057,0.02327569,0.41261,0.95238
326.288,38.05809,0.02325997,0.41297,0.95202
326.888,38.11561,0.02325749,0.41145,0.95167
327.488,38.1732,0.02359252,0.41237,0.95131
328.088,38.2307,0.02359,0.41343,0.95096
328.688,38.28833,0.02359,0.41227,0.9506
329.288,38.34601,0.02359026,0.41333,0.95025
329.888,38.40347,0.02265823,0.41214,0.94989
330.488,38.46099,0.02227994,0.4146,0.94953
331.088,38.51852,0.02361668,0.41446,0.94918
331.688,38.57614,0.02364051,0.41474,0.94882
332.288,38.63389,0.02228303,0.41252,0.94846
332.888,38.6914,0.02194833,0.4155,0.9481
333.488,38.74905,0.02195004,0.41304,0.94774
334.088,38.80666,0.02237208,0.41581,0.94738
334.688,38.8643,0.02293997,0.41512,0.94702
335.288,38.922,0.02279089,0.41384,0.94666
335.888,38.97961,0.02161704,0.41528,0.9463
336.488,39.03734,0.02029627,0.41457,0.94594
337.088,39.09506,0.02095359,0.41359,0.94558
337.688,39.15293,0.02096,0.4134,0.94522
338.288,39.2106,0.02096,0.41636,0.94486
338.888,39.26822,0.02096279,0.41557,0.94449
339.488,39.32581,0.01965144,0.41634,0.94413
340.088,39.3835,0.01964676,0.4171,0.94377
340.688,39.4412,0.01996963,0.41592,0.9434
341.288,39.4989,0.01993713,0.41771,0.94304
341.888,39.5567,0.02118924,0.41579,0.94267
342.488,39.61442,0.02126758,0.4165,0.94231
343.088,39.67217,0.01996958,0.41741,0.94194
343.688,39.72974,0.01997,0.41794,0.94157
344.288,39.78723,0.01997,0.41844,0.94121
344.888,39.84507,0.01997351,0.41838,0.94084
345.488,39.90297,0.01866349,0.41635,0.94047
346.088,39.96095,0.01865,0.41753,0.9401
346.688,40.01887,0.01865,0.42039,0.93974
347.288,40.07654,0.01865,0.41882,0.93937
347.888,40.13404,0.01865,0.41871,0.939
348.488,40.19166,0.01865,0.42019,0.93863
349.088,40.2494,0.01865,0.41904,0.93826
349.688,40.3072,0.01864988,0.41952,0.93789
350.288,40.36524,0.0181676,0.41847,0.93751
350.888,40.42331,0.01601178,0.4203,0.93714
351.488,40.48144,0.01601002,0.42004,0.93677
352.088,40.53941,0.0159938,0.42233,0.9364
352.688,40.59734,0.01732949,0.42078,0.93602
353.288,40.6554,0.01738095,0.42125,0.93565
353.888,40.71334,0.01601098,0.42175,0.93528
354.488,40.7712,0.01600998,0.42246,0.9349
355.088,40.829,0.0147701,0.42133,0.93453
355.688,40.88663,0.01470009,0.42299,0.93415
356.288,40.94437,0.0147,0.42407,0.93378
356.888,41.00223,0.01470022,0.42496,0.9334
357.488,41.06037,0.01338535,0.42407,0.93302
358.088,41.1184,0.01429719,0.42699,0.93265
358.688,41.17649,0.01436981,0.42629,0.93227
359.288,41.2346,0.01395793,0.4278,0.93189
359.888,41.29245,0.01304999,0.4283,0.93151
360.488,41.35049,0.01305921,0.42953,0.93114
361.088,41.4084,0.0107245,0.43035,0.93076
361.688,41.4666,0.01073999,0.4317,0.93038
362.288,41.5247,0.01074,0.43239,0.93
362.888,41.58278,0.01074002,0.43029,0.92962
363.488,41.6409,0.010342,0.43339,0.92923
364.088,41.69883,0.00942989,0.43412,0.92885
364.688,41.75683,0.00943,0.43482,0.92847
365.288,41.81497,0.009430033,0.43627,0.92809
365.888,41.87296,0.008802481,0.43915,0.92771
366.488,41.93122,0.008106974,0.44036,0.92732
367.088,41.98938,0.008072078,0.44114,0.92694
367.688,42.04748,0.00808639,0.44256,0.92656
368.288,42.1053,0.006776157,0.44488,0.92617
368.888,42.1633,0.005476389,0.44627,0.92579
369.488,42.22148,0.00547998,0.44767,0.9254
370.088,42.2795,0.005493965,0.45043,0.92502
370.688,42.33785,0.0036785,0.45146,0.92463
371.288,42.39582,0.002839709,0.45445,0.92424
371.888,42.45425,0.00262795,0.45615,0.92386
372.488,42.51254,0.001519895,0.45548,0.92347
373.088,42.57073,0.0007997908,0.45762,0.92308
373.688,42.62895,0.0002090082,0.45971,0.92269
374.288,42.68692,-0.001114397,0.4601,0.9223
374.888,42.74456,-0.001164116,0.46263,0.92191
375.488,42.80278,-0.002431514,0.46402,0.92152
376.088,42.8611,-0.00375355,0.46461,0.92113
376.688,42.92004,-0.005059364,0.46652,0.92074
377.288,42.97858,-0.00502719,0.47085,0.92035
377.888,43.03622,-0.00637874,0.47313,0.91996
378.488,43.09426,-0.00766817,0.47469,0.91957
379.088,43.15233,-0.00957314,0.47696,0.91918
379.688,43.21066,-0.01166716,0.47796,0.91878
380.288,43.2691,-0.01306036,0.47938,0.91839
380.888,43.3273,-0.01446223,0.4823,0.918
381.488,43.38547,-0.01589798,0.48478,0.9176
382.088,43.44343,-0.01729495,0.48602,0.91721
382.688,43.50142,-0.01988785,0.48884,0.91681
383.288,43.55964,-0.02119771,0.49145,0.91642
383.888,43.6179,-0.02385746,0.49609,0.91602
384.488,43.67678,-0.0267207,0.49809,0.91563
385.088,43.73496,-0.02833438,0.50171,0.91523
385.688,43.7932,-0.03144824,0.50504,0.91483
386.288,43.85136,-0.03461988,0.50746,0.91444
386.888,43.90967,-0.03777987,0.51042,0.91404
387.488,43.96788,-0.04062736,0.51319,0.91364
388.088,44.02616,-0.04348804,0.51783,0.91324
388.688,44.08435,-0.0463761,0.52028,0.91284
389.288,44.1426,-0.05006886,0.52179,0.91244
389.888,44.2005,-0.05307041,0.52584,0.91204
390.488,44.25863,-0.05611505,0.52663,0.91164
391.088,44.31674,-0.05965114,0.53118,0.91124
391.688,44.37493,-0.06456175,0.53588,0.91084
392.288,44.4336,-0.06860432,0.53783,0.91044
392.888,44.49188,-0.07263006,0.53948,0.91003
393.488,44.55025,-0.07743211,0.54068,0.90963
394.088,44.6085,-0.08176955,0.54074,0.90923
394.688,44.66676,-0.08704133,0.54558,0.90883
395.288,44.72497,-0.0922142,0.54691,0.90842
395.888,44.78335,-0.09563842,0.54694,0.90802
396.488,44.84163,-0.10185,0.54708,0.90761
397.088,44.90003,-0.10837,0.54964,0.90721
397.688,44.95816,-0.1138,0.54924,0.9068
398.288,45.0165,-0.12065,0.5115,0.90639
398.888,45.07472,-0.12697,0.48014,0.90599
399.488,45.13302,-0.13374,0.46226,0.90558
400.088,45.19127,-0.13796,0.45082,0.90517
400.688,45.24941,-0.14442,0.44084,0.90477
401.288,45.30778,-0.15035,0.43363,0.90436
401.888,45.36595,-0.15824,0.42598,0.90395
402.488,45.4242,-0.16511,0.4186,0.90354
403.088,45.48236,-0.17148,0.40952,0.90313
403.688,45.54064,-0.17928,0.40366,0.90272
404.288,45.599,-0.18498,0.3994,0.90231
404.888,45.65728,-0.19249,0.39456,0.9019
405.488,45.7156,-0.20003,0.38706,0.90149
406.088,45.7739,-0.20807,0.38243,0.90108
406.688,45.83227,-0.21792,0.37497,0.90066
407.288,45.89055,-0.22654,0.36694,0.90025
407.888,45.94885,-0.23315,0.35541,0.89984
408.488,46.007,-0.23961,0.34634,0.89942
409.088,46.0651,-0.2484,0.3433,0.89901
409.688,46.1233,-0.25631,0.34144,0.8986
410.288,46.18155,-0.26495,0.34452,0.89818
410.888,46.23993,-0.27446,0.34491,0.89777
411.488,46.29835,-0.28353,0.35326,0.89735
412.088,46.35675,-0.29375,0.35738,0.89693
412.688,46.415,-0.30446,0.36184,0.89652
413.288,46.4733,-0.31743,0.36998,0.8961
413.888,46.53172,-0.32831,0.37688,0.89568
414.488,46.59,-0.34078,0.38283,0.89527
415.088,46.64853,-0.35384,0.39321,0.89485
415.688,46.70697,-0.36889,0.40178,0.89443
416.288,46.76522,-0.38417,0.41658,0.89401
416.888,46.82356,-0.39932,0.42689,0.89359
417.488,46.88193,-0.41351,0.43761,0.89317
418.088,46.9403,-0.43056,0.4483,0.89275
418.688,46.9988,-0.44746,0.45895,0.89233
419.288,47.05727,-0.46677,0.46654,0.89191
419.888,47.11542,-0.48491,0.47779,0.89149
420.488,47.17387,-0.50213,0.49357,0.89107
421.088,47.2325,-0.52298,0.50011,0.89064
421.688,47.2913,-0.54554,0.51358,0.89022
422.288,47.35017,-0.57776,0.52103,0.8898
422.888,47.40866,-0.59303,0.53117,0.88937
423.488,47.4672,-0.6143,0.54478,0.88895
424.088,47.52581,-0.63816,0.55307,0.88852
424.688,47.58432,-0.66316,0.567,0.8881
425.288,47.64305,-0.68991,0.58111,0.88767
425.888,47.70147,-0.71681,0.59231,0.88725
426.488,47.76005,-0.74557,0.60332,0.88682
427.088,47.81861,-0.77436,0.61853,0.8864
427.688,47.87717,-0.80573,0.63021,0.88597
428.288,47.93606,-0.8365,0.6409,0.88554
428.888,47.99476,-0.86842,0.65163,0.88511
429.488,48.05366,-0.90102,0.66233,0.88469
430.088,48.1124,-0.93592,0.66647,0.88426
430.688,48.1712,-0.97035,0.67734,0.88383
431.288,48.2299,-1.00555,0.68562,0.8834
431.888,48.28857,-1.04254,0.69176,0.88297
432.488,48.3471,-1.07945,0.70238,0.88254
433.088,48.4056,-1.11917,0.70885,0.88211
433.688,48.4642,-1.15717,0.71597,0.88168
434.288,48.52293,-1.19862,0.72131,0.88124
434.888,48.5817,-1.23733,0.72575,0.88081
435.488,48.64049,-1.28086,0.73137,0.88038
436.088,48.69937,-1.32092,0.73604,0.87995
436.688,48.75817,-1.36537,0.73952,0.87951
437.288,48.817,-1.40672,0.74144,0.87908
437.888,48.8758,-1.45192,0.74535,0.87864
438.488,48.9345,-1.49567,0.747,0.87821
439.088,48.99329,-1.54277,0.74855,0.87778
439.688,49.05206,-1.58718,0.74637,0.87734
440.288,49.11087,-1.63221,0.74532,0.8769
440.888,49.16969,-1.67974,0.74456,0.87647
441.488,49.2284,-1.72372,0.74132,0.87603
442.088,49.28698,-1.7712,0.7379,0.87559
442.688,49.34559,-1.81758,0.73314,0.87516
443.288,49.40423,-1.86635,0.72645,0.87472
443.888,49.4629,-1.91077,0.72218,0.87428
444.488,49.5216,-1.95637,0.71359,0.87384
445.088,49.58027,-2.00035,0.70122,0.8734
445.688,49.63875,-2.04689,0.69011,0.87296
446.288,49.69721,-2.08874,0.68189,0.87252
446.888,49.75585,-2.13291,0.66453,0.87208
447.488,49.8146,-2.17322,0.64998,0.87164
448.088,49.87323,-2.21602,0.63678,0.8712
448.688,49.9315,-2.25437,0.61994,0.87076
449.288,49.99,-2.29161,0.60224,0.87032
449.888,50.04845,-2.32782,0.58438,0.86987
450.488,50.107,-2.36084,0.56648,0.86943
451.088,50.1657,-2.39573,0.54446,0.86899
451.688,50.22415,-2.4267,0.52575,0.86854
452.288,50.28261,-2.45613,0.50341,0.8681
452.888,50.34114,-2.48458,0.48281,0.86766
453.488,50.39986,-2.51135,0.46034,0.86721
454.088,50.45841,-2.53283,0.44049,0.86677
454.688,50.5167,-2.55645,0.41544,0.86632
455.288,50.57525,-2.56299,0.39503,0.86587
455.888,50.63392,-2.59475,0.37483,0.86543
456.488,50.69249,-2.61367,0.35739,0.86498
457.088,50.75122,-2.63084,0.33977,0.86453
457.688,50.80988,-2.64489,0.32258,0.86408
458.288,50.86855,-2.6586,0.30823,0.86364
458.888,50.92734,-2.67198,0.29242,0.86319
459.488,50.98617,-2.68535,0.28198,0.86274
460.088,51.04483,-2.69774,0.28033,0.86229
460.688,51.10357,-2.70945,0.26404,0.86184
461.288,51.16217,-2.71895,0.25591,0.86139
461.888,51.22081,-2.72927,0.24444,0.86094
462.488,51.27949,-2.73806,0.23329,0.86049
463.088,51.33834,-2.74632,0.22457,0.86004
463.688,51.39721,-2.75524,0.21246,0.85958
464.288,51.45601,-2.7639,0.2063,0.85913
464.888,51.5148,-2.77031,0.20292,0.85868
465.488,51.5735,-2.77812,0.19183,0.85823
466.088,51.63191,-2.78485,0.18269,0.85777
466.688,51.6905,-2.79208,0.17445,0.85732
467.288,51.74942,-2.79908,0.16246,0.85687
467.888,51.8084,-2.80494,0.15291,0.85641
468.488,51.8675,-2.80819,0.14308,0.85596
469.088,51.9261,-2.8132,0.13464,0.8555
469.688,51.9848,-2.81806,0.12647,0.85504
470.288,52.04372,-2.82279,0.11633,0.85459
470.888,52.10257,-2.82736,0.12424,0.85413
471.488,52.16166,-2.83205,0.11885,0.85367
472.088,52.22064,-2.8371,0.11079,0.85322
472.688,52.27945,-2.84107,0.10015,0.85276
473.288,52.33847,-2.84528,0.09346548,0.8523
473.888,52.39733,-2.8492,0.08270388,0.85184
474.488,52.45605,-2.85052,0.08033261,0.85138
475.088,52.51498,-2.85556,0.07312835,0.85092
475.688,52.5738,-2.85994,0.06465729,0.85046
476.288,52.6326,-2.86337,0.05736255,0.85
476.888,52.69166,-2.86605,0.0537514,0.84954
477.488,52.7506,-2.86934,0.0470254,0.84908
478.088,52.80941,-2.87059,0.04182988,0.84862
478.688,52.86844,-2.87347,0.03665617,0.84816
479.288,52.92726,-2.87696,0.02883931,0.8477
479.888,52.9864,-2.87942,0.02615094,0.84723
480.488,53.04537,-2.88261,0.02292628,0.84677
481.088,53.1042,-2.88394,0.01748893,0.84631
481.688,53.16313,-2.88678,0.01255441,0.84584
482.288,53.22192,-2.8883,0.0101721,0.84538
482.888,53.2809,-2.89046,0.006848268,0.84492
483.488,53.33993,-2.89247,0.002314578,0.84445
484.088,53.39898,-2.89546,0.001113807,0.84398
484.688,53.458,-2.89684,0.00362603,0.84352
485.288,53.51695,-2.89817,0.006521562,0.84305
485.888,53.5759,-2.90028,0.001835117,0.84259
486.488,53.63508,-2.90141,-0.001981482,0.84212
487.088,53.6941,-2.90302,-0.00366938,0.84165
487.688,53.75315,-2.90415,-0.009142186,0.84118
488.288,53.812,-2.90553,-0.009245012,0.84072
488.888,53.8708,-2.90685,-0.01122571,0.84025
489.488,53.93,-2.90817,-0.01506575,0.83978
490.088,53.989,-2.90946,-0.01571675,0.83931
490.688,54.04795,-2.91222,-0.02002928,0.83884
491.288,54.1071,-2.91223,-0.01978195,0.83837
491.888,54.16604,-2.91363,-0.02393201,0.8379
492.488,54.22529,-2.91546,-0.02376311,0.83743
493.088,54.2844,-2.91629,-0.02671362,0.83696
493.688,54.34327,-2.91748,-0.0279008,0.83649
494.288,54.40234,-2.91897,-0.02769351,0.83601
494.888,54.4612,-2.92024,-0.02791603,0.83554
495.488,54.5203,-2.92157,-0.02890089,0.83507
496.088,54.5794,-2.92465,-0.02679321,0.8346
496.688,54.63851,-2.92595,-0.0290005,0.83412
497.288,54.69809,-2.92461,-0.03217214,0.83365
497.888,54.7572,-2.92591,-0.03052325,0.83317
498.488,54.81638,-2.92728,-0.03204563,0.8327
499.088,54.87582,-2.92854,-0.03283392,0.83223
499.688,54.93515,-2.9299,-0.03570602,0.83175
500.288,54.9945,-2.92858,-0.03890997,0.83127
500.888,55.05369,-2.92855,-0.04025553,0.8308
501.488,55.11299,-2.93003,-0.04185067,0.83032
502.088,55.1723,-2.93122,-0.04334925,0.82984
502.688,55.2315,-2.93255,-0.04331863,0.82937
503.288,55.29095,-2.93388,-0.04414721,0.82889
503.888,55.35023,-2.93386,-0.04463928,0.82841
504.488,55.40964,-2.93538,-0.04535688,0.82793
505.088,55.4693,-2.93683,-0.04512975,0.82745
505.688,55.52864,-2.93815,-0.0456506,0.82698
506.288,55.58775,-2.93947,-0.04345767,0.8265
506.888,55.6471,-2.94077,-0.04472428,0.82602
507.488,55.7063,-2.94077,-0.04673963,0.82554
508.088,55.7653,-2.94088,-0.04924804,0.82505
508.688,55.825,-2.94078,-0.04931563,0.82457
509.288,55.88436,-2.94245,-0.04880866,0.82409
509.888,55.9442,-2.94248,-0.04915254,0.82361
510.488,56.00375,-2.94374,-0.05029365,0.82313
511.088,56.06296,-2.94464,-0.0527937,0.82265
511.688,56.12231,-2.94508,-0.05250422,0.82216
512.288,56.1815,-2.94362,-0.05222489,0.82168
512.888,56.24083,-2.94676,-0.05429039,0.8212
513.488,56.3002,-2.94702,-0.05573714,0.82071
514.088,56.3595,-2.94492,-0.05312698,0.82023
514.688,56.4189,-2.94918,-0.05193189,0.81974
515.288,56.4783,-2.95065,-0.05484428,0.81926
515.888,56.53793,-2.95164,-0.05584863,0.81877
516.488,56.59738,-2.952,-0.05630106,0.81829
517.088,56.65696,-2.95198,-0.05443403,0.8178
517.688,56.7164,-2.95202,-0.05582128,0.81731
518.288,56.77571,-2.94808,-0.0561616,0.81683
518.888,56.8345,-2.95003,-0.05929253,0.81634
519.488,56.89356,-2.95033,-0.05993144,0.81585
520.088,56.95284,-2.95162,-0.06030419,0.81536
520.688,57.01236,-2.95251,-0.05791283,0.81488
521.288,57.0724,-2.95374,-0.05744032,0.81439
521.888,57.1317,-2.9546,-0.05991174,0.8139
522.488,57.1912,-2.95495,-0.05984989,0.81341
523.088,57.2506,-2.95626,-0.0595609,0.81292
523.688,57.3099,-2.95758,-0.05726305,0.81243
524.288,57.3694,-2.95758,-0.06035178,0.81194
524.888,57.42896,-2.95847,-0.06026645,0.81145
525.488,57.4884,-2.95889,-0.05792292,0.81095
526.088,57.5478,-2.95889,-0.05996825,0.81046
526.688,57.6073,-2.95745,-0.05870301,0.80997
527.288,57.6669,-2.95889,-0.05914161,0.80948
527.888,57.7265,-2.96027,-0.06053762,0.80899
528.488,57.78604,-2.96153,-0.06085788,0.80849
529.088,57.84519,-2.96253,-0.06133726,0.808
529.688,57.9045,-2.96249,-0.06059836,0.80751
530.288,57.96386,-2.96285,-0.07803784,0.80701
530.888,58.0229,-2.96285,-0.07379298,0.80652
531.488,58.08215,-2.96417,-0.07310491,0.80602
532.088,58.1415,-2.96416,-0.06911331,0.80553
532.688,58.20078,-2.96413,-0.06637309,0.80503
533.288,58.2605,-2.96418,-0.06695735,0.80453
533.888,58.31977,-2.96482,-0.06583794,0.80404
534.488,58.37905,-2.96482,-0.06629139,0.80354
535.088,58.43845,-2.96482,-0.06629652,0.80304
535.688,58.49799,-2.96481,-0.06595287,0.80255
536.288,58.55744,-2.96614,-0.06466397,0.80205
536.888,58.61719,-2.96494,-0.06515219,0.80155
537.488,58.67674,-2.96611,-0.06628196,0.80105
538.088,58.7362,-2.96613,-0.0687546,0.80055
538.688,58.7957,-2.96745,-0.0678835,0.80006
539.288,58.85504,-2.96745,-0.06580613,0.79956
539.888,58.9145,-2.9675,-0.0638153,0.79906
540.488,58.97393,-2.96877,-0.06499681,0.79856
541.088,59.0335,-2.96877,-0.06494561,0.79806
541.688,59.0931,-2.96995,-0.06454582,0.79755
542.288,59.1527,-2.96875,-0.06589905,0.79705
542.888,59.2121,-2.96873,-0.06602914,0.79655
543.488,59.27175,-2.97009,-0.06788502,0.79605
544.088,59.33136,-2.97009,-0.0669696,0.79555
544.688,59.391,-2.97009,-0.06725489,0.79505
545.288,59.4508,-2.97008,-0.07019687,0.79454
545.888,59.5102,-2.97105,-0.06938416,0.79404
546.488,59.56965,-2.97008,-0.06965879,0.79354
547.088,59.6294,-2.9714,-0.07015038,0.79303
547.688,59.689,-2.97201,-0.07133463,0.79253
548.288,59.7489,-2.97297,-0.07322427,0.79202
548.888,59.80859,-2.97305,-0.07258151,0.79152
549.488,59.86825,-2.97312,-0.07158076,0.79101
550.088,59.9279,-2.97208,-0.0715846,0.79051
550.688,59.9877,-2.97342,-0.07159947,0.79
551.288,60.04756,-2.97338,-0.07300915,0.78949
551.888,60.1069,-2.97355,-0.07211999,0.78899
552.488,60.1667,-2.97459,-0.07464138,0.78848
553.088,60.2263,-2.97469,-0.07317122,0.78797
553.688,60.2861,-2.9747,-0.07309618,0.78747
554.288,60.34581,-2.9755,-0.07075362,0.78696
554.888,60.4054,-2.97606,-0.075123,0.78645
555.488,60.46504,-2.976,-0.07272013,0.78594
556.088,60.52471,-2.97602,-0.07261305,0.78543
556.688,60.58446,-2.97602,-0.07303258,0.78492
557.288,60.64421,-2.977,-0.07116488,0.78441
557.888,60.7039,-2.97702,-0.07530141,0.7839
558.488,60.7636,-2.97832,-0.07243268,0.78339
559.088,60.82315,-2.97832,-0.07690372,0.78288
559.688,60.88289,-2.97964,-0.07740825,0.78237
560.288,60.94276,-2.98044,-0.07363859,0.78186
560.888,61.0025,-2.98062,-0.07560074,0.78135
561.488,61.0624,-2.98062,-0.07416712,0.78084
562.088,61.1222,-2.98098,-0.07425591,0.78032
562.688,61.18176,-2.98095,-0.07632344,0.77981
563.288,61.24146,-2.98101,-0.07613474,0.7793
563.888,61.30112,-2.98097,-0.07510645,0.77879
564.488,61.36079,-2.97962,-0.07757048,0.77827
565.088,61.42045,-2.98067,-0.07858122,0.77776
565.688,61.4801,-2.98096,-0.07788576,0.77724
566.288,61.53979,-2.98294,-0.07614541,0.77673
566.888,61.5996,-2.98294,-0.0784688,0.77621
567.488,61.6595,-2.98422,-0.07925538,0.7757
568.088,61.719,-2.98425,-0.07758501,0.77518
568.688,61.7786,-2.98425,-0.07961081,0.77467
569.288,61.8384,-2.98557,-0.07860859,0.77415
569.888,61.89815,-2.98556,-0.0800918,0.77364
570.488,61.95835,-2.98688,-0.07988243,0.77312
571.088,62.01815,-2.98425,-0.08013574,0.7726
571.688,62.07796,-2.98505,-0.08304959,0.77208
572.288,62.138,-2.98557,-0.08088202,0.77157
572.888,62.1981,-2.98557,-0.08350681,0.77105
573.488,62.25799,-2.98689,-0.08310058,0.77053
574.088,62.3177,-2.98689,-0.08223161,0.77001
574.688,62.37735,-2.98684,-0.08150795,0.76949
575.288,62.43724,-2.9882,-0.08141276,0.76897
575.888,62.49717,-2.9882,-0.08158058,0.76845
576.488,62.5571,-2.98862,-0.08029814,0.76793
577.088,62.617,-2.98952,-0.08452004,0.76741
577.688,62.6768,-2.98952,-0.08567945,0.76689
578.288,62.73669,-2.99085,-0.08385788,0.76637
578.888,62.79631,-2.99217,-0.08526859,0.76585
579.488,62.8561,-2.99216,-0.08522532,0.76533
580.088,62.9159,-2.99216,-0.08616927,0.76481
580.688,62.97555,-2.99266,-0.08453506,0.76429
581.288,63.0355,-2.99281,-0.08615872,0.76376
581.888,63.09565,-2.99281,-0.08747342,0.76324
582.488,63.15557,-2.99281,-0.08744199,0.76272
583.088,63.21553,-2.99276,-0.08737579,0.76219
583.688,63.2754,-2.99413,-0.08459364,0.76167
584.288,63.33525,-2.99413,-0.08110222,0.76115
584.888,63.39541,-2.99521,-0.08032306,0.76062
585.488,63.4553,-2.99545,-0.08338797,0.7601
586.088,63.51529,-2.99545,-0.08071708,0.75957
586.688,63.57495,-2.99545,-0.081464,0.75905
587.288,63.63455,-2.99609,-0.08130119,0.75852
587.888,63.69441,-2.99611,-0.08104369,0.758
588.488,63.7544,-2.99632,-0.08170946,0.75747
589.088,63.8141,-2.99746,-0.08140439,0.75694
589.688,63.8744,-2.99874,-0.08338124,0.75642
590.288,63.93436,-2.99874,-0.08211261,0.75589
590.888,63.99451,-3.00015,-0.08077341,0.75536
591.488,64.05473,-3.00005,-0.08338741,0.75484
592.088,64.11468,-2.99941,-0.08156592,0.75431
592.688,64.1747,-3.00071,-0.08388598,0.75378
593.288,64.23467,-3.00071,-0.08145924,0.75325
593.888,64.29474,-3.0017,-0.08108038,0.75272
594.488,64.35478,-3.0017,-0.08397744,0.75219
595.088,64.41489,-3.0017,-0.08286023,0.75166
595.688,64.4748,-3.00203,-0.08425603,0.75114
596.288,64.53466,-3.00336,-0.0841617,0.75061
596.888,64.5946,-3.00336,-0.08389622,0.75008
597.488,64.65438,-3.00467,-0.08366353,0.74954
598.088,64.71431,-3.00467,-0.08446727,0.74901
598.688,64.7741,-3.00608,-0.08172379,0.74848
599.288,64.8339,-3.00598,-0.0847804,0.74795
599.888,64.89392,-3.00669,-0.08543728,0.74742
600.488,64.9538,-3.00686,-0.0855467,0.74689
601.088,65.014,-3.01267,-0.08461951,0.74636
601.688,65.074,-3.00945,-0.08433797,0.74582
602.288,65.13422,-2.99971,-0.08457844,0.74529
602.888,65.19462,-3.00375,-0.08609775,0.74476
603.488,65.25451,-3.00762,-0.08571409,0.74423
604.088,65.31451,-3.00839,-0.08600813,0.74369
604.688,65.37439,-3.01111,-0.08741364,0.74316
605.288,65.43446,-3.01103,-0.08470129,0.74262
605.888,65.49445,-3.01103,-0.08593492,0.74209
606.488,65.5545,-3.01103,-0.08600877,0.74155
607.088,65.6144,-3.00971,-0.0889666,0.74102
607.688,65.6743,-3.00994,-0.08698578,0.74048
608.288,65.73427,-3.01104,-0.08504649,0.73995
608.888,65.79411,-3.01237,-0.08601187,0.73941
609.488,65.85418,-3.01236,-0.08785804,0.73888
610.088,65.91416,-3.01345,-0.08719933,0.73834
610.688,65.97416,-3.01229,-0.08751502,0.7378
611.288,66.03424,-3.01503,-0.08876762,0.73727
611.888,66.09429,-3.01499,-0.08981297,0.73673
612.488,66.15427,-3.01366,-0.0899183,0.73619
613.088,66.21409,-3.01367,-0.08850074,0.73566
613.688,66.27388,-3.01367,-0.09023444,0.73512
614.288,66.3337,-3.01367,-0.0886942,0.73458
614.888,66.3937,-3.01504,-0.08963054,0.73404
615.488,66.4538,-3.01499,-0.08831681,0.7335
616.088,66.51384,-3.01518,-0.08771605,0.73296
616.688,66.57376,-3.01571,-0.08778532,0.73242
617.288,66.6337,-3.01532,-0.08456399,0.73188
617.888,66.69376,-3.01532,-0.08758174,0.73134
618.488,66.75381,-3.01533,-0.09003896,0.7308
619.088,66.81371,-3.0163,-0.08909598,0.73026
619.688,66.87369,-3.01625,-0.09090119,0.72972
620.288,66.93359,-3.01696,-0.08873379,0.72918
620.888,66.99338,-3.01828,-0.08884545,0.72864
621.488,67.05326,-3.01828,-0.09124048,0.7281
622.088,67.11327,-3.0186,-0.08855326,0.72756
622.688,67.1734,-3.01861,-0.08786247,0.72702
623.288,67.23329,-3.01861,-0.09019004,0.72647
623.888,67.2933,-3.0199,-0.08866727,0.72593
624.488,67.35322,-3.01993,-0.08861718,0.72539
625.088,67.4132,-3.02058,-0.08966915,0.72485
625.688,67.4734,-3.02124,-0.09240299,0.7243
626.288,67.5334,-3.02124,-0.09101522,0.72376
626.888,67.59343,-3.02124,-0.09292389,0.72322
627.488,67.65341,-3.0212,-0.09612848,0.72267
628.088,67.71332,-3.02256,-0.09432274,0.72213
628.688,67.77343,-3.02387,-0.09324838,0.72158
629.288,67.8331,-3.02388,-0.09454645,0.72104
629.888,67.89308,-3.02413,-0.09306825,0.72049
630.488,67.9535,-3.02487,-0.09177281,0.71995
631.088,68.0138,-3.02487,-0.09161253,0.7194
631.688,68.0745,-3.02487,-0.09571046,0.71886
632.288,68.13466,-3.02521,-0.0948092,0.71831
632.888,68.19489,-3.02519,-0.09393232,0.71777
633.488,68.25506,-3.02519,-0.09197405,0.71722
634.088,68.31533,-3.02783,-0.09399738,0.71667
634.688,68.37552,-3.02783,-0.0946207,0.71613
635.288,68.43551,-3.02769,-0.09467935,0.71558
635.888,68.49546,-3.02784,-0.09455734,0.71503
636.488,68.5555,-3.02915,-0.09393172,0.71448
637.088,68.61576,-3.02884,-0.09637153,0.71394
637.688,68.67599,-3.02915,-0.09759033,0.71339
638.288,68.7362,-3.02915,-0.09885848,0.71284
638.888,68.7963,-3.02915,-0.09762923,0.71229
639.488,68.8566,-3.02915,-0.10153,0.71174
640.088,68.917,-3.02915,-0.09854971,0.71119
640.688,68.9772,-3.02915,-0.10217,0.71064
641.288,69.0373,-3.02906,-0.10111,0.71009
641.888,69.09737,-3.03046,-0.10046,0.70954
642.488,69.1576,-3.03063,-0.1008,0.70899
643.088,69.21776,-3.03118,-0.10065,0.70844
643.688,69.27811,-3.03247,-0.10412,0.70789
644.288,69.33847,-3.03245,-0.10367,0.70734
644.888,69.39851,-3.03245,-0.10305,0.70679
645.488,69.45866,-3.03377,-0.10211,0.70624
646.088,69.51862,-3.03377,-0.10311,0.70569
646.688,69.57884,-3.03377,-0.10503,0.70514
647.288,69.63901,-3.03311,-0.10575,0.70459
647.888,69.6992,-3.03179,-0.1036,0.70403
648.488,69.75957,-3.03311,-0.10214,0.70348
649.088,69.81975,-3.03311,-0.10357,0.70293
649.688,69.87985,-3.03442,-0.10471,0.70238
650.288,69.94011,-3.03442,-0.10541,0.70182
650.888,70.0004,-3.03508,-0.10403,0.70127
651.488,70.06095,-3.03508,-0.1046,0.70072
652.088,70.12137,-3.03508,-0.10428,0.70016
652.688,70.18164,-3.03641,-0.10574,0.69961
653.288,70.24184,-3.0364,-0.10688,0.69906
653.888,70.3022,-3.03638,-0.10564,0.6985
654.488,70.36255,-3.03772,-0.10596,0.69795
655.088,70.42299,-3.03772,-0.10535,0.69739
655.688,70.48339,-3.03699,-0.10849,0.69684
656.288,70.5439,-3.03706,-0.10748,0.69628
656.888,70.60432,-3.03828,-0.11082,0.69573
657.488,70.6647,-3.03831,-0.10924,0.69517
658.088,70.72507,-3.03699,-0.11115,0.69462
658.688,70.78551,-3.03706,-0.11003,0.69406
659.288,70.84585,-3.03835,-0.11203,0.6935
659.888,70.90658,-3.03837,-0.11405,0.69295
660.488,70.9667,-3.03837,-0.11383,0.69239
661.088,71.02708,-3.03836,-0.1142,0.69183
661.688,71.08749,-3.03829,-0.1129,0.69128
662.288,71.1481,-3.03773,-0.11491,0.69072
662.888,71.20837,-3.039,-0.11279,0.69016
663.488,71.26867,-3.03969,-0.11505,0.68961
664.088,71.32897,-3.03969,-0.11678,0.68905
664.688,71.38915,-3.04067,-0.11453,0.68849
665.288,71.44926,-3.0397,-0.11555,0.68793
665.888,71.5094,-3.04097,-0.1175,0.68737
666.488,71.56962,-3.04101,-0.11817,0.68681
667.088,71.62996,-3.04101,-0.11741,0.68626
667.688,71.69026,-3.04232,-0.12295,0.6857
668.288,71.7505,-3.04101,-0.12103,0.68514
668.888,71.81058,-3.04138,-0.12311,0.68458
669.488,71.87062,-3.04364,-0.1235,0.68402
670.088,71.9303,-3.04233,-0.12446,0.68346
670.688,71.99029,-3.04233,-0.1262,0.6829
671.288,72.05046,-3.04233,-0.12751,0.68234
671.888,72.11111,-3.04241,-0.12785,0.68178
672.488,72.17164,-3.04365,-0.1257,0.68122
673.088,72.23212,-3.04478,-0.12638,0.68066
673.688,72.2925,-3.04496,-0.12833,0.68009
674.288,72.3528,-3.0436,-0.13064,0.67953
674.888,72.41303,-3.04483,-0.13148,0.67897
675.488,72.47335,-3.04496,-0.13281,0.67841
676.088,72.5338,-3.04496,-0.13348,0.67785
676.688,72.5942,-3.04496,-0.13413,0.67729
677.288,72.65439,-3.04633,-0.13341,0.67672
677.888,72.71475,-3.04496,-0.13471,0.67616
678.488,72.77504,-3.04496,-0.13355,0.6756
679.088,72.83541,-3.04496,-0.13426,0.67504
679.688,72.8957,-3.04596,-0.13327,0.67447
680.288,72.95603,-3.04595,-0.13542,0.67391
680.888,73.01624,-3.04631,-0.1354,0.67335
681.488,73.07642,-3.04628,-0.13587,0.67279
682.088,73.13662,-3.04744,-0.13661,0.67222
682.688,73.19696,-3.0476,-0.13779,0.67166
683.288,73.25742,-3.0466,-0.13659,0.67109
683.888,73.3177,-3.04661,-0.13826,0.67053
684.488,73.37821,-3.04661,-0.14039,0.66997
685.088,73.43861,-3.04661,-0.13868,0.6694
685.688,73.49902,-3.04727,-0.14208,0.66884
686.288,73.5595,-3.04727,-0.14223,0.66827
686.888,73.61999,-3.04727,-0.14429,0.66771
687.488,73.68053,-3.04825,-0.14438,0.66714
688.088,73.7409,-3.04825,-0.144,0.66658
688.688,73.80109,-3.04957,-0.14578,0.66601
689.288,73.86161,-3.04957,-0.14763,0.66544
689.888,73.9221,-3.04825,-0.14992,0.66488
690.488,73.98252,-3.04847,-0.14912,0.66431
691.088,74.04257,-3.05089,-0.15019,0.66375
691.688,74.103,-3.05076,-0.15104,0.66318
692.288,74.16351,-3.04957,-0.15393,0.66261
692.888,74.22439,-3.04957,-0.15429,0.66205
693.488,74.28491,-3.04957,-0.15748,0.66148
694.088,74.3454,-3.05083,-0.15872,0.66091
694.688,74.40572,-3.05088,-0.16042,0.66035
695.288,74.46596,-3.05088,-0.15983,0.65978
695.888,74.52623,-3.04975,-0.15844,0.65921
696.488,74.58649,-3.05044,-0.15901,0.65864
697.088,74.64673,-3.05079,-0.16176,0.65808
697.688,74.70684,-3.05217,-0.16377,0.65751
698.288,74.76706,-3.05088,-0.165,0.65694
698.888,74.8274,-3.05088,-0.16354,0.65637
699.488,74.88776,-3.05088,-0.16452,0.6558
700.088,74.9481,-3.05088,-0.16309,0.65524
700.588,74.9986,-3.05088,-0.1671,0.65476