File: 01_Data/Polyester_Microfiber_Sheet/STA/N2/10K_min/Polyester_Microfiber_Sheet_STA_N2_10KData_220526_R2.csv
##Temp./Â°C,Time/min,Mass loss(subtr.2)/mg,DSC(subtr.2)/(mW/mg),Sensit./(uV/mW)
49.713,10.01,-0.01054,0.00604463,1.07018
50.313,10.7384,-0.01124045,0.03484014,1.07001
50.913,10.92768,-0.01157024,0.05572563,1.06985
51.513,11.0694,-0.01018327,0.0746124,1.06968
52.113,11.19008,-0.01184816,0.08986148,1.06951
52.713,11.29556,-0.009451289,0.1055,1.06935
53.313,11.39218,-0.01092853,0.1153,1.06918
53.913,11.4833,-0.01085792,0.12549,1.06901
54.513,11.56903,-0.01243194,0.13587,1.06885
55.113,11.65124,-0.01213791,0.14327,1.06868
55.713,11.7303,-0.01214943,0.14891,1.06851
56.313,11.807,-0.0110726,0.15704,1.06834
56.913,11.8821,-0.01125815,0.16074,1.06817
57.513,11.95545,-0.01260434,0.16668,1.068
58.113,12.0271,-0.01203671,0.1729,1.06783
58.713,12.0977,-0.01132682,0.17648,1.06766
59.313,12.16747,-0.01049796,0.18128,1.06749
59.913,12.237,-0.01186418,0.18415,1.06732
60.513,12.3054,-0.01186833,0.18852,1.06715
61.113,12.37341,-0.01153066,0.19207,1.06698
61.713,12.4406,-0.01036557,0.19363,1.06681
62.313,12.50769,-0.01027186,0.19831,1.06664
62.913,12.5737,-0.01042103,0.19833,1.06646
63.513,12.63998,-0.01163086,0.19984,1.06629
64.113,12.70558,-0.01111013,0.20265,1.06612
64.713,12.77113,-0.01163989,0.20519,1.06594
65.313,12.83692,-0.01045176,0.20619,1.06577
65.913,12.90231,-0.01166513,0.20914,1.06559
66.513,12.9674,-0.01034803,0.21144,1.06542
67.113,13.0321,-0.01031947,0.2138,1.06524
67.713,13.09655,-0.01033409,0.21492,1.06507
68.313,13.1607,-0.01030012,0.21864,1.06489
68.913,13.22485,-0.01089123,0.21958,1.06472
69.513,13.2888,-0.01159072,0.22244,1.06454
70.113,13.3527,-0.01037121,0.22353,1.06436
70.713,13.4162,-0.01030076,0.22551,1.06418
71.313,13.47979,-0.009008343,0.22602,1.06401
71.913,13.5432,-0.01031867,0.22853,1.06383
72.513,13.60651,-0.01160745,0.22786,1.06365
73.113,13.66955,-0.01161627,0.22992,1.06347
73.713,13.7325,-0.01031602,0.23174,1.06329
74.313,13.79539,-0.01163842,0.22906,1.06311
74.913,13.8583,-0.01164513,0.22505,1.06293
75.513,13.92111,-0.01162595,0.22414,1.06275
76.113,13.98356,-0.01043405,0.22238,1.06257
76.713,14.0459,-0.01032001,0.21988,1.06239
77.313,14.1081,-0.01031999,0.21671,1.06221
77.913,14.17021,-0.01032343,0.2153,1.06203
78.513,14.2323,-0.01032621,0.21349,1.06184
79.113,14.29432,-0.01026842,0.20976,1.06166
79.713,14.35638,-0.01150193,0.20918,1.06148
80.313,14.41828,-0.01028135,0.20844,1.06129
80.913,14.48055,-0.01164008,0.20925,1.06111
81.513,14.5422,-0.0121826,0.20697,1.06093
82.113,14.60375,-0.01292238,0.2077,1.06074
82.713,14.66495,-0.01163776,0.20499,1.06056
83.313,14.72569,-0.01031423,0.20573,1.06037
83.913,14.78633,-0.01168767,0.20478,1.06018
84.513,14.8469,-0.01040627,0.2054,1.06
85.113,14.90765,-0.01163937,0.20555,1.05981
85.713,14.96875,-0.01159996,0.20438,1.05962
86.313,15.02984,-0.01099323,0.20581,1.05944
86.913,15.0902,-0.01032078,0.20352,1.05925
87.513,15.15039,-0.01164011,0.20209,1.05906
88.113,15.21045,-0.01164053,0.20069,1.05887
88.713,15.2709,-0.01032957,0.19999,1.05868
89.313,15.33119,-0.0116401,0.19949,1.0585
89.913,15.39141,-0.01165321,0.20005,1.05831
90.513,15.45166,-0.01164001,0.19943,1.05812
91.113,15.5115,-0.01163949,0.19815,1.05793
91.713,15.5715,-0.01031524,0.1973,1.05773
92.313,15.63132,-0.01162452,0.19781,1.05754
92.913,15.6909,-0.01065641,0.19602,1.05735
93.513,15.7506,-0.01195944,0.19705,1.05716
94.113,15.8102,-0.01163132,0.19784,1.05697
94.713,15.86977,-0.01031973,0.19878,1.05677
95.313,15.92954,-0.01130544,0.1988,1.05658
95.913,15.98882,-0.0116378,0.19842,1.05639
96.513,16.04824,-0.01289078,0.19954,1.05619
97.113,16.1074,-0.01294714,0.20055,1.056
97.713,16.1665,-0.01163046,0.20082,1.05581
98.313,16.22566,-0.01295846,0.20297,1.05561
98.913,16.28491,-0.01295911,0.20517,1.05542
99.513,16.3438,-0.01162686,0.20473,1.05522
100.113,16.40287,-0.01165547,0.20717,1.05502
100.713,16.46194,-0.01163001,0.20623,1.05483
101.313,16.521,-0.01162936,0.20838,1.05463
101.913,16.5799,-0.01295062,0.21057,1.05443
102.513,16.63885,-0.01161954,0.21231,1.05424
103.113,16.69766,-0.01163998,0.21297,1.05404
103.713,16.75654,-0.01164,0.21341,1.05384
104.313,16.81537,-0.01163867,0.21641,1.05364
104.913,16.87407,-0.01100654,0.21575,1.05344
105.513,16.9328,-0.01167725,0.21731,1.05324
106.113,16.99134,-0.0103217,0.2203,1.05304
106.713,17.04985,-0.01163939,0.22048,1.05284
107.313,17.10807,-0.01126037,0.222,1.05264
107.913,17.1666,-0.01163012,0.22477,1.05244
108.513,17.22537,-0.01163,0.22416,1.05224
109.113,17.284,-0.01163003,0.22545,1.05204
109.713,17.34323,-0.01170255,0.22821,1.05183
110.313,17.40194,-0.01138524,0.22795,1.05163
110.913,17.4605,-0.01163998,0.23142,1.05143
111.513,17.5193,-0.01165652,0.23149,1.05122
112.113,17.57785,-0.01163963,0.23272,1.05102
112.713,17.6363,-0.01164,0.23455,1.05082
113.313,17.69505,-0.01163999,0.2379,1.05061
113.913,17.75347,-0.01160724,0.23651,1.05041
114.513,17.8122,-0.01161765,0.23923,1.0502
115.113,17.8708,-0.0116403,0.23872,1.05
115.713,17.92933,-0.01294698,0.24042,1.04979
116.313,17.988,-0.01216333,0.2425,1.04958
116.913,18.04659,-0.009771877,0.24444,1.04938
117.513,18.10512,-0.0120109,0.24442,1.04917
118.113,18.16369,-0.01241017,0.24587,1.04896
118.713,18.2222,-0.01237997,0.24633,1.04875
119.313,18.2805,-0.0130701,0.24753,1.04854
119.913,18.3386,-0.01306883,0.24913,1.04833
120.513,18.39695,-0.0117448,0.25106,1.04813
121.113,18.4552,-0.01038326,0.25159,1.04792
121.713,18.5135,-0.01111528,0.25277,1.04771
122.313,18.57189,-0.01108864,0.25436,1.0475
122.913,18.63026,-0.01240793,0.25508,1.04728
123.513,18.68869,-0.01240992,0.25528,1.04707
124.113,18.7469,-0.01172956,0.25881,1.04686
124.713,18.80529,-0.01108952,0.25804,1.04665
125.313,18.8634,-0.01237419,0.26104,1.04644
125.913,18.92142,-0.01224724,0.26292,1.04622
126.513,18.9797,-0.009780374,0.26211,1.04601
127.113,19.03801,-0.01109416,0.26516,1.0458
127.713,19.0964,-0.0124151,0.26812,1.04558
128.313,19.15445,-0.01241,0.26869,1.04537
128.913,19.21254,-0.01240971,0.26988,1.04515
129.513,19.27048,-0.01370738,0.27185,1.04494
130.113,19.3287,-0.01241025,0.27238,1.04472
130.713,19.38671,-0.01241,0.27359,1.04451
131.313,19.44436,-0.01241,0.27516,1.04429
131.913,19.50238,-0.01240818,0.27596,1.04407
132.513,19.56046,-0.01369589,0.27777,1.04386
133.113,19.61845,-0.01273985,0.27836,1.04364
133.713,19.6769,-0.01273997,0.2796,1.04342
134.313,19.73469,-0.01355608,0.27988,1.0432
134.913,19.7928,-0.01371744,0.2798,1.04298
135.513,19.85088,-0.01329966,0.2828,1.04277
136.113,19.9089,-0.01305964,0.28183,1.04255
136.713,19.9669,-0.0132638,0.28446,1.04233
137.313,20.02467,-0.01372013,0.28296,1.04211
137.913,20.08256,-0.01371905,0.28358,1.04188
138.513,20.14046,-0.0124082,0.28451,1.04166
139.113,20.19849,-0.01240998,0.28575,1.04144
139.713,20.25628,-0.01230354,0.28686,1.04122
140.313,20.31392,-0.01352401,0.28748,1.041
140.913,20.37151,-0.01262981,0.288,1.04078
141.513,20.42901,-0.01240998,0.28933,1.04055
142.113,20.48678,-0.01345462,0.29002,1.04033
142.713,20.54436,-0.01371987,0.29167,1.0401
143.313,20.60231,-0.01372,0.29256,1.03988
143.913,20.66006,-0.01372,0.29207,1.03966
144.513,20.7177,-0.01369512,0.2935,1.03943
145.113,20.77514,-0.01273187,0.29457,1.03921
145.713,20.8326,-0.01267842,0.29651,1.03898
146.313,20.89005,-0.01405,0.29636,1.03875
146.913,20.94758,-0.01405,0.2966,1.03853
147.513,21.0051,-0.0140501,0.29988,1.0383
148.113,21.0626,-0.01538422,0.29826,1.03807
148.713,21.12029,-0.01504001,0.29773,1.03784
149.313,21.178,-0.01503987,0.30028,1.03762
149.913,21.23572,-0.0144433,0.30012,1.03739
150.513,21.2934,-0.01503897,0.30052,1.03716
151.113,21.35107,-0.01504,0.30155,1.03693
151.713,21.40854,-0.01504237,0.30264,1.0367
152.313,21.4659,-0.0137415,0.30181,1.03647
152.913,21.5233,-0.01373,0.30199,1.03624
153.513,21.5808,-0.01372993,0.3047,1.03601
154.113,21.63832,-0.01507066,0.30346,1.03577
154.713,21.69582,-0.0150399,0.30518,1.03554
155.313,21.753,-0.01479287,0.30503,1.03531
155.913,21.81045,-0.01371999,0.30586,1.03508
156.513,21.86776,-0.01371997,0.30574,1.03484
157.113,21.9253,-0.01362623,0.30689,1.03461
157.713,21.9829,-0.01503987,0.30854,1.03438
158.313,22.0403,-0.01504,0.30593,1.03414
158.913,22.0981,-0.01503999,0.30861,1.03391
159.513,22.15554,-0.01500584,0.30841,1.03367
160.113,22.21304,-0.01567396,0.30981,1.03344
160.713,22.2702,-0.01503924,0.30937,1.0332
161.313,22.3274,-0.01634025,0.31065,1.03297
161.913,22.38482,-0.01636041,0.31101,1.03273
162.513,22.44227,-0.01576432,0.31223,1.03249
163.113,22.49961,-0.01636151,0.31265,1.03225
163.713,22.5568,-0.01494745,0.31432,1.03202
164.313,22.61409,-0.01634986,0.31279,1.03178
164.913,22.67119,-0.01635,0.31478,1.03154
165.513,22.7286,-0.01635,0.31444,1.0313
166.113,22.78611,-0.01635,0.31487,1.03106
166.713,22.8435,-0.01635,0.31611,1.03082
167.313,22.90099,-0.01634998,0.31626,1.03058
167.913,22.95841,-0.01641698,0.31593,1.03034
168.513,23.0156,-0.01504012,0.31861,1.0301
169.113,23.073,-0.01504,0.31822,1.02986
169.713,23.13063,-0.01504178,0.31839,1.02961
170.313,23.1879,-0.01602813,0.31851,1.02937
170.913,23.24534,-0.01603005,0.31898,1.02913
171.513,23.30255,-0.01610268,0.32003,1.02889
172.113,23.35983,-0.01636,0.32053,1.02864
172.713,23.4171,-0.01621885,0.32204,1.0284
173.313,23.47436,-0.01600155,0.32309,1.02815
173.913,23.5317,-0.01638562,0.32307,1.02791
174.513,23.58878,-0.01635999,0.32415,1.02766
175.113,23.64592,-0.01636,0.32575,1.02742
175.713,23.70327,-0.01636,0.32584,1.02717
176.313,23.76064,-0.01636,0.32698,1.02692
176.913,23.81792,-0.01636154,0.32764,1.02668
177.513,23.87527,-0.0176863,0.32851,1.02643
178.113,23.93236,-0.01768,0.32853,1.02618
178.713,23.98947,-0.01768157,0.33139,1.02593
179.313,24.04675,-0.01768384,0.33117,1.02569
179.913,24.1039,-0.01767,0.33189,1.02544
180.513,24.16143,-0.01766556,0.33031,1.02519
181.113,24.21855,-0.01866121,0.33116,1.02494
181.713,24.27567,-0.01866,0.33201,1.02469
182.313,24.33286,-0.01866199,0.33341,1.02444
182.913,24.39,-0.01800001,0.33178,1.02419
183.513,24.44722,-0.01866014,0.3331,1.02393
184.113,24.50432,-0.01866,0.33309,1.02368
184.713,24.56137,-0.01866013,0.33428,1.02343
185.313,24.6184,-0.01782033,0.33413,1.02318
185.913,24.6754,-0.01734998,0.33623,1.02292
186.513,24.73249,-0.0173593,0.33573,1.02267
187.113,24.7896,-0.01800036,0.33423,1.02242
187.713,24.84674,-0.01805961,0.33607,1.02216
188.313,24.90381,-0.01702032,0.33598,1.02191
188.913,24.9608,-0.01702,0.33732,1.02165
189.513,25.0178,-0.01702014,0.33707,1.0214
190.113,25.07473,-0.01751506,0.33772,1.02114
190.713,25.13159,-0.01766902,0.33748,1.02089
191.313,25.18864,-0.01778042,0.33902,1.02063
191.913,25.2458,-0.01668966,0.33803,1.02037
192.513,25.30281,-0.01681425,0.33982,1.02011
193.113,25.36,-0.01801008,0.33879,1.01986
193.713,25.41726,-0.01932897,0.34174,1.0196
194.313,25.4745,-0.01933001,0.33922,1.01934
194.913,25.53146,-0.01934216,0.3404,1.01908
195.513,25.58844,-0.01735095,0.34219,1.01882
196.113,25.64547,-0.01735,0.34363,1.01856
196.713,25.70269,-0.01734972,0.34116,1.0183
197.313,25.7599,-0.01866153,0.34351,1.01804
197.913,25.81709,-0.01866002,0.34491,1.01778
198.513,25.87418,-0.01866,0.34655,1.01751
199.113,25.93125,-0.01865957,0.34723,1.01725
199.713,25.98835,-0.01734827,0.34775,1.01699
200.313,26.04542,-0.01733819,0.34833,1.01673
200.913,26.10258,-0.01799365,0.34987,1.01646
201.513,26.1598,-0.018,0.34937,1.0162
202.113,26.21678,-0.018,0.3501,1.01593
202.713,26.27388,-0.018,0.35043,1.01567
203.313,26.33095,-0.018,0.35115,1.0154
203.913,26.388,-0.0180004,0.35284,1.01514
204.513,26.44523,-0.01868329,0.35325,1.01487
205.113,26.502,-0.01866001,0.35385,1.01461
205.713,26.5591,-0.01866,0.35358,1.01434
206.313,26.6162,-0.01867857,0.35463,1.01407
206.913,26.67318,-0.01863344,0.3552,1.01381
207.513,26.73051,-0.01866,0.35453,1.01354
208.113,26.78763,-0.01865674,0.35557,1.01327
208.713,26.84468,-0.01996697,0.35686,1.013
209.313,26.90186,-0.01868,0.3574,1.01273
209.913,26.959,-0.01863519,0.35743,1.01246
210.513,27.01605,-0.01997921,0.36021,1.01219
211.113,27.0731,-0.01997992,0.36015,1.01192
211.713,27.13001,-0.01865947,0.36109,1.01165
212.313,27.18709,-0.01865651,0.36269,1.01138
212.913,27.24418,-0.01996609,0.36382,1.01111
213.513,27.30123,-0.01998013,0.36288,1.01083
214.113,27.35855,-0.01888651,0.36372,1.01056
214.713,27.41563,-0.01769338,0.36487,1.01029
215.313,27.47287,-0.01900353,0.366,1.01001
215.913,27.5298,-0.019,0.36648,1.00974
216.513,27.5869,-0.01913749,0.36794,1.00947
217.113,27.64418,-0.02031049,0.36963,1.00919
217.713,27.7013,-0.02031009,0.36945,1.00892
218.313,27.7586,-0.01972798,0.37052,1.00864
218.913,27.8157,-0.01966008,0.37263,1.00836
219.513,27.87265,-0.01966006,0.37343,1.00809
220.113,27.9299,-0.02096281,0.37173,1.00781
220.713,27.987,-0.0210042,0.37359,1.00753
221.313,28.04423,-0.02063981,0.37595,1.00726
221.913,28.1016,-0.020632,0.37605,1.00698
222.513,28.1587,-0.01809631,0.37587,1.0067
223.113,28.21586,-0.01931853,0.37845,1.00642
223.713,28.27305,-0.01932,0.3804,1.00614
224.313,28.33026,-0.01932004,0.37999,1.00586
224.913,28.38737,-0.02052588,0.38213,1.00558
225.513,28.44415,-0.02090526,0.38338,1.0053
226.113,28.50113,-0.0212233,0.38283,1.00502
226.713,28.5583,-0.01998004,0.38586,1.00474
227.313,28.61529,-0.01998,0.38692,1.00445
227.913,28.6727,-0.01998,0.38999,1.00417
228.513,28.72975,-0.01998,0.39057,1.00389
229.113,28.7868,-0.01998,0.39357,1.00361
229.713,28.84406,-0.01998006,0.39574,1.00332
230.313,28.90113,-0.02002112,0.39851,1.00304
230.913,28.95822,-0.02129965,0.39974,1.00275
231.513,29.01515,-0.0213,0.40257,1.00247
232.113,29.07228,-0.0213,0.40382,1.00218
232.713,29.1294,-0.0213,0.40579,1.0019
233.313,29.18624,-0.02130001,0.40812,1.00161
233.913,29.243,-0.02131541,0.41152,1.00132
234.513,29.3,-0.02261999,0.41244,1.00104
235.113,29.35653,-0.02262,0.41714,1.00075
235.713,29.4137,-0.02262268,0.41859,1.00046
236.313,29.4709,-0.0213063,0.42323,1.00017
236.913,29.52771,-0.02129999,0.4272,0.99988
237.513,29.5853,-0.0212989,0.4291,0.9996
238.113,29.64231,-0.0222799,0.43402,0.99931
238.713,29.69952,-0.02262021,0.4365,0.99902
239.313,29.7567,-0.02262,0.44325,0.99873
239.913,29.81383,-0.02262,0.44505,0.99843
240.513,29.87084,-0.02262028,0.45003,0.99814
241.113,29.9281,-0.02392038,0.45457,0.99785
241.713,29.98522,-0.02393003,0.45901,0.99756
242.313,30.0421,-0.02397316,0.4654,0.99727
242.913,30.09933,-0.0216532,0.47245,0.99697
243.513,30.1562,-0.02164409,0.4794,0.99668
244.113,30.2132,-0.02294355,0.4858,0.99639
244.713,30.2705,-0.02294005,0.49595,0.99609
245.313,30.32757,-0.02216292,0.50477,0.9958
245.913,30.3853,-0.02197777,0.51583,0.9955
246.513,30.44258,-0.02261877,0.52744,0.99521
247.113,30.49975,-0.02261938,0.53978,0.99491
247.713,30.55707,-0.0236063,0.55246,0.99461
248.313,30.614,-0.02392934,0.56976,0.99432
248.913,30.67125,-0.02393,0.58769,0.99402
249.513,30.72855,-0.0239267,0.60553,0.99372
250.113,30.78577,-0.02459409,0.63004,0.99342
250.713,30.8431,-0.02459042,0.65551,0.99312
251.313,30.9004,-0.02491511,0.68692,0.99282
251.913,30.9575,-0.02524857,0.72382,0.99252
252.513,31.0147,-0.02424427,0.76757,0.99222
253.113,31.0721,-0.02425999,0.81994,0.99192
253.713,31.1294,-0.02426057,0.88215,0.99162
254.313,31.1873,-0.02558375,0.94849,0.99132
254.913,31.24482,-0.02558345,1.02073,0.99102
255.513,31.30258,-0.02427249,1.0909,0.99072
256.113,31.36045,-0.02426107,1.16257,0.99042
256.713,31.41834,-0.02550607,1.22145,0.99011
257.313,31.47605,-0.02689989,1.26443,0.98981
257.913,31.53373,-0.02690191,1.28418,0.98951
258.513,31.59137,-0.02656838,1.27608,0.9892
259.113,31.6491,-0.02659311,1.237,0.9889
259.713,31.70678,-0.02525078,1.16943,0.98859
260.313,31.7642,-0.02666726,1.08579,0.98829
260.913,31.82125,-0.02656843,0.99773,0.98798
261.513,31.87823,-0.02789153,0.90894,0.98767
262.113,31.93492,-0.02688414,0.83153,0.98737
262.713,31.9916,-0.0269,0.76133,0.98706
263.313,32.04835,-0.0269,0.70152,0.98675
263.913,32.10508,-0.02689997,0.65181,0.98644
264.513,32.16213,-0.02743538,0.61124,0.98613
265.113,32.21875,-0.02821196,0.57728,0.98583
265.713,32.27555,-0.02689681,0.54854,0.98552
266.313,32.3324,-0.0269,0.52373,0.98521
266.913,32.38905,-0.0269,0.50599,0.9849
267.513,32.44592,-0.02690116,0.48991,0.98458
268.113,32.50266,-0.02789532,0.47362,0.98427
268.713,32.5593,-0.02788,0.46352,0.98396
269.313,32.616,-0.02788363,0.45566,0.98365
269.913,32.67277,-0.02658315,0.44885,0.98334
270.513,32.7296,-0.02657,0.44016,0.98302
271.113,32.7864,-0.02656623,0.43432,0.98271
271.713,32.8433,-0.02786659,0.42812,0.9824
272.313,32.9003,-0.02788415,0.42446,0.98208
272.913,32.95706,-0.0254892,0.42256,0.98177
273.513,33.01395,-0.02597934,0.41913,0.98145
274.113,33.0708,-0.02787915,0.41806,0.98114
274.713,33.12768,-0.02788,0.41448,0.98082
275.313,33.1848,-0.02788,0.41226,0.98051
275.913,33.24192,-0.02788,0.41113,0.98019
276.513,33.29909,-0.02788,0.41006,0.97987
277.113,33.35611,-0.02788,0.40855,0.97955
277.713,33.41316,-0.02788,0.40912,0.97923
278.313,33.4702,-0.02788,0.40716,0.97892
278.913,33.5274,-0.02788,0.40665,0.9786
279.513,33.58448,-0.02788,0.40636,0.97828
280.113,33.6415,-0.02787893,0.40637,0.97796
280.713,33.69854,-0.02921418,0.40403,0.97764
281.313,33.75553,-0.02920002,0.40719,0.97732
281.913,33.81282,-0.02920103,0.40541,0.977
282.513,33.87005,-0.02853923,0.40402,0.97667
283.113,33.9274,-0.0282099,0.40418,0.97635
283.713,33.984,-0.02821,0.40512,0.97603
284.313,34.04122,-0.02821,0.40539,0.97571
284.913,34.09856,-0.02821,0.40541,0.97538
285.513,34.15595,-0.02821,0.40494,0.97506
286.113,34.21358,-0.02821,0.40479,0.97473
286.713,34.27094,-0.02821,0.40532,0.97441
287.313,34.32842,-0.02821128,0.40603,0.97408
287.913,34.38578,-0.02953582,0.40456,0.97376
288.513,34.44308,-0.02953002,0.40573,0.97343
289.113,34.50031,-0.02917302,0.40631,0.97311
289.713,34.55747,-0.02821066,0.4063,0.97278
290.313,34.6149,-0.02957898,0.40634,0.97245
290.913,34.67228,-0.02953002,0.40508,0.97212
291.513,34.72967,-0.02952869,0.40587,0.9718
292.113,34.78709,-0.02921948,0.40583,0.97147
292.713,34.84434,-0.02920001,0.40535,0.97114
293.313,34.90161,-0.0292,0.40641,0.97081
293.913,34.9589,-0.0292,0.40507,0.97048
294.513,35.01603,-0.0292,0.40616,0.97015
295.113,35.07343,-0.02920009,0.40393,0.96982
295.713,35.13077,-0.03055829,0.4056,0.96949
296.313,35.18842,-0.03051861,0.40606,0.96915
296.913,35.24566,-0.02977101,0.40572,0.96882
297.513,35.3031,-0.02985565,0.40618,0.96849
298.113,35.3606,-0.03117942,0.40566,0.96816
298.713,35.41796,-0.03118,0.40406,0.96782
299.313,35.47517,-0.03118,0.40516,0.96749
299.913,35.53225,-0.03118,0.40493,0.96715
300.513,35.58955,-0.03118,0.40576,0.96682
301.113,35.64695,-0.03118,0.40646,0.96648
301.713,35.7045,-0.0311882,0.40722,0.96615
302.313,35.76186,-0.03150947,0.40814,0.96581
302.913,35.81895,-0.03151,0.40923,0.96548
303.513,35.87623,-0.03151,0.4083,0.96514
304.113,35.93358,-0.03151,0.40864,0.9648
304.713,35.99103,-0.03151,0.40768,0.96446
305.313,36.04848,-0.03151128,0.40831,0.96413
305.913,36.10584,-0.0328357,0.40888,0.96379
306.513,36.16322,-0.03282086,0.40852,0.96345
307.113,36.22077,-0.03150627,0.40775,0.96311
307.713,36.27831,-0.03250143,0.40783,0.96277
308.313,36.3358,-0.03249886,0.40819,0.96243
308.913,36.39333,-0.03280571,0.40899,0.96209
309.513,36.451,-0.03217006,0.40717,0.96175
310.113,36.50855,-0.03217617,0.40713,0.9614
310.713,36.56606,-0.03244761,0.40755,0.96106
311.313,36.62356,-0.03381899,0.40694,0.96072
311.913,36.68098,-0.03381754,0.40841,0.96038
312.513,36.73835,-0.03250445,0.40841,0.96003
313.113,36.79549,-0.0325,0.41149,0.95969
313.713,36.85284,-0.03249999,0.40793,0.95934
314.313,36.90999,-0.03250011,0.40968,0.959
314.913,36.96761,-0.03382178,0.40963,0.95865
315.513,37.025,-0.03382,0.4085,0.95831
316.113,37.08247,-0.03382,0.40937,0.95796
316.713,37.13978,-0.03382,0.4087,0.95761
317.313,37.19721,-0.03382,0.40878,0.95727
317.913,37.25477,-0.03382012,0.40831,0.95692
318.513,37.31256,-0.03402108,0.40763,0.95657
319.113,37.37021,-0.03514,0.4077,0.95622
319.713,37.42779,-0.03514,0.40817,0.95587
320.313,37.48539,-0.03514365,0.40869,0.95553
320.913,37.54306,-0.0338459,0.40912,0.95518
321.513,37.60068,-0.03512281,0.40723,0.95483
322.113,37.6582,-0.03532952,0.40723,0.95447
322.713,37.71578,-0.03516177,0.40787,0.95412
323.313,37.77312,-0.03514018,0.40889,0.95377
323.913,37.8307,-0.03442062,0.40846,0.95342
324.513,37.88842,-0.03382122,0.40847,0.95307
325.113,37.9461,-0.0351455,0.40763,0.95271
325.713,38.00369,-0.03525498,0.40777,0.95236
326.313,38.06142,-0.03547001,0.40844,0.95201
326.913,38.11898,-0.03542195,0.41026,0.95165
327.513,38.1768,-0.03677991,0.40945,0.9513
328.113,38.23441,-0.03677818,0.40887,0.95094
328.713,38.29193,-0.03546468,0.41083,0.95059
329.313,38.34963,-0.03546881,0.41104,0.95023
329.913,38.40719,-0.03677895,0.41169,0.94988
330.513,38.46488,-0.03678,0.41152,0.94952
331.113,38.52274,-0.03677992,0.41137,0.94916
331.713,38.58037,-0.03675566,0.4103,0.9488
332.313,38.638,-0.03523444,0.4092,0.94845
332.913,38.69573,-0.03655284,0.41147,0.94809
333.513,38.75338,-0.03786816,0.41047,0.94773
334.113,38.81108,-0.03788049,0.4109,0.94737
334.713,38.8682,-0.03655347,0.41238,0.94701
335.313,38.92572,-0.03786849,0.41146,0.94665
335.913,38.9833,-0.03814533,0.41134,0.94629
336.513,39.0413,-0.03919166,0.41228,0.94593
337.113,39.0996,-0.03786956,0.41292,0.94557
337.713,39.15728,-0.03787,0.41385,0.9452
338.313,39.2151,-0.03787179,0.41254,0.94484
338.913,39.27284,-0.03919636,0.41335,0.94448
339.513,39.33056,-0.03989696,0.4117,0.94411
340.113,39.38841,-0.04051008,0.41407,0.94375
340.713,39.44625,-0.04051,0.41376,0.94339
341.313,39.50385,-0.04051,0.41321,0.94302
341.913,39.5617,-0.04050786,0.41432,0.94266
342.513,39.61956,-0.03921914,0.41432,0.94229
343.113,39.67733,-0.03886088,0.41426,0.94193
343.713,39.73527,-0.04022724,0.41466,0.94156
344.313,39.79323,-0.04035117,0.41462,0.94119
344.913,39.851,-0.04117023,0.41458,0.94082
345.513,39.9088,-0.04244627,0.415,0.94046
346.113,39.9664,-0.04248988,0.41533,0.94009
346.713,40.02405,-0.0422901,0.41627,0.93972
347.313,40.082,-0.04124921,0.41746,0.93935
347.913,40.13984,-0.04248998,0.41782,0.93898
348.513,40.19782,-0.04249,0.41749,0.93861
349.113,40.25546,-0.04249018,0.41603,0.93824
349.713,40.31323,-0.04212493,0.41826,0.93787
350.313,40.37104,-0.04216264,0.41671,0.9375
350.913,40.42882,-0.04346701,0.41884,0.93713
351.513,40.48672,-0.04347,0.41727,0.93675
352.113,40.54463,-0.04347,0.4179,0.93638
352.713,40.60256,-0.04346769,0.41797,0.93601
353.313,40.66043,-0.04247895,0.4195,0.93564
353.913,40.71847,-0.04247529,0.41961,0.93526
354.513,40.77629,-0.04379176,0.42171,0.93489
355.113,40.83417,-0.04511806,0.42146,0.93451
355.713,40.8926,-0.04512,0.421,0.93414
356.313,40.95061,-0.04511999,0.42157,0.93376
356.913,41.00854,-0.04518433,0.42257,0.93339
357.513,41.06649,-0.04379314,0.42361,0.93301
358.113,41.1244,-0.04511241,0.42378,0.93263
358.713,41.18245,-0.04643153,0.42486,0.93225
359.313,41.24049,-0.04511872,0.42776,0.93188
359.913,41.29855,-0.04645175,0.42564,0.9315
360.513,41.3564,-0.04775011,0.42783,0.93112
361.113,41.4144,-0.04775999,0.4278,0.93074
361.713,41.47227,-0.04776,0.42746,0.93036
362.313,41.53027,-0.04776,0.42987,0.92998
362.913,41.5884,-0.04797595,0.43156,0.9296
363.513,41.64654,-0.04907041,0.43224,0.92922
364.113,41.70475,-0.049316,0.43348,0.92884
364.713,41.76266,-0.05039025,0.43606,0.92846
365.313,41.82059,-0.05039,0.43685,0.92807
365.913,41.87846,-0.05038744,0.43858,0.92769
366.513,41.93649,-0.05170014,0.43966,0.92731
367.113,41.99434,-0.05158237,0.44136,0.92692
367.713,42.0522,-0.05434903,0.44192,0.92654
368.313,42.11015,-0.05434871,0.44372,0.92616
368.913,42.16809,-0.05566177,0.44778,0.92577
369.513,42.2263,-0.05555587,0.44723,0.92539
370.113,42.28423,-0.0563169,0.44959,0.925
370.713,42.34251,-0.0576271,0.45218,0.92461
371.313,42.40048,-0.0576397,0.45373,0.92423
371.913,42.45865,-0.05897313,0.45392,0.92384
372.513,42.51682,-0.05898534,0.45619,0.92345
373.113,42.57506,-0.06027041,0.45961,0.92306
373.713,42.63329,-0.06008063,0.45944,0.92268
374.313,42.69137,-0.06093238,0.45947,0.92229
374.913,42.74938,-0.06121082,0.46269,0.9219
375.513,42.80733,-0.0624218,0.46606,0.92151
376.113,42.86535,-0.06529885,0.4657,0.92112
376.713,42.92333,-0.06581887,0.46961,0.92073
377.313,42.98137,-0.06695539,0.47213,0.92034
377.913,43.0396,-0.06880595,0.47338,0.91994
378.513,43.0978,-0.06950016,0.47357,0.91955
379.113,43.15616,-0.07100522,0.47745,0.91916
379.713,43.2143,-0.07225745,0.47856,0.91877
380.313,43.27256,-0.07362577,0.47954,0.91837
380.913,43.33067,-0.07502078,0.48189,0.91798
381.513,43.38859,-0.07798265,0.48296,0.91759
382.113,43.4468,-0.08000608,0.48358,0.91719
382.713,43.5049,-0.08167287,0.48661,0.9168
383.313,43.56313,-0.08348608,0.48746,0.9164
383.913,43.62125,-0.08417763,0.4939,0.91601
384.513,43.67942,-0.08645973,0.49704,0.91561
385.113,43.7374,-0.08852106,0.49721,0.91521
385.713,43.79567,-0.09138661,0.49882,0.91482
386.313,43.85388,-0.09478701,0.50097,0.91442
386.913,43.91217,-0.09754618,0.50454,0.91402
387.513,43.9709,-0.10036,0.5069,0.91362
388.113,44.02915,-0.10164,0.5091,0.91322
388.713,44.0873,-0.10464,0.50945,0.91282
389.313,44.1451,-0.10851,0.51308,0.91243
389.913,44.2033,-0.11333,0.51478,0.91202
390.513,44.2616,-0.11567,0.51859,0.91162
391.113,44.32008,-0.12022,0.52324,0.91122
391.713,44.37851,-0.12345,0.52656,0.91082
392.313,44.43674,-0.12797,0.52958,0.91042
392.913,44.49512,-0.13253,0.53222,0.91002
393.513,44.55346,-0.13621,0.5343,0.90962
394.113,44.61166,-0.14113,0.53804,0.90921
394.713,44.66979,-0.14588,0.5443,0.90881
395.313,44.7279,-0.14964,0.54582,0.9084
395.913,44.786,-0.15477,0.55,0.908
396.513,44.84409,-0.16141,0.55309,0.90759
397.113,44.90234,-0.16675,0.55495,0.90719
397.713,44.96051,-0.17341,0.5575,0.90678
398.313,45.01872,-0.17938,0.55497,0.90638
398.913,45.077,-0.18575,0.5591,0.90597
399.513,45.1351,-0.19297,0.56218,0.90556
400.113,45.19331,-0.20165,0.56324,0.90516
400.713,45.2515,-0.20827,0.5659,0.90475
401.313,45.30939,-0.21509,0.56889,0.90434
401.913,45.36772,-0.22163,0.57552,0.90393
402.513,45.42588,-0.23021,0.57898,0.90352
403.113,45.48433,-0.23835,0.58301,0.90311
403.713,45.54257,-0.24611,0.55929,0.9027
404.313,45.601,-0.25664,0.55172,0.90229
404.913,45.6593,-0.26506,0.54847,0.90188
405.513,45.71768,-0.27399,0.54741,0.90147
406.113,45.77595,-0.28319,0.5458,0.90106
406.713,45.8341,-0.29392,0.54011,0.90065
407.313,45.8924,-0.30277,0.53183,0.90023
407.913,45.95057,-0.31419,0.52556,0.89982
408.513,46.0087,-0.32382,0.5148,0.89941
409.113,46.06681,-0.33344,0.50216,0.89899
409.713,46.12493,-0.34459,0.49033,0.89858
410.313,46.18311,-0.35538,0.47789,0.89816
410.913,46.24146,-0.36792,0.46698,0.89775
411.513,46.2996,-0.37833,0.4547,0.89733
412.113,46.35795,-0.38941,0.44358,0.89692
412.713,46.41624,-0.40015,0.4323,0.8965
413.313,46.47466,-0.41214,0.41651,0.89608
413.913,46.53309,-0.4217,0.41314,0.89567
414.513,46.5914,-0.43332,0.41295,0.89525
415.113,46.64978,-0.44575,0.41925,0.89483
415.713,46.70796,-0.46018,0.42609,0.89441
416.313,46.7662,-0.47492,0.43139,0.89399
416.913,46.82461,-0.48862,0.44024,0.89357
417.513,46.88293,-0.50234,0.44872,0.89315
418.113,46.94148,-0.51819,0.45746,0.89273
418.713,46.99973,-0.53521,0.47436,0.89231
419.313,47.058,-0.55214,0.48401,0.89189
419.913,47.11643,-0.57032,0.49867,0.89147
420.513,47.1748,-0.58985,0.50633,0.89105
421.113,47.23335,-0.60822,0.51925,0.89063
421.713,47.29222,-0.63013,0.53456,0.8902
422.313,47.35088,-0.64937,0.54706,0.88978
422.913,47.4097,-0.67473,0.56341,0.88936
423.513,47.4682,-0.69531,0.57828,0.88893
424.113,47.52678,-0.72146,0.58926,0.88851
424.713,47.58547,-0.74638,0.60188,0.88808
425.313,47.64425,-0.77364,0.61658,0.88766
425.913,47.70285,-0.80034,0.62892,0.88723
426.513,47.7614,-0.82767,0.63968,0.8868
427.113,47.8202,-0.85771,0.64955,0.88638
427.713,47.8791,-0.88669,0.66604,0.88595
428.313,47.93817,-0.91931,0.67933,0.88552
428.913,47.99714,-0.94988,0.69163,0.8851
429.513,48.056,-0.98438,0.70381,0.88467
430.113,48.11479,-1.01736,0.71557,0.88424
430.713,48.17373,-1.05381,0.72944,0.88381
431.313,48.2327,-1.09014,0.73872,0.88338
431.913,48.29157,-1.12833,0.74582,0.88295
432.513,48.35053,-1.16536,0.75007,0.88252
433.113,48.40943,-1.2057,0.75897,0.88209
433.713,48.4683,-1.24303,0.76498,0.88166
434.313,48.52705,-1.2854,0.77138,0.88123
434.913,48.58589,-1.32392,0.77727,0.88079
435.513,48.64451,-1.36774,0.78201,0.88036
436.113,48.70317,-1.40941,0.78603,0.87993
436.713,48.76194,-1.453,0.78996,0.87949
437.313,48.82073,-1.49737,0.79351,0.87906
437.913,48.8797,-1.54163,0.79597,0.87863
438.513,48.93851,-1.58687,0.79749,0.87819
439.113,48.99732,-1.63258,0.79962,0.87776
439.713,49.05604,-1.67924,0.79906,0.87732
440.313,49.11492,-1.72505,0.79924,0.87689
440.913,49.17372,-1.77252,0.79566,0.87645
441.513,49.23258,-1.8185,0.79314,0.87601
442.113,49.2914,-1.86688,0.78861,0.87558
442.713,49.35014,-1.91265,0.78527,0.87514
443.313,49.40875,-1.96064,0.77946,0.8747
443.913,49.46736,-2.00605,0.77121,0.87426
444.513,49.5261,-2.05387,0.76199,0.87382
445.113,49.58486,-2.09796,0.75284,0.87338
445.713,49.64367,-2.14529,0.74201,0.87294
446.313,49.70232,-2.18853,0.72931,0.8725
446.913,49.76108,-2.23266,0.71219,0.87206
447.513,49.81977,-2.27459,0.69964,0.87162
448.113,49.87832,-2.31655,0.68439,0.87118
448.713,49.9369,-2.35883,0.6671,0.87074
449.313,49.9955,-2.39657,0.6509,0.8703
449.913,50.0541,-2.43394,0.63325,0.86986
450.513,50.11254,-2.46903,0.6159,0.86941
451.113,50.17102,-2.50605,0.59204,0.86897
451.713,50.22958,-2.53807,0.57278,0.86853
452.313,50.28823,-2.56853,0.54867,0.86808
452.913,50.34681,-2.59591,0.52694,0.86764
453.513,50.4052,-2.6241,0.50608,0.86719
454.113,50.46356,-2.64787,0.48261,0.86675
454.713,50.52194,-2.67116,0.46148,0.8663
455.313,50.5805,-2.69291,0.43961,0.86585
455.913,50.6392,-2.71067,0.41753,0.86541
456.513,50.69769,-2.73064,0.39802,0.86496
457.113,50.7563,-2.74872,0.38055,0.86451
457.713,50.8148,-2.76471,0.36257,0.86407
458.313,50.87342,-2.77939,0.34799,0.86362
458.913,50.9319,-2.79379,0.3339,0.86317
459.513,50.9906,-2.80499,0.31999,0.86272
460.113,51.04933,-2.81622,0.30641,0.86227
460.713,51.10794,-2.8283,0.29448,0.86182
461.313,51.16665,-2.83908,0.28285,0.86137
461.913,51.2252,-2.84945,0.27487,0.86092
462.513,51.28385,-2.8588,0.26327,0.86047
463.113,51.34268,-2.86858,0.25498,0.86002
463.713,51.40148,-2.87505,0.24648,0.85957
464.313,51.4604,-2.88295,0.23622,0.85911
464.913,51.5191,-2.89088,0.22459,0.85866
465.513,51.57778,-2.89821,0.21774,0.85821
466.113,51.63653,-2.90488,0.21069,0.85775
466.713,51.69532,-2.91089,0.2013,0.8573
467.313,51.75417,-2.91709,0.19234,0.85685
467.913,51.81276,-2.92329,0.18424,0.85639
468.513,51.87149,-2.92803,0.17669,0.85594
469.113,51.93053,-2.93357,0.16627,0.85548
469.713,51.98952,-2.93918,0.15761,0.85503
470.313,52.04872,-2.94605,0.1497,0.85457
470.913,52.1077,-2.95006,0.14053,0.85411
471.513,52.16655,-2.95315,0.13206,0.85366
472.113,52.22548,-2.9573,0.12569,0.8532
472.713,52.28432,-2.9609,0.11718,0.85274
473.313,52.34323,-2.96545,0.10859,0.85228
473.913,52.402,-2.96995,0.10357,0.85182
474.513,52.4609,-2.97503,0.09818786,0.85136
475.113,52.51979,-2.9782,0.09398332,0.8509
475.713,52.57874,-2.98128,0.08697032,0.85044
476.313,52.6378,-2.98464,0.07879342,0.84998
476.913,52.69667,-2.98796,0.07213323,0.84952
477.513,52.7554,-2.99082,0.06839567,0.84906
478.113,52.81419,-2.99263,0.06545712,0.8486
478.713,52.8731,-2.99515,0.06009647,0.84814
479.313,52.9319,-2.99881,0.05353146,0.84768
479.913,52.9908,-3.00243,0.04376524,0.84721
480.513,53.04979,-3.0038,0.04223958,0.84675
481.113,53.109,-3.00643,0.04085725,0.84629
481.713,53.1678,-3.00851,0.03796181,0.84582
482.313,53.227,-3.0104,0.03324695,0.84536
482.913,53.28569,-3.01172,0.02901713,0.8449
483.513,53.34446,-3.01462,0.0250537,0.84443
484.113,53.4036,-3.01685,0.02274269,0.84397
484.713,53.4626,-3.01858,0.007049372,0.8435
485.313,53.52169,-3.0205,0.009544653,0.84303
485.913,53.58079,-3.02232,0.00723351,0.84257
486.513,53.64,-3.02365,0.008584965,0.8421
487.113,53.69915,-3.02644,0.002779094,0.84163
487.713,53.75849,-3.02782,0.00387381,0.84117
488.313,53.81745,-3.02782,0.007077934,0.8407
488.913,53.87659,-3.02919,0.004644927,0.84023
489.513,53.93557,-3.03347,0.00172529,0.83976
490.113,53.9947,-3.03474,-0.00330166,0.83929
490.713,54.05372,-3.03607,-0.007328701,0.83882
491.313,54.1127,-3.03672,-0.01292946,0.83835
491.913,54.1718,-3.03721,-0.01301015,0.83788
492.513,54.231,-3.03912,-0.01353926,0.83741
493.113,54.29005,-3.04045,-0.01409068,0.83694
493.713,54.34925,-3.04175,-0.01478391,0.83647
494.313,54.40844,-3.04175,-0.01431734,0.83599
494.913,54.4674,-3.04274,-0.01609054,0.83552
495.513,54.5265,-3.04543,-0.01613388,0.83505
496.113,54.58545,-3.04676,-0.01502089,0.83458
496.713,54.64441,-3.04803,-0.01839102,0.8341
497.313,54.7035,-3.04935,-0.01973857,0.83363
497.913,54.7626,-3.04837,-0.02144985,0.83315
498.513,54.8218,-3.04965,-0.02024561,0.83268
499.113,54.8811,-3.05099,-0.02263091,0.83221
499.713,54.94024,-3.05231,-0.02220928,0.83173
500.313,54.99955,-3.05231,-0.02472201,0.83125
500.913,55.0586,-3.0533,-0.02430261,0.83078
501.513,55.1179,-3.05365,-0.02580638,0.8303
502.113,55.177,-3.05494,-0.0283931,0.82982
502.713,55.2362,-3.05624,-0.02873857,0.82935
503.313,55.2955,-3.05656,-0.02995827,0.82887
503.913,55.3547,-3.05753,-0.02970692,0.82839
504.513,55.41384,-3.0589,-0.02951848,0.82791
505.113,55.473,-3.0602,-0.03176484,0.82743
505.713,55.53204,-3.06017,-0.03179944,0.82696
506.313,55.59121,-3.06153,-0.03450849,0.82648
506.913,55.65036,-3.06285,-0.03615413,0.826
507.513,55.7096,-3.06285,-0.03642124,0.82552
508.113,55.7689,-3.06417,-0.03930898,0.82503
508.713,55.82832,-3.06517,-0.03658551,0.82455
509.313,55.8879,-3.06631,-0.03903585,0.82407
509.913,55.94701,-3.06647,-0.04065886,0.82359
510.513,56.0062,-3.06637,-0.03931886,0.82311
511.113,56.0653,-3.06779,-0.04112219,0.82263
511.713,56.1245,-3.06912,-0.04350983,0.82214
512.313,56.1839,-3.06911,-0.04364362,0.82166
512.913,56.2431,-3.07043,-0.04236952,0.82118
513.513,56.30234,-3.07137,-0.04384934,0.82069
514.113,56.36149,-3.07042,-0.04631661,0.82021
514.713,56.42044,-3.07173,-0.0464802,0.81972
515.313,56.47973,-3.07173,-0.04715067,0.81924
515.913,56.53904,-3.07439,-0.04746978,0.81875
516.513,56.5984,-3.07569,-0.04750663,0.81827
517.113,56.6582,-3.07634,-0.04531649,0.81778
517.713,56.71774,-3.07635,-0.04986281,0.81729
518.313,56.77729,-3.07635,-0.04855809,0.81681
518.913,56.8369,-3.07625,-0.04308282,0.81632
519.513,56.8965,-3.0777,-0.03911853,0.81583
520.113,56.956,-3.07898,-0.04110584,0.81534
520.713,57.01546,-3.07897,-0.04056424,0.81485
521.313,57.0751,-3.07832,-0.04304278,0.81437
521.913,57.1346,-3.07965,-0.04324918,0.81388
522.513,57.19409,-3.07966,-0.04246425,0.81339
523.113,57.2537,-3.08096,-0.04571726,0.8129
523.713,57.31315,-3.08093,-0.04628021,0.81241
524.313,57.3727,-3.08228,-0.04682549,0.81192
524.913,57.43209,-3.08228,-0.04335191,0.81143
525.513,57.49159,-3.08229,-0.0420167,0.81093
526.113,57.55112,-3.08359,-0.0432075,0.81044
526.713,57.6107,-3.08359,-0.04246636,0.80995
527.313,57.67005,-3.08491,-0.04230991,0.80946
527.913,57.7294,-3.08491,-0.04275966,0.80897
528.513,57.7884,-3.08491,-0.04308509,0.80847
529.113,57.8477,-3.08622,-0.04218026,0.80798
529.713,57.90715,-3.08632,-0.04157174,0.80748
530.313,57.96682,-3.08597,-0.04225682,0.80699
530.913,58.02639,-3.08623,-0.04196957,0.8065
531.513,58.08585,-3.08656,-0.04243938,0.806
532.113,58.14516,-3.08656,-0.04298058,0.80551
532.713,58.2044,-3.08796,-0.04300574,0.80501
533.313,58.2637,-3.08786,-0.04636351,0.80451
533.913,58.3231,-3.08886,-0.04722046,0.80402
534.513,58.38261,-3.08901,-0.04606171,0.80352
535.113,58.442,-3.08838,-0.04676022,0.80302
535.713,58.5016,-3.08886,-0.04729238,0.80253
536.313,58.5611,-3.08961,-0.04787611,0.80203
536.913,58.6205,-3.0915,-0.05061475,0.80153
537.513,58.67997,-3.0915,-0.05035257,0.80103
538.113,58.73914,-3.09018,-0.04967754,0.80053
538.713,58.7985,-3.09018,-0.04769738,0.80003
539.313,58.85794,-3.09019,-0.04695787,0.79954
539.913,58.917,-3.0915,-0.04935928,0.79904
540.513,58.9763,-3.0915,-0.04716604,0.79854
541.113,59.0357,-3.09149,-0.04895406,0.79803
541.713,59.0951,-3.09281,-0.04868663,0.79753
542.313,59.15529,-3.09281,-0.04791362,0.79703
542.913,59.2149,-3.09281,-0.05084545,0.79653
543.513,59.2745,-3.09414,-0.05072859,0.79603
544.113,59.33406,-3.09413,-0.05135353,0.79553
544.713,59.3934,-3.09444,-0.05181564,0.79502
545.313,59.45306,-3.09512,-0.05115571,0.79452
545.913,59.5125,-3.09518,-0.05233912,0.79402
546.513,59.5721,-3.09414,-0.04749009,0.79351
547.113,59.63171,-3.09421,-0.04921331,0.79301
547.713,59.69144,-3.09579,-0.04988069,0.79251
548.313,59.75121,-3.09579,-0.05007383,0.792
548.913,59.81097,-3.0965,-0.05060882,0.7915
549.513,59.8708,-3.0968,-0.05029099,0.79099
550.113,59.93055,-3.09674,-0.04820377,0.79049
550.713,59.99024,-3.09677,-0.04938581,0.78998
551.313,60.0498,-3.09677,-0.05178831,0.78947
551.913,60.10934,-3.09737,-0.05158507,0.78897
552.513,60.1689,-3.09809,-0.05125124,0.78846
553.113,60.2286,-3.09809,-0.05352795,0.78795
553.713,60.28829,-3.09941,-0.05427225,0.78744
554.313,60.3479,-3.09941,-0.05310592,0.78694
554.913,60.4074,-3.10073,-0.05364659,0.78643
555.513,60.4671,-3.10073,-0.05248438,0.78592
556.113,60.52694,-3.10073,-0.05293477,0.78541
556.713,60.5865,-3.1011,-0.05218102,0.7849
557.313,60.6461,-3.10204,-0.0532837,0.78439
557.913,60.7056,-3.10267,-0.05450063,0.78388
558.513,60.76504,-3.1026,-0.05276661,0.78337
559.113,60.8247,-3.10377,-0.05522081,0.78286
559.713,60.88436,-3.1027,-0.05345909,0.78235
560.313,60.94396,-3.10262,-0.05196259,0.78184
560.913,61.00365,-3.10402,-0.05433141,0.78133
561.513,61.06329,-3.10639,-0.05376715,0.78082
562.113,61.1229,-3.10632,-0.05533639,0.7803
562.713,61.1825,-3.10534,-0.05620658,0.77979
563.313,61.24211,-3.10534,-0.05715254,0.77928
563.913,61.30186,-3.10534,-0.05525102,0.77876
564.513,61.36156,-3.10533,-0.05441559,0.77825
565.113,61.42129,-3.10566,-0.0562109,0.77774
565.713,61.48121,-3.10699,-0.05541181,0.77722
566.313,61.541,-3.10665,-0.05449407,0.77671
566.913,61.6009,-3.10796,-0.05416326,0.77619
567.513,61.6607,-3.10797,-0.05617947,0.77568
568.113,61.71991,-3.10797,-0.05891021,0.77516
568.713,61.77952,-3.10929,-0.05490746,0.77465
569.313,61.8392,-3.10797,-0.05852939,0.77413
569.913,61.89929,-3.10798,-0.05703287,0.77361
570.513,61.9595,-3.10994,-0.05828722,0.7731
571.113,62.0193,-3.10994,-0.05819962,0.77258
571.713,62.07901,-3.11119,-0.05967688,0.77206
572.313,62.13892,-3.11126,-0.05979752,0.77154
572.913,62.1988,-3.11127,-0.05917396,0.77103
573.513,62.25845,-3.11258,-0.05956638,0.77051
574.113,62.3181,-3.11258,-0.06135142,0.76999
574.713,62.3778,-3.11357,-0.06424264,0.76947
575.313,62.4376,-3.11357,-0.06007269,0.76895
575.913,62.4978,-3.11418,-0.06080157,0.76843
576.513,62.55761,-3.11447,-0.06217097,0.76791
577.113,62.61736,-3.11368,-0.05863561,0.76739
577.713,62.67719,-3.11454,-0.0611718,0.76687
578.313,62.73673,-3.11455,-0.06102963,0.76635
578.913,62.79651,-3.11518,-0.063601,0.76583
579.513,62.85645,-3.11606,-0.06067754,0.76531
580.113,62.9163,-3.11574,-0.0634999,0.76479
580.713,62.97585,-3.11551,-0.0615488,0.76426
581.313,63.0356,-3.1162,-0.06040118,0.76374
581.913,63.0954,-3.11692,-0.06256737,0.76322
582.513,63.15524,-3.11751,-0.06201431,0.7627
583.113,63.21515,-3.11799,-0.06062812,0.76217
583.713,63.2751,-3.11881,-0.06423523,0.76165
584.313,63.33521,-3.11946,-0.06008104,0.76112
584.913,63.39546,-3.12146,-0.06282272,0.7606
585.513,63.45548,-3.12147,-0.06374537,0.76008
586.113,63.5154,-3.12049,-0.0624698,0.75955
586.713,63.5755,-3.12212,-0.06264545,0.75903
587.313,63.6353,-3.12201,-0.06125517,0.7585
587.913,63.69514,-3.12188,-0.06256741,0.75797
588.513,63.7549,-3.12091,-0.06224907,0.75745
589.113,63.81469,-3.1219,-0.06071389,0.75692
589.713,63.87421,-3.12313,-0.06049152,0.7564
590.313,63.93395,-3.12322,-0.06203874,0.75587
590.913,63.9938,-3.12322,-0.06259728,0.75534
591.513,64.05383,-3.12419,-0.0611519,0.75481
592.113,64.11392,-3.1261,-0.06204766,0.75429
592.713,64.1739,-3.1251,-0.06076694,0.75376
593.313,64.23395,-3.12586,-0.06174794,0.75323
593.913,64.2941,-3.12509,-0.06414402,0.7527
594.513,64.35384,-3.12642,-0.06246901,0.75217
595.113,64.41362,-3.12642,-0.06168957,0.75164
595.713,64.47346,-3.12642,-0.06176716,0.75111
596.313,64.53333,-3.12642,-0.0606263,0.75058
596.913,64.5933,-3.12773,-0.05894081,0.75005
597.513,64.65303,-3.12836,-0.05933395,0.74952
598.113,64.71295,-3.12905,-0.06037301,0.74899
598.713,64.7731,-3.12905,-0.06062655,0.74846
599.313,64.83267,-3.13038,-0.06114074,0.74793
599.913,64.8928,-3.13037,-0.06087864,0.7474
600.513,64.9529,-3.13037,-0.06019841,0.74687
601.113,65.01317,-3.1303,-0.06035287,0.74633
601.713,65.07332,-3.13136,-0.05868759,0.7458
602.313,65.1332,-3.13272,-0.05918057,0.74527
602.913,65.193,-3.13267,-0.05847374,0.74474
603.513,65.25271,-3.13267,-0.06124796,0.7442
604.113,65.3126,-3.13397,-0.06083611,0.74367
604.713,65.3728,-3.13399,-0.06044255,0.74314
605.313,65.43293,-3.13352,-0.06248058,0.7426
605.913,65.4936,-3.13399,-0.06305626,0.74207
606.513,65.55346,-3.13401,-0.05950188,0.74153
607.113,65.61358,-3.1353,-0.05882526,0.741
607.713,65.67355,-3.13552,-0.05887445,0.74046
608.313,65.73365,-3.13592,-0.0557203,0.73993
608.913,65.7937,-3.13761,-0.05787835,0.73939
609.513,65.85355,-3.13685,-0.05667988,0.73885
610.113,65.9136,-3.13684,-0.05767221,0.73832
610.713,65.97358,-3.13543,-0.05509023,0.73778
611.313,66.03385,-3.13652,-0.05781265,0.73725
611.913,66.09394,-3.13684,-0.05821373,0.73671
612.513,66.15403,-3.13704,-0.05818951,0.73617
613.113,66.21401,-3.13854,-0.05549599,0.73563
613.713,66.27412,-3.14034,-0.05663729,0.7351
614.313,66.33431,-3.14079,-0.05458576,0.73456
614.913,66.39448,-3.14028,-0.05637017,0.73402
615.513,66.45476,-3.14088,-0.05697569,0.73348
616.113,66.51493,-3.14222,-0.058945,0.73294
616.713,66.57508,-3.14242,-0.05801997,0.7324
617.313,66.63498,-3.14226,-0.05815863,0.73186
617.913,66.69497,-3.14235,-0.05966504,0.73132
618.513,66.75524,-3.14365,-0.06103088,0.73078
619.113,66.81531,-3.14365,-0.05807436,0.73024
619.713,66.8759,-3.14365,-0.0619546,0.7297
620.313,66.93606,-3.14252,-0.06058404,0.72916
620.913,66.9961,-3.14526,-0.06180095,0.72862
621.513,67.05619,-3.14529,-0.03527672,0.72808
622.113,67.11639,-3.1452,-0.04742394,0.72754
622.713,67.17665,-3.14529,-0.0531169,0.72699
623.313,67.23686,-3.14529,-0.05494793,0.72645
623.913,67.29705,-3.14648,-0.05840817,0.72591
624.513,67.35709,-3.14661,-0.05745632,0.72537
625.113,67.4173,-3.14541,-0.06119671,0.72482
625.713,67.47744,-3.14724,-0.06209642,0.72428
626.313,67.53752,-3.14793,-0.05881473,0.72374
626.913,67.5977,-3.14914,-0.05817093,0.72319
627.513,67.65782,-3.14924,-0.05902953,0.72265
628.113,67.71791,-3.14924,-0.06069848,0.72211
628.713,67.77784,-3.15056,-0.05910832,0.72156
629.313,67.83792,-3.15056,-0.05937659,0.72102
629.913,67.8979,-3.15056,-0.05943091,0.72047
630.513,67.95781,-3.15056,-0.06089806,0.71993
631.113,68.0179,-3.14972,-0.05853874,0.71938
631.713,68.07795,-3.15058,-0.05992117,0.71884
632.313,68.13804,-3.15188,-0.05977496,0.71829
632.913,68.1982,-3.1519,-0.06043515,0.71774
633.513,68.2582,-3.1532,-0.06148012,0.7172
634.113,68.31805,-3.15325,-0.05848847,0.71665
634.713,68.378,-3.15217,-0.0606833,0.7161
635.313,68.43802,-3.15352,-0.06452924,0.71556
635.913,68.49813,-3.15352,-0.06339446,0.71501
636.513,68.5582,-3.15354,-0.06404234,0.71446
637.113,68.6181,-3.15483,-0.06572952,0.71391
637.713,68.6781,-3.15455,-0.06433818,0.71337
638.313,68.73823,-3.1532,-0.06356371,0.71282
638.913,68.79823,-3.1545,-0.06449357,0.71227
639.513,68.85813,-3.15582,-0.06638037,0.71172
640.113,68.91806,-3.15583,-0.06567158,0.71117
640.713,68.97825,-3.15583,-0.06716468,0.71062
641.313,69.0385,-3.15715,-0.06943573,0.71007
641.913,69.09873,-3.15714,-0.06497891,0.70952
642.513,69.15906,-3.15617,-0.06619997,0.70897
643.113,69.21929,-3.15617,-0.06948509,0.70842
643.713,69.27962,-3.15748,-0.07075315,0.70787
644.313,69.33983,-3.1578,-0.0675171,0.70732
644.913,69.40004,-3.16011,-0.06730409,0.70677
645.513,69.45995,-3.16011,-0.07058755,0.70622
646.113,69.52005,-3.16011,-0.07091042,0.70567
646.713,69.58004,-3.1588,-0.07122998,0.70512
647.313,69.64041,-3.1588,-0.07210799,0.70456
647.913,69.70084,-3.15879,-0.07543945,0.70401
648.513,69.7615,-3.16012,-0.06997441,0.70346
649.113,69.82176,-3.16012,-0.07447108,0.70291
649.713,69.88206,-3.16095,-0.07303725,0.70235
650.313,69.94248,-3.16143,-0.07226809,0.7018
650.913,70.00275,-3.16143,-0.07271996,0.70125
651.513,70.06274,-3.16143,-0.07220174,0.70069
652.113,70.1229,-3.16281,-0.07408022,0.70014
652.713,70.18308,-3.16274,-0.07175909,0.69959
653.313,70.2436,-3.16132,-0.07654209,0.69903
653.913,70.30385,-3.16132,-0.0762805,0.69848
654.513,70.36404,-3.16263,-0.075676,0.69792
655.113,70.4242,-3.16264,-0.07372691,0.69737
655.713,70.48411,-3.16265,-0.07425531,0.69681
656.313,70.5442,-3.16404,-0.07646631,0.69626
656.913,70.60421,-3.16396,-0.07513746,0.6957
657.513,70.66404,-3.16264,-0.07745612,0.69515
658.113,70.72417,-3.16387,-0.07630915,0.69459
658.713,70.7842,-3.16527,-0.07798086,0.69404
659.313,70.84431,-3.16527,-0.07581978,0.69348
659.913,70.90473,-3.16536,-0.07760175,0.69292
660.513,70.96468,-3.16626,-0.07617749,0.69237
661.113,71.02476,-3.16627,-0.07793232,0.69181
661.713,71.08498,-3.16495,-0.07820451,0.69125
662.313,71.14523,-3.16637,-0.08018145,0.6907
662.913,71.2057,-3.16637,-0.07882618,0.69014
663.513,71.26594,-3.16632,-0.0793805,0.68958
664.113,71.32607,-3.16769,-0.08468697,0.68902
664.713,71.38606,-3.16662,-0.08200704,0.68847
665.313,71.4462,-3.16671,-0.08573313,0.68791
665.913,71.50666,-3.16802,-0.08679864,0.68735
666.513,71.56693,-3.16802,-0.08736182,0.68679
667.113,71.62715,-3.16802,-0.08838436,0.68623
667.713,71.68722,-3.16802,-0.090429,0.68567
668.313,71.74746,-3.16802,-0.08875094,0.68511
668.913,71.80801,-3.16802,-0.08917559,0.68455
669.513,71.86831,-3.16933,-0.08998727,0.68399
670.113,71.9284,-3.16933,-0.09222884,0.68343
670.713,71.98859,-3.16932,-0.08893143,0.68287
671.313,72.0488,-3.16801,-0.09290661,0.68231
671.913,72.109,-3.16933,-0.09201041,0.68175
672.513,72.16923,-3.17025,-0.09299284,0.68119
673.113,72.2294,-3.17065,-0.09301635,0.68063
673.713,72.28959,-3.17065,-0.09420827,0.68007
674.313,72.34987,-3.17065,-0.0966108,0.67951
674.913,72.41019,-3.17065,-0.09808476,0.67895
675.513,72.47049,-3.17168,-0.09868616,0.67839
676.113,72.5307,-3.17197,-0.09914193,0.67783
676.713,72.59104,-3.17197,-0.10017,0.67726
677.313,72.65137,-3.17187,-0.1008,0.6767
677.913,72.71181,-3.17098,-0.10222,0.67614
678.513,72.77234,-3.17203,-0.10057,0.67558
679.113,72.83277,-3.1723,-0.10096,0.67501
679.713,72.89317,-3.1724,-0.10335,0.67445
680.313,72.95362,-3.17274,-0.10335,0.67389
680.913,73.01399,-3.17296,-0.10427,0.67332
681.513,73.07437,-3.17261,-0.10621,0.67276
682.113,73.13479,-3.17329,-0.1072,0.6722
682.713,73.1952,-3.17329,-0.10849,0.67163
683.313,73.2557,-3.17364,-0.1125,0.67107
683.913,73.31595,-3.17428,-0.11067,0.67051
684.513,73.37624,-3.17428,-0.112,0.66994
685.113,73.43655,-3.17431,-0.11544,0.66938
685.713,73.49704,-3.17362,-0.11748,0.66881
686.313,73.5574,-3.17388,-0.11933,0.66825
686.913,73.61771,-3.17395,-0.11897,0.66768
687.513,73.67794,-3.17529,-0.1167,0.66712
688.113,73.73839,-3.17506,-0.12141,0.66655
688.713,73.79884,-3.17395,-0.12478,0.66599
689.313,73.85934,-3.17395,-0.1241,0.66542
689.913,73.9196,-3.17395,-0.12454,0.66486
690.513,73.9799,-3.17395,-0.12746,0.66429
691.113,74.0401,-3.17527,-0.12842,0.66372
691.713,74.1005,-3.17497,-0.12821,0.66316
692.313,74.16095,-3.17524,-0.1283,0.66259
692.913,74.22136,-3.17658,-0.12746,0.66202
693.513,74.28184,-3.17658,-0.12534,0.66146
694.113,74.34217,-3.17658,-0.12819,0.66089
694.713,74.40263,-3.17658,-0.1303,0.66032
695.313,74.46291,-3.17658,-0.13075,0.65976
695.913,74.5231,-3.1779,-0.13103,0.65919
696.513,74.58325,-3.1779,-0.13383,0.65862
697.113,74.64367,-3.1779,-0.13687,0.65805
697.713,74.70401,-3.1779,-0.13482,0.65748
698.313,74.76445,-3.17657,-0.13759,0.65692
698.913,74.8249,-3.17658,-0.14047,0.65635
699.513,74.88544,-3.17658,-0.14126,0.65578
700.113,74.94617,-3.17864,-0.14319,0.65521
700.613,74.99651,-3.17856,-0.1463,0.65474