File: 01_Data/Polyester_Microfiber_Sheet/STA/N2/10K_min/Polyester_Microfiber_Sheet_STA_N2_10KData_220526_R1.csv
##Temp./Â°C,Time/min,Mass loss(subtr.2)/mg,DSC(subtr.2)/(mW/mg),Sensit./(uV/mW)
49.856,10.01,0.01263,-0.00252688,1.07014
50.456,10.73875,0.01264028,0.02365902,1.06997
51.056,10.9285,0.01414756,0.04585023,1.06981
51.656,11.07163,0.01382675,0.0642823,1.06964
52.256,11.18914,0.01406359,0.0778892,1.06947
52.856,11.29439,0.01403339,0.09142856,1.06931
53.456,11.39096,0.01381667,0.10234,1.06914
54.056,11.48105,0.01544695,0.11089,1.06897
54.656,11.56672,0.01425049,0.11971,1.06881
55.256,11.64886,0.0155561,0.12799,1.06864
55.856,11.7277,0.01670615,0.13531,1.06847
56.456,11.80488,0.01553954,0.13982,1.0683
57.056,11.87974,0.01569638,0.14573,1.06813
57.656,11.95284,0.01640401,0.15034,1.06796
58.256,12.0246,0.01602561,0.1539,1.06779
58.856,12.0953,0.0159458,0.15629,1.06762
59.456,12.16506,0.0157872,0.15962,1.06745
60.056,12.2337,0.01654924,0.16455,1.06728
60.656,12.30233,0.01627887,0.16836,1.06711
61.256,12.37022,0.01525231,0.17174,1.06694
61.856,12.4377,0.0159057,0.17338,1.06677
62.456,12.50442,0.01489865,0.17451,1.06659
63.056,12.57103,0.01500963,0.17672,1.06642
63.656,12.63723,0.01627967,0.17854,1.06625
64.256,12.70315,0.01625942,0.18118,1.06608
64.856,12.7688,0.01537087,0.18507,1.0659
65.456,12.83414,0.01481944,0.18631,1.06573
66.056,12.89907,0.01477533,0.18666,1.06555
66.656,12.96391,0.0149436,0.19062,1.06538
67.256,13.02843,0.0162915,0.19056,1.0652
67.856,13.09286,0.01626049,0.19336,1.06503
68.456,13.1571,0.01487131,0.1948,1.06485
69.056,13.22127,0.01624346,0.19515,1.06467
69.656,13.28544,0.01483569,0.19752,1.0645
70.256,13.3495,0.0162253,0.1987,1.06432
70.856,13.41284,0.01691108,0.20003,1.06414
71.456,13.476,0.01618853,0.2,1.06396
72.056,13.53929,0.01759275,0.20084,1.06379
72.656,13.60256,0.01715763,0.20218,1.06361
73.256,13.6659,0.01660964,0.20078,1.06343
73.856,13.72899,0.01757106,0.2047,1.06325
74.456,13.7917,0.01876863,0.20215,1.06307
75.056,13.8546,0.01757,0.20027,1.06289
75.656,13.91725,0.01647845,0.19828,1.06271
76.256,13.9801,0.01658926,0.1976,1.06253
76.856,14.0422,0.01736131,0.19269,1.06235
77.456,14.10459,0.01755734,0.19205,1.06216
78.056,14.16664,0.01754969,0.18969,1.06198
78.656,14.2287,0.01670337,0.18737,1.0618
79.256,14.29067,0.01627285,0.18592,1.06162
79.856,14.3526,0.01640708,0.18383,1.06143
80.456,14.41456,0.01625025,0.18377,1.06125
81.056,14.47618,0.01522352,0.18365,1.06107
81.656,14.5375,0.01626028,0.1817,1.06088
82.256,14.5989,0.01626367,0.18164,1.0607
82.856,14.66024,0.01624649,0.18045,1.06051
83.456,14.7219,0.01621545,0.18005,1.06033
84.056,14.78304,0.01627518,0.17867,1.06014
84.656,14.84384,0.01628885,0.17969,1.05995
85.256,14.9045,0.01757053,0.17956,1.05977
85.856,14.9653,0.01667579,0.17817,1.05958
86.456,15.02646,0.01625012,0.17778,1.05939
87.056,15.087,0.01625981,0.17796,1.0592
87.656,15.14773,0.01621545,0.17771,1.05902
88.256,15.2081,0.01761789,0.17654,1.05883
88.856,15.2686,0.01658008,0.17778,1.05864
89.456,15.32884,0.01658011,0.17532,1.05845
90.056,15.3886,0.01646809,0.1753,1.05826
90.656,15.4487,0.01624823,0.17617,1.05807
91.256,15.50874,0.01601383,0.17624,1.05788
91.856,15.5688,0.016244,0.17802,1.05769
92.456,15.62832,0.01625,0.17737,1.0575
93.056,15.688,0.0162558,0.17565,1.05731
93.656,15.74774,0.01596667,0.17559,1.05711
94.256,15.8073,0.01625965,0.17542,1.05692
94.856,15.8672,0.01627298,0.17662,1.05673
95.456,15.92689,0.01757237,0.17655,1.05654
96.056,15.9865,0.01758394,0.17643,1.05634
96.656,16.04579,0.01834186,0.17836,1.05615
97.256,16.10472,0.01839748,0.17775,1.05595
97.856,16.16355,0.01888857,0.17844,1.05576
98.456,16.22267,0.01768067,0.17945,1.05556
99.056,16.28173,0.01890744,0.18092,1.05537
99.656,16.34083,0.01757173,0.18119,1.05517
100.256,16.3999,0.01756964,0.17924,1.05498
100.856,16.45885,0.01757,0.18212,1.05478
101.456,16.51792,0.01757072,0.18398,1.05458
102.056,16.57703,0.01754264,0.18492,1.05439
102.656,16.63606,0.01756999,0.18516,1.05419
103.256,16.69513,0.01756861,0.18686,1.05399
103.856,16.75404,0.01668652,0.18656,1.05379
104.456,16.81302,0.01733057,0.18855,1.05359
105.056,16.87201,0.01757196,0.18944,1.05339
105.656,16.93082,0.01690768,0.19236,1.05319
106.256,16.98947,0.01622846,0.19428,1.05299
106.856,17.04818,0.01756964,0.19491,1.05279
107.456,17.10685,0.01757027,0.19693,1.05259
108.056,17.16575,0.01646799,0.19867,1.05239
108.656,17.2246,0.01625995,0.19852,1.05219
109.256,17.28332,0.01672284,0.20082,1.05199
109.856,17.34195,0.01619364,0.20095,1.05178
110.456,17.40034,0.01757977,0.20425,1.05158
111.056,17.45875,0.01756998,0.20542,1.05138
111.656,17.51732,0.01757,0.20647,1.05118
112.256,17.57597,0.01757,0.20749,1.05097
112.856,17.63475,0.01756989,0.20975,1.05077
113.456,17.69323,0.01757019,0.21062,1.05056
114.056,17.75168,0.01757,0.21244,1.05036
114.656,17.81,0.01756999,0.21538,1.05015
115.256,17.86818,0.01690725,0.21454,1.04995
115.856,17.92635,0.01822714,0.21637,1.04974
116.456,17.98486,0.01758787,0.21688,1.04953
117.056,18.0435,0.0175674,0.21911,1.04933
117.656,18.10241,0.01830631,0.21699,1.04912
118.256,18.16089,0.01757006,0.22114,1.04891
118.856,18.21939,0.01757,0.22078,1.0487
119.456,18.27788,0.01757,0.22261,1.04849
120.056,18.3361,0.01755804,0.22318,1.04828
120.656,18.39442,0.01757318,0.22417,1.04808
121.256,18.4527,0.01757054,0.22588,1.04787
121.856,18.511,0.01891576,0.22629,1.04766
122.456,18.5698,0.01888999,0.22754,1.04745
123.056,18.62823,0.01863312,0.22809,1.04723
123.656,18.68644,0.01790667,0.23036,1.04702
124.256,18.74476,0.01790108,0.23219,1.04681
124.856,18.80282,0.0189056,0.23298,1.0466
125.456,18.86091,0.01889,0.23495,1.04639
126.056,18.91903,0.01889,0.23668,1.04617
126.656,18.97693,0.01888903,0.2376,1.04596
127.256,19.03509,0.01758954,0.24012,1.04575
127.856,19.0933,0.01888047,0.24076,1.04553
128.456,19.15178,0.01888001,0.24166,1.04532
129.056,19.21017,0.01853598,0.2447,1.0451
129.656,19.26829,0.01756984,0.24462,1.04489
130.256,19.32641,0.01757,0.24535,1.04467
130.856,19.38433,0.01757011,0.2478,1.04446
131.456,19.44203,0.0189686,0.24815,1.04424
132.056,19.5,0.01889131,0.24846,1.04402
132.656,19.55808,0.01757084,0.24899,1.04381
133.256,19.61659,0.01892685,0.25072,1.04359
133.856,19.67486,0.01889005,0.24952,1.04337
134.456,19.73301,0.01825877,0.25113,1.04315
135.056,19.7908,0.01757372,0.25467,1.04293
135.656,19.8487,0.01888954,0.25379,1.04271
136.256,19.90664,0.01891561,0.25361,1.04249
136.856,19.9647,0.01822926,0.25498,1.04227
137.456,20.02273,0.01758785,0.255,1.04205
138.056,20.08074,0.01757,0.2558,1.04183
138.656,20.13847,0.01757,0.2563,1.04161
139.256,20.19639,0.01756994,0.25875,1.04139
139.856,20.25435,0.01737688,0.25833,1.04117
140.456,20.31212,0.01757023,0.2593,1.04095
141.056,20.36993,0.01757,0.26002,1.04072
141.656,20.42758,0.01757,0.25974,1.0405
142.256,20.48538,0.01756996,0.26072,1.04028
142.856,20.54299,0.01749496,0.25957,1.04005
143.456,20.60074,0.01756975,0.26027,1.03983
144.056,20.6584,0.01757,0.2591,1.0396
144.656,20.71575,0.01756859,0.26213,1.03938
145.256,20.77365,0.01692959,0.26265,1.03915
145.856,20.83144,0.01829307,0.26327,1.03893
146.456,20.88928,0.01822999,0.2642,1.0387
147.056,20.94742,0.01829548,0.26595,1.03847
147.656,21.00512,0.01724047,0.26586,1.03825
148.256,21.0626,0.01690982,0.26587,1.03802
148.856,21.1202,0.01690996,0.26838,1.03779
149.456,21.17776,0.01621099,0.26983,1.03756
150.056,21.23517,0.01660445,0.26935,1.03733
150.656,21.29277,0.01666079,0.26963,1.0371
151.256,21.35032,0.01690999,0.26973,1.03687
151.856,21.40803,0.01691,0.27047,1.03664
152.456,21.46578,0.01691735,0.27208,1.03641
153.056,21.52281,0.01560172,0.27236,1.03618
153.656,21.5804,0.01559952,0.27427,1.03595
154.256,21.63778,0.0148055,0.27345,1.03572
154.856,21.69539,0.01560027,0.275,1.03549
155.456,21.75319,0.01559989,0.27713,1.03526
156.056,21.81052,0.0159295,0.27565,1.03502
156.656,21.86807,0.01591998,0.27707,1.03479
157.256,21.92569,0.01592099,0.27859,1.03456
157.856,21.98316,0.01729094,0.27911,1.03432
158.456,22.04062,0.01689848,0.2776,1.03409
159.056,22.0979,0.01690991,0.27928,1.03385
159.656,22.15542,0.01550318,0.28085,1.03362
160.256,22.21305,0.01558996,0.28043,1.03338
160.856,22.2707,0.01558999,0.28136,1.03315
161.456,22.32837,0.01562689,0.28329,1.03291
162.056,22.3858,0.01427146,0.28102,1.03267
162.656,22.4432,0.0163717,0.28089,1.03243
163.256,22.5004,0.01625,0.28338,1.0322
163.856,22.55765,0.0163355,0.28376,1.03196
164.456,22.61521,0.01492529,0.2827,1.03172
165.056,22.67266,0.01559478,0.28515,1.03148
165.656,22.73005,0.01559292,0.28375,1.03124
166.256,22.7874,0.01688647,0.28538,1.031
166.856,22.84467,0.01554262,0.28669,1.03076
167.456,22.90201,0.01442883,0.28995,1.03052
168.056,22.95918,0.01559998,0.28773,1.03028
168.656,23.0166,0.0156,0.28786,1.03004
169.256,23.0738,0.0156,0.29025,1.0298
169.856,23.13121,0.01560046,0.29099,1.02956
170.456,23.1887,0.01690364,0.29264,1.02931
171.056,23.24597,0.0165037,0.29178,1.02907
171.656,23.30322,0.01592879,0.2936,1.02883
172.256,23.36049,0.014596,0.2935,1.02858
172.856,23.41742,0.01460357,0.29316,1.02834
173.456,23.47488,0.01591764,0.29594,1.02809
174.056,23.53215,0.01559808,0.29429,1.02785
174.656,23.58964,0.0155915,0.29576,1.0276
175.256,23.64695,0.01450154,0.29474,1.02736
175.856,23.70382,0.01591987,0.29733,1.02711
176.456,23.76129,0.01592059,0.29808,1.02687
177.056,23.8186,0.01562528,0.29727,1.02662
177.656,23.87603,0.01427648,0.29723,1.02637
178.256,23.93348,0.01429105,0.29785,1.02612
178.856,23.99074,0.01427,0.29986,1.02588
179.456,24.04787,0.01427,0.2971,1.02563
180.056,24.10505,0.01427,0.30073,1.02538
180.656,24.16217,0.01427006,0.30147,1.02513
181.256,24.21906,0.01552823,0.29995,1.02488
181.856,24.2762,0.01558989,0.29908,1.02463
182.456,24.33336,0.01558076,0.30076,1.02438
183.056,24.39066,0.01427871,0.30086,1.02413
183.656,24.44787,0.01428,0.30266,1.02387
184.256,24.50512,0.01427999,0.30331,1.02362
184.856,24.56222,0.01427278,0.30425,1.02337
185.456,24.61915,0.01527066,0.30413,1.02312
186.056,24.676,0.01527,0.30583,1.02286
186.656,24.73321,0.01527,0.30657,1.02261
187.256,24.79038,0.01527,0.30474,1.02236
187.856,24.84755,0.01526832,0.30484,1.0221
188.456,24.90486,0.01394341,0.30585,1.02185
189.056,24.96197,0.01395,0.30702,1.02159
189.656,25.01919,0.01395,0.30818,1.02134
190.256,25.07657,0.01396393,0.30787,1.02108
190.856,25.1335,0.01527189,0.30731,1.02082
191.456,25.1905,0.01558394,0.3077,1.02057
192.056,25.24745,0.01428051,0.30993,1.02031
192.656,25.30455,0.01427988,0.30903,1.02005
193.256,25.3618,0.01288616,0.30994,1.01979
193.856,25.41889,0.01296001,0.31128,1.01954
194.456,25.476,0.01286043,0.31063,1.01928
195.056,25.53293,0.01525578,0.31152,1.01902
195.656,25.58986,0.01461876,0.31036,1.01876
196.256,25.64705,0.01427995,0.31165,1.0185
196.856,25.7043,0.01428002,0.31256,1.01824
197.456,25.76114,0.01429107,0.31284,1.01798
198.056,25.8185,0.01296017,0.31248,1.01771
198.656,25.87545,0.01432731,0.31498,1.01745
199.256,25.9326,0.01295718,0.31375,1.01719
199.856,25.98986,0.01427016,0.31681,1.01693
200.456,26.04672,0.01427,0.31696,1.01666
201.056,26.10375,0.01427,0.316,1.0164
201.656,26.16067,0.01427203,0.31857,1.01614
202.256,26.21766,0.01447433,0.31927,1.01587
202.856,26.2746,0.01404508,0.31985,1.01561
203.456,26.33172,0.0129598,0.31986,1.01534
204.056,26.3889,0.01296,0.32064,1.01508
204.656,26.446,0.01294597,0.3216,1.01481
205.256,26.5033,0.01163291,0.32415,1.01454
205.856,26.56007,0.01230017,0.32334,1.01428
206.456,26.6171,0.01262439,0.32521,1.01401
207.056,26.67421,0.01263581,0.32389,1.01374
207.656,26.73146,0.01329123,0.32179,1.01347
208.256,26.78895,0.01329,0.32495,1.0132
208.856,26.846,0.01329,0.32704,1.01294
209.456,26.90305,0.01329,0.32779,1.01267
210.056,26.9601,0.01329,0.32719,1.0124
210.656,27.0171,0.01329,0.32919,1.01213
211.256,27.0743,0.01327821,0.32975,1.01186
211.856,27.13135,0.01196816,0.33002,1.01158
212.456,27.1885,0.01328098,0.33259,1.01131
213.056,27.24555,0.01328999,0.33196,1.01104
213.656,27.30258,0.01329014,0.33144,1.01077
214.256,27.35977,0.01264891,0.33548,1.0105
214.856,27.4169,0.01196983,0.33399,1.01022
215.456,27.47418,0.01197,0.3357,1.00995
216.056,27.53145,0.01197,0.33679,1.00967
216.656,27.58855,0.01197,0.33708,1.0094
217.256,27.6458,0.01197,0.33919,1.00913
217.856,27.70295,0.01196971,0.33935,1.00885
218.456,27.75977,0.01329363,0.34012,1.00857
219.056,27.8168,0.01312681,0.34123,1.0083
219.656,27.8739,0.01229964,0.34102,1.00802
220.256,27.931,0.01227443,0.34262,1.00774
220.856,27.98835,0.01197008,0.34188,1.00747
221.456,28.0456,0.01057377,0.34591,1.00719
222.056,28.10275,0.009457891,0.34521,1.00691
222.656,28.1599,0.01064998,0.34346,1.00663
223.256,28.21681,0.01066394,0.34672,1.00635
223.856,28.274,0.0119741,0.34894,1.00607
224.456,28.3311,0.0109336,0.35023,1.00579
225.056,28.3882,0.01064889,0.34873,1.00551
225.656,28.4456,0.01000119,0.35044,1.00523
226.256,28.5028,0.01,0.35212,1.00495
226.856,28.5601,0.01,0.35393,1.00467
227.456,28.6172,0.009999041,0.35535,1.00439
228.056,28.6743,0.008584627,0.35792,1.0041
228.656,28.73129,0.009999385,0.36035,1.00382
229.256,28.78835,0.01,0.35981,1.00354
229.856,28.84536,0.009998283,0.36288,1.00325
230.456,28.90263,0.008749856,0.36416,1.00297
231.056,28.95976,0.010329,0.36675,1.00269
231.656,29.01711,0.01033003,0.36753,1.0024
232.256,29.07416,0.0104085,0.37191,1.00212
232.856,29.13099,0.009010249,0.37168,1.00183
233.456,29.18802,0.01024988,0.37415,1.00154
234.056,29.2449,0.01032993,0.37776,1.00126
234.656,29.30224,0.01032999,0.37996,1.00097
235.256,29.35977,0.01033108,0.38274,1.00068
235.856,29.4171,0.008284395,0.38485,1.00039
236.456,29.4744,0.008349966,0.39006,1.0001
237.056,29.5315,0.008358133,0.39111,0.99982
237.656,29.58867,0.009669542,0.39503,0.99953
238.256,29.64593,0.00967367,0.39947,0.99924
238.856,29.70317,0.008268598,0.4045,0.99895
239.456,29.76029,0.008020008,0.4081,0.99866
240.056,29.8172,0.00801951,0.41481,0.99836
240.656,29.8739,0.009313931,0.41875,0.99807
241.256,29.9307,0.009339997,0.42339,0.99778
241.856,29.9877,0.00934,0.4276,0.99749
242.456,30.0448,0.009339935,0.43507,0.9972
243.056,30.1023,0.009243688,0.44041,0.9969
243.656,30.1593,0.008020127,0.44905,0.99661
244.256,30.21637,0.00801964,0.45733,0.99632
244.856,30.2734,0.008752318,0.46736,0.99602
245.456,30.3301,0.008681734,0.47701,0.99573
246.056,30.38748,0.008656698,0.48715,0.99543
246.656,30.44453,0.007359485,0.49812,0.99513
247.256,30.50204,0.00736,0.50839,0.99484
247.856,30.5592,0.00736,0.52406,0.99454
248.456,30.61637,0.00734098,0.53842,0.99424
249.056,30.6735,0.006701363,0.55889,0.99395
249.656,30.7305,0.0067,0.58102,0.99365
250.256,30.7878,0.0067,0.60009,0.99335
250.856,30.84497,0.0067,0.62671,0.99305
251.456,30.90225,0.006700011,0.65696,0.99275
252.056,30.95962,0.006696161,0.69169,0.99245
252.656,31.0171,0.006715773,0.73388,0.99215
253.256,31.0749,0.006700009,0.78327,0.99185
253.856,31.1324,0.0067,0.84057,0.99155
254.456,31.19016,0.006700004,0.90372,0.99125
255.056,31.2477,0.006443084,0.97075,0.99095
255.656,31.30514,0.00638004,1.04282,0.99065
256.256,31.3628,0.00638,1.11131,0.99034
256.856,31.4202,0.00638,1.17216,0.99004
257.456,31.47802,0.00637999,1.22245,0.98974
258.056,31.5358,0.006354104,1.24766,0.98943
258.656,31.5938,0.005060896,1.25013,0.98913
259.256,31.6517,0.0063851,1.22402,0.98882
259.856,31.70928,0.006381386,1.1646,0.98852
260.456,31.7665,0.005069749,1.08876,0.98821
261.056,31.82331,0.005060005,1.00215,0.98791
261.656,31.8803,0.00506,0.91674,0.9876
262.256,31.93735,0.00506,0.83641,0.98729
262.856,31.99441,0.005060002,0.76507,0.98699
263.456,32.05187,0.00506252,0.69693,0.98668
264.056,32.10877,0.00373841,0.6431,0.98637
264.656,32.16577,0.003739998,0.59709,0.98606
265.256,32.22275,0.00374,0.55992,0.98575
265.856,32.27952,0.00374,0.52742,0.98544
266.456,32.3363,0.00374,0.50328,0.98513
267.056,32.39309,0.00373913,0.48411,0.98482
267.656,32.44981,0.003077762,0.46504,0.98451
268.256,32.50654,0.003080994,0.45035,0.9842
268.856,32.56333,0.004451398,0.43979,0.98389
269.456,32.6201,0.004400001,0.43024,0.98358
270.056,32.6768,0.004374907,0.42235,0.98326
270.656,32.73356,0.003084553,0.41331,0.98295
271.256,32.79065,0.00178289,0.4082,0.98264
271.856,32.8476,0.003074996,0.40259,0.98232
272.456,32.9048,0.00374483,0.40077,0.98201
273.056,32.96184,0.003740002,0.39686,0.98169
273.656,33.01872,0.003738853,0.39485,0.98138
274.256,33.0756,0.002413996,0.3918,0.98106
274.856,33.13252,0.002367385,0.39041,0.98075
275.456,33.18927,0.003409739,0.38828,0.98043
276.056,33.24596,0.00341,0.38943,0.98011
276.656,33.30295,0.00341009,0.38799,0.9798
277.256,33.35994,0.003082078,0.38453,0.97948
277.856,33.41708,0.001737925,0.38501,0.97916
278.456,33.4744,0.001759986,0.3872,0.97884
279.056,33.53157,0.00176,0.38444,0.97852
279.656,33.5888,0.00176,0.38292,0.9782
280.256,33.64612,0.00176,0.38352,0.97788
280.856,33.70327,0.00176009,0.38395,0.97756
281.456,33.76048,0.001790179,0.38339,0.97724
282.056,33.81767,0.0030655,0.38404,0.97692
282.656,33.87472,0.00406884,0.38392,0.9766
283.256,33.93169,0.004060325,0.38346,0.97627
283.856,33.98871,0.00275459,0.38392,0.97595
284.456,34.0458,0.00143149,0.38569,0.97563
285.056,34.10322,0.00142879,0.38416,0.97531
285.656,34.1605,0.0001082835,0.38288,0.97498
286.256,34.21779,0.000109975,0.38442,0.97466
286.856,34.27515,0.000984541,0.38539,0.97433
287.456,34.3324,0.001429881,0.38314,0.97401
288.056,34.38974,0.00143,0.38464,0.97368
288.656,34.44693,0.00143,0.38472,0.97336
289.256,34.50408,0.001430294,0.38579,0.97303
289.856,34.56129,0.000727513,0.38511,0.9727
290.456,34.61829,0.000770032,0.38499,0.97237
291.056,34.67557,0.00077,0.3844,0.97205
291.656,34.73281,0.00077,0.38442,0.97172
292.256,34.7903,0.00077,0.38575,0.97139
292.856,34.8475,0.00077,0.38419,0.97106
293.456,34.90466,0.0007699995,0.38402,0.97073
294.056,34.96188,0.0007695,0.38633,0.9704
294.656,35.01912,9.879071e-05,0.38666,0.97007
295.256,35.07685,0.000109983,0.38556,0.96974
295.856,35.13408,0.00011,0.38688,0.96941
296.456,35.1914,0.0001100001,0.38496,0.96908
297.056,35.24877,0.0001097891,0.38361,0.96874
297.656,35.30625,0.0008271036,0.38564,0.96841
298.256,35.3634,-0.000215592,0.38651,0.96808
298.856,35.4208,-0.0002199993,0.38589,0.96774
299.456,35.47809,-0.0002199978,0.38657,0.96741
300.056,35.53543,-0.0002128924,0.38517,0.96708
300.656,35.59279,-0.00152825,0.38653,0.96674
301.256,35.65033,-0.00152263,0.38535,0.9664
301.856,35.70778,-0.001199919,0.38655,0.96607
302.456,35.76526,-0.001199994,0.3854,0.96573
303.056,35.82274,-0.001191029,0.38561,0.9654
303.656,35.88002,-0.002189984,0.38808,0.96506
304.256,35.93697,-0.002190001,0.3863,0.96472
304.856,35.99375,-0.002189925,0.38644,0.96438
305.456,36.0511,-0.002134769,0.38796,0.96405
306.056,36.1087,-0.001529996,0.38659,0.96371
306.656,36.16662,-0.00291587,0.38701,0.96337
307.256,36.22455,-0.002872666,0.38645,0.96303
307.856,36.28196,-0.0021904,0.38769,0.96269
308.456,36.33939,-0.002188784,0.38662,0.96235
309.056,36.39697,-0.003501497,0.38718,0.96201
309.656,36.4542,-0.003509995,0.38721,0.96166
310.256,36.51158,-0.003510156,0.38947,0.96132
310.856,36.56903,-0.002601112,0.38677,0.96098
311.456,36.6265,-0.0008694113,0.38695,0.96064
312.056,36.68424,-0.0026115,0.38705,0.96029
312.656,36.74175,-0.003514975,0.38864,0.95995
313.256,36.79918,-0.002519365,0.38688,0.95961
313.856,36.85673,-0.00252,0.38739,0.95926
314.456,36.9142,-0.002520059,0.38873,0.95892
315.056,36.97167,-0.00258399,0.38931,0.95857
315.656,37.02937,-0.00382977,0.3897,0.95822
316.256,37.08675,-0.004537577,0.3893,0.95788
316.856,37.14428,-0.00320556,0.38983,0.95753
317.456,37.20179,-0.003180009,0.38986,0.95718
318.056,37.25934,-0.003178753,0.38889,0.95684
318.656,37.317,-0.004481509,0.38913,0.95649
319.256,37.3746,-0.004192441,0.39001,0.95614
319.856,37.432,-0.004511033,0.39025,0.95579
320.456,37.48963,-0.004488652,0.39179,0.95544
321.056,37.547,-0.00383885,0.39114,0.95509
321.656,37.6044,-0.003840122,0.39099,0.95474
322.256,37.66214,-0.005230857,0.39106,0.95439
322.856,37.71958,-0.005147794,0.39135,0.95404
323.456,37.7774,-0.00482036,0.39121,0.95369
324.056,37.83512,-0.00482,0.39187,0.95334
324.656,37.8927,-0.00482,0.39258,0.95298
325.256,37.9503,-0.00482,0.39232,0.95263
325.856,38.00796,-0.00482,0.39278,0.95228
326.456,38.06552,-0.00482,0.39141,0.95192
327.056,38.12328,-0.004819324,0.39523,0.95157
327.656,38.18074,-0.00744007,0.39426,0.95121
328.256,38.23833,-0.00746002,0.39486,0.95086
328.856,38.29595,-0.00746037,0.39251,0.9505
329.456,38.35346,-0.006728099,0.39317,0.95015
330.056,38.41118,-0.006799985,0.39385,0.94979
330.656,38.46885,-0.0068,0.39337,0.94943
331.256,38.5263,-0.006799981,0.39473,0.94908
331.856,38.58429,-0.00675628,0.39582,0.94872
332.456,38.6419,-0.008121108,0.39602,0.94836
333.056,38.69938,-0.007461624,0.39587,0.948
333.656,38.757,-0.007956546,0.39337,0.94764
334.256,38.81407,-0.007790361,0.39443,0.94728
334.856,38.87165,-0.00882657,0.39564,0.94692
335.456,38.9294,-0.009110256,0.39625,0.94656
336.056,38.98718,-0.009109529,0.39753,0.9462
336.656,39.0453,-0.01037353,0.39792,0.94584
337.256,39.10285,-0.01043414,0.39706,0.94548
337.856,39.1605,-0.008771247,0.39792,0.94512
338.456,39.2182,-0.008116545,0.39951,0.94475
339.056,39.27588,-0.009108343,0.3988,0.94439
339.656,39.33381,-0.009109999,0.40003,0.94403
340.256,39.3914,-0.009109693,0.40163,0.94366
340.856,39.44891,-0.01011227,0.40245,0.9433
341.456,39.5064,-0.01006448,0.40085,0.94294
342.056,39.5638,-0.01043029,0.4025,0.94257
342.656,39.6215,-0.01180431,0.40208,0.9422
343.256,39.67915,-0.01173998,0.40247,0.94184
343.856,39.7369,-0.01173886,0.40046,0.94147
344.456,39.79459,-0.01074399,0.40145,0.9411
345.056,39.8523,-0.01039869,0.4017,0.94074
345.656,39.91029,-0.01041079,0.40157,0.94037
346.256,39.96826,-0.009402064,0.40331,0.94
346.856,40.02618,-0.01210874,0.40072,0.93963
347.456,40.08403,-0.01130641,0.40141,0.93926
348.056,40.1417,-0.01091738,0.40161,0.93889
348.656,40.19934,-0.01153006,0.40317,0.93852
349.256,40.25715,-0.01194832,0.40302,0.93815
349.856,40.3149,-0.01284026,0.40295,0.93778
350.456,40.37291,-0.01284,0.40331,0.93741
351.056,40.43079,-0.01283986,0.40357,0.93704
351.656,40.4886,-0.01157197,0.40366,0.93667
352.256,40.54663,-0.0114685,0.40537,0.93629
352.856,40.60448,-0.01286158,0.40502,0.93592
353.456,40.6623,-0.01416043,0.40707,0.93555
354.056,40.72006,-0.01416007,0.40896,0.93517
354.656,40.77775,-0.01419998,0.40486,0.9348
355.256,40.83572,-0.01416005,0.40855,0.93442
355.856,40.89374,-0.01422295,0.40884,0.93405
356.456,40.95149,-0.0151505,0.40815,0.93367
357.056,41.00945,-0.01644187,0.40816,0.9333
357.656,41.0674,-0.01645933,0.41091,0.93292
358.256,41.12532,-0.01613854,0.41046,0.93254
358.856,41.1835,-0.01681552,0.41201,0.93216
359.456,41.2413,-0.01744992,0.4102,0.93179
360.056,41.2994,-0.01744984,0.41209,0.93141
360.656,41.35735,-0.01875634,0.41166,0.93103
361.256,41.41543,-0.01876999,0.41471,0.93065
361.856,41.47341,-0.01877,0.41416,0.93027
362.456,41.53112,-0.01877,0.41581,0.92989
363.056,41.58913,-0.01877006,0.41531,0.92951
363.656,41.64691,-0.02014934,0.41722,0.92913
364.256,41.7048,-0.02005769,0.41731,0.92875
364.856,41.76276,-0.02042016,0.41888,0.92836
365.456,41.82062,-0.02041342,0.41897,0.92798
366.056,41.87869,-0.02139763,0.42176,0.9276
366.656,41.93673,-0.020409,0.42292,0.92722
367.256,41.99472,-0.02173753,0.42446,0.92683
367.856,42.05255,-0.02309591,0.42414,0.92645
368.456,42.11027,-0.02436547,0.42966,0.92606
369.056,42.168,-0.02569145,0.42972,0.92568
369.656,42.22571,-0.02569715,0.43152,0.92529
370.256,42.28385,-0.02509507,0.43176,0.92491
370.856,42.34185,-0.02566118,0.43254,0.92452
371.456,42.39994,-0.02700004,0.43703,0.92413
372.056,42.45794,-0.02699559,0.43801,0.92375
372.656,42.51591,-0.02878312,0.4391,0.92336
373.256,42.57394,-0.02900045,0.44079,0.92297
373.856,42.63212,-0.03030048,0.4412,0.92258
374.456,42.69032,-0.03162706,0.44341,0.92219
375.056,42.7484,-0.03160996,0.44518,0.9218
375.656,42.8065,-0.03161187,0.44788,0.92142
376.256,42.86463,-0.0329381,0.44908,0.92102
376.856,42.92282,-0.03437538,0.45115,0.92063
377.456,42.98104,-0.03701609,0.45385,0.92024
378.056,43.03928,-0.03831655,0.45774,0.91985
378.656,43.09755,-0.03830374,0.45946,0.91946
379.256,43.15597,-0.03962498,0.45923,0.91907
379.856,43.2142,-0.04099229,0.4638,0.91867
380.456,43.27245,-0.04365688,0.46562,0.91828
381.056,43.33065,-0.04589022,0.46761,0.91789
381.656,43.3889,-0.04719115,0.46933,0.91749
382.256,43.44703,-0.04921212,0.4737,0.9171
382.856,43.50528,-0.05033319,0.47643,0.9167
383.456,43.56347,-0.05187459,0.48075,0.91631
384.056,43.62161,-0.05406887,0.48298,0.91591
384.656,43.67982,-0.0562,0.48734,0.91552
385.256,43.738,-0.05839591,0.49106,0.91512
385.856,43.79632,-0.062098,0.49387,0.91472
386.456,43.8547,-0.06646747,0.49455,0.91432
387.056,43.91275,-0.06754792,0.50137,0.91393
387.656,43.97084,-0.07039106,0.50381,0.91353
388.256,44.029,-0.07388103,0.5068,0.91313
388.856,44.08713,-0.07736134,0.50991,0.91273
389.456,44.1453,-0.07996902,0.51303,0.91233
390.056,44.2035,-0.08382021,0.51424,0.91193
390.656,44.2618,-0.08800685,0.51992,0.91153
391.256,44.32007,-0.09243404,0.52001,0.91113
391.856,44.37838,-0.09614539,0.52439,0.91073
392.456,44.43659,-0.09932009,0.52827,0.91032
393.056,44.49476,-0.10363,0.53122,0.90992
393.656,44.55276,-0.10871,0.53581,0.90952
394.256,44.61087,-0.11382,0.53907,0.90912
394.856,44.6691,-0.11944,0.54098,0.90871
395.456,44.72743,-0.12327,0.54296,0.90831
396.056,44.78569,-0.12954,0.54757,0.9079
396.656,44.84415,-0.1349,0.5466,0.9075
397.256,44.90237,-0.13909,0.54722,0.90709
397.856,44.96069,-0.14477,0.55007,0.90669
398.456,45.0191,-0.15097,0.55286,0.90628
399.056,45.07725,-0.15957,0.55471,0.90587
399.656,45.13557,-0.16653,0.55812,0.90547
400.256,45.19377,-0.17258,0.5575,0.90506
400.856,45.25197,-0.17902,0.529,0.90465
401.456,45.31031,-0.18634,0.50096,0.90424
402.056,45.3686,-0.19386,0.48775,0.90383
402.656,45.42699,-0.20147,0.46696,0.90342
403.256,45.48532,-0.20877,0.45517,0.90302
403.856,45.54355,-0.21626,0.44704,0.90261
404.456,45.60185,-0.2245,0.44304,0.90219
405.056,45.6601,-0.23221,0.43886,0.90178
405.656,45.71853,-0.24184,0.43451,0.90137
406.256,45.77678,-0.25093,0.4303,0.90096
406.856,45.83509,-0.25994,0.42444,0.90055
407.456,45.89314,-0.26883,0.42131,0.90014
408.056,45.9516,-0.2786,0.41776,0.89972
408.656,46.0099,-0.28762,0.41753,0.89931
409.256,46.0683,-0.29761,0.41474,0.89889
409.856,46.12678,-0.30777,0.41354,0.89848
410.456,46.18517,-0.31825,0.40737,0.89807
411.056,46.24333,-0.32886,0.39851,0.89765
411.656,46.3018,-0.33964,0.38893,0.89723
412.256,46.36031,-0.35024,0.37595,0.89682
412.856,46.41874,-0.36007,0.36839,0.8964
413.456,46.4772,-0.37038,0.36718,0.89598
414.056,46.53543,-0.38232,0.37016,0.89557
414.656,46.5937,-0.39371,0.37363,0.89515
415.256,46.65194,-0.40701,0.38027,0.89473
415.856,46.71025,-0.41964,0.3871,0.89431
416.456,46.76882,-0.43495,0.39534,0.89389
417.056,46.82732,-0.44959,0.40103,0.89347
417.656,46.88579,-0.46524,0.41233,0.89305
418.256,46.94445,-0.48154,0.42056,0.89263
418.856,47.00288,-0.49843,0.43179,0.89221
419.456,47.06143,-0.51584,0.44111,0.89179
420.056,47.11997,-0.53474,0.45503,0.89137
420.656,47.17837,-0.55269,0.46693,0.89095
421.256,47.2371,-0.57295,0.47562,0.89052
421.856,47.2958,-0.59514,0.48682,0.8901
422.456,47.35458,-0.61721,0.49837,0.88968
423.056,47.41321,-0.63891,0.51191,0.88925
423.656,47.47186,-0.66305,0.52699,0.88883
424.256,47.53035,-0.68629,0.53989,0.88841
424.856,47.58879,-0.71215,0.55189,0.88798
425.456,47.64721,-0.7373,0.56731,0.88756
426.056,47.70577,-0.76475,0.57966,0.88713
426.656,47.76445,-0.79211,0.59373,0.8867
427.256,47.82333,-0.82136,0.60746,0.88628
427.856,47.88204,-0.85161,0.61816,0.88585
428.456,47.9407,-0.88175,0.63497,0.88542
429.056,47.99937,-0.91476,0.64827,0.88499
429.656,48.0582,-0.94498,0.65727,0.88457
430.256,48.11714,-0.98275,0.66555,0.88414
430.856,48.17607,-1.01786,0.67612,0.88371
431.456,48.23485,-1.05487,0.68435,0.88328
432.056,48.29347,-1.0879,0.69225,0.88285
432.656,48.35215,-1.12709,0.69676,0.88242
433.256,48.41072,-1.16513,0.70618,0.88199
433.856,48.4694,-1.20513,0.71139,0.88155
434.456,48.5279,-1.24119,0.71677,0.88112
435.056,48.58645,-1.28421,0.72525,0.88069
435.656,48.64517,-1.32341,0.73163,0.88026
436.256,48.70402,-1.36564,0.73559,0.87982
436.856,48.76278,-1.40832,0.73908,0.87939
437.456,48.82163,-1.45283,0.74271,0.87896
438.056,48.88035,-1.49615,0.74496,0.87852
438.656,48.93913,-1.54189,0.74562,0.87809
439.256,48.99783,-1.58795,0.74751,0.87765
439.856,49.05642,-1.63333,0.74725,0.87722
440.456,49.11513,-1.68127,0.74867,0.87678
441.056,49.17383,-1.72408,0.74518,0.87635
441.656,49.23255,-1.77291,0.74098,0.87591
442.256,49.29125,-1.81797,0.73774,0.87547
442.856,49.35002,-1.86557,0.73349,0.87503
443.456,49.4086,-1.91057,0.72597,0.8746
444.056,49.46733,-1.95919,0.71812,0.87416
444.656,49.5261,-2.0014,0.71169,0.87372
445.256,49.5847,-2.04809,0.70075,0.87328
445.856,49.64333,-2.09283,0.69054,0.87284
446.456,49.70192,-2.13819,0.67722,0.8724
447.056,49.7605,-2.17938,0.66419,0.87196
447.656,49.81929,-2.22261,0.64987,0.87152
448.256,49.87789,-2.26454,0.63327,0.87108
448.856,49.93631,-2.30302,0.6201,0.87063
449.456,49.9947,-2.34283,0.60374,0.87019
450.056,50.05327,-2.37848,0.58762,0.86975
450.656,50.112,-2.41601,0.56773,0.86931
451.256,50.17062,-2.44774,0.54856,0.86886
451.856,50.22925,-2.48157,0.52771,0.86842
452.456,50.28785,-2.51009,0.50589,0.86798
453.056,50.34659,-2.53976,0.48584,0.86753
453.656,50.4052,-2.56404,0.46182,0.86709
454.256,50.46368,-2.59044,0.4385,0.86664
454.856,50.52214,-2.612,0.41691,0.86619
455.456,50.58056,-2.63338,0.39608,0.86575
456.056,50.63903,-2.65431,0.3763,0.8653
456.656,50.69755,-2.67168,0.35604,0.86485
457.256,50.7562,-2.68802,0.3368,0.86441
457.856,50.8148,-2.7038,0.32076,0.86396
458.456,50.87359,-2.71887,0.3049,0.86351
459.056,50.93207,-2.73164,0.29045,0.86306
459.656,50.99069,-2.7454,0.27756,0.86261
460.256,51.04933,-2.75839,0.26295,0.86216
460.856,51.10818,-2.76411,0.25047,0.86171
461.456,51.1669,-2.78052,0.23719,0.86126
462.056,51.2258,-2.78762,0.22786,0.86081
462.656,51.28443,-2.79719,0.21478,0.86036
463.256,51.34332,-2.80619,0.20427,0.85991
463.856,51.40159,-2.81333,0.19391,0.85946
464.456,51.46052,-2.82195,0.18378,0.85901
465.056,51.51944,-2.8297,0.17449,0.85855
465.656,51.57847,-2.83606,0.16254,0.8581
466.256,51.6374,-2.84307,0.1554,0.85765
466.856,51.69624,-2.84948,0.14365,0.85719
467.456,51.75496,-2.85511,0.13707,0.85674
468.056,51.81369,-2.8604,0.12743,0.85628
468.656,51.8723,-2.86732,0.12151,0.85583
469.256,51.93103,-2.87173,0.11189,0.85537
469.856,51.98964,-2.87696,0.10354,0.85492
470.456,52.0483,-2.88287,0.09481489,0.85446
471.056,52.10712,-2.88788,0.08623788,0.854
471.656,52.1659,-2.89126,0.07945539,0.85355
472.256,52.22473,-2.89586,0.07349457,0.85309
472.856,52.2836,-2.89945,0.06246238,0.85263
473.456,52.34218,-2.90405,0.0569044,0.85217
474.056,52.40095,-2.90864,0.05212526,0.85171
474.656,52.4597,-2.91078,0.0445034,0.85125
475.256,52.51863,-2.91512,0.03767242,0.85079
475.856,52.5778,-2.91812,0.03166876,0.85034
476.456,52.6368,-2.92225,0.0276321,0.84987
477.056,52.6958,-2.92539,0.02332915,0.84941
477.656,52.75484,-2.9298,0.01599247,0.84895
478.256,52.8138,-2.9319,0.01310723,0.84849
478.856,52.873,-2.93285,0.00404661,0.84803
479.456,52.9321,-2.93556,0.002572433,0.84757
480.056,52.99111,-2.93843,0.002210695,0.8471
480.656,53.0501,-2.94175,-0.002276393,0.84664
481.256,53.1092,-2.94443,-0.00525418,0.84618
481.856,53.16808,-2.9458,-0.009870314,0.84571
482.456,53.227,-2.94704,-0.0145917,0.84525
483.056,53.286,-2.95007,-0.01632386,0.84478
483.656,53.345,-2.95072,-0.02130062,0.84432
484.256,53.4041,-2.95401,-0.02346342,0.84385
484.856,53.4631,-2.95727,-0.02709021,0.84339
485.456,53.52222,-2.95855,-0.03066232,0.84292
486.056,53.58135,-2.95984,-0.03359772,0.84246
486.656,53.6404,-2.9622,-0.03536463,0.84199
487.256,53.6994,-2.96382,-0.03735915,0.84152
487.856,53.7584,-2.96557,-0.04215971,0.84105
488.456,53.8173,-2.96616,-0.04533649,0.84059
489.056,53.8764,-2.96815,-0.0482644,0.84012
489.656,53.9354,-2.96962,-0.05415162,0.83965
490.256,53.99445,-2.97094,-0.0577885,0.83918
490.856,54.05376,-2.97264,-0.06095209,0.83871
491.456,54.1129,-2.97261,-0.06530156,0.83824
492.056,54.17199,-2.97392,-0.06789004,0.83777
492.656,54.23109,-2.97594,-0.07221862,0.8373
493.256,54.28997,-2.97754,-0.07131972,0.83683
493.856,54.34916,-2.9775,-0.07271495,0.83635
494.456,54.40817,-2.97937,-0.07582276,0.83588
495.056,54.46736,-2.98137,-0.07763402,0.83541
495.656,54.52664,-2.98029,-0.07828172,0.83494
496.256,54.58563,-2.98152,-0.07875541,0.83446
496.856,54.6447,-2.98281,-0.08148075,0.83399
497.456,54.70358,-2.98555,-0.08043939,0.83352
498.056,54.76257,-2.98556,-0.08074501,0.83304
498.656,54.8217,-2.98676,-0.08013288,0.83257
499.256,54.881,-2.98807,-0.08140804,0.83209
499.856,54.9402,-2.98809,-0.08175355,0.83162
500.456,54.9995,-2.98973,-0.08180283,0.83114
501.056,55.0587,-2.99059,-0.08312933,0.83066
501.656,55.1178,-2.99234,-0.08634715,0.83019
502.256,55.17675,-2.99275,-0.08604335,0.82971
502.856,55.2358,-2.99368,-0.08413946,0.82923
503.456,55.2947,-2.99367,-0.08546834,0.82876
504.056,55.3538,-2.995,-0.08666253,0.82828
504.656,55.4131,-2.99629,-0.08600055,0.8278
505.256,55.47263,-2.99633,-0.08669422,0.82732
505.856,55.53196,-2.99763,-0.0866818,0.82684
506.456,55.5911,-2.99894,-0.08462812,0.82636
507.056,55.6503,-2.99895,-0.0851781,0.82588
507.656,55.7094,-3.00028,-0.08823034,0.8254
508.256,55.76846,-3.00147,-0.08718624,0.82492
508.856,55.82779,-3.00158,-0.08664676,0.82444
509.456,55.88711,-3.00295,-0.08846727,0.82396
510.056,55.94635,-3.00421,-0.08873875,0.82348
510.656,56.00572,-3.00516,-0.0884999,0.82299
511.256,56.0649,-3.00554,-0.09118147,0.82251
511.856,56.12435,-3.0055,-0.08925923,0.82203
512.456,56.1838,-3.00685,-0.08998918,0.82154
513.056,56.24332,-3.00794,-0.08875734,0.82106
513.656,56.3029,-3.00781,-0.09028547,0.82058
514.256,56.3624,-3.00783,-0.08984737,0.82009
514.856,56.4217,-3.00895,-0.08937034,0.81961
515.456,56.48112,-3.00916,-0.08832622,0.81912
516.056,56.54034,-3.00918,-0.08563139,0.81864
516.656,56.5995,-3.0108,-0.08447499,0.81815
517.256,56.65888,-3.01214,-0.08736247,0.81766
517.856,56.7183,-3.01212,-0.08996762,0.81718
518.456,56.77795,-3.0107,-0.08422885,0.81669
519.056,56.8375,-3.01212,-0.08422783,0.8162
519.656,56.8969,-3.01226,-0.08464795,0.81571
520.256,56.9564,-3.01405,-0.08409337,0.81523
520.856,57.0158,-3.0153,-0.08470241,0.81474
521.456,57.07518,-3.01608,-0.08784367,0.81425
522.056,57.13455,-3.01471,-0.08735085,0.81376
522.656,57.19396,-3.01681,-0.08631024,0.81327
523.256,57.25315,-3.01739,-0.08797391,0.81278
523.856,57.3128,-3.01872,-0.08572835,0.81229
524.456,57.37215,-3.01829,-0.08544798,0.8118
525.056,57.43172,-3.01869,-0.0862563,0.81131
525.656,57.49165,-3.0187,-0.0835462,0.81082
526.256,57.55112,-3.0187,-0.08593177,0.81033
526.856,57.6107,-3.02002,-0.08485894,0.80983
527.456,57.67032,-3.02068,-0.08377933,0.80934
528.056,57.72987,-3.022,-0.08571534,0.80885
528.656,57.7894,-3.022,-0.08381147,0.80835
529.256,57.8489,-3.022,-0.0860198,0.80786
529.856,57.90821,-3.022,-0.08315014,0.80737
530.456,57.96796,-3.022,-0.08543002,0.80687
531.056,58.0275,-3.02332,-0.08607876,0.80638
531.656,58.08719,-3.02332,-0.08491934,0.80588
532.256,58.14688,-3.02331,-0.08493504,0.80539
532.856,58.20641,-3.0233,-0.08569302,0.80489
533.456,58.26602,-3.02594,-0.08768334,0.8044
534.056,58.3255,-3.02592,-0.08439785,0.8039
534.656,58.38508,-3.02463,-0.08629373,0.8034
535.256,58.44438,-3.02548,-0.08792549,0.80291
535.856,58.50391,-3.02633,-0.08754666,0.80241
536.456,58.5635,-3.02693,-0.08792376,0.80191
537.056,58.6231,-3.02668,-0.08679977,0.80141
537.656,58.68249,-3.02662,-0.08870893,0.80091
538.256,58.74184,-3.02662,-0.08783233,0.80041
538.856,58.80131,-3.02695,-0.08803592,0.79992
539.456,58.8608,-3.02826,-0.08768882,0.79942
540.056,58.9204,-3.02826,-0.09214956,0.79892
540.656,58.9799,-3.02826,-0.09119994,0.79842
541.256,59.0395,-3.02826,-0.09291948,0.79792
541.856,59.09854,-3.0283,-0.09137086,0.79741
542.456,59.15795,-3.02903,-0.09089764,0.79691
543.056,59.2176,-3.02903,-0.09400207,0.79641
543.656,59.27734,-3.02903,-0.10278,0.79591
544.256,59.33705,-3.03034,-0.09993834,0.79541
544.856,59.39657,-3.03036,-0.0979085,0.7949
545.456,59.4562,-3.03167,-0.09718589,0.7944
546.056,59.51596,-3.03167,-0.09769151,0.7939
546.656,59.57561,-3.03166,-0.09955427,0.79339
547.256,59.63511,-3.03265,-0.10038,0.79289
547.856,59.6945,-3.033,-0.10369,0.79239
548.456,59.75411,-3.03396,-0.09908448,0.79188
549.056,59.81351,-3.03526,-0.09936714,0.79138
549.656,59.8732,-3.03396,-0.10002,0.79087
550.256,59.9327,-3.03417,-0.09971623,0.79037
550.856,59.99255,-3.03397,-0.10345,0.78986
551.456,60.0522,-3.03528,-0.10263,0.78935
552.056,60.1118,-3.0366,-0.10384,0.78885
552.656,60.17131,-3.03529,-0.10233,0.78834
553.256,60.23049,-3.03529,-0.10515,0.78783
553.856,60.29011,-3.03628,-0.10572,0.78732
554.456,60.3494,-3.03693,-0.10358,0.78682
555.056,60.40922,-3.0376,-0.10228,0.78631
555.656,60.4689,-3.03759,-0.10102,0.7858
556.256,60.52856,-3.03759,-0.10212,0.78529
556.856,60.58811,-3.0389,-0.10302,0.78478
557.456,60.64755,-3.03816,-0.10187,0.78427
558.056,60.7071,-3.03859,-0.10369,0.78376
558.656,60.76693,-3.03858,-0.10499,0.78325
559.256,60.82665,-3.03906,-0.10316,0.78274
559.856,60.8866,-3.04013,-0.10407,0.78223
560.456,60.94639,-3.04039,-0.10408,0.78172
561.056,61.00623,-3.04136,-0.10341,0.78121
561.656,61.06606,-3.04154,-0.10597,0.78069
562.256,61.1258,-3.04209,-0.10574,0.78018
562.856,61.18541,-3.04256,-0.10841,0.77967
563.456,61.2451,-3.04256,-0.10872,0.77916
564.056,61.30494,-3.04222,-0.10779,0.77864
564.656,61.36464,-3.04344,-0.10662,0.77813
565.256,61.4246,-3.04484,-0.10905,0.77761
565.856,61.48449,-3.04444,-0.10882,0.7771
566.456,61.5442,-3.04351,-0.10854,0.77659
567.056,61.60405,-3.04483,-0.10964,0.77607
567.656,61.664,-3.04483,-0.11158,0.77555
568.256,61.72345,-3.04483,-0.11001,0.77504
568.856,61.78304,-3.04483,-0.11161,0.77452
569.456,61.84271,-3.04615,-0.10859,0.77401
570.056,61.90257,-3.04615,-0.10868,0.77349
570.656,61.9626,-3.04678,-0.1081,0.77297
571.256,62.0228,-3.04681,-0.11173,0.77246
571.856,62.0827,-3.04748,-0.11238,0.77194
572.456,62.14249,-3.04811,-0.11177,0.77142
573.056,62.2023,-3.04815,-0.11246,0.7709
573.656,62.2622,-3.04932,-0.11244,0.77038
574.256,62.3219,-3.04878,-0.11126,0.76987
574.856,62.38163,-3.04989,-0.11226,0.76935
575.456,62.4415,-3.0501,-0.11105,0.76883
576.056,62.50131,-3.0501,-0.11158,0.76831
576.656,62.5612,-3.0501,-0.11076,0.76779
577.256,62.62112,-3.05141,-0.1117,0.76727
577.856,62.68081,-3.05142,-0.11188,0.76675
578.456,62.7407,-3.05315,-0.11351,0.76623
579.056,62.8005,-3.05424,-0.11077,0.7657
579.656,62.8603,-3.05175,-0.11391,0.76518
580.256,62.9201,-3.05209,-0.11366,0.76466
580.856,62.97956,-3.05274,-0.11398,0.76414
581.456,63.0392,-3.05406,-0.11487,0.76362
582.056,63.09901,-3.05467,-0.11588,0.76309
582.656,63.1589,-3.05603,-0.11761,0.76257
583.256,63.21906,-3.05604,-0.11711,0.76205
583.856,63.2789,-3.05604,-0.11664,0.76152
584.456,63.3388,-3.05605,-0.11842,0.761
585.056,63.39878,-3.05604,-0.11576,0.76048
585.656,63.4589,-3.05604,-0.11535,0.75995
586.256,63.51894,-3.05869,-0.11801,0.75943
586.856,63.5789,-3.05866,-0.1165,0.7589
587.456,63.639,-3.05866,-0.11686,0.75838
588.056,63.69891,-3.059,-0.11686,0.75785
588.656,63.7586,-3.05901,-0.11562,0.75732
589.256,63.81844,-3.06032,-0.11849,0.7568
589.856,63.87815,-3.06032,-0.11665,0.75627
590.456,63.93795,-3.06133,-0.11417,0.75574
591.056,63.99768,-3.06131,-0.11678,0.75522
591.656,64.0575,-3.06132,-0.11625,0.75469
592.256,64.1173,-3.06132,-0.11578,0.75416
592.856,64.17726,-3.06262,-0.11471,0.75363
593.456,64.2371,-3.06381,-0.11563,0.7531
594.056,64.29704,-3.06275,-0.11711,0.75258
594.656,64.35704,-3.06262,-0.11508,0.75205
595.256,64.417,-3.06362,-0.11663,0.75152
595.856,64.4769,-3.06494,-0.11483,0.75099
596.456,64.5367,-3.06528,-0.1145,0.75046
597.056,64.5966,-3.06657,-0.11369,0.74993
597.656,64.65645,-3.06679,-0.11359,0.7494
598.256,64.71642,-3.0669,-0.11596,0.74887
598.856,64.77638,-3.06691,-0.11651,0.74833
599.456,64.83638,-3.06822,-0.1159,0.7478
600.056,64.89636,-3.06821,-0.11725,0.74727
600.656,64.95603,-3.06954,-0.11937,0.74674
601.256,65.01564,-3.06954,-0.11574,0.74621
601.856,65.07576,-3.06986,-0.11686,0.74567
602.456,65.13603,-3.07085,-0.11576,0.74514
603.056,65.1963,-3.07149,-0.11474,0.74461
603.656,65.25649,-3.07184,-0.11381,0.74408
604.256,65.31645,-3.07187,-0.1143,0.74354
604.856,65.3765,-3.07183,-0.11534,0.74301
605.456,65.4366,-3.07323,-0.11375,0.74247
606.056,65.49665,-3.0725,-0.11575,0.74194
606.656,65.55675,-3.07252,-0.11477,0.7414
607.256,65.61664,-3.07314,-0.11496,0.74087
607.856,65.67647,-3.07316,-0.11138,0.74033
608.456,65.73637,-3.07445,-0.11266,0.7398
609.056,65.79626,-3.07447,-0.11374,0.73926
609.656,65.85597,-3.07447,-0.11648,0.73873
610.256,65.9161,-3.07446,-0.11644,0.73819
610.856,65.97606,-3.07579,-0.11541,0.73765
611.456,66.03647,-3.07582,-0.11769,0.73712
612.056,66.0969,-3.07674,-0.11991,0.73658
612.656,66.15682,-3.07828,-0.11746,0.73604
613.256,66.21693,-3.07747,-0.11827,0.7355
613.856,66.27678,-3.07703,-0.11989,0.73497
614.456,66.33674,-3.07843,-0.11841,0.73443
615.056,66.3967,-3.07843,-0.11854,0.73389
615.656,66.45666,-3.07843,-0.1182,0.73335
616.256,66.5168,-3.07838,-0.11956,0.73281
616.856,66.57698,-3.07975,-0.11802,0.73227
617.456,66.63683,-3.07975,-0.11042,0.73173
618.056,66.6968,-3.08106,-0.11448,0.73119
618.656,66.75664,-3.08039,-0.11404,0.73065
619.256,66.81647,-3.08147,-0.11749,0.73011
619.856,66.87648,-3.0814,-0.11736,0.72957
620.456,66.9362,-3.0814,-0.11619,0.72903
621.056,66.9962,-3.0827,-0.11779,0.72849
621.656,67.0561,-3.08271,-0.11858,0.72795
622.256,67.11629,-3.08272,-0.11683,0.72741
622.856,67.1764,-3.08337,-0.11724,0.72687
623.456,67.23652,-3.08382,-0.11824,0.72632
624.056,67.29678,-3.08403,-0.11944,0.72578
624.656,67.3569,-3.08471,-0.12129,0.72524
625.256,67.4171,-3.08535,-0.12013,0.72469
625.856,67.47712,-3.08535,-0.11976,0.72415
626.456,67.5372,-3.08574,-0.11804,0.72361
627.056,67.5972,-3.08634,-0.11661,0.72306
627.656,67.6575,-3.08634,-0.11749,0.72252
628.256,67.71781,-3.08711,-0.11908,0.72198
628.856,67.77811,-3.08765,-0.12143,0.72143
629.456,67.8382,-3.08765,-0.11877,0.72089
630.056,67.8982,-3.08897,-0.1219,0.72034
630.656,67.95841,-3.08897,-0.12161,0.7198
631.256,68.01855,-3.0883,-0.12058,0.71925
631.856,68.07879,-3.08897,-0.12005,0.71871
632.456,68.13891,-3.08897,-0.12255,0.71816
633.056,68.199,-3.08897,-0.12479,0.71761
633.656,68.2589,-3.09029,-0.12483,0.71707
634.256,68.31897,-3.09029,-0.12483,0.71652
634.856,68.37916,-3.0916,-0.12433,0.71597
635.456,68.43937,-3.09193,-0.12468,0.71543
636.056,68.49937,-3.09193,-0.12449,0.71488
636.656,68.55923,-3.09233,-0.12561,0.71433
637.256,68.61927,-3.09159,-0.12429,0.71378
637.856,68.6793,-3.09193,-0.12248,0.71323
638.456,68.7394,-3.09193,-0.12551,0.71269
639.056,68.79942,-3.09193,-0.12473,0.71214
639.656,68.85956,-3.09325,-0.1264,0.71159
640.256,68.91938,-3.09325,-0.12507,0.71104
640.856,68.9796,-3.09324,-0.12605,0.71049
641.456,69.0398,-3.09457,-0.12405,0.70994
642.056,69.09999,-3.09489,-0.12688,0.70939
642.656,69.16046,-3.09456,-0.12721,0.70884
643.256,69.2206,-3.0956,-0.12789,0.70829
643.856,69.28079,-3.09588,-0.12525,0.70774
644.456,69.34096,-3.09457,-0.12743,0.70719
645.056,69.40111,-3.09563,-0.12749,0.70664
645.656,69.46132,-3.09726,-0.13069,0.70609
646.256,69.52155,-3.09709,-0.12901,0.70554
646.856,69.5817,-3.09589,-0.12767,0.70498
647.456,69.64199,-3.09589,-0.12367,0.70443
648.056,69.70212,-3.09589,-0.12566,0.70388
648.656,69.7623,-3.09715,-0.12575,0.70333
649.256,69.8224,-3.09819,-0.12741,0.70278
649.856,69.8824,-3.09819,-0.12814,0.70222
650.456,69.94256,-3.09796,-0.12758,0.70167
651.056,70.00287,-3.09818,-0.12804,0.70112
651.656,70.06306,-3.09952,-0.1283,0.70056
652.256,70.12329,-3.09951,-0.12797,0.70001
652.856,70.1832,-3.09949,-0.12792,0.69946
653.456,70.24328,-3.09816,-0.13063,0.6989
654.056,70.30357,-3.09951,-0.12977,0.69835
654.656,70.36368,-3.09951,-0.1308,0.69779
655.256,70.424,-3.09948,-0.1298,0.69724
655.856,70.4842,-3.10116,-0.12955,0.69668
656.456,70.54435,-3.10116,-0.13153,0.69613
657.056,70.6049,-3.10116,-0.1323,0.69557
657.656,70.6651,-3.10116,-0.13276,0.69502
658.256,70.72547,-3.10116,-0.1298,0.69446
658.856,70.78578,-3.10125,-0.13262,0.6939
659.456,70.84597,-3.10247,-0.13306,0.69335
660.056,70.90626,-3.10114,-0.13387,0.69279
660.656,70.96647,-3.10152,-0.13164,0.69224
661.256,71.02678,-3.10247,-0.13177,0.69168
661.856,71.08702,-3.10241,-0.13355,0.69112
662.456,71.1473,-3.10115,-0.13132,0.69056
663.056,71.20744,-3.10116,-0.13272,0.69001
663.656,71.26776,-3.10346,-0.1359,0.68945
664.256,71.32803,-3.10346,-0.13512,0.68889
664.856,71.38844,-3.10346,-0.13469,0.68833
665.456,71.44895,-3.10346,-0.13402,0.68777
666.056,71.50928,-3.10406,-0.13463,0.68722
666.656,71.56953,-3.10478,-0.13914,0.68666
667.256,71.6297,-3.10478,-0.13736,0.6861
667.856,71.68982,-3.10478,-0.14005,0.68554
668.456,71.74995,-3.10478,-0.14155,0.68498
669.056,71.81013,-3.10512,-0.13745,0.68442
669.656,71.8702,-3.10609,-0.14063,0.68386
670.256,71.93039,-3.10507,-0.14337,0.6833
670.856,71.99053,-3.10477,-0.1446,0.68274
671.456,72.05072,-3.10477,-0.14308,0.68218
672.056,72.11064,-3.10581,-0.14396,0.68162
672.656,72.17095,-3.10609,-0.14343,0.68106
673.256,72.23102,-3.10676,-0.14536,0.6805
673.856,72.29139,-3.10675,-0.14568,0.67994
674.456,72.35174,-3.10681,-0.14731,0.67938
675.056,72.41199,-3.10741,-0.15156,0.67882
675.656,72.47282,-3.10676,-0.1512,0.67825
676.256,72.53309,-3.10813,-0.15137,0.67769
676.856,72.59314,-3.10808,-0.14988,0.67713
677.456,72.6534,-3.10808,-0.15078,0.67657
678.056,72.7137,-3.10808,-0.15453,0.67601
678.656,72.77416,-3.10808,-0.15257,0.67544
679.256,72.8349,-3.10807,-0.15032,0.67488
679.856,72.89526,-3.10939,-0.15635,0.67432
680.456,72.95576,-3.10864,-0.15445,0.67375
681.056,73.0161,-3.1084,-0.15227,0.67319
681.656,73.07656,-3.1084,-0.15399,0.67263
682.256,73.13685,-3.11078,-0.15288,0.67206
682.856,73.1972,-3.11071,-0.15466,0.6715
683.456,73.25755,-3.11071,-0.15793,0.67094
684.056,73.318,-3.11071,-0.16171,0.67037
684.656,73.37833,-3.1107,-0.15958,0.66981
685.256,73.4386,-3.11071,-0.16105,0.66924
685.856,73.49883,-3.10939,-0.16424,0.66868
686.456,73.55909,-3.1104,-0.16416,0.66811
687.056,73.6193,-3.11225,-0.16469,0.66755
687.656,73.67961,-3.11092,-0.16593,0.66698
688.256,73.73991,-3.11092,-0.17071,0.66642
688.856,73.80011,-3.11092,-0.17028,0.66585
689.456,73.86052,-3.11092,-0.17194,0.66529
690.056,73.9209,-3.11125,-0.17319,0.66472
690.656,73.98144,-3.1119,-0.1732,0.66415
691.256,74.0419,-3.11191,-0.1747,0.66359
691.856,74.1023,-3.11227,-0.17806,0.66302
692.456,74.16289,-3.11297,-0.17692,0.66246
693.056,74.2233,-3.1129,-0.17726,0.66189
693.656,74.2837,-3.11189,-0.17893,0.66132
694.256,74.34432,-3.11191,-0.18159,0.66076
694.856,74.40479,-3.11192,-0.1812,0.66019
695.456,74.46539,-3.11257,-0.18021,0.65962
696.056,74.52601,-3.11388,-0.18399,0.65905
696.656,74.5864,-3.11389,-0.18268,0.65849
697.256,74.64708,-3.11384,-0.18323,0.65792
697.856,74.7076,-3.11389,-0.18607,0.65735
698.456,74.768,-3.11389,-0.18521,0.65678
699.056,74.82854,-3.11389,-0.18935,0.65621
699.656,74.88888,-3.11389,-0.19029,0.65564
700.256,74.94926,-3.11389,-0.19225,0.65508
700.756,74.99886,-3.11458,-0.19279,0.6546