File: 01_Data/Straw/STA/N2/10K_min/Straw_STA_N2_10KData_22052_R3.csv
##Temp./Â°C,Time/min,Mass loss(subtr.2)/mg,DSC(subtr.2)/(mW/mg),Sensit./(uV/mW)
49.733,10.01,0.00758,0.01540296,1.06051
50.433,10.7721,0.01130297,0.04778504,1.06037
51.133,10.9726,0.009527979,0.07546992,1.06022
51.833,11.1244,0.01118321,0.09316986,1.06008
52.533,11.2524,0.01100972,0.11317,1.05993
53.233,11.3664,0.01027049,0.12648,1.05978
53.933,11.47176,0.01102716,0.14142,1.05963
54.633,11.5708,0.01087988,0.15161,1.05949
55.333,11.66455,0.01032051,0.16181,1.05933
56.033,11.75484,0.01020623,0.171,1.05918
56.733,11.8423,0.008675726,0.17819,1.05903
57.433,11.92768,0.01007675,0.18374,1.05888
58.133,12.01153,0.009258487,0.19104,1.05872
58.833,12.09422,0.01052923,0.1986,1.05857
59.533,12.17565,0.009334373,0.20369,1.05841
60.233,12.25596,0.00959644,0.20647,1.05826
60.933,12.33493,0.01049694,0.21226,1.0581
61.633,12.4137,0.01066496,0.2158,1.05794
62.333,12.49215,0.01074019,0.21862,1.05778
63.033,12.56976,0.01076037,0.22222,1.05762
63.733,12.64676,0.00959008,0.22703,1.05746
64.433,12.72366,0.01006156,0.23191,1.0573
65.133,12.8001,0.008768007,0.23379,1.05714
65.833,12.8765,0.01045521,0.23913,1.05697
66.533,12.95168,0.009428522,0.24299,1.05681
67.233,13.02699,0.008097129,0.24543,1.05664
67.933,13.1024,0.008457567,0.24955,1.05647
68.633,13.17813,0.009425749,0.25264,1.05631
69.333,13.25269,0.00943853,0.25627,1.05614
70.033,13.3267,0.007093396,0.25876,1.05597
70.733,13.40134,0.008103913,0.26363,1.0558
71.433,13.47548,0.00703488,0.2673,1.05563
72.133,13.5504,0.00651929,0.27113,1.05546
72.833,13.62421,0.006809158,0.27355,1.05528
73.533,13.69789,0.0054958,0.27658,1.05511
74.233,13.77109,0.005489998,0.27856,1.05493
74.933,13.84462,0.004702125,0.28171,1.05476
75.633,13.91813,0.005494704,0.28681,1.05458
76.333,13.991,0.005489784,0.28994,1.05441
77.033,14.06373,0.00417629,0.29248,1.05423
77.733,14.1364,0.004179931,0.29383,1.05405
78.433,14.20914,0.00288723,0.2956,1.05387
79.133,14.28157,0.00417991,0.29876,1.05369
79.833,14.354,0.004176143,0.30198,1.05351
80.533,14.4263,0.004170501,0.3025,1.05332
81.233,14.4984,0.002857184,0.30918,1.05314
81.933,14.57,0.001539956,0.31009,1.05295
82.633,14.64158,0.002509841,0.31144,1.05277
83.333,14.7123,0.001384395,0.31302,1.05258
84.033,14.7836,-0.000206989,0.31479,1.0524
84.733,14.85486,-0.000109692,0.31654,1.05221
85.433,14.92631,0.000867798,0.31726,1.05202
86.133,14.997,0.0009721186,0.31814,1.05183
86.833,15.06756,-0.000484888,0.31964,1.05164
87.533,15.13807,-0.001419937,0.32058,1.05145
88.233,15.2084,-0.00276174,0.32104,1.05125
88.933,15.27868,-0.00371976,0.32089,1.05106
89.633,15.34901,-0.004427551,0.3196,1.05087
90.333,15.41905,-0.003720026,0.31779,1.05067
91.033,15.4888,-0.003730015,0.3192,1.05048
91.733,15.5588,-0.003967595,0.31834,1.05028
92.433,15.62876,-0.005586973,0.31825,1.05008
93.133,15.6988,-0.006378743,0.31464,1.04988
93.833,15.76874,-0.005905266,0.31336,1.04968
94.533,15.8384,-0.0076081,0.3121,1.04948
95.233,15.90784,-0.00767,0.30968,1.04928
95.933,15.97706,-0.00776291,0.30826,1.04908
96.633,16.0464,-0.008329949,0.3108,1.04888
97.333,16.11584,-0.008648258,0.30524,1.04867
98.033,16.1851,-0.009643633,0.30436,1.04847
98.733,16.25422,-0.00770049,0.30313,1.04826
99.433,16.32317,-0.00635937,0.30101,1.04806
100.133,16.39225,-0.007688183,0.29895,1.04785
100.833,16.46144,-0.008658109,0.29892,1.04764
101.533,16.53068,-0.009980205,0.29407,1.04743
102.233,16.59979,-0.008666507,0.29176,1.04722
102.933,16.6686,-0.008613792,0.28609,1.04701
103.633,16.73752,-0.009918882,0.28824,1.0468
104.333,16.8064,-0.009969739,0.28422,1.04659
105.033,16.87536,-0.01133622,0.28072,1.04638
105.733,16.9441,-0.01129,0.2808,1.04616
106.433,17.01248,-0.01125478,0.27964,1.04595
107.133,17.08109,-0.01194285,0.2791,1.04573
107.833,17.14963,-0.01228002,0.27621,1.04552
108.533,17.21837,-0.01262102,0.27379,1.0453
109.233,17.28675,-0.01382642,0.27275,1.04508
109.933,17.35492,-0.01259976,0.27041,1.04486
110.633,17.42359,-0.01260971,0.26889,1.04464
111.333,17.4922,-0.01261,0.2665,1.04442
112.033,17.5612,-0.01261,0.26581,1.0442
112.733,17.6297,-0.01261,0.26523,1.04398
113.433,17.69809,-0.01280426,0.26203,1.04375
114.133,17.76608,-0.0139294,0.2599,1.04353
114.833,17.83401,-0.01329755,0.26107,1.0433
115.533,17.90219,-0.01260757,0.25948,1.04308
116.233,17.97044,-0.01392008,0.26002,1.04285
116.933,18.03888,-0.01524348,0.25844,1.04262
117.633,18.10719,-0.01622982,0.25988,1.04239
118.333,18.17546,-0.01622915,0.25855,1.04216
119.033,18.2438,-0.01613696,0.25763,1.04193
119.733,18.31175,-0.01622,0.25743,1.0417
120.433,18.38,-0.01622,0.25612,1.04147
121.133,18.44814,-0.01624089,0.25514,1.04124
121.833,18.51661,-0.0162246,0.25311,1.04101
122.533,18.58465,-0.01481667,0.25299,1.04077
123.233,18.6526,-0.01350255,0.25025,1.04054
123.933,18.72056,-0.01490586,0.2499,1.0403
124.633,18.78878,-0.01491,0.24653,1.04006
125.333,18.85669,-0.01491,0.24746,1.03983
126.033,18.92465,-0.01491004,0.2453,1.03959
126.733,18.9924,-0.01469751,0.24455,1.03935
127.433,19.0604,-0.01491006,0.24376,1.03911
128.133,19.12811,-0.01491,0.24615,1.03887
128.833,19.19578,-0.01491001,0.24452,1.03862
129.533,19.2634,-0.01558391,0.24472,1.03838
130.233,19.33031,-0.01623001,0.24324,1.03814
130.933,19.39761,-0.01623,0.24273,1.03789
131.633,19.4655,-0.01623197,0.24424,1.03765
132.333,19.53412,-0.01480424,0.24321,1.0374
133.033,19.60228,-0.01623171,0.24281,1.03716
133.733,19.6698,-0.01492042,0.24279,1.03691
134.433,19.73757,-0.01492,0.24428,1.03666
135.133,19.80554,-0.01491506,0.24236,1.03641
135.833,19.87319,-0.01556861,0.24286,1.03616
136.533,19.94044,-0.01489301,0.24212,1.03591
137.233,20.0078,-0.01490988,0.24333,1.03566
137.933,20.07515,-0.01553216,0.24379,1.03541
138.633,20.14302,-0.01690085,0.24327,1.03515
139.333,20.21048,-0.01754784,0.24364,1.0349
140.033,20.27811,-0.01622954,0.24359,1.03464
140.733,20.3455,-0.01687346,0.24552,1.03439
141.433,20.41299,-0.01688882,0.24423,1.03413
142.133,20.48049,-0.01683977,0.24663,1.03387
142.833,20.54816,-0.01622,0.2466,1.03362
143.533,20.6154,-0.01762556,0.24755,1.03336
144.233,20.6829,-0.01637401,0.24607,1.0331
144.933,20.75027,-0.01623001,0.24712,1.03284
145.633,20.81749,-0.01501152,0.24752,1.03258
146.333,20.88475,-0.0162305,0.24707,1.03231
147.033,20.95209,-0.01623,0.24827,1.03205
147.733,21.01987,-0.01623,0.24624,1.03179
148.433,21.08721,-0.01622344,0.24792,1.03152
149.133,21.15456,-0.01754209,0.24914,1.03126
149.833,21.2219,-0.01887099,0.25027,1.03099
150.533,21.28923,-0.02018993,0.24964,1.03072
151.233,21.35635,-0.01785203,0.24976,1.03046
151.933,21.42331,-0.01623416,0.24927,1.03019
152.633,21.49057,-0.01687857,0.25144,1.02992
153.333,21.55801,-0.01754073,0.25064,1.02965
154.033,21.6255,-0.01754,0.25122,1.02938
154.733,21.69265,-0.01753123,0.25096,1.02911
155.433,21.75989,-0.01655001,0.25237,1.02883
156.133,21.8272,-0.01594241,0.25232,1.02856
156.833,21.8938,-0.01651995,0.25159,1.02829
157.533,21.96114,-0.01787004,0.25042,1.02801
158.233,22.02836,-0.01918213,0.2523,1.02773
158.933,22.0962,-0.01852852,0.25142,1.02746
159.633,22.16323,-0.01816536,0.25424,1.02718
160.333,22.2303,-0.0182,0.25395,1.0269
161.033,22.29751,-0.01819938,0.25275,1.02662
161.733,22.3651,-0.01786826,0.25338,1.02634
162.433,22.43218,-0.01826148,0.25533,1.02606
163.133,22.49926,-0.01886032,0.255,1.02578
163.833,22.56621,-0.01886,0.25961,1.0255
164.533,22.63332,-0.01886011,0.25686,1.02522
165.233,22.70064,-0.01855782,0.25314,1.02493
165.933,22.76792,-0.01885998,0.25622,1.02465
166.633,22.83515,-0.01885449,0.2562,1.02436
167.333,22.90225,-0.02017087,0.25872,1.02408
168.033,22.96924,-0.02149611,0.25773,1.02379
168.733,23.03634,-0.02018187,0.26003,1.02351
169.433,23.10335,-0.01885355,0.2576,1.02322
170.133,23.17041,-0.02020196,0.25942,1.02293
170.833,23.2374,-0.02018093,0.25922,1.02264
171.533,23.30431,-0.02148306,0.2585,1.02235
172.233,23.3714,-0.0228124,0.25691,1.02206
172.933,23.43844,-0.02279269,0.25846,1.02176
173.633,23.50582,-0.0214956,0.25938,1.02147
174.333,23.57304,-0.0216851,0.25948,1.02118
175.033,23.64047,-0.02170995,0.25995,1.02088
175.733,23.7078,-0.02138414,0.26307,1.02059
176.433,23.7749,-0.02138,0.26232,1.02029
177.133,23.84204,-0.02137208,0.25971,1.02
177.833,23.90897,-0.02203523,0.25999,1.0197
178.533,23.97612,-0.02204188,0.25878,1.0194
179.233,24.0431,-0.02335821,0.25925,1.0191
179.933,24.11003,-0.0236925,0.2605,1.0188
180.633,24.17686,-0.02501003,0.26189,1.0185
181.333,24.24371,-0.02501,0.26008,1.0182
182.033,24.31061,-0.02501,0.26244,1.0179
182.733,24.3776,-0.02501,0.26245,1.0176
183.433,24.44451,-0.02500554,0.26295,1.01729
184.133,24.51137,-0.02566913,0.2621,1.01699
184.833,24.5781,-0.0256701,0.26057,1.01668
185.533,24.64515,-0.02691753,0.26315,1.01638
186.233,24.712,-0.02698,0.26325,1.01607
186.933,24.77896,-0.02698,0.26126,1.01576
187.633,24.8459,-0.02698067,0.26416,1.01546
188.333,24.9127,-0.02789931,0.26243,1.01515
189.033,24.97941,-0.0286203,0.26354,1.01484
189.733,25.0462,-0.02992948,0.26144,1.01453
190.433,25.1131,-0.02995898,0.26311,1.01422
191.133,25.18001,-0.02971001,0.26384,1.01391
191.833,25.24685,-0.03076875,0.26315,1.01359
192.533,25.31328,-0.03215226,0.2637,1.01328
193.233,25.37997,-0.03137003,0.26485,1.01297
193.933,25.44669,-0.03268058,0.26461,1.01265
194.633,25.51335,-0.03398825,0.26655,1.01234
195.333,25.58013,-0.03399,0.26377,1.01202
196.033,25.6467,-0.03502921,0.26464,1.0117
196.733,25.71365,-0.03663053,0.26706,1.01139
197.433,25.78037,-0.0366285,0.2673,1.01107
198.133,25.8472,-0.03662733,0.26715,1.01075
198.833,25.91341,-0.0379505,0.26633,1.01043
199.533,25.98006,-0.03795014,0.26921,1.01011
200.233,26.04663,-0.03927634,0.2674,1.00979
200.933,26.11369,-0.04050794,0.26775,1.00946
201.633,26.1804,-0.04189996,0.26776,1.00914
202.333,26.2473,-0.04244516,0.26693,1.00882
203.033,26.31359,-0.042219,0.26698,1.00849
203.733,26.3804,-0.04422888,0.26842,1.00817
204.433,26.4469,-0.04618171,0.26649,1.00784
205.133,26.5138,-0.04748267,0.26776,1.00752
205.833,26.58055,-0.04882784,0.26905,1.00719
206.533,26.64735,-0.04879977,0.26845,1.00686
207.233,26.71392,-0.05017195,0.26842,1.00653
207.933,26.7804,-0.05143955,0.2677,1.00621
208.633,26.84692,-0.05406966,0.26653,1.00588
209.333,26.91364,-0.05548697,0.2673,1.00554
210.033,26.9804,-0.05680323,0.2667,1.00521
210.733,27.04713,-0.05812538,0.26736,1.00488
211.433,27.1138,-0.05948297,0.26628,1.00455
212.133,27.18052,-0.06286749,0.26637,1.00422
212.833,27.2469,-0.06479762,0.26498,1.00388
213.533,27.3136,-0.06629204,0.26335,1.00355
214.233,27.38032,-0.0687972,0.26132,1.00321
214.933,27.4472,-0.07084673,0.26372,1.00287
215.633,27.5136,-0.07239486,0.26386,1.00254
216.333,27.58023,-0.07371369,0.26366,1.0022
217.033,27.64691,-0.07661479,0.26497,1.00186
217.733,27.7137,-0.07941032,0.26227,1.00152
218.433,27.7803,-0.08083084,0.26643,1.00118
219.133,27.847,-0.08383168,0.2641,1.00084
219.833,27.9137,-0.0863639,0.26384,1.0005
220.533,27.9803,-0.0897465,0.26456,1.00016
221.233,28.0469,-0.09190174,0.26613,0.99982
221.933,28.1137,-0.0948209,0.26831,0.99947
222.633,28.18055,-0.09794491,0.26874,0.99913
223.333,28.24725,-0.10094,0.26875,0.99878
224.033,28.3139,-0.10377,0.26932,0.99844
224.733,28.38053,-0.10614,0.27126,0.99809
225.433,28.4473,-0.11062,0.27074,0.99775
226.133,28.5138,-0.11426,0.2718,0.9974
226.833,28.58033,-0.11702,0.27463,0.99705
227.533,28.6471,-0.12034,0.27388,0.9967
228.233,28.7139,-0.12467,0.2761,0.99635
228.933,28.78053,-0.12954,0.27786,0.996
229.633,28.84733,-0.13437,0.2767,0.99565
230.333,28.9137,-0.13712,0.27963,0.9953
231.033,28.98088,-0.14121,0.28129,0.99495
231.733,29.04764,-0.14477,0.2799,0.99459
232.433,29.11468,-0.14895,0.28226,0.99424
233.133,29.1813,-0.15183,0.28465,0.99388
233.833,29.24786,-0.15655,0.28384,0.99353
234.533,29.31438,-0.16046,0.28183,0.99317
235.233,29.38093,-0.16615,0.28316,0.99282
235.933,29.44756,-0.17052,0.28502,0.99246
236.633,29.5143,-0.17541,0.28369,0.9921
237.333,29.581,-0.17843,0.28583,0.99174
238.033,29.6478,-0.18335,0.28305,0.99138
238.733,29.71446,-0.18933,0.28421,0.99102
239.433,29.7812,-0.19196,0.28667,0.99066
240.133,29.84784,-0.1947,0.28454,0.9903
240.833,29.9147,-0.19967,0.28485,0.98994
241.533,29.98177,-0.20589,0.28602,0.98958
242.233,30.04839,-0.20911,0.28355,0.98922
242.933,30.11505,-0.21329,0.28133,0.98885
243.633,30.1814,-0.21878,0.28165,0.98849
244.333,30.24823,-0.22467,0.27806,0.98812
245.033,30.31485,-0.22974,0.28098,0.98776
245.733,30.3814,-0.23443,0.2794,0.98739
246.433,30.4478,-0.23895,0.27619,0.98702
247.133,30.51468,-0.24505,0.2767,0.98665
247.833,30.58142,-0.25003,0.27443,0.98629
248.533,30.64852,-0.25352,0.2725,0.98592
249.233,30.7149,-0.26039,0.27213,0.98555
249.933,30.7818,-0.26465,0.27131,0.98518
250.633,30.84863,-0.26968,0.26972,0.98481
251.333,30.91563,-0.27398,0.26791,0.98443
252.033,30.98228,-0.28072,0.26577,0.98406
252.733,31.0488,-0.28556,0.26387,0.98369
253.433,31.11543,-0.29113,0.26117,0.98331
254.133,31.18202,-0.29585,0.26002,0.98294
254.833,31.24853,-0.30229,0.26026,0.98257
255.533,31.3152,-0.30549,0.25786,0.98219
256.233,31.3818,-0.3125,0.25594,0.98181
256.933,31.4485,-0.32043,0.25428,0.98144
257.633,31.51515,-0.3255,0.254,0.98106
258.333,31.58162,-0.33228,0.25316,0.98068
259.033,31.64811,-0.33824,0.25001,0.9803
259.733,31.71462,-0.34205,0.2478,0.97992
260.433,31.7812,-0.34841,0.24385,0.97954
261.133,31.8479,-0.35599,0.24184,0.97916
261.833,31.9146,-0.36213,0.23954,0.97878
262.533,31.98116,-0.36908,0.23888,0.9784
263.233,32.0478,-0.37532,0.23582,0.97801
263.933,32.1143,-0.38143,0.23291,0.97763
264.633,32.18115,-0.38819,0.23235,0.97725
265.333,32.2478,-0.39574,0.2295,0.97686
266.033,32.31476,-0.40366,0.22602,0.97648
266.733,32.38154,-0.41024,0.22382,0.97609
267.433,32.4482,-0.41851,0.22487,0.9757
268.133,32.51511,-0.42642,0.22081,0.97532
268.833,32.58174,-0.43541,0.21687,0.97493
269.533,32.64853,-0.44208,0.21328,0.97454
270.233,32.7154,-0.45222,0.21414,0.97415
270.933,32.78222,-0.45992,0.20962,0.97376
271.633,32.84897,-0.4694,0.2069,0.97337
272.333,32.91571,-0.47795,0.20594,0.97298
273.033,32.98251,-0.48801,0.20172,0.97259
273.733,33.04937,-0.49753,0.20057,0.9722
274.433,33.11588,-0.50651,0.19861,0.9718
275.133,33.18291,-0.51469,0.19147,0.97141
275.833,33.24988,-0.52471,0.18959,0.97102
276.533,33.31708,-0.54103,0.18784,0.97062
277.233,33.38392,-0.55158,0.18751,0.97023
277.933,33.45075,-0.56186,0.18493,0.96983
278.633,33.51777,-0.57442,0.1812,0.96943
279.333,33.5846,-0.58622,0.17775,0.96904
280.033,33.6516,-0.59718,0.17524,0.96864
280.733,33.7185,-0.61013,0.17169,0.96824
281.433,33.78556,-0.62382,0.17213,0.96784
282.133,33.8524,-0.63692,0.16817,0.96744
282.833,33.91932,-0.65125,0.16374,0.96704
283.533,33.98615,-0.66461,0.16287,0.96664
284.233,34.05324,-0.67665,0.15951,0.96624
284.933,34.12016,-0.69108,0.15498,0.96584
285.633,34.18693,-0.70734,0.15406,0.96543
286.333,34.25377,-0.7223,0.14999,0.96503
287.033,34.32067,-0.73726,0.14723,0.96463
287.733,34.38748,-0.75133,0.14498,0.96422
288.433,34.4546,-0.76854,0.14273,0.96382
289.133,34.5217,-0.78474,0.14087,0.96341
289.833,34.58898,-0.80173,0.13805,0.96301
290.533,34.65593,-0.82084,0.1372,0.9626
291.233,34.723,-0.83838,0.13683,0.96219
291.933,34.79,-0.85697,0.13427,0.96178
292.633,34.85686,-0.875,0.12975,0.96138
293.333,34.92364,-0.89302,0.12744,0.96097
294.033,34.99047,-0.91195,0.12765,0.96056
294.733,35.05737,-0.93021,0.12357,0.96015
295.433,35.12445,-0.95078,0.12067,0.95973
296.133,35.19147,-0.97144,0.12153,0.95932
296.833,35.25841,-0.99172,0.11662,0.95891
297.533,35.32519,-1.01225,0.11569,0.9585
298.233,35.39192,-1.03237,0.1151,0.95808
298.933,35.45877,-1.05342,0.11281,0.95767
299.633,35.52531,-1.07442,0.11184,0.95726
300.333,35.59214,-1.09679,0.1042,0.95684
301.033,35.65895,-1.11916,0.10112,0.95643
301.733,35.72591,-1.14305,0.10039,0.95601
302.433,35.79291,-1.16419,0.09833323,0.95559
303.133,35.85983,-1.18565,0.09598389,0.95517
303.833,35.92686,-1.21278,0.09443478,0.95476
304.533,35.99398,-1.2355,0.09080645,0.95434
305.233,36.06092,-1.25815,0.08759836,0.95392
305.933,36.1278,-1.28138,0.08280003,0.9535
306.633,36.19474,-1.30494,0.08153739,0.95308
307.333,36.26187,-1.3298,0.07949635,0.95266
308.033,36.32875,-1.35388,0.07687562,0.95224
308.733,36.39578,-1.37885,0.07428428,0.95181
309.433,36.46278,-1.40377,0.07075832,0.95139
310.133,36.53015,-1.4308,0.06689988,0.95097
310.833,36.59727,-1.45444,0.06292637,0.95054
311.533,36.66452,-1.47861,0.05590045,0.95012
312.233,36.73166,-1.5055,0.05465744,0.9497
312.933,36.79891,-1.53128,0.04749145,0.94927
313.633,36.86615,-1.5551,0.04201085,0.94884
314.333,36.93339,-1.58241,0.03904163,0.94842
315.033,37.00059,-1.60791,0.03380842,0.94799
315.733,37.0676,-1.63386,0.03033976,0.94756
316.433,37.1348,-1.66024,0.02238707,0.94713
317.133,37.2019,-1.68599,0.01875817,0.94671
317.833,37.2691,-1.7112,0.01288853,0.94628
318.533,37.33632,-1.73716,0.005684355,0.94585
319.233,37.40365,-1.76295,-0.002092091,0.94542
319.933,37.47075,-1.78784,-0.009196083,0.94498
320.633,37.5379,-1.81194,-0.01472257,0.94455
321.333,37.60523,-1.83321,-0.02737621,0.94412
322.033,37.67262,-1.86007,-0.02952949,0.94369
322.733,37.7397,-1.88412,-0.03584931,0.94325
323.433,37.80696,-1.90996,-0.04194982,0.94282
324.133,37.87428,-1.93118,-0.04808068,0.94239
324.833,37.94177,-1.95239,-0.0579595,0.94195
325.533,38.00902,-1.9746,-0.06138953,0.94152
326.233,38.0764,-1.996,-0.06872421,0.94108
326.933,38.1439,-2.01474,-0.07347511,0.94064
327.633,38.21134,-2.03452,-0.0766717,0.94021
328.333,38.27851,-2.05434,-0.0794136,0.93977
329.033,38.34572,-2.07367,-0.08197051,0.93933
329.733,38.4127,-2.08913,-0.08061939,0.93889
330.433,38.47998,-2.10421,-0.07822467,0.93845
331.133,38.5473,-2.12061,-0.0764015,0.93801
331.833,38.6151,-2.1327,-0.07354061,0.93757
332.533,38.68224,-2.14636,-0.06953651,0.93713
333.233,38.7496,-2.15965,-0.06308754,0.93669
333.933,38.81671,-2.17082,-0.05723186,0.93625
334.633,38.88471,-2.18167,-0.05290288,0.93581
335.333,38.95213,-2.19068,-0.04948836,0.93536
336.033,39.01975,-2.19929,-0.04296061,0.93492
336.733,39.08708,-2.20699,-0.03764297,0.93447
337.433,39.15465,-2.21513,-0.0341748,0.93403
338.133,39.222,-2.2229,-0.02849943,0.93359
338.833,39.28953,-2.23282,-0.02920616,0.93314
339.533,39.35717,-2.23627,-0.02725682,0.93269
340.233,39.42501,-2.23954,-0.02686468,0.93225
340.933,39.4928,-2.24513,-0.02704113,0.9318
341.633,39.56021,-2.24869,-0.02148101,0.93135
342.333,39.62778,-2.25364,-0.02395563,0.9309
343.033,39.69529,-2.26076,-0.02472879,0.93045
343.733,39.7628,-2.26673,-0.0240372,0.93001
344.433,39.83031,-2.27582,-0.02604823,0.92956
345.133,39.89804,-2.27991,-0.02470926,0.92911
345.833,39.96573,-2.28258,-0.0272131,0.92865
346.533,40.03352,-2.28424,-0.02575088,0.9282
347.233,40.101,-2.28893,-0.02773137,0.92775
347.933,40.16877,-2.29342,-0.03044692,0.9273
348.633,40.23644,-2.29803,-0.030813,0.92685
349.333,40.30418,-2.30202,-0.03270595,0.92639
350.033,40.37153,-2.30539,-0.03163355,0.92594
350.733,40.4391,-2.30934,-0.03041202,0.92548
351.433,40.50667,-2.31321,-0.03294896,0.92503
352.133,40.5747,-2.31557,-0.03451062,0.92457
352.833,40.6426,-2.31898,-0.03420624,0.92412
353.533,40.71043,-2.32403,-0.03497309,0.92366
354.233,40.7778,-2.32814,-0.03600078,0.9232
354.933,40.84561,-2.33134,-0.03616898,0.92275
355.633,40.9133,-2.335,-0.03651032,0.92229
356.333,40.98102,-2.33696,-0.03576674,0.92183
357.033,41.0486,-2.34002,-0.03649116,0.92137
357.733,41.1163,-2.34199,-0.03818098,0.92091
358.433,41.18423,-2.34681,-0.03891757,0.92045
359.133,41.2519,-2.35033,-0.04283195,0.91999
359.833,41.3197,-2.35438,-0.04116287,0.91953
360.533,41.38727,-2.35698,-0.04410985,0.91907
361.233,41.45473,-2.35988,-0.045167,0.91861
361.933,41.52232,-2.36133,-0.04485898,0.91814
362.633,41.59016,-2.36363,-0.04317554,0.91768
363.333,41.65801,-2.36638,-0.04809679,0.91722
364.033,41.7258,-2.36954,-0.04714021,0.91675
364.733,41.79361,-2.37319,-0.04744843,0.91629
365.433,41.86149,-2.37318,-0.04769609,0.91582
366.133,41.9294,-2.37632,-0.0488749,0.91536
366.833,41.99714,-2.38114,-0.04688125,0.91489
367.533,42.06498,-2.38402,-0.05022877,0.91443
368.233,42.13268,-2.38547,-0.05012433,0.91396
368.933,42.20004,-2.38819,-0.0521703,0.91349
369.633,42.26771,-2.39082,-0.05082691,0.91302
370.333,42.3356,-2.39236,-0.05172373,0.91256
371.033,42.40383,-2.39396,-0.05322784,0.91209
371.733,42.47164,-2.3989,-0.05357323,0.91162
372.433,42.5394,-2.40153,-0.0540954,0.91115
373.133,42.60718,-2.40469,-0.05430271,0.91068
373.833,42.67499,-2.40659,-0.05757044,0.91021
374.533,42.7429,-2.40793,-0.05795381,0.90974
375.233,42.81088,-2.40989,-0.05899221,0.90927
375.933,42.8786,-2.41231,-0.05661748,0.90879
376.633,42.94661,-2.41375,-0.05902061,0.90832
377.333,43.01455,-2.41631,-0.05991727,0.90785
378.033,43.0828,-2.41769,-0.05963413,0.90737
378.733,43.1508,-2.42066,-0.06298243,0.9069
379.433,43.21881,-2.42192,-0.06153923,0.90643
380.133,43.28648,-2.42463,-0.06044519,0.90595
380.833,43.3545,-2.42728,-0.06004116,0.90548
381.533,43.42265,-2.42855,-0.06368756,0.905
382.233,43.49087,-2.43317,-0.06279679,0.90452
382.933,43.55891,-2.43612,-0.06110127,0.90405
383.633,43.62697,-2.43607,-0.06106869,0.90357
384.333,43.695,-2.43922,-0.06320346,0.90309
385.033,43.7632,-2.44087,-0.06219831,0.90261
385.733,43.83123,-2.44365,-0.0633499,0.90213
386.433,43.89956,-2.44652,-0.05992604,0.90166
387.133,43.96768,-2.44786,-0.06201348,0.90118
387.833,44.03591,-2.45055,-0.06218875,0.9007
388.533,44.10369,-2.45189,-0.0619816,0.90022
389.233,44.17151,-2.45332,-0.06439309,0.89974
389.933,44.23976,-2.45651,-0.06236906,0.89925
390.633,44.30829,-2.45816,-0.06116922,0.89877
391.333,44.37683,-2.45966,-0.06077831,0.89829
392.033,44.44489,-2.46195,-0.06047937,0.89781
392.733,44.51276,-2.46318,-0.06302346,0.89732
393.433,44.58085,-2.46453,-0.06333101,0.89684
394.133,44.64906,-2.46783,-0.06247267,0.89636
394.833,44.7172,-2.47054,-0.06170214,0.89587
395.533,44.78505,-2.47364,-0.05865885,0.89539
396.233,44.85286,-2.47492,-0.05930549,0.8949
396.933,44.92094,-2.47638,-0.05837079,0.89442
397.633,44.9893,-2.47917,-0.05654804,0.89393
398.333,45.05787,-2.48055,-0.05633859,0.89344
399.033,45.1263,-2.48247,-0.05811907,0.89296
399.733,45.19453,-2.48468,-0.05687686,0.89247
400.433,45.26274,-2.48614,-0.05700283,0.89198
401.133,45.33088,-2.4876,-0.05802251,0.89149
401.833,45.39924,-2.48886,-0.05707196,0.891
402.533,45.46743,-2.48998,-0.05472536,0.89051
403.233,45.5355,-2.49299,-0.05386967,0.89002
403.933,45.60375,-2.4958,-0.05302026,0.88953
404.633,45.67217,-2.49709,-0.05416628,0.88904
405.333,45.74064,-2.49855,-0.05537176,0.88855
406.033,45.80905,-2.50003,-0.05385284,0.88806
406.733,45.87757,-2.50138,-0.05154751,0.88757
407.433,45.94598,-2.50402,-0.05322222,0.88708
408.133,46.01429,-2.50684,-0.05315113,0.88658
408.833,46.08252,-2.50831,-0.05060962,0.88609
409.533,46.15102,-2.50961,-0.04763004,0.8856
410.233,46.21922,-2.51001,-0.04906295,0.8851
410.933,46.28752,-2.51213,-0.04831762,0.88461
411.633,46.35567,-2.5146,-0.04590204,0.88411
412.333,46.4238,-2.51585,-0.04647874,0.88362
413.033,46.49207,-2.51725,-0.04646026,0.88312
413.733,46.56043,-2.51862,-0.04421395,0.88263
414.433,46.62896,-2.52126,-0.04161466,0.88213
415.133,46.69747,-2.52246,-0.03998947,0.88163
415.833,46.76576,-2.52481,-0.0395425,0.88114
416.533,46.83408,-2.52659,-0.04049344,0.88064
417.233,46.90253,-2.52783,-0.03875888,0.88014
417.933,46.9709,-2.5302,-0.04006942,0.87964
418.633,47.03946,-2.53221,-0.03891419,0.87914
419.333,47.10764,-2.5343,-0.03991978,0.87864
420.033,47.17622,-2.53586,-0.04112211,0.87814
420.733,47.24465,-2.53715,-0.04225305,0.87764
421.433,47.3131,-2.53779,-0.03632617,0.87714
422.133,47.38111,-2.54058,-0.03742666,0.87664
422.833,47.44944,-2.54186,-0.03667689,0.87614
423.533,47.51798,-2.54434,-0.03471421,0.87564
424.233,47.5868,-2.54579,-0.03372757,0.87514
424.933,47.65537,-2.54716,-0.03280805,0.87463
425.633,47.72408,-2.54919,-0.03076294,0.87413
426.333,47.7928,-2.55031,-0.03286566,0.87363
427.033,47.86157,-2.55141,-0.03062609,0.87312
427.733,47.92987,-2.55347,-0.03260535,0.87262
428.433,47.99848,-2.55654,-0.02846593,0.87211
429.133,48.06697,-2.55669,-0.02944162,0.87161
429.833,48.1358,-2.55914,-0.02988044,0.8711
430.533,48.20433,-2.55964,-0.03198853,0.8706
431.233,48.27297,-2.56136,-0.02928247,0.87009
431.933,48.34165,-2.56288,-0.02740484,0.86959
432.633,48.4103,-2.56413,-0.02628011,0.86908
433.333,48.47906,-2.56646,-0.02509213,0.86857
434.033,48.54787,-2.56818,-0.02736327,0.86806
434.733,48.61653,-2.56958,-0.02689587,0.86756
435.433,48.68517,-2.57111,-0.02832465,0.86705
436.133,48.75373,-2.57275,-0.02824398,0.86654
436.833,48.8224,-2.5742,-0.02816128,0.86603
437.533,48.8913,-2.57551,-0.02634231,0.86552
438.233,48.95985,-2.57674,-0.02259043,0.86501
438.933,49.02861,-2.57707,-0.02777125,0.8645
439.633,49.09726,-2.57966,-0.02554559,0.86399
440.333,49.1661,-2.58172,-0.02466428,0.86348
441.033,49.23492,-2.58305,-0.02423456,0.86296
441.733,49.3034,-2.58441,-0.02328056,0.86245
442.433,49.37195,-2.58574,-0.02300848,0.86194
443.133,49.4405,-2.58705,-0.02228551,0.86143
443.833,49.50947,-2.58701,-0.02144128,0.86091
444.533,49.57842,-2.58905,-0.0219241,0.8604
445.233,49.64737,-2.59034,-0.02058446,0.85989
445.933,49.7162,-2.59165,-0.02004119,0.85937
446.633,49.78478,-2.59322,-0.02107986,0.85886
447.333,49.8533,-2.59426,-0.01724121,0.85834
448.033,49.92201,-2.59703,-0.01957934,0.85783
448.733,49.99071,-2.59594,-0.01612561,0.85731
449.433,50.05975,-2.59889,-0.01772176,0.8568
450.133,50.12875,-2.60022,-0.01534215,0.85628
450.833,50.19742,-2.60154,-0.01470111,0.85576
451.533,50.2662,-2.60285,-0.0141074,0.85525
452.233,50.3348,-2.60588,-0.01498877,0.85473
452.933,50.40367,-2.60755,-0.01475334,0.85421
453.633,50.47218,-2.60773,-0.01535847,0.85369
454.333,50.54083,-2.60887,-0.0131032,0.85317
455.033,50.60952,-2.61019,-0.01317564,0.85266
455.733,50.6783,-2.60914,-0.01266422,0.85214
456.433,50.74705,-2.61067,-0.01417497,0.85162
457.133,50.8159,-2.61185,-0.01559223,0.8511
457.833,50.88472,-2.6144,-0.0154079,0.85058
458.533,50.95349,-2.6162,-0.01331415,0.85006
459.233,51.02225,-2.62,-0.01570875,0.84953
459.933,51.09102,-2.61991,-0.01691242,0.84901
460.633,51.15981,-2.62116,-0.01631762,0.84849
461.333,51.22854,-2.62248,-0.01677959,0.84797
462.033,51.29708,-2.62248,-0.01519784,0.84745
462.733,51.36562,-2.62377,-0.01504833,0.84692
463.433,51.4341,-2.62512,-0.01679457,0.8464
464.133,51.50294,-2.62642,-0.0172355,0.84588
464.833,51.5719,-2.62773,-0.01680314,0.84535
465.533,51.6408,-2.6278,-0.01772552,0.84483
466.233,51.7091,-2.63061,-0.01565754,0.8443
466.933,51.77786,-2.63182,-0.01558614,0.84378
467.633,51.84657,-2.63191,-0.01773014,0.84325
468.333,51.9157,-2.63191,-0.01456723,0.84273
469.033,51.98445,-2.6335,-0.01535438,0.8422
469.733,52.05338,-2.63515,-0.01878495,0.84168
470.433,52.12265,-2.63707,-0.01885781,0.84115
471.133,52.19169,-2.63886,-0.01759463,0.84062
471.833,52.2607,-2.63881,-0.0202388,0.8401
472.533,52.3295,-2.64014,-0.01985989,0.83957
473.233,52.39855,-2.64157,-0.01895941,0.83904
473.933,52.46751,-2.64288,-0.01993649,0.83851
474.633,52.5365,-2.64403,-0.01798071,0.83798
475.333,52.60541,-2.64559,-0.01842775,0.83745
476.033,52.6744,-2.6463,-0.01806751,0.83693
476.733,52.74351,-2.64683,-0.01763277,0.8364
477.433,52.8122,-2.64815,-0.01939117,0.83587
478.133,52.8809,-2.6492,-0.01984475,0.83534
478.833,52.94979,-2.65078,-0.02003678,0.83481
479.533,53.01905,-2.65203,-0.01858145,0.83427
480.233,53.0884,-2.65211,-0.01796185,0.83374
480.933,53.15749,-2.65267,-0.01749546,0.83321
481.633,53.22642,-2.65373,-0.01958245,0.83268
482.333,53.29532,-2.65485,-0.0198526,0.83215
483.033,53.36419,-2.65618,-0.01842693,0.83162
483.733,53.43328,-2.65758,-0.01866526,0.83108
484.433,53.502,-2.65942,-0.0201198,0.83055
485.133,53.57107,-2.66155,-0.01818239,0.83002
485.833,53.63992,-2.66218,-0.01784115,0.82948
486.533,53.70915,-2.66218,-0.01661444,0.82895
487.233,53.7784,-2.66281,-0.01916382,0.82841
487.933,53.84779,-2.66497,-0.01526929,0.82788
488.633,53.917,-2.66515,-0.01010572,0.82734
489.333,53.98614,-2.66525,-0.008609775,0.82681
490.033,54.05516,-2.66646,-0.009986728,0.82627
490.733,54.12435,-2.66788,-0.01068239,0.82574
491.433,54.19324,-2.66916,-0.004941113,0.8252
492.133,54.2623,-2.66779,-0.0040172,0.82466
492.833,54.3311,-2.66909,-0.007414331,0.82413
493.533,54.40035,-2.67045,-0.00532869,0.82359
494.233,54.4696,-2.67404,-0.00390755,0.82305
494.933,54.53881,-2.67403,-0.0008684976,0.82252
495.633,54.60814,-2.67501,0.002150589,0.82198
496.333,54.6774,-2.67403,0.00403335,0.82144
497.033,54.7469,-2.67534,0.007012,0.8209
497.733,54.8162,-2.67667,0.007188349,0.82036
498.433,54.8853,-2.6767,0.01119173,0.81982
499.133,54.9545,-2.6779,0.01091096,0.81928
499.833,55.0238,-2.67931,0.01386939,0.81874
500.533,55.0932,-2.6806,0.01263793,0.8182
501.233,55.16248,-2.68072,0.01341237,0.81766
501.933,55.2318,-2.68195,0.01444441,0.81712
502.633,55.3009,-2.68258,0.01477952,0.81658
503.333,55.37027,-2.6839,0.01875762,0.81604
504.033,55.43951,-2.68522,0.01672504,0.8155
504.733,55.5092,-2.68654,0.018466,0.81496
505.433,55.5786,-2.68753,0.02100714,0.81441
506.133,55.6479,-2.68921,0.01985432,0.81387
506.833,55.7172,-2.68785,0.01975262,0.81333
507.533,55.78641,-2.68917,0.02221203,0.81279
508.233,55.85575,-2.69048,0.02125452,0.81224
508.933,55.92524,-2.69114,0.02043106,0.8117
509.633,55.9948,-2.69114,0.0187641,0.81115
510.333,56.0643,-2.69246,0.01697112,0.81061
511.033,56.13361,-2.69247,0.01688193,0.81007
511.733,56.20292,-2.69345,0.01505155,0.80952
512.433,56.2722,-2.69345,0.01571076,0.80898
513.133,56.3417,-2.69376,0.01556906,0.80843
513.833,56.4111,-2.69508,0.0123241,0.80789
514.533,56.48036,-2.6951,0.01456738,0.80734
515.233,56.54974,-2.69641,0.01258751,0.80679
515.933,56.61922,-2.6964,0.01166021,0.80625
516.633,56.6888,-2.69763,0.0126011,0.8057
517.333,56.75815,-2.69903,0.01539401,0.80515
518.033,56.82761,-2.69904,0.01395573,0.80461
518.733,56.897,-2.69904,0.01312394,0.80406
519.433,56.9666,-2.70036,0.01315998,0.80351
520.133,57.03589,-2.70036,0.01294534,0.80296
520.833,57.10552,-2.70037,0.01128711,0.80242
521.533,57.17496,-2.70132,0.01406164,0.80187
522.233,57.24442,-2.70266,0.01185508,0.80132
522.933,57.31366,-2.70397,0.01026736,0.80077
523.633,57.3828,-2.70397,0.01210613,0.80022
524.333,57.4519,-2.70397,0.01204976,0.79967
525.033,57.52115,-2.70606,0.0115054,0.79912
525.733,57.5908,-2.70827,0.008670403,0.79857
526.433,57.66053,-2.70928,0.0121132,0.79802
527.133,57.72993,-2.70957,0.009878887,0.79747
527.833,57.79926,-2.70957,0.009504365,0.79692
528.533,57.8683,-2.7104,0.0118173,0.79637
529.233,57.93761,-2.71088,0.00993659,0.79582
529.933,58.00695,-2.71223,0.00709196,0.79526
530.633,58.0763,-2.7121,0.006464585,0.79471
531.333,58.14591,-2.71222,0.003036038,0.79416
532.033,58.2156,-2.71356,-0.0001576633,0.79361
532.733,58.28558,-2.71347,-0.005426022,0.79305
533.433,58.35507,-2.71483,-0.007244198,0.7925
534.133,58.4243,-2.71612,-0.00713005,0.79195
534.833,58.49361,-2.71608,-0.007609483,0.7914
535.533,58.56296,-2.71747,-0.00949578,0.79084
536.233,58.63207,-2.71741,-0.01071432,0.79029
536.933,58.70151,-2.71715,-0.01371773,0.78973
537.633,58.77089,-2.71845,-0.01230021,0.78918
538.333,58.8407,-2.71845,-0.01205851,0.78862
539.033,58.90994,-2.71977,-0.01292846,0.78807
539.733,58.9793,-2.71977,-0.01279343,0.78751
540.433,59.04869,-2.71977,-0.0129796,0.78696
541.133,59.11821,-2.72054,-0.01622449,0.7864
541.833,59.18759,-2.72043,-0.01603524,0.78585
542.533,59.25719,-2.72174,-0.01503305,0.78529
543.233,59.3268,-2.72306,-0.01903114,0.78474
543.933,59.39656,-2.72306,-0.01923948,0.78418
544.633,59.46605,-2.72304,-0.01986791,0.78362
545.333,59.5357,-2.7224,-0.02077703,0.78307
546.033,59.60521,-2.72269,-0.01644631,0.78251
546.733,59.6747,-2.72546,-0.01926865,0.78195
547.433,59.74434,-2.72662,-0.01959098,0.78139
548.133,59.814,-2.72567,-0.02123288,0.78083
548.833,59.8839,-2.72575,-0.01760557,0.78028
549.533,59.9535,-2.72723,-0.02003884,0.77972
550.233,60.0232,-2.72592,-0.01682464,0.77916
550.933,60.09284,-2.72591,-0.01938917,0.7786
551.633,60.16262,-2.72732,-0.02017437,0.77804
552.333,60.2324,-2.72822,-0.01863244,0.77748
553.033,60.3022,-2.73034,-0.01725433,0.77692
553.733,60.37211,-2.73193,-0.01939492,0.77636
554.433,60.44209,-2.73195,-0.01857221,0.7758
555.133,60.5122,-2.73258,-0.01831094,0.77524
555.833,60.58214,-2.73259,-0.01530571,0.77468
556.533,60.6518,-2.73161,-0.0169516,0.77412
557.233,60.7216,-2.73161,-0.01296393,0.77356
557.933,60.7914,-2.73161,-0.01553992,0.773
558.633,60.8614,-2.73293,-0.01835534,0.77244
559.333,60.93139,-2.73423,-0.01699574,0.77188
560.033,61.0016,-2.73556,-0.01390399,0.77132
560.733,61.0717,-2.73688,-0.01432828,0.77075
561.433,61.14164,-2.73788,-0.01558108,0.77019
562.133,61.2115,-2.73885,-0.01471996,0.76963
562.833,61.2814,-2.73754,-0.01457797,0.76907
563.533,61.35134,-2.73754,-0.01169288,0.7685
564.233,61.42125,-2.73624,-0.01253747,0.76794
564.933,61.491,-2.7349,-0.01733166,0.76738
565.633,61.5608,-2.73493,-0.01900813,0.76681
566.333,61.6304,-2.73622,-0.01880372,0.76625
567.033,61.69999,-2.73776,-0.01455859,0.76569
567.733,61.7696,-2.73907,-0.01549465,0.76512
568.433,61.83948,-2.74039,-0.01804618,0.76456
569.133,61.90935,-2.74139,-0.01845267,0.76399
569.833,61.97903,-2.74133,-0.02050032,0.76343
570.533,62.04899,-2.74237,-0.02236479,0.76286
571.233,62.11897,-2.74237,-0.02243197,0.7623
571.933,62.1888,-2.74237,-0.01983166,0.76173
572.633,62.2584,-2.74235,-0.02376281,0.76117
573.333,62.32838,-2.74397,-0.02278177,0.7606
574.033,62.3988,-2.74405,-0.02172611,0.76004
574.733,62.4686,-2.74401,-0.02438966,0.75947
575.433,62.53827,-2.74401,-0.02647843,0.75891
576.133,62.6083,-2.74532,-0.02417347,0.75834
576.833,62.67895,-2.74662,-0.02712581,0.75777
577.533,62.7496,-2.74796,-0.02586419,0.75721
578.233,62.81975,-2.74796,-0.02866347,0.75664
578.933,62.88964,-2.7476,-0.02651208,0.75607
579.633,62.9596,-2.74796,-0.02506824,0.7555
580.333,63.02966,-2.74796,-0.02853492,0.75494
581.033,63.0997,-2.74797,-0.02875533,0.75437
581.733,63.1697,-2.74796,-0.02783677,0.7538
582.433,63.2398,-2.74927,-0.02936201,0.75323
583.133,63.31001,-2.74993,-0.0280868,0.75266
583.833,63.3801,-2.75059,-0.03040279,0.7521
584.533,63.45013,-2.75059,-0.03246732,0.75153
585.233,63.51985,-2.75059,-0.02870041,0.75096
585.933,63.5901,-2.75059,-0.03127893,0.75039
586.633,63.66044,-2.75059,-0.03213153,0.74982
587.333,63.73109,-2.75191,-0.02843187,0.74925
588.033,63.80105,-2.75191,-0.03059894,0.74868
588.733,63.87096,-2.75324,-0.03198045,0.74811
589.433,63.9409,-2.75322,-0.03175451,0.74754
590.133,64.01094,-2.75454,-0.03115202,0.74697
590.833,64.0808,-2.75454,-0.03375028,0.7464
591.533,64.1507,-2.75454,-0.03408073,0.74583
592.233,64.22078,-2.75454,-0.0342135,0.74526
592.933,64.29091,-2.75454,-0.03586159,0.74469
593.633,64.36126,-2.75454,-0.03381636,0.74412
594.333,64.43134,-2.75358,-0.03288993,0.74355
595.033,64.50131,-2.75486,-0.03131717,0.74298
595.733,64.57114,-2.75486,-0.03647835,0.74241
596.433,64.64095,-2.75682,-0.03784347,0.74183
597.133,64.7111,-2.75816,-0.03509018,0.74126
597.833,64.78115,-2.75685,-0.03617803,0.74069
598.533,64.85127,-2.75685,-0.03456138,0.74012
599.233,64.92138,-2.75685,-0.03567383,0.73955
599.933,64.99176,-2.75685,-0.03832315,0.73897
600.633,65.06204,-2.75685,-0.03975425,0.7384
601.333,65.13234,-2.75655,-0.04096417,0.73783
602.033,65.20228,-2.75722,-0.03885821,0.73726
602.733,65.27235,-2.75682,-0.04014689,0.73668
603.433,65.3425,-2.75685,-0.03753567,0.73611
604.133,65.41253,-2.75652,-0.03841649,0.73554
604.833,65.48262,-2.75851,-0.03750541,0.73496
605.533,65.55264,-2.75916,-0.03956142,0.73439
606.233,65.62271,-2.75948,-0.04235496,0.73381
606.933,65.69296,-2.75816,-0.0413767,0.73324
607.633,65.76301,-2.75816,-0.0443976,0.73267
608.333,65.83329,-2.75948,-0.04469245,0.73209
609.033,65.9034,-2.75949,-0.04358812,0.73152
609.733,65.97364,-2.76063,-0.04450933,0.73094
610.433,66.04385,-2.75943,-0.0434732,0.73037
611.133,66.11405,-2.76155,-0.0411636,0.72979
611.833,66.18437,-2.76211,-0.04516088,0.72922
612.533,66.2547,-2.76211,-0.04304519,0.72864
613.233,66.3249,-2.76211,-0.04566635,0.72807
613.933,66.3951,-2.76212,-0.04539792,0.72749
614.633,66.46548,-2.76343,-0.04867501,0.72692
615.333,66.53581,-2.76337,-0.04843228,0.72634
616.033,66.60619,-2.76441,-0.04551979,0.72577
616.733,66.67636,-2.76511,-0.04844674,0.72519
617.433,66.74662,-2.76596,-0.04816723,0.72461
618.133,66.81661,-2.76737,-0.04643773,0.72404
618.833,66.88676,-2.7645,-0.04773368,0.72346
619.533,66.95695,-2.76761,-0.04745235,0.72288
620.233,67.02713,-2.76849,-0.04939364,0.72231
620.933,67.09742,-2.7676,-0.05016058,0.72173
621.633,67.16768,-2.76891,-0.05053896,0.72115
622.333,67.23804,-2.76842,-0.05249865,0.72058
623.033,67.3082,-2.7676,-0.04920103,0.72
623.733,67.3783,-2.76793,-0.05136492,0.71942
624.433,67.44853,-2.76793,-0.05441223,0.71884
625.133,67.5189,-2.76726,-0.05316034,0.71827
625.833,67.58935,-2.76826,-0.05034519,0.71769
626.533,67.65972,-2.76825,-0.05220443,0.71711
627.233,67.73015,-2.76957,-0.04986525,0.71653
627.933,67.80066,-2.76957,-0.04972049,0.71595
628.633,67.87114,-2.76957,-0.05199448,0.71538
629.333,67.94155,-2.76957,-0.05526867,0.7148
630.033,68.01179,-2.76957,-0.05614704,0.71422
630.733,68.08227,-2.7709,-0.05864355,0.71364
631.433,68.15255,-2.77225,-0.05531255,0.71306
632.133,68.22284,-2.7722,-0.05869442,0.71248
632.833,68.29297,-2.77089,-0.05688005,0.7119
633.533,68.36326,-2.7722,-0.05924643,0.71132
634.233,68.4336,-2.7722,-0.06146938,0.71074
634.933,68.50406,-2.77216,-0.05878232,0.71017
635.633,68.57423,-2.76957,-0.05911254,0.70959
636.333,68.64455,-2.77218,-0.06047452,0.70901
637.033,68.71499,-2.7722,-0.0618002,0.70843
637.733,68.78562,-2.7722,-0.06263302,0.70785
638.433,68.85624,-2.7722,-0.06224689,0.70727
639.133,68.92666,-2.7722,-0.06192306,0.70669
639.833,68.99715,-2.77352,-0.06100259,0.70611
640.533,69.06766,-2.77352,-0.06158669,0.70553
641.233,69.13832,-2.77435,-0.06178881,0.70495
641.933,69.20881,-2.77483,-0.06323877,0.70437
642.633,69.27933,-2.77543,-0.06197686,0.70378
643.333,69.34951,-2.77615,-0.06374818,0.7032
644.033,69.42,-2.77462,-0.0629078,0.70262
644.733,69.49046,-2.77727,-0.0637718,0.70204
645.433,69.56104,-2.77766,-0.06352592,0.70146
646.133,69.63123,-2.77856,-0.06426884,0.70088
646.833,69.70138,-2.77858,-0.0613842,0.7003
647.533,69.77155,-2.77856,-0.062443,0.69972
648.233,69.84184,-2.77725,-0.06263938,0.69914
648.933,69.91232,-2.77725,-0.0628464,0.69855
649.633,69.98284,-2.77857,-0.06540298,0.69797
650.333,70.05314,-2.77714,-0.06545321,0.69739
651.033,70.12361,-2.77856,-0.069028,0.69681
651.733,70.1938,-2.77856,-0.06734006,0.69623
652.433,70.26425,-2.77756,-0.06579771,0.69565
653.133,70.33434,-2.77725,-0.0680023,0.69506
653.833,70.40476,-2.77725,-0.06966855,0.69448
654.533,70.47527,-2.77825,-0.06794467,0.6939
655.233,70.54559,-2.77856,-0.07059921,0.69332
655.933,70.61579,-2.7785,-0.06895236,0.69273
656.633,70.6859,-2.77922,-0.06579987,0.69215
657.333,70.7565,-2.77922,-0.0668175,0.69157
658.033,70.82711,-2.77922,-0.06831836,0.69099
658.733,70.8977,-2.77791,-0.06609536,0.6904
659.433,70.9683,-2.77791,-0.06865333,0.68982
660.133,71.0388,-2.77922,-0.07271737,0.68924
660.833,71.10944,-2.77922,-0.07109679,0.68865
661.533,71.17985,-2.78053,-0.06671404,0.68807
662.233,71.25025,-2.78053,-0.07229099,0.68749
662.933,71.3207,-2.78185,-0.0681346,0.6869
663.633,71.3912,-2.78234,-0.06501637,0.68632
664.333,71.4619,-2.78448,-0.06925363,0.68574
665.033,71.53236,-2.7835,-0.07124268,0.68515
665.733,71.6028,-2.7835,-0.07091572,0.68457
666.433,71.67319,-2.78417,-0.06854865,0.68399
667.133,71.74382,-2.7835,-0.06809634,0.6834
667.833,71.81396,-2.78415,-0.0703233,0.68282
668.533,71.88393,-2.78415,-0.06886858,0.68223
669.233,71.9542,-2.78282,-0.06985029,0.68165
669.933,72.02481,-2.78195,-0.06974316,0.68107
670.633,72.0955,-2.78317,-0.07243045,0.68048
671.333,72.1656,-2.78317,-0.07155781,0.6799
672.033,72.2359,-2.78317,-0.07493474,0.67931
672.733,72.30643,-2.78316,-0.07522667,0.67873
673.433,72.37696,-2.78284,-0.07482595,0.67814
674.133,72.4474,-2.78414,-0.07424591,0.67756
674.833,72.5177,-2.78416,-0.07182215,0.67697
675.533,72.58794,-2.78416,-0.07149831,0.67639
676.233,72.6583,-2.78546,-0.06959906,0.6758
676.933,72.72892,-2.78551,-0.07034401,0.67522
677.633,72.79946,-2.78481,-0.07030593,0.67464
678.333,72.86998,-2.78613,-0.06928605,0.67405
679.033,72.94049,-2.78613,-0.0659338,0.67347
679.733,73.01098,-2.7865,-0.06674424,0.67288
680.433,73.0814,-2.78613,-0.07012024,0.67229
681.133,73.15186,-2.78613,-0.06838169,0.67171
681.833,73.22233,-2.78613,-0.06783535,0.67112
682.533,73.2928,-2.78481,-0.06687149,0.67054
683.233,73.36314,-2.78685,-0.06875071,0.66995
683.933,73.4336,-2.78745,-0.06954872,0.66937
684.633,73.50408,-2.78745,-0.06837479,0.66878
685.333,73.5746,-2.78745,-0.06724182,0.6682
686.033,73.64486,-2.78604,-0.06919875,0.66761
686.733,73.71507,-2.78514,-0.06810662,0.66703
687.433,73.78522,-2.7864,-0.06918153,0.66644
688.133,73.85539,-2.78646,-0.06709898,0.66585
688.833,73.9259,-2.78778,-0.0685743,0.66527
689.533,73.99667,-2.78777,-0.06539055,0.66468
690.233,74.06765,-2.7904,-0.06575918,0.6641
690.933,74.13802,-2.79174,-0.06647914,0.66351
691.633,74.20834,-2.79107,-0.06621277,0.66292
692.333,74.2786,-2.79041,-0.0672807,0.66234
693.033,74.34926,-2.79041,-0.06867043,0.66175
693.733,74.4197,-2.79041,-0.0697413,0.66117
694.433,74.49019,-2.79139,-0.0668961,0.66058
695.133,74.56067,-2.7901,-0.06739913,0.65999
695.833,74.63122,-2.79046,-0.069001,0.65941
696.533,74.7016,-2.79271,-0.06792013,0.65882
697.233,74.77195,-2.79271,-0.07142589,0.65823
697.933,74.84231,-2.79271,-0.07089518,0.65765
698.633,74.91257,-2.79304,-0.06812198,0.65706
699.333,74.98298,-2.79367,-0.07115306,0.65648
700.033,75.0534,-2.79436,-0.07379193,0.65589
700.733,75.12416,-2.79305,-0.06912439,0.6553
701.433,75.19494,-2.79305,-0.06722395,0.65472
702.133,75.26573,-2.79436,-0.07249137,0.65413
702.833,75.33638,-2.79437,-0.07037317,0.65354
703.533,75.40683,-2.79305,-0.07230028,0.65296
704.233,75.47756,-2.79305,-0.07027346,0.65237
704.933,75.54845,-2.79443,-0.07081226,0.65178
705.633,75.6195,-2.79366,-0.07482057,0.6512
706.333,75.69009,-2.79436,-0.07210762,0.65061
707.033,75.76095,-2.79469,-0.07569045,0.65002
707.733,75.8318,-2.79336,-0.07586381,0.64943
708.433,75.90281,-2.79337,-0.07739163,0.64885
709.133,75.97358,-2.79337,-0.07708367,0.64826
709.833,76.04436,-2.79436,-0.07685734,0.64767
710.533,76.11545,-2.79436,-0.08175868,0.64709
711.233,76.18638,-2.79582,-0.07893002,0.6465
711.933,76.25726,-2.79667,-0.07934715,0.64591
712.633,76.32816,-2.79568,-0.08279979,0.64533
713.333,76.3989,-2.79602,-0.08283134,0.64474
714.033,76.46977,-2.79601,-0.08143548,0.64415
714.733,76.5401,-2.79601,-0.08034827,0.64356
715.433,76.61095,-2.79601,-0.07969689,0.64298
716.133,76.6815,-2.79502,-0.08068381,0.64239
716.833,76.75237,-2.79632,-0.08127422,0.6418
717.533,76.8231,-2.79629,-0.08131289,0.64122
718.233,76.8938,-2.79896,-0.07766259,0.64063
718.933,76.96441,-2.79896,-0.08036692,0.64004
719.633,77.035,-2.7987,-0.08044118,0.63945
720.333,77.10595,-2.79629,-0.08110798,0.63887
721.033,77.17712,-2.79501,-0.08115747,0.63828
721.733,77.24786,-2.79632,-0.08395033,0.63769
722.433,77.31857,-2.79568,-0.08218197,0.6371
723.133,77.38927,-2.79568,-0.07875075,0.63652
723.833,77.46016,-2.796,-0.0831438,0.63593
724.533,77.53102,-2.7964,-0.0830739,0.63534
725.233,77.60174,-2.79731,-0.0837343,0.63476
725.933,77.6724,-2.79797,-0.08401588,0.63417
726.633,77.743,-2.7983,-0.08639694,0.63358
727.333,77.81376,-2.79963,-0.08197975,0.63299
728.033,77.8844,-2.79962,-0.08199323,0.63241
728.733,77.95509,-2.80099,-0.08609369,0.63182
729.433,78.02586,-2.80094,-0.09009245,0.63123
730.133,78.09695,-2.80193,-0.08883082,0.63064
730.833,78.16781,-2.80193,-0.08820791,0.63006
731.533,78.2389,-2.80073,-0.09051499,0.62947
732.233,78.30965,-2.80073,-0.08408477,0.62888
732.933,78.38061,-2.80116,-0.08837234,0.62829
733.633,78.45144,-2.80214,-0.08632341,0.62771
734.333,78.52243,-2.80214,-0.0886558,0.62712
735.033,78.59352,-2.80236,-0.09008299,0.62653
735.733,78.66456,-2.80148,-0.08974952,0.62594
736.433,78.73564,-2.80148,-0.08719976,0.62536
737.133,78.80646,-2.8028,-0.08417951,0.62477
737.833,78.87719,-2.80329,-0.09143034,0.62418
738.533,78.94795,-2.80214,-0.08989118,0.6236
739.233,79.01905,-2.80304,-0.09283306,0.62301
739.933,79.09002,-2.80346,-0.09231317,0.62242
740.633,79.16088,-2.8055,-0.09202939,0.62183
741.333,79.23183,-2.80608,-0.09297046,0.62125
742.033,79.30265,-2.80477,-0.09679204,0.62066
742.733,79.37345,-2.80477,-0.09338457,0.62007
743.433,79.4439,-2.80345,-0.09118025,0.61948
744.133,79.51465,-2.80346,-0.09343487,0.6189
744.833,79.58551,-2.80206,-0.09350923,0.61831
745.533,79.6565,-2.80214,-0.09080295,0.61772
746.233,79.72709,-2.80214,-0.08932705,0.61714
746.933,79.79791,-2.80346,-0.08897072,0.61655
747.633,79.86877,-2.80478,-0.09264556,0.61596
748.333,79.93975,-2.80478,-0.08997401,0.61537
748.833,79.9902,-2.80478,-0.08972791,0.61495