File: 01_Data/Straw/STA/N2/10K_min/Straw_STA_N2_10KData_220429_R2.csv
##Temp./Â°C,Time/min,Mass loss(subtr.2)/mg,DSC(subtr.2)/(mW/mg),Sensit./(uV/mW)
49.763,10.00917,0.00823,0.00213688,1.06051
50.463,10.7712,0.01103186,0.03375608,1.06036
51.163,10.9743,0.01037266,0.05741438,1.06022
51.863,11.1275,0.01090078,0.07833137,1.06007
52.563,11.25676,0.00904736,0.0951349,1.05992
53.263,11.37089,0.00993755,0.10887,1.05978
53.963,11.47684,0.01009429,0.11878,1.05963
54.663,11.57623,0.00962915,0.13119,1.05948
55.363,11.67041,0.01000603,0.14102,1.05933
56.063,11.76164,0.01071482,0.14731,1.05918
56.763,11.85065,0.01040482,0.15529,1.05903
57.463,11.93699,0.01031437,0.16525,1.05887
58.163,12.02095,0.009726659,0.16956,1.05872
58.863,12.10295,0.00984705,0.1752,1.05856
59.563,12.18425,0.0115242,0.18025,1.05841
60.263,12.26464,0.01007373,0.18494,1.05825
60.963,12.34397,0.01100044,0.18955,1.05809
61.663,12.42249,0.01003821,0.19306,1.05793
62.363,12.50061,0.0113557,0.19816,1.05778
63.063,12.57813,0.01002568,0.20243,1.05761
63.763,12.65545,0.009871182,0.20543,1.05745
64.463,12.73215,0.00988718,0.21049,1.05729
65.163,12.80824,0.00855457,0.2118,1.05713
65.863,12.88418,0.008501173,0.21483,1.05696
66.563,12.9597,0.00879631,0.21873,1.0568
67.263,13.03495,0.01008049,0.22166,1.05663
67.963,13.11015,0.01108003,0.22436,1.05647
68.663,13.1854,0.01107764,0.2281,1.0563
69.363,13.26038,0.009836229,0.23212,1.05613
70.063,13.3345,0.008496462,0.23292,1.05596
70.763,13.40901,0.007794287,0.23629,1.05579
71.463,13.4836,0.008437754,0.23831,1.05562
72.163,13.55804,0.007078859,0.24315,1.05545
72.863,13.6318,0.008326941,0.24349,1.05528
73.563,13.70546,0.008519028,0.24713,1.0551
74.263,13.77914,0.00845,0.25062,1.05493
74.963,13.85237,0.008450641,0.25253,1.05475
75.663,13.92566,0.009767008,0.25335,1.05458
76.363,13.99891,0.008449735,0.25644,1.0544
77.063,14.072,0.00844658,0.2599,1.05422
77.763,14.1448,0.00750599,0.26304,1.05404
78.463,14.2176,0.007923075,0.26684,1.05386
79.163,14.28987,0.00713085,0.26817,1.05368
79.863,14.3622,0.005809401,0.27245,1.0535
80.563,14.4342,0.003703526,0.27475,1.05331
81.263,14.5063,0.00437553,0.27483,1.05313
81.963,14.57814,0.0058088,0.27677,1.05295
82.663,14.6495,0.00448884,0.28197,1.05276
83.363,14.72085,0.003058303,0.28247,1.05257
84.063,14.7921,0.0005433484,0.28375,1.05239
84.763,14.86343,0.000851019,0.28855,1.0522
85.463,14.9343,0.001970377,0.28489,1.05201
86.163,15.0052,0.001971279,0.28763,1.05182
86.863,15.07591,0.0045997,0.28918,1.05163
87.563,15.1465,0.00329041,0.28961,1.05144
88.263,15.217,0.001980651,0.2897,1.05125
88.963,15.28752,0.001665436,0.29255,1.05105
89.663,15.35759,0.000314345,0.29112,1.05086
90.363,15.42775,0.0006694557,0.29153,1.05066
91.063,15.4978,-1.86334e-05,0.29232,1.05047
91.763,15.567,2.999989e-09,0.29139,1.05027
92.463,15.63685,1.13833e-07,0.29181,1.05007
93.163,15.7065,-0.000673817,0.29135,1.04988
93.863,15.77689,-0.00278424,0.29302,1.04968
94.563,15.84631,-0.002096079,0.28965,1.04948
95.263,15.9156,-0.002981943,0.28868,1.04927
95.963,15.9848,-0.004387984,0.28965,1.04907
96.663,16.05357,-0.004610884,0.2898,1.04887
97.363,16.12261,-0.005909219,0.2877,1.04867
98.063,16.19164,-0.004596661,0.28715,1.04846
98.763,16.26079,-0.00460001,0.28413,1.04826
99.463,16.32989,-0.00325373,0.28482,1.04805
100.163,16.3989,-0.00327528,0.28242,1.04784
100.863,16.46794,-0.004609711,0.27935,1.04763
101.563,16.53664,-0.00593683,0.28228,1.04743
102.263,16.60555,-0.004593323,0.27852,1.04722
102.963,16.67434,-0.00324794,0.27744,1.047
103.663,16.74326,-0.00476868,0.27616,1.04679
104.363,16.8119,-0.004621452,0.27481,1.04658
105.063,16.88062,-0.00470996,0.27598,1.04637
105.763,16.94908,-0.00471,0.27584,1.04615
106.463,17.01752,-0.004719867,0.27253,1.04594
107.163,17.08601,-0.00603439,0.271,1.04572
107.863,17.15484,-0.005381187,0.26857,1.04551
108.563,17.22328,-0.005380456,0.26665,1.04529
109.263,17.29182,-0.004547845,0.26598,1.04507
109.963,17.36032,-0.00438848,0.26208,1.04485
110.663,17.42918,-0.00571,0.26014,1.04463
111.363,17.4977,-0.00571,0.2614,1.04441
112.063,17.56629,-0.005718966,0.2603,1.04419
112.763,17.63446,-0.00605989,0.25854,1.04397
113.463,17.70291,-0.00602849,0.2588,1.04374
114.163,17.77105,-0.00603,0.25843,1.04352
114.863,17.83934,-0.00603034,0.25866,1.04329
115.563,17.9077,-0.006039133,0.26083,1.04307
116.263,17.97607,-0.006039998,0.26023,1.04284
116.963,18.0443,-0.00606426,0.2585,1.04261
117.663,18.11252,-0.007345776,0.256,1.04238
118.363,18.18073,-0.008660423,0.2557,1.04215
119.063,18.24885,-0.0073598,0.25344,1.04192
119.763,18.3169,-0.008738965,0.25233,1.04169
120.463,18.38503,-0.006594862,0.24879,1.04146
121.163,18.45316,-0.00636693,0.24927,1.04123
121.863,18.52136,-0.00635796,0.24918,1.041
122.563,18.58925,-0.00635977,0.24732,1.04076
123.263,18.6575,-0.00734962,0.25102,1.04053
123.963,18.72561,-0.00744466,0.2463,1.04029
124.663,18.7935,-0.006039964,0.24779,1.04005
125.363,18.86155,-0.00604,0.24675,1.03982
126.063,18.92967,-0.00603978,0.24657,1.03958
126.763,18.99803,-0.006371565,0.24605,1.03934
127.463,19.0658,-0.00729158,0.24446,1.0391
128.163,19.13358,-0.00636007,0.24637,1.03886
128.863,19.20127,-0.00636,0.24706,1.03861
129.563,19.26921,-0.006360004,0.24643,1.03837
130.263,19.33711,-0.00524,0.24612,1.03813
130.963,19.40462,-0.00506212,0.24647,1.03788
131.663,19.4723,-0.005049998,0.24704,1.03764
132.363,19.5399,-0.00505,0.24672,1.03739
133.063,19.60776,-0.005049977,0.24829,1.03715
133.763,19.67535,-0.005646814,0.24774,1.0369
134.463,19.74306,-0.005041502,0.24821,1.03665
135.163,19.81071,-0.005879538,0.24844,1.0364
135.863,19.87833,-0.006899904,0.25164,1.03615
136.563,19.94598,-0.00692693,0.25038,1.0359
137.263,20.0136,-0.00559951,0.25082,1.03565
137.963,20.0811,-0.005611525,0.25094,1.0354
138.663,20.14844,-0.006909875,0.25176,1.03514
139.363,20.2159,-0.008235074,0.2533,1.03489
140.063,20.28327,-0.008562561,0.25246,1.03463
140.763,20.3506,-0.00856,0.25508,1.03438
141.463,20.41785,-0.00855932,0.2574,1.03412
142.163,20.4853,-0.008062578,0.25493,1.03386
142.863,20.5528,-0.009564731,0.25415,1.03361
143.563,20.62012,-0.007877267,0.25569,1.03335
144.263,20.68743,-0.008229999,0.25597,1.03309
144.963,20.75471,-0.00682564,0.255,1.03283
145.663,20.82207,-0.00558339,0.25662,1.03256
146.363,20.88945,-0.00559017,0.26033,1.0323
147.063,20.95704,-0.004207648,0.26055,1.03204
147.763,21.02455,-0.004276744,0.25863,1.03178
148.463,21.09185,-0.004392514,0.25916,1.03151
149.163,21.15908,-0.005260014,0.25986,1.03125
149.863,21.2262,-0.00526,0.26064,1.03098
150.563,21.29344,-0.005256889,0.26346,1.03071
151.263,21.36055,-0.006582851,0.26194,1.03044
151.963,21.42752,-0.00790219,0.26431,1.03018
152.663,21.49459,-0.008807285,0.26536,1.02991
153.363,21.5614,-0.009220031,0.26615,1.02964
154.063,21.6287,-0.00922,0.26644,1.02937
154.763,21.69611,-0.009218166,0.26855,1.02909
155.463,21.76359,-0.00790221,0.26732,1.02882
156.163,21.8306,-0.006546449,0.26736,1.02855
156.863,21.8975,-0.00637155,0.26579,1.02827
157.563,21.96454,-0.005260248,0.26892,1.028
158.263,22.0319,-0.006556288,0.26999,1.02772
158.963,22.09913,-0.007900382,0.26927,1.02745
159.663,22.16628,-0.0092194,0.27091,1.02717
160.363,22.2336,-0.007891488,0.27134,1.02689
161.063,22.3011,-0.006729431,0.27365,1.02661
161.763,22.36818,-0.00657878,0.27381,1.02633
162.463,22.43528,-0.00658,0.27375,1.02605
163.163,22.5021,-0.006579978,0.27514,1.02577
163.863,22.56945,-0.007915286,0.27477,1.02549
164.563,22.63666,-0.007900018,0.27792,1.02521
165.263,22.70306,-0.007900061,0.27655,1.02492
165.963,22.7697,-0.007890018,0.27807,1.02464
166.663,22.83651,-0.00926095,0.27953,1.02435
167.363,22.90386,-0.009123816,0.27985,1.02407
168.063,22.97111,-0.01184871,0.28035,1.02378
168.763,23.0381,-0.01217817,0.28088,1.02349
169.463,23.1049,-0.01209299,0.28602,1.0232
170.163,23.17181,-0.01086005,0.28298,1.02292
170.863,23.2387,-0.009531926,0.28388,1.02263
171.563,23.30605,-0.009590007,0.28424,1.02234
172.263,23.37296,-0.00886082,0.28341,1.02204
172.963,23.44004,-0.008878081,0.28237,1.02175
173.663,23.5071,-0.0082205,0.28471,1.02146
174.363,23.57414,-0.009588084,0.28459,1.02117
175.063,23.64089,-0.01093342,0.28627,1.02087
175.763,23.70796,-0.009540401,0.28479,1.02058
176.463,23.77496,-0.01093967,0.28537,1.02028
177.163,23.84194,-0.01226006,0.28595,1.01998
177.863,23.9088,-0.01058894,0.28596,1.01969
178.563,23.97561,-0.009575822,0.28698,1.01939
179.263,24.04251,-0.01087722,0.28774,1.01909
179.963,24.1095,-0.01216998,0.28583,1.01879
180.663,24.17641,-0.01216955,0.28865,1.01849
181.363,24.24346,-0.01349855,0.28653,1.01819
182.063,24.31031,-0.01478827,0.28663,1.01789
182.763,24.37715,-0.01414992,0.28651,1.01758
183.463,24.44424,-0.01461518,0.2893,1.01728
184.163,24.51106,-0.01675995,0.28811,1.01698
184.863,24.57795,-0.01678,0.28793,1.01667
185.563,24.64465,-0.01678,0.29016,1.01636
186.263,24.71164,-0.01677652,0.28798,1.01606
186.963,24.77865,-0.01809984,0.28812,1.01575
187.663,24.8456,-0.01809999,0.28937,1.01544
188.363,24.91234,-0.01815072,0.28922,1.01513
189.063,24.97905,-0.01908001,0.28861,1.01482
189.763,25.04586,-0.01908665,0.2899,1.01451
190.463,25.1125,-0.01842249,0.28958,1.0142
191.163,25.17914,-0.01843002,0.28982,1.01389
191.863,25.24594,-0.01932629,0.29234,1.01358
192.563,25.31319,-0.01942001,0.29044,1.01327
193.263,25.38032,-0.01942,0.29275,1.01295
193.963,25.44707,-0.01942,0.29518,1.01264
194.663,25.51371,-0.01942775,0.29414,1.01232
195.363,25.58032,-0.02082545,0.29492,1.01201
196.063,25.64705,-0.02181776,0.29415,1.01169
196.763,25.71361,-0.02172367,0.29875,1.01137
197.463,25.78019,-0.02434856,0.30095,1.01105
198.163,25.84681,-0.02522595,0.30054,1.01073
198.863,25.91337,-0.02665768,0.29981,1.01041
199.563,25.98006,-0.02677913,0.30016,1.01009
200.263,26.0465,-0.02807875,0.30186,1.00977
200.963,26.11317,-0.02945162,0.30252,1.00945
201.663,26.17973,-0.0294,0.30316,1.00913
202.363,26.24635,-0.02935218,0.30298,1.0088
203.063,26.3129,-0.03072971,0.30492,1.00848
203.763,26.37945,-0.0320392,0.3046,1.00816
204.463,26.44595,-0.0333403,0.30504,1.00783
205.163,26.51238,-0.03453153,0.30423,1.0075
205.863,26.57889,-0.03529583,0.30433,1.00718
206.563,26.64545,-0.03857282,0.30649,1.00685
207.263,26.7119,-0.0395182,0.30756,1.00652
207.963,26.7782,-0.0412146,0.30924,1.00619
208.663,26.8446,-0.04256021,0.30574,1.00586
209.363,26.91123,-0.0444772,0.30528,1.00553
210.063,26.978,-0.04513611,0.30494,1.0052
210.763,27.0447,-0.04796062,0.30388,1.00487
211.463,27.11123,-0.04925969,0.30298,1.00453
212.163,27.17776,-0.05053749,0.30152,1.0042
212.863,27.2443,-0.05187361,0.30219,1.00387
213.563,27.311,-0.05318193,0.30001,1.00353
214.263,27.3777,-0.05444813,0.30141,1.0032
214.963,27.4444,-0.05726767,0.30119,1.00286
215.663,27.51127,-0.05995405,0.30042,1.00252
216.363,27.57798,-0.06361861,0.30069,1.00218
217.063,27.6447,-0.06675197,0.30218,1.00185
217.763,27.71138,-0.06854511,0.30027,1.00151
218.463,27.77822,-0.06981963,0.30189,1.00117
219.163,27.84478,-0.07287024,0.30177,1.00083
219.863,27.9112,-0.07539312,0.29987,1.00049
220.563,27.97762,-0.07688978,0.30361,1.00014
221.263,28.04451,-0.07987356,0.30512,0.9998
221.963,28.11148,-0.0831384,0.30595,0.99946
222.663,28.178,-0.08589234,0.30535,0.99911
223.363,28.2442,-0.09034439,0.3093,0.99877
224.063,28.31083,-0.09468988,0.31104,0.99842
224.763,28.3778,-0.09752545,0.30968,0.99808
225.463,28.4447,-0.09855038,0.31078,0.99773
226.163,28.5114,-0.1023,0.31283,0.99738
226.863,28.57787,-0.10748,0.31574,0.99703
227.563,28.6441,-0.11056,0.31638,0.99669
228.263,28.71078,-0.11339,0.31581,0.99634
228.963,28.77743,-0.11688,0.31783,0.99599
229.663,28.84458,-0.12027,0.31793,0.99563
230.363,28.9112,-0.12535,0.32058,0.99528
231.063,28.9776,-0.12841,0.32145,0.99493
231.763,29.04425,-0.13295,0.32241,0.99458
232.463,29.11063,-0.13664,0.32589,0.99422
233.163,29.1773,-0.14078,0.32542,0.99387
233.863,29.2436,-0.14538,0.32399,0.99351
234.563,29.3102,-0.14925,0.32889,0.99316
235.263,29.3767,-0.15431,0.32801,0.9928
235.963,29.4436,-0.15738,0.32985,0.99244
236.663,29.51,-0.16306,0.32982,0.99209
237.363,29.57664,-0.16598,0.32986,0.99173
238.063,29.6431,-0.17065,0.32842,0.99137
238.763,29.7097,-0.17534,0.33129,0.99101
239.463,29.77628,-0.18077,0.33111,0.99065
240.163,29.84279,-0.18527,0.3301,0.99029
240.863,29.9094,-0.19044,0.32934,0.98993
241.563,29.97597,-0.19513,0.32928,0.98956
242.263,30.0426,-0.20071,0.33105,0.9892
242.963,30.10918,-0.20544,0.3281,0.98884
243.663,30.1759,-0.21102,0.32813,0.98847
244.363,30.24257,-0.21487,0.32792,0.98811
245.063,30.3091,-0.2187,0.32788,0.98774
245.763,30.3756,-0.22473,0.32445,0.98737
246.463,30.4421,-0.22943,0.32418,0.98701
247.163,30.50875,-0.23425,0.32133,0.98664
247.863,30.57511,-0.24014,0.32226,0.98627
248.563,30.64175,-0.24577,0.32255,0.9859
249.263,30.70855,-0.2506,0.32124,0.98553
249.963,30.7756,-0.25578,0.31868,0.98516
250.663,30.84252,-0.26134,0.316,0.98479
251.363,30.90911,-0.26652,0.31653,0.98442
252.063,30.9757,-0.27143,0.31549,0.98405
252.763,31.04235,-0.27693,0.3114,0.98367
253.463,31.10929,-0.28191,0.30921,0.9833
254.163,31.176,-0.28998,0.31211,0.98292
254.863,31.2426,-0.29452,0.30709,0.98255
255.563,31.30926,-0.30022,0.30438,0.98217
256.263,31.376,-0.30604,0.30348,0.9818
256.963,31.44302,-0.30984,0.30103,0.98142
257.663,31.5096,-0.31584,0.30378,0.98104
258.363,31.5762,-0.32296,0.30374,0.98066
259.063,31.643,-0.32889,0.30045,0.98029
259.763,31.70976,-0.33493,0.29618,0.97991
260.463,31.77654,-0.34183,0.2926,0.97953
261.163,31.8432,-0.349,0.29175,0.97914
261.863,31.90987,-0.35547,0.28903,0.97876
262.563,31.97646,-0.36214,0.2885,0.97838
263.263,32.04316,-0.36846,0.28542,0.978
263.963,32.1098,-0.37394,0.28435,0.97761
264.663,32.1765,-0.3806,0.28053,0.97723
265.363,32.24322,-0.38803,0.28018,0.97685
266.063,32.31015,-0.39649,0.27795,0.97646
266.763,32.37696,-0.40541,0.27595,0.97607
267.463,32.44379,-0.41259,0.27161,0.97569
268.163,32.51025,-0.42067,0.27007,0.9753
268.863,32.5769,-0.42695,0.26564,0.97491
269.563,32.64333,-0.43543,0.26492,0.97452
270.263,32.7095,-0.44406,0.26396,0.97414
270.963,32.77624,-0.45343,0.26302,0.97375
271.663,32.8431,-0.46116,0.25964,0.97336
272.363,32.91019,-0.47087,0.25729,0.97296
273.063,32.97703,-0.48038,0.25474,0.97257
273.763,33.04361,-0.49049,0.25284,0.97218
274.463,33.11047,-0.50096,0.25076,0.97179
275.163,33.1773,-0.51207,0.25011,0.97139
275.863,33.2442,-0.52174,0.24682,0.971
276.563,33.311,-0.5322,0.24746,0.9706
277.263,33.37794,-0.54495,0.24295,0.97021
277.963,33.44486,-0.55547,0.24236,0.96981
278.663,33.51166,-0.56591,0.24012,0.96942
279.363,33.5784,-0.57966,0.23748,0.96902
280.063,33.645,-0.59209,0.23686,0.96862
280.763,33.71197,-0.60498,0.23392,0.96822
281.463,33.77892,-0.62133,0.23089,0.96782
282.163,33.84579,-0.6357,0.22682,0.96742
282.863,33.91217,-0.64849,0.22518,0.96702
283.563,33.9792,-0.6646,0.22331,0.96662
284.263,34.0465,-0.67965,0.22064,0.96622
284.963,34.11403,-0.69506,0.21974,0.96582
285.663,34.1809,-0.70922,0.21569,0.96542
286.363,34.24776,-0.72455,0.2137,0.96501
287.063,34.31477,-0.7398,0.21155,0.96461
287.763,34.38176,-0.75526,0.21133,0.96421
288.463,34.44854,-0.77236,0.20773,0.9638
289.163,34.51546,-0.78666,0.20471,0.9634
289.863,34.5823,-0.80303,0.20236,0.96299
290.563,34.64929,-0.82268,0.20128,0.96258
291.263,34.7164,-0.84071,0.20016,0.96217
291.963,34.78348,-0.85808,0.19795,0.96177
292.663,34.85072,-0.87759,0.1966,0.96136
293.363,34.9178,-0.89522,0.1921,0.96095
294.063,34.9848,-0.91436,0.19283,0.96054
294.763,35.0517,-0.93378,0.18936,0.96013
295.463,35.11868,-0.95278,0.18599,0.95972
296.163,35.18582,-0.97398,0.18455,0.95931
296.863,35.2528,-0.99722,0.18288,0.95889
297.563,35.31966,-1.0206,0.1805,0.95848
298.263,35.3865,-1.04143,0.18058,0.95807
298.963,35.4536,-1.0635,0.17749,0.95765
299.663,35.52101,-1.08436,0.17364,0.95724
300.363,35.58817,-1.10705,0.17252,0.95682
301.063,35.65515,-1.13216,0.17235,0.95641
301.763,35.72201,-1.15386,0.16838,0.95599
302.463,35.78904,-1.1793,0.16837,0.95557
303.163,35.85604,-1.20239,0.16582,0.95516
303.863,35.92315,-1.22509,0.16386,0.95474
304.563,35.99013,-1.24903,0.16073,0.95432
305.263,36.05715,-1.27443,0.15755,0.9539
305.963,36.12424,-1.30009,0.15768,0.95348
306.663,36.19146,-1.32072,0.15454,0.95306
307.363,36.25842,-1.34431,0.15094,0.95264
308.063,36.32542,-1.37105,0.1484,0.95222
308.763,36.39226,-1.39724,0.14679,0.9518
309.463,36.4594,-1.42259,0.14107,0.95137
310.163,36.52632,-1.448,0.13678,0.95095
310.863,36.59329,-1.47382,0.13328,0.95053
311.563,36.66042,-1.50114,0.12796,0.9501
312.263,36.72742,-1.52629,0.12346,0.94968
312.963,36.79479,-1.55251,0.11846,0.94925
313.663,36.86209,-1.57904,0.11234,0.94883
314.363,36.92944,-1.60656,0.1097,0.9484
315.063,36.99667,-1.63221,0.10473,0.94797
315.763,37.06398,-1.65879,0.09937956,0.94754
316.463,37.1312,-1.68785,0.09155982,0.94712
317.163,37.1984,-1.71307,0.08862154,0.94669
317.863,37.2654,-1.7378,0.08055334,0.94626
318.563,37.3325,-1.76286,0.0738355,0.94583
319.263,37.39963,-1.78787,0.06771897,0.9454
319.963,37.46696,-1.8135,0.05976086,0.94497
320.663,37.53431,-1.83805,0.0541816,0.94453
321.363,37.6015,-1.86468,0.04973512,0.9441
322.063,37.66851,-1.88897,0.03915149,0.94367
322.763,37.73565,-1.91658,0.03668649,0.94324
323.463,37.8029,-1.93911,0.02830676,0.9428
324.163,37.87021,-1.96243,0.02169892,0.94237
324.863,37.93732,-1.98661,0.01465872,0.94193
325.563,38.00443,-2.00865,0.009020964,0.9415
326.263,38.07154,-2.03019,0.00686533,0.94106
326.963,38.1389,-2.05009,-0.001264666,0.94062
327.663,38.20622,-2.07108,-0.004329672,0.94019
328.363,38.27348,-2.09066,-0.006810509,0.93975
329.063,38.34073,-2.10752,-0.008959843,0.93931
329.763,38.40795,-2.12409,-0.01093039,0.93887
330.463,38.47526,-2.14071,-0.01010961,0.93843
331.163,38.54246,-2.15504,-0.006309803,0.93799
331.863,38.60989,-2.16875,-0.005501006,0.93755
332.563,38.67722,-2.18233,-0.00164925,0.93711
333.263,38.74415,-2.19665,0.00339763,0.93667
333.963,38.81158,-2.20893,0.0114999,0.93623
334.663,38.8791,-2.2196,0.01310139,0.93579
335.363,38.94695,-2.23044,0.02078962,0.93534
336.063,39.01463,-2.23757,0.02330973,0.9349
336.763,39.08213,-2.24461,0.0243564,0.93446
337.463,39.14965,-2.25291,0.03157202,0.93401
338.163,39.217,-2.26265,0.03229259,0.93357
338.863,39.28418,-2.26901,0.03486914,0.93312
339.563,39.35151,-2.27534,0.03791189,0.93267
340.263,39.41897,-2.27958,0.03829616,0.93223
340.963,39.48685,-2.28528,0.03975731,0.93178
341.663,39.55422,-2.29136,0.04055781,0.93133
342.363,39.62165,-2.2975,0.03776831,0.93088
343.063,39.6894,-2.30343,0.04199921,0.93044
343.763,39.75732,-2.30846,0.03808038,0.92999
344.463,39.8251,-2.3135,0.03712653,0.92954
345.163,39.89271,-2.31933,0.03796662,0.92909
345.863,39.96028,-2.32377,0.03603124,0.92864
346.563,40.02792,-2.32875,0.03613496,0.92818
347.263,40.09553,-2.33141,0.03337114,0.92773
347.963,40.1631,-2.33397,0.03374716,0.92728
348.663,40.23081,-2.3371,0.03117605,0.92683
349.363,40.29853,-2.34004,0.02919745,0.92637
350.063,40.3663,-2.34451,0.0315165,0.92592
350.763,40.43396,-2.34925,0.02903825,0.92546
351.463,40.5016,-2.35249,0.03070701,0.92501
352.163,40.56901,-2.35769,0.0283935,0.92455
352.863,40.63655,-2.36457,0.02774466,0.9241
353.563,40.70422,-2.3677,0.02863315,0.92364
354.263,40.772,-2.37049,0.02920462,0.92318
354.963,40.8397,-2.37351,0.02427372,0.92273
355.663,40.90744,-2.37494,0.02409763,0.92227
356.363,40.97498,-2.37778,0.0247849,0.92181
357.063,41.0425,-2.38179,0.02124729,0.92135
357.763,41.11,-2.38439,0.02279387,0.92089
358.463,41.17757,-2.38746,0.02417377,0.92043
359.163,41.2453,-2.39139,0.02281593,0.91997
359.863,41.31283,-2.39587,0.02150674,0.91951
360.563,41.3804,-2.39865,0.02183233,0.91905
361.263,41.44807,-2.40131,0.02077459,0.91859
361.963,41.51585,-2.40406,0.02111155,0.91812
362.663,41.58365,-2.40626,0.01778044,0.91766
363.363,41.65144,-2.40949,0.01865105,0.9172
364.063,41.71907,-2.41189,0.01854711,0.91673
364.763,41.78679,-2.41256,0.01483382,0.91627
365.463,41.8545,-2.41556,0.01378102,0.9158
366.163,41.92242,-2.41992,0.01388341,0.91534
366.863,41.99038,-2.42406,0.01354283,0.91487
367.563,42.05834,-2.42437,0.009223555,0.91441
368.263,42.12615,-2.42762,0.01122205,0.91394
368.963,42.19386,-2.43058,0.01141583,0.91347
369.663,42.26146,-2.43355,0.009128232,0.91301
370.363,42.32943,-2.43701,0.009936651,0.91254
371.063,42.39754,-2.44072,0.01131361,0.91207
371.763,42.4657,-2.44386,0.007391853,0.9116
372.463,42.53391,-2.44634,0.006289381,0.91113
373.163,42.60195,-2.4493,0.004268802,0.91066
373.863,42.67007,-2.4497,0.006065104,0.91019
374.563,42.7378,-2.45071,0.00641486,0.90972
375.263,42.80583,-2.4522,0.001893717,0.90925
375.963,42.8739,-2.45367,0.0034685,0.90877
376.663,42.94191,-2.45685,0.002422516,0.9083
377.363,43.00956,-2.45985,0.0001865654,0.90783
378.063,43.0775,-2.46207,-0.000480177,0.90735
378.763,43.14568,-2.46469,0.0009444137,0.90688
379.463,43.21399,-2.46691,0.00193111,0.90641
380.163,43.2821,-2.46868,0.0008281645,0.90593
380.863,43.35003,-2.47043,-0.000220137,0.90546
381.563,43.41817,-2.47182,-1.215053e-05,0.90498
382.263,43.4862,-2.47489,0.000241767,0.9045
382.963,43.55395,-2.47778,-0.0004537206,0.90403
383.663,43.622,-2.48039,-0.00131116,0.90355
384.363,43.6902,-2.48336,0.000161022,0.90307
385.063,43.7583,-2.4835,0.0001692732,0.90259
385.763,43.82638,-2.48631,0.000162336,0.90211
386.463,43.89425,-2.48764,-0.00375293,0.90164
387.163,43.96248,-2.49022,-0.0001570189,0.90116
387.863,44.03047,-2.49453,0.0009857935,0.90068
388.563,44.09854,-2.4959,0.00197691,0.9002
389.263,44.16677,-2.49723,0.0001504578,0.89971
389.963,44.23468,-2.49854,0.00174416,0.89923
390.663,44.30247,-2.50013,0.00330341,0.89875
391.363,44.37042,-2.50275,0.006148262,0.89827
392.063,44.43866,-2.50554,0.00156401,0.89779
392.763,44.50719,-2.50555,0.004165809,0.8973
393.463,44.57542,-2.50747,0.004151165,0.89682
394.163,44.64359,-2.51094,0.003624354,0.89634
394.863,44.71162,-2.51366,0.004324221,0.89585
395.563,44.77983,-2.514,0.004295265,0.89537
396.263,44.84805,-2.51642,0.007844408,0.89488
396.963,44.9163,-2.51901,0.005251586,0.89439
397.663,44.98449,-2.52086,0.00588312,0.89391
398.363,45.0527,-2.5233,0.007005558,0.89342
399.063,45.12085,-2.52472,0.006348125,0.89293
399.763,45.189,-2.52596,0.009531806,0.89245
400.463,45.2571,-2.52735,0.009152189,0.89196
401.163,45.32526,-2.52871,0.00942535,0.89147
401.863,45.39347,-2.53001,0.0105319,0.89098
402.563,45.46175,-2.53264,0.01280916,0.89049
403.263,45.52989,-2.53585,0.01299978,0.89
403.963,45.59803,-2.5387,0.01467555,0.88951
404.663,45.66612,-2.54269,0.01442474,0.88902
405.363,45.73431,-2.54442,0.01646796,0.88853
406.063,45.80257,-2.5467,0.01773028,0.88804
406.763,45.87064,-2.54834,0.0178533,0.88755
407.463,45.93881,-2.54964,0.01687285,0.88706
408.163,46.00704,-2.55097,0.01695298,0.88656
408.863,46.07529,-2.55156,0.0194495,0.88607
409.563,46.14366,-2.55367,0.01985009,0.88558
410.263,46.21175,-2.5555,0.02251602,0.88508
410.963,46.27987,-2.5562,0.02377594,0.88459
411.663,46.34799,-2.55864,0.02281439,0.88409
412.363,46.4163,-2.56053,0.02355133,0.8836
413.063,46.48472,-2.56236,0.02404468,0.8831
413.763,46.55318,-2.56389,0.02737032,0.88261
414.463,46.6215,-2.56504,0.02602515,0.88211
415.163,46.68979,-2.56731,0.02864636,0.88161
415.863,46.7581,-2.56888,0.02962068,0.88111
416.563,46.82634,-2.57146,0.03127098,0.88062
417.263,46.89459,-2.57409,0.0296279,0.88012
417.963,46.9629,-2.5764,0.03353905,0.87962
418.663,47.0311,-2.5778,0.03110539,0.87912
419.363,47.09942,-2.57973,0.03284739,0.87862
420.063,47.16783,-2.58331,0.03638417,0.87812
420.763,47.23614,-2.58462,0.0327907,0.87762
421.463,47.30455,-2.58464,0.03454145,0.87712
422.163,47.37283,-2.58599,0.03482188,0.87662
422.863,47.4413,-2.58868,0.03390375,0.87612
423.563,47.5099,-2.58888,0.03553166,0.87562
424.263,47.57844,-2.58979,0.03516893,0.87511
424.963,47.6471,-2.59111,0.03906087,0.87461
425.663,47.7156,-2.59234,0.03633425,0.87411
426.363,47.78425,-2.59361,0.0365188,0.87361
427.063,47.8527,-2.59779,0.03727347,0.8731
427.763,47.9212,-2.59784,0.04133312,0.8726
428.463,47.98964,-2.59909,0.04110802,0.87209
429.163,48.05832,-2.60039,0.04221335,0.87159
429.863,48.12706,-2.60325,0.04004597,0.87108
430.563,48.1957,-2.60428,0.04375622,0.87058
431.263,48.26416,-2.60597,0.04206551,0.87007
431.963,48.33263,-2.60723,0.04575273,0.86956
432.663,48.40115,-2.61015,0.04640655,0.86906
433.363,48.46979,-2.61216,0.04538166,0.86855
434.063,48.5381,-2.61536,0.04827906,0.86804
434.763,48.6066,-2.61535,0.04683263,0.86753
435.463,48.67507,-2.61667,0.04698461,0.86702
436.163,48.74389,-2.61788,0.04907402,0.86652
436.863,48.8124,-2.62059,0.04866702,0.86601
437.563,48.881,-2.62327,0.04836085,0.8655
438.263,48.9494,-2.62457,0.05006006,0.86499
438.963,49.01797,-2.62456,0.0508602,0.86448
439.663,49.0865,-2.62578,0.05303963,0.86397
440.363,49.15518,-2.62716,0.05042849,0.86345
441.063,49.2239,-2.62852,0.04924505,0.86294
441.763,49.29248,-2.62867,0.0501688,0.86243
442.463,49.36116,-2.63207,0.04895158,0.86192
443.163,49.42985,-2.63458,0.05266137,0.86141
443.863,49.49866,-2.63586,0.05222831,0.86089
444.563,49.56746,-2.63586,0.05213247,0.86038
445.263,49.63626,-2.63867,0.05300973,0.85987
445.963,49.7049,-2.64135,0.05200962,0.85935
446.663,49.77375,-2.64276,0.05298556,0.85884
447.363,49.84254,-2.642,0.05578241,0.85832
448.063,49.91133,-2.64391,0.05507656,0.85781
448.763,49.97997,-2.64688,0.05466474,0.85729
449.463,50.0488,-2.64914,0.05519564,0.85677
450.163,50.11765,-2.64915,0.05359617,0.85626
450.863,50.1865,-2.64947,0.05273819,0.85574
451.563,50.2553,-2.65062,0.0544527,0.85522
452.263,50.32397,-2.65281,0.05621758,0.85471
452.963,50.39273,-2.65423,0.05772652,0.85419
453.663,50.4614,-2.65444,0.05794762,0.85367
454.363,50.5302,-2.65505,0.05767738,0.85315
455.063,50.5989,-2.65538,0.05806294,0.85263
455.763,50.6676,-2.65847,0.05894015,0.85211
456.463,50.7364,-2.65976,0.057835,0.85159
457.163,50.8052,-2.65999,0.05861044,0.85107
457.863,50.8738,-2.66315,0.05941293,0.85055
458.563,50.94235,-2.66403,0.0608771,0.85003
459.263,51.01109,-2.66281,0.05931772,0.84951
459.963,51.07983,-2.66581,0.06203766,0.84899
460.663,51.14864,-2.66581,0.06127328,0.84847
461.363,51.21735,-2.6684,0.06068759,0.84795
462.063,51.28633,-2.6699,0.0604257,0.84742
462.763,51.35528,-2.67129,0.06179784,0.8469
463.463,51.42394,-2.6725,0.06354158,0.84638
464.163,51.4927,-2.67488,0.06117647,0.84585
464.863,51.5617,-2.67612,0.06241055,0.84533
465.563,51.63094,-2.67748,0.06246563,0.84481
466.263,51.69947,-2.67777,0.06234579,0.84428
466.963,51.7684,-2.67777,0.06117651,0.84376
467.663,51.8372,-2.68055,0.06044813,0.84323
468.363,51.90672,-2.68183,0.06363409,0.84271
469.063,51.9755,-2.68244,0.06023194,0.84218
469.763,52.04445,-2.68314,0.0618745,0.84165
470.463,52.11331,-2.68316,0.06012375,0.84113
471.163,52.18231,-2.68409,0.06308375,0.8406
471.863,52.25125,-2.68545,0.06196517,0.84007
472.563,52.31994,-2.68676,0.06204613,0.83955
473.263,52.3887,-2.68808,0.06094576,0.83902
473.963,52.45756,-2.68939,0.06422021,0.83849
474.663,52.5266,-2.68961,0.06374911,0.83796
475.363,52.5954,-2.69213,0.06115794,0.83743
476.063,52.66441,-2.69346,0.06154986,0.8369
476.763,52.7334,-2.69473,0.06474121,0.83637
477.463,52.80259,-2.69543,0.06151183,0.83584
478.163,52.8715,-2.69805,0.06530011,0.83531
478.863,52.94021,-2.69806,0.06379637,0.83478
479.563,53.00889,-2.70069,0.06840455,0.83425
480.263,53.0779,-2.702,0.06482573,0.83372
480.963,53.14716,-2.70185,0.06287463,0.83319
481.663,53.2161,-2.69733,0.06433181,0.83266
482.363,53.2849,-2.69773,0.06420098,0.83212
483.063,53.35365,-2.69773,0.06318211,0.83159
483.763,53.4227,-2.70032,0.06698669,0.83106
484.463,53.49168,-2.70466,0.06733128,0.83053
485.163,53.5605,-2.70716,0.06835074,0.82999
485.863,53.62945,-2.70848,0.07265706,0.82946
486.563,53.6984,-2.70974,0.07527994,0.82893
487.263,53.76749,-2.70979,0.08019855,0.82839
487.963,53.8364,-2.71155,0.084179,0.82786
488.663,53.9055,-2.71479,0.08328215,0.82732
489.363,53.97444,-2.7152,0.08791184,0.82679
490.063,54.04364,-2.71531,0.08843244,0.82625
490.763,54.1126,-2.71586,0.09260056,0.82571
491.463,54.18209,-2.71486,0.09612409,0.82518
492.163,54.2513,-2.71606,0.09857272,0.82464
492.863,54.3204,-2.71649,0.10261,0.8241
493.563,54.38955,-2.71754,0.1011,0.82357
494.263,54.45854,-2.71909,0.10526,0.82303
494.963,54.5278,-2.72178,0.10876,0.82249
495.663,54.59658,-2.7231,0.10788,0.82195
496.363,54.66559,-2.72307,0.11025,0.82142
497.063,54.73457,-2.72312,0.11283,0.82088
497.763,54.8038,-2.72332,0.11394,0.82034
498.463,54.87299,-2.72439,0.11193,0.8198
499.163,54.942,-2.72437,0.11503,0.81926
499.863,55.01104,-2.72568,0.11675,0.81872
500.563,55.0802,-2.72701,0.11656,0.81818
501.263,55.14966,-2.7257,0.11542,0.81764
501.963,55.21914,-2.72713,0.11809,0.8171
502.663,55.28844,-2.72844,0.11762,0.81656
503.363,55.3574,-2.73104,0.11762,0.81602
504.063,55.4268,-2.73239,0.11612,0.81547
504.763,55.4963,-2.73371,0.11644,0.81493
505.463,55.5658,-2.73371,0.11437,0.81439
506.163,55.6349,-2.73503,0.11395,0.81385
506.863,55.70415,-2.73397,0.11373,0.81331
507.563,55.77349,-2.73501,0.1138,0.81276
508.263,55.8429,-2.7363,0.11222,0.81222
508.963,55.91208,-2.7376,0.11188,0.81168
509.663,55.98134,-2.73996,0.11379,0.81113
510.363,56.05064,-2.73996,0.11269,0.81059
511.063,56.11995,-2.74028,0.11026,0.81004
511.763,56.1894,-2.7416,0.1136,0.8095
512.463,56.2586,-2.7416,0.11152,0.80895
513.163,56.3278,-2.7416,0.11026,0.80841
513.863,56.3971,-2.74144,0.10862,0.80786
514.563,56.4665,-2.74259,0.11034,0.80732
515.263,56.5359,-2.7426,0.10622,0.80677
515.963,56.6051,-2.74299,0.09872033,0.80622
516.663,56.6743,-2.74389,0.09505181,0.80568
517.363,56.74369,-2.74536,0.09017138,0.80513
518.063,56.8132,-2.74763,0.08718056,0.80458
518.763,56.8826,-2.74796,0.08356122,0.80404
519.463,56.952,-2.74931,0.08347079,0.80349
520.163,57.02131,-2.74928,0.08080161,0.80294
520.863,57.0907,-2.75038,0.07670707,0.80239
521.563,57.16032,-2.75167,0.07747445,0.80184
522.263,57.22979,-2.75259,0.07649251,0.80129
522.963,57.29909,-2.75355,0.07523124,0.80075
523.663,57.36846,-2.75389,0.07336943,0.8002
524.363,57.4377,-2.75519,0.07159154,0.79965
525.063,57.50724,-2.7552,0.0751893,0.7991
525.763,57.5765,-2.75521,0.07351584,0.79855
526.463,57.64617,-2.75652,0.06923923,0.798
527.163,57.71578,-2.75595,0.070388,0.79745
527.863,57.78524,-2.75594,0.06774333,0.79689
528.563,57.85464,-2.75657,0.06972839,0.79634
529.263,57.9239,-2.75631,0.06964984,0.79579
529.963,57.99344,-2.75718,0.06688949,0.79524
530.663,58.0631,-2.75849,0.06560568,0.79469
531.363,58.13256,-2.75981,0.06547334,0.79414
532.063,58.20194,-2.75979,0.06583422,0.79358
532.763,58.2713,-2.76262,0.06578163,0.79303
533.463,58.34085,-2.76311,0.06465582,0.79248
534.163,58.4105,-2.76311,0.0612263,0.79192
534.863,58.48027,-2.76311,0.05970629,0.79137
535.563,58.54974,-2.76377,0.06168401,0.79082
536.263,58.6191,-2.76409,0.05998668,0.79026
536.963,58.6884,-2.76573,0.06037299,0.78971
537.663,58.758,-2.76573,0.05848097,0.78916
538.363,58.82773,-2.76652,0.0590793,0.7886
539.063,58.89744,-2.76704,0.06062167,0.78805
539.763,58.96719,-2.76705,0.06011143,0.78749
540.463,59.03679,-2.76827,0.06041435,0.78694
541.163,59.10655,-2.76968,0.06274179,0.78638
541.863,59.17592,-2.77103,0.06052231,0.78582
542.563,59.24541,-2.77229,0.06148517,0.78527
543.263,59.3147,-2.77091,0.06098367,0.78471
543.963,59.3843,-2.77232,0.06099666,0.78416
544.663,59.45378,-2.7722,0.05768914,0.7836
545.363,59.52339,-2.77102,0.05888337,0.78304
546.063,59.5929,-2.77242,0.05637549,0.78248
546.763,59.6624,-2.77229,0.0600859,0.78193
547.463,59.73195,-2.77496,0.0573967,0.78137
548.163,59.80164,-2.7752,0.05674227,0.78081
548.863,59.87135,-2.77526,0.05680132,0.78025
549.563,59.941,-2.7766,0.0578582,0.77969
550.263,60.0108,-2.77791,0.05485023,0.77914
550.963,60.0806,-2.77791,0.05839423,0.77858
551.663,60.1505,-2.77888,0.05922801,0.77802
552.363,60.22015,-2.78021,0.05794501,0.77746
553.063,60.29014,-2.7789,0.0592443,0.7769
553.763,60.36006,-2.7802,0.05645904,0.77634
554.463,60.4299,-2.77922,0.05533953,0.77578
555.163,60.49964,-2.78025,0.05674252,0.77522
555.863,60.5697,-2.78185,0.05655224,0.77466
556.563,60.6399,-2.7845,0.05407954,0.7741
557.263,60.7101,-2.78318,0.05247068,0.77354
557.963,60.77995,-2.78318,0.05243483,0.77298
558.663,60.84992,-2.78191,0.05418763,0.77241
559.363,60.91975,-2.7822,0.05168231,0.77185
560.063,60.9897,-2.78188,0.04934522,0.77129
560.763,61.0597,-2.78318,0.05136497,0.77073
561.463,61.1295,-2.78387,0.05021891,0.77017
562.163,61.19947,-2.78449,0.0544706,0.7696
562.863,61.2693,-2.78317,0.05281408,0.76904
563.563,61.3393,-2.78449,0.05457569,0.76848
564.263,61.40877,-2.78449,0.05017447,0.76792
564.963,61.47865,-2.78449,0.05115593,0.76735
565.663,61.54855,-2.78315,0.0525296,0.76679
566.363,61.619,-2.7848,0.05396221,0.76623
567.063,61.68897,-2.78713,0.05308672,0.76566
567.763,61.75885,-2.78713,0.05905095,0.7651
568.463,61.8286,-2.78844,0.06070403,0.76453
569.163,61.8985,-2.78937,0.05983686,0.76397
569.863,61.96838,-2.78843,0.05969714,0.76341
570.563,62.03835,-2.78935,0.06095977,0.76284
571.263,62.1081,-2.79108,0.05839018,0.76228
571.963,62.17805,-2.79239,0.06027956,0.76171
572.663,62.248,-2.79239,0.06262589,0.76114
573.363,62.3179,-2.79239,0.06046896,0.76058
574.063,62.3877,-2.79239,0.05791389,0.76001
574.763,62.45749,-2.79235,0.05999499,0.75945
575.463,62.5274,-2.79371,0.05933126,0.75888
576.163,62.59724,-2.7937,0.05792268,0.75831
576.863,62.6671,-2.79239,0.06457962,0.75775
577.563,62.73692,-2.7931,0.06589389,0.75718
578.263,62.80678,-2.79601,0.06767697,0.75661
578.963,62.87679,-2.79467,0.06713042,0.75605
579.663,62.9467,-2.79469,0.06672116,0.75548
580.363,63.01659,-2.79372,0.06921631,0.75491
581.063,63.08647,-2.79367,0.07007325,0.75434
581.763,63.15662,-2.79601,0.07169172,0.75378
582.463,63.22693,-2.79601,0.06895101,0.75321
583.163,63.2973,-2.79601,0.07100263,0.75264
583.863,63.3675,-2.79601,0.07032799,0.75207
584.563,63.43784,-2.79601,0.07035841,0.7515
585.263,63.50809,-2.79732,0.07041106,0.75093
585.963,63.57825,-2.79736,0.07007287,0.75037
586.663,63.6482,-2.79691,0.06741262,0.7498
587.363,63.71824,-2.79866,0.06938894,0.74923
588.063,63.78844,-2.79996,0.06661627,0.74866
588.763,63.85881,-2.8006,0.06791952,0.74809
589.463,63.92921,-2.80127,0.06619809,0.74752
590.163,63.9995,-2.80124,0.06621123,0.74695
590.863,64.0698,-2.7993,0.0656422,0.74638
591.563,64.1401,-2.80072,0.06572308,0.74581
592.263,64.21043,-2.80174,0.06890218,0.74524
592.963,64.28062,-2.80249,0.07084181,0.74467
593.663,64.3505,-2.80312,0.06799665,0.74409
594.363,64.4208,-2.80186,0.06711164,0.74352
595.063,64.49079,-2.80358,0.06905044,0.74295
595.763,64.56103,-2.80511,0.06940237,0.74238
596.463,64.6309,-2.80544,0.06652817,0.74181
597.163,64.7009,-2.80635,0.06776691,0.74124
597.863,64.77109,-2.80449,0.06570485,0.74067
598.563,64.84132,-2.80388,0.06442912,0.74009
599.263,64.91154,-2.80421,0.06767295,0.73952
599.963,64.98148,-2.80708,0.06685182,0.73895
600.663,65.05156,-2.80726,0.0651027,0.73838
601.363,65.12147,-2.8084,0.06360572,0.7378
602.063,65.19153,-2.80839,0.0627245,0.73723
602.763,65.2615,-2.80765,0.06237327,0.73666
603.463,65.3317,-2.8084,0.06452664,0.73608
604.163,65.40173,-2.80709,0.05969757,0.73551
604.863,65.4718,-2.80709,0.06252552,0.73494
605.563,65.5419,-2.80666,0.06123028,0.73436
606.263,65.61199,-2.80686,0.05955288,0.73379
606.963,65.68231,-2.80735,0.06246415,0.73322
607.663,65.7526,-2.80925,0.06067406,0.73264
608.363,65.82296,-2.81136,0.06018277,0.73207
609.063,65.89304,-2.81144,0.05758873,0.73149
609.763,65.9632,-2.81005,0.05747985,0.73092
610.463,66.0334,-2.81005,0.0589325,0.73034
611.163,66.1037,-2.81005,0.05971798,0.72977
611.863,66.1739,-2.81005,0.0561416,0.72919
612.563,66.244,-2.81004,0.05673233,0.72862
613.263,66.31421,-2.80995,0.05584932,0.72804
613.963,66.38432,-2.81136,0.05890288,0.72747
614.663,66.4545,-2.81127,0.05634985,0.72689
615.363,66.52462,-2.81242,0.05642989,0.72632
616.063,66.595,-2.81279,0.05792244,0.72574
616.763,66.66547,-2.81147,0.05404848,0.72516
617.463,66.73591,-2.81319,0.05541105,0.72459
618.163,66.80623,-2.81292,0.05242933,0.72401
618.863,66.8764,-2.81134,0.05350149,0.72344
619.563,66.94677,-2.81016,0.0514293,0.72286
620.263,67.017,-2.81016,0.05142331,0.72228
620.963,67.08748,-2.81013,0.04988802,0.72171
621.663,67.1576,-2.81343,0.05292028,0.72113
622.363,67.2278,-2.81468,0.05158914,0.72055
623.063,67.298,-2.81202,0.05355348,0.71997
623.763,67.36846,-2.81202,0.05166059,0.7194
624.463,67.4389,-2.81334,0.05302364,0.71882
625.163,67.50922,-2.81334,0.05443886,0.71824
625.863,67.57953,-2.81402,0.05312359,0.71766
626.563,67.64978,-2.81464,0.05687803,0.71709
627.263,67.71989,-2.81596,0.05506796,0.71651
627.963,67.79004,-2.81729,0.05427325,0.71593
628.663,67.86025,-2.81604,0.0548719,0.71535
629.363,67.93046,-2.81729,0.05417837,0.71477
630.063,68.0006,-2.81643,0.05448571,0.71419
630.763,68.0706,-2.81729,0.0559148,0.71362
631.463,68.14046,-2.81729,0.05026895,0.71304
632.163,68.21065,-2.81727,0.05031062,0.71246
632.863,68.28113,-2.81991,0.04964903,0.71188
633.563,68.35174,-2.82003,0.0499088,0.7113
634.263,68.42209,-2.82121,0.0510135,0.71072
634.963,68.4924,-2.82255,0.04996803,0.71014
635.663,68.56272,-2.82255,0.0485292,0.70956
636.363,68.63311,-2.82255,0.05245755,0.70898
637.063,68.70344,-2.82255,0.0471835,0.7084
637.763,68.77378,-2.82255,0.04393872,0.70782
638.463,68.84408,-2.82287,0.04886135,0.70724
639.163,68.9144,-2.82288,0.04604705,0.70666
639.863,68.98491,-2.82079,0.04667071,0.70608
640.563,69.05532,-2.82032,0.04509128,0.7055
641.263,69.12575,-2.81949,0.04608029,0.70492
641.963,69.196,-2.81739,0.04312566,0.70434
642.663,69.26638,-2.8173,0.04283308,0.70376
643.363,69.33674,-2.8218,0.0452255,0.70318
644.063,69.40732,-2.82261,0.04635736,0.7026
644.763,69.4778,-2.82442,0.04906703,0.70202
645.463,69.54836,-2.82442,0.04463993,0.70144
646.163,69.61883,-2.82442,0.04564999,0.70086
646.863,69.68951,-2.82442,0.04663089,0.70027
647.563,69.75968,-2.82311,0.04355943,0.69969
648.263,69.83027,-2.82311,0.04241667,0.69911
648.963,69.90079,-2.82311,0.0443517,0.69853
649.663,69.9712,-2.8231,0.04076697,0.69795
650.363,70.04178,-2.82027,0.04340424,0.69737
651.063,70.11228,-2.81896,0.04326583,0.69678
651.763,70.18305,-2.81898,0.04289501,0.6962
652.463,70.25344,-2.82153,0.04216884,0.69562
653.163,70.32382,-2.82297,0.04242951,0.69504
653.863,70.3944,-2.82196,0.04191737,0.69446
654.563,70.46475,-2.82291,0.04599703,0.69387
655.263,70.53511,-2.82304,0.04567851,0.69329
655.963,70.60568,-2.82303,0.04468115,0.69271
656.663,70.67622,-2.82341,0.04277796,0.69213
657.363,70.7467,-2.82584,0.04554636,0.69154
658.063,70.81708,-2.82694,0.04875399,0.69096
658.763,70.8876,-2.82628,0.0481556,0.69038
659.463,70.95812,-2.82628,0.04574314,0.68979
660.163,71.02812,-2.82628,0.04498379,0.68921
660.863,71.0985,-2.8276,0.04433819,0.68863
661.563,71.16865,-2.8276,0.04575467,0.68805
662.263,71.2393,-2.82892,0.04419904,0.68746
662.963,71.30949,-2.82759,0.04559304,0.68688
663.663,71.38002,-2.82759,0.04654811,0.6863
664.363,71.45055,-2.82858,0.04785353,0.68571
665.063,71.52101,-2.8289,0.04245068,0.68513
665.763,71.59153,-2.82891,0.04663,0.68454
666.463,71.66187,-2.82891,0.04756268,0.68396
667.163,71.7324,-2.82894,0.0484449,0.68338
667.863,71.8028,-2.8276,0.04875515,0.68279
668.563,71.87329,-2.82892,0.04624156,0.68221
669.263,71.94359,-2.82892,0.04737799,0.68162
669.963,72.01408,-2.83128,0.04711106,0.68104
670.663,72.08447,-2.83154,0.04749452,0.68046
671.363,72.1549,-2.83024,0.04626058,0.67987
672.063,72.22519,-2.83032,0.04744426,0.67929
672.763,72.29544,-2.83122,0.04564031,0.6787
673.463,72.3659,-2.83122,0.04380137,0.67812
674.163,72.43611,-2.83122,0.04178005,0.67753
674.863,72.50657,-2.83147,0.04635079,0.67695
675.563,72.57667,-2.83287,0.04308077,0.67636
676.263,72.64703,-2.83305,0.04388705,0.67578
676.963,72.7172,-2.83418,0.04634317,0.6752
677.663,72.78771,-2.83317,0.04839507,0.67461
678.363,72.85813,-2.8332,0.04899592,0.67403
679.063,72.92868,-2.8332,0.04913975,0.67344
679.763,72.9993,-2.8332,0.04885141,0.67285
680.463,73.06994,-2.83184,0.04504994,0.67227
681.163,73.1407,-2.83127,0.04680966,0.67168
681.863,73.2114,-2.83121,0.04969392,0.6711
682.563,73.2822,-2.83121,0.04826276,0.67051
683.263,73.35293,-2.83119,0.04703598,0.66993
683.963,73.42361,-2.82991,0.04751324,0.66934
684.663,73.49425,-2.83118,0.04856884,0.66876
685.363,73.56465,-2.83187,0.04929692,0.66817
686.063,73.63516,-2.83187,0.05058441,0.66759
686.763,73.70603,-2.83187,0.04886138,0.667
687.463,73.77719,-2.83444,0.05281404,0.66641
688.163,73.8481,-2.83462,0.05310543,0.66583
688.863,73.91866,-2.83462,0.05088054,0.66524
689.563,73.98921,-2.83593,0.0514259,0.66466
690.263,74.0599,-2.8356,0.05293153,0.66407
690.963,74.1306,-2.83681,0.0557765,0.66349
691.663,74.20133,-2.8351,0.054747,0.6629
692.363,74.2722,-2.83456,0.05766342,0.66231
693.063,74.343,-2.83594,0.05774598,0.66173
693.763,74.41359,-2.83594,0.05854773,0.66114
694.463,74.4842,-2.83741,0.06037053,0.66055
695.163,74.55494,-2.83856,0.06443935,0.65997
695.863,74.6258,-2.83722,0.0631779,0.65938
696.563,74.69678,-2.83725,0.05990646,0.6588
697.263,74.76762,-2.836,0.06293841,0.65821
697.963,74.83853,-2.83725,0.06461534,0.65762
698.663,74.90934,-2.83725,0.06525186,0.65704
699.363,74.98014,-2.83989,0.06483873,0.65645
700.063,75.05083,-2.83988,0.06132534,0.65586
700.763,75.12171,-2.84008,0.06609549,0.65528
701.463,75.19259,-2.8412,0.06608477,0.65469
702.163,75.26361,-2.84254,0.06872919,0.6541
702.863,75.33435,-2.84072,0.06446076,0.65352
703.563,75.40528,-2.83978,0.0707138,0.65293
704.263,75.47615,-2.83871,0.06816166,0.65234
704.963,75.54688,-2.83988,0.06829477,0.65176
705.663,75.61746,-2.83864,0.06754293,0.65117
706.363,75.6879,-2.83857,0.07361218,0.65058
707.063,75.7583,-2.83857,0.06827129,0.65
707.763,75.82887,-2.83989,0.07039621,0.64941
708.463,75.89945,-2.8412,0.06932685,0.64882
709.163,75.97025,-2.8412,0.07010027,0.64824
709.863,76.04093,-2.8412,0.07019346,0.64765
710.563,76.11162,-2.84137,0.06777726,0.64706
711.263,76.18241,-2.84118,0.06945842,0.64647
711.963,76.25319,-2.83989,0.06830888,0.64589
712.663,76.32406,-2.84195,0.07182643,0.6453
713.363,76.3948,-2.84318,0.07025726,0.64471
714.063,76.46542,-2.84285,0.06987136,0.64413
714.763,76.53575,-2.84187,0.0680423,0.64354
715.463,76.60645,-2.84121,0.07115411,0.64295
716.163,76.67711,-2.84303,0.07199656,0.64236
716.863,76.748,-2.84316,0.07016601,0.64178
717.563,76.8185,-2.84186,0.07854617,0.64119
718.263,76.88901,-2.84055,0.07215715,0.6406
718.963,76.95979,-2.83922,0.0745691,0.64002
719.663,77.03062,-2.84061,0.07090728,0.63943
720.363,77.10158,-2.84281,0.07407237,0.63884
721.063,77.17226,-2.84462,0.07427771,0.63825
721.763,77.24285,-2.8446,0.07153295,0.63767
722.463,77.31362,-2.84465,0.06849885,0.63708
723.163,77.38457,-2.84592,0.0710701,0.63649
723.863,77.45541,-2.8446,0.06886315,0.6359
724.563,77.526,-2.8456,0.06916391,0.63532
725.263,77.5967,-2.84462,0.0734949,0.63473
725.963,77.66754,-2.84591,0.06939478,0.63414
726.663,77.73869,-2.8446,0.0717729,0.63356
727.363,77.80974,-2.84459,0.07066392,0.63297
728.063,77.88081,-2.84592,0.07134161,0.63238
728.763,77.9517,-2.84591,0.06923169,0.63179
729.463,78.02238,-2.84591,0.07175882,0.63121
730.163,78.09291,-2.84491,0.07188158,0.63062
730.863,78.16385,-2.84361,0.07069397,0.63003
731.563,78.23506,-2.8423,0.07000097,0.62944
732.263,78.30614,-2.84229,0.07099863,0.62886
732.963,78.3771,-2.84492,0.0695002,0.62827
733.663,78.44803,-2.84493,0.06765733,0.62768
734.363,78.5191,-2.84667,0.06624071,0.62709
735.063,78.58999,-2.84757,0.07016955,0.62651
735.763,78.6611,-2.84837,0.06941648,0.62592
736.463,78.7321,-2.8477,0.06779734,0.62533
737.163,78.80317,-2.84888,0.06998809,0.62475
737.863,78.87408,-2.84888,0.06946168,0.62416
738.563,78.94504,-2.84755,0.06917873,0.62357
739.263,79.016,-2.84599,0.06559261,0.62298
739.963,79.08691,-2.84359,0.06443027,0.6224
740.663,79.15794,-2.84361,0.06424889,0.62181
741.363,79.22896,-2.84361,0.06727464,0.62122
742.063,79.29985,-2.84642,0.06795687,0.62063
742.763,79.3707,-2.8493,0.06928826,0.62005
743.463,79.44162,-2.84791,0.07296626,0.61946
744.163,79.51256,-2.84931,0.0702972,0.61887
744.863,79.58336,-2.84822,0.06681181,0.61829
745.563,79.65416,-2.84768,0.07039893,0.6177
746.263,79.72514,-2.84742,0.06446762,0.61711
746.963,79.79602,-2.84734,0.06811791,0.61652
747.663,79.86709,-2.84923,0.06982448,0.61594
748.363,79.93794,-2.85208,0.06810539,0.61535
748.863,79.98917,-2.8525,0.06541255,0.61493