File: 01_Data/Straw/STA/N2/10K_min/Straw_STA_N2_10KData_220429_R1.csv
##Temp./Â°C,Time/min,Mass loss(subtr.2)/mg,DSC(subtr.2)/(mW/mg),Sensit./(uV/mW)
49.83,10.01,0.01349,0.01762234,1.06049
50.43,10.7343,0.01304649,0.04579241,1.06037
51.03,10.926,0.01405439,0.06868664,1.06024
51.63,11.0672,0.01303367,0.0909285,1.06012
52.23,11.18593,0.01373119,0.106,1.05999
52.83,11.29144,0.01353603,0.12113,1.05987
53.43,11.38766,0.01419265,0.13334,1.05974
54.03,11.47712,0.01667956,0.14429,1.05961
54.63,11.5625,0.01258998,0.15331,1.05949
55.23,11.64432,0.01410262,0.1636,1.05936
55.83,11.72295,0.01311318,0.16953,1.05923
56.43,11.79965,0.01450279,0.176,1.0591
57.03,11.8742,0.01456123,0.18271,1.05897
57.63,11.94786,0.01432601,0.18927,1.05884
58.23,12.01984,0.01303291,0.19887,1.0587
58.83,12.09074,0.01441551,0.20314,1.05857
59.43,12.16043,0.01536991,0.20461,1.05844
60.03,12.22948,0.01569118,0.21243,1.0583
60.63,12.2982,0.01518006,0.21243,1.05817
61.23,12.36625,0.01433076,0.2164,1.05803
61.83,12.43368,0.01551497,0.21833,1.0579
62.43,12.5006,0.0156809,0.22204,1.05776
63.03,12.56736,0.01355249,0.22553,1.05762
63.63,12.63364,0.01427358,0.23095,1.05748
64.23,12.6996,0.01335915,0.23254,1.05735
64.83,12.76496,0.01330993,0.23546,1.05721
65.43,12.8302,0.01437051,0.24018,1.05707
66.03,12.89532,0.01542137,0.23913,1.05693
66.63,12.96021,0.01468322,0.24322,1.05678
67.23,13.02528,0.01480138,0.24463,1.05664
67.83,13.08986,0.01436582,0.24816,1.0565
68.43,13.15441,0.01568085,0.25213,1.05636
69.03,13.21879,0.01570823,0.25378,1.05621
69.63,13.2825,0.01435986,0.25431,1.05607
70.23,13.34658,0.01488208,0.25918,1.05592
70.83,13.41054,0.01469912,0.26104,1.05578
71.43,13.4745,0.01427243,0.26374,1.05563
72.03,13.5381,0.01436965,0.26954,1.05548
72.63,13.60181,0.01301932,0.2675,1.05533
73.23,13.6653,0.01437708,0.26967,1.05518
73.83,13.7287,0.01305038,0.27434,1.05504
74.43,13.7917,0.0119381,0.27515,1.05489
75.03,13.85471,0.01091029,0.27689,1.05473
75.63,13.91761,0.0117648,0.28103,1.05458
76.23,13.98035,0.01139651,0.28339,1.05443
76.83,14.04304,0.01173136,0.28441,1.05428
77.43,14.1056,0.01182507,0.28673,1.05413
78.03,14.16819,0.01172478,0.28997,1.05397
78.63,14.23075,0.0117024,0.29151,1.05382
79.23,14.2931,0.01173996,0.29435,1.05366
79.83,14.35539,0.01171594,0.29595,1.05351
80.43,14.41726,0.009874476,0.29637,1.05335
81.03,14.47894,0.009304215,0.30044,1.05319
81.63,14.5405,0.008953115,0.30294,1.05303
82.23,14.6021,0.00801691,0.30339,1.05288
82.83,14.6635,0.008991575,0.30499,1.05272
83.43,14.7249,0.00769444,0.30729,1.05256
84.03,14.78592,0.007696071,0.30892,1.0524
84.63,14.84707,0.00899696,0.30941,1.05224
85.23,14.9072,0.007694236,0.31249,1.05207
85.83,14.968,0.009001485,0.31396,1.05191
86.43,15.02863,0.009066467,0.31564,1.05175
87.03,15.08951,0.007999955,0.31549,1.05158
87.63,15.15003,0.00766757,0.31718,1.05142
88.23,15.21028,0.00668002,0.31557,1.05126
88.83,15.2701,0.00668,0.31897,1.05109
89.43,15.3304,0.00667989,0.31849,1.05092
90.03,15.39035,0.005368643,0.31835,1.05076
90.63,15.45028,0.00537,0.32164,1.05059
91.23,15.51045,0.005372138,0.32134,1.05042
91.83,15.56962,0.006361236,0.32197,1.05025
92.43,15.62943,0.0050418,0.32177,1.05008
93.03,15.689,0.00569847,0.32086,1.04991
93.63,15.7491,0.00439214,0.32197,1.04974
94.23,15.80902,0.004389522,0.32464,1.04957
94.83,15.86855,0.003055962,0.32249,1.0494
95.43,15.92785,0.00307022,0.324,1.04923
96.03,15.98732,0.00186723,0.32302,1.04905
96.63,16.04674,0.001750048,0.32162,1.04888
97.23,16.10623,0.00175,0.32139,1.0487
97.83,16.16551,0.00175,0.32096,1.04853
98.43,16.22427,0.001750859,0.31928,1.04835
99.03,16.2832,0.001151035,0.31855,1.04818
99.63,16.34221,0.001100455,0.31653,1.048
100.23,16.40179,0.0024502,0.31632,1.04782
100.83,16.46115,0.001097794,0.31529,1.04764
101.43,16.5201,0.001090002,0.31324,1.04746
102.03,16.57907,0.001065901,0.31354,1.04729
102.63,16.63786,0.001248472,0.31297,1.0471
103.23,16.69698,0.00109008,0.31215,1.04692
103.83,16.75581,0.001090036,0.31207,1.04674
104.43,16.8148,0.001177075,0.31145,1.04656
105.03,16.8736,-0.0002196916,0.31235,1.04638
105.63,16.93243,-0.0006561609,0.31229,1.04619
106.23,16.9912,-0.0002200443,0.31098,1.04601
106.83,17.04993,0.0001041775,0.31208,1.04583
107.43,17.10864,-0.0002327224,0.3089,1.04564
108.03,17.16739,-0.001510545,0.30497,1.04545
108.63,17.2263,-0.001530012,0.30345,1.04527
109.23,17.28492,-0.00157748,0.30329,1.04508
109.83,17.34389,-0.001514695,0.30364,1.04489
110.43,17.4025,-0.001539992,0.2995,1.0447
111.03,17.46133,-0.00154,0.29943,1.04452
111.63,17.52,-0.001539999,0.30015,1.04433
112.23,17.57875,-0.002813312,0.29731,1.04414
112.83,17.63745,-0.00286046,0.29915,1.04394
113.43,17.69605,-0.00178661,0.29657,1.04375
114.03,17.7547,-0.00186997,0.2985,1.04356
114.63,17.81311,-0.001878611,0.29625,1.04337
115.23,17.87138,-0.003191409,0.29906,1.04317
115.83,17.92979,-0.00285323,0.29592,1.04298
116.43,17.98803,-0.002524435,0.29784,1.04279
117.03,18.0468,-0.00284955,0.29615,1.04259
117.63,18.10539,-0.002863311,0.29584,1.04239
118.23,18.16367,-0.004173738,0.2963,1.0422
118.83,18.22227,-0.004169262,0.29571,1.042
119.43,18.28068,-0.0028575,0.29413,1.0418
120.03,18.3391,-0.002860445,0.29513,1.04161
120.63,18.39754,-0.004195503,0.29298,1.04141
121.23,18.456,-0.003830555,0.29311,1.04121
121.83,18.5146,-0.002849741,0.29237,1.04101
122.43,18.57309,-0.002847609,0.29003,1.04081
123.03,18.63157,-0.004160559,0.28717,1.0406
123.63,18.6898,-0.004166704,0.28978,1.0404
124.23,18.74805,-0.003374261,0.2887,1.0402
124.83,18.8063,-0.00449032,0.28668,1.04
125.43,18.86455,-0.004347216,0.28643,1.03979
126.03,18.92288,-0.004170046,0.28625,1.03959
126.63,18.98112,-0.004170056,0.28851,1.03938
127.23,19.03952,-0.003550334,0.28724,1.03918
127.83,19.09789,-0.002849885,0.28632,1.03897
128.43,19.15615,-0.002842281,0.28754,1.03876
129.03,19.21442,-0.0054626,0.28773,1.03856
129.63,19.2724,-0.005473584,0.28735,1.03835
130.23,19.33053,-0.004169674,0.28749,1.03814
130.83,19.38865,-0.00315273,0.28804,1.03793
131.43,19.44683,-0.00432753,0.28773,1.03772
132.03,19.50509,-0.004170079,0.28926,1.03751
132.63,19.56319,-0.004170084,0.29056,1.0373
133.23,19.62111,-0.004243632,0.29134,1.03709
133.83,19.67886,-0.005479969,0.29071,1.03687
134.43,19.73647,-0.005465976,0.29225,1.03666
135.03,19.79449,-0.00416646,0.29216,1.03645
135.63,19.8526,-0.003582524,0.29132,1.03623
136.23,19.91052,-0.00284965,0.29099,1.03602
136.83,19.9682,-0.003840073,0.29345,1.0358
137.43,20.02607,-0.005158564,0.29153,1.03559
138.03,20.08401,-0.005159984,0.29376,1.03537
138.63,20.14207,-0.005138927,0.29342,1.03515
139.23,20.20022,-0.0061308,0.29561,1.03494
139.83,20.2582,-0.005829153,0.29481,1.03472
140.43,20.31615,-0.005150388,0.29732,1.0345
141.03,20.37414,-0.005154138,0.29591,1.03428
141.63,20.4317,-0.004495337,0.29719,1.03406
142.23,20.48934,-0.005136923,0.29838,1.03384
142.83,20.54663,-0.00515995,0.29847,1.03362
143.43,20.6047,-0.005161792,0.29942,1.0334
144.03,20.66248,-0.00612442,0.29929,1.03317
144.63,20.7208,-0.00653833,0.30054,1.03295
145.23,20.77835,-0.007465149,0.29818,1.03273
145.83,20.8361,-0.006149379,0.30014,1.0325
146.43,20.89394,-0.004822154,0.30096,1.03228
147.03,20.9518,-0.005843824,0.30023,1.03205
147.63,21.00946,-0.00647995,0.29971,1.03183
148.23,21.0672,-0.006476917,0.3028,1.0316
148.83,21.12483,-0.006526992,0.30405,1.03137
149.43,21.1825,-0.00646904,0.30556,1.03114
150.03,21.24071,-0.005147375,0.3058,1.03092
150.63,21.29836,-0.005109229,0.30484,1.03069
151.23,21.35604,-0.004840345,0.30724,1.03046
151.83,21.41374,-0.005782879,0.30876,1.03023
152.43,21.4713,-0.00613996,0.30872,1.03
153.03,21.52907,-0.006140315,0.30686,1.02976
153.63,21.58672,-0.006463799,0.30757,1.02953
154.23,21.6443,-0.00663662,0.30922,1.0293
154.83,21.70192,-0.006479819,0.30925,1.02907
155.43,21.75948,-0.00648,0.30825,1.02883
156.03,21.81687,-0.00648,0.31054,1.0286
156.63,21.87453,-0.00648,0.31145,1.02836
157.23,21.93228,-0.006476725,0.31021,1.02813
157.83,21.98992,-0.007790091,0.31056,1.02789
158.43,22.04772,-0.007790018,0.30978,1.02766
159.03,22.10536,-0.007840829,0.31041,1.02742
159.63,22.16283,-0.00647095,0.31155,1.02718
160.23,22.22039,-0.00647,0.31387,1.02694
160.83,22.2778,-0.006470061,0.31322,1.0267
161.43,22.33531,-0.0067563,0.31534,1.02647
162.03,22.39301,-0.007790259,0.31465,1.02623
162.63,22.4503,-0.00778997,0.31548,1.02598
163.23,22.50797,-0.007438007,0.31646,1.02574
163.83,22.5656,-0.007129374,0.31661,1.0255
164.43,22.62306,-0.00674263,0.31682,1.02526
165.03,22.6808,-0.007780015,0.31582,1.02502
165.63,22.7384,-0.007780218,0.31897,1.02477
166.23,22.7959,-0.006874181,0.31992,1.02453
166.83,22.85347,-0.006800024,0.31832,1.02428
167.43,22.91103,-0.0068,0.31858,1.02404
168.03,22.96869,-0.00680008,0.31933,1.02379
168.63,23.0261,-0.00739127,0.31925,1.02355
169.23,23.08367,-0.008119031,0.32194,1.0233
169.83,23.14128,-0.007471421,0.32305,1.02305
170.43,23.19885,-0.007460034,0.32268,1.02281
171.03,23.2563,-0.00782278,0.32249,1.02256
171.63,23.31369,-0.008780266,0.32336,1.02231
172.23,23.37087,-0.00878,0.32321,1.02206
172.83,23.42804,-0.00878,0.32314,1.02181
173.43,23.48485,-0.00878,0.32399,1.02156
174.03,23.54206,-0.008780128,0.32525,1.02131
174.63,23.5997,-0.009759601,0.32491,1.02105
175.23,23.65755,-0.01002203,0.3253,1.0208
175.83,23.71562,-0.009771551,0.32638,1.02055
176.43,23.77303,-0.01112937,0.32747,1.02029
177.03,23.8304,-0.01108,0.32652,1.02004
177.63,23.88782,-0.01107998,0.32622,1.01979
178.23,23.94537,-0.01103094,0.32501,1.01953
178.83,24.00301,-0.012389,0.3274,1.01927
179.43,24.06033,-0.01238475,0.32685,1.01902
180.03,24.11768,-0.01501838,0.32691,1.01876
180.63,24.1751,-0.01498766,0.3287,1.0185
181.23,24.23237,-0.01305075,0.32996,1.01824
181.83,24.2899,-0.01305,0.33028,1.01799
182.43,24.34729,-0.01304952,0.32886,1.01773
183.03,24.40472,-0.01434514,0.33087,1.01747
183.63,24.46209,-0.01436999,0.32917,1.01721
184.23,24.51941,-0.01437,0.32878,1.01695
184.83,24.5768,-0.01437,0.32992,1.01668
185.43,24.63406,-0.01436496,0.32687,1.01642
186.03,24.69138,-0.01600304,0.32965,1.01616
186.63,24.74861,-0.01601,0.33055,1.0159
187.23,24.806,-0.01601015,0.32873,1.01563
187.83,24.86351,-0.01633262,0.32652,1.01537
188.43,24.92098,-0.01699992,0.33123,1.0151
189.03,24.97839,-0.01701843,0.3299,1.01484
189.63,25.03565,-0.01830918,0.32937,1.01457
190.23,25.09253,-0.0192852,0.32991,1.01431
190.83,25.14958,-0.01930016,0.33013,1.01404
191.43,25.2068,-0.01962384,0.32888,1.01377
192.03,25.26391,-0.01963,0.33037,1.0135
192.63,25.3215,-0.01963832,0.33262,1.01324
193.23,25.37872,-0.02094964,0.33095,1.01297
193.83,25.43593,-0.02151657,0.33394,1.0127
194.43,25.4927,-0.02229099,0.33547,1.01243
195.03,25.54993,-0.02358998,0.33692,1.01216
195.63,25.60709,-0.02355601,0.33629,1.01189
196.23,25.6645,-0.02392045,0.33719,1.01161
196.83,25.72178,-0.02494542,0.33938,1.01134
197.43,25.77884,-0.02489991,0.33868,1.01107
198.03,25.83578,-0.02655499,0.3388,1.0108
198.63,25.89249,-0.02752905,0.33853,1.01052
199.23,25.9494,-0.02622291,0.34039,1.01025
199.83,26.00626,-0.02734944,0.34158,1.00997
200.43,26.0634,-0.02746323,0.34217,1.0097
201.03,26.12045,-0.02884264,0.34312,1.00942
201.63,26.17742,-0.03015861,0.34289,1.00914
202.23,26.23439,-0.03103504,0.34245,1.00887
202.83,26.2914,-0.0321401,0.3437,1.00859
203.43,26.3484,-0.03266519,0.34016,1.00831
204.03,26.4054,-0.03481636,0.34275,1.00803
204.63,26.4625,-0.03476993,0.34215,1.00775
205.23,26.51955,-0.03537507,0.34602,1.00747
205.83,26.5765,-0.03677606,0.34067,1.00719
206.43,26.6337,-0.03806056,0.34259,1.00691
207.03,26.69077,-0.03808641,0.34018,1.00663
207.63,26.74772,-0.03955343,0.33882,1.00635
208.23,26.80462,-0.0416724,0.33749,1.00607
208.83,26.86164,-0.04412593,0.33716,1.00578
209.43,26.91855,-0.04458584,0.33696,1.0055
210.03,26.97584,-0.04590797,0.33681,1.00521
210.63,27.03305,-0.04727484,0.33603,1.00493
211.23,27.08979,-0.04860019,0.3356,1.00465
211.83,27.147,-0.04991956,0.33327,1.00436
212.43,27.20423,-0.05144241,0.33584,1.00407
213.03,27.2614,-0.05389342,0.33355,1.00379
213.63,27.31888,-0.05539038,0.33421,1.0035
214.23,27.37582,-0.05709045,0.33297,1.00321
214.83,27.4328,-0.05934796,0.3333,1.00292
215.43,27.48995,-0.06065984,0.33531,1.00263
216.03,27.5472,-0.0620008,0.33537,1.00235
216.63,27.6046,-0.06462417,0.33476,1.00206
217.23,27.6619,-0.06644291,0.33654,1.00177
217.83,27.7192,-0.06879509,0.33661,1.00147
218.43,27.7763,-0.07031126,0.33662,1.00118
219.03,27.8332,-0.07275723,0.33736,1.00089
219.63,27.89035,-0.07550124,0.3383,1.0006
220.23,27.94758,-0.07736174,0.33683,1.00031
220.83,28.00484,-0.0799096,0.33873,1.00001
221.43,28.06225,-0.08169834,0.33661,0.99972
222.03,28.11938,-0.08467183,0.33846,0.99942
222.63,28.1765,-0.08739141,0.33773,0.99913
223.23,28.23361,-0.09120753,0.33906,0.99883
223.83,28.29092,-0.09328064,0.3397,0.99854
224.43,28.34828,-0.09504493,0.34205,0.99824
225.03,28.4056,-0.09673226,0.33905,0.99794
225.63,28.46295,-0.10061,0.34196,0.99765
226.23,28.52017,-0.10365,0.34499,0.99735
226.83,28.57723,-0.10737,0.34516,0.99705
227.43,28.63447,-0.10984,0.34574,0.99675
228.03,28.69169,-0.11495,0.34507,0.99645
228.63,28.74897,-0.11793,0.34763,0.99615
229.23,28.8059,-0.11984,0.35075,0.99585
229.83,28.86297,-0.12322,0.35205,0.99555
230.43,28.92008,-0.12626,0.35134,0.99525
231.03,28.97705,-0.12758,0.35359,0.99495
231.63,29.03456,-0.13191,0.35295,0.99464
232.23,29.09184,-0.13607,0.35466,0.99434
232.83,29.1492,-0.13978,0.35718,0.99404
233.43,29.2064,-0.14326,0.3572,0.99373
234.03,29.26363,-0.14686,0.35945,0.99343
234.63,29.32037,-0.14971,0.36121,0.99312
235.23,29.3775,-0.1528,0.36286,0.99282
235.83,29.43473,-0.1572,0.36279,0.99251
236.43,29.49189,-0.1603,0.36292,0.99221
237.03,29.54962,-0.16515,0.36182,0.9919
237.63,29.60635,-0.17014,0.36111,0.99159
238.23,29.66305,-0.17346,0.36117,0.99128
238.83,29.7202,-0.17705,0.36161,0.99097
239.43,29.7773,-0.18084,0.36039,0.99067
240.03,29.8347,-0.18374,0.36177,0.99036
240.63,29.8923,-0.18892,0.36153,0.99005
241.23,29.9495,-0.19323,0.36113,0.98974
241.83,30.0066,-0.19766,0.36108,0.98942
242.43,30.06366,-0.20228,0.36121,0.98911
243.03,30.1208,-0.20635,0.3604,0.9888
243.63,30.17775,-0.20918,0.35846,0.98849
244.23,30.23477,-0.21231,0.35947,0.98818
244.83,30.2917,-0.21684,0.35754,0.98786
245.43,30.34885,-0.22152,0.35638,0.98755
246.03,30.4059,-0.22566,0.35615,0.98723
246.63,30.46282,-0.23005,0.35614,0.98692
247.23,30.51988,-0.23352,0.35404,0.9866
247.83,30.57677,-0.23888,0.35293,0.98629
248.43,30.6337,-0.24304,0.35198,0.98597
249.03,30.6909,-0.24686,0.35133,0.98565
249.63,30.7477,-0.25237,0.35017,0.98534
250.23,30.8049,-0.25559,0.35015,0.98502
250.83,30.86215,-0.26031,0.34797,0.9847
251.43,30.91928,-0.26583,0.34699,0.98438
252.03,30.9769,-0.2693,0.34437,0.98406
252.63,31.03401,-0.27364,0.34184,0.98374
253.23,31.0909,-0.27848,0.34371,0.98342
253.83,31.14798,-0.28209,0.33991,0.9831
254.43,31.20495,-0.28879,0.33729,0.98278
255.03,31.26212,-0.29296,0.33707,0.98246
255.63,31.3196,-0.298,0.33536,0.98214
256.23,31.3768,-0.30151,0.33482,0.98181
256.83,31.4341,-0.30674,0.33342,0.98149
257.43,31.4913,-0.31276,0.33027,0.98117
258.03,31.5484,-0.31598,0.32822,0.98084
258.63,31.60555,-0.32125,0.32752,0.98052
259.23,31.66273,-0.32574,0.32696,0.98019
259.83,31.71985,-0.3319,0.32225,0.97987
260.43,31.77686,-0.33689,0.32208,0.97954
261.03,31.83404,-0.34152,0.32061,0.97922
261.63,31.8912,-0.34696,0.31876,0.97889
262.23,31.9487,-0.35275,0.31665,0.97856
262.83,32.0062,-0.35955,0.31639,0.97823
263.43,32.06345,-0.36515,0.31342,0.97791
264.03,32.1207,-0.37137,0.31137,0.97758
264.63,32.1779,-0.37752,0.31093,0.97725
265.23,32.23495,-0.38367,0.30841,0.97692
265.83,32.29222,-0.3904,0.30901,0.97659
266.43,32.34917,-0.39577,0.30588,0.97626
267.03,32.4065,-0.40233,0.30192,0.97593
267.63,32.46386,-0.40792,0.3034,0.9756
268.23,32.52101,-0.41586,0.30049,0.97526
268.83,32.57863,-0.42258,0.29908,0.97493
269.43,32.63608,-0.43067,0.29717,0.9746
270.03,32.69347,-0.43788,0.29514,0.97426
270.63,32.75107,-0.44514,0.29378,0.97393
271.23,32.8084,-0.45282,0.29164,0.9736
271.83,32.86566,-0.4593,0.28822,0.97326
272.43,32.92301,-0.46786,0.28648,0.97293
273.03,32.97985,-0.47514,0.28429,0.97259
273.63,33.03712,-0.48419,0.283,0.97225
274.23,33.09434,-0.49248,0.27878,0.97192
274.83,33.15166,-0.50148,0.27903,0.97158
275.43,33.20909,-0.51005,0.27467,0.97124
276.03,33.26638,-0.51854,0.27385,0.97091
276.63,33.3236,-0.52813,0.26897,0.97057
277.23,33.38055,-0.53698,0.26806,0.97023
277.83,33.43793,-0.54669,0.26569,0.96989
278.43,33.49535,-0.5583,0.26534,0.96955
279.03,33.553,-0.56831,0.2646,0.96921
279.63,33.61053,-0.57655,0.26222,0.96887
280.23,33.6678,-0.58727,0.26002,0.96853
280.83,33.7252,-0.59847,0.25712,0.96819
281.43,33.78222,-0.61057,0.25507,0.96784
282.03,33.8395,-0.62127,0.25227,0.9675
282.63,33.8968,-0.63342,0.25081,0.96716
283.23,33.9542,-0.64475,0.24733,0.96681
283.83,34.01163,-0.65575,0.24431,0.96647
284.43,34.06899,-0.66818,0.24283,0.96613
285.03,34.12634,-0.681,0.24102,0.96578
285.63,34.1838,-0.69327,0.24035,0.96544
286.23,34.24119,-0.70649,0.23564,0.96509
286.83,34.29841,-0.71976,0.23497,0.96474
287.43,34.35582,-0.73283,0.23433,0.9644
288.03,34.41298,-0.74723,0.23086,0.96405
288.63,34.4703,-0.76229,0.22953,0.9637
289.23,34.52774,-0.77645,0.22828,0.96336
289.83,34.58494,-0.79052,0.22594,0.96301
290.43,34.64204,-0.80524,0.22617,0.96266
291.03,34.69938,-0.82122,0.22319,0.96231
291.63,34.75657,-0.83667,0.22023,0.96196
292.23,34.8142,-0.85147,0.2177,0.96161
292.83,34.87162,-0.86815,0.21701,0.96126
293.43,34.92893,-0.88277,0.21635,0.96091
294.03,34.98616,-0.89993,0.21453,0.96056
294.63,35.04355,-0.91599,0.21117,0.96021
295.23,35.10086,-0.9323,0.20961,0.95985
295.83,35.15818,-0.95011,0.20768,0.9595
296.43,35.2156,-0.96619,0.20577,0.95915
297.03,35.2729,-0.9826,0.20413,0.95879
297.63,35.33052,-1.00019,0.20083,0.95844
298.23,35.38798,-1.01982,0.19908,0.95809
298.83,35.44547,-1.03761,0.19474,0.95773
299.43,35.50278,-1.05677,0.19554,0.95738
300.03,35.55959,-1.07415,0.19308,0.95702
300.63,35.61717,-1.09345,0.19114,0.95666
301.23,35.67438,-1.11319,0.19048,0.95631
301.83,35.73222,-1.1337,0.18914,0.95595
302.43,35.79,-1.15313,0.18468,0.95559
303.03,35.84722,-1.17139,0.17963,0.95524
303.63,35.9048,-1.19074,0.18062,0.95488
304.23,35.96178,-1.21126,0.1771,0.95452
304.83,36.01913,-1.23154,0.17819,0.95416
305.43,36.0769,-1.25218,0.17198,0.9538
306.03,36.13404,-1.27173,0.17018,0.95344
306.63,36.19187,-1.29362,0.16875,0.95308
307.23,36.24942,-1.31329,0.16662,0.95272
307.83,36.30695,-1.33619,0.16314,0.95236
308.43,36.3646,-1.35733,0.16149,0.952
309.03,36.4221,-1.37766,0.15913,0.95163
309.63,36.47957,-1.39859,0.15472,0.95127
310.23,36.537,-1.42032,0.1528,0.95091
310.83,36.5944,-1.44313,0.15039,0.95055
311.43,36.65185,-1.46337,0.14557,0.95018
312.03,36.7093,-1.48583,0.14271,0.94982
312.63,36.76681,-1.5077,0.14035,0.94945
313.23,36.8243,-1.53026,0.1343,0.94909
313.83,36.88153,-1.55179,0.13447,0.94872
314.43,36.93918,-1.57286,0.12541,0.94836
315.03,36.99684,-1.59527,0.12135,0.94799
315.63,37.05453,-1.61652,0.11797,0.94763
316.23,37.1124,-1.64063,0.11019,0.94726
316.83,37.17006,-1.66166,0.10783,0.94689
317.43,37.22777,-1.68608,0.10174,0.94652
318.03,37.28552,-1.70625,0.09607052,0.94615
318.63,37.34321,-1.72772,0.09017339,0.94579
319.23,37.40083,-1.74877,0.08648179,0.94542
319.83,37.45825,-1.77135,0.07844599,0.94505
320.43,37.51582,-1.79308,0.07117765,0.94468
321.03,37.57338,-1.81249,0.06565188,0.94431
321.63,37.6311,-1.83331,0.06002672,0.94394
322.23,37.689,-1.85347,0.05548003,0.94357
322.83,37.7468,-1.87441,0.04827266,0.94319
323.43,37.80482,-1.89389,0.04134023,0.94282
324.03,37.8626,-1.91476,0.03707484,0.94245
324.63,37.9201,-1.93423,0.03558777,0.94208
325.23,37.9777,-1.95265,0.02947572,0.9417
325.83,38.03519,-1.97107,0.0233805,0.94133
326.43,38.09277,-1.98778,0.01782198,0.94096
327.03,38.15036,-2.00617,0.01492052,0.94058
327.63,38.20812,-2.02235,0.01282446,0.94021
328.23,38.2659,-2.03879,0.009407169,0.93983
328.83,38.32347,-2.05391,0.00765192,0.93946
329.43,38.3812,-2.06873,0.01037634,0.93908
330.03,38.43881,-2.08206,0.007636239,0.93871
330.63,38.49646,-2.09526,0.01005364,0.93833
331.23,38.55425,-2.10788,0.01205879,0.93795
331.83,38.612,-2.11978,0.01740894,0.93757
332.43,38.66977,-2.13071,0.0207848,0.9372
333.03,38.72752,-2.1425,0.02792099,0.93682
333.63,38.7851,-2.15147,0.03137196,0.93644
334.23,38.8429,-2.16073,0.03504679,0.93606
334.83,38.90064,-2.16911,0.04025276,0.93568
335.43,38.95828,-2.17615,0.04375715,0.9353
336.03,39.01618,-2.18392,0.04761752,0.93492
336.63,39.0738,-2.19269,0.05347217,0.93454
337.23,39.1316,-2.19867,0.0573066,0.93416
337.83,39.18947,-2.20442,0.06044458,0.93378
338.43,39.24713,-2.20941,0.06255344,0.9334
339.03,39.3049,-2.21534,0.06476898,0.93301
339.63,39.36257,-2.22085,0.06786408,0.93263
340.23,39.42027,-2.22501,0.06900994,0.93225
340.83,39.47789,-2.23082,0.0704494,0.93187
341.43,39.53564,-2.23555,0.07064819,0.93148
342.03,39.59359,-2.23975,0.06964713,0.9311
342.63,39.65141,-2.24471,0.0711359,0.93071
343.23,39.70897,-2.25011,0.07249769,0.93033
343.83,39.7667,-2.25339,0.07245594,0.92994
344.43,39.82459,-2.25643,0.07197958,0.92956
345.03,39.88273,-2.26018,0.07280405,0.92917
345.63,39.94121,-2.26438,0.07174898,0.92879
346.23,39.99904,-2.26791,0.06938925,0.9284
346.83,40.05688,-2.27239,0.06960867,0.92801
347.43,40.11462,-2.27588,0.07080494,0.92762
348.03,40.17246,-2.27793,0.07054865,0.92724
348.63,40.23033,-2.28174,0.06903734,0.92685
349.23,40.28817,-2.28505,0.06961091,0.92646
349.83,40.346,-2.28701,0.06830934,0.92607
350.43,40.40365,-2.29155,0.06895411,0.92568
351.03,40.46156,-2.29545,0.07026261,0.92529
351.63,40.51952,-2.29933,0.06659506,0.9249
352.23,40.57754,-2.30227,0.06890955,0.92451
352.83,40.63556,-2.30421,0.06707572,0.92412
353.43,40.6934,-2.30683,0.06684967,0.92373
354.03,40.75131,-2.31034,0.066975,0.92334
354.63,40.80915,-2.31188,0.06811527,0.92294
355.23,40.86701,-2.31477,0.06607683,0.92255
355.83,40.92505,-2.318,0.0660444,0.92216
356.43,40.98277,-2.32107,0.06421797,0.92177
357.03,41.04056,-2.32425,0.06507724,0.92137
357.63,41.098,-2.32718,0.06453573,0.92098
358.23,41.15593,-2.3304,0.06325817,0.92059
358.83,41.21403,-2.33201,0.06042448,0.92019
359.43,41.27211,-2.33466,0.06075961,0.9198
360.03,41.33043,-2.33624,0.06013668,0.9194
360.63,41.38836,-2.33893,0.05927391,0.919
361.23,41.4463,-2.34198,0.05772246,0.91861
361.83,41.5043,-2.3433,0.05772371,0.91821
362.43,41.5623,-2.34612,0.05899135,0.91782
363.03,41.62039,-2.34772,0.05669499,0.91742
363.63,41.6783,-2.35003,0.05596822,0.91702
364.23,41.73632,-2.3518,0.05621544,0.91662
364.83,41.7943,-2.35536,0.06026029,0.91623
365.43,41.85201,-2.35748,0.05401031,0.91583
366.03,41.91004,-2.35946,0.05556418,0.91543
366.63,41.9681,-2.3615,0.05372326,0.91503
367.23,42.0262,-2.3645,0.05479529,0.91463
367.83,42.08433,-2.36749,0.05444579,0.91423
368.43,42.14228,-2.36902,0.05388193,0.91383
369.03,42.20046,-2.36937,0.05331956,0.91343
369.63,42.2585,-2.37193,0.05142358,0.91303
370.23,42.31608,-2.37462,0.0513366,0.91263
370.83,42.37404,-2.37768,0.05115949,0.91222
371.43,42.432,-2.37903,0.04806667,0.91182
372.03,42.49035,-2.38086,0.04640524,0.91142
372.63,42.54849,-2.38215,0.04754517,0.91102
373.23,42.60671,-2.38434,0.04747401,0.91061
373.83,42.66475,-2.38656,0.04869923,0.91021
374.43,42.72303,-2.38987,0.04860755,0.90981
375.03,42.78131,-2.39251,0.04866624,0.9094
375.63,42.8394,-2.39245,0.04795493,0.909
376.23,42.89757,-2.39501,0.04854234,0.90859
376.83,42.95568,-2.39657,0.04555528,0.90819
377.43,43.0137,-2.39801,0.04692174,0.90778
378.03,43.0719,-2.40072,0.04591615,0.90738
378.63,43.1299,-2.40091,0.04564383,0.90697
379.23,43.1881,-2.40308,0.04647693,0.90656
379.83,43.2462,-2.40455,0.04661757,0.90616
380.43,43.30427,-2.40763,0.04376429,0.90575
381.03,43.36261,-2.40906,0.04448056,0.90534
381.63,43.42093,-2.41181,0.04211194,0.90493
382.23,43.4794,-2.4132,0.04303227,0.90453
382.83,43.53791,-2.41447,0.04363565,0.90412
383.43,43.59585,-2.41817,0.04111343,0.90371
384.03,43.65416,-2.42005,0.04202336,0.9033
384.63,43.71253,-2.42101,0.04278611,0.90289
385.23,43.77098,-2.42302,0.0416703,0.90248
385.83,43.82951,-2.42439,0.04065288,0.90207
386.43,43.88776,-2.42723,0.04040566,0.90166
387.03,43.94582,-2.42835,0.03880989,0.90125
387.63,44.0044,-2.42986,0.03917405,0.90084
388.23,44.06256,-2.43124,0.03736008,0.90042
388.83,44.121,-2.4341,0.03849661,0.90001
389.43,44.17948,-2.43504,0.03967834,0.8996
390.03,44.2378,-2.43778,0.0374994,0.89919
390.63,44.2961,-2.43952,0.03935103,0.89877
391.23,44.35412,-2.44086,0.03814754,0.89836
391.83,44.41245,-2.44216,0.03760739,0.89795
392.43,44.47088,-2.44347,0.03653602,0.89753
393.03,44.52935,-2.44498,0.03807359,0.89712
393.63,44.58783,-2.44842,0.03835966,0.8967
394.23,44.64626,-2.44926,0.03479314,0.89629
394.83,44.70453,-2.45066,0.03626045,0.89587
395.43,44.76299,-2.45204,0.03806754,0.89546
396.03,44.82121,-2.45422,0.0346113,0.89504
396.63,44.8795,-2.45518,0.03765374,0.89463
397.23,44.93793,-2.45688,0.03427259,0.89421
397.83,44.9964,-2.45809,0.03554016,0.89379
398.43,45.05473,-2.4609,0.03458229,0.89338
399.03,45.1132,-2.4626,0.03342156,0.89296
399.63,45.17153,-2.46527,0.03388994,0.89254
400.23,45.22979,-2.46518,0.03611534,0.89212
400.83,45.28833,-2.46652,0.03674645,0.8917
401.43,45.34693,-2.46799,0.03537301,0.89128
402.03,45.40551,-2.47138,0.03843898,0.89087
402.63,45.46417,-2.47327,0.03766065,0.89045
403.23,45.52258,-2.47358,0.03681131,0.89003
403.83,45.58097,-2.47496,0.03931882,0.88961
404.43,45.6395,-2.47628,0.03961455,0.88919
405.03,45.6979,-2.47752,0.03690684,0.88876
405.63,45.7564,-2.47903,0.0359543,0.88834
406.23,45.81485,-2.48148,0.03791796,0.88792
406.83,45.8735,-2.48306,0.03608113,0.8875
407.43,45.93215,-2.4844,0.03527353,0.88708
408.03,45.99087,-2.48445,0.03596263,0.88666
408.63,46.04938,-2.48664,0.03752331,0.88623
409.23,46.1079,-2.4884,0.03780423,0.88581
409.83,46.16617,-2.49036,0.04097149,0.88539
410.43,46.2247,-2.49133,0.04163218,0.88496
411.03,46.2832,-2.49358,0.04048869,0.88454
411.63,46.34192,-2.49471,0.04391267,0.88412
412.23,46.4003,-2.49506,0.04094437,0.88369
412.83,46.45874,-2.49626,0.03907882,0.88327
413.43,46.51726,-2.49747,0.0419061,0.88284
414.03,46.57584,-2.5003,0.04121874,0.88242
414.63,46.63429,-2.50089,0.0406637,0.88199
415.23,46.69287,-2.50217,0.04059881,0.88156
415.83,46.7514,-2.50322,0.04090015,0.88114
416.43,46.81,-2.50457,0.04287565,0.88071
417.03,46.86853,-2.50586,0.043898,0.88028
417.63,46.92715,-2.50849,0.04412716,0.87986
418.23,46.98576,-2.51136,0.04696077,0.87943
418.83,47.04435,-2.51214,0.04533181,0.879
419.43,47.1029,-2.51332,0.04510981,0.87857
420.03,47.16162,-2.51346,0.04491943,0.87815
420.63,47.2203,-2.51475,0.04302332,0.87772
421.23,47.27916,-2.51508,0.04809661,0.87729
421.83,47.33768,-2.51644,0.04666034,0.87686
422.43,47.39618,-2.51772,0.0481011,0.87643
423.03,47.4547,-2.51902,0.04761012,0.876
423.63,47.51303,-2.52107,0.04514404,0.87557
424.23,47.57186,-2.52359,0.05107063,0.87514
424.83,47.63041,-2.52519,0.05146499,0.87471
425.43,47.68905,-2.52652,0.04978136,0.87428
426.03,47.74793,-2.52814,0.04818173,0.87385
426.63,47.80663,-2.52997,0.05078132,0.87341
427.23,47.86548,-2.52989,0.05062186,0.87298
427.83,47.92425,-2.53128,0.05274803,0.87255
428.43,47.98288,-2.53374,0.05256259,0.87212
429.03,48.0417,-2.53444,0.05173759,0.87168
429.63,48.1006,-2.53496,0.05225215,0.87125
430.23,48.15954,-2.53628,0.05525149,0.87082
430.83,48.21857,-2.5376,0.05062661,0.87038
431.43,48.27729,-2.53891,0.05315218,0.86995
432.03,48.33612,-2.54023,0.05402674,0.86952
432.63,48.3947,-2.54159,0.05439723,0.86908
433.23,48.45333,-2.54288,0.05480068,0.86865
433.83,48.51193,-2.54417,0.05544598,0.86821
434.43,48.57075,-2.54549,0.05437209,0.86778
435.03,48.6296,-2.54681,0.05496099,0.86734
435.63,48.68881,-2.54811,0.05388116,0.8669
436.23,48.7476,-2.54949,0.05635227,0.86647
436.83,48.80644,-2.55045,0.05606981,0.86603
437.43,48.86507,-2.55218,0.05843255,0.86559
438.03,48.92369,-2.55366,0.05975961,0.86516
438.63,48.98237,-2.5549,0.05685185,0.86472
439.23,49.04136,-2.55622,0.05449422,0.86428
439.83,49.1001,-2.55756,0.05976278,0.86384
440.43,49.15898,-2.55723,0.05773625,0.86341
441.03,49.2177,-2.55871,0.05724778,0.86297
441.63,49.27625,-2.56124,0.0589248,0.86253
442.23,49.3348,-2.56024,0.05853419,0.86209
442.83,49.39343,-2.56143,0.05911312,0.86165
443.43,49.45223,-2.56284,0.05903155,0.86121
444.03,49.51079,-2.56511,0.06011471,0.86077
444.63,49.56957,-2.56644,0.06238586,0.86033
445.23,49.62826,-2.56776,0.06080609,0.85989
445.83,49.68693,-2.56907,0.05891479,0.85945
446.43,49.7457,-2.56897,0.0601763,0.85901
447.03,49.8043,-2.57066,0.05983953,0.85857
447.63,49.86309,-2.57197,0.05856542,0.85813
448.23,49.9219,-2.57336,0.06117289,0.85768
448.83,49.98093,-2.57566,0.05996624,0.85724
449.43,50.03971,-2.5773,0.06158591,0.8568
450.03,50.09863,-2.57727,0.06032849,0.85636
450.63,50.15748,-2.5786,0.05543101,0.85591
451.23,50.21651,-2.58003,0.06050055,0.85547
451.83,50.27551,-2.57991,0.06060726,0.85503
452.43,50.33437,-2.58121,0.06291369,0.85458
453.03,50.39328,-2.5854,0.06131742,0.85414
453.63,50.45225,-2.58521,0.06201599,0.85369
454.23,50.5113,-2.58388,0.06075496,0.85325
454.83,50.5702,-2.58388,0.06209781,0.85281
455.43,50.62876,-2.58647,0.0575709,0.85236
456.03,50.68758,-2.58788,0.05822825,0.85192
456.63,50.7465,-2.59041,0.06012854,0.85147
457.23,50.80571,-2.59058,0.05735138,0.85102
457.83,50.8651,-2.59199,0.06091839,0.85058
458.43,50.92414,-2.59331,0.06126168,0.85013
459.03,50.9833,-2.59423,0.05964503,0.84969
459.63,51.0424,-2.59595,0.0593474,0.84924
460.23,51.1015,-2.59729,0.06022147,0.84879
460.83,51.1605,-2.59857,0.06350605,0.84834
461.43,51.2195,-2.59989,0.06237157,0.8479
462.03,51.2789,-2.60121,0.06449927,0.84745
462.63,51.3379,-2.60253,0.06656572,0.847
463.23,51.3966,-2.60383,0.06484087,0.84655
463.83,51.45555,-2.6052,0.06614977,0.8461
464.43,51.5146,-2.606,0.06541652,0.84565
465.03,51.5741,-2.60516,0.06514123,0.84521
465.63,51.63324,-2.60647,0.06311538,0.84476
466.23,51.69246,-2.60781,0.05970968,0.84431
466.83,51.75164,-2.6091,0.06303142,0.84386
467.43,51.8106,-2.61042,0.06564185,0.84341
468.03,51.86956,-2.61071,0.06215879,0.84296
468.63,51.92863,-2.61168,0.06245056,0.84251
469.23,51.9878,-2.61173,0.06642788,0.84205
469.83,52.0469,-2.61306,0.06306461,0.8416
470.43,52.10607,-2.6147,0.06483805,0.84115
471.03,52.165,-2.61568,0.06506278,0.8407
471.63,52.22384,-2.61584,0.06435618,0.84025
472.23,52.28291,-2.61631,0.06392736,0.8398
472.83,52.34207,-2.61699,0.06504369,0.83934
473.43,52.4013,-2.61832,0.06513846,0.83889
474.03,52.46046,-2.61964,0.06261779,0.83844
474.63,52.51954,-2.62096,0.06548215,0.83799
475.23,52.57866,-2.62228,0.06527095,0.83753
475.83,52.63788,-2.62227,0.0656979,0.83708
476.43,52.6967,-2.62362,0.06616526,0.83663
477.03,52.75574,-2.62453,0.06267609,0.83617
477.63,52.81491,-2.62486,0.06401787,0.83572
478.23,52.8741,-2.62789,0.06217474,0.83526
478.83,52.9336,-2.62841,0.06521519,0.83481
479.43,52.9927,-2.62841,0.06432977,0.83435
480.03,53.05157,-2.62852,0.06287594,0.8339
480.63,53.1108,-2.62972,0.05981184,0.83344
481.23,53.17012,-2.63104,0.06086297,0.83299
481.83,53.22965,-2.62973,0.06030471,0.83253
482.43,53.289,-2.63104,0.06242264,0.83207
483.03,53.34811,-2.63231,0.06017145,0.83162
483.63,53.40725,-2.63471,0.06074056,0.83116
484.23,53.46646,-2.63465,0.05989698,0.8307
484.83,53.52585,-2.63597,0.06272024,0.83025
485.43,53.58525,-2.63527,0.05882197,0.82979
486.03,53.6446,-2.6364,0.06110279,0.82933
486.63,53.70389,-2.63773,0.06236678,0.82887
487.23,53.7631,-2.63763,0.06020014,0.82842
487.83,53.82225,-2.63902,0.06104889,0.82796
488.43,53.88155,-2.64004,0.06148581,0.8275
489.03,53.9408,-2.64026,0.06069376,0.82704
489.63,54.00011,-2.64157,0.06174272,0.82658
490.23,54.05967,-2.64187,0.06017056,0.82612
490.83,54.11906,-2.64415,0.05863584,0.82566
491.43,54.1785,-2.64421,0.05854548,0.8252
492.03,54.23795,-2.64551,0.05900497,0.82474
492.63,54.29733,-2.64567,0.0581034,0.82428
493.23,54.35689,-2.64684,0.06129427,0.82382
493.83,54.4163,-2.64817,0.06096923,0.82336
494.43,54.4759,-2.64816,0.06203034,0.8229
495.03,54.53539,-2.64952,0.0616488,0.82244
495.63,54.59488,-2.6508,0.06681166,0.82198
496.23,54.65424,-2.65079,0.06690535,0.82152
496.83,54.7136,-2.65111,0.07006735,0.82106
497.43,54.77284,-2.65439,0.06967117,0.82059
498.03,54.8322,-2.6543,0.0711768,0.82013
498.63,54.8916,-2.6543,0.0731155,0.81967
499.23,54.95095,-2.65535,0.0778518,0.81921
499.83,55.0105,-2.65664,0.07643074,0.81875
500.43,55.06977,-2.65616,0.08098024,0.81828
501.03,55.12885,-2.65484,0.078426,0.81782
501.63,55.1879,-2.65484,0.08103692,0.81736
502.23,55.247,-2.65475,0.07977082,0.81689
502.83,55.30633,-2.65616,0.08340453,0.81643
503.43,55.36552,-2.65745,0.08437365,0.81596
504.03,55.42508,-2.65879,0.0862067,0.8155
504.63,55.48405,-2.66008,0.08808512,0.81504
505.23,55.543,-2.66147,0.09186337,0.81457
505.83,55.602,-2.66142,0.09209919,0.81411
506.43,55.66118,-2.6614,0.0945379,0.81364
507.03,55.7205,-2.66428,0.09422005,0.81318
507.63,55.7797,-2.66428,0.09289244,0.81271
508.23,55.8388,-2.66428,0.09656536,0.81224
508.83,55.8979,-2.66297,0.09665376,0.81178
509.43,55.9571,-2.66497,0.09640561,0.81131
510.03,56.0162,-2.66559,0.0964847,0.81085
510.63,56.07552,-2.66559,0.09723466,0.81038
511.23,56.1347,-2.66558,0.09912759,0.80991
511.83,56.1938,-2.66698,0.09683979,0.80945
512.43,56.25309,-2.66723,0.10003,0.80898
513.03,56.3123,-2.66808,0.10106,0.80851
513.63,56.37164,-2.66935,0.0997466,0.80804
514.23,56.43102,-2.67136,0.1018,0.80758
514.83,56.49045,-2.67392,0.10106,0.80711
515.43,56.54994,-2.67063,0.10223,0.80664
516.03,56.60931,-2.67063,0.10277,0.80617
516.63,56.6686,-2.6719,0.10323,0.8057
517.23,56.7279,-2.67195,0.10098,0.80523
517.83,56.7875,-2.67326,0.10124,0.80477
518.43,56.847,-2.67326,0.09766221,0.8043
519.03,56.90664,-2.6746,0.10032,0.80383
519.63,56.96621,-2.67318,0.09948539,0.80336
520.23,57.02575,-2.67453,0.09763726,0.80289
520.83,57.08497,-2.6759,0.10191,0.80242
521.43,57.14467,-2.67693,0.10077,0.80195
522.03,57.20431,-2.67785,0.1003,0.80148
522.63,57.2643,-2.67924,0.10003,0.80101
523.23,57.3239,-2.68052,0.10104,0.80054
523.83,57.38344,-2.68051,0.09974718,0.80006
524.43,57.4432,-2.68051,0.09946242,0.79959
525.03,57.503,-2.68051,0.10185,0.79912
525.63,57.5625,-2.67921,0.10059,0.79865
526.23,57.6221,-2.68051,0.10414,0.79818
526.83,57.68167,-2.68051,0.10041,0.79771
527.43,57.74103,-2.68182,0.10219,0.79724
528.03,57.80076,-2.68183,0.1012,0.79676
528.63,57.8605,-2.68314,0.10345,0.79629
529.23,57.92031,-2.68216,0.09839967,0.79582
529.83,57.9801,-2.68216,0.09712413,0.79535
530.43,58.0398,-2.68347,0.09745403,0.79487
531.03,58.09952,-2.6848,0.09433911,0.7944
531.63,58.1592,-2.68479,0.09679064,0.79393
532.23,58.219,-2.68479,0.09786701,0.79345
532.83,58.2788,-2.68578,0.09796462,0.79298
533.43,58.3383,-2.68711,0.09539235,0.7925
534.03,58.39793,-2.6886,0.09805582,0.79203
534.63,58.4575,-2.68874,0.09825866,0.79156
535.23,58.5172,-2.68737,0.0996191,0.79108
535.83,58.57676,-2.68741,0.09708329,0.79061
536.43,58.6364,-2.68874,0.09854792,0.79013
537.03,58.69588,-2.68969,0.09619823,0.78966
537.63,58.75529,-2.69005,0.10083,0.78918
538.23,58.8151,-2.69007,0.09610735,0.78871
538.83,58.87475,-2.69137,0.09584202,0.78823
539.43,58.9348,-2.69127,0.09698185,0.78775
540.03,58.99446,-2.69285,0.0959413,0.78728
540.63,59.05406,-2.69237,0.09652363,0.7868
541.23,59.1135,-2.69191,0.09278738,0.78633
541.83,59.1731,-2.69192,0.09082632,0.78585
542.43,59.2326,-2.69192,0.09266023,0.78537
543.03,59.29215,-2.69321,0.09058407,0.7849
543.63,59.3517,-2.69323,0.09004256,0.78442
544.23,59.41124,-2.69172,0.0924835,0.78394
544.83,59.471,-2.69245,0.08910335,0.78347
545.43,59.5306,-2.69476,0.08665579,0.78299
546.03,59.59035,-2.69608,0.08321168,0.78251
546.63,59.65008,-2.69608,0.08329032,0.78203
547.23,59.7098,-2.69705,0.08332309,0.78155
547.83,59.7696,-2.69674,0.08492287,0.78108
548.43,59.8293,-2.69674,0.0832874,0.7806
549.03,59.88905,-2.69806,0.08184343,0.78012
549.63,59.94871,-2.69806,0.07978126,0.77964
550.23,60.0085,-2.69856,0.08237913,0.77916
550.83,60.0678,-2.701,0.08281528,0.77868
551.43,60.12754,-2.70233,0.08196259,0.7782
552.03,60.1875,-2.70233,0.08036902,0.77772
552.63,60.2476,-2.70233,0.08152685,0.77725
553.23,60.3074,-2.70231,0.08273224,0.77677
553.83,60.36727,-2.70102,0.08037852,0.77629
554.43,60.4272,-2.70038,0.07916796,0.77581
555.03,60.48698,-2.70037,0.08099054,0.77533
555.63,60.5466,-2.70282,0.08096183,0.77485
556.23,60.6062,-2.70299,0.0815999,0.77436
556.83,60.66594,-2.70426,0.08175073,0.77388
557.43,60.72583,-2.70563,0.08275638,0.7734
558.03,60.7861,-2.70433,0.08055249,0.77292
558.63,60.846,-2.70432,0.08362929,0.77244
559.23,60.90591,-2.70432,0.0822616,0.77196
559.83,60.96586,-2.70432,0.08116768,0.77148
560.43,61.0255,-2.70432,0.08141164,0.771
561.03,61.08515,-2.70479,0.08121772,0.77052
561.63,61.1449,-2.70563,0.08185559,0.77003
562.23,61.2049,-2.70569,0.08421886,0.76955
562.83,61.2645,-2.70739,0.08229617,0.76907
563.43,61.3243,-2.70771,0.08000562,0.76859
564.03,61.38391,-2.70756,0.08095477,0.7681
564.63,61.44375,-2.70716,0.08272731,0.76762
565.23,61.50376,-2.70717,0.07987598,0.76714
565.83,61.56361,-2.70922,0.07617172,0.76666
566.43,61.6235,-2.71121,0.08035245,0.76617
567.03,61.6833,-2.70832,0.07924681,0.76569
567.63,61.743,-2.709,0.07717872,0.76521
568.23,61.80276,-2.70971,0.08073189,0.76472
568.83,61.8624,-2.70936,0.07411956,0.76424
569.43,61.9222,-2.71067,0.0768681,0.76375
570.03,61.982,-2.71067,0.07457586,0.76327
570.63,62.0418,-2.71067,0.07296628,0.76279
571.23,62.1017,-2.71067,0.07093104,0.7623
571.83,62.1613,-2.71199,0.07434115,0.76182
572.43,62.2212,-2.71199,0.0746449,0.76133
573.03,62.2812,-2.7133,0.07369888,0.76085
573.63,62.3412,-2.71331,0.07387996,0.76036
574.23,62.40124,-2.71331,0.07199974,0.75988
574.83,62.4612,-2.71331,0.0696817,0.75939
575.43,62.5211,-2.71331,0.07294538,0.75891
576.03,62.581,-2.71331,0.07293272,0.75842
576.63,62.6409,-2.71404,0.07139256,0.75794
577.23,62.70085,-2.71458,0.07267234,0.75745
577.83,62.76105,-2.71363,0.07206336,0.75697
578.43,62.82122,-2.71407,0.0714268,0.75648
579.03,62.8813,-2.71495,0.06957987,0.75599
579.63,62.94135,-2.71572,0.07054987,0.75551
580.23,63.00133,-2.71626,0.06863797,0.75502
580.83,63.06151,-2.71626,0.0666488,0.75453
581.43,63.12157,-2.71627,0.06864633,0.75405
582.03,63.18161,-2.71627,0.06906632,0.75356
582.63,63.24159,-2.71706,0.06628749,0.75307
583.23,63.30171,-2.71758,0.07018552,0.75259
583.83,63.36195,-2.71894,0.06681715,0.7521
584.43,63.4221,-2.71857,0.06878543,0.75161
585.03,63.48229,-2.71859,0.06708908,0.75112
585.63,63.54212,-2.71985,0.06705415,0.75064
586.23,63.6022,-2.7189,0.0702354,0.75015
586.83,63.66215,-2.7189,0.06768031,0.74966
587.43,63.72246,-2.71891,0.07165766,0.74917
588.03,63.78233,-2.72022,0.0662341,0.74868
588.63,63.8426,-2.72022,0.06485715,0.7482
589.23,63.9027,-2.72159,0.06763114,0.74771
589.83,63.96304,-2.72154,0.06714976,0.74722
590.43,64.02342,-2.72154,0.06588136,0.74673
591.03,64.08358,-2.72155,0.06666899,0.74624
591.63,64.1438,-2.72285,0.06239957,0.74575
592.23,64.20399,-2.72283,0.0635238,0.74526
592.83,64.26437,-2.7209,0.06138662,0.74477
593.43,64.32471,-2.72216,0.06143986,0.74428
594.03,64.38489,-2.72219,0.06289728,0.7438
594.63,64.44507,-2.72219,0.06089212,0.74331
595.23,64.50527,-2.72219,0.06008152,0.74282
595.83,64.5655,-2.72216,0.05962804,0.74233
596.43,64.62575,-2.72285,0.05854466,0.74184
597.03,64.68585,-2.72357,0.05952505,0.74135
597.63,64.74592,-2.72361,0.06204337,0.74086
598.23,64.80627,-2.72482,0.05929893,0.74037
598.83,64.86654,-2.72585,0.05547056,0.73988
599.43,64.92687,-2.72552,0.05577164,0.73938
600.03,64.98702,-2.72515,0.05758907,0.73889
600.63,65.0471,-2.72515,0.05547917,0.7384
601.23,65.10701,-2.72516,0.05423639,0.73791
601.83,65.16713,-2.7255,0.05439579,0.73742
602.43,65.22726,-2.72644,0.05568976,0.73693
603.03,65.28756,-2.7268,0.05741625,0.73644
603.63,65.34784,-2.72646,0.05595808,0.73595
604.23,65.40825,-2.72558,0.05492828,0.73546
604.83,65.46862,-2.72549,0.0555669,0.73496
605.43,65.52884,-2.72521,0.05342642,0.73447
606.03,65.5889,-2.72483,0.05296303,0.73398
606.63,65.64881,-2.72613,0.05259909,0.73349
607.23,65.70897,-2.72704,0.05393024,0.733
607.83,65.76913,-2.72879,0.05038651,0.7325
608.43,65.82932,-2.73009,0.05151137,0.73201
609.03,65.88943,-2.73008,0.05119775,0.73152
609.63,65.9495,-2.72878,0.05024944,0.73103
610.23,66.00946,-2.72879,0.05231259,0.73054
610.83,66.0694,-2.73009,0.05252284,0.73004
611.43,66.12945,-2.72944,0.05220183,0.72955
612.03,66.18952,-2.72944,0.05170881,0.72906
612.63,66.24968,-2.72944,0.0488807,0.72856
613.23,66.30983,-2.72976,0.0508063,0.72807
613.83,66.37003,-2.72976,0.0473977,0.72758
614.43,66.43006,-2.72976,0.04796544,0.72708
615.03,66.49008,-2.73042,0.04850977,0.72659
615.63,66.55038,-2.73108,0.04969187,0.7261
616.23,66.6106,-2.73108,0.04551829,0.7256
616.83,66.67087,-2.73108,0.04921312,0.72511
617.43,66.7311,-2.73108,0.04359151,0.72462
618.03,66.7914,-2.73108,0.0436934,0.72412
618.63,66.85155,-2.73235,0.04385852,0.72363
619.23,66.91173,-2.73206,0.04612167,0.72313
619.83,66.97216,-2.73203,0.04453991,0.72264
620.43,67.03249,-2.73107,0.04354446,0.72214
621.03,67.0929,-2.7311,0.04134502,0.72165
621.63,67.15342,-2.72976,0.04410338,0.72116
622.23,67.21384,-2.72972,0.0428156,0.72066
622.83,67.2743,-2.73107,0.04180398,0.72017
623.43,67.3347,-2.73107,0.04423521,0.71967
624.03,67.39525,-2.73244,0.03960148,0.71918
624.63,67.4558,-2.73334,0.04089312,0.71868
625.23,67.51602,-2.73506,0.0403498,0.71819
625.83,67.5763,-2.73502,0.04076239,0.71769
626.43,67.63656,-2.73502,0.03727621,0.7172
627.03,67.69675,-2.73541,0.03552651,0.7167
627.63,67.75731,-2.73602,0.03653241,0.7162
628.23,67.8177,-2.73666,0.04020662,0.71571
628.83,67.87816,-2.73667,0.03780106,0.71521
629.43,67.93859,-2.73667,0.03792933,0.71472
630.03,67.99886,-2.73473,0.03411695,0.71422
630.63,68.05851,-2.7347,0.03604253,0.71373
631.23,68.1187,-2.7347,0.03459263,0.71323
631.83,68.17886,-2.73465,0.03373793,0.71273
632.43,68.23921,-2.73628,0.0345665,0.71224
633.03,68.29972,-2.73637,0.03631736,0.71174
633.63,68.35985,-2.737,0.03518439,0.71124
634.23,68.41991,-2.737,0.0352402,0.71075
634.83,68.48001,-2.737,0.03471979,0.71025
635.43,68.5403,-2.73601,0.03117099,0.70975
636.03,68.60056,-2.73671,0.03456455,0.70926
636.63,68.66081,-2.73799,0.03261623,0.70876
637.23,68.7209,-2.73799,0.03357093,0.70826
637.83,68.78087,-2.73898,0.03190871,0.70777
638.43,68.84114,-2.73897,0.03402377,0.70727
639.03,68.90133,-2.73897,0.03236403,0.70677
639.63,68.96154,-2.73897,0.03178449,0.70627
640.23,69.0215,-2.73803,0.02971944,0.70578
640.83,69.08194,-2.73831,0.03087094,0.70528
641.43,69.1422,-2.73831,0.0301155,0.70478
642.03,69.20264,-2.73899,0.03129417,0.70428
642.63,69.26304,-2.74038,0.02958845,0.70379
643.23,69.3232,-2.74029,0.02883107,0.70329
643.83,69.38336,-2.74029,0.02652893,0.70279
644.43,69.44374,-2.73984,0.02595702,0.70229
645.03,69.504,-2.74021,0.02412015,0.7018
645.63,69.56429,-2.74161,0.02557394,0.7013
646.23,69.6245,-2.74054,0.0260127,0.7008
646.83,69.6848,-2.7416,0.02424362,0.7003
647.43,69.74521,-2.74209,0.02569928,0.6998
648.03,69.80547,-2.74299,0.02272912,0.6993
648.63,69.86586,-2.74226,0.02117379,0.69881
649.23,69.92621,-2.74226,0.02178874,0.69831
649.83,69.9863,-2.74134,0.021302,0.69781
650.43,70.0468,-2.74259,0.01839134,0.69731
651.03,70.10717,-2.7426,0.01833497,0.69681
651.63,70.1678,-2.74374,0.02016832,0.69631
652.23,70.2282,-2.74391,0.01903869,0.69581
652.83,70.28798,-2.74391,0.01663082,0.69532
653.43,70.34827,-2.74391,0.01732081,0.69482
654.03,70.4087,-2.7439,0.01930667,0.69432
654.63,70.46938,-2.74387,0.01290311,0.69382
655.23,70.5303,-2.74457,0.01555955,0.69332
655.83,70.59047,-2.74457,0.0142546,0.69282
656.43,70.6508,-2.7436,0.01857937,0.69232
657.03,70.711,-2.74489,0.0158357,0.69182
657.63,70.77135,-2.7462,0.01458038,0.69132
658.23,70.83182,-2.74622,0.01713635,0.69082
658.83,70.89224,-2.74544,0.01610442,0.69032
659.43,70.95277,-2.74621,0.01743919,0.68982
660.03,71.01332,-2.74502,0.01782617,0.68932
660.63,71.07384,-2.7449,0.01709643,0.68882
661.23,71.13433,-2.74532,0.0146483,0.68832
661.83,71.1947,-2.74522,0.01716475,0.68782
662.43,71.2551,-2.74631,0.01581827,0.68732
663.03,71.3155,-2.74621,0.01557981,0.68682
663.63,71.37592,-2.74621,0.0159062,0.68632
664.23,71.43636,-2.74621,0.01670792,0.68582
664.83,71.49686,-2.74621,0.01709682,0.68532
665.43,71.55742,-2.74621,0.01815519,0.68482
666.03,71.6177,-2.74621,0.01580306,0.68432
666.63,71.67831,-2.74621,0.01413493,0.68382
667.23,71.73867,-2.74625,0.01117942,0.68332
667.83,71.79907,-2.74749,0.009306059,0.68282
668.43,71.8596,-2.74752,0.01233679,0.68232
669.03,71.92033,-2.74884,0.01239957,0.68182
669.63,71.98106,-2.74786,0.01316446,0.68132
670.23,72.04175,-2.74786,0.01093995,0.68082
670.83,72.10183,-2.74786,0.0104444,0.68032
671.43,72.16226,-2.74786,0.009599798,0.67982
672.03,72.22261,-2.74781,0.00842985,0.67932
672.63,72.28316,-2.75167,0.01361621,0.67881
673.23,72.34371,-2.74896,0.008332955,0.67831
673.83,72.40417,-2.74756,0.00822421,0.67781
674.43,72.46452,-2.74786,0.01030574,0.67731
675.03,72.52496,-2.74788,0.00905248,0.67681
675.63,72.5853,-2.74851,0.01294545,0.67631
676.23,72.64536,-2.74865,0.0075967,0.67581
676.83,72.70572,-2.74918,0.01293151,0.67531
677.43,72.7662,-2.7505,0.01197287,0.6748
678.03,72.827,-2.75049,0.01050822,0.6743
678.63,72.8875,-2.75049,0.01039397,0.6738
679.23,72.94824,-2.75049,0.01018296,0.6733
679.83,73.00875,-2.75181,0.01147325,0.6728
680.43,73.06949,-2.75119,0.007257249,0.6723
681.03,73.13009,-2.75049,0.008631121,0.6718
681.63,73.19055,-2.75087,0.009623902,0.67129
682.23,73.25116,-2.75181,0.01168955,0.67079
682.83,73.31178,-2.75115,0.01086273,0.67029
683.43,73.37267,-2.75231,0.006303243,0.66979
684.03,73.4332,-2.75249,0.007923401,0.66929
684.63,73.49372,-2.75245,0.007393087,0.66879
685.23,73.55409,-2.75473,0.00639977,0.66828
685.83,73.61451,-2.75401,0.00996658,0.66778
686.43,73.67492,-2.75318,0.00941981,0.66728
687.03,73.73545,-2.7518,0.006651184,0.66678
687.63,73.79601,-2.75181,0.006079509,0.66628
688.23,73.85653,-2.75176,0.00568374,0.66577
688.83,73.91704,-2.75312,0.005652195,0.66527
689.43,73.97752,-2.75246,0.00825304,0.66477
690.03,74.03819,-2.75312,0.01026919,0.66427
690.63,74.0989,-2.75312,0.005769,0.66376
691.23,74.15952,-2.75411,0.0086726,0.66326
691.83,74.22,-2.75411,0.004644553,0.66276
692.43,74.28039,-2.75411,0.00769732,0.66226
693.03,74.34092,-2.75405,0.003758064,0.66175
693.63,74.4015,-2.75411,0.007403639,0.66125
694.23,74.46202,-2.75411,0.008321514,0.66075
694.83,74.5226,-2.75274,0.00555871,0.66025
695.43,74.58312,-2.75279,0.003994213,0.65975
696.03,74.64367,-2.75288,0.00723337,0.65924
696.63,74.70415,-2.75345,0.00504625,0.65874
697.23,74.76475,-2.75345,0.007430132,0.65824
697.83,74.8253,-2.75345,0.007163089,0.65773
698.43,74.88586,-2.75473,0.00540336,0.65723
699.03,74.94632,-2.75477,0.003176237,0.65673
699.63,75.00685,-2.75477,0.003692457,0.65623
700.23,75.06739,-2.75435,0.00299611,0.65572
700.83,75.128,-2.75476,0.002030849,0.65522
701.43,75.18814,-2.75476,0.006621482,0.65472
702.03,75.24844,-2.75476,0.00570107,0.65422
702.63,75.3091,-2.75502,0.009050695,0.65371
703.23,75.36989,-2.75608,0.00650057,0.65321
703.83,75.43093,-2.75608,0.008104309,0.65271
704.43,75.49161,-2.75606,0.003318841,0.6522
705.03,75.5522,-2.7574,0.005113697,0.6517
705.63,75.61275,-2.7574,0.004435421,0.6512
706.23,75.6734,-2.7574,0.00809268,0.65069
706.83,75.73387,-2.7574,0.005016263,0.65019
707.43,75.79432,-2.7574,0.00550079,0.64969
708.03,75.8545,-2.75876,0.00833471,0.64919
708.63,75.91509,-2.75871,0.006446999,0.64868
709.23,75.9757,-2.7587,0.008238437,0.64818
709.83,76.03619,-2.75785,0.007401781,0.64768
710.43,76.09688,-2.75773,0.008856077,0.64717
711.03,76.15733,-2.75893,0.004358338,0.64667
711.63,76.21803,-2.75905,0.005775434,0.64617
712.23,76.27856,-2.75871,0.008023868,0.64566
712.83,76.33934,-2.76013,0.003368018,0.64516
713.43,76.39996,-2.75751,0.005082285,0.64466
714.03,76.46066,-2.75619,0.004748002,0.64415
714.63,76.5213,-2.75617,0.003107804,0.64365
715.23,76.5818,-2.75751,0.006683149,0.64315
715.83,76.64269,-2.75752,0.001251085,0.64264
716.43,76.70326,-2.75818,-0.0006278811,0.64214
717.03,76.76386,-2.75982,0.001326949,0.64164
717.63,76.8245,-2.75981,-0.001042323,0.64113
718.23,76.88514,-2.75986,-0.001134028,0.64063
718.83,76.9459,-2.75849,0.004076585,0.64013
719.43,77.00649,-2.75951,0.0003140916,0.63962
720.03,77.06693,-2.76113,0.000662373,0.63912
720.63,77.12754,-2.76118,-0.003306475,0.63862
721.23,77.18821,-2.75981,-0.002194621,0.63811
721.83,77.2487,-2.75981,-0.001039561,0.63761
722.43,77.30957,-2.75981,-0.00266241,0.63711
723.03,77.3703,-2.75981,-0.00186921,0.6366
723.63,77.43093,-2.75981,-0.006733229,0.6361
724.23,77.49169,-2.75852,-0.009605449,0.6356
724.83,77.5522,-2.75982,-0.008285798,0.63509
725.43,77.6125,-2.76097,-0.01008641,0.63459
726.03,77.6726,-2.76045,-0.006981649,0.63409
726.63,77.73339,-2.7608,-0.0134658,0.63358
727.23,77.79439,-2.76113,-0.01608797,0.63308
727.83,77.85565,-2.76113,-0.01367354,0.63258
728.43,77.91664,-2.76048,-0.01203309,0.63207
729.03,77.97734,-2.75981,-0.01493526,0.63157
729.63,78.0382,-2.75981,-0.01355062,0.63107
730.23,78.0988,-2.75981,-0.01410203,0.63056
730.83,78.15961,-2.7598,-0.01376678,0.63006
731.43,78.2203,-2.76113,-0.01506016,0.62956
732.03,78.2809,-2.76113,-0.01334154,0.62905
732.63,78.34156,-2.76113,-0.01336679,0.62855
733.23,78.40225,-2.76113,-0.01283295,0.62805
733.83,78.46315,-2.76113,-0.01291762,0.62754
734.43,78.52375,-2.7602,-0.01286354,0.62704
735.03,78.58435,-2.76113,-0.01568568,0.62653
735.63,78.6446,-2.76178,-0.0141668,0.62603
736.23,78.70489,-2.76179,-0.01644049,0.62553
736.83,78.76531,-2.76317,-0.01704452,0.62502
737.43,78.82598,-2.76179,-0.01841141,0.62452
738.03,78.88687,-2.76316,-0.01684126,0.62402
738.63,78.94748,-2.76308,-0.02001865,0.62351
739.23,79.0081,-2.76179,-0.01501081,0.62301
739.83,79.0686,-2.76202,-0.01670471,0.62251
740.43,79.12929,-2.76311,-0.01844647,0.622
741.03,79.18991,-2.76311,-0.01829604,0.6215
741.63,79.25046,-2.76377,-0.01521732,0.621
742.23,79.311,-2.76377,-0.02022619,0.62049
742.83,79.3716,-2.76377,-0.0181495,0.61999
743.43,79.43226,-2.76374,-0.02057516,0.61949
744.03,79.4931,-2.76442,-0.02209684,0.61898
744.63,79.55371,-2.76444,-0.02268602,0.61848
745.23,79.6144,-2.76541,-0.02453996,0.61798
745.83,79.67506,-2.76577,-0.01991482,0.61747
746.43,79.73566,-2.76684,-0.02007831,0.61697
747.03,79.79651,-2.76706,-0.02086407,0.61647
747.63,79.85727,-2.76574,-0.01955773,0.61596
748.23,79.91824,-2.76574,-0.02277732,0.61546
748.83,79.97901,-2.76543,-0.02169241,0.61496
749.03,79.99909,-2.76541,-0.02264494,0.61479