File: 01_Data/Particleboard/STA/N2/30K_min/Particleboard_STA_N2_30KData_220420_R2.csv
##Temp./Â°C,Time/min,Mass loss(subtr.2)/mg,DSC(subtr.2)/(mW/mg),Sensit./(uV/mW)
48.42,10.00667,0.0329,0.01245006,1.07509
49.12,10.55748,0.03520472,0.05726877,1.07478
49.82,10.68235,0.03357464,0.09696845,1.07448
50.52,10.7725,0.03542184,0.13186,1.07417
51.22,10.84591,0.03437665,0.16242,1.07386
51.92,10.90875,0.0342513,0.19445,1.07355
52.62,10.96555,0.03546282,0.22216,1.07324
53.32,11.01726,0.03534633,0.24817,1.07292
54.02,11.0647,0.03608222,0.27309,1.07261
54.72,11.1091,0.03805869,0.2938,1.0723
55.42,11.15215,0.03697976,0.31659,1.07199
56.12,11.19289,0.03716132,0.33789,1.07167
56.82,11.2321,0.03690756,0.35825,1.07136
57.52,11.26943,0.03764198,0.37715,1.07104
58.22,11.30545,0.03651124,0.39697,1.07073
58.92,11.3406,0.03622282,0.41319,1.07041
59.62,11.3749,0.03635789,0.43285,1.0701
60.32,11.40814,0.03583759,0.45204,1.06978
61.02,11.44062,0.03658073,0.46533,1.06946
61.72,11.47259,0.03688129,0.48301,1.06914
62.42,11.5038,0.03621384,0.49942,1.06883
63.12,11.5342,0.0370504,0.51268,1.06851
63.82,11.5644,0.03544152,0.52688,1.06819
64.52,11.59425,0.03663936,0.5411,1.06787
65.22,11.62371,0.03768244,0.55437,1.06755
65.92,11.6526,0.03699652,0.56923,1.06723
66.62,11.68101,0.03711308,0.58279,1.0669
67.32,11.70933,0.03813238,0.59414,1.06658
68.02,11.73732,0.03716467,0.60554,1.06626
68.72,11.7651,0.03666652,0.61851,1.06594
69.42,11.7926,0.03805973,0.62842,1.06561
70.12,11.81982,0.03796719,0.6418,1.06529
70.82,11.8469,0.03784066,0.65153,1.06496
71.52,11.87382,0.03784107,0.66238,1.06464
72.22,11.90056,0.03813185,0.67456,1.06431
72.92,11.92704,0.03719812,0.68471,1.06398
73.62,11.9533,0.03695548,0.69299,1.06366
74.32,11.9793,0.03755288,0.70641,1.06333
75.02,12.0052,0.03773704,0.71443,1.063
75.72,12.0311,0.03794519,0.72561,1.06267
76.42,12.05678,0.03753698,0.73362,1.06234
77.12,12.08243,0.03775207,0.74438,1.06202
77.82,12.10799,0.037432,0.75173,1.06169
78.52,12.1335,0.03695836,0.76114,1.06135
79.22,12.15887,0.03713988,0.77061,1.06102
79.92,12.1841,0.03693164,0.779,1.06069
80.62,12.20928,0.03638412,0.78828,1.06036
81.32,12.23433,0.03781446,0.79795,1.06003
82.02,12.25935,0.03733336,0.80539,1.05969
82.72,12.2841,0.03664355,0.81274,1.05936
83.42,12.30883,0.03756101,0.82219,1.05903
84.12,12.33341,0.03739354,0.82886,1.05869
84.82,12.35807,0.03757639,0.83679,1.05836
85.52,12.3825,0.03630237,0.84461,1.05802
86.22,12.4069,0.03750712,0.85125,1.05768
86.92,12.43114,0.0359526,0.85911,1.05735
87.62,12.45538,0.03582775,0.86915,1.05701
88.32,12.47968,0.03575633,0.87535,1.05667
89.02,12.5039,0.03439692,0.88272,1.05633
89.72,12.52806,0.03447272,0.889,1.056
90.42,12.55212,0.03591,0.89758,1.05566
91.12,12.57617,0.0352103,0.90281,1.05532
91.82,12.60018,0.03540505,0.90883,1.05498
92.52,12.62423,0.03636165,0.91788,1.05464
93.22,12.64817,0.03631018,0.92326,1.0543
93.92,12.67217,0.03629982,0.92713,1.05395
94.62,12.696,0.03633888,0.93249,1.05361
95.32,12.71974,0.03498662,0.93922,1.05327
96.02,12.74347,0.03498976,0.94538,1.05293
96.72,12.76728,0.03499,0.95142,1.05258
97.42,12.79112,0.03498903,0.95589,1.05224
98.12,12.81466,0.03490931,0.96038,1.05189
98.82,12.8382,0.03367744,0.96493,1.05155
99.52,12.86174,0.03366257,0.96874,1.0512
100.22,12.88545,0.03243061,0.97514,1.05086
100.92,12.90922,0.03232178,0.97707,1.05051
101.62,12.93293,0.03368096,0.98221,1.05016
102.32,12.95658,0.03231138,0.98563,1.04982
103.02,12.9801,0.03235932,0.98806,1.04947
103.72,13.00375,0.03358128,0.99221,1.04912
104.42,13.02725,0.03367801,0.99666,1.04877
105.12,13.05078,0.0323108,0.99695,1.04842
105.82,13.07425,0.03234983,1.00098,1.04807
106.52,13.0978,0.03235027,1.00406,1.04772
107.22,13.1212,0.03236837,1.00394,1.04737
107.92,13.1447,0.03100919,1.00538,1.04702
108.62,13.1681,0.03103937,1.0073,1.04667
109.32,13.19157,0.03108775,1.00791,1.04632
110.02,13.21504,0.02973534,1.01107,1.04596
110.72,13.23848,0.03056815,1.00876,1.04561
111.42,13.26191,0.0310413,1.01202,1.04526
112.12,13.2852,0.03103999,1.01136,1.0449
112.82,13.30853,0.03104,1.01203,1.04455
113.52,13.33185,0.03104,1.01317,1.04419
114.22,13.3553,0.03104006,1.01321,1.04384
114.92,13.37873,0.03103601,1.01218,1.04348
115.62,13.4021,0.02989674,1.01416,1.04313
116.32,13.4254,0.0297195,1.0126,1.04277
117.02,13.4487,0.02971995,1.01358,1.04241
117.72,13.472,0.02972289,1.01075,1.04206
118.42,13.4952,0.02883858,1.01335,1.0417
119.12,13.5184,0.02840817,1.0105,1.04134
119.82,13.5415,0.02840998,1.01232,1.04098
120.52,13.56468,0.02841,1.01212,1.04062
121.22,13.58784,0.02841009,1.00897,1.04026
121.92,13.61095,0.02839601,1.01071,1.0399
122.62,13.6341,0.02706104,1.01003,1.03954
123.32,13.6571,0.02709087,1.01037,1.03918
124.02,13.6799,0.02709,1.00909,1.03882
124.72,13.70285,0.02709,1.0091,1.03845
125.42,13.72605,0.02709,1.00924,1.03809
126.12,13.74932,0.02709,1.00985,1.03773
126.82,13.77249,0.02709,1.01055,1.03737
127.52,13.79543,0.02709063,1.01003,1.037
128.22,13.81833,0.02704278,1.01293,1.03664
128.92,13.8412,0.02839957,1.01224,1.03627
129.62,13.8641,0.02841021,1.01211,1.03591
130.32,13.88691,0.02841001,1.01692,1.03554
131.02,13.9098,0.02840549,1.01464,1.03518
131.72,13.93261,0.02748446,1.01527,1.03481
132.42,13.95541,0.02709871,1.01361,1.03444
133.12,13.97824,0.02710109,1.01868,1.03407
133.82,14.0009,0.02716094,1.0185,1.03371
134.52,14.0237,0.02807605,1.0187,1.03334
135.22,14.0463,0.02808001,1.0207,1.03297
135.92,14.069,0.02808,1.02321,1.0326
136.62,14.09157,0.02808001,1.02301,1.03223
137.32,14.1142,0.02808032,1.02656,1.03186
138.02,14.13675,0.02796898,1.03094,1.03149
138.72,14.15934,0.0267566,1.03163,1.03112
139.42,14.1818,0.0267599,1.03238,1.03075
140.12,14.2042,0.02676068,1.0372,1.03038
140.82,14.22666,0.02675991,1.03774,1.03001
141.52,14.2491,0.02709252,1.04251,1.02963
142.22,14.2717,0.02709005,1.0434,1.02926
142.92,14.2942,0.02709405,1.04636,1.02889
143.62,14.31674,0.02604265,1.05014,1.02851
144.32,14.3391,0.02610882,1.05236,1.02814
145.02,14.36149,0.02746444,1.05501,1.02776
145.72,14.3838,0.02741916,1.05781,1.02739
146.42,14.40615,0.02742,1.06216,1.02701
147.12,14.42852,0.02742,1.06328,1.02664
147.82,14.45086,0.02742,1.06614,1.02626
148.52,14.47313,0.02742,1.06968,1.02589
149.22,14.49533,0.02742,1.07295,1.02551
149.92,14.51759,0.02742,1.07628,1.02513
150.62,14.5399,0.02742,1.07945,1.02475
151.32,14.56214,0.02741956,1.08233,1.02438
152.02,14.5843,0.02745514,1.08696,1.024
152.72,14.60645,0.02709052,1.09016,1.02362
153.42,14.6286,0.02709005,1.09321,1.02324
154.12,14.6508,0.02708999,1.09853,1.02286
154.82,14.67305,0.02709006,1.10254,1.02248
155.52,14.6953,0.02712087,1.10556,1.0221
156.22,14.7174,0.02573016,1.11045,1.02172
156.92,14.73956,0.02577011,1.11418,1.02134
157.62,14.7616,0.02577,1.11678,1.02095
158.32,14.78374,0.02577025,1.12004,1.02057
159.02,14.8057,0.02576131,1.12398,1.02019
159.72,14.8277,0.02442877,1.1279,1.01981
160.42,14.84958,0.02547179,1.13227,1.01942
161.12,14.8716,0.02578198,1.13891,1.01904
161.82,14.8936,0.02578,1.14179,1.01865
162.52,14.91559,0.02578,1.14501,1.01827
163.22,14.9375,0.02578,1.14957,1.01789
163.92,14.95933,0.02578,1.15304,1.0175
164.62,14.98139,0.02577952,1.15954,1.01711
165.32,15.0035,0.02583821,1.16394,1.01673
166.02,15.0255,0.0247847,1.17024,1.01634
166.72,15.04752,0.02479056,1.17339,1.01595
167.42,15.0694,0.02465921,1.1796,1.01557
168.12,15.0913,0.02445845,1.18457,1.01518
168.82,15.1132,0.02446,1.18951,1.01479
169.52,15.13524,0.02446214,1.19464,1.0144
170.22,15.15722,0.02413645,1.20113,1.01401
170.92,15.1791,0.02314356,1.20429,1.01363
171.62,15.2009,0.02314007,1.21113,1.01324
172.32,15.2227,0.02313581,1.21875,1.01285
173.02,15.24458,0.02235642,1.22543,1.01246
173.72,15.26643,0.02183031,1.23211,1.01207
174.42,15.2883,0.02183002,1.24062,1.01167
175.12,15.3101,0.02183,1.24722,1.01128
175.82,15.332,0.02183,1.25439,1.01089
176.52,15.35389,0.02183,1.26338,1.0105
177.22,15.3757,0.02183,1.2718,1.01011
177.92,15.39754,0.02183,1.28053,1.00971
178.62,15.41925,0.02183,1.28904,1.00932
179.32,15.441,0.02182997,1.29646,1.00893
180.02,15.4626,0.02183436,1.30646,1.00853
180.72,15.4843,0.02127411,1.31505,1.00814
181.42,15.50598,0.01985391,1.32369,1.00774
182.12,15.52769,0.01985008,1.33367,1.00735
182.82,15.54938,0.0198489,1.34303,1.00695
183.52,15.571,0.01992044,1.35366,1.00656
184.22,15.59261,0.01920381,1.36187,1.00616
184.92,15.61426,0.01786776,1.3704,1.00576
185.62,15.6359,0.01788038,1.38083,1.00537
186.32,15.6575,0.01787963,1.39201,1.00497
187.02,15.67906,0.01789206,1.39915,1.00457
187.72,15.7006,0.01655208,1.41291,1.00417
188.42,15.7222,0.01641089,1.42317,1.00378
189.12,15.74368,0.01526198,1.43437,1.00338
189.82,15.7651,0.01525113,1.44368,1.00298
190.52,15.78667,0.01491977,1.45501,1.00258
191.22,15.80816,0.01382131,1.4627,1.00218
191.92,15.82966,0.01275295,1.47336,1.00178
192.62,15.8512,0.01218516,1.48737,1.00138
193.32,15.87275,0.01173967,1.49572,1.00098
194.02,15.89425,0.01040773,1.50675,1.00058
194.72,15.9156,0.01041694,1.51941,1.00017
195.42,15.93702,0.009721944,1.53111,0.99977
196.12,15.9585,0.009102433,1.54237,0.99937
196.82,15.98,0.009100089,1.55388,0.99897
197.52,16.00141,0.008000402,1.56625,0.99857
198.22,16.02282,0.007791646,1.57723,0.99816
198.92,16.04425,0.006349215,1.59231,0.99776
199.62,16.06578,0.00570767,1.60382,0.99735
200.32,16.08718,0.004820807,1.6137,0.99695
201.02,16.1086,0.00369515,1.62551,0.99655
201.72,16.12995,0.003521722,1.63828,0.99614
202.42,16.15135,0.003411322,1.65094,0.99574
203.12,16.17279,0.002851148,1.66273,0.99533
203.82,16.1942,0.002442274,1.67664,0.99492
204.52,16.2157,0.00141983,1.6897,0.99452
205.22,16.2371,0.0002074623,1.70061,0.99411
205.92,16.25843,-0.0003075166,1.71471,0.9937
206.62,16.27976,-0.00186898,1.726,0.9933
207.32,16.3012,-0.00340554,1.73685,0.99289
208.02,16.32256,-0.005023484,1.74909,0.99248
208.72,16.34394,-0.006728916,1.76203,0.99207
209.42,16.3653,-0.008150921,1.77311,0.99166
210.12,16.3866,-0.009216132,1.78351,0.99125
210.82,16.40792,-0.01097724,1.79448,0.99085
211.52,16.42918,-0.01252702,1.80925,0.99044
212.22,16.4505,-0.01410111,1.81691,0.99003
212.92,16.4718,-0.01446622,1.82876,0.98962
213.62,16.49321,-0.01580126,1.83959,0.9892
214.32,16.51454,-0.01702063,1.8496,0.98879
215.02,16.53591,-0.01793164,1.85886,0.98838
215.72,16.55719,-0.01929579,1.8717,0.98797
216.42,16.57846,-0.02137424,1.87894,0.98756
217.12,16.59979,-0.02290796,1.88697,0.98715
217.82,16.62107,-0.02425562,1.89932,0.98673
218.52,16.64236,-0.02590637,1.90679,0.98632
219.22,16.6636,-0.02771019,1.91552,0.98591
219.92,16.68485,-0.029233,1.92199,0.98549
220.62,16.70616,-0.03044446,1.92958,0.98508
221.32,16.7274,-0.03170526,1.93493,0.98467
222.02,16.7487,-0.03301765,1.94257,0.98425
222.72,16.76997,-0.03435639,1.94919,0.98384
223.42,16.7912,-0.03504621,1.95494,0.98342
224.12,16.81244,-0.03672566,1.95833,0.98301
224.82,16.8337,-0.03838,1.96601,0.98259
225.52,16.8549,-0.04021563,1.97092,0.98217
226.22,16.87604,-0.04153533,1.97409,0.98176
226.92,16.89726,-0.04329864,1.97969,0.98134
227.62,16.91845,-0.04457497,1.98245,0.98092
228.32,16.93966,-0.04590233,1.98568,0.98051
229.02,16.96089,-0.0477511,1.98667,0.98009
229.72,16.98215,-0.04981309,1.99154,0.97967
230.42,17.00338,-0.05191136,1.99141,0.97925
231.12,17.0246,-0.05279797,1.99526,0.97883
231.82,17.04583,-0.05549896,1.99464,0.97842
232.52,17.06707,-0.05730298,1.99569,0.978
233.22,17.08819,-0.0593174,1.99714,0.97758
233.92,17.10933,-0.06134189,1.99785,0.97716
234.62,17.13045,-0.06373476,1.99924,0.97674
235.32,17.15165,-0.06591457,1.99922,0.97632
236.02,17.17286,-0.06737574,1.99931,0.9759
236.72,17.19405,-0.06897835,2.00258,0.97548
237.42,17.21518,-0.07108646,2.0027,0.97505
238.12,17.23625,-0.07318729,2.00384,0.97463
238.82,17.25739,-0.07516599,2.002,0.97421
239.52,17.2786,-0.07762126,2.00259,0.97379
240.22,17.29973,-0.08025123,2.00409,0.97337
240.92,17.32091,-0.08250951,2.00594,0.97294
241.62,17.34204,-0.08473896,2.00416,0.97252
242.32,17.3632,-0.08718302,2.00547,0.9721
243.02,17.38438,-0.08888997,2.00766,0.97167
243.72,17.40557,-0.08975732,2.00645,0.97125
244.42,17.42664,-0.09224851,2.00544,0.97082
245.12,17.4477,-0.09459014,2.00539,0.9704
245.82,17.46881,-0.09661103,2.00371,0.96998
246.52,17.48988,-0.09964538,2.00508,0.96955
247.22,17.51099,-0.10234,2.00405,0.96912
247.92,17.53206,-0.1051,2.00302,0.9687
248.62,17.5532,-0.10781,2.00166,0.96827
249.32,17.57435,-0.10973,1.99818,0.96785
250.02,17.5956,-0.1115,1.99817,0.96742
250.72,17.61669,-0.11391,1.9957,0.96699
251.42,17.63776,-0.1165,1.99384,0.96657
252.12,17.65877,-0.11892,1.98977,0.96614
252.82,17.6798,-0.12126,1.99111,0.96571
253.52,17.70081,-0.12381,1.98592,0.96528
254.22,17.72194,-0.12702,1.98524,0.96485
254.92,17.74302,-0.13141,1.98315,0.96443
255.62,17.76408,-0.13499,1.98284,0.964
256.32,17.78509,-0.1378,1.97913,0.96357
257.02,17.8061,-0.14119,1.97883,0.96314
257.72,17.82718,-0.14407,1.97595,0.96271
258.42,17.84824,-0.14718,1.97295,0.96228
259.12,17.86935,-0.15026,1.97134,0.96185
259.82,17.89049,-0.15286,1.96864,0.96142
260.52,17.9116,-0.15596,1.9693,0.96099
261.22,17.9327,-0.15839,1.96843,0.96056
261.92,17.95372,-0.16186,1.9654,0.96012
262.62,17.9747,-0.16471,1.96627,0.95969
263.32,17.99568,-0.16668,1.96119,0.95926
264.02,18.0167,-0.16922,1.96171,0.95883
264.72,18.0378,-0.17378,1.9593,0.9584
265.42,18.05888,-0.17864,1.95904,0.95796
266.12,18.07999,-0.18285,1.95581,0.95753
266.82,18.10114,-0.18715,1.95674,0.9571
267.52,18.12223,-0.1907,1.95288,0.95666
268.22,18.1433,-0.1935,1.9518,0.95623
268.92,18.16434,-0.19788,1.94956,0.9558
269.62,18.18546,-0.20267,1.94666,0.95536
270.32,18.20652,-0.20565,1.94533,0.95493
271.02,18.22758,-0.20945,1.94386,0.95449
271.72,18.2486,-0.21426,1.94032,0.95406
272.42,18.2697,-0.21851,1.93952,0.95362
273.12,18.2907,-0.22218,1.93725,0.95319
273.82,18.31171,-0.22549,1.93633,0.95275
274.52,18.3327,-0.22929,1.92985,0.95231
275.22,18.35375,-0.23403,1.92886,0.95188
275.92,18.3748,-0.2377,1.92384,0.95144
276.62,18.39578,-0.24235,1.91983,0.951
277.32,18.4168,-0.24773,1.91887,0.95057
278.02,18.43786,-0.25188,1.91214,0.95013
278.72,18.45895,-0.25671,1.90839,0.94969
279.42,18.48004,-0.26172,1.90133,0.94925
280.12,18.50113,-0.26571,1.89999,0.94881
280.82,18.52218,-0.27061,1.89519,0.94837
281.52,18.54324,-0.27572,1.8876,0.94794
282.22,18.56436,-0.28104,1.88284,0.9475
282.92,18.58544,-0.2868,1.87624,0.94706
283.62,18.60651,-0.29173,1.86769,0.94662
284.32,18.6277,-0.29778,1.86196,0.94618
285.02,18.64869,-0.30265,1.85394,0.94574
285.72,18.6698,-0.30858,1.84724,0.9453
286.42,18.6908,-0.31481,1.83829,0.94486
287.12,18.7118,-0.32079,1.83011,0.94442
287.82,18.73285,-0.3278,1.81906,0.94397
288.52,18.75384,-0.33316,1.81027,0.94353
289.22,18.77492,-0.33936,1.79992,0.94309
289.92,18.796,-0.34474,1.78919,0.94265
290.62,18.81714,-0.35105,1.77876,0.94221
291.32,18.83819,-0.35841,1.76735,0.94177
292.02,18.85928,-0.36549,1.75732,0.94132
292.72,18.88028,-0.37314,1.7425,0.94088
293.42,18.90134,-0.37892,1.73211,0.94044
294.12,18.92241,-0.38584,1.71682,0.93999
294.82,18.9435,-0.39283,1.70469,0.93955
295.52,18.96459,-0.3999,1.6889,0.93911
296.22,18.98565,-0.40732,1.67726,0.93866
296.92,19.00678,-0.41245,1.66131,0.93822
297.62,19.02778,-0.42112,1.64817,0.93777
298.32,19.04887,-0.42835,1.63162,0.93733
299.02,19.06991,-0.43644,1.61849,0.93688
299.72,19.09096,-0.4441,1.60396,0.93644
300.42,19.1119,-0.45091,1.58718,0.93599
301.12,19.13278,-0.45808,1.57124,0.93555
301.82,19.15392,-0.46444,1.55876,0.9351
302.52,19.17505,-0.47444,1.5453,0.93465
303.22,19.19634,-0.48424,1.53087,0.93421
303.92,19.21738,-0.49392,1.51614,0.93376
304.62,19.23842,-0.50333,1.504,0.93331
305.32,19.2594,-0.51083,1.48709,0.93286
306.02,19.28045,-0.51996,1.4754,0.93242
306.72,19.3015,-0.52744,1.46208,0.93197
307.42,19.32246,-0.53678,1.44963,0.93152
308.12,19.3435,-0.54604,1.43595,0.93107
308.82,19.36443,-0.55596,1.42314,0.93062
309.52,19.38551,-0.56626,1.41261,0.93018
310.22,19.4067,-0.57498,1.4012,0.92973
310.92,19.42771,-0.58557,1.38841,0.92928
311.62,19.44888,-0.59394,1.37928,0.92883
312.32,19.46981,-0.60335,1.36825,0.92838
313.02,19.49081,-0.61381,1.35829,0.92793
313.72,19.51191,-0.62368,1.3483,0.92748
314.42,19.53294,-0.63457,1.34135,0.92703
315.12,19.55416,-0.64343,1.33382,0.92658
315.82,19.5752,-0.65441,1.32276,0.92613
316.52,19.59638,-0.66408,1.31631,0.92568
317.22,19.61744,-0.67459,1.31074,0.92522
317.92,19.63853,-0.68666,1.30268,0.92477
318.62,19.65958,-0.69696,1.29765,0.92432
319.32,19.68066,-0.71001,1.29239,0.92387
320.02,19.70185,-0.72068,1.28671,0.92342
320.72,19.72302,-0.73281,1.28071,0.92296
321.42,19.74418,-0.74443,1.2764,0.92251
322.12,19.7653,-0.75513,1.26855,0.92206
322.82,19.78643,-0.76777,1.26635,0.92161
323.52,19.80752,-0.77891,1.26154,0.92115
324.22,19.82864,-0.79285,1.25624,0.9207
324.92,19.84976,-0.80547,1.25426,0.92025
325.62,19.87094,-0.81813,1.25018,0.91979
326.32,19.8921,-0.83166,1.24779,0.91934
327.02,19.9131,-0.84337,1.24278,0.91888
327.72,19.93429,-0.85704,1.24244,0.91843
328.42,19.9555,-0.86854,1.23758,0.91797
329.12,19.97679,-0.8827,1.23522,0.91752
329.82,19.99796,-0.89659,1.23367,0.91706
330.52,20.019,-0.90907,1.22983,0.91661
331.22,20.0401,-0.9243,1.23226,0.91615
331.92,20.0613,-0.93748,1.22958,0.9157
332.62,20.08256,-0.95363,1.22524,0.91524
333.32,20.10389,-0.96813,1.22573,0.91478
334.02,20.1251,-0.98163,1.2224,0.91433
334.72,20.14635,-0.99738,1.22184,0.91387
335.42,20.16767,-1.01094,1.22015,0.91341
336.12,20.18895,-1.0278,1.21875,0.91295
336.82,20.21023,-1.04373,1.21555,0.9125
337.52,20.23154,-1.05922,1.21579,0.91204
338.22,20.2528,-1.07643,1.21447,0.91158
338.92,20.274,-1.09051,1.21422,0.91112
339.62,20.29522,-1.10827,1.21402,0.91067
340.32,20.3165,-1.12436,1.21336,0.91021
341.02,20.33778,-1.14068,1.21322,0.90975
341.72,20.35908,-1.15868,1.2136,0.90929
342.42,20.38041,-1.17378,1.21143,0.90883
343.12,20.40174,-1.19249,1.21329,0.90837
343.82,20.42308,-1.20956,1.21441,0.90791
344.52,20.4444,-1.22712,1.21151,0.90745
345.22,20.46574,-1.246,1.21148,0.90699
345.92,20.48713,-1.26216,1.21181,0.90653
346.62,20.5085,-1.2828,1.21143,0.90607
347.32,20.52964,-1.30089,1.21082,0.90561
348.02,20.5509,-1.3197,1.21253,0.90515
348.72,20.57216,-1.34061,1.21243,0.90469
349.42,20.59347,-1.35893,1.21506,0.90423
350.12,20.6149,-1.38127,1.20977,0.90376
350.82,20.63636,-1.40167,1.20797,0.9033
351.52,20.65792,-1.42246,1.20786,0.90284
352.22,20.67943,-1.44507,1.20686,0.90238
352.92,20.70083,-1.46368,1.20783,0.90192
353.62,20.72225,-1.4862,1.20767,0.90145
354.32,20.7436,-1.50758,1.20436,0.90099
355.02,20.76511,-1.52886,1.20556,0.90053
355.72,20.78659,-1.55352,1.20099,0.90006
356.42,20.80808,-1.57356,1.20074,0.8996
357.12,20.8295,-1.59706,1.19687,0.89914
357.82,20.8509,-1.61959,1.1925,0.89867
358.52,20.87228,-1.6402,1.19002,0.89821
359.22,20.89367,-1.66493,1.18454,0.89775
359.92,20.9151,-1.68627,1.17567,0.89728
360.62,20.9365,-1.71029,1.16927,0.89682
361.32,20.95809,-1.73405,1.16346,0.89635
362.02,20.97962,-1.75491,1.1555,0.89589
362.72,21.0011,-1.78088,1.14745,0.89542
363.42,21.0225,-1.80234,1.13629,0.89496
364.12,21.04389,-1.82524,1.12794,0.89449
364.82,21.06535,-1.84944,1.11733,0.89403
365.52,21.08689,-1.86876,1.10347,0.89356
366.22,21.10845,-1.89328,1.09249,0.89309
366.92,21.1299,-1.91414,1.07748,0.89263
367.62,21.15142,-1.93564,1.06237,0.89216
368.32,21.17289,-1.96036,1.04606,0.89169
369.02,21.19432,-1.98018,1.03569,0.89123
369.72,21.21579,-2.00271,1.01776,0.89076
370.42,21.23732,-2.02319,0.99911,0.89029
371.12,21.25897,-2.04303,0.98329,0.88982
371.82,21.28054,-2.0661,0.96288,0.88936
372.52,21.30203,-2.08493,0.94574,0.88889
373.22,21.3235,-2.10541,0.92704,0.88842
373.92,21.34504,-2.12592,0.90683,0.88795
374.62,21.3666,-2.14354,0.88732,0.88748
375.32,21.3881,-2.1634,0.86493,0.88702
376.02,21.40946,-2.17843,0.84801,0.88655
376.72,21.431,-2.19427,0.82693,0.88608
377.42,21.45245,-2.21413,0.80565,0.88561
378.12,21.47411,-2.23084,0.78834,0.88514
378.82,21.4957,-2.24927,0.76833,0.88467
379.52,21.5173,-2.26415,0.74768,0.8842
380.22,21.53893,-2.27822,0.73066,0.88373
380.92,21.56054,-2.29395,0.71212,0.88326
381.62,21.58215,-2.30615,0.6938,0.88279
382.32,21.60373,-2.31939,0.6772,0.88232
383.02,21.6252,-2.33187,0.65909,0.88185
383.72,21.6467,-2.34171,0.64405,0.88138
384.42,21.66826,-2.35326,0.62782,0.88091
385.12,21.6899,-2.36336,0.61152,0.88043
385.82,21.71145,-2.37351,0.60102,0.87996
386.52,21.73303,-2.38421,0.58247,0.87949
387.22,21.75465,-2.39182,0.56591,0.87902
387.92,21.77635,-2.39999,0.55234,0.87855
388.62,21.79796,-2.4078,0.54002,0.87807
389.32,21.81952,-2.41467,0.52537,0.8776
390.02,21.8411,-2.42327,0.51706,0.87713
390.72,21.86273,-2.42976,0.50449,0.87666
391.42,21.88441,-2.43602,0.49216,0.87618
392.12,21.90618,-2.44234,0.48132,0.87571
392.82,21.92781,-2.44778,0.47104,0.87524
393.52,21.9495,-2.45381,0.46191,0.87476
394.22,21.97117,-2.45904,0.45254,0.87429
394.92,21.99286,-2.46378,0.43976,0.87382
395.62,22.0146,-2.46865,0.43148,0.87334
396.32,22.0363,-2.47202,0.42496,0.87287
397.02,22.05798,-2.4761,0.41573,0.87239
397.72,22.0797,-2.48125,0.40803,0.87192
398.42,22.10142,-2.48488,0.3982,0.87144
399.12,22.12313,-2.48818,0.3886,0.87097
399.82,22.14485,-2.49173,0.3827,0.87049
400.52,22.16657,-2.4948,0.37519,0.87002
401.22,22.1883,-2.49804,0.36949,0.86954
401.92,22.21002,-2.50197,0.36169,0.86907
402.62,22.23183,-2.50488,0.35413,0.86859
403.32,22.25356,-2.50766,0.34773,0.86812
404.02,22.27531,-2.51092,0.34185,0.86764
404.72,22.2971,-2.51384,0.33432,0.86716
405.42,22.3188,-2.51633,0.32802,0.86669
406.12,22.3406,-2.51916,0.322,0.86621
406.82,22.36234,-2.52213,0.31751,0.86573
407.52,22.3841,-2.52445,0.30934,0.86526
408.22,22.4058,-2.5264,0.30153,0.86478
408.92,22.4276,-2.52831,0.29636,0.8643
409.62,22.4494,-2.53089,0.29138,0.86382
410.32,22.47116,-2.53349,0.28467,0.86335
411.02,22.49304,-2.53673,0.28098,0.86287
411.72,22.5149,-2.53998,0.27588,0.86239
412.42,22.53677,-2.54271,0.27121,0.86191
413.12,22.55861,-2.54525,0.26698,0.86143
413.82,22.58049,-2.5483,0.26319,0.86095
414.52,22.60229,-2.55085,0.25354,0.86048
415.22,22.6241,-2.5528,0.24987,0.86
415.92,22.64594,-2.55486,0.24637,0.85952
416.62,22.66777,-2.55695,0.24249,0.85904
417.32,22.68962,-2.55959,0.2385,0.85856
418.02,22.71153,-2.56195,0.23276,0.85808
418.72,22.73336,-2.56425,0.22942,0.8576
419.42,22.75516,-2.5669,0.22765,0.85712
420.12,22.77696,-2.56973,0.22484,0.85664
420.82,22.79879,-2.57218,0.22097,0.85616
421.52,22.82069,-2.5747,0.21536,0.85568
422.22,22.8426,-2.5772,0.21291,0.8552
422.92,22.8645,-2.57967,0.20795,0.85472
423.62,22.88642,-2.58177,0.20464,0.85424
424.32,22.90834,-2.58375,0.20147,0.85375
425.02,22.9302,-2.58625,0.20216,0.85327
425.72,22.95212,-2.58892,0.19736,0.85279
426.42,22.97405,-2.59166,0.19454,0.85231
427.12,22.99597,-2.59382,0.19329,0.85183
427.82,23.0179,-2.5956,0.19464,0.85135
428.52,23.03986,-2.59769,0.19106,0.85086
429.22,23.06176,-2.599,0.18613,0.85038
429.92,23.08372,-2.60138,0.18644,0.8499
430.62,23.1056,-2.60395,0.18491,0.84942
431.32,23.12752,-2.60659,0.18197,0.84893
432.02,23.14947,-2.60934,0.1852,0.84845
432.72,23.1713,-2.61212,0.18262,0.84797
433.42,23.1932,-2.61489,0.18454,0.84748
434.12,23.215,-2.61666,0.18087,0.847
434.82,23.23692,-2.61822,0.18275,0.84652
435.52,23.2589,-2.61972,0.18587,0.84603
436.22,23.2808,-2.62342,0.18345,0.84555
436.92,23.30282,-2.62616,0.18556,0.84507
437.62,23.3248,-2.62886,0.18892,0.84458
438.32,23.3468,-2.63104,0.1885,0.8441
439.02,23.36882,-2.63258,0.19277,0.84361
439.72,23.3908,-2.63446,0.18868,0.84313
440.42,23.41281,-2.6363,0.19252,0.84264
441.12,23.4348,-2.63849,0.19661,0.84216
441.82,23.4569,-2.64095,0.1986,0.84167
442.52,23.4789,-2.64324,0.20227,0.84119
443.22,23.50092,-2.64548,0.2015,0.8407
443.92,23.52291,-2.64773,0.20464,0.84022
444.62,23.5449,-2.64973,0.21118,0.83973
445.32,23.567,-2.65116,0.21342,0.83924
446.02,23.58924,-2.65273,0.21667,0.83876
446.72,23.6114,-2.65493,0.22074,0.83827
447.42,23.6336,-2.65761,0.22297,0.83779
448.12,23.65573,-2.65964,0.22504,0.8373
448.82,23.67781,-2.66126,0.22913,0.83681
449.52,23.6999,-2.66307,0.23457,0.83633
450.22,23.72195,-2.66514,0.23994,0.83584
450.92,23.74406,-2.66764,0.24259,0.83535
451.62,23.76616,-2.6691,0.24393,0.83486
452.32,23.7883,-2.67075,0.25373,0.83438
453.02,23.8104,-2.67241,0.25381,0.83389
453.72,23.8325,-2.67425,0.25659,0.8334
454.42,23.8546,-2.67639,0.26182,0.83291
455.12,23.87665,-2.67858,0.26909,0.83242
455.82,23.89873,-2.68027,0.26967,0.83194
456.52,23.9208,-2.68247,0.27252,0.83145
457.22,23.94291,-2.68474,0.27846,0.83096
457.92,23.96509,-2.68714,0.28435,0.83047
458.62,23.98725,-2.68895,0.2899,0.82998
459.32,24.0094,-2.68992,0.2922,0.82949
460.02,24.0316,-2.69035,0.29643,0.829
460.72,24.05371,-2.69215,0.29927,0.82851
461.42,24.076,-2.69383,0.30675,0.82802
462.12,24.0981,-2.69554,0.30741,0.82753
462.82,24.12029,-2.6974,0.31197,0.82704
463.52,24.14241,-2.69908,0.31585,0.82655
464.22,24.16434,-2.70027,0.31967,0.82606
464.92,24.1863,-2.70117,0.32643,0.82557
465.62,24.20845,-2.7042,0.32859,0.82508
466.32,24.2308,-2.70532,0.33213,0.82459
467.02,24.25326,-2.70695,0.33642,0.8241
467.72,24.2756,-2.70917,0.34017,0.82361
468.42,24.29784,-2.71092,0.34328,0.82312
469.12,24.32004,-2.71243,0.34634,0.82263
469.82,24.34224,-2.71421,0.35119,0.82214
470.52,24.36445,-2.71563,0.35406,0.82165
471.22,24.38674,-2.71606,0.35911,0.82115
471.92,24.40898,-2.7173,0.36022,0.82066
472.62,24.43129,-2.71912,0.36239,0.82017
473.32,24.45354,-2.72066,0.36721,0.81968
474.02,24.47581,-2.72237,0.3699,0.81919
474.72,24.49803,-2.72428,0.37342,0.81869
475.42,24.5203,-2.72627,0.37862,0.8182
476.12,24.5425,-2.72774,0.37972,0.81771
476.82,24.56472,-2.72895,0.38336,0.81722
477.52,24.58696,-2.72978,0.38381,0.81672
478.22,24.60932,-2.73135,0.38656,0.81623
478.92,24.63159,-2.73322,0.39011,0.81574
479.62,24.65394,-2.73484,0.38973,0.81524
480.32,24.6763,-2.73476,0.39442,0.81475
481.02,24.69858,-2.73614,0.39777,0.81426
481.72,24.7209,-2.73617,0.40079,0.81376
482.42,24.74318,-2.73793,0.40165,0.81327
483.12,24.7654,-2.73974,0.40286,0.81278
483.82,24.7878,-2.74119,0.4046,0.81228
484.52,24.81,-2.74256,0.40681,0.81179
485.22,24.83229,-2.74377,0.40941,0.81129
485.92,24.85465,-2.74494,0.41006,0.8108
486.62,24.87694,-2.74646,0.41384,0.8103
487.32,24.89927,-2.74812,0.41552,0.80981
488.02,24.92152,-2.74958,0.41462,0.80931
488.72,24.94389,-2.75098,0.41683,0.80882
489.42,24.96621,-2.75258,0.41758,0.80832
490.12,24.98851,-2.75517,0.41682,0.80783
490.82,25.01086,-2.75557,0.42085,0.80733
491.52,25.03323,-2.75674,0.42301,0.80684
492.22,25.0556,-2.75775,0.42423,0.80634
492.92,25.07785,-2.75843,0.42603,0.80584
493.62,25.1002,-2.75992,0.42809,0.80535
494.32,25.1225,-2.76153,0.42849,0.80485
495.02,25.1449,-2.76228,0.43001,0.80435
495.72,25.16735,-2.76157,0.42766,0.80386
496.42,25.1896,-2.76315,0.43344,0.80336
497.12,25.21184,-2.7645,0.42982,0.80286
497.82,25.23421,-2.76556,0.43359,0.80237
498.52,25.25659,-2.76669,0.43246,0.80187
499.22,25.27915,-2.76895,0.43441,0.80137
499.92,25.3016,-2.77072,0.43676,0.80088
500.62,25.32399,-2.77099,0.43649,0.80038
501.32,25.3464,-2.77208,0.4345,0.79988
502.02,25.36883,-2.77355,0.43402,0.79938
502.72,25.3913,-2.7743,0.43495,0.79889
503.42,25.41367,-2.77495,0.43864,0.79839
504.12,25.4361,-2.77602,0.4391,0.79789
504.82,25.45852,-2.77621,0.43859,0.79739
505.52,25.48096,-2.77681,0.44441,0.79689
506.22,25.50337,-2.7783,0.44008,0.79639
506.92,25.52574,-2.77823,0.44165,0.79589
507.62,25.54811,-2.7797,0.44448,0.7954
508.32,25.57049,-2.78057,0.44062,0.7949
509.02,25.59292,-2.78251,0.44436,0.7944
509.72,25.61534,-2.7838,0.4445,0.7939
510.42,25.63779,-2.78421,0.44645,0.7934
511.12,25.66025,-2.78559,0.44493,0.7929
511.82,25.68273,-2.7872,0.44667,0.7924
512.52,25.7052,-2.78805,0.44731,0.7919
513.22,25.72762,-2.78911,0.44447,0.7914
513.92,25.7501,-2.789,0.44796,0.7909
514.62,25.7726,-2.79054,0.44698,0.7904
515.32,25.79508,-2.79064,0.44806,0.7899
516.02,25.81755,-2.79183,0.45046,0.7894
516.72,25.83999,-2.79184,0.44889,0.7889
517.42,25.8625,-2.79306,0.44999,0.7884
518.12,25.8849,-2.7942,0.4487,0.7879
518.82,25.90739,-2.7957,0.44969,0.7874
519.52,25.92991,-2.79563,0.44983,0.78689
520.22,25.95242,-2.797,0.44931,0.78639
520.92,25.9749,-2.79703,0.44944,0.78589
521.62,25.99737,-2.79846,0.44833,0.78539
522.32,26.0199,-2.79983,0.45335,0.78489
523.02,26.04244,-2.8,0.45261,0.78439
523.72,26.065,-2.80137,0.45158,0.78389
524.42,26.08748,-2.80256,0.45052,0.78338
525.12,26.11001,-2.80321,0.45258,0.78288
525.82,26.13254,-2.80455,0.45377,0.78238
526.52,26.15504,-2.80613,0.45332,0.78188
527.22,26.1776,-2.80608,0.45325,0.78137
527.92,26.20018,-2.80741,0.45225,0.78087
528.62,26.2228,-2.80742,0.45471,0.78037
529.32,26.2453,-2.80865,0.45255,0.77987
530.02,26.2677,-2.80871,0.45468,0.77936
530.72,26.29017,-2.80914,0.4561,0.77886
531.42,26.3127,-2.80911,0.45486,0.77836
532.12,26.3354,-2.81038,0.45576,0.77785
532.82,26.35805,-2.81165,0.45627,0.77735
533.52,26.38066,-2.81184,0.4543,0.77685
534.22,26.4033,-2.81322,0.45903,0.77634
534.92,26.42578,-2.81414,0.45903,0.77584
535.62,26.44833,-2.81456,0.46115,0.77533
536.32,26.471,-2.8162,0.46105,0.77483
537.02,26.49362,-2.81641,0.45806,0.77433
537.72,26.51628,-2.8176,0.46033,0.77382
538.42,26.53888,-2.81773,0.45987,0.77332
539.12,26.56148,-2.81777,0.46177,0.77281
539.82,26.58413,-2.81919,0.46195,0.77231
540.52,26.6068,-2.82015,0.46031,0.7718
541.22,26.6294,-2.82057,0.46154,0.7713
541.92,26.652,-2.82187,0.45942,0.77079
542.62,26.67455,-2.8219,0.4586,0.77029
543.32,26.69717,-2.82221,0.46074,0.76978
544.02,26.71978,-2.82332,0.46315,0.76928
544.72,26.74232,-2.82489,0.46299,0.76877
545.42,26.765,-2.82506,0.46492,0.76827
546.12,26.78765,-2.82618,0.46423,0.76776
546.82,26.8104,-2.82687,0.46421,0.76725
547.52,26.833,-2.82749,0.46759,0.76675
548.22,26.85572,-2.82905,0.46697,0.76624
548.92,26.8784,-2.82979,0.46864,0.76574
549.62,26.9011,-2.82985,0.47055,0.76523
550.32,26.9238,-2.83128,0.46995,0.76472
551.02,26.9464,-2.83274,0.46989,0.76422
551.72,26.96903,-2.83271,0.47195,0.76371
552.42,26.99165,-2.83421,0.47482,0.7632
553.12,27.01435,-2.8342,0.47373,0.7627
553.82,27.03698,-2.83573,0.47537,0.76219
554.52,27.05968,-2.83537,0.47616,0.76168
555.22,27.08235,-2.83584,0.47916,0.76117
555.92,27.1051,-2.83704,0.48007,0.76067
556.62,27.12782,-2.83714,0.48181,0.76016
557.32,27.15046,-2.83709,0.48175,0.75965
558.02,27.17323,-2.83846,0.48217,0.75914
558.72,27.19595,-2.83846,0.48134,0.75864
559.42,27.2188,-2.83846,0.48349,0.75813
560.12,27.24148,-2.83892,0.48609,0.75762
560.82,27.26415,-2.83988,0.48804,0.75711
561.52,27.2867,-2.84055,0.48799,0.7566
562.22,27.30945,-2.8412,0.49095,0.75609
562.92,27.3322,-2.84119,0.48998,0.75559
563.62,27.355,-2.84254,0.49054,0.75508
564.32,27.37775,-2.84253,0.49061,0.75457
565.02,27.4005,-2.84385,0.49688,0.75406
565.72,27.42325,-2.84381,0.49351,0.75355
566.42,27.446,-2.84541,0.49853,0.75304
567.12,27.4688,-2.84619,0.49832,0.75253
567.82,27.49155,-2.84769,0.49931,0.75202
568.52,27.5143,-2.84847,0.50155,0.75151
569.22,27.53711,-2.8491,0.50013,0.751
569.92,27.5598,-2.84974,0.50044,0.75049
570.62,27.58258,-2.85042,0.50179,0.74998
571.32,27.60537,-2.85092,0.50354,0.74947
572.02,27.62815,-2.85173,0.50256,0.74896
572.72,27.65095,-2.85171,0.50142,0.74845
573.42,27.6737,-2.85306,0.50207,0.74794
574.12,27.6965,-2.85305,0.50322,0.74743
574.82,27.71929,-2.85306,0.50482,0.74692
575.52,27.7421,-2.85442,0.50372,0.74641
576.22,27.7649,-2.85437,0.50405,0.7459
576.92,27.7877,-2.85439,0.50511,0.74539
577.62,27.81052,-2.8557,0.50554,0.74488
578.32,27.83329,-2.85568,0.50915,0.74437
579.02,27.85608,-2.85705,0.50547,0.74386
579.72,27.87885,-2.857,0.50599,0.74335
580.42,27.9017,-2.85711,0.50824,0.74283
581.12,27.9246,-2.85832,0.51025,0.74232
581.82,27.94745,-2.85936,0.50908,0.74181
582.52,27.9703,-2.85963,0.50987,0.7413
583.22,27.9931,-2.85994,0.50567,0.74079
583.92,28.01588,-2.86094,0.50681,0.74028
584.62,28.0387,-2.86096,0.50895,0.73976
585.32,28.0615,-2.86206,0.5072,0.73925
586.02,28.08435,-2.86199,0.50725,0.73874
586.72,28.1073,-2.86335,0.506,0.73823
587.42,28.13011,-2.86347,0.50764,0.73771
588.12,28.1529,-2.86468,0.50439,0.7372
588.82,28.1757,-2.86464,0.50402,0.73669
589.52,28.1986,-2.866,0.50382,0.73618
590.22,28.22147,-2.86499,0.506,0.73566
590.92,28.24427,-2.865,0.50324,0.73515
591.62,28.26715,-2.86572,0.50455,0.73464
592.32,28.29005,-2.86633,0.50381,0.73412
593.02,28.313,-2.86728,0.5026,0.73361
593.72,28.3359,-2.86775,0.50266,0.7331
594.42,28.35877,-2.86862,0.49515,0.73258
595.12,28.38164,-2.86906,0.49962,0.73207
595.82,28.40447,-2.86907,0.49646,0.73156
596.52,28.42735,-2.87041,0.49745,0.73104
597.22,28.4503,-2.87038,0.49747,0.73053
597.92,28.4732,-2.87038,0.49639,0.73002
598.62,28.4961,-2.87094,0.49283,0.7295
599.32,28.51905,-2.87302,0.49062,0.72899
600.02,28.5419,-2.87298,0.49012,0.72847
600.72,28.5649,-2.87435,0.48906,0.72796
601.42,28.5877,-2.87325,0.4862,0.72744
602.12,28.6107,-2.87301,0.48507,0.72693
602.82,28.6336,-2.87301,0.48231,0.72641
603.52,28.65648,-2.87435,0.48247,0.7259
604.22,28.6794,-2.8749,0.48234,0.72538
604.92,28.70232,-2.87574,0.4781,0.72487
605.62,28.7253,-2.87713,0.47486,0.72435
606.32,28.74813,-2.87719,0.47678,0.72384
607.02,28.77099,-2.87833,0.47486,0.72332
607.72,28.79385,-2.87849,0.47706,0.72281
608.42,28.8168,-2.87916,0.47152,0.72229
609.12,28.83975,-2.87981,0.47291,0.72178
609.82,28.8628,-2.88099,0.47238,0.72126
610.52,28.8858,-2.88113,0.47141,0.72075
611.22,28.9088,-2.88226,0.46817,0.72023
611.92,28.9318,-2.88244,0.46862,0.71971
612.62,28.9547,-2.88329,0.46666,0.7192
613.32,28.97768,-2.88387,0.46828,0.71868
614.02,29.0006,-2.88387,0.46209,0.71817
614.72,29.0236,-2.88509,0.46577,0.71765
615.42,29.04655,-2.88518,0.46479,0.71713
616.12,29.0695,-2.88617,0.46072,0.71662
616.82,29.0924,-2.88523,0.45789,0.7161
617.52,29.11536,-2.88532,0.45865,0.71558
618.22,29.1383,-2.88649,0.45611,0.71507
618.92,29.1612,-2.8865,0.45595,0.71455
619.62,29.1842,-2.88686,0.45172,0.71403
620.32,29.2072,-2.88785,0.45033,0.71352
621.02,29.23023,-2.88912,0.45458,0.713
621.72,29.25334,-2.88913,0.45087,0.71248
622.42,29.2764,-2.88913,0.44602,0.71196
623.12,29.2994,-2.88913,0.44897,0.71145
623.82,29.3224,-2.88913,0.44904,0.71093
624.52,29.3454,-2.88977,0.44751,0.71041
625.22,29.3685,-2.88914,0.44771,0.70989
625.92,29.39143,-2.88913,0.44506,0.70938
626.62,29.41432,-2.88913,0.4444,0.70886
627.32,29.43723,-2.88985,0.44193,0.70834
628.02,29.46019,-2.89045,0.44194,0.70782
628.72,29.4832,-2.89045,0.43828,0.7073
629.42,29.5062,-2.89102,0.43658,0.70678
630.12,29.5292,-2.89307,0.43767,0.70627
630.82,29.5522,-2.89308,0.43708,0.70575
631.52,29.5752,-2.89308,0.43622,0.70523
632.22,29.5983,-2.89309,0.4332,0.70471
632.92,29.6213,-2.89444,0.43467,0.70419
633.62,29.6443,-2.89424,0.43024,0.70367
634.32,29.66732,-2.89308,0.42915,0.70315
635.02,29.69039,-2.89306,0.42844,0.70263
635.72,29.7135,-2.89439,0.42971,0.70212
636.42,29.73655,-2.89435,0.4302,0.7016
637.12,29.7597,-2.89594,0.43174,0.70108
637.82,29.7827,-2.89613,0.42667,0.70056
638.52,29.80576,-2.89725,0.42575,0.70004
639.22,29.8288,-2.89722,0.42785,0.69952
639.92,29.8519,-2.89858,0.42663,0.699
640.62,29.87505,-2.89856,0.42317,0.69848
641.32,29.89811,-2.89899,0.42614,0.69796
642.02,29.9211,-2.89988,0.42535,0.69744
642.72,29.9441,-2.89988,0.42241,0.69692
643.42,29.96717,-2.89988,0.42398,0.6964
644.12,29.99036,-2.89988,0.42195,0.69588
644.82,30.01343,-2.89988,0.41877,0.69536
645.52,30.03649,-2.89988,0.41849,0.69484
646.22,30.05955,-2.90083,0.41698,0.69432
646.92,30.0827,-2.9012,0.4188,0.6938
647.62,30.1058,-2.90145,0.41512,0.69328
648.32,30.12888,-2.9025,0.41659,0.69276
649.02,30.15192,-2.90251,0.41469,0.69224
649.72,30.17505,-2.90251,0.41147,0.69172
650.42,30.19823,-2.90251,0.41078,0.6912
651.12,30.2213,-2.90296,0.41106,0.69067
651.82,30.24445,-2.90383,0.40694,0.69015
652.52,30.2675,-2.90385,0.40792,0.68963
653.22,30.2906,-2.90516,0.40671,0.68911
653.92,30.3138,-2.90514,0.4074,0.68859
654.62,30.33701,-2.90623,0.40659,0.68807
655.32,30.36014,-2.90646,0.40576,0.68755
656.02,30.3832,-2.90646,0.40262,0.68703
656.72,30.40633,-2.90676,0.40217,0.6865
657.42,30.42943,-2.90777,0.40527,0.68598
658.12,30.4526,-2.90778,0.39726,0.68546
658.82,30.4758,-2.90761,0.39743,0.68494
659.52,30.49881,-2.90647,0.39779,0.68442
660.22,30.52197,-2.90736,0.39897,0.6839
660.92,30.5451,-2.90778,0.39399,0.68337
661.62,30.56829,-2.90775,0.39278,0.68285
662.32,30.59142,-2.90913,0.39382,0.68233
663.02,30.61463,-2.9091,0.39233,0.68181
663.72,30.63784,-2.9091,0.3926,0.68128
664.42,30.66105,-2.9091,0.39188,0.68076
665.12,30.68419,-2.9091,0.39251,0.68024
665.82,30.7073,-2.9091,0.39025,0.67972
666.52,30.73054,-2.9091,0.38806,0.67919
667.22,30.75348,-2.90944,0.38741,0.67867
667.92,30.7766,-2.91041,0.38763,0.67815
668.62,30.7997,-2.91042,0.38694,0.67763
669.32,30.82297,-2.9116,0.38684,0.6771
670.02,30.84621,-2.91173,0.38232,0.67658
670.72,30.8694,-2.91173,0.38307,0.67606
671.42,30.89262,-2.9117,0.38054,0.67553
672.12,30.91575,-2.91304,0.37876,0.67501
672.82,30.93873,-2.91303,0.38136,0.67449
673.52,30.9619,-2.91438,0.38003,0.67396
674.22,30.985,-2.91436,0.38046,0.67344
674.92,31.0083,-2.91436,0.375,0.67292
675.62,31.03153,-2.91436,0.37637,0.67239
676.32,31.05473,-2.91436,0.37517,0.67187
677.02,31.07788,-2.91437,0.37464,0.67135
677.72,31.1009,-2.91571,0.3731,0.67082
678.42,31.124,-2.91568,0.37083,0.6703
679.12,31.1472,-2.91568,0.37158,0.66977
679.82,31.1704,-2.91566,0.3737,0.66925
680.52,31.19357,-2.917,0.37028,0.66873
681.22,31.21665,-2.917,0.36989,0.6682
681.92,31.23977,-2.91796,0.36871,0.66768
682.62,31.263,-2.91831,0.36689,0.66715
683.32,31.28619,-2.91831,0.36607,0.66663
684.02,31.3093,-2.91831,0.36353,0.6661
684.72,31.3324,-2.91886,0.3682,0.66558
685.42,31.3556,-2.91963,0.36322,0.66506
686.12,31.37885,-2.91963,0.36116,0.66453
686.82,31.40199,-2.9196,0.35808,0.66401
687.52,31.42515,-2.92096,0.36146,0.66348
688.22,31.44827,-2.92094,0.36043,0.66296
688.92,31.4714,-2.92094,0.35599,0.66243
689.62,31.4946,-2.92091,0.35416,0.66191
690.32,31.5177,-2.92038,0.34994,0.66138
691.02,31.5406,-2.92094,0.35045,0.66086
691.72,31.5637,-2.92094,0.35252,0.66033
692.42,31.5869,-2.92094,0.35064,0.65981
693.12,31.61038,-2.92094,0.3474,0.65928
693.82,31.6336,-2.92094,0.3462,0.65876
694.52,31.6567,-2.92105,0.34811,0.65823
695.22,31.67977,-2.92226,0.34685,0.65771
695.92,31.70293,-2.92226,0.34693,0.65718
696.62,31.72625,-2.92197,0.34506,0.65665
697.32,31.74943,-2.92095,0.34529,0.65613
698.02,31.77259,-2.92094,0.34086,0.6556
698.72,31.7957,-2.9209,0.34347,0.65508
699.42,31.8189,-2.92227,0.34342,0.65455
700.12,31.84208,-2.92317,0.34275,0.65403
700.82,31.86522,-2.92357,0.34203,0.6535
701.52,31.8883,-2.92357,0.34062,0.65297
702.22,31.91145,-2.92358,0.33912,0.65245
702.92,31.93463,-2.92493,0.3379,0.65192
703.62,31.95784,-2.92495,0.33581,0.6514
704.32,31.98105,-2.9239,0.33456,0.65087
705.02,32.00427,-2.9239,0.3347,0.65034
705.72,32.02748,-2.9239,0.3344,0.64982
706.42,32.05069,-2.9239,0.33162,0.64929
707.12,32.07391,-2.92393,0.32894,0.64876
707.82,32.09713,-2.92521,0.3327,0.64824
708.52,32.12036,-2.92522,0.33508,0.64771
709.22,32.14354,-2.92523,0.33187,0.64719
709.92,32.16673,-2.92621,0.32996,0.64666
710.62,32.18994,-2.92654,0.32947,0.64613
711.32,32.2132,-2.92751,0.32728,0.64561
712.02,32.23643,-2.92785,0.32528,0.64508
712.72,32.25967,-2.92785,0.32667,0.64455
713.42,32.2828,-2.92744,0.32269,0.64402
714.12,32.30598,-2.92884,0.32192,0.6435
714.82,32.3292,-2.92883,0.32282,0.64297
715.52,32.35245,-2.92883,0.31743,0.64244
716.22,32.37571,-2.92883,0.317,0.64192
716.92,32.399,-2.92883,0.31682,0.64139
717.62,32.42223,-2.9288,0.31817,0.64086
718.32,32.4454,-2.93017,0.31365,0.64034
719.02,32.46863,-2.93015,0.3163,0.63981
719.72,32.4918,-2.93016,0.31025,0.63928
720.42,32.51508,-2.93152,0.31195,0.63875
721.12,32.5383,-2.93142,0.31277,0.63823
721.82,32.56145,-2.93288,0.31166,0.6377
722.52,32.58466,-2.93289,0.31208,0.63717
723.22,32.60796,-2.93289,0.31176,0.63664
723.92,32.63129,-2.93369,0.30838,0.63612
724.62,32.65464,-2.93421,0.30815,0.63559
725.32,32.678,-2.93421,0.30694,0.63506
726.02,32.70133,-2.93421,0.30549,0.63453
726.72,32.7247,-2.93421,0.30908,0.634
727.42,32.748,-2.9342,0.30838,0.63348
728.12,32.7714,-2.93548,0.30568,0.63295
728.82,32.79461,-2.93555,0.30399,0.63242
729.52,32.81791,-2.93419,0.29848,0.63189
730.22,32.841,-2.93422,0.30158,0.63137
730.92,32.86427,-2.93422,0.29514,0.63084
731.62,32.88751,-2.93422,0.29623,0.63031
732.32,32.91085,-2.93422,0.29793,0.62978
733.02,32.93416,-2.93422,0.29541,0.62925
733.72,32.95746,-2.93495,0.29321,0.62872
734.42,32.98079,-2.93553,0.2923,0.6282
735.12,33.0041,-2.93553,0.29513,0.62767
735.82,33.0274,-2.93553,0.29942,0.62714
736.52,33.0507,-2.93553,0.2982,0.62661
737.22,33.07394,-2.93554,0.294,0.62608
737.92,33.0972,-2.93453,0.29269,0.62555
738.62,33.1205,-2.93455,0.29024,0.62503
739.32,33.14383,-2.93588,0.29211,0.6245
740.02,33.16718,-2.93586,0.29281,0.62397
740.72,33.19045,-2.9355,0.29523,0.62344
741.42,33.21378,-2.93552,0.28794,0.62291
742.12,33.2371,-2.93672,0.29188,0.62238
742.82,33.26047,-2.93684,0.29218,0.62185
743.52,33.28382,-2.93684,0.29024,0.62133
744.22,33.3071,-2.93683,0.2898,0.6208
744.92,33.3304,-2.9382,0.28772,0.62027
745.62,33.35372,-2.93816,0.28445,0.61974
746.32,33.37702,-2.93816,0.29042,0.61921
747.02,33.40039,-2.93816,0.28829,0.61868
747.72,33.42368,-2.93817,0.28646,0.61815
748.42,33.44695,-2.93949,0.28598,0.61762
749.12,33.47025,-2.93948,0.28512,0.61709
749.82,33.49361,-2.93948,0.28524,0.61656
750.52,33.51698,-2.93943,0.28247,0.61604
751.22,33.54033,-2.94079,0.28176,0.61551
751.92,33.56369,-2.94079,0.27814,0.61498
752.62,33.58709,-2.94079,0.2804,0.61445
753.32,33.61043,-2.94189,0.2804,0.61392
754.02,33.63382,-2.94211,0.28038,0.61339
754.72,33.65713,-2.94214,0.27974,0.61286
755.42,33.6805,-2.94176,0.2787,0.61233
756.12,33.7038,-2.94145,0.27679,0.6118
756.82,33.72719,-2.94145,0.27807,0.61127
757.52,33.75054,-2.94145,0.27881,0.61074
758.22,33.77386,-2.94181,0.27732,0.61021
758.92,33.79724,-2.94212,0.27087,0.60968
759.62,33.8206,-2.94212,0.27153,0.60915
760.32,33.84397,-2.94212,0.27008,0.60863
761.02,33.86732,-2.94212,0.2721,0.6081
761.72,33.89065,-2.94212,0.27046,0.60757
762.42,33.91405,-2.94211,0.26777,0.60704
763.12,33.9375,-2.94311,0.269,0.60651
763.82,33.96086,-2.9431,0.26747,0.60598
764.52,33.98424,-2.9431,0.26536,0.60545
765.22,34.00763,-2.9431,0.26608,0.60492
765.92,34.03103,-2.9431,0.26179,0.60439
766.62,34.05442,-2.9431,0.25967,0.60386
767.32,34.07772,-2.9431,0.26267,0.60333
768.02,34.1011,-2.94229,0.25715,0.6028
768.72,34.12446,-2.9421,0.25839,0.60227
769.42,34.14799,-2.94219,0.2555,0.60174
770.12,34.17147,-2.94342,0.25461,0.60121
770.82,34.19489,-2.94343,0.25096,0.60068
771.52,34.21828,-2.94343,0.24793,0.60015
772.22,34.2417,-2.94343,0.24829,0.59962
772.92,34.26488,-2.94343,0.24532,0.59909
773.62,34.28824,-2.94343,0.24506,0.59856
774.32,34.31174,-2.94427,0.24031,0.59803
775.02,34.33543,-2.94475,0.24158,0.5975
775.72,34.359,-2.946,0.24225,0.59697
776.42,34.38232,-2.94606,0.24043,0.59644
777.12,34.40574,-2.94606,0.23684,0.59591
777.82,34.42924,-2.94625,0.23719,0.59538
778.52,34.45272,-2.94738,0.23366,0.59485
779.22,34.47622,-2.94738,0.23376,0.59432
779.92,34.49968,-2.94738,0.23153,0.59379
780.62,34.52308,-2.94637,0.23272,0.59326
781.32,34.5465,-2.94639,0.2326,0.59273
782.02,34.56993,-2.94639,0.22681,0.5922
782.72,34.59347,-2.94639,0.23004,0.59167
783.42,34.61696,-2.94697,0.22902,0.59114
784.12,34.6404,-2.94705,0.22923,0.59061
784.82,34.66382,-2.94775,0.22646,0.59008
785.52,34.68728,-2.94836,0.22833,0.58955
786.22,34.71078,-2.94836,0.22552,0.58902
786.92,34.73424,-2.94839,0.22552,0.58849
787.62,34.7577,-2.94902,0.22303,0.58796
788.32,34.78115,-2.94902,0.22741,0.58743
789.02,34.8047,-2.94902,0.22492,0.5869
789.72,34.82825,-2.94902,0.22392,0.58637
790.42,34.85176,-2.94902,0.21982,0.58584
791.12,34.87522,-2.94902,0.22532,0.58531
791.82,34.8987,-2.94875,0.22363,0.58478
792.52,34.92228,-2.94901,0.22224,0.58425
793.22,34.9458,-2.94902,0.2246,0.58372
793.92,34.96922,-2.94902,0.2204,0.58319
794.62,34.99259,-2.94932,0.22099,0.58266
794.82,34.99921,-2.94936,0.21929,0.58251