File: 01_Data/Particleboard/STA/N2/30K_min/Particleboard_STA_N2_30KData_220419_R1.csv
##Temp./Â°C,Time/min,Mass loss(subtr.2)/mg,DSC(subtr.2)/(mW/mg),Sensit./(uV/mW)
48.413,10.00583,-0.0351,0.01717737,1.07509
49.113,10.552,-0.03786771,0.05788624,1.07479
49.813,10.68125,-0.03207436,0.09550625,1.07448
50.513,10.77131,-0.0346939,0.12747,1.07417
51.213,10.8452,-0.03744371,0.1607,1.07386
51.913,10.9087,-0.03816814,0.19145,1.07355
52.613,10.9656,-0.03794668,0.21771,1.07324
53.313,11.01764,-0.03728996,0.2437,1.07293
54.013,11.06598,-0.03816727,0.26683,1.07262
54.713,11.11105,-0.03801186,0.28842,1.0723
55.413,11.1541,-0.03855951,0.31182,1.07199
56.113,11.19495,-0.03906175,0.33046,1.07168
56.813,11.2339,-0.03898647,0.35014,1.07136
57.513,11.2715,-0.0396226,0.36916,1.07105
58.213,11.30771,-0.03951466,0.3871,1.07073
58.913,11.3432,-0.03865429,0.40624,1.07042
59.613,11.3776,-0.03837901,0.42171,1.0701
60.313,11.41099,-0.03762211,0.43736,1.06978
61.013,11.44367,-0.03516044,0.45386,1.06947
61.713,11.47573,-0.03513622,0.46838,1.06915
62.413,11.50714,-0.03674769,0.48218,1.06883
63.113,11.53796,-0.03692215,0.4987,1.06851
63.813,11.56837,-0.03729413,0.51243,1.06819
64.513,11.5982,-0.03694591,0.52523,1.06787
65.213,11.62786,-0.03795137,0.53937,1.06755
65.913,11.657,-0.04064177,0.55322,1.06723
66.613,11.68585,-0.04287898,0.56596,1.06691
67.313,11.7143,-0.043228,0.57817,1.06658
68.013,11.7425,-0.04340954,0.59055,1.06626
68.713,11.7703,-0.0428111,0.60012,1.06594
69.413,11.798,-0.04200617,0.61195,1.06562
70.113,11.82532,-0.04120887,0.62299,1.06529
70.813,11.85242,-0.04111765,0.6344,1.06497
71.513,11.87902,-0.04155013,0.64664,1.06464
72.213,11.90552,-0.04152882,0.65835,1.06431
72.913,11.93218,-0.04229998,0.66644,1.06399
73.613,11.959,-0.04266172,0.67883,1.06366
74.313,11.98553,-0.04328128,0.68786,1.06333
75.013,12.01183,-0.0432368,0.6979,1.06301
75.713,12.03787,-0.0432302,0.7067,1.06268
76.413,12.0637,-0.04295023,0.7171,1.06235
77.113,12.08938,-0.04290685,0.72718,1.06202
77.813,12.1149,-0.04250386,0.7379,1.06169
78.513,12.14055,-0.04147261,0.74702,1.06136
79.213,12.166,-0.04264372,0.75726,1.06103
79.913,12.19135,-0.04182636,0.76411,1.0607
80.613,12.21654,-0.04156334,0.77335,1.06036
81.313,12.24173,-0.04319871,0.7814,1.06003
82.013,12.26678,-0.04336851,0.78968,1.0597
82.713,12.29171,-0.04434191,0.79871,1.05936
83.413,12.3164,-0.04486242,0.80533,1.05903
84.113,12.34122,-0.04474103,0.81423,1.05869
84.813,12.36598,-0.04407373,0.82298,1.05836
85.513,12.39061,-0.04475856,0.83252,1.05802
86.213,12.41509,-0.04475013,0.83895,1.05769
86.913,12.43954,-0.04475135,0.84803,1.05735
87.613,12.4639,-0.04594182,0.85595,1.05701
88.313,12.48829,-0.04606864,0.86261,1.05668
89.013,12.51253,-0.04606931,0.86936,1.05634
89.713,12.53691,-0.04599644,0.87688,1.056
90.413,12.5611,-0.04618545,0.88302,1.05566
91.113,12.5852,-0.04749384,0.88897,1.05532
91.813,12.60928,-0.04933135,0.89612,1.05498
92.513,12.6334,-0.05042949,0.90301,1.05464
93.213,12.65738,-0.05077765,0.9095,1.0543
93.913,12.68125,-0.05169703,0.91559,1.05396
94.613,12.7051,-0.05210075,0.92154,1.05361
95.313,12.729,-0.0521034,0.92659,1.05327
96.013,12.75286,-0.05139422,0.9311,1.05293
96.713,12.77675,-0.05093379,0.93573,1.05259
97.413,12.8005,-0.05208614,0.93841,1.05224
98.113,12.82428,-0.05209007,0.9435,1.0519
98.813,12.848,-0.05209336,0.94694,1.05155
99.513,12.8718,-0.05301667,0.95137,1.05121
100.213,12.89552,-0.05339461,0.9551,1.05086
100.913,12.91912,-0.05472928,0.95798,1.05051
101.613,12.94267,-0.05472967,0.96228,1.05017
102.313,12.96619,-0.05473001,0.9635,1.04982
103.013,12.98978,-0.0547248,0.9641,1.04947
103.713,13.01327,-0.05367388,0.96503,1.04912
104.413,13.0368,-0.05466446,0.96826,1.04877
105.113,13.06,-0.05472978,0.96889,1.04843
105.813,13.08358,-0.05473001,0.97042,1.04808
106.513,13.10705,-0.05473,0.97107,1.04773
107.213,13.13081,-0.0547297,0.97012,1.04737
107.913,13.15436,-0.05468571,0.97011,1.04702
108.613,13.17775,-0.05342405,0.9711,1.04667
109.313,13.2012,-0.05481075,0.97045,1.04632
110.013,13.22454,-0.05339016,0.96959,1.04597
110.713,13.2479,-0.0534089,0.96829,1.04561
111.413,13.2712,-0.05363635,0.96743,1.04526
112.113,13.2946,-0.05472499,0.96683,1.04491
112.813,13.318,-0.05472725,0.96366,1.04455
113.513,13.3415,-0.05567466,0.96465,1.0442
114.213,13.36479,-0.05703255,0.96489,1.04384
114.913,13.3882,-0.05864659,0.96006,1.04349
115.613,13.41148,-0.06030512,0.96196,1.04313
116.313,13.4348,-0.06157135,0.95845,1.04277
117.013,13.458,-0.06251767,0.95805,1.04242
117.713,13.48124,-0.06251768,0.95611,1.04206
118.413,13.5044,-0.06299663,0.95467,1.0417
119.113,13.52765,-0.06385957,0.95329,1.04134
119.813,13.55086,-0.06237966,0.95109,1.04098
120.513,13.574,-0.06194273,0.94646,1.04062
121.213,13.59704,-0.06109838,0.94791,1.04026
121.913,13.62014,-0.0621584,0.94535,1.0399
122.613,13.64325,-0.06241078,0.943,1.03954
123.313,13.66629,-0.06240381,0.94145,1.03918
124.013,13.6893,-0.06376637,0.93988,1.03882
124.713,13.71202,-0.06371988,0.94,1.03846
125.413,13.73475,-0.06371993,0.93745,1.0381
126.113,13.7577,-0.06372426,0.9351,1.03773
126.813,13.78081,-0.0648289,0.93877,1.03737
127.513,13.804,-0.06384613,0.93775,1.037
128.213,13.8269,-0.06375437,0.93631,1.03664
128.913,13.8498,-0.06506178,0.93538,1.03628
129.613,13.87261,-0.06571404,0.93764,1.03591
130.313,13.8955,-0.06636369,0.93674,1.03555
131.013,13.91825,-0.06635997,0.93794,1.03518
131.713,13.94095,-0.06635946,0.93753,1.03481
132.413,13.96372,-0.0664113,0.93684,1.03445
133.113,13.9864,-0.0650557,0.93909,1.03408
133.813,14.00901,-0.06504975,0.93978,1.03371
134.513,14.0316,-0.06505,0.93963,1.03334
135.213,14.0542,-0.06504986,0.94327,1.03297
135.913,14.07691,-0.06506379,0.94336,1.0326
136.613,14.09956,-0.06637602,0.94474,1.03224
137.313,14.1222,-0.06635979,0.94693,1.03187
138.013,14.14473,-0.06632725,0.94957,1.03149
138.713,14.1672,-0.06875647,0.95111,1.03112
139.413,14.18966,-0.06899146,0.95359,1.03075
140.113,14.2121,-0.06898818,0.95585,1.03038
140.813,14.23455,-0.06785177,0.95706,1.03001
141.513,14.25705,-0.06767926,0.95896,1.02964
142.213,14.27941,-0.06768114,0.96109,1.02926
142.913,14.30185,-0.06650182,0.96294,1.02889
143.613,14.32425,-0.06635935,0.96675,1.02852
144.313,14.34665,-0.06635999,0.96888,1.02814
145.013,14.36899,-0.06635976,0.97049,1.02777
145.713,14.3913,-0.0663706,0.97632,1.02739
146.413,14.4136,-0.06771642,0.97559,1.02702
147.113,14.4359,-0.06767901,0.97861,1.02664
147.813,14.4581,-0.06768262,0.98048,1.02627
148.513,14.4803,-0.06687435,0.98203,1.02589
149.213,14.50255,-0.06635654,0.98713,1.02551
149.913,14.5248,-0.06636002,0.99006,1.02514
150.613,14.547,-0.06635996,0.99168,1.02476
151.313,14.5692,-0.06636479,0.99524,1.02438
152.013,14.59133,-0.06724257,0.99755,1.024
152.713,14.6134,-0.06768086,1.00181,1.02362
153.413,14.6355,-0.06767998,1.00104,1.02324
154.113,14.65765,-0.06768,1.00471,1.02286
154.813,14.6798,-0.06768005,1.00825,1.02248
155.513,14.702,-0.06766845,1.01168,1.0221
156.213,14.7241,-0.06647236,1.01465,1.02172
156.913,14.7462,-0.06636031,1.01858,1.02134
157.613,14.7683,-0.06635795,1.02388,1.02096
158.313,14.79036,-0.06670656,1.02706,1.02058
159.013,14.8124,-0.06900101,1.02921,1.02019
159.713,14.83435,-0.06900783,1.03495,1.01981
160.413,14.8563,-0.07009626,1.03787,1.01943
161.113,14.8784,-0.07031081,1.04181,1.01904
161.813,14.90044,-0.07030964,1.04492,1.01866
162.513,14.92252,-0.07035889,1.04831,1.01827
163.213,14.9445,-0.06897976,1.05288,1.01789
163.913,14.96645,-0.06899691,1.05931,1.0175
164.613,14.9883,-0.07015898,1.06274,1.01712
165.313,15.01017,-0.07031085,1.06672,1.01673
166.013,15.0321,-0.07031176,1.07215,1.01635
166.713,15.054,-0.07141593,1.07488,1.01596
167.413,15.07594,-0.07163137,1.082,1.01557
168.113,15.0978,-0.0716223,1.08443,1.01518
168.813,15.11979,-0.07130673,1.09073,1.0148
169.513,15.1417,-0.0722671,1.09569,1.01441
170.213,15.16358,-0.07260905,1.10255,1.01402
170.913,15.18546,-0.07321968,1.10568,1.01363
171.613,15.20726,-0.07403582,1.11395,1.01324
172.313,15.22901,-0.07524434,1.11832,1.01285
173.013,15.2508,-0.0753654,1.12301,1.01246
173.713,15.27258,-0.07634678,1.12949,1.01207
174.413,15.2944,-0.07553771,1.13754,1.01168
175.113,15.3162,-0.07534879,1.14425,1.01129
175.813,15.338,-0.07535001,1.15233,1.01089
176.513,15.3597,-0.07535,1.1597,1.0105
177.213,15.3815,-0.07535,1.16615,1.01011
177.913,15.4031,-0.07535,1.17351,1.00972
178.613,15.4249,-0.07535,1.18061,1.00932
179.313,15.4466,-0.07535,1.18886,1.00893
180.013,15.46829,-0.07535,1.1963,1.00854
180.713,15.4899,-0.07535001,1.20679,1.00814
181.413,15.5116,-0.07534983,1.21523,1.00775
182.113,15.53319,-0.07534013,1.22325,1.00735
182.813,15.5548,-0.07672196,1.23365,1.00696
183.513,15.57635,-0.07666783,1.24265,1.00656
184.213,15.5978,-0.07689194,1.25357,1.00616
184.913,15.6193,-0.07798925,1.26085,1.00577
185.613,15.64083,-0.07807159,1.27058,1.00537
186.313,15.66239,-0.08090936,1.28272,1.00497
187.013,15.68396,-0.08218827,1.2905,1.00458
187.713,15.70555,-0.08298679,1.30237,1.00418
188.413,15.7271,-0.0844667,1.31172,1.00378
189.113,15.74855,-0.08703581,1.32043,1.00338
189.813,15.77,-0.08879829,1.3335,1.00298
190.513,15.79147,-0.09154114,1.34402,1.00258
191.213,15.8129,-0.09158724,1.35809,1.00218
191.913,15.83429,-0.09292002,1.36808,1.00178
192.613,15.85563,-0.09357967,1.38066,1.00138
193.313,15.8771,-0.0944072,1.39096,1.00098
194.013,15.8986,-0.09573899,1.40272,1.00058
194.713,15.92027,-0.09574974,1.41496,1.00018
195.413,15.94171,-0.09575002,1.42513,0.99978
196.113,15.9632,-0.09574901,1.43524,0.99937
196.813,15.98463,-0.09578873,1.44712,0.99897
197.513,16.00603,-0.09444245,1.45955,0.99857
198.213,16.02743,-0.09433883,1.46975,0.99817
198.913,16.04888,-0.0931334,1.48219,0.99776
199.613,16.07039,-0.09313801,1.49214,0.99736
200.313,16.09185,-0.09182458,1.50581,0.99695
201.013,16.11324,-0.0928575,1.51649,0.99655
201.713,16.13467,-0.0922036,1.52923,0.99614
202.413,16.15597,-0.09205813,1.54251,0.99574
203.113,16.17734,-0.09328828,1.55443,0.99533
203.813,16.19868,-0.09528634,1.56546,0.99493
204.513,16.21994,-0.09830617,1.57997,0.99452
205.213,16.2412,-0.10068,1.58957,0.99411
205.913,16.26251,-0.10365,1.60376,0.99371
206.613,16.2838,-0.10493,1.61662,0.9933
207.313,16.3053,-0.10345,1.62658,0.99289
208.013,16.32674,-0.10257,1.63814,0.99248
208.713,16.3481,-0.10109,1.65059,0.99208
209.413,16.36946,-0.10297,1.6628,0.99167
210.113,16.39078,-0.10466,1.67303,0.99126
210.813,16.41204,-0.10569,1.68849,0.99085
211.513,16.43335,-0.10831,1.69843,0.99044
212.213,16.45467,-0.11232,1.7092,0.99003
212.913,16.47606,-0.11553,1.72,0.98962
213.613,16.49737,-0.11917,1.73105,0.98921
214.313,16.51867,-0.12253,1.74365,0.9888
215.013,16.5399,-0.12612,1.75538,0.98839
215.713,16.56127,-0.1286,1.76404,0.98798
216.413,16.58259,-0.12984,1.77455,0.98756
217.113,16.60387,-0.13113,1.78182,0.98715
217.813,16.62514,-0.13118,1.7925,0.98674
218.513,16.64646,-0.13118,1.79941,0.98633
219.213,16.66777,-0.13119,1.80894,0.98591
219.913,16.68903,-0.13154,1.81683,0.9855
220.613,16.71027,-0.13167,1.82298,0.98508
221.313,16.73154,-0.13303,1.83092,0.98467
222.013,16.7528,-0.13559,1.83711,0.98426
222.713,16.774,-0.13905,1.84513,0.98384
223.413,16.7953,-0.14356,1.84783,0.98343
224.113,16.8165,-0.14564,1.85484,0.98301
224.813,16.83774,-0.14576,1.85951,0.98259
225.513,16.859,-0.14709,1.86475,0.98218
226.213,16.8802,-0.14706,1.86916,0.98176
226.913,16.90138,-0.14707,1.87049,0.98135
227.613,16.92259,-0.14877,1.87346,0.98093
228.313,16.94389,-0.15036,1.87808,0.98051
229.013,16.9651,-0.15285,1.87937,0.98009
229.713,16.9864,-0.15561,1.88128,0.97968
230.413,17.00757,-0.15866,1.88256,0.97926
231.113,17.02874,-0.1614,1.88315,0.97884
231.813,17.04986,-0.16342,1.88545,0.97842
232.513,17.07108,-0.16351,1.88727,0.978
233.213,17.09233,-0.16639,1.88716,0.97758
233.913,17.11352,-0.16771,1.89008,0.97716
234.613,17.1347,-0.1686,1.8907,0.97674
235.313,17.1558,-0.16965,1.88957,0.97632
236.013,17.17703,-0.17119,1.88918,0.9759
236.713,17.19824,-0.17307,1.89122,0.97548
237.413,17.21933,-0.17484,1.89151,0.97506
238.113,17.2405,-0.17689,1.89184,0.97464
238.813,17.26162,-0.17926,1.89222,0.97421
239.513,17.28278,-0.18155,1.89346,0.97379
240.213,17.304,-0.18483,1.89398,0.97337
240.913,17.32514,-0.18811,1.89487,0.97295
241.613,17.34628,-0.1906,1.89494,0.97252
242.313,17.36737,-0.19081,1.89302,0.9721
243.013,17.3885,-0.19279,1.89224,0.97168
243.713,17.40956,-0.19491,1.89613,0.97125
244.413,17.43076,-0.19753,1.89542,0.97083
245.113,17.45191,-0.20059,1.89329,0.9704
245.813,17.47312,-0.20378,1.89049,0.96998
246.513,17.49426,-0.20602,1.89004,0.96955
247.213,17.51537,-0.20832,1.89019,0.96913
247.913,17.53646,-0.21101,1.88969,0.9687
248.613,17.55762,-0.21364,1.8881,0.96828
249.313,17.57873,-0.21598,1.88383,0.96785
250.013,17.59985,-0.21841,1.88324,0.96742
250.713,17.62092,-0.22102,1.8812,0.967
251.413,17.64203,-0.22392,1.87836,0.96657
252.113,17.66314,-0.2276,1.87757,0.96614
252.813,17.6843,-0.23074,1.87529,0.96572
253.513,17.70532,-0.23466,1.8734,0.96529
254.213,17.72641,-0.23673,1.87309,0.96486
254.913,17.74752,-0.2392,1.86997,0.96443
255.613,17.76865,-0.24176,1.8673,0.964
256.313,17.78981,-0.24458,1.86582,0.96357
257.013,17.81091,-0.24705,1.86142,0.96314
257.713,17.8319,-0.24922,1.86221,0.96271
258.413,17.85299,-0.25232,1.85901,0.96228
259.113,17.874,-0.25567,1.85716,0.96185
259.813,17.8952,-0.26018,1.85521,0.96142
260.513,17.91628,-0.26466,1.855,0.96099
261.213,17.93736,-0.26942,1.85595,0.96056
261.913,17.95831,-0.2745,1.85143,0.96013
262.613,17.97918,-0.27739,1.85176,0.9597
263.313,18.0001,-0.2797,1.8486,0.95927
264.013,18.02114,-0.28172,1.84883,0.95883
264.713,18.04239,-0.28556,1.8471,0.9584
265.413,18.06365,-0.28808,1.84632,0.95797
266.113,18.08481,-0.29256,1.84585,0.95753
266.813,18.10584,-0.29659,1.84453,0.9571
267.513,18.12687,-0.30104,1.84291,0.95667
268.213,18.14791,-0.30663,1.84234,0.95623
268.913,18.16889,-0.31187,1.84165,0.9558
269.613,18.18975,-0.31722,1.8396,0.95537
270.313,18.21085,-0.32127,1.83869,0.95493
271.013,18.23195,-0.32564,1.83472,0.9545
271.713,18.25321,-0.33037,1.83209,0.95406
272.413,18.27441,-0.3344,1.83066,0.95363
273.113,18.29552,-0.33903,1.83058,0.95319
273.813,18.31664,-0.34341,1.82755,0.95275
274.513,18.33773,-0.34677,1.82524,0.95232
275.213,18.3588,-0.35095,1.82315,0.95188
275.913,18.37987,-0.35552,1.82047,0.95144
276.613,18.40096,-0.36049,1.81764,0.95101
277.313,18.42209,-0.36503,1.81138,0.95057
278.013,18.44315,-0.36938,1.80834,0.95013
278.713,18.46421,-0.37308,1.80616,0.94969
279.413,18.48524,-0.37735,1.79987,0.94926
280.113,18.5063,-0.38272,1.79883,0.94882
280.813,18.52729,-0.3878,1.79268,0.94838
281.513,18.54832,-0.39358,1.7881,0.94794
282.213,18.5694,-0.39949,1.78391,0.9475
282.913,18.59049,-0.40491,1.77523,0.94706
283.613,18.61161,-0.40981,1.76908,0.94662
284.313,18.6327,-0.41433,1.76027,0.94618
285.013,18.65382,-0.41878,1.75389,0.94574
285.713,18.675,-0.42356,1.74393,0.9453
286.413,18.69606,-0.42871,1.7388,0.94486
287.113,18.71708,-0.43365,1.72994,0.94442
287.813,18.73819,-0.44163,1.72019,0.94398
288.513,18.75928,-0.44822,1.71089,0.94354
289.213,18.78035,-0.45623,1.70039,0.9431
289.913,18.8014,-0.46163,1.68886,0.94265
290.613,18.8225,-0.46896,1.67959,0.94221
291.313,18.8435,-0.47641,1.66676,0.94177
292.013,18.86457,-0.48306,1.65849,0.94133
292.713,18.8857,-0.49047,1.64223,0.94088
293.413,18.90683,-0.49721,1.63335,0.94044
294.113,18.928,-0.50602,1.61806,0.94
294.813,18.94908,-0.5158,1.60576,0.93955
295.513,18.97018,-0.52282,1.59398,0.93911
296.213,18.99127,-0.52948,1.5791,0.93867
296.913,19.01234,-0.53478,1.566,0.93822
297.613,19.03344,-0.54234,1.5485,0.93778
298.313,19.0545,-0.54887,1.53709,0.93733
299.013,19.07556,-0.55673,1.52142,0.93689
299.713,19.09662,-0.5653,1.50744,0.93644
300.413,19.11765,-0.57345,1.49395,0.936
301.113,19.1387,-0.58353,1.47794,0.93555
301.813,19.1598,-0.59147,1.46346,0.9351
302.513,19.18088,-0.6005,1.44933,0.93466
303.213,19.20192,-0.60813,1.43555,0.93421
303.913,19.22298,-0.6183,1.42054,0.93376
304.613,19.244,-0.62816,1.40728,0.93332
305.313,19.2649,-0.63628,1.39593,0.93287
306.013,19.28578,-0.64614,1.38123,0.93242
306.713,19.3067,-0.65405,1.36705,0.93197
307.413,19.32776,-0.66412,1.35534,0.93153
308.113,19.3489,-0.67415,1.34125,0.93108
308.813,19.3702,-0.6849,1.32997,0.93063
309.513,19.3914,-0.69691,1.31623,0.93018
310.213,19.41266,-0.70668,1.30386,0.92973
310.913,19.43385,-0.71864,1.2975,0.92928
311.613,19.455,-0.72814,1.28458,0.92883
312.313,19.47612,-0.73845,1.27317,0.92838
313.013,19.4972,-0.7494,1.26638,0.92793
313.713,19.5183,-0.75835,1.25247,0.92748
314.413,19.53922,-0.76804,1.24432,0.92703
315.113,19.56011,-0.7748,1.23639,0.92658
315.813,19.5811,-0.78505,1.22562,0.92613
316.513,19.6021,-0.79473,1.21869,0.92568
317.213,19.62333,-0.80612,1.21217,0.92523
317.913,19.64461,-0.81836,1.20236,0.92478
318.613,19.66581,-0.82834,1.19915,0.92433
319.313,19.68695,-0.84023,1.19001,0.92387
320.013,19.70811,-0.85046,1.18717,0.92342
320.713,19.7292,-0.86254,1.17851,0.92297
321.413,19.75023,-0.87619,1.17401,0.92252
322.113,19.77137,-0.88766,1.16885,0.92206
322.813,19.79252,-0.90283,1.16704,0.92161
323.513,19.81372,-0.91372,1.16193,0.92116
324.213,19.83483,-0.92694,1.15701,0.9207
324.913,19.8559,-0.9408,1.15382,0.92025
325.613,19.877,-0.95319,1.15078,0.9198
326.313,19.8982,-0.9673,1.14762,0.91934
327.013,19.9194,-0.97909,1.14444,0.91889
327.713,19.94056,-0.99329,1.14018,0.91843
328.413,19.96169,-1.00515,1.13793,0.91798
329.113,19.9828,-1.0186,1.13769,0.91752
329.813,20.00394,-1.03331,1.1334,0.91707
330.513,20.02512,-1.04554,1.13298,0.91661
331.213,20.0463,-1.06139,1.13075,0.91616
331.913,20.0675,-1.07407,1.13077,0.9157
332.613,20.0887,-1.08887,1.12885,0.91524
333.313,20.10988,-1.10379,1.12735,0.91479
334.013,20.13111,-1.11852,1.1271,0.91433
334.713,20.15232,-1.13566,1.12514,0.91387
335.413,20.1735,-1.14971,1.12421,0.91342
336.113,20.1947,-1.16828,1.12435,0.91296
336.813,20.21569,-1.18467,1.12357,0.9125
337.513,20.23689,-1.20086,1.12355,0.91204
338.213,20.25816,-1.21971,1.12221,0.91159
338.913,20.2794,-1.23416,1.12234,0.91113
339.613,20.30074,-1.2523,1.12424,0.91067
340.313,20.32198,-1.26826,1.12208,0.91021
341.013,20.3432,-1.28581,1.1221,0.90975
341.713,20.36445,-1.30569,1.1214,0.90929
342.413,20.38575,-1.32295,1.12209,0.90883
343.113,20.40708,-1.3439,1.12232,0.90837
343.813,20.4284,-1.36109,1.12252,0.90791
344.513,20.44969,-1.37921,1.12257,0.90746
345.213,20.4709,-1.39895,1.12016,0.90699
345.913,20.49221,-1.41688,1.12157,0.90653
346.613,20.51351,-1.43709,1.12262,0.90607
347.313,20.53479,-1.45435,1.12378,0.90561
348.013,20.55615,-1.47364,1.12405,0.90515
348.713,20.5775,-1.49461,1.12505,0.90469
349.413,20.5989,-1.5131,1.12332,0.90423
350.113,20.62023,-1.53544,1.12286,0.90377
350.813,20.6416,-1.55566,1.12408,0.90331
351.513,20.6629,-1.57718,1.12708,0.90285
352.213,20.68415,-1.60017,1.12685,0.90238
352.913,20.7055,-1.62025,1.12537,0.90192
353.613,20.72683,-1.64486,1.12464,0.90146
354.313,20.74827,-1.66582,1.12336,0.901
355.013,20.76965,-1.68947,1.12353,0.90053
355.713,20.79111,-1.71291,1.1235,0.90007
356.413,20.8125,-1.73323,1.12076,0.89961
357.113,20.83384,-1.75775,1.11833,0.89914
357.813,20.85524,-1.77914,1.11654,0.89868
358.513,20.87669,-1.80243,1.11264,0.89821
359.213,20.89809,-1.82848,1.10933,0.89775
359.913,20.9195,-1.85063,1.10553,0.89729
360.613,20.94097,-1.87845,1.09872,0.89682
361.313,20.96244,-1.90132,1.0921,0.89636
362.013,20.98388,-1.92531,1.08596,0.89589
362.713,21.00532,-1.95091,1.07941,0.89543
363.413,21.02683,-1.97376,1.06886,0.89496
364.113,21.04828,-1.99893,1.06154,0.8945
364.813,21.0698,-2.02032,1.05168,0.89403
365.513,21.09133,-2.04185,1.0416,0.89356
366.213,21.11281,-2.06737,1.03018,0.8931
366.913,21.13431,-2.0898,1.01686,0.89263
367.613,21.15579,-2.11497,1.00436,0.89216
368.313,21.17732,-2.13868,0.98905,0.8917
369.013,21.19881,-2.1573,0.97577,0.89123
369.713,21.22036,-2.18012,0.96157,0.89076
370.413,21.2419,-2.19891,0.9429,0.8903
371.113,21.26345,-2.21939,0.927,0.88983
371.813,21.285,-2.24146,0.90866,0.88936
372.513,21.30658,-2.26159,0.8909,0.88889
373.213,21.3281,-2.28475,0.87107,0.88843
373.913,21.34968,-2.30502,0.8535,0.88796
374.613,21.37126,-2.32575,0.83241,0.88749
375.313,21.39286,-2.34792,0.81385,0.88702
376.013,21.4145,-2.36735,0.79437,0.88655
376.713,21.43604,-2.38675,0.77449,0.88608
377.413,21.45765,-2.40439,0.75321,0.88561
378.113,21.4792,-2.42137,0.73439,0.88514
378.813,21.50092,-2.4392,0.71277,0.88467
379.513,21.5225,-2.45258,0.6912,0.8842
380.213,21.54409,-2.46339,0.67057,0.88373
380.913,21.56564,-2.47518,0.65153,0.88326
381.613,21.5872,-2.48652,0.63157,0.88279
382.313,21.60886,-2.50066,0.61397,0.88232
383.013,21.63048,-2.51388,0.5936,0.88185
383.713,21.65213,-2.52467,0.57828,0.88138
384.413,21.67377,-2.53809,0.56077,0.88091
385.113,21.69538,-2.55034,0.54384,0.88044
385.813,21.717,-2.56405,0.52888,0.87997
386.513,21.73864,-2.57667,0.51274,0.8795
387.213,21.7603,-2.58649,0.49879,0.87902
387.913,21.782,-2.59443,0.48329,0.87855
388.613,21.80367,-2.60285,0.47216,0.87808
389.313,21.82532,-2.60917,0.45755,0.87761
390.013,21.84691,-2.6183,0.44279,0.87713
390.713,21.8687,-2.62477,0.43099,0.87666
391.413,21.89037,-2.63149,0.41837,0.87619
392.113,21.9121,-2.63982,0.40471,0.87572
392.813,21.93381,-2.64665,0.3948,0.87524
393.513,21.95541,-2.6533,0.38475,0.87477
394.213,21.97717,-2.65946,0.3755,0.87429
394.913,21.99888,-2.66442,0.36427,0.87382
395.613,22.02052,-2.66923,0.35493,0.87335
396.313,22.0423,-2.67302,0.34396,0.87287
397.013,22.06404,-2.67985,0.33571,0.8724
397.713,22.0858,-2.68457,0.32433,0.87192
398.413,22.10755,-2.6881,0.31777,0.87145
399.113,22.1293,-2.68896,0.3057,0.87097
399.813,22.15108,-2.6889,0.2965,0.8705
400.513,22.1729,-2.69033,0.28521,0.87002
401.213,22.1947,-2.69181,0.27916,0.86955
401.913,22.21646,-2.69401,0.26843,0.86907
402.613,22.2382,-2.69653,0.26036,0.8686
403.313,22.25996,-2.70005,0.25402,0.86812
404.013,22.28175,-2.70354,0.24672,0.86764
404.713,22.30348,-2.70741,0.23948,0.86717
405.413,22.32526,-2.71274,0.23164,0.86669
406.113,22.34712,-2.71892,0.22653,0.86621
406.813,22.36891,-2.7227,0.21925,0.86574
407.513,22.3907,-2.72549,0.21214,0.86526
408.213,22.41253,-2.72614,0.20361,0.86478
408.913,22.4343,-2.72683,0.19393,0.86431
409.613,22.4561,-2.72543,0.18652,0.86383
410.313,22.4779,-2.72595,0.18123,0.86335
411.013,22.49974,-2.72608,0.17479,0.86287
411.713,22.52155,-2.72889,0.17073,0.86239
412.413,22.54338,-2.73294,0.16271,0.86192
413.113,22.56524,-2.73604,0.15551,0.86144
413.813,22.5871,-2.74059,0.1519,0.86096
414.513,22.60892,-2.7461,0.14475,0.86048
415.213,22.63074,-2.74965,0.13893,0.86
415.913,22.65253,-2.75401,0.13283,0.85952
416.613,22.67438,-2.7585,0.12636,0.85904
417.313,22.69625,-2.76129,0.12392,0.85856
418.013,22.7181,-2.76479,0.11928,0.85808
418.713,22.74001,-2.76688,0.11061,0.8576
419.413,22.7619,-2.76878,0.1089,0.85712
420.113,22.78371,-2.77036,0.10212,0.85664
420.813,22.8055,-2.7725,0.09982835,0.85616
421.513,22.8274,-2.77513,0.09522572,0.85568
422.213,22.84921,-2.77877,0.09106151,0.8552
422.913,22.87108,-2.78064,0.08579708,0.85472
423.613,22.893,-2.7838,0.08103876,0.85424
424.313,22.91485,-2.78733,0.07978288,0.85376
425.013,22.93679,-2.79122,0.07731889,0.85328
425.713,22.9587,-2.79487,0.07585738,0.8528
426.413,22.9805,-2.79695,0.07208905,0.85232
427.113,23.00245,-2.80048,0.07086299,0.85183
427.813,23.0243,-2.80312,0.06567488,0.85135
428.513,23.0462,-2.80696,0.06582375,0.85087
429.213,23.06813,-2.80972,0.06375525,0.85039
429.913,23.09009,-2.8121,0.06093737,0.8499
430.613,23.11197,-2.81409,0.05955445,0.84942
431.313,23.1337,-2.81591,0.0583876,0.84894
432.013,23.15561,-2.81745,0.05744963,0.84846
432.713,23.17752,-2.82038,0.05536578,0.84797
433.413,23.19947,-2.82245,0.05516088,0.84749
434.113,23.22147,-2.82455,0.05351428,0.84701
434.813,23.24343,-2.8255,0.05122885,0.84652
435.513,23.26536,-2.82749,0.05440299,0.84604
436.213,23.28734,-2.82998,0.05160665,0.84555
436.913,23.3093,-2.83107,0.05233942,0.84507
437.613,23.33118,-2.83344,0.05401556,0.84459
438.313,23.35313,-2.83589,0.05114442,0.8441
439.013,23.37513,-2.8352,0.05487483,0.84362
439.713,23.39714,-2.8348,0.05442708,0.84313
440.413,23.41915,-2.83528,0.05379482,0.84265
441.113,23.44115,-2.83626,0.05601004,0.84216
441.813,23.46313,-2.83834,0.05538317,0.84168
442.513,23.48509,-2.84109,0.05890505,0.84119
443.213,23.5071,-2.84432,0.0596472,0.84071
443.913,23.5291,-2.84693,0.05977849,0.84022
444.613,23.55114,-2.85088,0.06579387,0.83974
445.313,23.5732,-2.85352,0.0672606,0.83925
446.013,23.5952,-2.85715,0.07377651,0.83876
446.713,23.61723,-2.86034,0.07474771,0.83828
447.413,23.6392,-2.86403,0.07792885,0.83779
448.113,23.66124,-2.86667,0.07880187,0.8373
448.813,23.68329,-2.86858,0.0833815,0.83682
449.513,23.70535,-2.87057,0.08568215,0.83633
450.213,23.7274,-2.87224,0.08740269,0.83584
450.913,23.74944,-2.87384,0.09482852,0.83536
451.613,23.77148,-2.87474,0.09708433,0.83487
452.313,23.79352,-2.87783,0.09808102,0.83438
453.013,23.81561,-2.88024,0.10356,0.83389
453.713,23.83769,-2.8825,0.10536,0.83341
454.413,23.85974,-2.88405,0.11243,0.83292
455.113,23.88172,-2.88582,0.11366,0.83243
455.813,23.90381,-2.8875,0.11557,0.83194
456.513,23.9259,-2.88937,0.11823,0.83145
457.213,23.9482,-2.89182,0.12437,0.83096
457.913,23.9703,-2.8946,0.12263,0.83047
458.613,23.99241,-2.89735,0.1283,0.82999
459.313,24.01454,-2.89925,0.13225,0.8295
460.013,24.03668,-2.90036,0.137,0.82901
460.713,24.05884,-2.90229,0.13652,0.82852
461.413,24.08096,-2.90307,0.14258,0.82803
462.113,24.10313,-2.90445,0.14504,0.82754
462.813,24.12531,-2.90658,0.14999,0.82705
463.513,24.14741,-2.90843,0.15507,0.82656
464.213,24.1696,-2.91137,0.15611,0.82607
464.913,24.19182,-2.91138,0.15814,0.82558
465.613,24.21406,-2.91235,0.16166,0.82509
466.313,24.23624,-2.91266,0.16249,0.8246
467.013,24.2584,-2.91437,0.16802,0.82411
467.713,24.28054,-2.91551,0.17122,0.82362
468.413,24.30275,-2.91879,0.17316,0.82313
469.113,24.32495,-2.91963,0.17859,0.82263
469.813,24.34721,-2.91924,0.18448,0.82214
470.513,24.36939,-2.9199,0.18303,0.82165
471.213,24.3916,-2.92171,0.18734,0.82116
471.913,24.41377,-2.92368,0.19224,0.82067
472.613,24.43599,-2.92583,0.19278,0.82018
473.313,24.4582,-2.92797,0.19237,0.81968
474.013,24.48045,-2.92948,0.19446,0.81919
474.713,24.5027,-2.93076,0.19678,0.8187
475.413,24.5249,-2.93083,0.20257,0.81821
476.113,24.54717,-2.9332,0.20281,0.81771
476.813,24.5694,-2.93577,0.20468,0.81722
477.513,24.5916,-2.93826,0.20599,0.81673
478.213,24.61375,-2.94083,0.20994,0.81624
478.913,24.63596,-2.94087,0.2094,0.81574
479.613,24.6582,-2.94383,0.21198,0.81525
480.313,24.6804,-2.94541,0.21528,0.81476
481.013,24.70277,-2.94682,0.21791,0.81426
481.713,24.72514,-2.94864,0.2173,0.81377
482.413,24.7474,-2.95142,0.21746,0.81327
483.113,24.76977,-2.95196,0.21967,0.81278
483.813,24.79201,-2.95319,0.22111,0.81229
484.513,24.8143,-2.95368,0.22342,0.81179
485.213,24.8366,-2.95379,0.22789,0.8113
485.913,24.85888,-2.95385,0.22593,0.8108
486.613,24.88119,-2.95481,0.22905,0.81031
487.313,24.90356,-2.95574,0.22946,0.80981
488.013,24.9259,-2.95956,0.2312,0.80932
488.713,24.94806,-2.96211,0.23402,0.80882
489.413,24.97028,-2.96437,0.23027,0.80833
490.113,24.99263,-2.96647,0.23397,0.80783
490.813,25.0151,-2.96836,0.23523,0.80734
491.513,25.03749,-2.96833,0.23637,0.80684
492.213,25.05976,-2.96842,0.23837,0.80634
492.913,25.08205,-2.96981,0.24022,0.80585
493.613,25.10439,-2.97098,0.23823,0.80535
494.313,25.1267,-2.97106,0.24066,0.80486
495.013,25.1491,-2.97238,0.23996,0.80436
495.713,25.1714,-2.97372,0.24254,0.80386
496.413,25.19381,-2.9737,0.24342,0.80337
497.113,25.21623,-2.9744,0.24468,0.80287
497.813,25.2386,-2.97502,0.24394,0.80237
498.513,25.26099,-2.9759,0.24371,0.80188
499.213,25.28335,-2.97631,0.24508,0.80138
499.913,25.30578,-2.97567,0.24387,0.80088
500.613,25.32816,-2.97633,0.24594,0.80038
501.313,25.35043,-2.97651,0.24776,0.79989
502.013,25.37281,-2.97846,0.25009,0.79939
502.713,25.39524,-2.98015,0.24621,0.79889
503.413,25.41766,-2.98083,0.24794,0.79839
504.113,25.44005,-2.98353,0.24827,0.79789
504.813,25.4624,-2.9853,0.24771,0.7974
505.513,25.48479,-2.98831,0.2464,0.7969
506.213,25.5072,-2.99131,0.24494,0.7964
506.913,25.52959,-2.99237,0.24881,0.7959
507.613,25.55201,-2.99377,0.24925,0.7954
508.313,25.57449,-2.99395,0.24882,0.7949
509.013,25.59698,-2.99389,0.24534,0.7944
509.713,25.61944,-2.99451,0.24676,0.7939
510.413,25.64191,-2.99453,0.2475,0.7934
511.113,25.66432,-2.99446,0.24653,0.7929
511.813,25.6867,-2.9939,0.24668,0.7924
512.513,25.7091,-2.99522,0.24759,0.79191
513.213,25.73149,-2.99628,0.24683,0.79141
513.913,25.75396,-2.99693,0.2439,0.79091
514.613,25.77644,-2.9985,0.24709,0.7904
515.313,25.7989,-3.00043,0.25159,0.7899
516.013,25.82134,-3.00243,0.2462,0.7894
516.713,25.84375,-3.00283,0.24844,0.7889
517.413,25.86626,-3.00419,0.24821,0.7884
518.113,25.88878,-3.00486,0.24854,0.7879
518.813,25.91133,-3.00693,0.24683,0.7874
519.513,25.93382,-3.00846,0.24826,0.7869
520.213,25.95627,-3.00949,0.249,0.7864
520.913,25.97878,-3.01111,0.24853,0.7859
521.613,26.0013,-3.01124,0.25049,0.7854
522.313,26.0237,-3.01252,0.24795,0.78489
523.013,26.0462,-3.01367,0.24893,0.78439
523.713,26.0687,-3.0142,0.24927,0.78389
524.413,26.09127,-3.01676,0.24807,0.78339
525.113,26.11372,-3.0174,0.2457,0.78289
525.813,26.13616,-3.01804,0.24804,0.78238
526.513,26.15867,-3.01867,0.24838,0.78188
527.213,26.18119,-3.01921,0.249,0.78138
527.913,26.20382,-3.02115,0.24926,0.78088
528.613,26.2263,-3.02338,0.24672,0.78037
529.313,26.24891,-3.02475,0.24752,0.77987
530.013,26.2714,-3.02418,0.24575,0.77937
530.713,26.29395,-3.02328,0.24544,0.77887
531.413,26.3165,-3.02328,0.24688,0.77836
532.113,26.3391,-3.02447,0.24436,0.77786
532.813,26.3616,-3.02552,0.24347,0.77736
533.513,26.38413,-3.02664,0.24711,0.77685
534.213,26.4067,-3.02825,0.24588,0.77635
534.913,26.42928,-3.03008,0.24599,0.77584
535.613,26.45185,-3.03212,0.24839,0.77534
536.313,26.47438,-3.03407,0.24622,0.77484
537.013,26.497,-3.03476,0.247,0.77433
537.713,26.51953,-3.03512,0.24706,0.77383
538.413,26.5421,-3.03512,0.24477,0.77332
539.113,26.5647,-3.03512,0.24371,0.77282
539.813,26.5873,-3.03512,0.24549,0.77231
540.513,26.6098,-3.03595,0.24389,0.77181
541.213,26.6322,-3.03684,0.24429,0.7713
541.913,26.6548,-3.03753,0.24375,0.7708
542.613,26.67745,-3.03753,0.24689,0.77029
543.313,26.70027,-3.03753,0.24313,0.76979
544.013,26.72287,-3.03645,0.24682,0.76928
544.713,26.7455,-3.03621,0.24672,0.76878
545.413,26.76805,-3.03756,0.24653,0.76827
546.113,26.79063,-3.03749,0.24691,0.76777
546.813,26.8132,-3.03895,0.24521,0.76726
547.513,26.83584,-3.03923,0.24623,0.76675
548.213,26.85855,-3.04026,0.24816,0.76625
548.913,26.88131,-3.04308,0.24811,0.76574
549.613,26.904,-3.04437,0.24871,0.76523
550.313,26.9265,-3.04531,0.25011,0.76473
551.013,26.94912,-3.04636,0.25426,0.76422
551.713,26.97178,-3.04883,0.25045,0.76371
552.413,26.9944,-3.05039,0.2535,0.76321
553.113,27.01694,-3.05187,0.25481,0.7627
553.813,27.0395,-3.05379,0.25463,0.76219
554.513,27.0622,-3.05606,0.25672,0.76169
555.213,27.085,-3.05774,0.25706,0.76118
555.913,27.1076,-3.05772,0.25918,0.76067
556.613,27.13022,-3.05773,0.26189,0.76016
557.313,27.1529,-3.05805,0.26262,0.75966
558.013,27.17561,-3.05805,0.26197,0.75915
558.713,27.19834,-3.05805,0.26688,0.75864
559.413,27.221,-3.05805,0.26406,0.75813
560.113,27.24373,-3.05804,0.26242,0.75762
560.813,27.2664,-3.05951,0.26556,0.75712
561.513,27.2891,-3.06069,0.26866,0.75661
562.213,27.31165,-3.06068,0.26897,0.7561
562.913,27.3341,-3.06068,0.27021,0.75559
563.613,27.35662,-3.06103,0.27002,0.75508
564.313,27.37926,-3.062,0.27265,0.75457
565.013,27.40217,-3.06209,0.27324,0.75406
565.713,27.42505,-3.06332,0.27324,0.75356
566.413,27.44796,-3.06426,0.27374,0.75305
567.113,27.4707,-3.06472,0.27136,0.75254
567.813,27.4935,-3.06607,0.27214,0.75203
568.513,27.5163,-3.06607,0.27428,0.75152
569.213,27.53905,-3.06736,0.27475,0.75101
569.913,27.5617,-3.06737,0.27251,0.7505
570.613,27.5845,-3.06733,0.27272,0.74999
571.313,27.60728,-3.06868,0.26929,0.74948
572.013,27.63004,-3.06903,0.27142,0.74897
572.713,27.65281,-3.06988,0.2726,0.74846
573.413,27.67555,-3.07065,0.27325,0.74795
574.113,27.6984,-3.07067,0.27073,0.74744
574.813,27.72125,-3.07083,0.26902,0.74693
575.513,27.74403,-3.07089,0.27008,0.74642
576.213,27.7668,-3.07107,0.27019,0.74591
576.913,27.7894,-3.06964,0.26978,0.74539
577.613,27.8121,-3.07204,0.26728,0.74488
578.313,27.83479,-3.07435,0.26556,0.74437
579.013,27.85769,-3.07634,0.26611,0.74386
579.713,27.8806,-3.07771,0.2698,0.74335
580.413,27.90352,-3.07854,0.26714,0.74284
581.113,27.92633,-3.07753,0.26095,0.74233
581.813,27.9492,-3.07723,0.26299,0.74182
582.513,27.97209,-3.07628,0.25959,0.7413
583.213,27.99496,-3.07456,0.25828,0.74079
583.913,28.01779,-3.07461,0.2557,0.74028
584.613,28.0407,-3.07461,0.25738,0.73977
585.313,28.06362,-3.07462,0.25493,0.73926
586.013,28.0865,-3.07619,0.25416,0.73874
586.713,28.1094,-3.07636,0.25231,0.73823
587.413,28.1322,-3.07777,0.25215,0.73772
588.113,28.1551,-3.07697,0.24935,0.73721
588.813,28.17773,-3.07824,0.24624,0.73669
589.513,28.20058,-3.07822,0.24474,0.73618
590.213,28.2235,-3.07985,0.24245,0.73567
590.913,28.24659,-3.08088,0.24471,0.73516
591.613,28.26949,-3.0823,0.24129,0.73464
592.313,28.29236,-3.08414,0.23685,0.73413
593.013,28.31529,-3.08675,0.23609,0.73362
593.713,28.3381,-3.08753,0.23372,0.7331
594.413,28.36103,-3.08837,0.23895,0.73259
595.113,28.38389,-3.0893,0.23284,0.73208
595.813,28.40682,-3.08931,0.22937,0.73156
596.513,28.42973,-3.08931,0.22983,0.73105
597.213,28.4526,-3.08931,0.22957,0.73053
597.913,28.47552,-3.09048,0.22546,0.73002
598.613,28.49843,-3.09092,0.22261,0.72951
599.313,28.52133,-3.09338,0.22349,0.72899
600.013,28.5442,-3.09529,0.22472,0.72848
600.713,28.5671,-3.09542,0.22281,0.72796
601.413,28.59005,-3.09664,0.21971,0.72745
602.113,28.61303,-3.09769,0.22013,0.72693
602.813,28.63594,-3.09834,0.2209,0.72642
603.513,28.6589,-3.0996,0.21933,0.7259
604.213,28.68187,-3.10107,0.21816,0.72539
604.913,28.7048,-3.10157,0.21824,0.72487
605.613,28.7276,-3.10236,0.21404,0.72436
606.313,28.75044,-3.10219,0.21665,0.72384
607.013,28.77328,-3.10104,0.21125,0.72333
607.713,28.79627,-3.10242,0.21137,0.72281
608.413,28.81925,-3.10082,0.21125,0.7223
609.113,28.84222,-3.1002,0.21353,0.72178
609.813,28.8651,-3.09943,0.21149,0.72127
610.513,28.8881,-3.09769,0.20984,0.72075
611.213,28.911,-3.09608,0.20728,0.72024
611.913,28.934,-3.09416,0.20792,0.71972
612.613,28.9571,-3.09348,0.20245,0.7192
613.313,28.9802,-3.09347,0.20225,0.71869
614.013,29.0033,-3.09473,0.20462,0.71817
614.713,29.0264,-3.09516,0.20369,0.71765
615.413,29.0494,-3.09753,0.20255,0.71714
616.113,29.0723,-3.09907,0.20293,0.71662
616.813,29.0953,-3.10244,0.20233,0.71611
617.513,29.11825,-3.10508,0.19818,0.71559
618.213,29.14129,-3.10573,0.20081,0.71507
618.913,29.16437,-3.10666,0.19799,0.71455
619.613,29.1874,-3.10641,0.19743,0.71404
620.313,29.21035,-3.10664,0.19684,0.71352
621.013,29.2333,-3.10664,0.19376,0.713
621.713,29.25628,-3.10594,0.19432,0.71249
622.413,29.27923,-3.10533,0.19415,0.71197
623.113,29.30213,-3.10669,0.19164,0.71145
623.813,29.32504,-3.10608,0.19091,0.71093
624.513,29.34814,-3.10548,0.18886,0.71042
625.213,29.37122,-3.1064,0.19177,0.7099
625.913,29.39442,-3.10531,0.1892,0.70938
626.613,29.41739,-3.10659,0.19008,0.70886
627.313,29.44039,-3.10666,0.1889,0.70834
628.013,29.4634,-3.10797,0.18802,0.70783
628.713,29.4865,-3.11016,0.18819,0.70731
629.413,29.50957,-3.11157,0.19041,0.70679
630.113,29.53264,-3.11367,0.18883,0.70627
630.813,29.5557,-3.11564,0.18678,0.70575
631.513,29.57868,-3.11651,0.18379,0.70523
632.213,29.6017,-3.11645,0.18055,0.70472
632.913,29.62463,-3.11496,0.1819,0.7042
633.613,29.6475,-3.11497,0.1788,0.70368
634.313,29.6704,-3.11574,0.18126,0.70316
635.013,29.69349,-3.11506,0.17974,0.70264
635.713,29.71674,-3.11509,0.17858,0.70212
636.413,29.7397,-3.11547,0.17822,0.7016
637.113,29.76261,-3.11634,0.17803,0.70108
637.813,29.7857,-3.11771,0.17467,0.70056
638.513,29.80885,-3.11771,0.17623,0.70004
639.213,29.83213,-3.1175,0.17302,0.69952
639.913,29.85525,-3.1169,0.17452,0.699
640.613,29.8784,-3.11618,0.17679,0.69849
641.313,29.9014,-3.11706,0.17547,0.69797
642.013,29.92447,-3.11618,0.17381,0.69745
642.713,29.94753,-3.1153,0.17323,0.69693
643.413,29.97056,-3.11476,0.17055,0.69641
644.113,29.99365,-3.11464,0.17274,0.69589
644.813,30.01672,-3.11276,0.1704,0.69537
645.513,30.03991,-3.11278,0.16855,0.69484
646.213,30.06297,-3.11279,0.17398,0.69432
646.913,30.086,-3.1139,0.17077,0.6938
647.613,30.1088,-3.11603,0.17181,0.69328
648.313,30.13195,-3.11891,0.17287,0.69276
649.013,30.1552,-3.12188,0.17167,0.69224
649.713,30.17843,-3.12301,0.17117,0.69172
650.413,30.20128,-3.12458,0.17151,0.6912
651.113,30.2243,-3.12637,0.17479,0.69068
651.813,30.2474,-3.12636,0.17386,0.69016
652.513,30.2707,-3.12772,0.17356,0.68964
653.213,30.29382,-3.12767,0.17377,0.68912
653.913,30.31677,-3.12905,0.17205,0.6886
654.613,30.3398,-3.12901,0.17309,0.68807
655.313,30.36295,-3.12901,0.17214,0.68755
656.013,30.38617,-3.12901,0.17462,0.68703
656.713,30.4093,-3.12967,0.17459,0.68651
657.413,30.43242,-3.13044,0.17047,0.68599
658.113,30.45556,-3.13189,0.17242,0.68547
658.813,30.4787,-3.13215,0.17006,0.68494
659.513,30.5018,-3.13317,0.17286,0.68442
660.213,30.52485,-3.13321,0.1699,0.6839
660.913,30.5477,-3.13039,0.16812,0.68338
661.613,30.5707,-3.13049,0.16617,0.68286
662.313,30.5937,-3.12913,0.16732,0.68233
663.013,30.61699,-3.12912,0.16611,0.68181
663.713,30.6402,-3.12912,0.16664,0.68129
664.413,30.66344,-3.12912,0.16362,0.68077
665.113,30.68654,-3.12908,0.16489,0.68024
665.813,30.70965,-3.1278,0.16293,0.67972
666.513,30.73279,-3.12913,0.16115,0.6792
667.213,30.75589,-3.12915,0.16171,0.67868
667.913,30.7789,-3.13149,0.16298,0.67815
668.613,30.802,-3.13194,0.16436,0.67763
669.313,30.8251,-3.13458,0.16108,0.67711
670.013,30.8484,-3.13461,0.16248,0.67658
670.713,30.87156,-3.13551,0.15834,0.67606
671.413,30.89466,-3.13605,0.16042,0.67554
672.113,30.91777,-3.13689,0.15867,0.67502
672.813,30.94088,-3.13735,0.15567,0.67449
673.513,30.9641,-3.13735,0.1571,0.67397
674.213,30.98729,-3.13735,0.15555,0.67345
674.913,31.01047,-3.13752,0.15616,0.67292
675.613,31.03357,-3.13889,0.15294,0.6724
676.313,31.05674,-3.14003,0.15552,0.67187
677.013,31.07987,-3.1402,0.15549,0.67135
677.713,31.10302,-3.14144,0.15458,0.67083
678.413,31.1262,-3.14152,0.15497,0.6703
679.113,31.14932,-3.14147,0.15218,0.66978
679.813,31.17244,-3.14284,0.15551,0.66926
680.513,31.19554,-3.14256,0.15073,0.66873
681.213,31.21872,-3.14284,0.14764,0.66821
681.913,31.24189,-3.14283,0.15049,0.66768
682.613,31.26507,-3.14283,0.14825,0.66716
683.313,31.2883,-3.14283,0.1496,0.66663
684.013,31.31144,-3.14283,0.14589,0.66611
684.713,31.3345,-3.14283,0.14333,0.66559
685.413,31.3576,-3.14283,0.1443,0.66506
686.113,31.3807,-3.14285,0.14112,0.66454
686.813,31.4039,-3.14149,0.14038,0.66401
687.513,31.42707,-3.14152,0.14294,0.66349
688.213,31.4503,-3.14152,0.14152,0.66296
688.913,31.47355,-3.14152,0.1416,0.66244
689.613,31.4967,-3.1415,0.13918,0.66191
690.313,31.51991,-3.14284,0.13913,0.66139
691.013,31.54305,-3.14283,0.1346,0.66086
691.713,31.5662,-3.14284,0.13399,0.66034
692.413,31.58942,-3.14147,0.13356,0.65981
693.113,31.6126,-3.14152,0.13325,0.65929
693.813,31.6357,-3.14152,0.1322,0.65876
694.513,31.65881,-3.14152,0.13156,0.65824
695.213,31.68205,-3.14152,0.13154,0.65771
695.913,31.70518,-3.1418,0.1313,0.65719
696.613,31.72839,-3.14283,0.13094,0.65666
697.313,31.7515,-3.14283,0.12894,0.65613
698.013,31.7747,-3.14289,0.12971,0.65561
698.713,31.7979,-3.14427,0.12997,0.65508
699.413,31.82112,-3.14526,0.12748,0.65456
700.113,31.8443,-3.14713,0.12908,0.65403
700.813,31.86748,-3.14823,0.12795,0.65351
701.513,31.8907,-3.14963,0.12596,0.65298
702.213,31.9139,-3.15084,0.12524,0.65245
702.913,31.9371,-3.15107,0.12292,0.65193
703.613,31.9602,-3.15242,0.12247,0.6514
704.313,31.9835,-3.15238,0.12244,0.65088
705.013,32.0067,-3.15158,0.12086,0.65035
705.713,32.02989,-3.14975,0.12111,0.64982
706.413,32.0531,-3.14947,0.12287,0.6493
707.113,32.07633,-3.1485,0.12227,0.64877
707.813,32.09965,-3.15017,0.11895,0.64824
708.513,32.1229,-3.15189,0.11792,0.64772
709.213,32.14614,-3.15184,0.1141,0.64719
709.913,32.16933,-3.15217,0.11506,0.64666
710.613,32.19257,-3.15138,0.11316,0.64614
711.313,32.2159,-3.14986,0.10802,0.64561
712.013,32.23915,-3.14865,0.10931,0.64508
712.713,32.2624,-3.14737,0.11005,0.64456
713.413,32.28552,-3.14604,0.10722,0.64403
714.113,32.30879,-3.14365,0.10621,0.6435
714.813,32.332,-3.14114,0.10153,0.64298
715.513,32.3553,-3.1415,0.10094,0.64245
716.213,32.3785,-3.14265,0.10007,0.64192
716.913,32.4017,-3.14544,0.10098,0.64139
717.613,32.42497,-3.1471,0.09829758,0.64087
718.313,32.44823,-3.14933,0.10111,0.64034
719.013,32.47153,-3.1503,0.09600454,0.63981
719.713,32.49473,-3.15178,0.09747236,0.63929
720.413,32.518,-3.15229,0.09497856,0.63876
721.113,32.54128,-3.15383,0.09327778,0.63823
721.813,32.56454,-3.15414,0.09191662,0.6377
722.513,32.5878,-3.15414,0.0905448,0.63718
723.213,32.611,-3.15414,0.09021894,0.63665
723.913,32.63425,-3.15306,0.08588779,0.63612
724.613,32.65739,-3.15153,0.0841019,0.63559
725.313,32.68043,-3.15029,0.08432024,0.63507
726.013,32.7035,-3.14914,0.08223372,0.63454
726.713,32.7268,-3.14893,0.07694426,0.63401
727.413,32.75034,-3.14744,0.07667192,0.63348
728.113,32.77383,-3.14609,0.07670179,0.63295
728.813,32.79728,-3.14693,0.07489044,0.63243
729.513,32.82059,-3.14744,0.07556321,0.6319
730.213,32.84395,-3.14744,0.07529018,0.63137
730.913,32.86727,-3.14851,0.07798055,0.63084
731.613,32.89062,-3.15035,0.07463866,0.63031
732.313,32.91393,-3.15209,0.07320863,0.62979
733.013,32.9373,-3.15509,0.07179843,0.62926
733.713,32.96058,-3.15772,0.06874172,0.62873
734.413,32.98393,-3.15984,0.06666809,0.6282
735.113,33.0073,-3.16046,0.06715214,0.62767
735.813,33.0306,-3.1603,0.06760172,0.62714
736.513,33.0539,-3.16031,0.06949812,0.62662
737.213,33.0773,-3.1621,0.06674382,0.62609
737.913,33.1006,-3.1647,0.06447735,0.62556
738.613,33.1239,-3.16543,0.06195138,0.62503
739.313,33.1472,-3.16543,0.0606959,0.6245
740.013,33.17054,-3.16543,0.0602193,0.62397
740.713,33.1937,-3.16543,0.05654316,0.62345
741.413,33.217,-3.16543,0.05885255,0.62292
742.113,33.24035,-3.16543,0.05650665,0.62239
742.813,33.26382,-3.16545,0.05262275,0.62186
743.513,33.2872,-3.16716,0.05614498,0.62133
744.213,33.3105,-3.16741,0.05659075,0.6208
744.913,33.3339,-3.16876,0.05178828,0.62027
745.613,33.35718,-3.16872,0.05087278,0.61974
746.313,33.38055,-3.16827,0.04905387,0.61922
747.013,33.4039,-3.16572,0.04949686,0.61869
747.713,33.42732,-3.16354,0.04738722,0.61816
748.413,33.45064,-3.16302,0.04787331,0.61763
749.113,33.47403,-3.16298,0.0463817,0.6171
749.813,33.49735,-3.1617,0.04800446,0.61657
750.513,33.52074,-3.16247,0.04705495,0.61604
751.213,33.54408,-3.16235,0.04827189,0.61551
751.913,33.56742,-3.16346,0.0436683,0.61498
752.613,33.5907,-3.16344,0.04280221,0.61445
753.313,33.61408,-3.16479,0.04156229,0.61392
754.013,33.63748,-3.16477,0.04216501,0.6134
754.713,33.66083,-3.16479,0.041601,0.61287
755.413,33.68416,-3.1647,0.03910861,0.61234
756.113,33.70745,-3.16477,0.04084413,0.61181
756.813,33.73075,-3.16478,0.03822552,0.61128
757.513,33.75407,-3.16614,0.03766194,0.61075
758.213,33.77748,-3.16608,0.039996,0.61022
758.913,33.80085,-3.16866,0.03673969,0.60969
759.613,33.82421,-3.16883,0.03608754,0.60916
760.313,33.84758,-3.16883,0.034989,0.60863
761.013,33.8709,-3.16883,0.03409463,0.6081
761.713,33.89427,-3.16894,0.03848269,0.60757
762.413,33.9176,-3.17025,0.03505993,0.60704
763.113,33.94099,-3.17038,0.03603111,0.60651
763.813,33.96432,-3.17113,0.03499657,0.60598
764.513,33.98774,-3.17133,0.03482068,0.60545
765.213,34.0111,-3.17011,0.03574452,0.60492
765.913,34.03451,-3.17066,0.03293128,0.60439
766.613,34.05788,-3.17146,0.03213879,0.60386
767.313,34.0812,-3.17145,0.03140845,0.60333
768.013,34.10453,-3.17022,0.03308563,0.6028
768.713,34.12788,-3.17,0.03111959,0.60227
769.413,34.1513,-3.16883,0.0330815,0.60174
770.113,34.17467,-3.16883,0.0296907,0.60122
770.813,34.19807,-3.16883,0.02907323,0.60069
771.513,34.2215,-3.16883,0.02607699,0.60016
772.213,34.24483,-3.16884,0.02865228,0.59963
772.913,34.26818,-3.17045,0.02741653,0.5991
773.613,34.29153,-3.17207,0.02789729,0.59857
774.313,34.31493,-3.17338,0.02500336,0.59804
775.013,34.33834,-3.17453,0.02565847,0.59751
775.713,34.36176,-3.17453,0.02156161,0.59698
776.413,34.38518,-3.17425,0.02159451,0.59645
777.113,34.4086,-3.1734,0.02272428,0.59592
777.813,34.432,-3.17475,0.02518593,0.59539
778.513,34.45535,-3.17575,0.01909355,0.59486
779.213,34.47878,-3.17607,0.02040685,0.59433
779.913,34.50215,-3.17607,0.01831935,0.5938
780.613,34.52536,-3.17607,0.02005828,0.59327
781.313,34.54874,-3.17603,0.01581557,0.59274
782.013,34.57212,-3.17679,0.01816569,0.59221
782.713,34.59579,-3.17586,0.0150134,0.59168
783.413,34.61934,-3.17442,0.01730411,0.59115
784.113,34.6428,-3.17374,0.01839841,0.59062
784.813,34.66621,-3.17311,0.0143617,0.59009
785.513,34.68965,-3.17311,0.01535431,0.58955
786.213,34.71315,-3.17311,0.01109752,0.58902
786.913,34.7367,-3.17306,0.01689856,0.58849
787.613,34.76007,-3.174,0.01471952,0.58796
788.313,34.78352,-3.17339,0.01598592,0.58743
789.013,34.807,-3.17474,0.01443184,0.5869
789.713,34.8305,-3.17475,0.01423446,0.58637
790.413,34.85396,-3.17475,0.01300842,0.58584
791.113,34.87747,-3.1748,0.0136703,0.58531
791.813,34.9009,-3.17309,0.01267299,0.58478
792.513,34.9244,-3.17311,0.01504648,0.58425
793.213,34.94784,-3.17324,0.0151884,0.58372
793.913,34.9713,-3.17452,0.01486435,0.58319
794.613,34.99477,-3.17453,0.01034967,0.58266
794.713,34.9981,-3.17453,0.01047169,0.58259