File: 01_Data/Particleboard/STA/N2/30K_min/Particleboard_STA_N2_30KData_220420_R3.csv
##Temp./Â°C,Time/min,Mass loss(subtr.2)/mg,DSC(subtr.2)/(mW/mg),Sensit./(uV/mW)
48.47,10.00583,-0.01952,0.01212057,1.07507
49.17,10.55627,-0.0176543,0.05759679,1.07476
49.87,10.68242,-0.01598677,0.09312704,1.07445
50.57,10.7726,-0.01427098,0.12486,1.07414
51.27,10.84577,-0.01699844,0.15702,1.07383
51.97,10.9093,-0.01856165,0.18358,1.07352
52.67,10.96593,-0.01853346,0.2091,1.07321
53.37,11.01726,-0.02055359,0.23745,1.0729
54.07,11.06532,-0.01889774,0.25928,1.07259
54.77,11.1099,-0.01896235,0.2819,1.07228
55.47,11.15238,-0.0191021,0.3026,1.07196
56.17,11.19328,-0.0190003,0.32566,1.07165
56.87,11.2323,-0.01930525,0.3444,1.07134
57.57,11.27029,-0.01996624,0.36112,1.07102
58.27,11.30659,-0.01974184,0.37717,1.07071
58.97,11.34172,-0.01991892,0.39484,1.07039
59.67,11.37617,-0.01946161,0.41174,1.07007
60.37,11.4097,-0.01942193,0.42589,1.06976
61.07,11.4422,-0.02139623,0.44021,1.06944
61.77,11.474,-0.01985425,0.45598,1.06912
62.47,11.5054,-0.01818236,0.47143,1.0688
63.17,11.53599,-0.01690148,0.48337,1.06848
63.87,11.56625,-0.01692403,0.49684,1.06816
64.57,11.59628,-0.01623621,0.50929,1.06784
65.27,11.62584,-0.01579033,0.52274,1.06752
65.97,11.65497,-0.01641177,0.5328,1.0672
66.67,11.68368,-0.0186577,0.54484,1.06688
67.37,11.71218,-0.019891,0.55715,1.06656
68.07,11.74042,-0.01851935,0.56785,1.06624
68.77,11.76833,-0.01815199,0.58045,1.06591
69.47,11.79593,-0.01800777,0.58915,1.06559
70.17,11.82322,-0.01733353,0.6014,1.06526
70.87,11.85032,-0.01658234,0.60771,1.06494
71.57,11.87712,-0.01689962,0.61879,1.06461
72.27,11.90397,-0.01720882,0.62905,1.06429
72.97,11.93073,-0.01772598,0.63727,1.06396
73.67,11.95722,-0.01850379,0.64875,1.06363
74.37,11.9834,-0.01903861,0.65802,1.06331
75.07,12.00957,-0.02006114,0.66701,1.06298
75.77,12.03561,-0.02137742,0.67579,1.06265
76.47,12.06149,-0.02073168,0.68625,1.06232
77.17,12.08717,-0.02081181,0.69361,1.06199
77.87,12.11288,-0.02049023,0.70177,1.06166
78.57,12.13847,-0.02082635,0.71096,1.06133
79.27,12.16388,-0.02113773,0.71907,1.061
79.97,12.18902,-0.02263464,0.72779,1.06067
80.67,12.2141,-0.02255272,0.73557,1.06034
81.37,12.23925,-0.02281501,0.74542,1.06
82.07,12.26426,-0.02216294,0.75282,1.05967
82.77,12.28933,-0.02242272,0.75952,1.05934
83.47,12.31418,-0.02192878,0.76548,1.059
84.17,12.33905,-0.02149951,0.77467,1.05867
84.87,12.36368,-0.0223514,0.78463,1.05833
85.57,12.38833,-0.02247867,0.78925,1.058
86.27,12.41281,-0.02402677,0.79572,1.05766
86.97,12.4373,-0.02400114,0.8068,1.05732
87.67,12.46156,-0.02547836,0.81182,1.05699
88.37,12.4861,-0.02614412,0.82024,1.05665
89.07,12.51029,-0.02541914,0.82378,1.05631
89.77,12.53469,-0.02559867,0.83079,1.05597
90.47,12.5588,-0.02645921,0.83868,1.05563
91.17,12.5831,-0.02542507,0.84551,1.05529
91.87,12.6073,-0.02677387,0.85189,1.05495
92.57,12.63134,-0.02588181,0.85887,1.05461
93.27,12.6554,-0.02645369,0.86202,1.05427
93.97,12.67929,-0.0267599,0.86868,1.05393
94.67,12.70322,-0.02675866,0.87351,1.05359
95.37,12.72711,-0.02720756,0.87788,1.05324
96.07,12.75099,-0.02807801,0.88381,1.0529
96.77,12.77469,-0.02813827,0.88916,1.05256
97.47,12.79837,-0.02940418,0.89437,1.05221
98.17,12.82195,-0.02939698,0.89521,1.05187
98.87,12.84568,-0.03004117,0.90189,1.05152
99.57,12.8694,-0.03069965,0.90345,1.05118
100.27,12.8931,-0.02936349,0.90876,1.05083
100.97,12.91681,-0.03064567,0.91297,1.05049
101.67,12.94036,-0.03070972,0.91444,1.05014
102.37,12.96387,-0.03071097,0.9152,1.04979
103.07,12.98735,-0.03080662,0.91542,1.04944
103.77,13.01089,-0.03156228,0.91666,1.0491
104.47,13.03457,-0.03071634,0.9192,1.04875
105.17,13.0581,-0.03072002,0.9213,1.0484
105.87,13.0817,-0.0307198,0.9222,1.04805
106.57,13.10507,-0.03072751,0.92121,1.0477
107.27,13.12865,-0.03207719,0.92201,1.04735
107.97,13.1521,-0.03107513,0.92185,1.047
108.67,13.1755,-0.03072093,0.92165,1.04664
109.37,13.19899,-0.03202162,0.9239,1.04629
110.07,13.2224,-0.03202936,0.92195,1.04594
110.77,13.24586,-0.03203038,0.91987,1.04559
111.47,13.2692,-0.03171878,0.92095,1.04523
112.17,13.2927,-0.03201982,0.92049,1.04488
112.87,13.31608,-0.03201738,0.91632,1.04452
113.57,13.33949,-0.03273676,0.9164,1.04417
114.27,13.36268,-0.0346507,0.9158,1.04381
114.97,13.38592,-0.03466,0.91396,1.04346
115.67,13.4091,-0.03465998,0.9128,1.0431
116.37,13.43245,-0.03466005,0.91223,1.04274
117.07,13.4558,-0.03491556,0.91119,1.04239
117.77,13.479,-0.03597936,0.90867,1.04203
118.47,13.5021,-0.03599649,0.90642,1.04167
119.17,13.5253,-0.03467049,0.9057,1.04131
119.87,13.54846,-0.03466013,0.90367,1.04095
120.57,13.5717,-0.03466848,0.90197,1.04059
121.27,13.59489,-0.03619133,0.89937,1.04023
121.97,13.61805,-0.03728545,0.89737,1.03987
122.67,13.64105,-0.03733765,0.89722,1.03951
123.37,13.6641,-0.03862013,0.89742,1.03915
124.07,13.68711,-0.03860505,0.89677,1.03879
124.77,13.7101,-0.03743823,0.89342,1.03843
125.47,13.7332,-0.03861975,0.89302,1.03807
126.17,13.7561,-0.03860869,0.8932,1.0377
126.87,13.77905,-0.03861515,0.89188,1.03734
127.57,13.80192,-0.03730394,0.89199,1.03698
128.27,13.8248,-0.03728734,0.89089,1.03661
128.97,13.8476,-0.03816582,0.8895,1.03625
129.67,13.8704,-0.03861233,0.8922,1.03588
130.37,13.89321,-0.03861001,0.89167,1.03552
131.07,13.91601,-0.03861,0.89132,1.03515
131.77,13.93875,-0.03861001,0.89133,1.03478
132.47,13.9613,-0.03861314,0.89173,1.03442
133.17,13.9839,-0.03941018,0.89256,1.03405
133.87,14.00659,-0.03992074,0.89457,1.03368
134.57,14.02931,-0.03991998,0.89464,1.03331
135.27,14.052,-0.03992,0.89484,1.03294
135.97,14.07466,-0.03992006,0.89563,1.03257
136.67,14.0973,-0.03991517,0.89816,1.03221
137.37,14.1198,-0.03888021,0.90004,1.03184
138.07,14.14226,-0.03860871,0.90127,1.03146
138.77,14.1645,-0.03861001,0.9014,1.03109
139.47,14.18702,-0.03861,0.90338,1.03072
140.17,14.20945,-0.03861,0.90687,1.03035
140.87,14.2321,-0.03861,0.90992,1.02998
141.57,14.2546,-0.03861,0.91208,1.02961
142.27,14.27691,-0.0386101,0.91398,1.02923
142.97,14.2994,-0.03861122,0.91415,1.02886
143.67,14.3218,-0.03745448,0.91898,1.02849
144.37,14.3442,-0.03850537,0.91959,1.02811
145.07,14.3665,-0.03860948,0.92039,1.02774
145.77,14.3888,-0.03861002,0.92728,1.02736
146.47,14.41116,-0.03861002,0.9251,1.02699
147.17,14.43345,-0.03861118,0.92826,1.02661
147.87,14.4558,-0.03929633,0.93274,1.02624
148.57,14.47805,-0.03960142,0.93468,1.02586
149.27,14.50019,-0.03960003,0.93768,1.02548
149.97,14.5223,-0.03959772,0.93932,1.0251
150.67,14.54444,-0.03987245,0.94131,1.02473
151.37,14.56666,-0.03992954,0.94624,1.02435
152.07,14.589,-0.03994278,0.94748,1.02397
152.77,14.6112,-0.04116456,0.95041,1.02359
153.47,14.63335,-0.04123486,0.9538,1.02321
154.17,14.65545,-0.0424334,0.95815,1.02283
154.87,14.6776,-0.04256062,0.96115,1.02245
155.57,14.69965,-0.04256,0.96232,1.02207
156.27,14.7217,-0.04256,0.9679,1.02169
156.97,14.74368,-0.04256,0.97208,1.02131
157.67,14.76568,-0.04256,0.97444,1.02093
158.37,14.78767,-0.04256,0.97722,1.02054
159.07,14.8096,-0.04256,0.98332,1.02016
159.77,14.8315,-0.04256,0.98445,1.01978
160.47,14.85365,-0.04256,0.98937,1.0194
161.17,14.8759,-0.04255999,0.99228,1.01901
161.87,14.89807,-0.04256026,0.9966,1.01863
162.57,14.9202,-0.04257998,1.00005,1.01824
163.27,14.9421,-0.04191847,1.00513,1.01786
163.97,14.96403,-0.04191265,1.00934,1.01747
164.67,14.986,-0.04321816,1.01326,1.01709
165.37,15.00799,-0.04320902,1.01943,1.0167
166.07,15.02994,-0.04321001,1.02198,1.01631
166.77,15.0518,-0.04321,1.02377,1.01593
167.47,15.07371,-0.04321,1.02983,1.01554
168.17,15.09555,-0.04321032,1.03464,1.01515
168.87,15.1174,-0.04319272,1.04024,1.01476
169.57,15.13924,-0.04453125,1.04405,1.01438
170.27,15.16116,-0.04452812,1.04957,1.01399
170.97,15.18304,-0.04472679,1.05516,1.0136
171.67,15.20493,-0.04486065,1.05901,1.01321
172.37,15.22674,-0.04486001,1.06524,1.01282
173.07,15.2485,-0.04486,1.0747,1.01243
173.77,15.2704,-0.04486,1.07839,1.01204
174.47,15.29235,-0.04486001,1.08363,1.01165
175.17,15.31415,-0.04486814,1.09188,1.01125
175.87,15.33593,-0.04575628,1.09569,1.01086
176.57,15.3576,-0.04585056,1.10526,1.01047
177.27,15.3792,-0.04585,1.11284,1.01008
177.97,15.4009,-0.04585003,1.1202,1.00969
178.67,15.4226,-0.04584746,1.12918,1.00929
179.37,15.44428,-0.04627136,1.13655,1.0089
180.07,15.46595,-0.04848903,1.14436,1.0085
180.77,15.48756,-0.04849017,1.1539,1.00811
181.47,15.50915,-0.0484909,1.16395,1.00772
182.17,15.53079,-0.04844421,1.17031,1.00732
182.87,15.5524,-0.04980134,1.17906,1.00692
183.57,15.574,-0.04980023,1.18935,1.00653
184.27,15.59571,-0.04980033,1.19673,1.00613
184.97,15.6173,-0.04978199,1.20772,1.00574
185.67,15.6389,-0.05111452,1.21573,1.00534
186.37,15.6604,-0.05111831,1.22414,1.00494
187.07,15.68189,-0.05132606,1.23421,1.00454
187.77,15.70341,-0.05316428,1.24294,1.00415
188.47,15.7249,-0.05373781,1.2548,1.00375
189.17,15.7463,-0.05411455,1.26555,1.00335
189.87,15.7679,-0.05557517,1.27545,1.00295
190.57,15.7892,-0.05644555,1.286,1.00255
191.27,15.8106,-0.05902433,1.2942,1.00215
191.97,15.8321,-0.05911917,1.30571,1.00175
192.67,15.85361,-0.05990658,1.31517,1.00135
193.37,15.87524,-0.0606655,1.32833,1.00095
194.07,15.8967,-0.06142966,1.33714,1.00055
194.77,15.918,-0.06276941,1.34826,1.00015
195.47,15.93941,-0.0628542,1.35999,0.99974
196.17,15.96081,-0.06429732,1.37096,0.99934
196.87,15.9823,-0.06422566,1.38205,0.99894
197.57,16.00388,-0.06573625,1.39284,0.99854
198.27,16.0251,-0.065891,1.4033,0.99813
198.97,16.04646,-0.06616892,1.41548,0.99773
199.67,16.06781,-0.06765797,1.42605,0.99733
200.37,16.08936,-0.06886551,1.43804,0.99692
201.07,16.11093,-0.06920346,1.44991,0.99652
201.77,16.13232,-0.06954223,1.46165,0.99611
202.47,16.1537,-0.07101664,1.47331,0.99571
203.17,16.17502,-0.07107111,1.48557,0.9953
203.87,16.19634,-0.0710532,1.49553,0.99489
204.57,16.2177,-0.07238689,1.50843,0.99449
205.27,16.239,-0.07249269,1.52025,0.99408
205.97,16.2603,-0.0740224,1.53496,0.99367
206.67,16.2817,-0.07592667,1.54732,0.99327
207.37,16.303,-0.07719136,1.55564,0.99286
208.07,16.32435,-0.07827463,1.56809,0.99245
208.77,16.34573,-0.07985231,1.58051,0.99204
209.47,16.36709,-0.0809557,1.59077,0.99163
210.17,16.38843,-0.08124438,1.60204,0.99123
210.87,16.40977,-0.082748,1.61341,0.99082
211.57,16.43103,-0.08315682,1.62298,0.99041
212.27,16.45241,-0.08423845,1.63226,0.99
212.97,16.47379,-0.08599874,1.64468,0.98959
213.67,16.49512,-0.08794466,1.6514,0.98918
214.37,16.5164,-0.08948201,1.66214,0.98876
215.07,16.53763,-0.09158174,1.67055,0.98835
215.77,16.55885,-0.09255151,1.67845,0.98794
216.47,16.5802,-0.09384451,1.69198,0.98753
217.17,16.6015,-0.09556717,1.69804,0.98712
217.87,16.6228,-0.09721653,1.70705,0.9867
218.57,16.64405,-0.09800214,1.71525,0.98629
219.27,16.66515,-0.09847209,1.72157,0.98588
219.97,16.68625,-0.10026,1.72965,0.98546
220.67,16.70727,-0.10217,1.73613,0.98505
221.37,16.72867,-0.10398,1.74162,0.98464
222.07,16.75014,-0.10601,1.74884,0.98422
222.77,16.77166,-0.10769,1.75296,0.98381
223.47,16.79297,-0.10935,1.75783,0.98339
224.17,16.81416,-0.11096,1.76124,0.98298
224.87,16.8354,-0.11252,1.76768,0.98256
225.57,16.85665,-0.11439,1.76978,0.98214
226.27,16.87785,-0.11656,1.77455,0.98173
226.97,16.89903,-0.11856,1.7768,0.98131
227.67,16.92021,-0.12012,1.77876,0.98089
228.37,16.94145,-0.12112,1.78214,0.98048
229.07,16.96266,-0.12218,1.78326,0.98006
229.77,16.98384,-0.12358,1.78774,0.97964
230.47,17.00505,-0.12561,1.78808,0.97922
231.17,17.0262,-0.12746,1.79014,0.97881
231.87,17.04736,-0.12925,1.78999,0.97839
232.57,17.06852,-0.13123,1.79075,0.97797
233.27,17.08971,-0.13352,1.791,0.97755
233.97,17.1108,-0.13527,1.79247,0.97713
234.67,17.132,-0.13718,1.79044,0.97671
235.37,17.15314,-0.13922,1.79079,0.97629
236.07,17.17427,-0.14112,1.79367,0.97587
236.77,17.1954,-0.14194,1.79399,0.97545
237.47,17.21645,-0.14382,1.7926,0.97502
238.17,17.2376,-0.14575,1.79284,0.9746
238.87,17.25872,-0.14782,1.7949,0.97418
239.57,17.2799,-0.14978,1.79428,0.97376
240.27,17.30097,-0.15116,1.79345,0.97334
240.97,17.322,-0.15396,1.79415,0.97291
241.67,17.34311,-0.15612,1.79404,0.97249
242.37,17.36423,-0.15869,1.79468,0.97207
243.07,17.38541,-0.16116,1.79481,0.97164
243.77,17.40655,-0.16349,1.79337,0.97122
244.47,17.42759,-0.16611,1.79365,0.97079
245.17,17.44868,-0.16893,1.79111,0.97037
245.87,17.46975,-0.17114,1.791,0.96994
246.57,17.4909,-0.17298,1.78959,0.96952
247.27,17.512,-0.17524,1.79044,0.96909
247.97,17.53305,-0.17813,1.78851,0.96867
248.67,17.55404,-0.1811,1.78574,0.96824
249.37,17.57508,-0.18377,1.78199,0.96782
250.07,17.59617,-0.18592,1.78215,0.96739
250.77,17.6173,-0.18866,1.77809,0.96696
251.47,17.63839,-0.19182,1.77507,0.96654
252.17,17.65941,-0.19494,1.77488,0.96611
252.87,17.6804,-0.19694,1.77035,0.96568
253.57,17.7014,-0.19937,1.76928,0.96525
254.27,17.72243,-0.20212,1.76649,0.96482
254.97,17.7435,-0.20572,1.76718,0.9644
255.67,17.76451,-0.20861,1.76206,0.96397
256.37,17.7855,-0.21123,1.76121,0.96354
257.07,17.80643,-0.21378,1.75791,0.96311
257.77,17.8274,-0.21675,1.75568,0.96268
258.47,17.8484,-0.21966,1.7555,0.96225
259.17,17.86944,-0.22203,1.7543,0.96182
259.87,17.89047,-0.22552,1.75018,0.96139
260.57,17.9115,-0.22969,1.74931,0.96096
261.27,17.93246,-0.23286,1.74941,0.96053
261.97,17.95344,-0.23593,1.748,0.96009
262.67,17.97436,-0.23892,1.74584,0.95966
263.37,17.99529,-0.24167,1.7426,0.95923
264.07,18.0162,-0.2456,1.74505,0.9588
264.77,18.03717,-0.24916,1.74141,0.95837
265.47,18.05811,-0.25324,1.74038,0.95793
266.17,18.07909,-0.25709,1.73737,0.9575
266.87,18.1001,-0.2603,1.73788,0.95707
267.57,18.12112,-0.26442,1.73576,0.95663
268.27,18.14216,-0.26813,1.73405,0.9562
268.97,18.1631,-0.27117,1.73418,0.95576
269.67,18.18403,-0.27461,1.73144,0.95533
270.37,18.20494,-0.27816,1.72851,0.9549
271.07,18.22588,-0.28223,1.72648,0.95446
271.77,18.24683,-0.28642,1.72414,0.95403
272.47,18.2678,-0.2896,1.72309,0.95359
273.17,18.28869,-0.29372,1.72066,0.95315
273.87,18.3096,-0.29844,1.71611,0.95272
274.57,18.3306,-0.30226,1.71571,0.95228
275.27,18.35149,-0.30646,1.71139,0.95185
275.97,18.37227,-0.31088,1.71007,0.95141
276.67,18.39301,-0.31569,1.70602,0.95097
277.37,18.41385,-0.32059,1.70254,0.95053
278.07,18.43486,-0.32458,1.69768,0.9501
278.77,18.456,-0.32908,1.69384,0.94966
279.47,18.4772,-0.33363,1.68881,0.94922
280.17,18.49839,-0.3381,1.68423,0.94878
280.87,18.5194,-0.34326,1.6796,0.94834
281.57,18.54036,-0.34903,1.6765,0.9479
282.27,18.5613,-0.35472,1.66942,0.94747
282.97,18.58219,-0.35997,1.66332,0.94703
283.67,18.6032,-0.36496,1.65895,0.94659
284.37,18.62421,-0.37038,1.65028,0.94615
285.07,18.64529,-0.37628,1.6424,0.94571
285.77,18.66635,-0.38251,1.6382,0.94527
286.47,18.68736,-0.38817,1.62743,0.94483
287.17,18.70833,-0.39374,1.6211,0.94438
287.87,18.72926,-0.39921,1.61164,0.94394
288.57,18.75016,-0.40528,1.60218,0.9435
289.27,18.7712,-0.41157,1.59192,0.94306
289.97,18.79221,-0.41771,1.58318,0.94262
290.67,18.81325,-0.42394,1.57271,0.94218
291.37,18.8343,-0.43033,1.55944,0.94173
292.07,18.8553,-0.4384,1.54733,0.94129
292.77,18.8763,-0.44542,1.53699,0.94085
293.47,18.89723,-0.45227,1.52454,0.9404
294.17,18.91816,-0.45966,1.51057,0.93996
294.87,18.93923,-0.46695,1.49985,0.93952
295.57,18.96029,-0.47433,1.48554,0.93907
296.27,18.98131,-0.48151,1.47282,0.93863
296.97,19.00235,-0.48899,1.45934,0.93818
297.67,19.02336,-0.49643,1.44511,0.93774
298.37,19.04429,-0.50371,1.42947,0.9373
299.07,19.0654,-0.51109,1.4159,0.93685
299.77,19.08646,-0.51851,1.40203,0.9364
300.47,19.10756,-0.52634,1.38952,0.93596
301.17,19.1286,-0.53428,1.37318,0.93551
301.87,19.14965,-0.54241,1.36021,0.93507
302.57,19.17067,-0.55068,1.3434,0.93462
303.27,19.19171,-0.55855,1.32906,0.93417
303.97,19.21274,-0.56674,1.31445,0.93373
304.67,19.2337,-0.57562,1.30422,0.93328
305.37,19.25478,-0.58456,1.2854,0.93283
306.07,19.27587,-0.59315,1.27441,0.93239
306.77,19.297,-0.60173,1.2597,0.93194
307.47,19.31806,-0.61068,1.24747,0.93149
308.17,19.3391,-0.61959,1.23712,0.93104
308.87,19.36015,-0.62882,1.22453,0.93059
309.57,19.38125,-0.63841,1.21213,0.93014
310.27,19.40227,-0.64722,1.20228,0.92969
310.97,19.4233,-0.65689,1.18936,0.92925
311.67,19.44439,-0.66655,1.18118,0.9288
312.37,19.46547,-0.6767,1.17191,0.92835
313.07,19.4866,-0.68656,1.16088,0.9279
313.77,19.50777,-0.69678,1.15428,0.92745
314.47,19.5288,-0.70726,1.14364,0.927
315.17,19.54982,-0.71782,1.13511,0.92655
315.87,19.5709,-0.72847,1.12772,0.92609
316.57,19.59195,-0.73911,1.12071,0.92564
317.27,19.61289,-0.7499,1.11187,0.92519
317.97,19.63372,-0.76069,1.10467,0.92474
318.67,19.6548,-0.77259,1.09888,0.92429
319.37,19.67602,-0.78491,1.09244,0.92384
320.07,19.6974,-0.79707,1.08617,0.92338
320.77,19.71871,-0.80943,1.08115,0.92293
321.47,19.73977,-0.82135,1.07678,0.92248
322.17,19.76086,-0.83358,1.07274,0.92203
322.87,19.78204,-0.84626,1.06919,0.92157
323.57,19.80321,-0.85845,1.06369,0.92112
324.27,19.8244,-0.87095,1.06118,0.92067
324.97,19.84553,-0.8829,1.05692,0.92021
325.67,19.86669,-0.89531,1.05442,0.91976
326.37,19.88786,-0.90816,1.05034,0.9193
327.07,19.90907,-0.92186,1.04764,0.91885
327.77,19.9303,-0.93531,1.04495,0.9184
328.47,19.9514,-0.94836,1.0417,0.91794
329.17,19.97255,-0.9612,1.04089,0.91749
329.87,19.99376,-0.97449,1.0407,0.91703
330.57,20.01501,-0.98961,1.03751,0.91657
331.27,20.0362,-1.00381,1.03467,0.91612
331.97,20.05725,-1.01754,1.03418,0.91566
332.67,20.0784,-1.03151,1.03385,0.91521
333.37,20.09968,-1.04578,1.03245,0.91475
334.07,20.12116,-1.06121,1.03142,0.91429
334.77,20.14261,-1.07664,1.02902,0.91384
335.47,20.16385,-1.09215,1.02781,0.91338
336.17,20.1851,-1.10793,1.02769,0.91292
336.87,20.20639,-1.12348,1.02841,0.91246
337.57,20.22766,-1.13895,1.02544,0.91201
338.27,20.24898,-1.15496,1.02588,0.91155
338.97,20.2703,-1.1711,1.02711,0.91109
339.67,20.29157,-1.18697,1.02531,0.91063
340.37,20.3129,-1.20336,1.02399,0.91017
341.07,20.33419,-1.22113,1.02987,0.90971
341.77,20.35549,-1.23803,1.02645,0.90926
342.47,20.37681,-1.25471,1.02548,0.9088
343.17,20.3981,-1.27254,1.02994,0.90834
343.87,20.41933,-1.29114,1.02774,0.90788
344.57,20.44046,-1.31022,1.02904,0.90742
345.27,20.46174,-1.32856,1.03107,0.90696
345.97,20.48312,-1.34674,1.03076,0.9065
346.67,20.50468,-1.36577,1.03,0.90604
347.37,20.52629,-1.38475,1.02908,0.90558
348.07,20.54775,-1.4041,1.03324,0.90512
348.77,20.56915,-1.42404,1.03271,0.90465
349.47,20.5905,-1.44396,1.03162,0.90419
350.17,20.61187,-1.46436,1.03267,0.90373
350.87,20.63328,-1.4847,1.03204,0.90327
351.57,20.6547,-1.50532,1.03339,0.90281
352.27,20.67615,-1.52612,1.03421,0.90235
352.97,20.69752,-1.54745,1.03297,0.90188
353.67,20.71893,-1.56936,1.03405,0.90142
354.37,20.74028,-1.59083,1.03427,0.90096
355.07,20.76173,-1.61249,1.03226,0.90049
355.77,20.78313,-1.63463,1.03231,0.90003
356.47,20.8046,-1.65664,1.02819,0.89957
357.17,20.8261,-1.679,1.0245,0.8991
357.87,20.8475,-1.70137,1.02213,0.89864
358.57,20.86899,-1.7243,1.01894,0.89818
359.27,20.89043,-1.74712,1.01634,0.89771
359.97,20.9117,-1.76984,1.00816,0.89725
360.67,20.93316,-1.7935,1.00182,0.89678
361.37,20.95466,-1.81595,0.99385,0.89632
362.07,20.97631,-1.83936,0.98671,0.89585
362.77,20.99798,-1.86345,0.97793,0.89539
363.47,21.01951,-1.88698,0.9705,0.89492
364.17,21.04106,-1.91041,0.95951,0.89446
364.87,21.06253,-1.93313,0.95052,0.89399
365.57,21.08398,-1.95563,0.93683,0.89353
366.27,21.10541,-1.97883,0.9221,0.89306
366.97,21.12686,-2.00121,0.90969,0.89259
367.67,21.14842,-2.02367,0.89612,0.89213
368.37,21.16991,-2.04602,0.88118,0.89166
369.07,21.19148,-2.06872,0.86582,0.89119
369.77,21.21295,-2.09095,0.84959,0.89073
370.47,21.23449,-2.11241,0.83109,0.89026
371.17,21.25609,-2.13384,0.8134,0.88979
371.87,21.27767,-2.15527,0.79829,0.88932
372.57,21.29926,-2.17549,0.77747,0.88886
373.27,21.3208,-2.19574,0.76005,0.88839
373.97,21.34236,-2.21572,0.73677,0.88792
374.67,21.36393,-2.23664,0.71671,0.88745
375.37,21.3855,-2.25593,0.69524,0.88698
376.07,21.40704,-2.27449,0.67537,0.88651
376.77,21.4286,-2.29285,0.65406,0.88604
377.47,21.45019,-2.31001,0.63363,0.88557
378.17,21.47174,-2.32632,0.61069,0.88511
378.87,21.49331,-2.34227,0.59207,0.88464
379.57,21.51484,-2.35741,0.57123,0.88417
380.27,21.5364,-2.37194,0.55012,0.8837
380.97,21.55797,-2.3858,0.53219,0.88323
381.67,21.57959,-2.3992,0.51474,0.88275
382.37,21.60127,-2.41282,0.49321,0.88228
383.07,21.6229,-2.42538,0.47515,0.88181
383.77,21.64445,-2.43656,0.45562,0.88134
384.47,21.66595,-2.44693,0.43986,0.88087
385.17,21.68755,-2.45689,0.42656,0.8804
385.87,21.7092,-2.46718,0.40767,0.87993
386.57,21.73082,-2.47746,0.39018,0.87946
387.27,21.75251,-2.48735,0.37877,0.87899
387.97,21.77412,-2.4962,0.36063,0.87851
388.67,21.79577,-2.50481,0.34375,0.87804
389.37,21.8174,-2.51353,0.33375,0.87757
390.07,21.83905,-2.52088,0.31659,0.8771
390.77,21.86066,-2.52812,0.304,0.87662
391.47,21.88237,-2.53515,0.2914,0.87615
392.17,21.90401,-2.54176,0.28138,0.87568
392.87,21.9257,-2.54797,0.26827,0.8752
393.57,21.94732,-2.55378,0.25661,0.87473
394.27,21.96901,-2.55895,0.2462,0.87426
394.97,21.9907,-2.56446,0.23742,0.87378
395.67,22.01234,-2.56922,0.22603,0.87331
396.37,22.03397,-2.57424,0.21562,0.87283
397.07,22.05568,-2.57912,0.20793,0.87236
397.77,22.07742,-2.5834,0.19784,0.87188
398.47,22.09907,-2.58802,0.18662,0.87141
399.17,22.12079,-2.59194,0.18241,0.87094
399.87,22.14248,-2.59482,0.17224,0.87046
400.57,22.1642,-2.59886,0.16513,0.86998
401.27,22.18601,-2.60243,0.1552,0.86951
401.97,22.20774,-2.60488,0.15002,0.86903
402.67,22.22952,-2.60782,0.14288,0.86856
403.37,22.25123,-2.6114,0.13359,0.86808
404.07,22.27294,-2.61397,0.12643,0.86761
404.77,22.2947,-2.6165,0.11676,0.86713
405.47,22.31644,-2.61888,0.1104,0.86665
406.17,22.3381,-2.61978,0.10457,0.86618
406.87,22.3597,-2.62201,0.09784382,0.8657
407.57,22.38146,-2.62458,0.09340932,0.86522
408.27,22.40336,-2.62654,0.08565186,0.86474
408.97,22.4253,-2.62972,0.08193345,0.86427
409.67,22.4471,-2.63257,0.07551083,0.86379
410.37,22.46893,-2.63499,0.06870128,0.86331
411.07,22.49071,-2.63688,0.06385745,0.86283
411.77,22.5125,-2.63839,0.05736554,0.86236
412.47,22.5344,-2.64048,0.05233862,0.86188
413.17,22.5562,-2.64328,0.04515234,0.8614
413.87,22.57805,-2.6463,0.04308051,0.86092
414.57,22.59984,-2.65038,0.03705679,0.86044
415.27,22.62161,-2.65323,0.03166299,0.85996
415.97,22.64341,-2.65516,0.02725057,0.85948
416.67,22.6652,-2.6574,0.02339021,0.859
417.37,22.6871,-2.65955,0.01859339,0.85852
418.07,22.7089,-2.6617,0.01404237,0.85804
418.77,22.73075,-2.66498,0.010604,0.85756
419.47,22.75256,-2.6679,0.00769307,0.85708
420.17,22.7744,-2.67126,0.001043633,0.8566
420.87,22.79634,-2.67308,-0.00136776,0.85612
421.57,22.81823,-2.67517,-0.00566727,0.85564
422.27,22.8401,-2.67745,-0.01179023,0.85516
422.97,22.86197,-2.67979,-0.0127616,0.85468
423.67,22.88384,-2.68223,-0.01485121,0.8542
424.37,22.90568,-2.68487,-0.02366355,0.85372
425.07,22.92752,-2.68756,-0.02294557,0.85324
425.77,22.94943,-2.68967,-0.0240833,0.85276
426.47,22.9712,-2.69165,-0.02938003,0.85228
427.17,22.99316,-2.69391,-0.03039807,0.85179
427.87,23.01509,-2.69607,-0.03086718,0.85131
428.57,23.0371,-2.69801,-0.0347052,0.85083
429.27,23.0591,-2.70025,-0.03531878,0.85035
429.97,23.08101,-2.70278,-0.03457787,0.84987
430.67,23.10292,-2.70628,-0.03609079,0.84938
431.37,23.12489,-2.70799,-0.03755541,0.8489
432.07,23.14679,-2.70969,-0.03890715,0.84842
432.77,23.16876,-2.7118,-0.03879858,0.84793
433.47,23.19066,-2.71389,-0.04275458,0.84745
434.17,23.21254,-2.71649,-0.04169542,0.84697
434.87,23.23443,-2.71921,-0.04190983,0.84648
435.57,23.25645,-2.72169,-0.04105848,0.846
436.27,23.27846,-2.72379,-0.03918017,0.84552
436.97,23.30047,-2.72609,-0.03984158,0.84503
437.67,23.32239,-2.72855,-0.04006291,0.84455
438.37,23.34437,-2.73082,-0.03733282,0.84406
439.07,23.36637,-2.73322,-0.03534126,0.84358
439.77,23.38842,-2.73561,-0.03515041,0.84309
440.47,23.41047,-2.73743,-0.03731689,0.84261
441.17,23.43245,-2.73918,-0.03387864,0.84212
441.87,23.4544,-2.74132,-0.03124736,0.84164
442.57,23.47642,-2.74375,-0.0271292,0.84115
443.27,23.49843,-2.746,-0.02641684,0.84067
443.97,23.52047,-2.74814,-0.02299618,0.84018
444.67,23.54247,-2.75034,-0.01988715,0.8397
445.37,23.5645,-2.75219,-0.01686411,0.83921
446.07,23.58652,-2.75393,-0.01536465,0.83872
446.77,23.6086,-2.75591,-0.01083334,0.83824
447.47,23.63072,-2.7585,-0.00776512,0.83775
448.17,23.6528,-2.76108,-0.004290848,0.83726
448.87,23.6749,-2.76386,-0.000520541,0.83678
449.57,23.697,-2.76598,0.003950152,0.83629
450.27,23.7192,-2.7676,0.009486629,0.8358
450.97,23.74126,-2.76875,0.01382177,0.83532
451.67,23.76334,-2.77033,0.01776101,0.83483
452.37,23.7854,-2.77307,0.0205365,0.83434
453.07,23.8075,-2.77599,0.02434747,0.83385
453.77,23.8296,-2.77848,0.02914746,0.83337
454.47,23.85166,-2.78058,0.03378625,0.83288
455.17,23.8738,-2.78163,0.03946678,0.83239
455.87,23.89594,-2.78261,0.04201329,0.8319
456.57,23.9181,-2.78418,0.04642617,0.83141
457.27,23.9403,-2.78604,0.05085157,0.83092
457.97,23.96248,-2.78808,0.05686771,0.83043
458.67,23.98459,-2.79023,0.06152336,0.82995
459.37,24.0068,-2.7919,0.06690858,0.82946
460.07,24.02896,-2.79245,0.06671809,0.82897
460.77,24.05115,-2.79414,0.07185172,0.82848
461.47,24.07329,-2.79577,0.07934699,0.82799
462.17,24.0954,-2.79705,0.07862231,0.8275
462.87,24.11758,-2.79864,0.08405592,0.82701
463.57,24.1398,-2.80018,0.08681006,0.82652
464.27,24.16208,-2.80172,0.09177958,0.82603
464.97,24.18439,-2.80486,0.09756718,0.82554
465.67,24.20665,-2.80666,0.10157,0.82505
466.37,24.22881,-2.80849,0.10523,0.82456
467.07,24.25098,-2.81,0.1081,0.82407
467.77,24.27306,-2.81026,0.10935,0.82358
468.47,24.2953,-2.81182,0.11498,0.82309
469.17,24.31757,-2.81309,0.11991,0.82259
469.87,24.3399,-2.81442,0.12138,0.8221
470.57,24.36224,-2.81628,0.12569,0.82161
471.27,24.38448,-2.81714,0.1306,0.82112
471.97,24.4068,-2.81816,0.13103,0.82063
472.67,24.42901,-2.81945,0.13604,0.82014
473.37,24.45128,-2.82112,0.13732,0.81964
474.07,24.47361,-2.82257,0.1414,0.81915
474.77,24.49578,-2.82411,0.14233,0.81866
475.47,24.51804,-2.82489,0.14768,0.81817
476.17,24.54031,-2.82651,0.1493,0.81767
476.87,24.56273,-2.82852,0.1509,0.81718
477.57,24.5852,-2.83112,0.15679,0.81669
478.27,24.60752,-2.83433,0.15713,0.8162
478.97,24.6298,-2.83502,0.16342,0.8157
479.67,24.65193,-2.83647,0.16439,0.81521
480.37,24.67405,-2.83827,0.1647,0.81472
481.07,24.6962,-2.83927,0.16602,0.81422
481.77,24.71861,-2.841,0.17047,0.81373
482.47,24.7411,-2.84282,0.17304,0.81323
483.17,24.76365,-2.84432,0.17398,0.81274
483.87,24.786,-2.84593,0.17368,0.81225
484.57,24.8083,-2.84766,0.17579,0.81175
485.27,24.83073,-2.84864,0.17802,0.81126
485.97,24.85312,-2.84964,0.18252,0.81076
486.67,24.87545,-2.85026,0.18226,0.81027
487.37,24.89777,-2.85091,0.18519,0.80977
488.07,24.92005,-2.85269,0.18429,0.80928
488.77,24.94238,-2.85434,0.18832,0.80878
489.47,24.9648,-2.8559,0.18792,0.80829
490.17,24.98721,-2.857,0.19239,0.80779
490.87,25.00956,-2.8581,0.19195,0.8073
491.57,25.0319,-2.85948,0.19366,0.8068
492.27,25.05428,-2.86122,0.19493,0.8063
492.97,25.07669,-2.86273,0.19478,0.80581
493.67,25.09917,-2.86302,0.19722,0.80531
494.37,25.1216,-2.86269,0.19703,0.80482
495.07,25.144,-2.86405,0.1988,0.80432
495.77,25.1663,-2.86482,0.19803,0.80382
496.47,25.1887,-2.86432,0.20104,0.80333
497.17,25.21106,-2.8659,0.20261,0.80283
497.87,25.2335,-2.86734,0.19984,0.80233
498.57,25.2559,-2.8674,0.2013,0.80184
499.27,25.27833,-2.86789,0.20614,0.80134
499.97,25.30074,-2.86919,0.20529,0.80084
500.67,25.32317,-2.87072,0.20646,0.80034
501.37,25.3456,-2.87229,0.20917,0.79985
502.07,25.36792,-2.87341,0.2078,0.79935
502.77,25.39034,-2.87613,0.209,0.79885
503.47,25.4128,-2.8769,0.21197,0.79835
504.17,25.43526,-2.87908,0.21119,0.79785
504.87,25.45774,-2.88228,0.21111,0.79735
505.57,25.48016,-2.88389,0.21288,0.79686
506.27,25.50258,-2.88455,0.21582,0.79636
506.97,25.52499,-2.88644,0.2161,0.79586
507.67,25.54741,-2.88652,0.21658,0.79536
508.37,25.56985,-2.88772,0.21401,0.79486
509.07,25.59238,-2.8877,0.21441,0.79436
509.77,25.61492,-2.888,0.21705,0.79386
510.47,25.63741,-2.88938,0.2197,0.79336
511.17,25.65992,-2.88895,0.21798,0.79286
511.87,25.6824,-2.88868,0.21631,0.79236
512.57,25.70487,-2.88935,0.21669,0.79186
513.27,25.72735,-2.88944,0.21704,0.79136
513.97,25.74981,-2.89009,0.2165,0.79086
514.67,25.7723,-2.88968,0.21896,0.79036
515.37,25.7947,-2.89086,0.21927,0.78986
516.07,25.81726,-2.89131,0.22001,0.78936
516.77,25.83981,-2.89233,0.22128,0.78886
517.47,25.8623,-2.89409,0.22074,0.78836
518.17,25.88469,-2.89557,0.22187,0.78786
518.87,25.9072,-2.89642,0.22286,0.78736
519.57,25.9298,-2.89568,0.22109,0.78686
520.27,25.9524,-2.89703,0.21955,0.78636
520.97,25.97496,-2.89703,0.21938,0.78586
521.67,25.99749,-2.89748,0.22149,0.78536
522.37,26.01999,-2.89913,0.22005,0.78485
523.07,26.04254,-2.90096,0.22531,0.78435
523.77,26.06508,-2.90259,0.22254,0.78385
524.47,26.08766,-2.90398,0.22562,0.78335
525.17,26.11015,-2.90515,0.22585,0.78285
525.87,26.13268,-2.90679,0.22523,0.78234
526.57,26.15515,-2.90699,0.22408,0.78184
527.27,26.17747,-2.90943,0.22499,0.78134
527.97,26.1999,-2.9111,0.22719,0.78084
528.67,26.22237,-2.91243,0.22532,0.78033
529.37,26.24516,-2.91322,0.22873,0.77983
530.07,26.2679,-2.91321,0.22702,0.77933
530.77,26.2905,-2.9147,0.22828,0.77882
531.47,26.313,-2.9145,0.22538,0.77832
532.17,26.33565,-2.91486,0.22655,0.77782
532.87,26.3583,-2.9151,0.22623,0.77731
533.57,26.3809,-2.91659,0.22674,0.77681
534.27,26.4036,-2.91606,0.22335,0.77631
534.97,26.42618,-2.91678,0.22629,0.7758
535.67,26.44871,-2.91811,0.228,0.7753
536.37,26.47128,-2.9181,0.23031,0.77479
537.07,26.4938,-2.91944,0.22529,0.77429
537.77,26.51642,-2.92026,0.22488,0.77379
538.47,26.53902,-2.92204,0.2281,0.77328
539.17,26.5616,-2.92325,0.2275,0.77278
539.87,26.58425,-2.92433,0.23087,0.77227
540.57,26.60685,-2.92487,0.22926,0.77177
541.27,26.6294,-2.92576,0.23036,0.77126
541.97,26.6521,-2.92577,0.22774,0.77076
542.67,26.67468,-2.92621,0.23292,0.77025
543.37,26.6973,-2.92596,0.23164,0.76975
544.07,26.71994,-2.92709,0.2309,0.76924
544.77,26.7426,-2.92826,0.23403,0.76874
545.47,26.7653,-2.9286,0.23507,0.76823
546.17,26.788,-2.93083,0.23795,0.76772
546.87,26.8106,-2.93168,0.23611,0.76722
547.57,26.8332,-2.93373,0.24176,0.76671
548.27,26.85572,-2.93545,0.2423,0.76621
548.97,26.87831,-2.93543,0.24158,0.7657
549.67,26.90098,-2.93679,0.24384,0.76519
550.37,26.92372,-2.93718,0.24557,0.76469
551.07,26.9464,-2.93733,0.2462,0.76418
551.77,26.96913,-2.93843,0.24608,0.76367
552.47,26.99182,-2.93838,0.25164,0.76317
553.17,27.01453,-2.93838,0.25039,0.76266
553.87,27.03717,-2.93797,0.2515,0.76215
554.57,27.05978,-2.93707,0.25688,0.76165
555.27,27.0824,-2.93811,0.25812,0.76114
555.97,27.1051,-2.93836,0.25462,0.76063
556.67,27.1278,-2.9399,0.2588,0.76012
557.37,27.15056,-2.94034,0.26032,0.75962
558.07,27.17329,-2.94124,0.26062,0.75911
558.77,27.196,-2.94122,0.26365,0.7586
559.47,27.21862,-2.94254,0.26757,0.75809
560.17,27.24127,-2.9425,0.26644,0.75758
560.87,27.26397,-2.94516,0.27042,0.75707
561.57,27.28665,-2.9452,0.26996,0.75657
562.27,27.30933,-2.94651,0.27306,0.75606
562.97,27.33202,-2.94648,0.27151,0.75555
563.67,27.35476,-2.94868,0.27571,0.75504
564.37,27.37752,-2.94902,0.27413,0.75453
565.07,27.4001,-2.95002,0.27659,0.75402
565.77,27.42282,-2.95109,0.27435,0.75351
566.47,27.4455,-2.95132,0.27557,0.753
567.17,27.4683,-2.95228,0.27411,0.7525
567.87,27.49105,-2.95264,0.27651,0.75199
568.57,27.51383,-2.95267,0.27985,0.75148
569.27,27.5366,-2.95396,0.27863,0.75097
569.97,27.5592,-2.95395,0.28035,0.75046
570.67,27.582,-2.95525,0.28048,0.74995
571.37,27.6048,-2.9558,0.28182,0.74944
572.07,27.6276,-2.95659,0.28341,0.74893
572.77,27.65035,-2.95655,0.2841,0.74842
573.47,27.6731,-2.95737,0.28078,0.74791
574.17,27.6959,-2.95735,0.28362,0.7474
574.87,27.7186,-2.95829,0.28144,0.74689
575.57,27.74138,-2.95867,0.28063,0.74637
576.27,27.7642,-2.95862,0.28272,0.74586
576.97,27.787,-2.95998,0.27945,0.74535
577.67,27.80987,-2.96071,0.28083,0.74484
578.37,27.8326,-2.9613,0.28062,0.74433
579.07,27.85535,-2.96159,0.27956,0.74382
579.77,27.8781,-2.9636,0.27914,0.74331
580.47,27.90093,-2.96449,0.28193,0.7428
581.17,27.9237,-2.96493,0.28165,0.74229
581.87,27.94652,-2.96557,0.28127,0.74177
582.57,27.96935,-2.96492,0.27847,0.74126
583.27,27.99215,-2.96522,0.27969,0.74075
583.97,28.01496,-2.96623,0.28047,0.74024
584.67,28.03772,-2.96624,0.28167,0.73973
585.37,28.06036,-2.96731,0.27763,0.73921
586.07,28.0831,-2.96755,0.27661,0.7387
586.77,28.1059,-2.96755,0.27883,0.73819
587.47,28.1289,-2.96764,0.27683,0.73768
588.17,28.15172,-2.96887,0.27428,0.73717
588.87,28.17434,-2.96899,0.27466,0.73665
589.57,28.19718,-2.97018,0.27645,0.73614
590.27,28.2201,-2.9706,0.2759,0.73563
590.97,28.24318,-2.97151,0.27387,0.73511
591.67,28.26602,-2.97151,0.2774,0.7346
592.37,28.2889,-2.97284,0.2716,0.73409
593.07,28.3117,-2.97279,0.26985,0.73357
593.77,28.33465,-2.97423,0.26889,0.73306
594.47,28.3575,-2.97423,0.26682,0.73255
595.17,28.3804,-2.97557,0.26659,0.73203
595.87,28.40322,-2.97554,0.26727,0.73152
596.57,28.42616,-2.97689,0.26563,0.73101
597.27,28.4491,-2.97686,0.26624,0.73049
597.97,28.472,-2.97819,0.2662,0.72998
598.67,28.495,-2.97837,0.26505,0.72946
599.37,28.5178,-2.97961,0.26216,0.72895
600.07,28.54072,-2.98047,0.25897,0.72844
600.77,28.5636,-2.98094,0.25804,0.72792
601.47,28.58652,-2.98168,0.258,0.72741
602.17,28.60947,-2.98225,0.25698,0.72689
602.87,28.6324,-2.98225,0.25431,0.72638
603.57,28.6553,-2.98225,0.25296,0.72586
604.27,28.67825,-2.98225,0.25551,0.72535
604.97,28.70123,-2.98239,0.251,0.72483
605.67,28.72417,-2.98357,0.25398,0.72432
606.37,28.74711,-2.98275,0.25271,0.7238
607.07,28.77,-2.98224,0.24831,0.72329
607.77,28.7929,-2.98296,0.24977,0.72277
608.47,28.81581,-2.98358,0.24818,0.72226
609.17,28.8388,-2.98451,0.24846,0.72174
609.87,28.8618,-2.9844,0.24844,0.72123
610.57,28.88472,-2.98507,0.24555,0.72071
611.27,28.90764,-2.98511,0.24467,0.72019
611.97,28.93058,-2.98553,0.24684,0.71968
612.67,28.9535,-2.98643,0.24403,0.71916
613.37,28.97652,-2.98676,0.24448,0.71865
614.07,28.99956,-2.98775,0.24136,0.71813
614.77,29.02259,-2.98974,0.24253,0.71761
615.47,29.0455,-2.99037,0.24461,0.7171
616.17,29.0685,-2.99135,0.24417,0.71658
616.87,29.0915,-2.99168,0.24166,0.71606
617.57,29.11445,-2.9922,0.24194,0.71555
618.27,29.13748,-2.993,0.23652,0.71503
618.97,29.1603,-2.993,0.24122,0.71451
619.67,29.18311,-2.993,0.23489,0.714
620.37,29.20601,-2.99267,0.23824,0.71348
621.07,29.2293,-2.993,0.2369,0.71296
621.77,29.2527,-2.99301,0.23587,0.71244
622.47,29.2759,-2.99296,0.23559,0.71193
623.17,29.2988,-2.99432,0.23482,0.71141
623.87,29.3217,-2.99565,0.23402,0.71089
624.57,29.34468,-2.99559,0.23348,0.71037
625.27,29.36771,-2.99694,0.23161,0.70986
625.97,29.39074,-2.99695,0.2319,0.70934
626.67,29.4138,-2.99695,0.23253,0.70882
627.37,29.43682,-2.99695,0.23049,0.7083
628.07,29.45988,-2.99695,0.23175,0.70778
628.77,29.4829,-2.99695,0.22951,0.70727
629.47,29.50592,-2.99695,0.2298,0.70675
630.17,29.5289,-2.99695,0.22672,0.70623
630.87,29.55193,-2.99695,0.23058,0.70571
631.57,29.57493,-2.99691,0.22632,0.70519
632.27,29.59795,-2.99828,0.22589,0.70467
632.97,29.621,-2.99826,0.22507,0.70415
633.67,29.64405,-2.99826,0.22811,0.70364
634.37,29.66712,-2.99828,0.22709,0.70312
635.07,29.69022,-2.99871,0.22749,0.7026
635.77,29.71323,-2.99925,0.22472,0.70208
636.47,29.7363,-2.99925,0.2261,0.70156
637.17,29.7593,-3.00025,0.22442,0.70104
637.87,29.78235,-3.00053,0.22392,0.70052
638.57,29.8053,-3.002,0.22341,0.7
639.27,29.82837,-3.00204,0.22076,0.69948
639.97,29.8514,-3.001,0.21868,0.69896
640.67,29.87445,-3.00106,0.22227,0.69844
641.37,29.8975,-3.00234,0.21894,0.69792
642.07,29.92052,-3.0024,0.21741,0.6974
642.77,29.9435,-3.00387,0.22071,0.69688
643.47,29.96642,-3.0052,0.21966,0.69636
644.17,29.9894,-3.00518,0.21846,0.69584
644.87,30.0125,-3.00518,0.21891,0.69532
645.57,30.03552,-3.00652,0.21982,0.6948
646.27,30.05857,-3.0065,0.21667,0.69428
646.97,30.0816,-3.00706,0.21631,0.69376
647.67,30.10459,-3.00781,0.21866,0.69324
648.37,30.1276,-3.00781,0.21882,0.69272
649.07,30.15059,-3.00781,0.21746,0.6922
649.77,30.1736,-3.00824,0.21468,0.69168
650.47,30.19665,-3.00913,0.21571,0.69116
651.17,30.21968,-3.00914,0.2139,0.69064
651.87,30.2427,-3.01046,0.21519,0.69012
652.57,30.26571,-3.01044,0.21797,0.6896
653.27,30.28874,-3.01044,0.21666,0.68907
653.97,30.3118,-3.01101,0.21619,0.68855
654.67,30.3349,-3.01061,0.21476,0.68803
655.37,30.35795,-3.01045,0.21314,0.68751
656.07,30.38095,-3.01045,0.21321,0.68699
656.77,30.404,-3.01088,0.21197,0.68647
657.47,30.42707,-3.01132,0.21116,0.68595
658.17,30.45008,-3.01044,0.21249,0.68542
658.87,30.47304,-3.01044,0.21209,0.6849
659.57,30.49608,-3.01073,0.21259,0.68438
660.27,30.51912,-3.01176,0.20876,0.68386
660.97,30.5423,-3.01176,0.21052,0.68334
661.67,30.5653,-3.01235,0.21092,0.68281
662.37,30.58843,-3.01308,0.21007,0.68229
663.07,30.61147,-3.01308,0.21166,0.68177
663.77,30.63458,-3.01308,0.21061,0.68125
664.47,30.6576,-3.01438,0.2079,0.68072
665.17,30.6807,-3.01571,0.20961,0.6802
665.87,30.7037,-3.01588,0.20867,0.67968
666.57,30.7268,-3.01703,0.21058,0.67916
667.27,30.74989,-3.01703,0.20787,0.67863
667.97,30.7729,-3.01702,0.20817,0.67811
668.67,30.79598,-3.01839,0.21143,0.67759
669.37,30.819,-3.0177,0.20753,0.67707
670.07,30.84207,-3.01763,0.20607,0.67654
670.77,30.8651,-3.01834,0.20663,0.67602
671.47,30.8882,-3.01834,0.20731,0.6755
672.17,30.91129,-3.01834,0.20497,0.67497
672.87,30.93435,-3.01834,0.20689,0.67445
673.57,30.95745,-3.01836,0.20749,0.67393
674.27,30.98054,-3.01698,0.20044,0.6734
674.97,31.0037,-3.01837,0.2046,0.67288
675.67,31.02678,-3.01834,0.20285,0.67236
676.37,31.0498,-3.01834,0.20162,0.67183
677.07,31.0729,-3.01904,0.20196,0.67131
677.77,31.09608,-3.02088,0.19945,0.67078
678.47,31.11921,-3.02097,0.19864,0.67026
679.17,31.1423,-3.02234,0.19697,0.66974
679.87,31.1652,-3.02229,0.19899,0.66921
680.57,31.18825,-3.02222,0.20036,0.66869
681.27,31.21138,-3.02121,0.19909,0.66816
681.97,31.23462,-3.02228,0.19764,0.66764
682.67,31.2579,-3.02315,0.19545,0.66712
683.37,31.28102,-3.02371,0.19614,0.66659
684.07,31.3041,-3.02454,0.19615,0.66607
684.77,31.3272,-3.02503,0.1962,0.66554
685.47,31.3505,-3.02503,0.19518,0.66502
686.17,31.37361,-3.02503,0.19431,0.66449
686.87,31.39681,-3.02503,0.19383,0.66397
687.57,31.41988,-3.02504,0.19147,0.66344
688.27,31.44306,-3.02636,0.19192,0.66292
688.97,31.46626,-3.02634,0.19331,0.66239
689.67,31.4895,-3.02634,0.18847,0.66187
690.37,31.5126,-3.02634,0.19188,0.66134
691.07,31.5357,-3.02739,0.18682,0.66082
691.77,31.55896,-3.02766,0.1882,0.66029
692.47,31.5822,-3.02665,0.18641,0.65977
693.17,31.6054,-3.02635,0.18813,0.65924
693.87,31.62861,-3.02635,0.18255,0.65872
694.57,31.6518,-3.02662,0.18254,0.65819
695.27,31.67495,-3.02784,0.18323,0.65767
695.97,31.6981,-3.02898,0.18326,0.65714
696.67,31.7213,-3.02898,0.18058,0.65662
697.37,31.7445,-3.02898,0.1786,0.65609
698.07,31.7677,-3.02898,0.17755,0.65557
698.77,31.7909,-3.02878,0.17569,0.65504
699.47,31.81403,-3.02767,0.17533,0.65451
700.17,31.83727,-3.02893,0.17361,0.65399
700.87,31.8604,-3.02898,0.17636,0.65346
701.57,31.8836,-3.02979,0.17603,0.65294
702.27,31.9068,-3.02998,0.17309,0.65241
702.97,31.93013,-3.03162,0.1713,0.65188
703.67,31.9534,-3.03161,0.16994,0.65136
704.37,31.97646,-3.03161,0.17199,0.65083
705.07,31.9997,-3.03162,0.16748,0.65031
705.77,32.0229,-3.03294,0.16678,0.64978
706.47,32.0463,-3.03292,0.16548,0.64925
707.17,32.06949,-3.03182,0.16578,0.64873
707.87,32.09285,-3.03294,0.16425,0.6482
708.57,32.11619,-3.03288,0.16073,0.64767
709.27,32.1395,-3.03424,0.16293,0.64715
709.97,32.1627,-3.03424,0.16005,0.64662
710.67,32.186,-3.03424,0.16016,0.64609
711.37,32.20925,-3.03313,0.15709,0.64557
712.07,32.23247,-3.03161,0.1572,0.64504
712.77,32.25568,-3.03073,0.15777,0.64451
713.47,32.2789,-3.02955,0.15608,0.64399
714.17,32.30229,-3.03039,0.15567,0.64346
714.87,32.32564,-3.03051,0.15547,0.64293
715.57,32.34903,-3.03052,0.15295,0.64241
716.27,32.37232,-3.03148,0.15162,0.64188
716.97,32.39565,-3.03314,0.15448,0.64135
717.67,32.41885,-3.03315,0.15808,0.64082
718.37,32.44207,-3.03376,0.15114,0.6403
719.07,32.46533,-3.03447,0.15219,0.63977
719.77,32.4887,-3.03447,0.14832,0.63924
720.47,32.512,-3.03447,0.14963,0.63872
721.17,32.5353,-3.03609,0.15083,0.63819
721.87,32.55865,-3.03782,0.14853,0.63766
722.57,32.582,-3.03892,0.15045,0.63713
723.27,32.60528,-3.03886,0.15157,0.63661
723.97,32.62859,-3.0389,0.14684,0.63608
724.67,32.65187,-3.03753,0.14789,0.63555
725.37,32.67522,-3.03753,0.14573,0.63502
726.07,32.69842,-3.03656,0.14017,0.63449
726.77,32.7218,-3.03655,0.14293,0.63397
727.47,32.74508,-3.03746,0.14215,0.63344
728.17,32.76854,-3.03786,0.14092,0.63291
728.87,32.79186,-3.03786,0.14001,0.63238
729.57,32.81525,-3.03787,0.13982,0.63186
730.27,32.8386,-3.03822,0.13963,0.63133
730.97,32.86173,-3.03787,0.13544,0.6308
731.67,32.88478,-3.03787,0.13462,0.63027
732.37,32.90795,-3.03802,0.1332,0.62974
733.07,32.93137,-3.03918,0.13273,0.62921
733.77,32.95495,-3.03917,0.13401,0.62869
734.47,32.97837,-3.04047,0.13086,0.62816
735.17,33.00169,-3.04049,0.13047,0.62763
735.87,33.02502,-3.04049,0.13432,0.6271
736.57,33.0484,-3.04107,0.13099,0.62657
737.27,33.07173,-3.04181,0.13396,0.62605
737.97,33.09511,-3.04181,0.13042,0.62552
738.67,33.11849,-3.04181,0.13565,0.62499
739.37,33.14183,-3.04181,0.13226,0.62446
740.07,33.16514,-3.04274,0.12895,0.62393
740.77,33.18841,-3.04313,0.13114,0.6234
741.47,33.21176,-3.0431,0.13126,0.62287
742.17,33.23506,-3.04443,0.12938,0.62235
742.87,33.2584,-3.04444,0.12714,0.62182
743.57,33.2817,-3.04387,0.12903,0.62129
744.27,33.305,-3.04313,0.12797,0.62076
744.97,33.32842,-3.04313,0.12455,0.62023
745.67,33.35175,-3.04313,0.12212,0.6197
746.37,33.37509,-3.04429,0.12483,0.61917
747.07,33.39839,-3.04347,0.12392,0.61864
747.77,33.42174,-3.04346,0.12447,0.61811
748.47,33.44513,-3.04346,0.12469,0.61759
749.17,33.4685,-3.04347,0.12474,0.61706
749.87,33.49187,-3.04475,0.11889,0.61653
750.57,33.5152,-3.04484,0.11951,0.616
751.27,33.53863,-3.04673,0.11985,0.61547
751.97,33.562,-3.04837,0.1183,0.61494
752.67,33.5854,-3.04689,0.11905,0.61441
753.37,33.6087,-3.04626,0.11933,0.61388
754.07,33.63211,-3.04604,0.11843,0.61335
754.77,33.6555,-3.04676,0.11781,0.61282
755.47,33.67889,-3.04612,0.11672,0.61229
756.17,33.70219,-3.04543,0.11598,0.61176
756.87,33.72546,-3.04543,0.11697,0.61123
757.57,33.74872,-3.04539,0.11817,0.61071
758.27,33.77207,-3.04771,0.11303,0.61018
758.97,33.79547,-3.04807,0.11381,0.60965
759.67,33.8189,-3.04806,0.11139,0.60912
760.37,33.8423,-3.04977,0.11622,0.60859
761.07,33.86567,-3.05147,0.11351,0.60806
761.77,33.88902,-3.05173,0.11301,0.60753
762.47,33.91235,-3.0495,0.10976,0.607
763.17,33.93572,-3.04813,0.11069,0.60647
763.87,33.95909,-3.04675,0.11124,0.60594
764.57,33.9825,-3.04744,0.11191,0.60541
765.27,34.00589,-3.04773,0.11428,0.60488
765.97,34.02928,-3.04919,0.11084,0.60435
766.67,34.05265,-3.04984,0.11228,0.60382
767.37,34.07578,-3.05071,0.11029,0.60329
768.07,34.0991,-3.05168,0.11216,0.60276
768.77,34.1225,-3.05201,0.10938,0.60223
769.47,34.14611,-3.05201,0.10796,0.6017
770.17,34.16959,-3.05201,0.10929,0.60117
770.87,34.19299,-3.05129,0.10719,0.60064
771.57,34.2164,-3.0507,0.10618,0.60011
772.27,34.23973,-3.0507,0.10931,0.59958
772.97,34.26318,-3.05068,0.11013,0.59905
773.67,34.28658,-3.05202,0.10612,0.59852
774.37,34.30979,-3.05201,0.10863,0.59799
775.07,34.333,-3.05201,0.10774,0.59746
775.77,34.35637,-3.05199,0.11235,0.59693
776.47,34.38,-3.05334,0.10643,0.5964
777.17,34.40354,-3.05333,0.1086,0.59587
777.87,34.427,-3.05333,0.10803,0.59534
778.57,34.4504,-3.05334,0.10641,0.59481
779.27,34.47387,-3.05469,0.10869,0.59428
779.97,34.49725,-3.05465,0.10766,0.59375
780.67,34.52066,-3.0546,0.10905,0.59322
781.37,34.5441,-3.05455,0.11359,0.59269
782.07,34.56749,-3.05454,0.10682,0.59216
782.77,34.5909,-3.0558,0.10818,0.59163
783.47,34.6143,-3.05454,0.10841,0.5911
784.17,34.63776,-3.05583,0.1078,0.59057
784.87,34.66115,-3.05586,0.10704,0.59004
785.57,34.6845,-3.05635,0.10809,0.58951
786.27,34.7079,-3.05718,0.10853,0.58898
786.97,34.73131,-3.05804,0.11044,0.58845
787.67,34.75478,-3.05864,0.10303,0.58792
788.37,34.77827,-3.0598,0.11274,0.58739
789.07,34.80175,-3.0598,0.10861,0.58686
789.77,34.8252,-3.0598,0.11114,0.58633
790.47,34.84855,-3.0598,0.11293,0.5858
791.17,34.87195,-3.05979,0.11226,0.58527
791.87,34.89545,-3.06114,0.11013,0.58474
792.57,34.91904,-3.06112,0.11249,0.58421
793.27,34.94253,-3.06112,0.11372,0.58368
793.97,34.96597,-3.06112,0.113,0.58315
794.67,34.98936,-3.06112,0.11149,0.58262
794.87,34.99607,-3.06112,0.11017,0.58247