File: 01_Data/Rug_Pad/Cone/Rug_Pad_Cone_HF25Scan_220920_R1.csv
Names,Time,Stack TC,Smoke TC,Exh Press,Smoke Comp,Smoke Meas,CO Meter,CO2 Meter,O2 Meter,Sample Mass,Ext Coeff,Start Test,Flame Verif
Chan Gain,,500,500,1,1,1,1,1,1,1,1,1.0,1.0
Offset,,0,0,0.143022,0,0,0,0,0,0,0,0.0,0.0
Gain,,1,1,25.011,14.5176,16.5692,1,1,1,1.00088,1.03055,1.0,1.0
Units,sec,C,C,Pa,%,%,%,%,%,g,/m,,
Baseline,,37.243,38.0296,161.218,110.188,114.283,-0.000893014,0.0448981,20.9483,-447.153,-0.329895,,
2,0.25,35.6912,36.3676,161.654,110.261,114.778,-0.000842892,0.0484491,20.9466,600.94,-0.362975,0.0,0.0
4,0.75,35.4643,36.513,162.135,110.248,114.747,-0.00085069,0.0487282,20.9466,600.89,-0.361522,0.0,0.0
6,1.25,36.2008,36.5442,159.376,110.223,114.725,-0.000849817,0.0489401,20.9465,600.83,-0.361916,0.0,0.0
8,1.75,35.8914,36.6679,159.964,110.24,114.524,-0.000842638,0.0491118,20.9465,600.84,-0.344668,0.0,0.0
10,2.25,35.7566,36.5165,160.667,110.235,114.063,-0.000836824,0.0492508,20.9465,600.9,-0.30859,0.0,0.0
12,2.75,35.7407,36.8226,162.244,110.248,114.625,-0.00081597,0.0492518,20.9469,600.83,-0.351953,0.0,0.0
14,3.25,35.7966,36.5534,160.884,110.252,114.278,-0.000794502,0.0492525,20.9472,600.89,-0.324228,0.0,0.0
16,3.75,35.7172,36.9252,159.959,110.279,114.43,-0.000772995,0.0491789,20.9475,600.88,-0.333968,0.0,0.0
18,4.25,36.0034,36.7495,159.813,110.271,114.2,-0.000753614,0.0490525,20.9477,600.83,-0.316428,0.0,0.0
20,4.75,35.5527,36.7366,163.889,110.292,114.627,-0.00073615,0.0489502,20.9479,600.88,-0.348481,0.0,0.0
22,5.25,35.7101,36.6979,159.14,110.303,114.858,-0.000720044,0.0487827,20.948,600.85,-0.365851,0.0,0.0
24,5.75,35.9001,36.5171,159.928,110.311,114.378,-0.000705233,0.0486471,20.9482,600.86,-0.327238,0.0,0.0
26,6.25,35.4494,37.1193,161.908,110.317,114.571,-0.000693236,0.0484527,20.9483,600.88,-0.342096,0.0,0.0
28,6.75,35.978,36.7317,163.073,110.317,114.839,-0.000684826,0.0482952,20.9483,600.87,-0.36318,0.0,0.0
30,7.25,36.0318,36.4253,157.215,110.337,114.296,-0.00067919,0.0481536,20.9484,600.88,-0.318656,0.0,0.0
32,7.75,36.0893,36.9279,159.152,110.344,115.235,-0.000674626,0.0480388,20.9485,600.85,-0.392116,0.0,0.0
34,8.25,35.8568,36.7655,162.119,110.349,114.233,-0.000680863,0.0478755,20.9485,600.83,-0.312712,0.0,0.0
36,8.75,35.5594,36.7099,162.752,110.37,114.657,-0.000685916,0.0477431,20.9485,600.81,-0.344484,0.0,0.0
38,9.25,36.06,37.0171,161.28,110.398,114.174,-0.000690008,0.0475766,20.9486,600.81,-0.304041,0.0,0.0
40,9.75,36.2334,36.8016,159.821,110.389,115.079,-0.000708356,0.0473884,20.9486,600.83,-0.376073,0.0,0.0
42,10.25,35.5776,36.5488,160.629,110.393,114.936,-0.000736749,0.0472359,20.9484,600.8,-0.364538,0.0,0.0
44,10.75,36.1623,36.7002,160.97,110.425,114.362,-0.000773472,0.047042,20.9482,600.779,-0.31667,0.0,0.0
46,11.25,36.078,36.4639,158.674,110.431,113.489,-0.000815572,0.0468849,20.948,600.8,-0.246985,0.0,0.0
48,11.75,35.7698,36.5509,162.769,110.44,114.508,-0.000849673,0.0467577,20.9479,600.82,-0.326981,0.0,0.0
50,12.25,36.0859,37.248,161.822,110.437,114.47,-0.000899649,0.0465702,20.9478,600.81,-0.324204,0.0,0.0
52,12.75,35.8383,36.823,161.086,110.445,114.459,-0.00094013,0.0464183,20.9478,600.81,-0.322709,0.0,0.0
54,13.25,35.489,36.4025,158.673,110.454,114.27,-0.000975403,0.046273,20.9477,600.82,-0.307038,0.0,0.0
56,13.75,35.897,37.0654,162.596,110.473,114.381,-0.00100397,0.0461353,20.9477,600.82,-0.314236,0.0,0.0
58,14.25,35.7648,36.8118,159.111,110.47,114.198,-0.00101616,0.0459868,20.9476,600.82,-0.300012,0.0,0.0
60,14.75,36.0953,36.5162,159.313,110.494,113.882,-0.0010196,0.0458331,20.9476,600.82,-0.273006,0.0,0.0
62,15.25,36.1239,36.7741,158.177,110.51,113.882,-0.00102238,0.0457086,20.9476,600.81,-0.271701,0.0,0.0
64,15.75,35.8599,36.5879,163.672,110.52,114.15,-0.00101222,0.0455937,20.9476,600.8,-0.292112,0.0,0.0
66,16.25,35.6248,36.6416,161.425,110.527,114.106,-0.00100399,0.0455006,20.9475,600.769,-0.288084,0.0,0.0
68,16.75,36.3109,36.7075,158.852,110.544,113.96,-0.000997327,0.045403,20.9475,600.779,-0.27505,0.0,0.0
70,17.25,35.8801,36.9331,162.422,110.558,113.797,-0.000991927,0.0453509,20.9475,600.8,-0.261043,0.0,0.0
72,17.75,36.0873,36.8151,157.624,110.57,114.219,-0.000990038,0.0452617,20.9475,600.8,-0.293579,0.0,0.0
74,18.25,35.8755,36.728,161.284,110.583,113.723,-0.000988507,0.0451613,20.9475,600.779,-0.253143,0.0,0.0
76,18.75,35.8745,36.5554,157.575,110.598,114.021,-0.00098975,0.04508,20.9475,600.779,-0.275483,0.0,0.0
78,19.25,36.1316,36.7485,160.977,110.614,114.028,-0.000990757,0.0450283,20.9475,600.749,-0.274813,0.0,0.0
80,19.75,35.8626,36.8153,158.209,110.627,113.821,-0.000994057,0.0449863,20.9475,600.779,-0.257321,0.0,0.0
82,20.25,35.9301,36.8677,162.939,110.633,114.312,-0.00099673,0.0449383,20.9475,600.749,-0.295757,0.0,0.0
84,20.75,36.0753,36.6938,159.511,110.642,114.982,-0.000998895,0.0448994,20.9475,600.74,-0.347865,0.0,0.0
86,21.25,35.6271,36.8064,163.668,110.659,113.544,-0.000989513,0.0448397,20.9475,600.769,-0.23264,0.0,0.0
88,21.75,36.3027,36.9225,161.237,110.67,113.212,-0.000981913,0.0447913,20.9475,600.779,-0.205287,0.0,0.0
90,22.25,36.1482,36.6709,156.114,110.691,113.774,-0.000963339,0.0447944,20.9475,600.779,-0.248337,0.0,0.0
92,22.75,35.928,36.703,159.759,110.703,113.812,-0.000937117,0.0447969,20.9473,600.779,-0.250373,0.0,0.0
94,23.25,36.0478,36.7072,160.154,110.73,114.095,-0.000908688,0.0447989,20.9472,600.779,-0.270586,0.0,0.0
96,23.75,35.8911,36.6403,163.657,110.727,113.934,-0.000879189,0.0448277,20.9471,600.769,-0.25813,0.0,0.0
98,24.25,35.5642,36.7192,159.623,110.744,113.899,-0.000855948,0.0448509,20.947,600.759,-0.25391,0.0,0.0
100,24.75,35.8517,36.3988,162.924,110.758,114.035,-0.000837712,0.0448476,20.9469,600.779,-0.263619,0.0,0.0
102,25.25,35.8467,36.5442,160.221,110.76,113.044,-0.000825554,0.0448248,20.9468,600.79,-0.184524,0.0,0.0
104,25.75,35.8614,36.84,163.631,110.777,113.936,-0.00081806,0.0448064,20.9468,600.79,-0.25424,0.0,0.0
106,26.25,36.1694,36.7012,157.652,110.784,114.121,-0.000817873,0.0447915,20.9468,600.779,-0.268333,0.0,0.0
108,26.75,36.1328,37.0398,162.949,110.797,114.463,-0.000823015,0.0447794,20.9467,600.79,-0.294249,0.0,0.0
110,27.25,36.5635,37.0177,157.988,110.817,113.654,-0.000827181,0.0447697,20.9467,600.8,-0.228536,0.0,0.0
112,27.75,35.9363,37.0287,160.261,110.829,113.295,-0.000848202,0.044784,20.9467,600.79,-0.198883,0.0,0.0
114,28.25,35.9207,37.0329,159.121,110.841,113.01,-0.000881112,0.0448155,20.9467,600.779,-0.175164,0.0,0.0
116,28.75,35.8756,37.2095,158.656,110.86,113.48,-0.000911691,0.0448559,20.9466,600.769,-0.211185,0.0,0.0
118,29.25,36.0434,36.9094,161.847,110.863,113.99,-0.00093999,0.044902,20.9462,600.779,-0.251448,0.0,0.0
120,29.75,36.2421,37.1369,163.412,110.882,113.229,-0.000957029,0.0449393,20.9458,600.759,-0.189374,0.0,0.0
122,30.25,36.2031,37.107,160.735,110.891,113.247,-0.000965537,0.0449473,20.946,600.749,-0.190028,0.0,0.0
124,30.75,36.4711,36.7856,161.259,110.901,113.779,-0.000972428,0.0449338,20.9461,600.749,-0.2316,0.0,0.0
126,31.25,36.4105,36.9498,160.155,110.913,113.639,-0.000949405,0.0449228,20.9462,600.749,-0.219494,0.0,0.0
128,31.75,36.0918,37.0627,160.715,110.916,113.624,-0.000930756,0.0448858,20.946,600.74,-0.218067,0.0,0.0
130,32.25,36.4053,37.057,169.228,110.938,113.455,-0.00091565,0.0448632,20.9457,600.729,-0.202779,0.0,0.0
132,32.75,36.0501,36.6989,160.145,110.946,112.686,-0.00087008,0.0448516,20.9454,600.729,-0.14064,0.0,0.0
134,33.25,35.9569,37.0432,161.656,110.964,113.534,-0.000803166,0.0448422,20.9459,600.709,-0.206969,0.0,0.0
136,33.75,35.6948,36.7844,162.528,110.957,113.47,-0.00072805,0.0449049,20.9463,600.719,-0.202472,0.0,0.0
138,34.25,36.2787,36.935,161.161,110.974,113.157,-0.000648381,0.0449557,20.9467,600.729,-0.176053,0.0,0.0
140,34.75,35.9221,36.6211,160.586,110.993,113.796,-0.000583849,0.0449969,20.947,600.74,-0.225494,0.0,0.0
142,35.25,36.1794,37.1228,163.727,110.988,113.739,-0.000475693,0.0453974,20.9467,600.74,-0.221351,0.0,0.0
144,35.75,36.3167,36.7467,159.909,110.988,114.124,-0.000388087,0.0457218,20.9461,600.719,-0.251923,0.0,1.0
146,36.25,36.2983,36.9653,159.795,111.005,114.356,-0.000272393,0.0464595,20.9444,600.719,-0.268918,0.0,1.0
148,36.75,35.9824,36.7832,158.415,111.019,113.61,-0.000178682,0.0474844,20.942,600.689,-0.208531,0.0,1.0
150,37.25,36.1699,36.9934,161.909,111.045,113.725,-0.000138731,0.0483146,20.941,600.679,-0.215608,0.0,1.0
152,37.75,36.264,37.2711,158.757,111.038,113.48,-3.06074e-05,0.0508105,20.9353,600.719,-0.19671,0.0,1.0
154,38.25,36.1812,36.9166,158.265,111.049,113.44,7.72915e-05,0.0528322,20.9307,600.779,-0.192549,0.0,1.0
156,38.75,36.5292,37.199,157.421,111.028,113.04,0.000182976,0.05631,20.9229,600.729,-0.16235,0.0,1.0
158,39.25,36.3754,37.1683,157.981,111.071,113.232,0.000298114,0.0607833,20.9131,600.709,-0.174211,0.0,1.0
160,39.75,35.4179,36.3643,153.964,111.054,110.752,0.000417954,0.0661631,20.9012,600.769,0.0246347,0.0,1.0
162,40.25,35.1497,35.8954,153.773,111.064,111.02,0.000515025,0.0692886,20.8881,600.629,0.00361476,0.0,1.0
164,40.75,35.3697,36.0302,155.254,111.082,109.301,0.000672353,0.0746331,20.8741,600.619,0.146093,0.0,1.0
166,41.25,35.8941,36.0915,160.932,111.084,107.946,0.000799788,0.0826456,20.8599,600.579,0.259097,0.0,1.0
168,41.75,35.5524,36.1946,154.117,111.075,105.43,0.000903011,0.0891357,20.8484,600.579,0.471502,0.0,1.0
170,42.25,35.6993,35.9073,151.846,111.097,105.606,0.00116708,0.0986396,20.8351,600.549,0.458273,0.0,1.0
172,42.75,36.3034,36.0575,154.856,111.085,103.414,0.00138098,0.106338,20.8207,600.519,0.64683,0.0,1.0
174,43.25,36.473,36.347,153.903,111.105,102.076,0.00163708,0.11644,20.8091,600.479,0.766254,0.0,1.0
176,43.75,36.6529,36.4678,152.682,111.105,102.275,0.00191909,0.124623,20.7938,600.469,0.748627,0.0,0.0
178,44.25,36.7674,36.7568,151.09,111.111,101.996,0.00221204,0.133633,20.7814,600.459,0.773835,0.0,0.0
180,44.75,36.8118,37.1788,154.462,111.106,101.81,0.0025074,0.143075,20.7657,600.429,0.789911,0.0,0.0
182,45.25,37.2859,36.9356,148.403,111.121,100.657,0.00280202,0.150723,20.7529,600.399,0.894051,0.0,0.0
184,45.75,37.5945,37.4611,146.018,111.121,101.596,0.00309051,0.158708,20.7395,600.389,0.810147,0.0,0.0
186,46.25,37.4584,37.6024,149.822,111.142,103.298,0.00332418,0.166788,20.7259,600.339,0.661572,0.0,0.0
188,46.75,37.9451,37.0657,145.668,111.128,100.685,0.00361261,0.173333,20.7128,600.319,0.892085,0.0,0.0
190,47.25,38.1684,37.885,152.829,111.138,99.5712,0.00384623,0.181245,20.7004,600.309,0.993486,0.0,0.0
192,47.75,38.6127,38.2218,151.311,111.127,96.6203,0.00411446,0.187654,20.6886,600.279,1.26451,0.0,0.0
194,48.25,39.1606,38.1276,150.653,111.144,98.0624,0.00433173,0.194998,20.6777,600.209,1.13203,0.0,0.0
196,48.75,38.494,38.8545,146.778,111.138,98.0068,0.00455341,0.200948,20.6688,600.229,1.13662,0.0,0.0
198,49.25,39.6043,38.6672,155.218,111.15,98.1215,0.0047741,0.20778,20.6585,600.179,1.12701,0.0,0.0
200,49.75,39.317,38.6917,147.841,111.144,95.3248,0.0049872,0.213314,20.6501,600.109,1.38795,0.0,0.0
202,50.25,40.0288,38.5574,151.436,111.156,96.4676,0.00519072,0.219465,20.6412,600.119,1.28123,0.0,0.0
204,50.75,39.8851,39.5583,151.315,111.158,94.7721,0.00535557,0.224446,20.6339,600.079,1.4417,0.0,0.0
206,51.25,40.4166,39.5922,146.574,111.164,95.3415,0.00556985,0.229405,20.6269,600.069,1.38798,0.0,0.0
208,51.75,40.446,39.7048,150.76,111.151,95.7945,0.00574342,0.234254,20.6201,600.039,1.34408,0.0,0.0
210,52.25,40.6279,39.6992,149.444,111.161,95.1771,0.0059675,0.238181,20.613,600.009,1.40336,0.0,0.0
212,52.75,41.2253,40.3213,148.954,111.161,95.8936,0.00614901,0.24327,20.6058,599.949,1.33553,0.0,0.0
214,53.25,41.0209,40.4948,149.128,111.17,96.1955,0.0063578,0.247392,20.6,599.939,1.30787,0.0,0.0
216,53.75,41.7404,40.7158,149.115,111.162,100.157,0.00652692,0.252445,20.5921,599.909,0.942391,0.0,0.0
218,54.25,41.7322,40.5353,148.052,111.168,97.8723,0.00669036,0.256537,20.5858,599.879,1.15148,0.0,0.0
220,54.75,42.1543,41.1997,144.216,111.158,95.9786,0.00684656,0.261528,20.5807,599.829,1.32734,0.0,0.0
222,55.25,42.1243,41.3978,148.525,111.159,95.7581,0.00697307,0.265571,20.5743,599.799,1.3482,0.0,0.0
224,55.75,42.9506,41.9303,145.197,111.163,94.4692,0.00707555,0.269529,20.5691,599.769,1.471,0.0,0.0
226,56.25,42.9847,41.6653,146,111.167,95.527,0.00715856,0.273351,20.565,599.739,1.37069,0.0,0.0
228,56.75,43.022,41.9775,141.738,111.164,96.9732,0.00729679,0.276446,20.5623,599.719,1.23462,0.0,0.0
230,57.25,43.3953,42.2213,149.64,111.182,95.972,0.00742576,0.280372,20.5602,599.699,1.32987,0.0,0.0
232,57.75,43.5967,42.657,141.45,111.165,93.0494,0.00754553,0.283552,20.5567,599.638,1.60804,0.0,0.0
234,58.25,44.1486,43.238,153.138,111.169,93.0964,0.00764255,0.286128,20.5539,599.609,1.6038,0.0,0.0
236,58.75,43.813,43.4315,147.089,111.166,94.6052,0.00773794,0.289152,20.5509,599.609,1.45821,0.0,0.0
238,59.25,44.2183,43.2686,146.824,111.182,97.2397,0.00781521,0.292446,20.5478,599.568,1.21125,0.0,0.0
240,59.75,44.7629,43.7142,145.513,111.163,93.5889,0.0078778,0.295115,20.5453,599.528,1.55567,0.0,0.0
242,60.25,44.6245,43.6661,148.391,111.169,94.049,0.00792849,0.298025,20.5433,599.498,1.51176,0.0,0.0
244,60.75,45.1327,43.9125,146.57,111.16,94.2361,0.00797024,0.300382,20.5417,599.458,1.49308,0.0,0.0
246,61.25,44.9576,44.3988,149.555,111.165,95.12,0.00800466,0.302667,20.5404,599.418,1.40908,0.0,0.0
248,61.75,45.2482,44.334,142.182,111.169,94.1931,0.00802996,0.304517,20.5393,599.388,1.49792,0.0,0.0
250,62.25,46.2223,45.1298,150.214,111.16,95.6256,0.00805045,0.306034,20.5389,599.328,1.36076,0.0,0.0
252,62.75,45.8055,44.577,147.067,111.174,93.0939,0.00806705,0.307277,20.5386,599.338,1.60451,0.0,0.0
254,63.25,46.0585,45.0396,147.277,111.158,98.7137,0.0080574,0.308095,20.5383,599.308,1.0733,0.0,0.0
256,63.75,46.395,45.4472,150.037,111.181,96.0974,0.0080288,0.308588,20.5398,599.298,1.31796,0.0,0.0
258,64.25,46.5803,45.5093,147.531,111.156,94.8171,0.00796963,0.308687,20.5411,599.238,1.43723,0.0,0.0
260,64.75,46.716,45.4705,150.982,111.149,97.9835,0.00788928,0.308498,20.5436,599.228,1.1397,0.0,0.0
262,65.25,46.7507,46.4605,144.082,111.149,94.7175,0.00782421,0.308344,20.5456,599.208,1.44615,0.0,0.0
264,65.75,47.2289,46.0517,146.099,111.149,94.7256,0.00769804,0.307085,20.5504,599.148,1.44534,0.0,0.0
266,66.25,47.2857,46.4785,151.738,111.142,96.4812,0.00756335,0.306066,20.5542,599.118,1.27876,0.0,0.0
268,66.75,47.0549,46.5182,147.909,111.146,95.8871,0.00742501,0.304686,20.5591,599.058,1.335,0.0,0.0
270,67.25,47.4985,46.5502,146.328,111.136,98.158,0.0072805,0.303071,20.563,599.058,1.12257,0.0,0.0
272,67.75,47.2797,46.6484,151.985,111.162,97.268,0.00713425,0.301762,20.5684,599.018,1.20696,0.0,0.0
274,68.25,47.4901,46.662,149.634,111.137,96.3098,0.00699081,0.299752,20.5728,598.988,1.29447,0.0,0.0
276,68.75,47.5826,46.8133,148.782,111.137,94.7974,0.00685214,0.298123,20.5786,599.008,1.43752,0.0,0.0
278,69.25,47.814,47.117,149.295,111.132,96.4792,0.00673983,0.295791,20.5833,598.958,1.27819,0.0,0.0
280,69.75,47.9697,47.5116,152.497,111.119,98.0841,0.0066266,0.293903,20.587,598.918,1.128,0.0,0.0
282,70.25,48.1091,47.0125,150.784,111.123,97.3393,0.00651486,0.2913,20.5923,598.948,1.1972,0.0,0.0
284,70.75,47.7781,47.634,150.438,111.13,98.92,0.00640818,0.288597,20.5966,598.908,1.05212,0.0,0.0
286,71.25,48.0842,47.5691,151.73,111.116,98.5847,0.00630723,0.28587,20.6022,598.888,1.08173,0.0,0.0
288,71.75,47.9763,47.38,152.416,111.131,98.1473,0.00622545,0.283662,20.6068,598.848,1.12315,0.0,0.0
290,72.25,47.8616,47.1856,151.603,111.12,100.451,0.00611063,0.280381,20.6115,598.828,0.912481,0.0,0.0
292,72.75,48.2472,47.7878,151.196,111.118,100.12,0.00601762,0.277723,20.6161,598.748,0.942146,0.0,0.0
294,73.25,48.3369,48.0082,151.748,111.108,101.445,0.00586181,0.27557,20.6217,598.748,0.822484,0.0,0.0
296,73.75,48.2487,48.1842,149.814,111.115,100.173,0.0057356,0.272121,20.6279,598.728,0.937183,0.0,0.0
298,74.25,48.058,48.3838,150.029,111.107,101.764,0.00555059,0.269327,20.6329,598.708,0.793988,0.0,0.0
300,74.75,48.3934,48.4324,151.512,111.107,100.756,0.00540073,0.265588,20.6395,598.678,0.884038,0.0,0.0
302,75.25,48.0766,48.4534,152.082,111.102,102.495,0.0052225,0.262559,20.6448,598.628,0.728909,0.0,0.0
304,75.75,48.3661,48.5793,156.142,111.1,103.417,0.00502698,0.2593,20.6513,598.658,0.647871,0.0,0.0
306,76.25,48.3927,48.5308,147.826,111.097,103.829,0.00486862,0.255935,20.6566,598.668,0.611623,0.0,0.0
308,76.75,48.6972,48.6597,154.465,111.088,104.627,0.00467967,0.252569,20.662,598.658,0.541704,0.0,0.0
310,77.25,48.5897,48.5642,153.153,111.078,105.125,0.00447201,0.249267,20.6675,598.648,0.49798,0.0,0.0
312,77.75,48.4788,48.9064,151.551,111.08,105.135,0.00426192,0.245794,20.6719,598.648,0.497254,0.0,0.0
314,78.25,48.3885,48.5686,152.181,111.068,107.42,0.00405404,0.242262,20.6755,598.608,0.301866,0.0,0.0
316,78.75,48.4576,48.8537,151.675,111.076,107.693,0.00388565,0.239401,20.681,598.608,0.279572,0.0,0.0
318,79.25,48.5938,48.7949,152.216,111.076,107.384,0.00367169,0.235543,20.6855,598.598,0.305623,0.0,0.0
320,79.75,48.5237,48.8178,152.536,111.065,107.416,0.00342857,0.232418,20.6912,598.578,0.301955,0.0,0.0
322,80.25,48.5023,48.9374,154.358,111.06,107.661,0.00319198,0.229055,20.6959,598.558,0.280992,0.0,0.0
324,80.75,48.4593,48.6769,148.25,111.054,108.99,0.00296464,0.225584,20.7019,598.538,0.169585,0.0,0.0
326,81.25,48.6325,49.1905,153.649,111.062,109.965,0.00275015,0.222772,20.7067,598.508,0.0897687,0.0,0.0
328,81.75,48.5847,48.9148,157.357,111.051,110.776,0.00254909,0.219379,20.7133,598.508,0.0223947,0.0,0.0
330,82.25,48.3467,49.1375,154.993,111.034,111.276,0.00236514,0.215628,20.7186,598.528,-0.019683,0.0,0.0
332,82.75,48.6623,48.8784,155.777,111.036,112.357,0.00219717,0.212589,20.7264,598.497,-0.106909,0.0,0.0
334,83.25,48.4566,49.0403,158.823,111.021,112.394,0.00206111,0.208643,20.7328,598.457,-0.111142,0.0,0.0
336,83.75,48.1133,48.8352,158.236,111.038,113.453,0.0019226,0.205447,20.7379,598.457,-0.194575,0.0,0.0
338,84.25,48.1088,49.0557,156.207,111.019,114.21,0.00178494,0.20159,20.7443,598.427,-0.256204,0.0,0.0
340,84.75,48.2386,48.9469,159.413,111.021,114.587,0.00172625,0.198466,20.747,598.457,-0.285791,0.0,0.0
342,85.25,48.1771,49.166,156.059,111.03,114.086,0.00159841,0.194778,20.7517,598.397,-0.245527,0.0,0.0
344,85.75,48.0631,49.0371,158.711,111.013,115.366,0.00149486,0.191791,20.7572,598.387,-0.347705,0.0,0.0
346,86.25,48.0061,48.8692,155.251,111.018,115.695,0.00140573,0.187904,20.7617,598.397,-0.373102,0.0,0.0
348,86.75,47.9649,48.9255,154.057,111.014,115.526,0.00132881,0.184756,20.7667,598.407,-0.360105,0.0,0.0
350,87.25,47.6726,48.8105,157.291,111.003,115.802,0.0012665,0.182206,20.7707,598.387,-0.382661,0.0,0.0
352,87.75,47.9769,48.9795,158.214,111.006,115.738,0.00121602,0.180256,20.777,598.397,-0.377358,0.0,0.0
354,88.25,47.5035,48.8622,154.938,110.998,116.354,0.00118139,0.176921,20.7831,598.357,-0.425984,0.0,0.0
356,88.75,47.8203,48.9805,155.169,110.99,116.136,0.00115333,0.173509,20.7889,598.357,-0.409686,0.0,0.0
358,89.25,47.7452,48.8575,159.179,110.975,115.991,0.00114059,0.170106,20.7945,598.337,-0.399685,0.0,0.0
360,89.75,47.4526,48.8653,156.589,110.979,116.218,0.00113027,0.166743,20.7998,598.327,-0.417037,0.0,0.0
362,90.25,47.7531,48.5893,153.664,110.974,116.412,0.00112192,0.163472,20.8042,598.327,-0.432486,0.0,0.0
364,90.75,47.4265,48.9653,155.773,110.978,115.664,0.00113263,0.160241,20.8086,598.327,-0.373824,0.0,0.0
366,91.25,47.3714,48.6537,154.109,110.953,115.82,0.00114132,0.157101,20.8131,598.307,-0.388084,0.0,0.0
368,91.75,47.2876,48.8461,154.932,110.945,115.752,0.0011546,0.153985,20.8174,598.307,-0.383408,0.0,0.0
370,92.25,47.2919,48.7393,156.052,110.948,115.557,0.00116535,0.150946,20.8215,598.327,-0.367975,0.0,0.0
372,92.75,47.108,48.2886,159.819,110.939,115.637,0.00116532,0.148484,20.8255,598.327,-0.374944,0.0,0.0
374,93.25,47.1836,48.6297,161.503,110.931,115.679,0.00116529,0.145436,20.8294,598.307,-0.378871,0.0,0.0
376,93.75,46.9097,48.6069,159.268,110.941,116.426,0.00114778,0.142966,20.8326,598.327,-0.436181,0.0,0.0
378,94.25,46.8973,48.5615,158.007,110.922,115.617,0.0011336,0.140451,20.836,598.317,-0.374732,0.0,0.0
380,94.75,46.7416,48.1987,161.265,110.923,115.959,0.00111292,0.13795,20.8388,598.297,-0.401426,0.0,0.0
382,95.25,46.7979,48.273,158.958,110.922,115.888,0.00108788,0.135518,20.842,598.267,-0.395898,0.0,0.0
384,95.75,46.4019,48.1643,158.655,110.937,115.733,0.0010676,0.133182,20.8454,598.277,-0.382558,0.0,0.0
386,96.25,46.4002,48.4163,156.963,110.908,115.798,0.0010699,0.130838,20.8486,598.267,-0.39003,0.0,0.0
388,96.75,46.7441,48.1022,158.317,110.913,116.182,0.00107177,0.128533,20.8516,598.287,-0.419588,0.0,0.0
390,97.25,46.4345,48.0017,158.499,110.905,116.05,0.00107328,0.126666,20.8541,598.287,-0.409999,0.0,0.0
392,97.75,46.2063,47.8985,158.564,110.903,115.169,0.00112073,0.12411,20.8568,598.287,-0.341191,0.0,0.0
394,98.25,46.0452,47.9449,154.893,110.898,115.72,0.00115917,0.122039,20.8596,598.257,-0.38478,0.0,0.0
396,98.75,46.5315,48.1135,156.545,110.884,115.985,0.00121157,0.119479,20.8626,598.247,-0.406538,0.0,0.0
398,99.25,46.078,47.9551,159.584,110.881,115.543,0.00125402,0.117405,20.8656,598.237,-0.37232,0.0,0.0
400,99.75,45.56,47.7235,156.876,110.876,115.387,0.00129591,0.115269,20.8685,598.217,-0.360484,0.0,0.0
402,100.25,45.3641,47.8328,157.694,110.883,115.464,0.00132983,0.113129,20.8713,598.217,-0.366002,0.0,0.0
404,100.75,45.646,47.8378,158.268,110.87,115.932,0.00136107,0.111396,20.8736,598.217,-0.403594,0.0,0.0
406,101.25,45.733,47.5806,158.713,110.866,116.277,0.00138637,0.109228,20.8754,598.227,-0.430845,0.0,0.0
408,101.75,45.4187,47.4862,156.764,110.872,115.695,0.00140687,0.107472,20.8782,598.227,-0.384939,0.0,0.0
410,102.25,45.331,47.2471,161.083,110.861,114.479,0.00142281,0.105373,20.8805,598.207,-0.290323,0.0,0.0
412,102.75,45.4715,47.7267,158.622,110.856,114.603,0.00143513,0.103674,20.8835,598.207,-0.300498,0.0,0.0
414,103.25,45.1014,47.2402,157.217,110.851,115.097,0.00144182,0.101579,20.886,598.187,-0.339851,0.0,0.0
416,103.75,45.0958,47.1865,156.885,110.846,115.187,0.00144427,0.0998821,20.8889,598.207,-0.347276,0.0,0.0
418,104.25,45.1802,47.1476,163.504,110.843,114.732,0.00144625,0.0985078,20.8912,598.197,-0.311747,0.0,0.0
420,104.75,44.2953,47.1768,161.884,110.839,115.172,0.00143601,0.0968892,20.8931,598.197,-0.346664,0.0,0.0
422,105.25,44.5393,47.1196,164.686,110.845,114.929,0.00141705,0.0951233,20.8951,598.177,-0.32709,0.0,0.0
424,105.75,44.0329,47.1829,162.066,110.825,114.072,0.00138791,0.0934895,20.8967,598.157,-0.261086,0.0,0.0
426,106.25,44.5699,46.5776,159.078,110.833,114.786,0.0013755,0.0919832,20.8984,598.147,-0.316804,0.0,0.0
428,106.75,44.0037,46.7448,160.789,110.822,114.838,0.00135429,0.0907631,20.9003,598.157,-0.321808,0.0,0.0
430,107.25,44.1375,46.5941,159.442,110.827,115.102,0.0013321,0.0893174,20.9023,598.167,-0.3422,0.0,0.0
432,107.75,43.7499,46.8013,162.818,110.809,114.541,0.00131413,0.0881463,20.9043,598.177,-0.299457,0.0,0.0
434,108.25,43.7401,46.7464,162.757,110.807,114.433,0.00130332,0.0871978,20.9059,598.187,-0.291097,0.0,0.0
436,108.75,43.8145,46.6057,158.53,110.806,114.333,0.00129457,0.0859582,20.9072,598.177,-0.283257,0.0,0.0
438,109.25,43.8587,46.3205,157.843,110.815,114.656,0.00129123,0.0849541,20.9083,598.147,-0.308041,0.0,0.0
440,109.75,43.6717,46.2045,160.522,110.797,114.288,0.00128853,0.0839757,20.9091,598.127,-0.280421,0.0,0.0
442,110.25,43.5622,46.2668,166.207,110.803,114.645,0.00129134,0.0830344,20.9098,598.137,-0.30818,0.0,0.0
444,110.75,43.7266,46.2398,157.994,110.787,114.023,0.00129361,0.0821669,20.9104,598.137,-0.260306,0.0,0.0
446,111.25,41.9186,44.588,160.748,110.798,114.507,0.00129546,0.0813697,20.9109,598.137,-0.297611,0.0,0.0
448,111.75,41.5053,44.4852,158.949,110.781,114.546,0.0012957,0.0805964,20.9115,598.117,-0.30213,0.0,0.0
450,112.25,41.2632,44.0135,162.275,110.79,114.013,0.0012959,0.0798553,20.9122,598.127,-0.259215,0.0,0.0
452,112.75,41.3977,44.3311,156.963,110.769,115.001,0.00128606,0.0791425,20.913,598.127,-0.338989,0.0,0.0
454,113.25,41.732,44.1606,159.753,110.796,114.523,0.00127809,0.078464,20.9138,598.127,-0.299068,0.0,0.0
456,113.75,41.7138,44.3305,159.978,110.769,113.836,0.00126038,0.0779144,20.9145,598.127,-0.246867,0.0,0.0
458,114.25,41.4839,43.8318,162.118,110.773,114.733,0.00124604,0.0772414,20.9151,598.117,-0.317461,0.0,0.0
460,114.75,41.3806,44.3096,161.921,110.779,113.905,0.00123318,0.0766962,20.9155,598.107,-0.251612,0.0,0.0
462,115.25,41.0253,43.6497,162.837,110.788,114.633,0.00122276,0.0760696,20.9163,598.117,-0.308412,0.0,0.0
464,115.75,40.8745,43.8878,161.112,110.758,114.184,0.00121563,0.0755621,20.917,598.107,-0.275396,0.0,0.0
466,116.25,40.8544,43.5275,161.454,110.766,114.856,0.00121104,0.0750514,20.9175,598.117,-0.327752,0.0,0.0
468,116.75,40.9743,43.5085,160.671,110.761,114.561,0.00120404,0.0746378,20.918,598.117,-0.304922,0.0,0.0
470,117.25,40.4122,43.6661,161.473,110.769,114.107,0.0011954,0.0741747,20.9187,598.117,-0.268368,0.0,0.0
472,117.75,40.814,43.5008,161.343,110.742,114.777,0.00118841,0.0737996,20.9194,598.107,-0.323498,0.0,0.0
474,118.25,41.0038,43.5049,156.202,110.737,114.461,0.00117749,0.0734284,20.9199,598.087,-0.298966,0.0,0.0
476,118.75,40.7011,43.4529,157.114,110.711,114.447,0.00117034,0.0730671,20.9201,598.087,-0.299987,0.0,0.0
478,119.25,40.1775,43.1943,166.416,110.719,114.347,0.00115746,0.0727745,20.9205,598.097,-0.291463,0.0,0.0
480,119.75,40.0453,43.0023,162.321,110.712,114.308,0.00114643,0.0723527,20.9208,598.087,-0.288963,0.0,0.0
482,120.25,40.3756,42.8812,160.754,110.712,114.177,0.0011375,0.072011,20.9211,598.067,-0.278636,0.0,0.0
484,120.75,40.1288,42.9484,158.885,110.684,114.583,0.00113253,0.0715495,20.9214,598.057,-0.312931,0.0,0.0
486,121.25,39.9116,42.7076,160.236,110.693,114.491,0.00113119,0.0711757,20.9214,598.057,-0.304943,0.0,0.0
488,121.75,40.2848,42.4438,163.657,110.679,113.903,0.0011314,0.0710163,20.9216,598.057,-0.259626,0.0,0.0
490,122.25,40.0482,42.6134,162.895,110.692,114.197,0.00113157,0.070545,20.9217,598.057,-0.281786,0.0,0.0
492,122.75,40.3494,42.4753,162.139,110.677,114.489,0.00112672,0.0701632,20.9222,598.037,-0.306126,0.0,0.0
494,123.25,39.9087,42.2872,158.836,110.692,114.04,0.00112278,0.0697403,20.9226,598.037,-0.269373,0.0,0.0
496,123.75,39.8294,42.4915,163.844,110.682,114.327,0.0011146,0.069192,20.923,598.037,-0.292863,0.0,0.0
498,124.25,39.5929,42.4983,161.567,110.676,114.536,0.00110797,0.0690068,20.9233,598.047,-0.309911,0.0,0.0
500,124.75,39.9387,42.4679,158.475,110.656,115.012,0.0011026,0.0686901,20.9235,598.057,-0.349088,0.0,0.0
502,125.25,39.6223,42.1659,156.099,110.656,114.207,0.00109825,0.0683626,20.9237,598.047,-0.285554,0.0,0.0
504,125.75,39.6583,41.9317,167.094,110.649,114.356,0.00108349,0.0680973,20.9236,598.017,-0.297933,0.0,0.0
506,126.25,39.7137,42.3762,160.382,110.653,114.363,0.00107154,0.0677831,20.9235,598.007,-0.298054,0.0,0.0
508,126.75,39.5026,42.0269,165.135,110.64,114.695,0.00105922,0.0675286,20.9233,598.027,-0.325398,0.0,0.0
510,127.25,39.3421,42.4864,159.389,110.639,114.94,0.00104689,0.0673225,20.9232,598.037,-0.344819,0.0,0.0
512,127.75,39.4057,41.6406,159.267,110.621,114.583,0.00103492,0.0671182,20.9232,598.047,-0.31807,0.0,0.0
514,128.25,38.9827,41.8431,164.289,110.637,114.691,0.00102346,0.0669191,20.9231,598.057,-0.325296,0.0,0.0
516,128.75,39.0899,42.0179,159.846,110.603,115.028,0.00101417,0.0667578,20.923,598.047,-0.354668,0.0,0.0
518,129.25,39.4809,41.5708,158.195,110.612,114.31,0.00100165,0.06656,20.9232,598.057,-0.297263,0.0,0.0
520,129.75,39.404,41.8364,161.165,110.584,114.345,0.000991517,0.0663393,20.9236,598.047,-0.302303,0.0,0.0
522,130.25,38.6037,42.0866,159.63,110.59,114.85,0.000973324,0.0661605,20.9239,598.037,-0.341684,0.0,0.0
524,130.75,39.1125,41.597,157.828,110.579,114.294,0.000958588,0.0658881,20.9241,598.047,-0.298776,0.0,0.0
526,131.25,38.7016,41.6577,161.083,110.574,114.057,0.000929188,0.0656674,20.9245,598.047,-0.280357,0.0,0.0
528,131.75,39.1492,41.5189,161.873,110.57,114.802,0.000905374,0.065361,20.9251,598.037,-0.339568,0.0,0.0
530,132.25,39.0454,41.5527,157.788,110.586,114.804,0.000865094,0.0651129,20.9255,598.027,-0.338423,0.0,0.0
532,132.75,39.123,41.3704,159.02,110.571,114.204,0.000813574,0.0648127,20.9259,598.027,-0.292193,0.0,0.0
534,133.25,39.1298,41.2172,160.2,110.586,114.073,0.000771843,0.0645695,20.9262,598.037,-0.280701,0.0,0.0
536,133.75,38.8332,41.5627,161.29,110.574,114.842,0.000714379,0.0642734,20.9264,598.027,-0.342347,0.0,0.0
538,134.25,38.5557,42.1953,164.864,110.57,114.234,0.000667834,0.0640335,20.9266,598.007,-0.294699,0.0,0.0
540,134.75,38.7129,41.0699,163.843,110.567,114.385,0.000617685,0.063787,20.9268,598.027,-0.306909,0.0,0.0
542,135.25,38.4934,40.7467,156.982,110.567,114.055,0.000577065,0.0635403,20.9269,598.027,-0.280703,0.0,0.0
544,135.75,38.4499,40.827,158.256,110.549,115.105,0.000541675,0.0633405,20.927,598.027,-0.36505,0.0,0.0
546,136.25,38.1666,40.8039,161.004,110.554,115.116,0.000513008,0.063122,20.9271,598.027,-0.365524,0.0,0.0
548,136.75,38.7596,41.1331,167.69,110.563,114.746,0.000488478,0.062945,20.9271,597.997,-0.335727,0.0,0.0
550,137.25,38.477,40.6729,161.595,110.558,113.982,0.00046743,0.0627025,20.9276,597.987,-0.275732,0.0,0.0
552,137.75,38.2392,40.8237,159.713,110.556,114.308,0.000450381,0.0625061,20.928,597.987,-0.301702,0.0,0.0
554,138.25,38.446,41.3349,160.953,110.553,114.216,0.000436572,0.0622337,20.9284,597.977,-0.294675,0.0,0.0
556,138.75,37.8992,40.6793,165.365,110.55,114.426,0.000425386,0.0620131,20.9286,597.957,-0.311522,0.0,0.0
558,139.25,37.834,40.7485,159.555,110.548,114.444,0.000411742,0.0617822,20.9288,597.977,-0.313182,0.0,0.0
560,139.75,38.2967,40.5459,159.362,110.525,114.992,0.000396565,0.0615483,20.929,597.967,-0.358146,0.0,0.0
562,140.25,37.9587,40.6239,160.328,110.535,115.125,0.000374452,0.0613141,20.9292,597.967,-0.367757,0.0,0.0
564,140.75,37.81,40.5675,160.88,110.528,114.856,0.000347704,0.0610841,20.9293,597.977,-0.347266,0.0,0.0
566,141.25,38.0678,40.0682,163.424,110.512,114.429,0.000312955,0.0608979,20.9294,597.967,-0.314842,0.0,0.0
568,141.75,38.2541,40.6981,156.604,110.532,114.723,0.000273032,0.0606621,20.9299,597.957,-0.336394,0.0,0.0
570,142.25,37.9534,40.3438,166.096,110.509,115.075,0.000223045,0.0604711,20.9303,597.937,-0.365968,0.0,0.0
572,142.75,37.9073,40.3824,160.912,110.513,114.602,0.00016667,0.0602494,20.9306,597.947,-0.328497,0.0,0.0
574,143.25,37.8097,40.3802,159.639,110.507,114.32,0.000105973,0.0600095,20.9309,597.947,-0.306644,0.0,0.0
576,143.75,38.139,40.3251,160.532,110.512,115.032,4.32782e-05,0.0598003,20.9311,597.937,-0.362369,0.0,0.0
578,144.25,37.5495,40.1493,160.246,110.498,114.308,-1.40409e-05,0.0596174,20.9313,597.927,-0.306453,0.0,0.0
580,144.75,37.7845,40.16,162.838,110.519,114.086,-6.6352e-05,0.0594172,20.9315,597.927,-0.287174,0.0,0.0
582,145.25,37.7286,40.6162,160.711,110.484,114.804,-0.000108724,0.0592081,20.9316,597.927,-0.346757,0.0,0.0
584,145.75,37.6427,40.1788,163.749,110.495,114.12,-0.000135202,0.0590387,20.9317,597.947,-0.291855,0.0,0.0
586,146.25,37.3067,39.8873,161.655,110.485,114.89,-0.00014959,0.0588167,20.9318,597.927,-0.353375,0.0,0.0
588,146.75,37.4728,39.8506,161.78,110.49,114.686,-0.000161244,0.0585996,20.9318,597.927,-0.336928,0.0,0.0
590,147.25,37.8118,40.1857,157.176,110.475,114.321,-0.000149573,0.0583903,20.9319,597.917,-0.309337,0.0,0.0
592,147.75,38.1687,39.5767,162.629,110.508,114.313,-0.000140118,0.0582207,20.9319,597.917,-0.306055,0.0,0.0
594,148.25,37.3584,40.0614,162.359,110.465,114.842,-0.00013246,0.0580164,20.9319,597.957,-0.351262,0.0,0.0
596,148.75,37.6549,39.6442,160.933,110.472,114.137,-0.000122989,0.0577907,20.932,597.957,-0.295062,0.0,0.0
598,149.25,37.4529,39.9034,159.371,110.445,114.434,-0.000112376,0.0576078,20.9324,597.947,-0.320751,0.0,0.0
600,149.75,37.8204,40.0632,160.066,110.458,114.342,-0.000105021,0.0574032,20.9328,597.937,-0.312391,0.0,0.0
602,150.25,37.591,39.863,158.927,110.434,114.354,-9.90637e-05,0.0572374,20.9331,597.927,-0.315308,0.0,0.0
604,150.75,37.6246,39.7635,159.893,110.452,114.197,-0.000101689,0.0571031,20.9336,597.927,-0.301381,0.0,0.0
606,151.25,37.2383,39.6471,160.808,110.434,114.631,-0.000103816,0.0569274,20.9342,597.927,-0.337147,0.0,0.0
608,151.75,37.5637,39.5818,163.829,110.456,114.259,-0.000109264,0.0567248,20.9347,597.917,-0.306054,0.0,0.0
610,152.25,37.3098,39.3556,160.848,110.43,114.055,-0.000113678,0.0565087,20.9351,597.917,-0.29198,0.0,0.0
612,152.75,37.3723,39.6629,165.373,110.446,114.334,-0.000117252,0.0562868,20.9354,597.907,-0.31273,0.0,0.0
614,153.25,37.0351,39.6014,160.494,110.438,114.839,-0.00011518,0.0560624,20.9356,597.897,-0.353311,0.0,0.0
616,153.75,37.1444,39.52,161.767,110.436,115.24,-0.000113502,0.0558405,20.9359,597.897,-0.384929,0.0,0.0
618,154.25,37.3673,39.4538,159.128,110.42,114.353,-0.000107176,0.0556043,20.936,597.907,-0.316353,0.0,0.0
620,154.75,36.7762,39.8043,161.484,110.431,114.741,-0.000102051,0.0554129,20.9362,597.907,-0.346166,0.0,0.0
622,155.25,37.3363,39.5468,161.511,110.413,114.537,-0.000102868,0.0551985,20.9363,597.887,-0.331508,0.0,0.0
624,155.75,37.6847,39.3263,162.439,110.417,114.868,-0.000103529,0.0549712,20.9364,597.887,-0.357208,0.0,0.0
626,156.25,37.56,39.4497,161.47,110.415,115.176,-0.000111516,0.0547872,20.9367,597.887,-0.381628,0.0,0.0
628,156.75,37.3087,39.1051,161.054,110.426,114.307,-0.000117985,0.0545816,20.9371,597.887,-0.31228,0.0,0.0
630,157.25,36.8489,39.1058,161.282,110.427,114.134,-0.000125186,0.0544151,20.9375,597.887,-0.298524,0.0,0.0
632,157.75,36.8012,39.3545,161.566,110.436,114.632,-0.000132784,0.0542208,20.9378,597.887,-0.337121,0.0,0.0
634,158.25,36.9363,39.2624,160.046,110.421,114.226,-0.000142229,0.0540099,20.938,597.887,-0.306242,0.0,0.0
636,158.75,36.9171,39.2692,161.286,110.438,114.497,-0.000152842,0.0537544,20.9381,597.897,-0.326283,0.0,0.0
638,159.25,36.9894,39.2975,161.183,110.422,114.514,-0.000161438,0.0535474,20.9382,597.897,-0.328986,0.0,0.0
640,159.75,37.1202,39.4144,160.288,110.435,114.567,-0.000178206,0.0533798,20.9382,597.887,-0.332125,0.0,0.0
642,160.25,36.6802,39.1976,158.767,110.432,114.457,-0.000200611,0.053244,20.9382,597.887,-0.323564,0.0,0.0
644,160.75,36.5887,39.1184,162.387,110.437,114.846,-0.000226602,0.0531111,20.9382,597.887,-0.353865,0.0,0.0
646,161.25,36.7685,39.0783,159.993,110.422,114.502,-0.000254714,0.052983,20.9386,597.887,-0.327988,0.0,0.0
648,161.75,36.4989,39.0921,158.231,110.423,114.726,-0.00028402,0.0528791,20.939,597.907,-0.345511,0.0,0.0
650,162.25,36.7116,38.937,160.768,110.417,114.88,-0.000313641,0.0527728,20.9393,597.867,-0.358203,0.0,0.0
652,162.75,36.7896,39.2297,160.763,110.44,114.286,-0.000340902,0.0526666,20.9395,597.807,-0.309403,0.0,0.0
654,163.25,36.5956,38.8349,160.858,110.419,114.452,-0.000365925,0.0525805,20.9397,597.737,-0.324217,0.0,0.0
656,163.75,36.4711,38.8452,162.154,110.427,114.226,-0.000386847,0.0524262,20.9399,597.757,-0.305766,0.0,0.0
658,164.25,36.7448,39.0911,160.147,110.417,114.234,-0.000404382,0.052264,20.94,597.817,-0.307208,0.0,0.0
660,164.75,36.5282,38.881,160.271,110.416,114.584,-0.000419239,0.0520993,20.9401,597.857,-0.334889,0.0,0.0
662,165.25,36.4503,38.5899,160.133,110.411,113.998,-0.000431861,0.0519584,20.9402,597.807,-0.28905,0.0,0.0
664,165.75,36.3042,38.845,164.253,110.423,114.949,-0.000442086,0.0518376,20.9402,597.827,-0.363138,0.0,0.0
666,166.25,36.2901,38.8734,161.064,110.411,115.096,-0.000470237,0.0516952,20.9405,597.777,-0.375721,0.0,0.0
668,166.75,36.5032,38.8062,160.148,110.406,114.858,-0.00049304,0.0515398,20.941,597.797,-0.357395,0.0,0.0
670,167.25,36.6772,38.635,163.015,110.404,114.636,-0.000528896,0.0513842,20.9413,597.777,-0.340048,0.0,0.0
672,167.75,36.4456,38.3311,160.614,110.401,114.26,-0.000557939,0.0512315,20.9416,597.777,-0.310591,0.0,0.0
674,168.25,36.9044,38.5411,164.907,110.398,114.35,-0.000582073,0.0511077,20.9419,597.747,-0.317926,0.0,0.0
676,168.75,36.5223,38.4047,161.29,110.385,114.347,-0.00060217,0.0509934,20.9416,597.787,-0.318738,0.0,0.0
678,169.25,36.2521,38.203,159.798,110.394,114.531,-0.000618449,0.0509008,20.9414,597.797,-0.332629,0.0,0.0
680,169.75,36.4886,39.0184,159.236,110.385,114.064,-0.000617974,0.050811,20.9412,597.807,-0.296365,0.0,0.0
682,170.25,36.3177,38.447,159.526,110.382,114.303,-0.000617589,0.0507248,20.9413,597.817,-0.315551,0.0,0.0
684,170.75,36.5808,38.4812,159.218,110.381,114.171,-0.000610608,0.0506191,20.9415,597.807,-0.30518,0.0,0.0
686,171.25,36.4704,38.1909,158.963,110.359,114.41,-0.000604605,0.050501,20.9416,597.827,-0.325872,0.0,0.0
688,171.75,36.5845,38.3638,161.764,110.37,114.488,-0.000594341,0.0503905,20.9421,597.847,-0.331119,0.0,0.0
690,172.25,35.8947,38.3562,161.875,110.372,115.082,-0.000578576,0.0502877,20.9426,597.857,-0.377802,0.0,0.0
692,172.75,36.2642,38.38,160.949,110.361,114.186,-0.000565807,0.0502044,20.9429,597.857,-0.307974,0.0,0.0
694,173.25,36.3259,38.5323,159.413,110.364,114.442,-0.000555463,0.0501369,20.9432,597.847,-0.328029,0.0,0.0
696,173.75,35.954,38.3594,161.685,110.361,114.539,-0.000533423,0.0500452,20.9434,597.837,-0.335913,0.0,0.0
698,174.25,36.4389,38.2276,163.037,110.366,114.764,-0.000515571,0.0499374,20.9436,597.837,-0.353179,0.0,0.0
700,174.75,36.4038,38.2757,161.555,110.358,114.226,-0.000492418,0.0498131,20.9437,597.827,-0.311354,0.0,0.0
702,175.25,36.3793,38.103,160.638,110.358,114.091,-0.000473664,0.049679,20.9439,597.827,-0.300702,0.0,0.0
704,175.75,36.7697,38.3264,158.698,110.355,115.057,-0.000462199,0.0495333,20.944,597.827,-0.377194,0.0,0.0
706,176.25,35.8644,38.4456,164.587,110.35,113.883,-0.000452912,0.0493819,20.944,597.817,-0.284834,0.0,0.0
708,176.75,36.3359,38.3562,161.677,110.352,114.591,-0.000457809,0.0492592,20.9441,597.837,-0.340748,0.0,0.0
710,177.25,36.358,38.1286,163.829,110.355,114.37,-0.000461776,0.0491317,20.9442,597.827,-0.323045,0.0,0.0
712,177.75,36.3171,38.2452,160.866,110.345,114.771,-0.000477407,0.0490284,20.9442,597.807,-0.355555,0.0,0.0
714,178.25,35.6736,38.4474,158.227,110.374,114.53,-0.000490068,0.0489165,20.9442,597.807,-0.334182,0.0,0.0
716,178.75,36.5887,37.9352,156.302,110.348,114.045,-0.00049967,0.0488259,20.9443,597.797,-0.29789,0.0,0.0
718,179.25,35.9353,37.7354,159.339,110.364,114.761,-0.00050686,0.0486961,20.9443,597.817,-0.353238,0.0,0.0
720,179.75,36.3975,38.2256,160.485,110.353,114.484,-0.000512684,0.048591,20.9443,597.827,-0.332291,0.0,0.0
722,180.25,36.2276,37.7531,161.103,110.357,114.661,-0.000510211,0.0484918,20.9443,597.837,-0.345892,0.0,0.0
724,180.75,36.2399,37.7988,156.872,110.352,114.205,-0.000501737,0.0484114,20.9443,597.827,-0.310297,0.0,0.0
726,181.25,36.4269,37.5026,161.767,110.362,114.355,-0.000493566,0.0483093,20.9443,597.837,-0.321305,0.0,0.0
728,181.75,35.7724,37.7422,160.122,110.344,114.625,-0.000485771,0.0481931,20.9448,597.837,-0.34415,0.0,0.0
730,182.25,36.2969,37.7755,159.952,110.361,114.605,-0.000485339,0.0480991,20.9451,597.807,-0.341099,0.0,0.0
732,182.75,36.0859,38.3927,157.417,110.347,114.108,-0.000490285,0.0479806,20.9454,597.807,-0.302932,0.0,0.0
734,183.25,36.2304,37.8696,160.832,110.357,114.692,-0.000502134,0.0478846,20.9457,597.817,-0.348323,0.0,0.0
736,183.75,36.1495,38.1263,162.105,110.338,114.441,-0.000518791,0.0478069,20.9459,597.817,-0.33013,0.0,0.0
738,184.25,36.4303,38.0797,160.094,110.327,114.562,-0.000534243,0.047744,20.946,597.817,-0.340466,0.0,0.0
740,184.75,36.0008,37.9112,163.865,110.336,114.279,-0.000548525,0.047693,20.9462,597.807,-0.317445,0.0,0.0
742,185.25,35.9908,38.0663,162.583,110.343,114.294,-0.000560093,0.0475953,20.9463,597.787,-0.318065,0.0,0.0
744,185.75,35.702,37.4977,161.287,110.331,114.515,-0.000563254,0.0474865,20.9463,597.797,-0.336505,0.0,0.0
746,186.25,36.2446,37.5733,161.267,110.349,115.004,-0.000565814,0.0473718,20.9464,597.797,-0.373497,0.0,0.0
748,186.75,36.1628,37.4523,159.02,110.34,114.883,-0.000567234,0.0472788,20.9465,597.787,-0.364715,0.0,0.0
750,187.25,36.0278,38.1471,160.284,110.34,114.179,-0.000567796,0.0471753,20.9465,597.787,-0.309159,0.0,0.0
752,187.75,36.0887,37.931,160.78,110.334,113.779,-0.000570866,0.0470915,20.9466,597.787,-0.277868,0.0,0.0
754,188.25,35.9553,38.0066,158.678,110.352,114.435,-0.000575705,0.0470236,20.9461,597.777,-0.328453,0.0,0.0
756,188.75,36.0358,37.3679,159.071,110.34,114.372,-0.000579625,0.0469686,20.9458,597.757,-0.324435,0.0,0.0
758,189.25,35.9943,37.8292,159.403,110.343,114.695,-0.000580359,0.04691,20.9455,597.747,-0.349688,0.0,0.0
760,189.75,35.7604,37.3911,161.337,110.334,114.285,-0.000580954,0.0468625,20.9453,597.737,-0.31807,0.0,0.0
762,190.25,36.0655,37.5882,159.71,110.341,114.459,-0.00057771,0.0468092,20.9451,597.737,-0.331198,0.0,0.0
764,190.75,35.9474,37.4446,157.314,110.331,114.779,-0.000575083,0.0467527,20.9448,597.717,-0.357317,0.0,0.0
766,191.25,35.7314,37.1835,163.765,110.337,114.502,-0.000575569,0.0467069,20.9446,597.727,-0.334955,0.0,0.0
768,191.75,35.6915,37.4633,156.099,110.328,114.734,-0.000578315,0.0466276,20.9444,597.737,-0.35399,0.0,0.0
770,192.25,36.0235,37.2359,163.314,110.33,114.882,-0.00058733,0.0465634,20.9443,597.757,-0.365474,0.0,0.0
772,192.75,35.7995,37.5121,157.315,110.311,114.261,-0.000602744,0.0464258,20.9441,597.767,-0.318042,0.0,0.0
774,193.25,35.4309,37.1015,162.916,110.33,114.721,-0.00061523,0.0463143,20.944,597.777,-0.352809,0.0,0.0
776,193.75,35.981,37.4797,160.565,110.315,115.062,-0.000625343,0.0462167,20.9439,597.787,-0.380858,0.0,0.0
778,194.25,35.6847,37.7455,159.621,110.326,114.98,-0.000649222,0.0461309,20.9442,597.797,-0.373477,0.0,0.0
780,194.75,35.7121,37.5898,158.645,110.319,115.111,-0.000682682,0.0460836,20.9448,597.807,-0.384425,0.0,0.0
782,195.25,36.1209,37.1909,160.451,110.327,114.541,-0.000714361,0.046074,20.9453,597.787,-0.338867,0.0,0.0
784,195.75,36.067,37.5051,160.865,110.303,114.318,-0.000744138,0.0460576,20.9461,597.767,-0.323134,0.0,0.0
786,196.25,35.1702,37.2471,159.709,110.325,114.622,-0.000765643,0.0460443,20.9468,597.707,-0.345395,0.0,0.0
788,196.75,35.6328,36.9986,161.802,110.304,114.412,-0.000780709,0.0460053,20.9474,597.707,-0.330496,0.0,0.0
790,197.25,35.7183,37.3369,159.383,110.313,113.786,-0.000787944,0.0459738,20.9478,597.677,-0.28025,0.0,0.0
792,197.75,35.0632,36.8433,162.976,110.293,114.293,-0.000793805,0.0459112,20.9482,597.727,-0.322087,0.0,0.0
794,198.25,35.8337,37.0084,161.206,110.299,114.532,-0.000799795,0.0458271,20.9485,597.727,-0.340436,0.0,0.0
796,198.75,35.6592,37.5415,158.851,110.284,115,-0.000804646,0.0457516,20.9487,597.747,-0.378513,0.0,0.0
798,199.25,35.6565,37.1904,162.934,110.288,114.843,-0.000811191,0.0456838,20.9489,597.757,-0.365856,0.0,0.0
800,199.75,35.4254,36.9505,159.289,110.29,114.164,-0.000818844,0.0456363,20.949,597.757,-0.31206,0.0,0.0
802,200.25,35.5482,37.4185,160.067,110.286,114.44,-0.000825044,0.0456044,20.9492,597.737,-0.334222,0.0,0.0
804,200.75,35.7212,37.4352,161.059,110.288,114.735,-0.00084621,0.0455564,20.9493,597.737,-0.357338,0.0,0.0
806,201.25,35.3264,36.9456,156.947,110.288,114.112,-0.000863355,0.0454976,20.9493,597.737,-0.308121,0.0,0.0
808,201.75,35.6636,36.993,160.163,110.277,113.968,-0.000883124,0.0454276,20.9494,597.737,-0.297565,0.0,0.0
810,202.25,35.5757,37.1825,160.309,110.274,114.316,-0.000904432,0.045351,20.9495,597.757,-0.325412,0.0,0.0
812,202.75,35.4082,37.3545,162.476,110.263,114.52,-0.000925613,0.0452889,20.9495,597.747,-0.342456,0.0,0.0
814,203.25,35.5707,37.167,161.205,110.271,114.153,-0.000946298,0.0452668,20.9495,597.747,-0.312741,0.0,0.0
816,203.75,35.5013,37.0476,161.899,110.275,114.415,-0.000965014,0.0452488,20.9496,597.737,-0.333169,0.0,0.0
818,204.25,35.8387,37.1028,159.416,110.282,114.468,-0.000981939,0.0452343,20.9496,597.727,-0.336822,0.0,0.0
820,204.75,35.3678,36.9839,157.932,110.263,114.416,-0.000991727,0.0452085,20.9496,597.727,-0.33427,0.0,0.0
822,205.25,35.6468,37.0262,155.299,110.272,114.446,-0.000996125,0.0451876,20.9496,597.737,-0.335867,0.0,0.0
824,205.75,35.7957,36.9507,159.968,110.287,114.204,-0.000986616,0.0451706,20.9496,597.747,-0.315481,0.0,0.0
826,206.25,35.4488,37.1073,160.3,110.272,114.574,-0.000976369,0.0451569,20.9499,597.757,-0.345927,0.0,0.0
828,206.75,35.2397,37.1136,158.43,110.279,114.537,-0.000958849,0.0451458,20.9503,597.757,-0.342509,0.0,0.0
830,207.25,35.2597,36.7032,161.696,110.278,114.562,-0.000944657,0.0451367,20.9506,597.757,-0.344573,0.0,0.0
832,207.75,34.9572,36.9164,161.767,110.283,114.466,-0.000888454,0.0450732,20.9509,597.737,-0.33659,0.0,0.0
834,208.25,35.3821,36.8558,158.32,110.286,114.582,-0.000834432,0.0450216,20.9511,597.717,-0.345515,0.0,0.0
836,208.75,35.5522,36.9318,158.437,110.276,114.492,-0.000783027,0.0449799,20.9513,597.707,-0.339171,0.0,0.0
838,209.25,35.5276,37.1647,160.29,110.287,114.53,-0.000736814,0.0449621,20.9514,597.707,-0.341333,0.0,0.0
840,209.75,35.8981,36.4576,158.977,110.285,114.691,-0.000695264,0.0449539,20.9515,597.737,-0.354085,0.0,0.0
842,210.25,35.294,37.0951,163.769,110.291,114.389,-0.000661608,0.0449673,20.9516,597.737,-0.329824,0.0,0.0
844,210.75,35.5904,36.985,161.29,110.295,114.381,-0.000633148,0.0449781,20.9517,597.727,-0.328858,0.0,0.0
846,211.25,35.3392,36.9084,159.401,110.303,114.007,-0.000610095,0.0449869,20.9518,597.727,-0.298586,0.0,0.0
848,211.75,35.2144,36.6474,161.401,110.299,114.174,-0.000593907,0.044994,20.9518,597.727,-0.312175,0.0,0.0
850,212.25,35.037,37.2762,157.186,110.301,114.201,-0.000580794,0.045042,20.9517,597.737,-0.314152,0.0,0.0
852,212.75,35.1888,36.8779,157.895,110.303,114.523,-0.000577623,0.0450808,20.9516,597.747,-0.33939,0.0,0.0
854,213.25,35.4252,36.7246,161.876,110.304,115.24,-0.000575054,0.045069,20.9515,597.727,-0.395703,0.0,0.0
856,213.75,35.2262,37.1183,156.568,110.319,114.761,-0.000572974,0.0450595,20.9514,597.727,-0.356864,0.0,0.0
858,214.25,35.4848,36.7644,158.505,110.32,114.369,-0.000575014,0.0450236,20.9514,597.737,-0.325829,0.0,0.0
860,214.75,35.3129,36.5184,161.944,110.326,114.475,-0.000576667,0.0449945,20.9513,597.717,-0.33375,0.0,0.0
862,215.25,35.0178,36.7284,161.814,110.312,114.74,-0.000575522,0.0449636,20.9513,597.717,-0.355811,0.0,0.0
864,215.75,35.8601,36.3589,162.368,110.326,114.852,-0.000574595,0.0449319,20.9513,597.737,-0.36341,0.0,0.0
866,216.25,35.649,36.8345,160.846,110.315,114.152,-0.000573844,0.0449136,20.9513,597.727,-0.309106,0.0,0.0
868,216.75,35.4631,37.3215,165.397,110.332,113.903,-0.000586896,0.0449054,20.951,597.727,-0.288004,0.0,0.0
870,217.25,35.2862,36.7783,162.353,110.318,113.999,-0.000597468,0.0448988,20.9506,597.717,-0.296711,0.0,0.0
872,217.75,35.4114,36.8881,161.598,110.328,114.404,-0.000619692,0.0449075,20.9503,597.697,-0.327973,0.0,0.0
874,218.25,35.4435,36.7898,161.08,110.321,114.259,-0.000637693,0.0449146,20.9501,597.697,-0.317083,0.0,0.0
876,218.75,35.2717,37.1229,163.179,110.341,114.387,-0.000662731,0.0449203,20.9501,597.707,-0.325602,0.0,0.0
878,219.25,35.3216,36.8651,158.597,110.326,114.398,-0.000692424,0.0449027,20.9504,597.697,-0.327602,0.0,0.0
880,219.75,35.2451,36.5781,159.497,110.359,115.259,-0.000725626,0.0448685,20.9506,597.677,-0.392745,0.0,0.0
882,220.25,34.7972,36.7431,162.864,110.336,114.016,,0.0448259,,597.697,-0.296546,0.0,0.0
884,220.75,35.037,36.596,162.092,110.37,114.458,,0.0447781,,597.717,-0.32876,0.0,0.0
886,221.25,35.3511,36.7127,162.686,110.359,114.387,,0.0447246,,597.717,-0.324077,0.0,0.0
888,221.75,35.186,36.5554,158.505,110.374,114.191,,0.0446679,,597.687,-0.307285,0.0,0.0
890,222.25,35.282,36.5589,161.044,110.382,114.155,,0.044622,,597.687,-0.30383,0.0,0.0
892,222.75,35.3653,36.7057,159.468,110.4,114.03,,0.0445848,,597.687,-0.292406,0.0,0.0
894,223.25,35.3349,36.5162,159.694,110.387,114.584,,,,597.687,-0.337319,0.0,0.0
896,223.75,35.985,36.4095,162.157,110.419,114.887,,,,597.707,-0.358615,0.0,0.0
898,224.25,35.2288,36.7043,161.261,110.413,114.787,,,,597.707,-0.351241,0.0,0.0
900,224.75,35.2117,36.2324,161.309,110.441,114.57,,,,597.677,-0.33182,0.0,0.0
902,225.25,35.3898,36.418,159.064,110.444,114.677,,,,597.727,-0.339977,0.0,0.0
904,225.75,35.2613,36.5382,162.102,110.451,114.434,,,,597.727,-0.320244,0.0,0.0
906,226.25,34.9607,36.4517,165.203,110.461,114.67,,,,597.717,-0.338081,0.0,0.0
908,226.75,35.2569,36.7006,159.583,110.46,114.208,,,,597.677,-0.301645,0.0,0.0
910,227.25,35.0505,36.2351,162.002,110.49,114.682,,,,597.677,-0.33657,0.0,0.0
912,227.75,35.0499,36.8378,163.035,110.482,113.78,,,,597.687,-0.265869,0.0,0.0
914,228.25,35.2618,36.4174,167.403,110.481,114.724,,,,597.677,-0.340714,0.0,0.0
916,228.75,35.3223,36.6856,161.666,110.498,114.508,,,,597.687,-0.32223,0.0,0.0
918,229.25,35.0966,36.4692,156.086,110.499,115.202,,,,597.687,-0.376806,0.0,0.0
920,229.75,34.9013,36.7424,158.688,110.518,114.194,,,,597.677,-0.295816,0.0,0.0
922,230.25,34.951,36.5723,162.279,110.494,114.604,,,,597.667,-0.330139,0.0,0.0
924,230.75,35.0254,36.3859,163.685,110.516,114.138,,,,597.657,-0.291517,0.0,0.0