File: 01_Data/Rug_Pad/Cone/Rug_Pad_Cone_HF75Scan_220920_R1.csv
Names,Time,Stack TC,Smoke TC,Exh Press,Smoke Comp,Smoke Meas,CO Meter,CO2 Meter,O2 Meter,Sample Mass,Ext Coeff,Start Test,Flame Verif
Chan Gain,,500,500,1,1,1,1,1,1,1,1,1.0,1.0
Offset,,0,0,0.143022,0,0,0,0,0,0,0,0.0,0.0
Gain,,1,1,25.011,14.5176,16.5692,1,1,1,1.00088,1.03055,1.0,1.0
Units,sec,C,C,Pa,%,%,%,%,%,g,/m,,
Baseline,,55.4068,57.4821,152.189,108.892,113.587,-0.000861286,0.043806,20.9477,-447.909,-0.38148,,
3,0.5,53.8977,56.5649,157.201,109.035,113.091,-0.000741848,0.0443391,20.9483,598.467,-0.330202,0.0,0.0
6,1.25,53.9197,56.5536,149.607,109.037,114.113,-0.000649461,0.0443471,20.948,598.758,-0.411298,0.0,0.0
9,2,54.1646,56.5203,151.473,109.025,114.021,-0.000553522,0.044895,20.9478,598.578,-0.405034,0.0,0.0
12,2.75,53.9475,56.3529,153.158,109.043,111.165,-0.000261968,0.0467884,20.9406,598.538,-0.174218,0.0,0.0
15,3.5,53.9535,56.8368,148.78,109.042,111.828,9.39827e-05,0.0542515,20.9323,598.578,-0.228002,0.0,1.0
18,4.25,53.8929,56.6987,145.037,109.054,104.799,0.0005987,0.0657258,20.9079,598.598,0.359802,0.0,1.0
21,5,54.9589,56.7503,145.121,109.029,99.2684,0.00116572,0.0856903,20.8902,598.508,0.847844,0.0,1.0
24,5.75,55.0337,56.9026,138.588,109.039,94.3261,0.0019195,0.100244,20.8538,598.447,1.31031,0.0,1.0
27,6.5,55.805,57.2399,140.68,109.049,91.5567,0.00289176,0.127271,20.8101,598.397,1.58054,0.0,1.0
30,7.25,55.5377,56.599,141.713,109.066,91.3575,0.003934,0.153233,20.7708,598.357,1.60159,0.0,1.0
33,8,55.355,56.2354,137.784,109.061,89.258,0.00483595,0.182865,20.7163,598.227,1.81136,0.0,0.0
36,8.75,56.2622,57.1583,138.684,109.073,88.4065,0.0059806,0.215592,20.6487,598.177,1.899,0.0,0.0
39,9.5,56.5987,57.1443,135.63,109.084,83.2974,0.00722644,0.244193,20.5813,598.077,2.43809,0.0,0.0
42,10.25,57.6691,58.1338,128.552,109.091,81.2566,0.00854276,0.278688,20.5244,598.017,2.66291,0.0,0.0
45,11,58.4715,59.0475,133.438,109.078,78.8871,0.00990032,0.314476,20.4589,597.947,2.92938,0.0,0.0
48,11.75,59.3142,59.6147,130.678,109.093,77.2215,0.0114592,0.351027,20.4021,597.827,3.12346,0.0,0.0
51,12.5,60.0816,60.1499,128.417,109.095,73.3452,0.0128384,0.387806,20.3451,597.757,3.58925,0.0,0.0
54,13.25,61.5244,61.2883,126.841,109.121,71.4844,0.0146028,0.430788,20.2841,597.637,3.82368,0.0,0.0
57,14,62.7883,61.5668,121.601,109.097,66.4253,0.016101,0.468851,20.2313,597.457,4.48527,0.0,0.0
60,14.75,63.8453,63.4302,128.388,109.1,67.4174,0.0175554,0.508107,20.1682,597.407,4.35144,0.0,0.0
63,15.5,65.436,64.5133,117.058,109.099,67.0781,0.0190292,0.548414,20.1022,597.276,4.39697,0.0,0.0
66,16.25,66.3342,65.3854,118.001,109.111,65.5,0.0202784,0.587217,20.0428,597.156,4.61322,0.0,0.0
69,17,67.8964,66.7105,117.225,109.105,64.5519,0.0212673,0.623087,19.9947,597.046,4.74455,0.0,0.0
72,17.75,68.7444,67.8223,120.586,109.107,65.997,0.0219944,0.652288,19.9597,596.936,4.54455,0.0,0.0
75,18.5,70.088,69.4206,122.501,109.126,65.0975,0.0223095,0.674877,19.9341,596.826,4.67019,0.0,0.0
78,19.25,71.263,70.0294,129.711,109.131,67.2622,0.0224475,0.689696,19.9155,596.726,4.37485,0.0,0.0
81,20,72.5086,71.2463,122.654,109.146,71.5638,0.0221742,0.693033,19.9139,596.616,3.8157,0.0,0.0
84,20.75,73.7544,72.5859,126.945,109.128,72.9846,0.0216352,0.690153,19.9178,596.526,3.63647,0.0,0.0
87,21.5,74.2573,73.341,122.589,109.148,74.541,0.0210974,0.678969,19.9375,596.436,3.44741,0.0,0.0
90,22.25,74.4136,74.4106,129.503,109.148,75.8158,0.0201495,0.658783,19.9733,596.356,3.29416,0.0,0.0
93,23,74.7972,74.7266,130.075,109.14,79.3194,0.0192216,0.63292,20.0236,596.306,2.88507,0.0,0.0
96,23.75,75.0417,75.4141,138.382,109.141,85.6744,0.0179204,0.603774,20.0793,596.226,2.18846,0.0,0.0
99,24.5,75.5385,75.5267,137.272,109.146,87.7051,0.0167367,0.574559,20.1281,596.165,1.97706,0.0,0.0
102,25.25,75.4751,76.1256,139.85,109.145,87.7709,0.0154719,0.539637,20.1908,596.175,1.97025,0.0,0.0
105,26,74.8443,75.829,139.13,109.163,92.1104,0.0142735,0.504527,20.247,596.115,1.53544,0.0,0.0
108,26.75,75.3581,75.988,141.221,109.163,95.0017,0.0129274,0.4704,20.306,596.045,1.25607,0.0,0.0
111,27.5,75.0781,76.2982,139.219,109.167,96.7775,0.0114509,0.437965,20.3679,596.005,1.08902,0.0,0.0
114,28.25,74.9208,76.4647,142.063,109.173,101.403,0.0100677,0.40978,20.4186,596.035,0.667387,0.0,0.0
117,29,74.8043,76.1805,142.79,109.193,104.014,0.00880756,0.38147,20.4652,595.985,0.439203,0.0,0.0
120,29.75,74.6138,76.645,142.669,109.176,104.379,0.00759283,0.354677,20.5156,595.965,0.406134,0.0,0.0
123,30.5,74.2284,76.4718,141.621,109.185,107.142,0.00655428,0.330252,20.5618,595.945,0.170698,0.0,0.0
126,31.25,73.9826,76.216,142.493,109.198,107.633,0.00567458,0.308567,20.6008,595.955,0.130504,0.0,0.0
129,32,73.9353,75.9876,142.268,109.217,109.452,0.004981,0.287538,20.6315,595.905,-0.0194389,0.0,0.0
132,32.75,73.5327,76.0637,144.481,109.202,110.424,0.00438087,0.269341,20.6583,595.895,-0.100564,0.0,0.0
135,33.5,73.1024,76.0872,146.68,109.206,111.716,0.00385904,0.253623,20.6797,595.815,-0.205462,0.0,0.0
138,34.25,73.0695,75.8057,149.217,109.218,112.5,0.00345986,0.24006,20.6991,595.795,-0.267594,0.0,0.0
141,35,72.6177,75.8108,144.394,109.235,112.517,0.00310613,0.227776,20.7164,595.815,-0.267619,0.0,0.0
144,35.75,72.4273,75.3322,144.304,109.217,112.482,0.00283175,0.217799,20.7303,595.805,-0.266277,0.0,0.0
147,36.5,72.3605,75.3287,144.198,109.217,112.966,0.00260348,0.207647,20.7448,595.735,-0.305129,0.0,0.0
150,37.25,72.0794,75.3116,147.339,109.226,114.011,0.00242454,0.198673,20.7577,595.745,-0.38757,0.0,0.0
153,38,71.4356,74.7205,143.822,109.225,113.486,0.00229535,0.191461,20.7689,595.755,-0.345893,0.0,0.0
156,38.75,71.143,74.8465,145.753,109.208,112.921,0.00220171,0.18416,20.7787,595.735,-0.302261,0.0,0.0
159,39.5,71.5519,74.489,144.208,109.202,113.453,0.00212271,0.177739,20.7876,595.735,-0.345259,0.0,0.0
162,40.25,71.2106,74.4988,147.644,109.204,112.518,0.00205007,0.17209,20.7953,595.715,-0.270267,0.0,0.0
165,41,71.1842,74.4886,146.516,109.224,112.441,0.00198542,0.167118,20.8017,595.675,-0.262403,0.0,0.0
168,41.75,70.6584,74.2082,149.675,109.218,113.389,0.00192927,0.162356,20.8073,595.685,-0.338743,0.0,0.0
171,42.5,70.4541,74.1428,149.178,109.233,113.678,0.00188959,0.158884,20.8122,595.675,-0.360567,0.0,0.0
174,43.25,69.851,73.8474,146.677,109.225,113.078,0.00186713,0.155365,20.8165,595.635,-0.31333,0.0,0.0
177,44,70.0741,73.5955,145.533,109.227,113.402,0.00186092,0.152343,20.82,595.645,-0.339095,0.0,0.0
180,44.75,69.5302,73.0999,148.579,109.24,113.23,0.00185639,0.149759,20.8229,595.605,-0.324316,0.0,0.0
183,45.5,69.5932,73.7006,147.247,109.231,114.027,0.00186739,0.147558,20.8247,595.625,-0.388453,0.0,0.0
186,46.25,69.5852,72.8336,148.943,109.235,114.323,0.00187541,0.145304,20.826,595.605,-0.41158,0.0,0.0
189,47,69.3849,72.5525,151.659,109.252,113.638,0.00188484,0.143661,20.8278,595.585,-0.355847,0.0,0.0
192,47.75,68.7011,72.6146,147.035,109.271,113.918,0.00188795,0.141759,20.8294,595.595,-0.376527,0.0,0.0
195,48.5,68.8607,72.9727,146.731,109.25,113.508,0.00188861,0.140073,20.8319,595.555,-0.345649,0.0,0.0
198,49.25,68.7103,72.3231,147.687,109.26,114.041,0.00188909,0.138316,20.8344,595.565,-0.387229,0.0,0.0
201,50,68.5002,72.2638,145.048,109.264,113.642,0.0018966,0.136811,20.8362,595.565,-0.355178,0.0,0.0
204,50.75,68.3609,72.25,146.801,109.276,113.709,0.00190333,0.135276,20.8377,595.535,-0.359537,0.0,0.0
207,51.5,67.8733,72.1604,146.471,109.256,113.416,0.00190613,0.133937,20.8392,595.505,-0.337803,0.0,0.0
210,52.25,68.1128,71.7225,148.073,109.264,113.462,0.00190365,0.132791,20.841,595.515,-0.340851,0.0,0.0
213,53,68.0511,71.7139,145.152,109.281,113.721,0.0019031,0.131824,20.8422,595.495,-0.360061,0.0,0.0
216,53.75,67.7257,72.0708,148.8,109.291,114.283,0.00190455,0.130995,20.8432,595.465,-0.403803,0.0,0.0
219,54.5,67.1619,71.7134,146.564,109.286,114.213,0.00190787,0.130265,20.8438,595.455,-0.398644,0.0,0.0
222,55.25,67.2128,71.1491,149.669,109.285,114.112,0.00191029,0.129617,20.8443,595.435,-0.39075,0.0,0.0
225,56,66.9629,71.5769,146.323,109.29,114.396,0.00191205,0.128949,20.8447,595.395,-0.412794,0.0,0.0
228,56.75,66.9464,71.4528,148.693,109.303,113.893,0.00189717,0.128228,20.8449,595.385,-0.371882,0.0,0.0
231,57.5,67.1098,71.2484,150.687,109.302,113.297,0.00188631,0.127526,20.8451,595.385,-0.324512,0.0,0.0
234,58.25,66.7837,71.0192,149.42,109.312,114.56,0.00188236,0.126883,20.845,595.355,-0.423895,0.0,0.0
237,59,66.67,71.1182,147.103,109.305,112.605,0.00188625,0.126267,20.8456,595.365,-0.268898,0.0,0.0
240,59.75,66.4061,71.1071,147.423,109.315,113.908,0.00189411,0.125741,20.846,595.345,-0.372023,0.0,0.0
243,60.5,66.5323,70.6105,147.821,109.313,113.522,0.00190197,0.12533,20.8463,595.325,-0.341572,0.0,0.0
246,61.25,66.2837,70.7226,145.92,109.314,113.58,0.0019077,0.12499,20.8459,595.325,-0.346129,0.0,0.0
249,62,66.2058,70.2848,147.248,109.304,112.754,0.00190436,0.124688,20.8456,595.295,-0.280934,0.0,0.0
252,62.75,65.8857,70.3184,149.892,109.336,112.494,0.00189277,0.124376,20.8454,595.295,-0.257435,0.0,0.0
255,63.5,66.0903,70.5089,143.517,109.322,112.962,0.00187417,0.123988,20.8458,595.295,-0.296119,0.0,0.0
258,64.25,65.8575,70.0215,147.731,109.326,112.215,0.00183916,0.123546,20.8462,595.265,-0.235742,0.0,0.0
261,65,66.0059,70.3688,145.761,109.315,112.598,0.00179985,0.123066,20.8467,595.275,-0.267519,0.0,0.0
264,65.75,65.3967,69.8044,149.103,109.334,113.848,0.00176532,0.122467,20.8474,595.245,-0.365749,0.0,0.0
267,66.5,65.8228,70.0934,147.29,109.337,112.572,0.00173881,0.1219,20.8481,595.245,-0.263539,0.0,0.0
270,67.25,65.4877,70.131,145.204,109.306,114.098,0.00173001,0.121316,20.8484,595.255,-0.387865,0.0,0.0
273,68,64.9915,69.5317,147.954,109.309,113.146,0.00172445,0.120693,20.8487,595.205,-0.311899,0.0,0.0
276,68.75,65.1454,69.7043,145.769,109.316,113.576,0.0017283,0.120022,20.8496,595.175,-0.345624,0.0,0.0
279,69.5,64.8354,69.8662,146.829,109.343,113.79,0.00171502,0.119283,20.8508,595.135,-0.36032,0.0,0.0
282,70.25,64.5529,69.3454,146.958,109.325,112.997,0.00167654,0.119015,20.8518,595.175,-0.29865,0.0,0.0
285,71,64.8465,69.6264,146.477,109.338,114.136,0.00161711,0.118397,20.8526,595.175,-0.388232,0.0,0.0
288,71.75,64.8438,69.2308,145.431,109.338,113.903,0.00154113,0.11786,20.8531,595.125,-0.369753,0.0,0.0
291,72.5,64.992,69.7093,146.083,109.35,113.669,0.00145899,0.117377,20.8535,595.105,-0.350242,0.0,0.0
294,73.25,64.7822,69.4308,151.028,109.35,113.976,0.00139912,0.116934,20.8538,595.115,-0.374582,0.0,0.0
297,74,64.8896,68.8777,149.304,109.361,112.489,0.00135903,0.116466,20.8545,595.084,-0.254937,0.0,0.0
300,74.75,64.174,68.9146,150.058,109.365,113.098,0.00134481,0.115971,20.8552,595.074,-0.303481,0.0,0.0
303,75.5,64.6107,69.1668,147.39,109.382,113.925,0.00134084,0.115454,20.8556,595.064,-0.367857,0.0,0.0
306,76.25,64.9191,69.1493,150.215,109.383,114.003,0.00134865,0.114829,20.856,595.064,-0.37392,0.0,0.0
309,77,64.4721,69.0153,149.36,109.38,112.448,0.00133809,0.114328,20.8565,595.044,-0.25007,0.0,0.0
312,77.75,64.4304,68.7211,147.918,109.387,113.245,0.00132346,0.113884,20.8572,595.044,-0.313323,0.0,0.0
315,78.5,64.3348,68.8076,146.456,109.412,112.192,0.00126645,0.113488,20.8578,595.034,-0.226842,0.0,0.0
318,79.25,63.5013,68.8678,148.509,109.396,113.208,0.00120117,0.113077,20.8582,594.994,-0.30957,0.0,0.0
321,80,64.4298,68.2035,147.602,109.397,113.444,0.00114346,0.112622,20.8585,594.964,-0.328411,0.0,0.0
324,80.75,63.8661,68.6196,148.237,109.396,113.263,0.00109071,0.112116,20.8591,594.964,-0.314007,0.0,0.0
327,81.5,64.5674,68.6229,148.499,109.396,112.863,0.00106145,0.111566,20.86,594.964,-0.282068,0.0,0.0
330,82.25,64.0523,68.5245,148.828,109.4,113.468,0.00106572,0.110983,20.8611,594.944,-0.330007,0.0,0.0
333,83,63.8086,68.2195,147.536,109.382,113.388,0.00108568,0.110356,20.8619,594.944,-0.325105,0.0,0.0
336,83.75,63.6855,68.351,145.352,109.381,113.517,0.00110649,0.109812,20.8624,594.924,-0.335525,0.0,0.0
339,84.5,63.7938,67.7865,148.518,109.392,113.317,0.00111379,0.109148,20.8631,594.914,-0.318654,0.0,0.0
342,85.25,63.5046,67.0898,143.851,109.404,113.951,0.00108996,0.108505,20.8639,594.934,-0.368109,0.0,0.0
345,86,63.4039,68.3304,150.364,109.389,113.831,0.00105349,0.107938,20.8646,594.944,-0.359841,0.0,0.0
348,86.75,63.2664,68.2747,148.786,109.399,114.015,0.00102296,0.107473,20.865,594.894,-0.373642,0.0,0.0
351,87.5,63.5431,67.8263,147.775,109.403,113.355,0.000993968,0.10701,20.866,594.904,-0.320801,0.0,0.0
354,88.25,63.6786,67.4704,146.596,109.418,113.256,0.000990632,0.106471,20.8672,594.914,-0.311648,0.0,0.0
357,89,63.6084,67.9194,150.568,109.405,113.318,0.000993457,0.105991,20.8688,594.884,-0.317636,0.0,0.0
360,89.75,63.5226,67.8132,149.91,109.393,112.638,0.0010045,0.105231,20.87,594.894,-0.264247,0.0,0.0
363,90.5,63.3947,67.9546,149.1,109.405,114.701,0.00101256,0.104539,20.8709,594.864,-0.42733,0.0,0.0
366,91.25,63.2047,67.4859,144.1,109.432,114.063,0.00101843,0.103802,20.8722,594.804,-0.374704,0.0,0.0
369,92,62.7137,67.5968,148.729,109.42,114.565,0.00100898,0.102895,20.8736,594.854,-0.415396,0.0,0.0
372,92.75,63.1457,67.6371,149.883,109.421,112.638,0.000986381,0.102233,20.8751,594.844,-0.2619,0.0,0.0
375,93.5,62.8143,67.3289,151.641,109.431,113.7,0.000953063,0.101362,20.8761,594.824,-0.345958,0.0,0.0
378,94.25,63.205,67.4833,147.981,109.444,113.888,0.000920044,0.100479,20.8771,594.784,-0.359802,0.0,0.0
381,95,63.9124,67.0871,145.086,109.415,114.414,0.000894876,0.0996918,20.8783,594.774,-0.403861,0.0,0.0
384,95.75,62.7377,66.9935,153.638,109.414,114.523,0.000881018,0.0988723,20.8797,594.744,-0.412523,0.0,0.0
387,96.5,63.2642,67.3783,147.415,109.438,113.734,0.000877154,0.0981765,20.8812,594.744,-0.348065,0.0,0.0
390,97.25,62.9209,66.8348,150.573,109.424,114.621,0.000884482,0.0975011,20.8825,594.744,-0.419494,0.0,0.0
393,98,62.7026,67.1452,149.655,109.429,114.451,0.000893016,0.0968651,20.8834,594.734,-0.405605,0.0,0.0
396,98.75,62.4474,66.898,148.277,109.418,114.153,0.000902728,0.096242,20.8846,594.714,-0.382969,0.0,0.0
399,99.5,62.7642,66.6977,145.971,109.41,115.452,0.000908495,0.0956197,20.8856,594.714,-0.485954,0.0,0.0
402,100.25,62.786,66.672,152.283,109.418,112.993,0.000910452,0.0948386,20.8867,594.694,-0.290637,0.0,0.0
405,101,62.2652,67.0391,149.591,109.429,114.312,0.000904393,0.093981,20.8878,594.694,-0.394659,0.0,0.0
408,101.75,62.5108,66.2482,150.604,109.413,114.455,0.000896785,0.093233,20.8889,594.664,-0.407246,0.0,0.0
411,102.5,62.7133,66.5951,150.25,109.406,114.143,0.000893018,0.0922583,20.8898,594.644,-0.383156,0.0,0.0
414,103.25,62.8592,66.767,149.839,109.423,114.36,0.000895263,0.0913971,20.8909,594.644,-0.39893,0.0,0.0
417,104,62.4947,65.8753,154.252,109.432,114.742,0.000899027,0.0905114,20.8925,594.654,-0.428328,0.0,0.0
420,104.75,62.1023,66.5808,149.939,109.416,114.089,0.000901771,0.0894793,20.8943,594.654,-0.378142,0.0,0.0
423,105.5,62.2471,66.1775,147.606,109.416,113.952,0.000900212,0.0884567,20.8965,594.664,-0.367201,0.0,0.0
426,106.25,62.3581,66.281,146.982,109.421,112.914,0.000895332,0.0875311,20.8984,594.634,-0.28403,0.0,0.0
429,107,61.3148,66.5329,149.356,109.422,114.977,0.00089018,0.0866523,20.8999,594.634,-0.447675,0.0,0.0
432,107.75,62.2903,66.2384,150.366,109.397,114.675,0.000873969,0.0857974,20.9009,594.624,-0.42588,0.0,0.0
435,108.5,61.9701,66.551,144.267,109.408,114.087,0.00086437,0.0849775,20.9015,594.604,-0.3786,0.0,0.0
438,109.25,61.9011,66.4039,148.831,109.407,115.45,0.000851596,0.0841998,20.9021,594.614,-0.486015,0.0,0.0
441,110,61.77,65.2088,150.487,109.417,114.462,0.000843578,0.0831848,20.9031,594.604,-0.407472,0.0,0.0
444,110.75,61.9591,66.4425,143.096,109.416,115.168,0.000840912,0.0822948,20.9048,594.574,-0.46316,0.0,0.0
447,111.5,61.8192,65.8101,152.033,109.399,114.419,0.000843458,0.0816598,20.906,594.594,-0.405618,0.0,0.0
450,112.25,61.8911,65.8093,149.312,109.403,114.692,0.000852431,0.0808218,20.9069,594.534,-0.426796,0.0,0.0
453,113,61.6222,66.0756,147.757,109.406,115.828,0.000858973,0.0800322,20.9082,594.564,-0.515653,0.0,0.0
456,113.75,61.7771,65.0945,147.422,109.398,115.208,0.00088866,0.0791721,20.9086,594.564,-0.467802,0.0,0.0
459,114.5,61.1282,65.632,150.016,109.371,114.608,0.000910301,0.078374,20.9088,594.584,-0.422817,0.0,0.0
462,115.25,61.9553,65.5742,148.705,109.376,113.759,0.000947446,0.0777194,20.9089,594.544,-0.35516,0.0,0.0
465,116,61.4793,65.748,150.194,109.368,113.944,0.00097827,0.0771072,20.9093,594.554,-0.370553,0.0,0.0
468,116.75,61.6201,65.354,148.731,109.376,114.71,0.000999052,0.0764303,20.9099,594.524,-0.430427,0.0,0.0
471,117.5,61.2886,65.7402,148.16,109.365,114.056,0.00100858,0.0757134,20.911,594.524,-0.379707,0.0,0.0
474,118.25,61.1942,65.6979,151.939,109.366,114.591,0.000994165,0.0750935,20.9118,594.514,-0.42186,0.0,0.0
477,119,60.704,65.0776,148.86,109.368,113.429,0.000973147,0.0744751,20.9128,594.504,-0.329578,0.0,0.0
480,119.75,61.3354,65.1561,146.68,109.361,113.771,0.000939858,0.0737606,20.9144,594.504,-0.357446,0.0,0.0
483,120.5,61.5075,65.113,151.372,109.349,114.041,0.000888908,0.0730975,20.9155,594.474,-0.379864,0.0,0.0
486,121.25,61.2867,65.029,151.004,109.336,114.739,0.000851766,0.0724712,20.9164,594.474,-0.436032,0.0,0.0
489,122,61.3908,64.9626,148.232,109.32,114.503,0.000805132,0.0718739,20.917,594.454,-0.41869,0.0,0.0
492,122.75,59.6018,64.889,155.181,109.336,114.646,0.000777368,0.0711828,20.9176,594.454,-0.428698,0.0,0.0
495,123.5,60.8072,65.1761,149.202,109.306,114.321,0.000770285,0.0705699,20.9185,594.404,-0.405519,0.0,0.0
498,124.25,60.9009,64.6414,150.147,109.296,114.637,0.000783076,0.0699385,20.9192,594.444,-0.431241,0.0,0.0
501,125,61.0577,64.3029,146.096,109.286,114.466,0.000836892,0.0693995,20.9199,594.444,-0.418595,0.0,0.0
504,125.75,60.6881,64.8144,149.334,109.299,113.761,0.000894527,0.0687636,20.9208,594.434,-0.361694,0.0,0.0
507,126.5,60.3902,64.4611,147.68,109.277,113.661,0.000968014,0.0680774,20.9221,594.414,-0.35553,0.0,0.0
510,127.25,60.6707,64.4445,147.014,109.265,114.817,0.00104832,0.06751,20.923,594.404,-0.448031,0.0,0.0
513,128,60.4057,64.6426,146.854,109.28,114.841,0.00110687,0.0669814,20.9237,594.384,-0.448695,0.0,0.0
516,128.75,60.6263,64.3542,147.074,109.291,114.549,0.00113885,0.0664544,20.9242,594.364,-0.42474,0.0,0.0
519,129.5,60.3212,63.9196,150.5,109.268,114.629,0.00115099,0.0659427,20.9246,594.334,-0.432912,0.0,0.0
522,130.25,60.2065,64.376,149.008,109.256,113.733,0.00114072,0.0655152,20.9249,594.344,-0.363038,0.0,0.0
525,131,60.2485,64.0473,147.193,109.248,113.343,0.00112824,0.0649408,20.9255,594.344,-0.332695,0.0,0.0
528,131.75,60.2926,64.2869,149.353,109.248,114.162,0.00112325,0.0644623,20.9262,594.364,-0.397756,0.0,0.0
531,132.5,59.0757,63.0105,148.995,109.248,114.386,0.00112228,0.0640115,20.9266,594.344,-0.415437,0.0,0.0
534,133.25,58.4967,62.6239,150.382,109.225,114.257,0.00113048,0.0635553,20.9274,594.354,-0.407187,0.0,0.0
537,134,59.0205,62.6034,149.87,109.219,113.649,0.00113646,0.0631684,20.9282,594.394,-0.359403,0.0,0.0
540,134.75,58.8058,62.951,148.896,109.22,114.496,0.00114082,0.0627046,20.9288,594.364,-0.426491,0.0,0.0
543,135.5,58.3595,62.3285,148.846,109.226,113.79,0.00111906,0.062239,20.9292,594.354,-0.369996,0.0,0.0
546,136.25,58.5028,62.3718,151.803,109.202,113.525,0.00110319,0.0617931,20.9295,594.334,-0.350902,0.0,0.0
549,137,58.4265,62.0394,150.109,109.209,114.166,0.00105601,0.0613788,20.93,594.324,-0.4013,0.0,0.0
552,137.75,58.2878,62.018,153.372,109.226,112.758,0.00101374,0.0610202,20.9305,594.314,-0.287669,0.0,0.0
555,138.5,58.5206,62.0131,149.821,109.206,113.7,0.000969452,0.0607347,20.9309,594.304,-0.364606,0.0,0.0
558,139.25,57.7845,61.7669,150.174,109.207,113.243,0.000928269,0.0604297,20.9312,594.274,-0.328039,0.0,0.0
561,140,58.396,62.006,144.736,109.213,114.275,0.000892011,0.0600418,20.9314,594.284,-0.409614,0.0,0.0
564,140.75,58.4484,62.0272,148.915,109.203,114.315,0.000862921,0.0596985,20.9315,594.284,-0.413544,0.0,0.0
567,141.5,57.9291,61.6694,144.027,109.207,113.629,0.000825709,0.0594482,20.9316,594.274,-0.358825,0.0,0.0
570,142.25,58.2652,61.558,149.327,109.186,114.239,0.000798582,0.0592955,20.9317,594.284,-0.40897,0.0,0.0
573,143,58.0516,61.4311,149.748,109.189,114.492,0.000791254,0.0592351,20.9318,594.274,-0.428742,0.0,0.0
576,143.75,57.5028,61.1969,149.068,109.171,114.699,0.000817097,0.0591628,20.9318,594.274,-0.446523,0.0,0.0
579,144.5,57.68,61.6807,149.346,109.183,114.288,0.000868289,0.0590981,20.9319,594.294,-0.413035,0.0,0.0
582,145.25,57.4321,61.8474,152.487,109.162,112.817,0.000938195,0.05895,20.9325,594.264,-0.297733,0.0,0.0
585,146,57.8909,61.6328,147.46,109.17,113.522,0.00102124,0.0588197,20.933,594.284,-0.353415,0.0,0.0
588,146.75,57.4469,61.3534,147.58,109.171,113.55,0.00108553,0.0586865,20.9333,594.244,-0.355482,0.0,0.0
591,147.5,57.8016,61.2202,152.233,109.195,114.107,0.0011261,0.0585087,20.9336,594.204,-0.397791,0.0,0.0
594,148.25,57.4386,61.4118,150.327,109.161,115.176,0.00114217,0.0583508,20.9338,594.224,-0.48487,0.0,0.0
597,149,57.3873,61.4763,150.173,109.182,113.787,0.00115039,0.0581864,20.9339,594.234,-0.373422,0.0,0.0
600,149.75,57.6188,61.7487,148.225,109.19,114.203,0.00110645,0.058003,20.934,594.184,-0.405763,0.0,0.0
603,150.5,57.7009,61.3959,147.29,109.179,113.753,0.00104571,0.0577684,20.934,594.164,-0.37099,0.0,0.0
606,151.25,57.6022,61.7159,148.665,109.181,113.837,0.000989197,0.0575825,20.9341,594.184,-0.377471,0.0,0.0
609,152,57.56,61.6427,147.895,109.186,115.111,0.000921321,0.0574696,20.9341,594.194,-0.477657,0.0,0.0
612,152.75,57.3646,60.9166,146.279,109.195,114.659,0.000867246,0.0573616,20.9342,594.174,-0.441394,0.0,0.0
615,153.5,57.4792,61.0413,151.514,109.202,113.792,0.000819973,0.057321,20.9342,594.194,-0.37225,0.0,0.0
618,154.25,57.8745,60.7871,147.83,109.197,114.373,0.000760628,0.057249,20.9342,594.194,-0.418691,0.0,0.0
621,155,57.7138,61.0246,149.595,109.213,113.625,0.000699928,0.0571784,20.9342,594.244,-0.358067,0.0,0.0
624,155.75,57.2431,60.5239,154.672,109.21,114.768,0.000648244,0.0569455,20.9342,594.224,-0.448751,0.0,0.0
627,156.5,57.778,61.0352,150.308,109.216,114.637,0.000598116,0.0567474,20.9342,594.214,-0.437876,0.0,0.0
630,157.25,57.0076,60.6972,150.133,109.216,114.996,0.000558887,0.056591,20.9343,594.194,-0.466142,0.0,0.0
633,158,57.6555,60.5478,148.528,109.213,114.635,0.00053477,0.0564769,20.9343,594.204,-0.438013,0.0,0.0
636,158.75,57.5181,60.5428,147.875,109.21,114.962,0.000524293,0.0563655,20.9343,594.184,-0.464032,0.0,0.0
639,159.5,57.3087,60.3786,150.111,109.212,114.734,0.000516655,0.0562723,20.9343,594.184,-0.445858,0.0,0.0
642,160.25,57.4463,61.0768,152.041,109.217,114.299,0.000521743,0.056164,20.935,594.154,-0.411203,0.0,0.0
645,161,57.0306,61.0067,154.032,109.2,113.608,0.00052873,0.0560426,20.9358,594.144,-0.357726,0.0,0.0
648,161.75,57.0754,60.3774,150.76,109.215,114.723,0.000539428,0.0559361,20.9363,594.154,-0.444765,0.0,0.0
651,162.5,56.9479,60.7982,149.908,109.211,114.007,0.00055249,0.0558287,20.9366,594.124,-0.388499,0.0,0.0
654,163.25,57.1682,60.7773,145.773,109.216,113.654,0.000562012,0.0556995,20.9367,594.124,-0.360026,0.0,0.0
657,164,56.9332,60.4808,147.812,109.211,112.728,0.000592057,0.055565,20.9368,594.094,-0.286524,0.0,0.0
660,164.75,57.1755,60.6822,152.036,109.203,112.936,0.000623801,0.0553953,20.9369,594.094,-0.303834,0.0,0.0
663,165.5,56.8255,60.5541,147.709,109.206,113.721,0.00066377,0.055241,20.9369,594.074,-0.366294,0.0,0.0
666,166.25,57.0799,60.4503,151.869,109.237,113.723,0.000712475,0.0551144,20.937,594.074,-0.363851,0.0,0.0
669,167,57.0729,60.2415,152.491,109.212,113.413,0.00075297,0.055016,20.937,594.104,-0.341228,0.0,0.0
672,167.75,56.9267,60.2857,150.225,109.21,114.164,0.000784617,0.0550048,20.937,594.104,-0.401071,0.0,0.0
675,168.5,57.1136,60.4022,149.488,109.206,114.243,0.000820146,0.0549401,20.937,594.114,-0.40764,0.0,0.0
678,169.25,56.8245,60.3158,150.079,109.223,113.915,0.000849789,0.0548614,20.937,594.094,-0.380209,0.0,0.0
681,170,57.1927,60.2479,151.791,109.234,113.888,0.000875298,0.0547913,20.937,594.114,-0.377162,0.0,0.0
684,170.75,56.9046,60.2441,152.178,109.235,113.646,0.000879235,0.0547261,20.9375,594.104,-0.357847,0.0,0.0
687,171.5,56.5183,60.269,146.842,109.241,113.444,0.000883783,0.0546428,20.938,594.074,-0.341271,0.0,0.0
690,172.25,57.0272,60.1897,153.517,109.268,113.279,0.000887098,0.0545313,20.9377,594.074,-0.325885,0.0,0.0
693,173,56.9164,60.0956,146.938,109.252,114.528,0.000899546,0.0543878,20.9379,594.034,-0.426329,0.0,0.0
696,173.75,57.0509,59.8867,150.125,109.259,113.92,0.000916182,0.0543001,20.9385,594.064,-0.377641,0.0,0.0
699,174.5,56.9917,60.0905,147.923,109.262,114.46,0.000933926,0.0541605,20.939,594.044,-0.420136,0.0,0.0
702,175.25,56.6621,60.1153,150.344,109.27,114.414,0.00093796,0.0539893,20.9393,594.004,-0.415878,0.0,0.0
705,176,56.817,59.9639,146.803,109.281,115.2,0.000926662,0.0538349,20.9396,594.044,-0.476834,0.0,0.0
708,176.75,56.6471,59.8896,144.442,109.288,114.261,0.000918427,0.0537021,20.9398,594.014,-0.402265,0.0,0.0
711,177.5,56.6717,60.2465,146.282,109.264,113.951,0.000876843,0.0535771,20.9399,594.014,-0.379724,0.0,0.0
714,178.25,56.9856,59.982,150.089,109.27,114.451,0.000835308,0.0534591,20.94,594.024,-0.418754,0.0,0.0
717,179,56.6622,60.059,147.564,109.27,114.376,0.000795654,0.0533476,20.9401,594.054,-0.412841,0.0,0.0
720,179.75,57.0552,59.9548,149.991,109.268,114.86,0.000758894,0.0532664,20.9401,594.024,-0.451193,0.0,0.0
723,180.5,57.0266,59.6813,148.235,109.266,114.375,0.00072321,0.0532294,20.9401,594.034,-0.413095,0.0,0.0
726,181.25,56.5499,59.7449,152.484,109.27,114.389,0.000685984,0.0532406,20.9402,594.004,-0.41392,0.0,0.0
729,182,56.7473,59.716,153.719,109.281,113.837,0.000654066,0.0532629,20.9402,594.004,-0.369262,0.0,0.0
732,182.75,56.8572,60.2251,149.826,109.272,113.946,0.000617011,0.0532926,20.9402,593.953,-0.37866,0.0,0.0
735,183.5,56.9813,59.8528,148.251,109.275,113.866,0.000566424,0.0533269,20.9405,593.984,-0.372026,0.0,0.0
738,184.25,56.9903,59.8426,150.092,109.269,114.554,0.000529545,0.0532513,20.9408,594.014,-0.426935,0.0,0.0
741,185,56.9,59.8208,148.662,109.261,114.296,0.000474264,0.0531962,20.9408,593.974,-0.407261,0.0,0.0
744,185.75,56.6802,59.557,145.56,109.254,115.403,0.000403609,0.0530956,20.9407,593.943,-0.494931,0.0,0.0
747,186.5,56.2097,59.7711,152.485,109.249,114.281,0.000365937,0.0530222,20.9407,593.923,-0.407084,0.0,0.0
750,187.25,57.0062,59.5778,150.805,109.242,113.799,0.000310654,0.0530075,20.9407,593.953,-0.369475,0.0,0.0
753,188,56.7076,59.8859,148.895,109.246,113.48,0.000265035,0.052967,20.9407,593.933,-0.343764,0.0,0.0
756,188.75,56.7919,59.9225,146.102,109.241,113.588,0.000241722,0.0528867,20.9407,593.933,-0.352783,0.0,0.0
759,189.5,56.2833,59.7822,147.075,109.238,113.826,0.000239438,0.0527879,20.9407,593.883,-0.371857,0.0,0.0
762,190.25,56.3994,59.7227,149.199,109.258,114.018,0.000255679,0.0527308,20.9407,593.873,-0.385495,0.0,0.0
765,191,56.513,59.5819,150.104,109.251,114.073,0.000291101,0.0527145,20.9407,593.883,-0.390487,0.0,0.0
768,191.75,56.674,59.5389,151.22,109.251,113.931,0.000357247,0.0527026,20.9407,593.893,-0.37918,0.0,0.0
771,192.5,56.4975,59.7819,150.221,109.25,113.641,0.000441006,0.0526234,20.9412,593.883,-0.356198,0.0,0.0
774,193.25,57.0432,59.1793,147.406,109.243,113.674,0.000502091,0.0525356,20.9417,593.873,-0.359434,0.0,0.0
777,194,56.4546,59.5282,153.071,109.244,114.624,0.000546664,0.0525319,20.942,593.863,-0.434569,0.0,0.0
780,194.75,56.6945,59.8654,149.909,109.241,114.25,0.00054926,0.0525293,20.9424,593.863,-0.405308,0.0,0.0
783,195.5,56.628,59.4678,149.695,109.233,114.894,0.000523995,0.0525273,20.9428,593.833,-0.456759,0.0,0.0
786,196.25,57.0108,59.3266,147.44,109.223,113.806,0.000480931,0.0525058,20.9431,593.833,-0.371537,0.0,0.0
789,197,56.7282,59.6675,149.714,109.248,113.87,0.000422922,0.0524832,20.9433,593.833,-0.37458,0.0,0.0
792,197.75,56.4528,59.4269,148.692,109.238,113.701,0.000380634,0.052455,20.9435,593.803,-0.361932,0.0,0.0
795,198.5,56.8559,59.722,149.919,109.22,115.091,0.000324979,0.0524204,20.9436,593.813,-0.473359,0.0,0.0
798,199.25,56.7218,59.5555,154.08,109.23,113.495,0.000288332,0.0523891,20.9437,593.793,-0.346292,0.0,0.0
801,200,56.6347,59.5919,149.414,109.229,114.04,0.000268329,0.0523663,20.9437,593.783,-0.389715,0.0,0.0
804,200.75,56.4713,59.6236,150.053,109.245,113.572,0.000283903,0.0523073,20.9438,593.793,-0.351129,0.0,0.0
807,201.5,56.6113,59.3426,149.618,109.228,113.83,0.000315166,0.0522463,20.9438,593.793,-0.373058,0.0,0.0
810,202.25,56.5749,59.3778,148.254,109.232,113.934,0.000352997,0.0522018,20.9438,593.803,-0.381037,0.0,0.0
813,203,57.2125,59.95,149.677,109.249,114.642,0.00039178,0.0521471,20.9439,593.783,-0.435598,0.0,0.0
816,203.75,56.629,59.2787,148.586,109.249,114.224,0.000423789,0.0520691,20.9439,593.763,-0.402566,0.0,0.0
819,204.5,56.6488,59.2523,150.561,109.239,113.158,0.000448715,0.0519921,20.9439,593.733,-0.318578,0.0,0.0
822,205.25,56.742,59.5415,146.929,109.241,114.554,0.000466887,0.0519783,20.9439,593.753,-0.429244,0.0,0.0
825,206,56.3602,59.37,149.661,109.233,114.038,0.000480789,0.0520012,20.9439,593.773,-0.389184,0.0,0.0
828,206.75,56.5675,59.7343,151.994,109.247,114.547,0.000498599,0.0520432,20.9438,593.743,-0.428246,0.0,0.0
831,207.5,56.7841,59.1883,152.565,109.232,113.904,0.000522792,0.0520739,20.9436,593.713,-0.378629,0.0,0.0
834,208.25,56.5835,59.3551,153.954,109.228,114.291,0.000552888,0.0520962,20.9435,593.653,-0.409571,0.0,0.0
837,209,56.7494,59.4997,153.135,109.24,113.01,0.000579484,0.0521125,20.9434,593.683,-0.306702,0.0,0.0
840,209.75,56.1763,59.5774,146.693,109.231,113.451,0.000592292,0.0520037,20.9434,593.693,-0.342674,0.0,0.0
843,210.5,56.3478,59.3889,145.607,109.231,113.853,0.000579501,0.0519243,20.9433,593.703,-0.374689,0.0,0.0
846,211.25,56.4645,59.4295,150.947,109.226,114.05,0.000542695,0.0518813,20.9433,593.703,-0.390656,0.0,0.0
849,212,56.5683,59.1928,149.377,109.207,113.827,0.000523883,0.0518753,20.9433,593.663,-0.374581,0.0,0.0
852,212.75,56.364,59.561,150.435,109.212,113.78,0.000485972,0.0518582,20.9433,593.703,-0.370365,0.0,0.0
855,213.5,56.5363,58.764,149.111,109.208,114.582,0.000455367,0.0517766,20.9433,593.723,-0.434268,0.0,0.0
858,214.25,56.6759,59.4635,148.354,109.198,114.316,0.000439775,0.0516984,20.9433,593.713,-0.414024,0.0,0.0
861,215,56.889,59.2037,149.327,109.204,113.991,0.000432995,0.0516725,20.9433,593.693,-0.38788,0.0,0.0
864,215.75,56.2922,58.6497,148.966,109.196,114.521,0.000435892,0.0516426,20.9433,593.703,-0.430391,0.0,0.0
867,216.5,56.4852,59.4235,144.839,109.207,114.577,0.000434454,0.0516007,20.9432,593.703,-0.433943,0.0,0.0
870,217.25,56.1572,58.8079,151.981,109.195,113.976,0.000429672,0.0515702,20.9432,593.713,-0.387374,0.0,0.0
873,218,56.5024,59.1656,148.721,109.184,113.954,0.000421974,0.0515479,20.9432,593.723,-0.386562,0.0,0.0
876,218.75,56.6276,59.2044,144.272,109.192,113.935,0.000411882,0.0515458,20.9432,593.703,-0.384377,0.0,0.0
879,219.5,56.8961,58.5434,150.287,109.202,113.744,0.000396012,0.051528,20.9432,593.683,-0.368392,0.0,0.0
882,220.25,56.276,59.7184,146.123,109.186,113.294,0.000369886,0.0514769,20.9432,593.643,-0.333875,0.0,0.0
885,221,56.4654,59.3264,149.439,109.201,113.998,0.000341971,0.0514598,20.9432,593.673,-0.388698,0.0,0.0
888,221.75,56.5069,59.1374,149.196,109.195,113.399,0.000321621,0.0514614,20.9432,593.663,-0.341534,0.0,0.0
891,222.5,56.7837,59.4315,148.658,109.197,114.698,0.000308094,0.0514686,20.9432,593.653,-0.444313,0.0,0.0
894,223.25,56.4484,59.1147,146.2,109.201,114.031,0.000300472,0.0514739,20.9432,593.643,-0.391227,0.0,0.0
897,224,56.7965,59.6211,153.287,109.179,113.265,0.000298464,0.0514495,20.9432,593.663,-0.332166,0.0,0.0
900,224.75,56.5238,59.132,148.611,109.18,113.889,0.00029831,0.0514197,20.9432,593.643,-0.381716,0.0,0.0
903,225.5,56.3158,59.7626,149.018,109.176,114.441,0.000300436,0.0514181,20.9432,593.653,-0.425809,0.0,0.0
906,226.25,56.6914,59.338,151.508,109.175,114.315,0.000300677,0.051431,20.9432,593.603,-0.415891,0.0,0.0
909,227,56.5005,59.2767,151.587,109.158,113.928,0.000298613,0.051439,20.9432,593.623,-0.386644,0.0,0.0
912,227.75,56.6145,59.2598,151.909,109.164,114.485,0.000286466,0.0514322,20.9432,593.643,-0.430274,0.0,0.0
915,228.5,56.932,59.5067,149.743,109.152,114.387,0.000277611,0.0514495,20.9432,593.643,-0.423439,0.0,0.0
918,229.25,56.8818,58.9305,149.905,109.159,113.14,0.000266181,0.0515001,20.9432,593.613,-0.323807,0.0,0.0
921,230,56.7125,59.1718,147.955,109.149,113.882,0.000257692,0.0514948,20.944,593.583,-0.383686,0.0,0.0
924,230.75,56.875,59.2893,151.472,109.151,113.947,0.00025486,0.0514431,20.9445,593.553,-0.388752,0.0,0.0
927,231.5,56.7147,59.1293,149.856,109.166,114.058,0.000261665,0.0513547,20.9449,593.573,-0.396249,0.0,0.0
930,232.25,56.7432,59.0581,151.972,109.171,114.27,0.000270356,0.0512828,20.9451,593.583,-0.412699,0.0,0.0
933,233,56.6554,59.6617,147.817,109.163,114.13,0.000278283,0.0512176,20.9453,593.593,-0.402275,0.0,0.0
936,233.75,56.179,59.4032,147.616,109.171,114.281,0.000290283,0.0511702,20.9455,593.603,-0.413465,0.0,0.0
939,234.5,56.235,59.5171,152.21,109.171,113.631,0.000302337,0.051143,20.9456,593.583,-0.361921,0.0,0.0
942,235.25,56.4633,59.3988,151.713,109.186,113.875,0.000312243,0.0511359,20.9457,593.583,-0.380119,0.0,0.0
945,236,56.6297,59.3047,148.406,109.17,113.815,0.000310528,0.0511709,20.9457,593.583,-0.376702,0.0,0.0
948,236.75,56.7582,58.9944,152.729,109.175,114.71,0.000306005,0.0511891,20.9455,593.553,-0.447103,0.0,0.0
951,237.5,56.8055,58.9286,147.045,109.182,113.884,0.00029711,0.0511896,20.9454,593.543,-0.381171,0.0,0.0
954,238.25,56.8331,59.1272,148.346,109.184,114.539,0.000287079,0.05119,20.9453,593.553,-0.432778,0.0,0.0
957,239,56.12,59.1246,149.52,109.189,115.062,0.000288472,0.05116,20.9452,593.533,-0.473585,0.0,0.0
960,239.75,56.7089,59.2157,147.329,109.175,114.459,0.000293199,0.0510864,20.9452,593.543,-0.42728,0.0,0.0
963,240.5,56.6546,59.5627,145.353,109.185,113.783,0.000306597,0.0510327,20.9451,593.543,-0.372881,0.0,0.0
966,241.25,56.6993,58.8345,155.641,109.198,113.719,,0.0509936,,593.533,-0.366753,0.0,0.0
969,242,56.7618,58.9578,145.823,109.189,113.779,,0.0509651,,593.513,-0.372269,0.0,0.0
972,242.75,56.4186,59.1669,150.081,109.175,114.723,,0.0509443,,593.513,-0.4481,0.0,0.0
975,243.5,56.6023,58.6737,152.302,109.186,114.246,,0.0509292,,593.513,-0.409457,0.0,0.0
978,244.25,56.4194,59.0636,149.737,109.208,114.047,,,,593.523,-0.391923,0.0,0.0
981,245,56.5481,59.186,148.113,109.208,113.641,,,,593.513,-0.359717,0.0,0.0
984,245.75,56.681,59.0526,149.091,109.2,114.08,,,,593.493,-0.395265,0.0,0.0
987,246.5,56.5458,59.1213,149.378,109.195,114.018,,,,593.513,-0.390738,0.0,0.0
990,247.25,56.6188,59.1821,151.561,109.198,114.821,,,,593.483,-0.453846,0.0,0.0
993,248,56.5634,59.2859,145.198,109.213,114.318,,,,593.463,-0.412973,0.0,0.0
996,248.75,56.3895,59.1542,151.576,109.211,114.333,,,,593.463,-0.41432,0.0,0.0
999,249.5,56.9029,58.9872,149.344,109.211,114.138,,,,593.453,-0.398874,0.0,0.0
1002,250.25,56.5411,58.8297,150.082,109.209,114.125,,,,593.463,-0.398096,0.0,0.0
1005,251,56.2276,59.0058,150.619,109.222,113.779,,,,593.453,-0.369482,0.0,0.0
1008,251.75,56.7004,58.6988,149.353,109.201,114.065,,,,593.433,-0.393989,0.0,0.0
1009,252,56.9355,59.0123,148.522,109.244,113.989,,,,593.443,-0.384382,0.0,0.0