File: 01_Data/Rug_Pad/Cone/Rug_Pad_Cone_HF75Scan_220920_R3.csv
Names,Time,Stack TC,Smoke TC,Exh Press,Smoke Comp,Smoke Meas,CO Meter,CO2 Meter,O2 Meter,Sample Mass,Ext Coeff,Start Test,Flame Verif
Chan Gain,,500,500,1,1,1,1,1,1,1,1,1.0,1.0
Offset,,0,0,0.143022,0,0,0,0,0,0,0,0.0,0.0
Gain,,1,1,25.011,14.5176,16.5692,1,1,1,1.00088,1.03055,1.0,1.0
Units,sec,C,C,Pa,%,%,%,%,%,g,/m,,
Baseline,,58.8523,60.9562,151.075,110.704,115.587,-0.000928744,0.0450158,20.953,-448.383,-0.390055,,
2,0.25,57.4015,59.6506,149.64,110.956,116.408,-0.000822072,0.0451705,20.9512,590.871,-0.433615,0.0,0.0
4,0.75,56.6279,59.2389,154.39,110.939,115.686,-0.000786591,0.0452152,20.9512,591.041,-0.378778,0.0,0.0
6,1.25,57.1599,59.4359,151.07,110.952,116.482,-0.000669676,0.0453107,20.9509,590.771,-0.439671,0.0,0.0
8,1.75,56.7996,59.3476,145.183,110.937,115.453,-0.000574975,0.0454414,20.9505,591.001,-0.360726,0.0,0.0
10,2.25,57.1311,59.0852,149.131,110.951,115.776,-0.000345312,0.0461407,20.9502,590.931,-0.384794,0.0,0.0
12,2.75,57.0595,59.4176,150.941,110.945,114.085,-0.000159286,0.0472414,20.9473,590.921,-0.252262,0.0,0.0
14,3.25,56.8492,59.3255,149.938,110.953,112.372,0.000152732,0.0481329,20.9449,590.921,-0.114913,0.0,0.0
16,3.75,57.15,59.1713,150.015,110.948,112.592,0.000550669,0.0551466,20.9319,590.801,-0.132911,0.0,1.0
18,4.25,57.1962,59.7419,144.446,110.947,110.641,0.001029,0.0608278,20.9214,590.841,0.0249044,0.0,1.0
20,4.75,57.1659,59.7517,141.615,110.936,100.997,0.00155686,0.0719647,20.8868,590.711,0.848534,0.0,1.0
22,5.25,57.5712,59.7691,139.035,110.956,96.243,0.00214568,0.0868674,20.8588,590.941,1.28595,0.0,1.0
24,5.75,57.9365,59.6421,142.324,110.935,94.0414,0.00276777,0.105406,20.8157,590.851,1.49349,0.0,1.0
26,6.25,58.1935,59.8407,139.932,110.957,91.3868,0.00327166,0.126243,20.7809,590.611,1.75415,0.0,1.0
28,6.75,58.8902,60.4337,138.022,110.94,92.5922,0.00404662,0.14832,20.738,590.651,1.63431,0.0,1.0
30,7.25,59.2074,59.8406,132.916,110.957,91.9784,0.00467433,0.170883,20.7033,590.57,1.69578,0.0,1.0
32,7.75,58.6038,59.5511,137.237,110.962,89.5017,0.005438,0.193755,20.6752,590.48,1.94293,0.0,1.0
34,8.25,58.6207,58.987,139.063,110.953,88.4358,0.00628627,0.216417,20.6387,590.48,2.05051,0.0,1.0
36,8.75,58.6227,59.6156,133.933,110.934,81.0766,0.00713879,0.239302,20.6092,590.39,2.83437,0.0,0.0
38,9.25,59.234,60.2844,135.036,110.952,84.4755,0.00797823,0.261914,20.5716,590.37,2.46457,0.0,0.0
40,9.75,59.6155,60.7458,139.751,110.943,81.7278,0.00882559,0.280229,20.5411,590.26,2.76281,0.0,0.0
42,10.25,60.1704,61.0521,136.458,110.971,79.2926,0.00966264,0.302205,20.4973,590.24,3.03857,0.0,0.0
44,10.75,60.6987,61.1297,122.983,110.942,75.163,0.0105235,0.326432,20.4619,590.17,3.51966,0.0,0.0
46,11.25,61.3767,61.6605,132.814,110.955,72.6463,0.0113852,0.346056,20.4333,590.07,3.82861,0.0,0.0
48,11.75,61.9791,62.2315,124.359,110.942,72.8264,0.0117526,0.372842,20.4108,590.02,3.80519,0.0,0.0
50,12.25,62.3211,62.9029,132.647,110.948,76.4084,0.0123809,0.394538,20.3724,589.92,3.37157,0.0,0.0
52,12.75,63.0585,62.9887,131.107,110.944,71.2695,0.0134454,0.420886,20.3412,589.93,4.00068,0.0,0.0
54,13.25,63.8701,63.5453,127.429,110.965,72.5255,0.0143076,0.442229,20.3036,589.86,3.84445,0.0,0.0
56,13.75,64.6404,64.5337,121.223,110.952,71.7948,0.0153817,0.468387,20.2732,589.78,3.9349,0.0,0.0
58,14.25,65.3573,65.0284,127.612,110.951,73.2359,0.0162516,0.489574,20.2357,589.73,3.75517,0.0,0.0
60,14.75,65.8121,65.6625,126.665,110.948,68.7063,0.0169563,0.498607,20.2053,589.71,4.33211,0.0,0.0
62,15.25,66.5858,66.232,123.365,110.946,64.0265,0.0179045,0.526022,20.1726,589.65,4.96964,0.0,0.0
64,15.75,67.3253,66.7971,123.574,110.948,67.4523,0.0186726,0.548228,20.1389,589.53,4.49863,0.0,0.0
66,16.25,68.2012,68.0622,130.551,110.955,66.4162,0.0194577,0.569974,20.1116,589.49,4.63911,0.0,0.0
68,16.75,69.0478,68.2867,119.828,110.937,63.0597,0.0200937,0.590972,20.0824,589.399,5.1065,0.0,0.0
70,17.25,69.7215,69.3123,124.204,110.951,65.3129,0.0206088,0.60798,20.0587,589.319,4.79025,0.0,0.0
72,17.75,70.6307,69.9235,121.415,110.951,67.4685,0.0210897,0.624487,20.0396,589.159,4.49672,0.0,0.0
74,18.25,71.3292,70.1278,121.985,110.952,67.2632,0.0214793,0.637858,20.0241,589.099,4.52437,0.0,0.0
76,18.75,72.0905,71.229,124.387,110.944,69.4011,0.0217229,0.647557,20.0115,589.059,4.2408,0.0,0.0
78,19.25,72.8819,71.6432,126.695,110.947,66.4481,0.0219201,0.654396,20.0013,588.959,4.63412,0.0,0.0
80,19.75,72.666,72.3062,129.98,110.95,66.7353,0.0218935,0.657244,19.9977,588.919,4.59542,0.0,0.0
82,20.25,73.9122,73.0059,126.889,110.948,72.3662,0.0217404,0.657128,19.999,588.839,3.86299,0.0,0.0
84,20.75,73.8785,73.6914,125.894,110.942,68.2563,0.021498,0.657035,20.0138,588.769,4.39101,0.0,0.0
86,21.25,74.598,74.1546,129.2,110.947,72.7611,0.0213016,0.649904,20.0257,588.669,3.81369,0.0,0.0
88,21.75,75.1484,74.6345,131.275,110.942,72.2236,0.0209095,0.644127,20.0354,588.599,3.88032,0.0,0.0
90,22.25,75.8272,75.3149,129.168,110.948,70.4574,0.0203821,0.63047,20.0601,588.659,4.10461,0.0,0.0
92,22.75,75.6765,75.9356,135.031,110.958,73.1808,0.0197717,0.619407,20.08,588.629,3.76256,0.0,0.0
94,23.25,75.9554,76.2866,132.019,110.955,74.6462,0.0191123,0.601205,20.1039,588.529,3.58312,0.0,0.0
96,23.75,76.1756,76.0432,132.339,110.963,73.6288,0.0185782,0.586461,20.1301,588.469,3.70782,0.0,0.0
98,24.25,76.3332,77.2205,130.583,110.956,76.102,0.0176751,0.569278,20.1586,588.469,3.40862,0.0,0.0
100,24.75,76.7087,76.978,135.098,110.944,79.0545,0.0169437,0.550643,20.1882,588.459,3.06353,0.0,0.0
102,25.25,76.7252,77.5711,131.863,110.949,79.6557,0.0159611,0.530484,20.2219,588.469,2.99543,0.0,0.0
104,25.75,76.8595,77.4538,139.222,110.951,81.6181,0.0151651,0.509598,20.258,588.449,2.7756,0.0,0.0
106,26.25,76.7666,77.7537,134.166,110.954,86.1745,0.0141197,0.492681,20.2962,588.379,2.28477,0.0,0.0
108,26.75,77.1143,77.7542,143.019,110.968,90.065,0.0132729,0.473732,20.335,588.469,1.88668,0.0,0.0
110,27.25,77.0528,77.6074,142.129,110.939,92.0947,0.0123666,0.453662,20.3664,588.359,1.68291,0.0,0.0
112,27.75,77.0975,77.755,144.011,110.954,94.6123,0.0114342,0.433359,20.403,588.308,1.44029,0.0,0.0
114,28.25,77.1309,78.2649,138.463,110.943,96.9621,0.010679,0.413272,20.4326,588.299,1.21762,0.0,0.0
116,28.75,76.3642,78.3618,137.677,110.949,98.7405,0.00984521,0.393799,20.4566,588.279,1.05386,0.0,0.0
118,29.25,76.3853,77.8624,140.088,110.943,103.722,0.00897001,0.375144,20.487,588.198,0.608451,0.0,0.0
120,29.75,76.245,77.8781,142.667,110.958,104.431,0.00804235,0.357363,20.5157,588.158,0.548022,0.0,0.0
122,30.25,76.8741,78.1038,141.526,110.937,107.06,0.00729095,0.340558,20.5425,588.188,0.321578,0.0,0.0
124,30.75,76.2267,78.3701,145.856,110.955,108.811,0.0066117,0.326946,20.5642,588.168,0.176362,0.0,0.0
126,31.25,76.3075,78.4096,141.815,110.941,109.544,0.00599794,0.310529,20.5884,588.148,0.11457,0.0,0.0
128,31.75,76.0329,77.8205,144.736,110.945,109.931,0.00546625,0.297231,20.6112,588.118,0.0830345,0.0,0.0
130,32.25,75.9354,78.532,148.147,110.948,110.431,0.00500448,0.28461,20.6327,588.088,0.0422567,0.0,0.0
132,32.75,75.6921,78.0095,144.898,110.947,111.419,0.00462248,0.272721,20.6519,588.098,-0.0383786,0.0,0.0
134,33.25,75.4141,77.7715,147.395,110.939,112.635,0.00430589,0.261937,20.6692,588.068,-0.137197,0.0,0.0
136,33.75,75.3335,77.7027,145.191,110.949,111.924,0.00405211,0.252162,20.6832,588.058,-0.0790899,0.0,0.0
138,34.25,75.1442,77.9887,144.007,110.947,113.178,0.00394518,0.243353,20.6891,588.048,-0.180028,0.0,0.0
140,34.75,75.2766,77.8945,141.744,110.95,112.743,0.00376232,0.235417,20.7007,588.058,-0.144975,0.0,0.0
142,35.25,75.1716,77.3528,146.858,110.939,113.208,0.00361421,0.228357,20.7159,588.048,-0.182983,0.0,0.0
144,35.75,74.2573,77.7958,145.44,110.955,113.191,0.00348226,0.222071,20.72,588.078,-0.180392,0.0,0.0
146,36.25,74.7433,77.6442,145.831,110.945,112.468,0.00336461,0.216469,20.7277,588.058,-0.123248,0.0,0.0
148,36.75,74.7429,77.663,143.437,110.967,113.19,0.00325407,0.211473,20.734,588.028,-0.179332,0.0,0.0
150,37.25,74.8153,77.0115,144.991,110.945,111.929,0.0031508,0.209344,20.7408,588.028,-0.0798596,0.0,0.0
152,37.75,74.0627,77.5192,145.842,110.964,112.859,0.00306715,0.205702,20.7463,588.008,-0.153022,0.0,0.0
154,38.25,73.8759,77.04,146.228,110.943,113.065,0.00295283,0.19976,20.7518,587.988,-0.171301,0.0,0.0
156,38.75,74.2701,77.282,145.487,110.949,112.848,0.00286023,0.197889,20.757,587.948,-0.153358,0.0,0.0
158,39.25,74.4771,77.1563,144.482,110.938,113.323,0.00274249,0.194689,20.7621,587.958,-0.192257,0.0,0.0
160,39.75,73.8151,77.4721,146.835,110.948,112.894,0.00264711,0.191392,20.7672,587.958,-0.157229,0.0,0.0
162,40.25,74.0793,77.0886,145.778,110.943,113.2,0.00252717,0.188722,20.7712,587.928,-0.182013,0.0,0.0
164,40.75,73.8537,76.4586,145.914,110.95,112.855,0.00243002,0.186184,20.7745,587.878,-0.15389,0.0,0.0
166,41.25,73.3197,77.085,143.779,110.937,112.25,0.00231495,0.184128,20.7772,587.928,-0.106328,0.0,0.0
168,41.75,73.5488,76.6457,145.832,110.955,112.811,0.00222175,0.182149,20.7794,587.858,-0.149932,0.0,0.0
170,42.25,73.4638,76.7079,144.178,110.934,113.192,0.00212779,0.180546,20.7811,587.748,-0.182206,0.0,0.0
172,42.75,73.135,76.4606,145.551,110.944,113.335,0.00203506,0.179008,20.783,587.808,-0.192716,0.0,0.0
174,43.25,72.8842,75.8009,141.721,110.932,112.853,0.00195533,0.177762,20.7845,587.878,-0.155208,0.0,0.0
176,43.75,72.95,76.2198,147.877,110.956,113.115,0.0018866,0.176604,20.7857,587.818,-0.174143,0.0,0.0
178,44.25,73.0574,76.5272,146.335,110.919,112.935,0.00183093,0.175665,20.7867,587.798,-0.162814,0.0,0.0
180,44.75,72.2658,76.6407,145.48,110.945,113.735,0.00178083,0.174827,20.7877,587.718,-0.224453,0.0,0.0
182,45.25,72.7921,75.8577,143.384,110.925,112.196,0.00174025,0.174076,20.7888,587.748,-0.103016,0.0,0.0
184,45.75,72.4183,75.7804,145.484,110.934,113.868,0.00169987,0.173469,20.7896,587.718,-0.235996,0.0,0.0
186,46.25,72.3962,75.723,144.475,110.926,113.517,0.00166716,0.172872,20.7903,587.678,-0.208667,0.0,0.0
188,46.75,72.2585,76.0744,146.752,110.949,111.479,0.00163539,0.172389,20.7909,587.658,-0.0430783,0.0,0.0
190,47.25,72.2802,75.8014,141.413,110.925,112.224,0.00160492,0.171803,20.7913,587.658,-0.105262,0.0,0.0
192,47.75,72.1833,75.7768,146.253,110.922,113.119,0.00157892,0.171329,20.7917,587.738,-0.177246,0.0,0.0
194,48.25,72.1227,75.7929,143.496,110.917,112.382,0.00155668,0.170921,20.792,587.708,-0.118688,0.0,0.0
196,48.75,71.9546,75.8622,147.878,110.925,112.503,0.00153866,0.17057,20.7922,587.718,-0.127713,0.0,0.0
198,49.25,72.0582,75.7066,145.201,110.918,111.943,0.00153262,0.170403,20.7924,587.718,-0.0831642,0.0,0.0
200,49.75,72.2402,75.6232,148.752,110.936,111.738,0.00153545,0.170374,20.7917,587.648,-0.0651671,0.0,0.0
202,50.25,71.5812,75.3881,143.415,110.912,112.427,0.00154894,0.170397,20.7911,587.628,-0.122627,0.0,0.0
204,50.75,71.7287,75.4881,144.86,110.942,110.204,0.00156995,0.170459,20.7906,587.608,0.0603508,0.0,0.0
206,51.25,71.5166,75.3853,143.496,110.915,111.255,0.0015962,0.170509,20.7902,587.598,-0.0276757,0.0,0.0
208,51.75,71.1719,75.1561,148.373,110.921,112.094,0.00162577,0.170161,20.7899,587.558,-0.0950715,0.0,0.0
210,52.25,71.4433,75.5227,147.997,110.913,111.084,0.00165104,0.169879,20.7897,587.558,-0.0138815,0.0,0.0
212,52.75,71.4398,75.1055,143.927,110.923,111.407,0.0016727,0.169392,20.7903,587.568,-0.0393434,0.0,0.0
214,53.25,71.2371,74.9813,148.698,110.91,111.569,0.00168826,0.168765,20.7909,587.558,-0.0535517,0.0,0.0
216,53.75,71.5812,75.3351,143.402,110.919,110.424,0.00169909,0.168022,20.7922,587.548,0.0404481,0.0,0.0
218,54.25,71.1476,75.3308,146.104,110.911,111.342,0.0017066,0.167208,20.7933,587.538,-0.0351006,0.0,0.0
220,54.75,70.9514,74.9068,148.334,110.914,111.911,0.00171269,0.166353,20.7942,587.538,-0.0808751,0.0,0.0
222,55.25,70.7196,74.8934,145.245,110.909,111.213,0.00171762,0.165485,20.7949,587.528,-0.0247344,0.0,0.0
224,55.75,70.7486,74.9857,146.068,110.917,112.721,0.00171304,0.164664,20.7954,587.548,-0.145826,0.0,0.0
226,56.25,70.9871,74.7509,145.66,110.915,111.444,0.00170162,0.163894,20.7959,587.498,-0.0430285,0.0,0.0
228,56.75,70.5808,74.5546,143.069,110.907,110.896,0.00168051,0.163192,20.7963,587.488,0.000897631,0.0,0.0
230,57.25,70.7806,74.8482,145.075,110.9,110.575,0.00165273,0.162553,20.7966,587.458,0.0265324,0.0,0.0
232,57.75,70.4175,74.4402,147.124,110.918,109.877,0.00163022,0.162035,20.7968,587.448,0.0852766,0.0,0.0
234,58.25,70.7064,74.347,149.639,110.902,110.228,0.0015758,0.161497,20.797,587.428,0.0551104,0.0,0.0
236,58.75,70.7519,74.7474,147.553,110.908,111.372,0.00149913,0.161061,20.7974,587.448,-0.0376984,0.0,0.0
238,59.25,70.6546,74.7196,145.339,110.908,111.719,0.00143702,0.160591,20.7978,587.468,-0.0658873,0.0,0.0
240,59.75,70.8881,74.6374,147.53,110.907,109.995,0.00131806,0.160105,20.7984,587.468,0.0746506,0.0,0.0
242,60.25,70.2148,74.6446,144.335,110.906,111.292,0.00122171,0.159711,20.799,587.478,-0.031356,0.0,0.0
244,60.75,71.0185,74.6512,143.539,110.912,110.996,0.00109505,0.159213,20.7996,587.418,-0.00682728,0.0,0.0
246,61.25,70.2315,74.3873,144.826,110.904,110.047,0.000992459,0.158648,20.8,587.398,0.0701125,0.0,0.0
248,61.75,70.6599,74.2874,146.632,110.899,111.279,0.000879481,0.15819,20.8008,587.378,-0.0308662,0.0,0.0
250,62.25,70.1442,74.5182,142.033,110.907,110.63,0.000787968,0.157331,20.8019,587.368,0.0226,0.0,0.0
252,62.75,70.2824,74.1994,148.225,110.908,111.49,0.000713843,0.156635,20.8028,587.368,-0.047333,0.0,0.0
254,63.25,70.2528,74.3305,142.509,110.9,111.423,0.000650067,0.155657,20.8038,587.358,-0.0425288,0.0,0.0
256,63.75,70.4354,74.4935,148.999,110.898,112.222,0.000598409,0.154865,20.8047,587.338,-0.107261,0.0,0.0
258,64.25,70.0268,74.267,147.916,110.9,112.112,0.000566523,0.153905,20.806,587.338,-0.0982733,0.0,0.0
260,64.75,69.7966,74.1273,144.282,110.894,111.56,0.000540695,0.15284,20.8074,587.298,-0.0541506,0.0,0.0
262,65.25,70.5188,74.1349,143.594,110.89,112.685,0.000532224,0.151629,20.809,587.288,-0.145144,0.0,0.0
264,65.75,69.8332,74.4084,145.844,110.891,112.497,0.000525362,0.150334,20.8108,587.278,-0.129974,0.0,0.0
266,66.25,69.8934,73.9233,144.36,110.907,112.056,0.000527013,0.149285,20.8122,587.268,-0.0932094,0.0,0.0
268,66.75,70.1181,74.37,145.395,110.916,112.617,0.00053484,0.148203,20.8138,587.248,-0.137577,0.0,0.0
270,67.25,69.4221,74.3474,140.985,110.888,112.942,0.000545769,0.147117,20.8151,587.1875,-0.165913,0.0,0.0
272,67.75,69.545,74.4052,146.828,110.881,112.355,0.000558752,0.14606,20.817,587.148,-0.119416,0.0,0.0
274,68.25,69.9691,73.7203,144.665,110.89,113.395,0.00057058,0.145043,20.8185,587.168,-0.201883,0.0,0.0
276,68.75,69.6981,73.7063,144.419,110.883,113.244,0.000581341,0.14422,20.8207,587.177,-0.190436,0.0,0.0
278,69.25,70.0205,73.7451,147.202,110.884,113.928,0.000590058,0.143098,20.8224,587.148,-0.244813,0.0,0.0
280,69.75,69.1702,73.9813,145.797,110.863,112.379,0.000597118,0.142189,20.8238,587.148,-0.12285,0.0,0.0
282,70.25,69.4847,73.9326,145.919,110.875,113.769,0.000600345,0.141013,20.8254,587.158,-0.232968,0.0,0.0
284,70.75,69.4245,73.8828,145.156,110.859,114.482,0.000601647,0.14006,20.8267,587.158,-0.290739,0.0,0.0
286,71.25,69.8775,73.3032,148.488,110.859,113.355,0.000601522,0.138864,20.8286,587.127,-0.201299,0.0,0.0
288,71.75,69.0926,73.6653,144.33,110.855,114.9,0.00060142,0.137895,20.8302,587.117,-0.324025,0.0,0.0
290,72.25,69.4621,73.4046,145.297,110.858,114.614,0.000601338,0.136833,20.8323,587.107,-0.301267,0.0,0.0
292,72.75,68.8307,73.5589,147.477,110.847,113.77,0.000601271,0.135723,20.8341,587.097,-0.23536,0.0,0.0
294,73.25,69.0569,73.4661,145.789,110.845,113.921,0.000602463,0.134824,20.8357,587.107,-0.247433,0.0,0.0
296,73.75,68.8332,73.4051,146.045,110.846,114.674,0.000603429,0.133526,20.8372,587.087,-0.306947,0.0,0.0
298,74.25,68.5637,73.6919,145.254,110.838,114.734,0.000606703,0.132475,20.8387,587.057,-0.312303,0.0,0.0
300,74.75,68.7127,73.3807,148.517,110.842,113.838,0.000609355,0.131215,20.8401,587.027,-0.241064,0.0,0.0
302,75.25,69.1703,72.5428,145.218,110.835,113.781,0.000620225,0.130195,20.8417,587.027,-0.23718,0.0,0.0
304,75.75,68.7394,73.1671,149.752,110.822,114.184,0.00062903,0.12896,20.8435,587.007,-0.27019,0.0,0.0
306,76.25,68.8689,73.0648,146.52,110.817,114.781,0.000636162,0.12796,20.8449,586.967,-0.317703,0.0,0.0
308,76.75,68.8512,73.1917,146.186,110.79,114.482,0.000649417,0.126656,20.8464,586.997,-0.296304,0.0,0.0
310,77.25,68.7022,72.7673,144.385,110.812,114.897,0.000660154,0.125599,20.8482,586.987,-0.327215,0.0,0.0
312,77.75,68.301,73.0012,145.077,110.799,114.862,0.000671344,0.124176,20.8495,587.017,-0.325554,0.0,0.0
314,78.25,68.3682,73.0696,147.391,110.81,115.756,0.000680408,0.123023,20.8511,586.997,-0.394777,0.0,0.0
316,78.75,68.5135,72.7752,149.45,110.789,114.216,0.00068775,0.121761,20.8528,586.977,-0.275462,0.0,0.0
318,79.25,67.9256,72.7948,144.405,110.8,114.983,0.000693696,0.120444,20.8547,586.997,-0.334991,0.0,0.0
320,79.75,67.9746,72.7435,147.979,110.782,115.229,0.000701006,0.119376,20.8561,586.977,-0.355773,0.0,0.0
322,80.25,68.4972,72.5939,146.961,110.786,115.32,0.000706927,0.118222,20.8573,586.947,-0.362626,0.0,0.0
324,80.75,67.7091,72.5242,145.681,110.774,115.574,0.000711722,0.117026,20.8592,586.947,-0.383403,0.0,0.0
326,81.25,68.3247,72.2226,144.587,110.791,115.853,0.000709703,0.115806,20.8607,586.947,-0.40391,0.0,0.0
328,81.75,67.982,72.5092,141.49,110.776,115.66,0.000702754,0.114592,20.8625,586.907,-0.390054,0.0,0.0
330,82.25,67.9529,72.7101,147.787,110.77,115.476,0.000693189,0.113365,20.864,586.907,-0.376091,0.0,0.0
332,82.75,67.5213,72.3002,145.71,110.756,115.886,0.0006819,0.112152,20.8661,586.937,-0.409255,0.0,0.0
334,83.25,67.5428,72.5782,147.749,110.763,114.924,0.000672756,0.11117,20.8678,586.967,-0.333379,0.0,0.0
336,83.75,67.9454,72.707,144.847,110.742,114.515,0.000662071,0.110374,20.8692,586.937,-0.302845,0.0,0.0
338,84.25,67.5372,72.1289,149.325,110.755,116.317,0.000650465,0.108936,20.8712,586.927,-0.44295,0.0,0.0
340,84.75,67.6449,72.2347,142.365,110.741,116.495,0.000633853,0.107771,20.8728,586.937,-0.457891,0.0,0.0
342,85.25,67.3207,72.4174,147.862,110.75,115.708,0.000613908,0.106481,20.8741,586.967,-0.395866,0.0,0.0
344,85.75,67.406,71.777,150.866,110.744,115.965,0.000588578,0.105437,20.8752,586.957,-0.416461,0.0,0.0
346,86.25,67.4417,71.6621,146.871,110.738,115.228,0.000559804,0.104245,20.8774,586.937,-0.359314,0.0,0.0
348,86.75,67.0357,71.7188,146.76,110.726,115.335,0.000536497,0.10328,20.8792,586.917,-0.368621,0.0,0.0
350,87.25,67.1111,71.2643,145.819,110.725,115.921,0.000507662,0.102286,20.8806,586.927,-0.414587,0.0,0.0
352,87.75,67.1629,71.5698,149.25,110.712,116.274,0.000484306,0.101291,20.8818,586.877,-0.443078,0.0,0.0
354,88.25,67.018,71.3323,148.154,110.723,116.198,0.000465388,0.100341,20.8829,586.867,-0.436272,0.0,0.0
356,88.75,67.0363,71.6219,147.627,110.703,115.784,0.000450063,0.0994415,20.8841,586.867,-0.4057,0.0,0.0
358,89.25,66.8305,71.5423,150.24,110.711,116.495,0.000460057,0.0985772,20.8855,586.857,-0.46035,0.0,0.0
360,89.75,67.0609,71.6157,144.398,110.694,116.48,0.000468151,0.0977547,20.8871,586.847,-0.460587,0.0,0.0
362,90.25,67.1472,71.4717,146.381,110.7,115.721,0.000474708,0.0970884,20.8883,586.867,-0.400944,0.0,0.0
364,90.75,66.2823,71.6155,150.725,110.685,116.124,0.000517393,0.0962043,20.8894,586.897,-0.433678,0.0,0.0
366,91.25,66.7375,70.8343,148.635,110.683,115.525,0.000551967,0.0954882,20.8902,586.887,-0.387092,0.0,0.0
368,91.75,66.7079,71.0895,147.058,110.67,115.682,0.000597427,0.094742,20.8911,586.867,-0.400438,0.0,0.0
370,92.25,66.3458,70.8597,150.414,110.672,115.303,0.000634249,0.0939882,20.892,586.867,-0.370537,0.0,0.0
372,92.75,66.637,71.1886,147.311,110.667,116.898,0.000661451,0.0931514,20.8928,586.867,-0.495187,0.0,0.0
374,93.25,66.5413,71.0696,148.713,110.663,115.482,0.000681121,0.0922699,20.8939,586.837,-0.38532,0.0,0.0
376,93.75,66.328,70.6605,148.528,110.66,115.856,0.000680848,0.0915559,20.8952,586.847,-0.414814,0.0,0.0
378,94.25,66.5819,70.7543,150.855,110.674,116.451,0.000680627,0.0907516,20.8967,586.817,-0.459976,0.0,0.0
380,94.75,66.1646,71.0392,149.327,110.656,116.19,0.000660513,0.0898966,20.8981,586.827,-0.441145,0.0,0.0
382,95.25,66.0602,70.6976,144.765,110.659,117.229,0.000644221,0.089046,20.8995,586.817,-0.521339,0.0,0.0
384,95.75,65.7204,70.7249,145.259,110.638,116.023,0.000617324,0.0882148,20.9006,586.807,-0.429598,0.0,0.0
386,96.25,66.2364,70.5589,150.924,110.65,115.64,0.000595538,0.087361,20.9015,586.787,-0.398787,0.0,0.0
388,96.75,66.3362,70.7867,146.915,110.639,116.564,0.000577891,0.0865069,20.9022,586.797,-0.471587,0.0,0.0
390,97.25,66.431,70.8858,145.417,110.637,117.021,0.000549904,0.0856647,20.9031,586.787,-0.507145,0.0,0.0
392,97.75,65.7838,70.5343,148.916,110.624,116.01,0.000527233,0.0848473,20.9039,586.787,-0.429735,0.0,0.0
394,98.25,65.9776,70.5164,145.634,110.621,116.674,0.000498914,0.0840274,20.9049,586.777,-0.481579,0.0,0.0
396,98.75,65.8098,70.7136,144.919,110.621,116.327,0.000475975,0.0832213,20.9059,586.787,-0.454663,0.0,0.0
398,99.25,65.784,69.7858,144.81,110.622,116.258,0.000443709,0.0823358,20.9069,586.777,-0.449167,0.0,0.0
400,99.75,65.4056,70.3197,143.54,110.612,115.679,0.000417574,0.081409,20.9079,586.757,-0.404867,0.0,0.0
402,100.25,65.3485,69.8597,148.431,110.608,116.103,0.000386455,0.0806584,20.9092,586.747,-0.438286,0.0,0.0
404,100.75,65.354,70.1118,148.672,110.604,115.808,0.000361249,0.0798404,20.9107,586.757,-0.415666,0.0,0.0
406,101.25,65.6057,69.8532,148.173,110.594,115.783,0.000338868,0.0789888,20.9119,586.747,-0.414492,0.0,0.0
408,101.75,65.4265,70.0866,149.556,110.598,115.985,0.000318972,0.0782017,20.9129,586.767,-0.429941,0.0,0.0
410,102.25,65.2014,70.0909,150.172,110.595,116.043,0.000303511,0.0774764,20.9137,586.767,-0.434685,0.0,0.0
412,102.75,65.5519,69.6829,146.769,110.594,116.212,0.000291577,0.0767691,20.9143,586.787,-0.447905,0.0,0.0
414,103.25,65.5074,69.9501,147.308,110.591,115.966,0.00028191,0.0760883,20.9152,586.777,-0.428986,0.0,0.0
416,103.75,64.6014,70.1415,151.396,110.597,115.944,0.00027408,0.0753235,20.916,586.737,-0.426781,0.0,0.0
418,104.25,65.0649,69.6389,149.553,110.583,115.393,0.000265774,0.074704,20.9168,586.777,-0.384868,0.0,0.0
420,104.75,65.0187,69.0788,147.999,110.581,114.98,0.00025728,0.0741199,20.9177,586.757,-0.352667,0.0,0.0
422,105.25,64.7957,69.6617,153.032,110.586,116.469,0.000252363,0.0735726,20.9184,586.767,-0.46852,0.0,0.0
424,105.75,64.7825,69.4432,149.914,110.588,116.1,0.000250147,0.0731294,20.9189,586.767,-0.439755,0.0,0.0
426,106.25,64.5059,69.0965,145.209,110.561,115.438,0.000249006,0.0727703,20.9194,586.777,-0.3902,0.0,0.0
428,106.75,64.8155,69.0063,148.551,110.572,115.837,0.000248671,0.0722521,20.9197,586.737,-0.420523,0.0,0.0
430,107.25,64.7546,68.8997,149.817,110.567,115.065,0.000238585,0.0718324,20.92,586.717,-0.360539,0.0,0.0
432,107.75,64.7358,69.2888,147.776,110.561,116.511,0.000221582,0.0714026,20.9207,586.777,-0.473841,0.0,0.0
434,108.25,64.0974,68.8755,145.254,110.561,115.888,0.000207809,0.0709738,20.9213,586.707,-0.425377,0.0,0.0
436,108.75,64.3213,69.2051,153.449,110.568,116.41,0.000159385,0.0705666,20.9217,586.737,-0.465411,0.0,0.0
438,109.25,64.3622,68.9991,146.339,110.562,115.336,0.000120162,0.070183,20.9221,586.697,-0.382129,0.0,0.0
440,109.75,64.2729,69.0121,145.855,110.573,115.953,6.72782e-05,0.0697826,20.9224,586.707,-0.429446,0.0,0.0
442,110.25,64.3138,68.8977,144.251,110.557,116.393,2.44424e-05,0.0693775,20.9226,586.737,-0.464982,0.0,0.0
444,110.75,64.6198,68.7137,146.783,110.567,115.547,-1.02547e-05,0.0690494,20.9228,586.737,-0.398245,0.0,0.0
446,111.25,64.3852,68.4338,149.489,110.567,115.081,-3.71169e-05,0.0686417,20.9232,586.657,-0.361697,0.0,0.0
448,111.75,63.7008,68.6607,150.373,110.584,116.087,-5.88754e-05,0.0683115,20.9237,586.647,-0.439057,0.0,0.0
450,112.25,63.9454,68.2215,151.375,110.555,116.023,-7.06171e-05,0.0679447,20.9241,586.727,-0.436405,0.0,0.0
452,112.75,64.2561,68.5491,148.636,110.551,116.971,-7.48337e-05,0.0676475,20.9245,586.737,-0.510342,0.0,0.0
454,113.25,64.3207,68.0043,147.202,110.544,115.179,-7.56344e-05,0.0673695,20.9248,586.687,-0.371284,0.0,0.0
456,113.75,63.9399,68.1449,149.505,110.556,116.19,-7.39298e-05,0.0671107,20.925,586.667,-0.449368,0.0,0.0
458,114.25,63.5435,68.43,150.433,110.539,115.287,-7.38563e-05,0.0669011,20.9252,586.647,-0.380168,0.0,0.0
460,114.75,63.9452,68.2746,150.932,110.544,115.825,-7.49735e-05,0.0667313,20.9253,586.637,-0.421861,0.0,0.0
462,115.25,63.6774,67.8257,145.476,110.524,115.689,-8.11074e-05,0.0664945,20.9254,586.607,-0.412902,0.0,0.0
464,115.75,63.7434,68.4312,148.973,110.534,115.603,-9.0782e-05,0.0662504,20.926,586.597,-0.40539,0.0,0.0
466,116.25,62.8289,67.0619,143.398,110.498,115.483,-9.86185e-05,0.0660057,20.9264,586.597,-0.398872,0.0,0.0
468,116.75,61.6983,66.4382,146.708,110.515,116.383,-0.000126079,0.0657627,20.9272,586.637,-0.467639,0.0,0.0
470,117.25,62.3362,66.475,148.204,110.495,114.987,-0.000148321,0.0655255,20.9279,586.657,-0.360213,0.0,0.0
472,117.75,61.7627,66.4961,145.029,110.505,115.877,-0.000176143,0.0653334,20.9284,586.637,-0.429075,0.0,0.0
474,118.25,61.7735,66.3002,148.409,110.505,115.146,-0.000207502,0.0650644,20.9288,586.637,-0.371889,0.0,0.0
476,118.75,61.6309,66.2747,148.525,110.509,115.395,-0.000232903,0.0648465,20.9291,586.647,-0.391038,0.0,0.0
478,119.25,61.7647,66.0074,152.352,110.49,116.217,-0.000252193,0.064585,20.9294,586.637,-0.456814,0.0,0.0
480,119.75,61.7491,66.3053,155.033,110.5,116.065,-0.000267818,0.0643732,20.9297,586.617,-0.444133,0.0,0.0
482,120.25,61.8648,66.0598,146.197,110.487,116.064,-0.000260603,0.0641792,20.9299,586.607,-0.445105,0.0,0.0
484,120.75,61.9886,65.9864,149.811,110.518,115.688,-0.000254759,0.0640019,20.9302,586.627,-0.413294,0.0,0.0
486,121.25,61.8636,65.9283,149.928,110.485,116.201,-0.000225187,0.0638583,20.9307,586.627,-0.455992,0.0,0.0
488,121.75,61.6177,65.7483,147.973,110.486,115.861,-0.000201233,0.0636854,20.9313,586.677,-0.429407,0.0,0.0
490,122.25,61.5973,65.3522,150.517,110.484,115.948,-0.000172679,0.0635453,20.9318,586.647,-0.436376,0.0,0.0
492,122.75,61.8141,65.7829,147.387,110.497,115.974,-0.000141315,0.0633727,20.9321,586.667,-0.437331,0.0,0.0
494,123.25,61.6178,65.8401,148.443,110.478,115.564,-0.000116563,0.0631797,20.9325,586.667,-0.406947,0.0,0.0
496,123.75,61.1643,65.4709,151.704,110.485,116.634,-9.71022e-05,0.0630086,20.9327,586.657,-0.489642,0.0,0.0
498,124.25,61.5121,65.2287,149.642,110.485,116.31,-8.13389e-05,0.0628565,20.9329,586.627,-0.464445,0.0,0.0
500,124.75,61.7761,65.5705,146.784,110.484,116.232,-7.51071e-05,0.0627333,20.9331,586.627,-0.458501,0.0,0.0
502,125.25,61.4017,65.5433,151.749,110.482,116.666,-7.59421e-05,0.0626335,20.9332,586.607,-0.492328,0.0,0.0
504,125.75,61.4882,65.1767,146.976,110.493,116.712,-8.03447e-05,0.0625079,20.9333,586.587,-0.49502,0.0,0.0
506,126.25,61.5301,65.4095,148.586,110.474,115.727,-8.39109e-05,0.062366,20.9334,586.597,-0.419888,0.0,0.0
508,126.75,61.5751,65.8153,146.306,110.487,116.561,-8.67994e-05,0.062251,20.9335,586.597,-0.483773,0.0,0.0
510,127.25,61.1813,65.2303,149.206,110.477,115.943,-9.56756e-05,0.0621862,20.9336,586.557,-0.436561,0.0,0.0
512,127.75,61.2616,65.5103,144.164,110.481,115.883,-0.000108748,0.0621337,20.9334,586.587,-0.431466,0.0,0.0
514,128.25,61.7209,65.3734,145.884,110.481,115.377,-0.000123259,0.0620688,20.9332,586.567,-0.39197,0.0,0.0
516,128.75,61.5897,65.3195,144.987,110.478,115.831,-0.000138542,0.0619961,20.9331,586.577,-0.427772,0.0,0.0
518,129.25,61.2624,64.9279,145.614,110.48,116.57,-0.000150922,0.0619372,20.933,586.557,-0.485059,0.0,0.0
520,129.75,61.4822,65.2715,148.04,110.486,115.171,-0.000160144,0.0618225,20.933,586.517,-0.375432,0.0,0.0
522,130.25,61.2413,65.012,151.286,110.479,115.908,-0.000175915,0.0616691,20.9329,586.547,-0.433658,0.0,0.0
524,130.75,61.1858,65.1655,147.448,110.478,115.908,-0.000187447,0.0615226,20.9328,586.537,-0.433731,0.0,0.0
526,131.25,61.1464,64.8878,149.429,110.477,115.929,-0.000196788,0.0613837,20.9326,586.527,-0.435454,0.0,0.0
528,131.75,60.6861,64.9188,148.89,110.476,116.151,-0.000204354,0.0612713,20.9324,586.547,-0.452783,0.0,0.0
530,132.25,60.877,65.1106,148.544,110.476,116.086,-0.000203031,0.0610811,20.9323,586.537,-0.447744,0.0,0.0
532,132.75,61.5859,64.9458,145.686,110.475,115.645,-0.00020196,0.061,20.9322,586.577,-0.413491,0.0,0.0
534,133.25,60.66,65.1593,148.125,110.476,115.679,-0.000207628,0.0608161,20.9321,586.567,-0.41599,0.0,0.0
536,133.75,60.6583,65.0776,149.669,110.474,116.258,-0.000218103,0.0606264,20.9325,586.557,-0.461267,0.0,0.0
538,134.25,60.9825,64.8369,148.666,110.466,116.232,-0.000236392,0.0604578,20.9328,586.507,-0.45995,0.0,0.0
540,134.75,60.6358,64.5194,144.981,110.472,116.084,-0.00026003,0.0603078,20.9331,586.507,-0.447989,0.0,0.0
542,135.25,60.7531,64.6807,144.543,110.449,115.719,-0.000292904,0.0601864,20.9333,586.497,-0.42136,0.0,0.0
544,135.75,60.777,64.866,149.741,110.463,116.282,-0.000331885,0.0600433,20.9334,586.497,-0.46406,0.0,0.0
546,136.25,60.2176,65.0262,148.955,110.456,116.248,-0.000375878,0.0598872,20.9335,586.497,-0.461967,0.0,0.0
548,136.75,60.3956,64.2649,151.58,110.463,117.124,-0.000422691,0.0597384,20.9336,586.497,-0.529315,0.0,0.0
550,137.25,60.5724,64.3051,150.417,110.452,115.754,-0.000475512,0.0595978,20.934,586.527,-0.423834,0.0,0.0
552,137.75,60.7398,64.4085,147.364,110.465,115.995,-0.000518297,0.0594764,20.9344,586.507,-0.441635,0.0,0.0
554,138.25,60.8017,64.1444,149.033,110.462,115.35,-0.000552953,0.0593714,20.9348,586.547,-0.391465,0.0,0.0
556,138.75,60.4823,64.2464,150.015,110.458,115.956,-0.000592201,0.0592715,20.9351,586.507,-0.439105,0.0,0.0
558,139.25,60.4991,64.5446,147.673,110.463,116.163,-0.000623992,0.0591772,20.9354,586.517,-0.454815,0.0,0.0
560,139.75,60.3093,64.4561,149.838,110.46,116.073,-0.00064726,0.0590933,20.9356,586.547,-0.448101,0.0,0.0
562,140.25,60.8812,63.9999,150.906,110.467,116.086,-0.000666107,0.0590186,20.9357,586.497,-0.448545,0.0,0.0
564,140.75,60.2883,64.121,146.163,110.462,115.277,-0.000668953,0.0589582,20.9359,586.487,-0.385685,0.0,0.0
566,141.25,60.2246,64.453,148.897,110.477,116.788,-0.000660081,0.0588385,20.936,586.507,-0.502237,0.0,0.0
568,141.75,60.3593,64.5561,143.331,110.468,116.214,-0.000639822,0.0587415,20.9361,586.517,-0.458389,0.0,0.0
570,142.25,60.4206,64.4486,149.421,110.489,115.43,-0.000611647,0.0586407,20.9361,586.527,-0.395553,0.0,0.0
572,142.75,60.4185,64.402,149.425,110.474,115.508,-0.000582942,0.0585389,20.9362,586.457,-0.402842,0.0,0.0
574,143.25,60.348,64.1333,147.951,110.472,115.364,-0.000554397,0.0584117,20.9362,586.457,-0.391665,0.0,0.0
576,143.75,60.7021,64.091,151.261,110.463,116.043,-0.000532582,0.0582686,20.9363,586.467,-0.445448,0.0,0.0
578,144.25,60.5041,64.0889,147.738,110.471,116.524,-0.000516089,0.0581303,20.9367,586.477,-0.482215,0.0,0.0
580,144.75,60.4246,63.8483,152.189,110.466,115.178,-0.00050273,0.0579982,20.9371,586.477,-0.377619,0.0,0.0
582,145.25,59.9496,63.5076,145.879,110.462,116.909,-0.000498445,0.0578614,20.9374,586.467,-0.512747,0.0,0.0
584,145.75,59.9833,63.7267,147.59,110.466,115.998,-0.000500857,0.0577239,20.9377,586.487,-0.441726,0.0,0.0
586,146.25,60.3759,63.8397,149.766,110.462,114.7,-0.000502811,0.0576124,20.9379,586.487,-0.340364,0.0,0.0
588,146.75,60.2833,64.2984,145.537,110.47,116.433,-0.000518054,0.0575363,20.9378,586.477,-0.475188,0.0,0.0
590,147.25,60.358,63.6515,152.278,110.47,116.201,-0.000530401,0.0574746,20.9376,586.497,-0.457225,0.0,0.0
592,147.75,59.9979,63.8064,148.9,110.466,116.094,-0.000559032,0.0574024,20.9373,586.497,-0.449284,0.0,0.0
594,148.25,59.7802,64.1093,147.383,110.471,115.688,-0.000582223,0.0573237,20.9372,586.497,-0.417101,0.0,0.0
596,148.75,60.3278,63.4213,147.462,110.476,116.293,-0.000614668,0.05726,20.937,586.477,-0.463835,0.0,0.0
598,149.25,60.0698,63.6217,148.565,110.492,115.351,-0.000640949,0.0571095,20.9369,586.457,-0.389079,0.0,0.0
600,149.75,59.7634,63.626,148.62,110.488,116.072,-0.000662236,0.0569876,20.9368,586.437,-0.445662,0.0,0.0
602,150.25,59.987,64.1423,147.57,110.502,116.683,-0.000688172,0.0569312,20.9368,586.437,-0.49199,0.0,0.0
604,150.75,59.8872,63.4161,147.228,110.489,115.557,-0.000709181,0.0568855,20.937,586.447,-0.405447,0.0,0.0
606,151.25,60.1443,63.1997,154.391,110.511,116.635,-0.000715717,0.0568627,20.9372,586.427,-0.487578,0.0,0.0
608,151.75,59.5037,63.4767,150.275,110.5,115.21,-0.000711579,0.0568442,20.9378,586.417,-0.377365,0.0,0.0
610,152.25,59.5065,63.5951,148.212,110.52,116.66,-0.000708228,0.0568292,20.9382,586.427,-0.488774,0.0,0.0
612,152.75,59.6853,63.4607,145.554,110.503,116.349,-0.000681328,0.0567181,20.9386,586.397,-0.466061,0.0,0.0
614,153.25,59.7931,63.3222,153.755,110.52,116.434,-0.000637772,0.0566281,20.9391,586.407,-0.471245,0.0,0.0
616,153.75,59.52,63.0719,149.687,110.52,116.413,-0.000602492,0.0565112,20.9395,586.407,-0.46956,0.0,0.0
618,154.25,59.5821,63.1251,154.044,110.531,115.842,-0.000532931,0.0563768,20.9398,586.407,-0.424211,0.0,0.0
620,154.75,59.4803,62.9553,150.43,110.512,115.132,-0.000476586,0.056268,20.9401,586.397,-0.370237,0.0,0.0
622,155.25,59.7599,63.2921,147.584,110.513,115.467,-0.000392447,0.0561516,20.9403,586.397,-0.396374,0.0,0.0
624,155.75,59.6796,63.0711,147.831,110.516,115.767,-0.000324294,0.0560573,20.9404,586.397,-0.419605,0.0,0.0
626,156.25,59.502,62.9427,150.234,110.526,114.805,-0.000243004,0.0559957,20.9406,586.417,-0.343354,0.0,0.0
628,156.75,59.7741,63.2008,151.152,110.522,115.861,-0.000177159,0.0559593,20.9407,586.417,-0.426436,0.0,0.0
630,157.25,59.6353,62.9763,148.038,110.544,116.522,-0.000118854,0.0559298,20.9408,586.407,-0.476081,0.0,0.0
632,157.75,59.0505,62.7387,150.754,110.532,116.528,-7.16263e-05,0.0558918,20.9408,586.427,-0.477564,0.0,0.0
634,158.25,59.3065,62.5506,148.415,110.548,116.02,-4.45556e-05,0.0558609,20.9409,586.417,-0.436789,0.0,0.0
636,158.75,59.5793,63.2718,150.214,110.531,116.504,-2.26283e-05,0.0558077,20.9409,586.387,-0.475831,0.0,0.0
638,159.25,59.7573,62.9055,149.127,110.567,115.87,-4.86719e-06,0.0557646,20.941,586.397,-0.423561,0.0,0.0
640,159.75,59.8508,62.7585,147.271,110.554,115.776,-7.87025e-06,0.0557156,20.941,586.397,-0.417235,0.0,0.0
642,160.25,59.5668,62.8073,146.737,110.567,116.444,-1.03027e-05,0.0556758,20.941,586.397,-0.468114,0.0,0.0
644,160.75,59.7656,63.2399,149.835,110.561,115.506,-2.22089e-05,0.0555872,20.9413,586.387,-0.395584,0.0,0.0
646,161.25,59.5504,62.6412,147.871,110.565,115.82,-3.18529e-05,0.0555153,20.9417,586.347,-0.4198,0.0,0.0
648,161.75,59.2456,62.8828,148.554,110.554,116.399,-4.62244e-05,0.0554125,20.942,586.327,-0.465782,0.0,0.0
650,162.25,59.6549,63.1693,151.584,110.571,116.566,-6.37691e-05,0.0552891,20.9423,586.327,-0.477356,0.0,0.0
652,162.75,59.3999,62.5265,146.075,110.569,115.98,-8.51702e-05,0.0551891,20.9425,586.347,-0.431898,0.0,0.0
654,163.25,59.0259,62.9098,147.633,110.58,115.155,-0.000108976,0.0551081,20.9425,586.357,-0.366484,0.0,0.0
656,163.75,59.2944,62.8189,147.828,110.566,116.405,-0.000134795,0.0550425,20.9426,586.347,-0.4652,0.0,0.0
658,164.25,59.0943,62.5376,147.326,110.576,115.515,-0.000161591,0.054982,20.9426,586.327,-0.395029,0.0,0.0
660,164.75,59.0706,63.0374,150.987,110.577,116.07,-0.000183296,0.0549262,20.9426,586.337,-0.438258,0.0,0.0
662,165.25,59.1249,62.9938,145.527,110.565,115.324,-0.0002282,0.0548656,20.9426,586.327,-0.380961,0.0,0.0
664,165.75,59.3037,62.7465,150.335,110.553,115.817,-0.000264571,0.0548027,20.9426,586.337,-0.420542,0.0,0.0
666,166.25,59.3147,62.799,147.121,110.572,116.172,-0.000294032,0.0547368,20.9426,586.307,-0.446573,0.0,0.0
668,166.75,59.3916,62.6371,148.922,110.56,114.808,-0.000343976,0.0546701,20.9426,586.307,-0.340803,0.0,0.0
670,167.25,59.2031,62.4149,149.374,110.566,116.428,-0.000384431,0.054616,20.9426,586.267,-0.466968,0.0,0.0
672,167.75,59.5403,62.8269,150.36,110.565,115.698,-0.000414715,0.0545581,20.9426,586.257,-0.410208,0.0,0.0
674,168.25,59.1524,62.7038,152.551,110.571,115.346,-0.000439246,0.0545112,20.9426,586.267,-0.382234,0.0,0.0
676,168.75,59.0942,62.3655,149.674,110.561,116.126,-0.000441728,0.054488,20.9426,586.217,-0.443972,0.0,0.0
678,169.25,59.1835,62.8921,150.527,110.561,116.71,-0.000443739,0.0544827,20.9426,586.217,-0.489285,0.0,0.0
680,169.75,59.2582,62.5811,152.8,110.569,115.698,-0.000437524,0.0544784,20.9426,586.197,-0.409918,0.0,0.0
682,170.25,59.1336,62.7207,149.956,110.577,115.95,-0.00042543,0.0545031,20.9426,586.227,-0.42892,0.0,0.0
684,170.75,59.4825,62.615,147.368,110.571,116.236,-0.000418249,0.0545231,20.9426,586.267,-0.451752,0.0,0.0
686,171.25,59.1355,62.3104,151.862,110.589,116.177,-0.000414786,0.0545245,20.9426,586.267,-0.445628,0.0,0.0
688,171.75,59.7279,62.1851,152.385,110.591,115.831,-0.000411981,0.0545122,20.9426,586.257,-0.418455,0.0,0.0
690,172.25,58.9262,62.6861,147.595,110.594,115.874,-0.000441998,0.0544651,20.9426,586.327,-0.421592,0.0,0.0
692,172.75,59.2427,62.444,149.79,110.579,115.765,-0.000466313,0.0543935,20.9426,586.297,-0.414262,0.0,0.0
694,173.25,58.752,62.3446,147.293,110.589,116.211,-0.000486008,0.0543503,20.9426,586.307,-0.448261,0.0,0.0
696,173.75,58.9711,62.4283,147.942,110.61,115.419,-0.00050196,0.0543288,20.9426,586.267,-0.384791,0.0,0.0
698,174.25,59.2184,62.3263,146.361,110.59,116.474,-0.000560833,0.0543187,20.9429,586.287,-0.468659,0.0,0.0
700,174.75,58.9648,62.1787,149.55,110.606,116.414,-0.00060852,0.0543173,20.9431,586.297,-0.462723,0.0,0.0
702,175.25,59.5896,62.4135,146.89,110.597,115.682,-0.000659565,0.0543161,20.9432,586.237,-0.406412,0.0,0.0
704,175.75,59.6124,62.3814,150.255,110.616,115.275,-0.000681327,0.0543152,20.9433,586.267,-0.372951,0.0,0.0
706,176.25,59.1953,62.5644,152.042,110.62,116.027,-0.00071331,0.0543442,20.9434,586.307,-0.431437,0.0,0.0
708,176.75,59.4011,62.6362,148.454,110.625,116.242,-0.00073451,0.0543944,20.9435,586.297,-0.447694,0.0,0.0
710,177.25,59.3854,62.5168,143.696,110.626,115.857,-0.000742531,0.0544351,20.9436,586.287,-0.417608,0.0,0.0
712,177.75,59.1801,62.2363,147.301,110.635,116.265,-0.000740793,0.0544539,20.9437,586.307,-0.448707,0.0,0.0
714,178.25,59.4624,62.0685,147.67,110.637,115.816,-0.000739384,0.0544692,20.9437,586.297,-0.413542,0.0,0.0
716,178.75,59.4303,62.7275,146.532,110.641,114.545,-0.000724582,0.0544757,20.9437,586.287,-0.313445,0.0,0.0
718,179.25,59.1502,62.3874,149.988,110.646,116.996,-0.000712593,0.0544303,20.9438,586.297,-0.504471,0.0,0.0
720,179.75,59.1719,62.5189,145.945,110.649,115.508,-0.000692946,0.0543935,20.9438,586.257,-0.388461,0.0,0.0
722,180.25,59.3218,62.305,147.067,110.655,115.538,-0.000677031,0.0543214,20.9438,586.237,-0.390364,0.0,0.0
724,180.75,59.0239,62.1368,151.022,110.657,114.423,-0.000658258,0.054263,20.9438,586.237,-0.302523,0.0,0.0
726,181.25,58.8695,61.6283,151.713,110.646,115.634,-0.000637757,0.0542156,20.9439,586.257,-0.398563,0.0,0.0
728,181.75,59.0043,62.1379,152.41,110.674,116.1,-0.000623112,0.0541773,20.9439,586.277,-0.432732,0.0,0.0
730,182.25,59.4061,62.2126,147.671,110.67,117.236,-0.000613015,0.0540757,20.9439,586.247,-0.52098,0.0,0.0
732,182.75,59.0956,62.597,149.853,110.667,115.485,-0.000604836,0.0539933,20.9439,586.257,-0.385268,0.0,0.0
734,183.25,58.957,61.9945,148.041,110.656,115.52,-0.000611872,0.0539043,20.9441,586.237,-0.388943,0.0,0.0
736,183.75,59.573,62.1923,153.967,110.679,114.887,-0.000617571,0.0538122,20.9445,586.267,-0.337385,0.0,0.0
738,184.25,58.8878,62.225,147.53,110.662,115.446,-0.000634607,0.0537227,20.9449,586.277,-0.382578,0.0,0.0
740,184.75,58.515,61.8844,146.559,110.673,115.86,-0.000648406,0.0536368,20.9451,586.247,-0.414008,0.0,0.0
742,185.25,59.2449,62.2312,151.346,110.673,115.704,-0.000672002,0.0535672,20.9453,586.237,-0.401845,0.0,0.0
744,185.75,58.7903,62.0523,147.831,110.676,117.452,-0.000691115,0.0535674,20.9455,586.247,-0.537146,0.0,0.0
746,186.25,59.2916,62.1414,152.6,110.673,116.547,-0.000713787,0.0535675,20.9457,586.257,-0.467502,0.0,0.0
748,186.75,59.0197,62.2928,147.954,110.68,116.784,-0.000738622,0.0535535,20.9458,586.217,-0.485299,0.0,0.0
750,187.25,59.092,61.9541,148.308,110.663,116.899,-0.000758738,0.0535421,20.9459,586.197,-0.495555,0.0,0.0
752,187.75,58.7403,62.1804,149.707,110.684,115.917,-0.000768823,0.053547,20.9459,586.217,-0.417632,0.0,0.0
754,188.25,59.3457,62.2042,150.326,110.668,116.654,-0.000776992,0.053551,20.946,586.207,-0.476172,0.0,0.0
756,188.75,58.9046,61.9481,147.232,110.676,116.343,-0.00075877,0.0535765,20.9458,586.197,-0.45139,0.0,0.0
758,189.25,59.1371,62.1666,147.607,110.669,115.884,-0.000744011,0.0536172,20.9455,586.197,-0.416187,0.0,0.0
760,189.75,58.9332,61.8892,148.463,110.687,115.417,-0.000704733,0.0536502,20.9452,586.197,-0.378258,0.0,0.0
762,190.25,59.1703,62.0204,150.264,110.68,115.329,-0.000672919,0.0536487,20.9449,586.207,-0.371984,0.0,0.0
764,190.75,58.9113,61.8896,148.047,110.694,116.558,-0.000635971,0.0536475,20.9447,586.187,-0.466625,0.0,0.0
766,191.25,59.0968,61.6206,147.663,110.678,115.782,-0.000606044,0.0536391,20.9448,586.207,-0.407607,0.0,0.0
768,191.75,58.9844,61.9714,148.318,110.688,116.442,-0.000585528,0.0536256,20.9451,586.197,-0.458147,0.0,0.0
770,192.25,58.8096,61.6931,149.993,110.68,115.993,-0.000568911,0.0536072,20.9451,586.217,-0.423874,0.0,0.0
772,192.75,59.1673,62.0707,150.688,110.695,115.478,-0.000569112,0.0535856,20.9449,586.237,-0.382398,0.0,0.0
774,193.25,58.8902,61.9886,145.462,110.7,117.106,-0.000569275,0.0535823,20.9447,586.217,-0.508569,0.0,0.0
776,193.75,59.1684,61.8493,147.306,110.698,116.479,-0.000569407,0.0535795,20.9448,586.197,-0.460144,0.0,0.0
778,194.25,59.0393,61.8792,148.676,110.699,116.328,-0.000581932,0.0535773,20.9451,586.187,-0.448332,0.0,0.0
780,194.75,58.7242,62.2103,148.044,110.703,116.356,-0.000603255,0.0535755,20.9453,586.157,-0.450241,0.0,0.0
782,195.25,59.0747,62.045,152.392,110.691,116.67,-0.000614644,0.0535318,20.9455,586.147,-0.475548,0.0,0.0
784,195.75,58.877,61.8612,148.425,110.71,116.588,-0.000618575,0.0534963,20.9456,586.157,-0.467676,0.0,0.0
786,196.25,59.198,61.7631,148.634,110.68,116.11,-0.000621759,0.0534675,20.9457,586.157,-0.432936,0.0,0.0
788,196.75,58.3856,62.0639,148.409,110.695,116.41,-0.000624338,0.053416,20.9458,586.157,-0.455133,0.0,0.0
790,197.25,58.6886,61.8068,147.814,110.695,116.35,-0.00057675,0.0533743,20.9459,586.177,-0.450424,0.0,0.0
792,197.75,59.0147,61.3219,149.633,110.697,116.17,-0.000511966,0.0533331,20.9456,586.167,-0.436282,0.0,0.0
794,198.25,58.5175,61.4921,150.301,110.677,116.858,-0.000488352,0.053293,20.945,586.157,-0.491269,0.0,0.0
796,198.75,58.8477,61.9686,146.817,110.686,116.743,-0.000447973,0.0532457,20.9446,586.157,-0.481658,0.0,0.0
798,199.25,59.0004,61.7573,150.226,110.681,116.36,-0.000415919,0.053194,20.9442,586.147,-0.452327,0.0,0.0
800,199.75,58.9985,61.9676,149.283,110.68,116.649,-0.000390544,0.0531521,20.9439,586.107,-0.474879,0.0,0.0
802,200.25,59.2709,61.8477,147.571,110.688,116.502,-0.000375219,0.0531182,20.9437,586.117,-0.46282,0.0,0.0
804,200.75,59.183,61.7273,149.534,110.705,115.902,-0.000367513,0.0530766,20.9435,586.137,-0.414716,0.0,0.0
806,201.25,58.7616,61.6022,153.326,110.69,116.066,-0.00036127,0.0530429,20.9433,586.137,-0.428751,0.0,0.0
808,201.75,59.3817,62.0963,147.635,110.688,115.418,-0.000366672,0.0530015,20.9432,586.127,-0.378341,0.0,0.0
810,202.25,58.923,62.0986,147.538,110.702,115.835,-0.00038046,0.0529679,20.9431,586.127,-0.409759,0.0,0.0
812,202.75,58.7169,61.9375,149.768,110.701,116.615,-0.000391629,0.0529333,20.9434,586.097,-0.470516,0.0,0.0
814,203.25,59.0247,62.0026,143.309,110.705,116.81,-0.000409368,0.0528986,20.9437,586.067,-0.485308,0.0,0.0
816,203.75,58.7951,61.9191,147.599,110.706,116.725,-0.000423737,0.0528705,20.9439,586.067,-0.478622,0.0,0.0
818,204.25,59.2481,62.0046,148.986,110.696,116.7,-0.000436618,0.0528195,20.9441,586.057,-0.477461,0.0,0.0
820,204.75,58.9615,62.1651,149.728,110.7,115.408,-0.000447051,0.0527782,20.9443,586.037,-0.376536,0.0,0.0
822,205.25,58.9917,62.1182,149.606,110.702,116.296,-0.000446809,0.0527299,20.9444,586.037,-0.44564,0.0,0.0
824,205.75,59.1285,61.4192,148.257,110.707,116.516,-0.000446613,0.0526774,20.9445,586.047,-0.462323,0.0,0.0
826,206.25,59.5414,61.6696,147.131,110.7,117.029,-0.000441878,0.0526348,20.9446,586.067,-0.502595,0.0,0.0
828,206.75,58.8748,61.8843,146.806,110.715,116.244,-0.000433926,0.0526004,20.9447,586.077,-0.440541,0.0,0.0
830,207.25,58.8804,62.0413,147.185,110.701,116.495,-0.000428791,0.0525725,20.9447,586.067,-0.461146,0.0,0.0
832,207.75,58.8317,61.3887,146.927,110.711,117.255,-0.000425809,0.052564,20.9448,586.077,-0.519173,0.0,0.0
834,208.25,59.0949,61.4302,148.262,110.706,116.237,-0.000423393,0.0525571,20.9448,586.057,-0.44075,0.0,0.0
836,208.75,58.6718,61.4933,148.787,110.71,116.046,-0.000428626,0.0525515,20.9448,586.047,-0.425587,0.0,0.0
838,209.25,58.6725,61.7729,147.658,110.703,116.625,-0.000439336,0.052547,20.9448,586.077,-0.471116,0.0,0.0
840,209.75,58.8864,61.8306,146.973,110.702,116.717,-0.000448011,0.0525508,20.9449,586.087,-0.478358,0.0,0.0
842,210.25,59.1094,61.8914,145.549,110.693,116.606,-0.000455037,0.0525605,20.9449,586.077,-0.470422,0.0,0.0
844,210.75,58.7428,61.7541,145.008,110.693,115.718,-0.000460729,0.0525684,20.9449,586.077,-0.401322,0.0,0.0
846,211.25,59.1856,62.2537,146.943,110.711,116.274,-0.000455404,0.0526313,20.9449,586.047,-0.44319,0.0,0.0
848,211.75,59.0671,61.876,149.079,110.696,116.821,-0.000451091,0.0526822,20.9449,586.026,-0.486817,0.0,0.0
850,212.25,58.8107,61.5281,147.983,110.694,115.601,-0.000450081,0.0527086,20.9449,586.016,-0.39216,0.0,0.0
852,212.75,58.924,61.5847,151.726,110.709,115.952,-0.00045776,0.0527166,20.9449,586.016,-0.418294,0.0,0.0
854,213.25,58.9205,61.8157,149.667,110.703,116.794,-0.000471628,0.0527007,20.9449,585.996,-0.484125,0.0,0.0
856,213.75,58.5583,61.3193,152.813,110.689,115.984,-0.000482861,0.0526679,20.9449,585.986,-0.422405,0.0,0.0
858,214.25,58.7558,61.7181,149.737,110.702,115.886,-0.00051804,0.0526115,20.9449,586.006,-0.413667,0.0,0.0
860,214.75,58.7723,61.65,148.954,110.691,115.423,-0.000546536,0.0525392,20.9449,586.026,-0.378408,0.0,0.0
862,215.25,58.9839,61.6475,147.035,110.701,115.915,-0.000569617,0.0524806,20.9449,585.986,-0.416067,0.0,0.0
864,215.75,58.7231,61.3724,147.442,110.703,115.528,-0.000596156,0.0524331,20.9449,585.977,-0.385661,0.0,0.0
866,216.25,58.887,61.9114,151.062,110.713,115.033,-0.000624712,0.052402,20.9449,585.996,-0.34601,0.0,0.0
868,216.75,59.1163,61.9369,148.375,110.7,115.626,-0.000647843,0.0523836,20.9449,585.986,-0.393554,0.0,0.0
870,217.25,59.0031,61.4857,150.507,110.722,116.505,-0.000666579,0.0523686,20.9449,585.996,-0.460306,0.0,0.0
872,217.75,59.2672,61.7254,142.45,110.707,116.257,-0.000682408,0.0523417,20.9449,586.006,-0.442179,0.0,0.0
874,218.25,59.1609,61.4131,147.525,110.711,115.623,-0.000695819,0.0523065,20.9449,586.016,-0.392446,0.0,0.0
876,218.75,59.2546,61.609,146.709,110.706,116.622,-0.000706681,0.052278,20.9449,586.006,-0.47063,0.0,0.0
878,219.25,58.9537,61.7969,150.948,110.707,115.632,-0.000719205,0.0521702,20.9449,585.986,-0.393483,0.0,0.0
880,219.75,59.2735,61.4942,151.761,110.694,115.89,-0.000729349,0.0520829,20.9449,585.996,-0.414673,0.0,0.0
882,220.25,58.9397,61.6552,151.219,110.702,116.62,-0.000737566,0.0520196,20.9449,585.996,-0.470799,0.0,0.0
884,220.75,58.9519,61.9745,149.528,110.691,116.043,-0.000750432,0.0519751,20.9449,585.986,-0.426907,0.0,0.0
886,221.25,59.0242,61.9918,146.319,110.691,115.745,-0.000760853,0.0519389,20.945,586.026,-0.403636,0.0,0.0
888,221.75,59.1863,61.4042,147.486,110.688,116.583,-0.00077302,0.0519097,20.9451,586.026,-0.469092,0.0,0.0
890,222.25,59.2124,62.0847,147.231,110.678,116.386,-0.000782876,0.0518786,20.9452,586.047,-0.454624,0.0,0.0
892,222.75,59.3928,61.7099,145.565,110.684,115.418,-0.000790858,0.0518467,20.9453,585.996,-0.378555,0.0,0.0
894,223.25,59.1945,61.8251,146.891,110.692,116.168,-0.000783663,0.0518209,20.9453,586.026,-0.436484,0.0,0.0
896,223.75,59.3982,62.0816,143.69,110.691,116.072,-0.000777835,0.0518,20.9452,586.037,-0.429079,0.0,0.0
898,224.25,59.2616,62.0818,148.218,110.683,116.249,-0.000755727,0.0518395,20.9448,585.986,-0.443536,0.0,0.0
900,224.75,58.9628,61.9676,147.873,110.681,115.721,-0.00073782,0.0518714,20.9447,585.977,-0.402536,0.0,0.0
902,225.25,59.3754,61.7696,149.947,110.691,116.744,,0.0518974,,585.956,-0.481302,0.0,0.0
904,225.75,58.8401,61.8185,147.619,110.677,115.794,,0.0519183,,585.966,-0.408512,0.0,0.0
906,226.25,58.8393,61.3726,147.472,110.695,116.839,,0.0519353,,585.956,-0.488334,0.0,0.0
908,226.75,58.6431,61.683,147.274,110.674,117.07,,0.051935,,585.946,-0.507894,0.0,0.0
910,227.25,59.547,61.7124,151.643,110.703,116.334,,0.0519347,,585.946,-0.448552,0.0,0.0
912,227.75,58.9079,61.8639,148.096,110.681,115.69,,0.0519486,,585.977,-0.400126,0.0,0.0
914,228.25,58.7214,61.5117,145.422,110.702,116.641,,,,585.956,-0.472407,0.0,0.0
916,228.75,58.9418,61.6529,146.695,110.692,115.507,,,,585.936,-0.384911,0.0,0.0
918,229.25,58.7941,61.7771,147.45,110.706,117.76,,,,585.956,-0.558392,0.0,0.0
920,229.75,59.3355,61.4671,147.573,110.685,116.509,,,,585.966,-0.463508,0.0,0.0
922,230.25,58.9026,61.2769,148.477,110.707,116.589,,,,585.966,-0.467971,0.0,0.0
924,230.75,59.33,61.3843,148.341,110.688,116.398,,,,585.936,-0.454733,0.0,0.0
926,231.25,59.1239,61.6833,151.633,110.697,116.418,,,,585.916,-0.455466,0.0,0.0
928,231.75,59.5778,61.8885,148.965,110.679,116.768,,,,585.906,-0.484194,0.0,0.0
930,232.25,58.971,61.9179,148.305,110.694,116.592,,,,585.946,-0.469294,0.0,0.0
932,232.75,58.7437,61.798,149.129,110.685,115.826,,,,585.926,-0.410423,0.0,0.0
934,233.25,58.7782,61.4897,147.344,110.698,115.325,,,,585.977,-0.370143,0.0,0.0
936,233.75,59.0036,61.4994,151.825,110.684,115.404,,,,585.956,-0.377558,0.0,0.0
938,234.25,59.2084,61.8269,148.947,110.687,115.664,,,,585.956,-0.397565,0.0,0.0
940,234.75,58.8689,61.6291,150.319,110.687,115.175,,,,585.956,-0.359268,0.0,0.0
942,235.25,59.1569,61.8883,149.373,110.692,116.363,,,,585.956,-0.451623,0.0,0.0
944,235.75,58.8536,61.6866,148.094,110.67,115.347,,,,585.946,-0.374126,0.0,0.0
945,236,58.8354,61.8198,149.537,110.685,115.286,,,,585.966,-0.368176,0.0,0.0