File: 01_Data/Rug_Pad/Cone/Rug_Pad_Cone_HF50Scan_220920_R2.csv
Names,Time,Stack TC,Smoke TC,Exh Press,Smoke Comp,Smoke Meas,CO Meter,CO2 Meter,O2 Meter,Sample Mass,Ext Coeff,Start Test,Flame Verif
Chan Gain,,500,500,1,1,1,1,1,1,1,1,1.0,1.0
Offset,,0,0,0.143022,0,0,0,0,0,0,0,0.0,0.0
Gain,,1,1,25.011,14.5176,16.5692,1,1,1,1.00088,1.03055,1.0,1.0
Units,sec,C,C,Pa,%,%,%,%,%,g,/m,,
Baseline,,48.6301,50.1428,155.581,110.513,115.465,-0.000930378,0.0434181,20.9515,-447.457,-0.39618,,
3,0.5,46.8887,48.613,156.008,109.731,113.937,-0.000709058,0.0433639,20.9529,591.001,-0.34005,0.0,0.0
6,1.25,47.0816,47.8747,152.036,109.733,113.629,-0.000723179,0.0433552,20.9529,591.051,-0.315402,0.0,0.0
9,2,46.9031,48.6635,152.908,109.731,114.55,-0.000693659,0.0433488,20.9529,591.041,-0.388503,0.0,0.0
12,2.75,46.8964,48.708,159.597,109.739,113.82,-0.000644197,0.0433738,20.9529,591.031,-0.330157,0.0,0.0
15,3.5,46.8689,48.664,155.661,109.765,112.652,-0.000570881,0.0434221,20.9529,591.041,-0.234714,0.0,0.0
18,4.25,46.6981,48.1145,152.86,109.781,112.985,-0.0004829,0.0435983,20.9523,591.021,-0.260024,0.0,0.0
21,5,46.8803,48.2453,153.122,109.764,112.841,-0.000420964,0.0438675,20.952,591.041,-0.24991,0.0,0.0
24,5.75,46.8406,48.0973,151.457,109.768,112.573,-0.000310841,0.0445611,20.9521,590.991,-0.22809,0.0,0.0
27,6.5,46.9898,47.7995,154.406,109.789,112.27,-0.000172305,0.0458147,20.9522,590.971,-0.202057,0.0,1.0
30,7.25,46.9178,48.215,154.619,109.813,113.039,2.83068e-05,0.0497635,20.9497,591.041,-0.261766,0.0,1.0
33,8,46.7548,48.2523,153.826,109.811,111.519,0.000422077,0.054953,20.9391,591.011,-0.139527,0.0,1.0
36,8.75,47.066,48.6548,152.045,109.814,105.999,0.000888521,0.0652041,20.9189,590.951,0.319695,0.0,1.0
39,9.5,47.2506,48.6061,148.662,109.824,102.922,0.00140921,0.0799541,20.8895,590.871,0.586708,0.0,1.0
42,10.25,47.8208,48.7969,142.267,109.85,99.775,0.00196695,0.100323,20.8415,590.861,0.869598,0.0,1.0
45,11,46.8267,47.6235,142.746,109.854,98.162,0.00266823,0.123511,20.7941,590.821,1.0173,0.0,0.0
48,11.75,47.4701,47.7992,141.926,109.846,95.4522,0.00346664,0.147667,20.745,590.701,1.26967,0.0,0.0
51,12.5,47.7596,48.2524,141.721,109.86,95.0977,0.00387471,0.174076,20.7171,590.651,1.3045,0.0,0.0
54,13.25,48.6395,48.5749,139.38,109.886,93.5434,0.00473387,0.199261,20.6756,590.601,1.45556,0.0,0.0
57,14,49.2129,48.9593,137.795,109.886,90.4776,0.00549472,0.223243,20.6413,590.551,1.75687,0.0,0.0
60,14.75,49.4545,49.5025,136.545,109.878,91.2184,0.00627941,0.246015,20.6025,590.5,1.68242,0.0,0.0
63,15.5,50.5552,50.2239,136.272,109.902,89.5386,0.00712566,0.264103,20.5697,590.46,1.85245,0.0,0.0
66,16.25,50.8282,50.4086,138.404,109.909,90.4346,0.0079827,0.284999,20.5383,590.39,1.76302,0.0,0.0
69,17,51.5206,51.1552,134.8,109.921,85.6952,0.00881818,0.310034,20.497,590.31,2.25063,0.0,0.0
72,17.75,52.2193,52.0053,136.064,109.917,84.1433,0.00965877,0.33188,20.4559,590.23,2.4155,0.0,0.0
75,18.5,52.8371,52.5574,135.488,109.914,83.4875,0.0104754,0.353956,20.4212,590.15,2.48598,0.0,0.0
78,19.25,53.9364,53.1503,128.457,109.936,79.9869,0.0112504,0.379501,20.3814,590.1,2.87499,0.0,0.0
81,20,54.9196,54.2223,136.217,109.946,82.4742,0.0120641,0.401021,20.3472,590,2.59904,0.0,0.0
84,20.75,55.4769,54.7501,125.702,109.951,76.0286,0.0127632,0.421665,20.3136,589.93,3.33506,0.0,0.0
87,21.5,56.4613,55.4114,131.857,109.967,81.2697,0.0134902,0.444404,20.2815,589.86,2.73374,0.0,0.0
90,22.25,57.2949,56.3025,131.942,109.974,79.8655,0.0141274,0.463584,20.2521,589.78,2.89188,0.0,0.0
93,23,58.1179,57.0189,130.971,109.979,78.8466,0.014661,0.482017,20.2259,589.64,3.00835,0.0,0.0
96,23.75,59.3781,57.9601,129.453,109.983,77.7104,0.0150898,0.498284,20.2068,589.55,3.13989,0.0,0.0
99,24.5,60.1876,58.723,126.616,109.982,78.8765,0.0154044,0.511429,20.1929,589.46,3.00519,0.0,0.0
102,25.25,60.8447,58.7831,130.807,109.992,77.0673,0.0156147,0.521149,20.1827,589.389,3.21575,0.0,0.0
105,26,61.6426,60.1486,136.331,110.007,78.5943,0.0157354,0.526062,20.1823,589.319,3.03966,0.0,0.0
108,26.75,62.3352,61.2711,137.626,110.011,76.3968,0.0157557,0.526979,20.1819,589.259,3.29628,0.0,0.0
111,27.5,62.8975,61.546,130.578,110.012,78.3233,0.0156547,0.526511,20.1846,589.129,3.07125,0.0,0.0
114,28.25,63.363,61.9511,135.331,110.014,79.5424,0.0154651,0.519916,20.1914,589.019,2.93181,0.0,0.0
117,29,63.9023,62.6377,137.909,110.052,81.9741,0.0151287,0.511798,20.2096,588.949,2.66272,0.0,0.0
120,29.75,63.972,63.5155,138.314,110.044,79.3705,0.0146013,0.500222,20.2334,588.939,2.95381,0.0,0.0
123,30.5,64.0581,63.9114,144.335,110.054,84.0599,0.014004,0.491783,20.263,588.889,2.43576,0.0,0.0
126,31.25,64.7579,64.1507,144.69,110.048,87.8846,0.0133644,0.472302,20.2978,588.849,2.03298,0.0,0.0
129,32,64.2417,64.6697,141.634,110.079,87.2698,0.0127042,0.45261,20.3414,588.819,2.09903,0.0,0.0
132,32.75,64.6086,64.6797,145.707,110.088,92.0138,0.0118984,0.435914,20.383,588.769,1.62124,0.0,0.0
135,33.5,64.5268,64.9711,146.058,110.092,91.6649,0.0113111,0.415412,20.4175,588.769,1.65591,0.0,0.0
138,34.25,65.0815,64.9497,143.916,110.095,93.959,0.0104421,0.395174,20.451,588.689,1.43267,0.0,0.0
141,35,64.4362,65.07,150.033,110.114,97.6791,0.00954825,0.37572,20.483,588.659,1.08326,0.0,0.0
144,35.75,64.6511,65.3913,146.796,110.135,100.323,0.00878562,0.35736,20.5131,588.619,0.843485,0.0,0.0
147,36.5,64.9445,65.7793,144.491,110.119,99.9009,0.00787531,0.337093,20.5412,588.599,0.880302,0.0,0.0
150,37.25,64.3087,65.3763,149.656,110.128,105.352,0.00701562,0.319936,20.5686,588.609,0.400804,0.0,0.0
153,38,64.3178,65.4831,146.909,110.148,105.726,0.00621527,0.303356,20.5957,588.519,0.370427,0.0,0.0
156,38.75,64.138,65.7119,144.259,110.153,107.253,0.00547786,0.287588,20.6221,588.549,0.241234,0.0,0.0
159,39.5,63.9163,64.9531,146.232,110.142,109.906,0.00481029,0.274525,20.6486,588.479,0.01938,0.0,0.0
162,40.25,63.9149,65.1309,149.439,110.148,110.539,0.00426821,0.259859,20.6698,588.459,-0.0320319,0.0,0.0
165,41,63.4524,64.9308,146.974,110.156,113.12,0.00370079,0.246534,20.6897,588.439,-0.239973,0.0,0.0
168,41.75,63.5703,65.1374,145.755,110.179,113.445,0.00325742,0.234409,20.7061,588.429,-0.264027,0.0,0.0
171,42.5,63.2176,64.8843,152.212,110.177,114.383,0.00288338,0.223368,20.7231,588.429,-0.338685,0.0,0.0
174,43.25,63.347,64.6167,146.911,110.171,114.077,0.00255171,0.212681,20.7382,588.419,-0.314945,0.0,0.0
177,44,63.062,64.8992,148.612,110.176,114.617,0.00226861,0.203766,20.7522,588.389,-0.357278,0.0,0.0
180,44.75,63.0042,65.1036,151.063,110.201,115.503,0.00203146,0.194024,20.7655,588.369,-0.424846,0.0,0.0
183,45.5,62.4783,64.6422,147.282,110.19,115.457,0.00183606,0.185329,20.7779,588.359,-0.422113,0.0,0.0
186,46.25,62.4951,64.81,150.283,110.196,116.541,0.00167861,0.177611,20.789,588.339,-0.506093,0.0,0.0
189,47,62.3293,64.5393,149.293,110.194,115.937,0.00155743,0.170785,20.7987,588.339,-0.459319,0.0,0.0
192,47.75,61.4823,64.5679,150.554,110.201,115.73,0.00147285,0.164539,20.8065,588.319,-0.44256,0.0,0.0
195,48.5,61.5029,63.9974,150.039,110.223,115.942,0.00142594,0.158911,20.8134,588.349,-0.457275,0.0,0.0
198,49.25,61.2293,63.8132,149.783,110.201,115.964,0.00141426,0.153895,20.8203,588.329,-0.460829,0.0,0.0
201,50,61.1904,64.0145,149.558,110.207,115.214,0.00144679,0.149697,20.8253,588.299,-0.401672,0.0,0.0
204,50.75,60.5111,63.7605,149.852,110.221,114.799,0.0014705,0.145713,20.8302,588.279,-0.367953,0.0,0.0
207,51.5,60.4834,62.9932,150.923,110.216,115.737,0.0015191,0.141661,20.8344,588.279,-0.441838,0.0,0.0
210,52.25,60.5176,63.7535,156.015,110.215,115.113,0.00157579,0.138346,20.8386,588.289,-0.393043,0.0,0.0
213,53,60.6759,63.1438,150.776,110.236,115.323,0.00163065,0.135312,20.8429,588.268,-0.407839,0.0,0.0
216,53.75,60.115,62.9903,151.61,110.24,116.102,0.00167958,0.132724,20.8469,588.248,-0.468311,0.0,0.0
219,54.5,60.1037,62.7003,150.17,110.241,115.95,0.00171525,0.130195,20.8502,588.238,-0.45638,0.0,0.0
222,55.25,59.7468,62.7075,151.539,110.233,115.573,0.00172695,0.127711,20.8533,588.248,-0.427613,0.0,0.0
225,56,59.8334,62.0967,153.467,110.239,115.735,0.00172916,0.125104,20.8555,588.208,-0.439827,0.0,0.0
228,56.75,59.1656,62.7107,153.416,110.266,114.452,0.00172809,0.122981,20.8584,588.188,-0.336852,0.0,0.0
231,57.5,59.2056,62.5785,151.569,110.249,115.773,0.00175948,0.120812,20.8607,588.188,-0.441957,0.0,0.0
234,58.25,58.9023,61.9791,150.304,110.26,115.175,0.0018136,0.119102,20.8631,588.178,-0.394216,0.0,0.0
237,59,58.6027,61.5825,156.976,110.247,115.605,0.00184445,0.117633,20.8639,588.168,-0.429018,0.0,0.0
240,59.75,58.5753,61.7911,152.786,110.256,115.208,0.00188903,0.116344,20.8649,588.178,-0.397202,0.0,0.0
243,60.5,58.6662,61.2569,154.432,110.258,115.557,0.00190648,0.11531,20.8659,588.168,-0.424315,0.0,0.0
246,61.25,58.3585,61.9577,150.752,110.249,115.428,0.00191278,0.113804,20.867,588.148,-0.41499,0.0,0.0
249,62,57.8927,61.3671,159.854,110.261,114.549,0.00188728,0.113091,20.868,588.138,-0.344876,0.0,0.0
252,62.75,58.1597,61.4316,149.465,110.261,115.025,0.00184399,0.112052,20.8692,588.118,-0.382392,0.0,0.0
255,63.5,57.8177,60.7265,149.801,110.285,115.275,0.00179214,0.110758,20.8706,588.128,-0.400001,0.0,0.0
258,64.25,57.9921,61.0967,155.123,110.272,114.852,0.00171505,0.109469,20.8717,588.068,-0.367843,0.0,0.0
261,65,57.8228,61.115,152.862,110.271,115.449,0.00163008,0.108381,20.8729,588.088,-0.414757,0.0,0.0
264,65.75,57.5005,61.0502,156.241,110.271,114.379,0.0015427,0.107032,20.8746,588.098,-0.330623,0.0,0.0
267,66.5,57.177,60.4901,151.533,110.282,116.35,0.00145651,0.105882,20.8763,588.058,-0.484208,0.0,0.0
270,67.25,56.9689,60.614,150.765,110.272,116.077,0.00137872,0.104759,20.8777,588.098,-0.463766,0.0,0.0
273,68,56.6602,60.0963,159.468,110.272,115.816,0.00131565,0.10357,20.8788,588.108,-0.443384,0.0,0.0
276,68.75,56.7437,59.9421,153.534,110.275,115.291,0.00125468,0.102631,20.8796,588.108,-0.402069,0.0,0.0
279,69.5,56.5024,60.1577,151.906,110.293,116.185,0.00119661,0.101901,20.8804,588.078,-0.470518,0.0,0.0
282,70.25,56.1887,59.7423,154.993,110.284,115.366,0.00114192,0.101345,20.8814,588.038,-0.407245,0.0,0.0
285,71,56.6415,59.9279,153.39,110.284,114.642,0.00106823,0.100833,20.8823,588.018,-0.350367,0.0,0.0
288,71.75,56.2236,59.5943,152.874,110.281,115.655,0.000987075,0.100279,20.883,588.008,-0.430134,0.0,0.0
291,72.5,56.3674,59.6531,153.522,110.294,114.969,0.000902444,0.0998024,20.8834,587.978,-0.375329,0.0,0.0
294,73.25,55.928,59.5851,153.198,110.298,115.371,0.000817195,0.0994322,20.8838,587.998,-0.406516,0.0,0.0
297,74,55.8103,59.0737,152.598,110.292,115.699,0.000745217,0.0991753,20.8841,587.988,-0.432704,0.0,0.0
300,74.75,55.9483,58.9823,154.343,110.291,114.927,0.000675932,0.0989059,20.8843,587.948,-0.372209,0.0,0.0
303,75.5,55.6371,58.9917,149.959,110.307,115.672,0.000639845,0.0985657,20.8846,587.908,-0.4293,0.0,0.0
306,76.25,55.5095,59.2199,154.082,110.303,115.04,0.0006382,0.0982564,20.8847,587.928,-0.380167,0.0,0.0
309,77,55.5858,58.9778,152.89,110.288,114.82,0.000671906,0.0978297,20.885,587.938,-0.363988,0.0,0.0
312,77.75,55.2486,59.0774,153.987,110.291,114.925,0.000711358,0.0973496,20.8857,587.928,-0.372087,0.0,0.0
315,78.5,55.5187,58.7338,155.35,110.303,115.779,0.000773927,0.0968573,20.8862,587.938,-0.438033,0.0,0.0
318,79.25,55.2198,58.2586,152.346,110.316,115.884,0.00081954,0.096438,20.887,587.928,-0.445116,0.0,0.0
321,80,55.1738,58.4776,158.036,110.296,114.862,0.00083283,0.0960289,20.8877,587.888,-0.366678,0.0,0.0
324,80.75,54.5905,57.9719,152.095,110.311,116.163,0.000821539,0.0954644,20.8883,587.888,-0.46726,0.0,0.0
327,81.5,54.8322,58.4496,155.958,110.312,115.373,0.000791986,0.0949169,20.8887,587.898,-0.405512,0.0,0.0
330,82.25,54.7142,58.3798,153.669,110.315,115.781,0.000756669,0.0942852,20.889,587.918,-0.437138,0.0,0.0
333,83,54.6991,58.3765,151.855,110.311,115.065,0.000722107,0.0935588,20.8891,587.918,-0.381387,0.0,0.0
336,83.75,54.7424,57.93,151.858,110.309,115.624,0.000650206,0.0928858,20.8895,587.908,-0.425399,0.0,0.0
339,84.5,54.4956,57.9384,153.686,110.314,115.297,0.000578799,0.0922587,20.8902,587.898,-0.399425,0.0,0.0
342,85.25,54.3492,57.9459,152.944,110.326,114.445,0.000473335,0.0916725,20.8907,587.908,-0.33143,0.0,0.0
345,86,53.9863,58.0874,151.784,110.348,115.839,0.000360654,0.0912824,20.8911,587.888,-0.439027,0.0,0.0
348,86.75,53.745,57.6728,153.368,110.326,115.62,0.000237765,0.0907155,20.8918,587.898,-0.423664,0.0,0.0
351,87.5,54.3002,58.0131,153.414,110.326,114.852,0.00014295,0.0900775,20.8925,587.868,-0.36341,0.0,0.0
354,88.25,53.8809,57.5937,157.689,110.348,115.135,6.48888e-05,0.0894979,20.893,587.878,-0.383931,0.0,0.0
357,89,54.0523,57.3654,151.557,110.345,115.042,1.7763e-05,0.0889737,20.8934,587.888,-0.376838,0.0,0.0
360,89.75,53.5682,57.1063,151.127,110.333,114.668,1.34075e-07,0.0885015,20.8935,587.858,-0.348406,0.0,0.0
363,90.5,54.1077,57.4267,152.645,110.333,115.105,1.56263e-05,0.0880347,20.8939,587.858,-0.382822,0.0,0.0
366,91.25,53.6232,57.1358,151.538,110.343,114.809,3.01896e-05,0.0876486,20.8945,587.848,-0.358611,0.0,0.0
369,92,53.5087,57.2436,148.509,110.338,114.854,4.15527e-05,0.0872887,20.8947,587.858,-0.362665,0.0,0.0
372,92.75,53.6924,56.7009,154.178,110.312,114.588,5.11362e-05,0.0869587,20.8951,587.808,-0.343736,0.0,0.0
375,93.5,53.9199,57.3319,154.645,110.33,115.307,5.43957e-05,0.0866022,20.8955,587.788,-0.398871,0.0,0.0
378,94.25,53.9104,56.9571,151.974,110.344,115.543,5.71445e-05,0.0861383,20.8963,587.778,-0.416201,0.0,0.0
381,95,53.8535,56.8633,149.611,110.344,114.413,6.25027e-05,0.0858011,20.8968,587.788,-0.327386,0.0,0.0
384,95.75,53.3993,56.7159,152.299,110.326,114.685,6.65492e-05,0.0854116,20.8971,587.808,-0.350303,0.0,0.0
387,96.5,53.4377,57.0388,151.62,110.319,114.022,7.29031e-05,0.0850461,20.8974,587.788,-0.298406,0.0,0.0
390,97.25,53.3113,56.4789,150.14,110.32,114.361,7.81889e-05,0.0847389,20.8976,587.758,-0.325153,0.0,0.0
393,98,53.1826,56.4626,151.397,110.322,115.155,8.31603e-05,0.0845299,20.8987,587.748,-0.387585,0.0,0.0
396,98.75,53.2531,56.3793,151.601,110.312,115.418,9.67712e-05,0.0844412,20.8993,587.758,-0.409077,0.0,0.0
399,99.5,53.0725,56.2677,152.464,110.304,114.812,0.000113568,0.0843387,20.8993,587.768,-0.362044,0.0,0.0
402,100.25,53.4386,56.5599,153.672,110.317,115.93,0.000130288,0.0843251,20.8996,587.738,-0.448669,0.0,0.0
405,101,53.4323,56.0794,150.699,110.319,115.22,0.000135385,0.0842631,20.8998,587.678,-0.392958,0.0,0.0
408,101.75,53.1945,56.1881,154.912,110.304,114.857,0.000122947,0.084129,20.8999,587.778,-0.365622,0.0,0.0
411,102.5,53.2024,56.6432,155.412,110.293,114.802,0.000106993,0.0839497,20.9,587.748,-0.362231,0.0,0.0
414,103.25,52.8832,56.4683,156.238,110.295,115.021,6.92796e-05,0.0837588,20.9003,587.698,-0.37935,0.0,0.0
417,104,53.0567,56.2117,151.881,110.317,115.176,2.02092e-05,0.0835168,20.9009,587.718,-0.389687,0.0,0.0
420,104.75,53.0661,56.23,153.425,110.302,115.212,-3.34464e-05,0.0832996,20.9014,587.728,-0.393663,0.0,0.0
423,105.5,52.8217,55.9312,154.084,110.294,114.321,-8.14181e-05,0.0831984,20.9017,587.688,-0.324174,0.0,0.0
426,106.25,52.3359,55.93,154.071,110.287,114.517,-0.000108938,0.083149,20.9019,587.698,-0.340219,0.0,0.0
429,107,52.7693,56.0578,151.25,110.31,114.368,-0.000116019,0.0831273,20.9021,587.628,-0.326624,0.0,0.0
432,107.75,52.2806,56.0792,152.703,110.299,115.739,-0.000104416,0.0831251,20.9016,587.668,-0.435244,0.0,0.0
435,108.5,52.6217,55.5229,154.191,110.287,114.808,-7.11568e-05,0.0831363,20.9013,587.668,-0.363141,0.0,0.0
438,109.25,52.82,55.7057,150.435,110.295,115.498,-5.4158e-05,0.0831853,20.9011,587.688,-0.416748,0.0,0.0
441,110,52.2769,55.5655,149.358,110.288,116.163,-1.84137e-05,0.0832067,20.9008,587.658,-0.469187,0.0,0.0
444,110.75,52.77,55.6782,151.91,110.293,115.752,2.30132e-05,0.0831305,20.9004,587.678,-0.436663,0.0,0.0
447,111.5,52.7764,55.4788,153.282,110.268,114.835,6.77541e-05,0.0830384,20.9001,587.648,-0.366893,0.0,0.0
450,112.25,52.3747,55.5407,150.285,110.264,115.561,0.000139393,0.0829455,20.9004,587.658,-0.4242,0.0,0.0
453,113,52.4775,55.9444,153.891,110.277,115.225,0.000220242,0.0827796,20.9007,587.628,-0.396768,0.0,0.0
456,113.75,52.511,55.7287,154.515,110.264,114.834,0.000301215,0.0825158,20.901,587.588,-0.367177,0.0,0.0
459,114.5,52.363,55.717,152.836,110.248,115.444,0.000377056,0.0822176,20.9012,587.618,-0.416363,0.0,0.0
462,115.25,52.4781,55.4841,154.29,110.257,115.502,0.000427015,0.081923,20.9018,587.598,-0.420153,0.0,0.0
465,116,52.6887,55.4331,153.733,110.245,114.599,0.000463435,0.0816269,20.9024,587.588,-0.350173,0.0,0.0
468,116.75,52.3492,55.4884,152.042,110.242,115.946,0.000447366,0.0813111,20.9029,587.618,-0.455992,0.0,0.0
471,117.5,51.9923,54.9712,151.528,110.22,114.868,0.000412014,0.0810233,20.9032,587.628,-0.373399,0.0,0.0
474,118.25,51.8586,55.5858,153.101,110.206,115.466,0.000369621,0.0807878,20.9034,587.608,-0.42152,0.0,0.0
477,119,51.9378,55.3617,152.717,110.204,115.098,0.000327524,0.0805957,20.9036,587.588,-0.392759,0.0,0.0
480,119.75,52.229,55.0582,151.274,110.206,116.241,0.000296836,0.0804182,20.9037,587.568,-0.481927,0.0,0.0
483,120.5,52.1774,55.0559,151.647,110.182,114.763,0.000283331,0.0802245,20.9035,587.578,-0.368211,0.0,0.0
486,121.25,52.4823,55.057,154.039,110.168,115.018,0.000278461,0.080063,20.9033,587.568,-0.389427,0.0,0.0
489,122,51.9601,54.8153,152.213,110.149,114.855,0.000277458,0.0799453,20.9032,587.598,-0.378221,0.0,0.0
492,122.75,52.2592,54.9971,152.108,110.15,115.056,0.000290492,0.0797881,20.9031,587.588,-0.393898,0.0,0.0
495,123.5,52.1053,54.8287,153.189,110.125,115.199,0.000317025,0.0796431,20.9032,587.568,-0.407247,0.0,0.0
498,124.25,52.0854,55.0031,152.571,110.102,115.572,0.000379912,0.0794154,20.9037,587.568,-0.438298,0.0,0.0
501,125,52.1268,54.8682,151.496,110.094,114.376,0.000450419,0.0791849,20.9047,587.568,-0.344926,0.0,0.0
504,125.75,51.7938,54.2836,151.71,110.103,115.02,0.00052315,0.0788586,20.9054,587.548,-0.394968,0.0,0.0
507,126.5,51.5181,54.9986,151.196,110.075,114.742,0.00057991,0.0785181,20.906,587.538,-0.375379,0.0,0.0
510,127.25,51.8738,54.7905,152.349,110.061,115.279,0.000615667,0.0781843,20.9064,587.528,-0.418712,0.0,0.0
513,128,51.8361,54.702,152.849,110.041,115.01,0.000629394,0.0778596,20.9073,587.548,-0.399271,0.0,0.0
516,128.75,52.0754,54.8915,154.238,110.038,114.92,0.00060031,0.0775084,20.9079,587.538,-0.392448,0.0,0.0
519,129.5,52.1571,54.6207,147.235,110.019,115.518,0.000579108,0.0771882,20.9084,587.538,-0.440942,0.0,0.0
522,130.25,51.7049,54.6877,153.062,109.986,115.176,0.000522582,0.0766908,20.9088,587.518,-0.416772,0.0,0.0
525,131,51.3692,54.2887,154.628,109.981,114.047,0.000463865,0.0762307,20.909,587.488,-0.328149,0.0,0.0
528,131.75,52.0993,54.8301,153.949,109.97,115.052,0.000390909,0.0757287,20.9097,587.488,-0.40843,0.0,0.0
531,132.5,51.5732,54.4591,157.163,109.947,114.677,0.000329022,0.0752631,20.9103,587.478,-0.38076,0.0,0.0
534,133.25,51.7236,54.6437,153.893,109.914,115.239,0.000283469,0.0748812,20.9108,587.498,-0.427745,0.0,0.0
537,134,51.3205,54.5001,151.794,109.894,114.766,0.000255853,0.0744179,20.9111,587.478,-0.392145,0.0,0.0
540,134.75,51.5151,54.5342,153.033,109.886,115.058,0.000264098,0.0739638,20.9118,587.478,-0.415829,0.0,0.0
543,135.5,51.5296,54.4966,148.332,109.871,113.99,0.000296236,0.0735687,20.9125,587.468,-0.332731,0.0,0.0
546,136.25,51.7659,53.9957,154.151,109.854,115.052,0.000330804,0.0732199,20.913,587.438,-0.41794,0.0,0.0
549,137,51.8495,54.4168,152.495,109.82,114.655,0.000388378,0.0729371,20.9134,587.448,-0.389506,0.0,0.0
552,137.75,51.5077,54.3312,149.684,109.804,114.9,0.000449398,0.0726665,20.9137,587.448,-0.410131,0.0,0.0
555,138.5,51.3584,54.239,158.9,109.784,115.119,0.000502852,0.0723796,20.9145,587.448,-0.428983,0.0,0.0
558,139.25,51.3537,53.976,151.519,109.766,114.778,0.000530606,0.0719146,20.9151,587.468,-0.403602,0.0,0.0
561,140,51.7654,54.2597,156.724,109.737,114.059,0.000532951,0.0714665,20.9155,587.478,-0.349239,0.0,0.0
564,140.75,51.4484,54.1198,151.118,109.731,114.215,0.000512246,0.0709978,20.9159,587.448,-0.362051,0.0,0.0
567,141.5,51.3211,53.9986,151.841,109.716,114.884,0.000474075,0.0705581,20.9161,587.418,-0.416123,0.0,0.0
570,142.25,51.2562,54.1281,152.229,109.693,114.159,0.000446248,0.0701737,20.9167,587.458,-0.360707,0.0,0.0
573,143,51.4147,53.9113,153.477,109.664,114.661,0.000402329,0.0697516,20.9174,587.458,-0.402868,0.0,0.0
576,143.75,51.1849,53.806,153.447,109.647,114.122,0.000360236,0.0693729,20.9178,587.448,-0.361582,0.0,0.0
579,144.5,51.234,53.6548,151.487,109.642,112.501,0.00032582,0.0690666,20.9182,587.448,-0.232686,0.0,0.0
582,145.25,51.299,53.8466,154.834,109.624,113.519,0.00029914,0.0688433,20.9184,587.438,-0.315647,0.0,0.0
585,146,51.1283,53.7526,154.235,109.6,114.254,0.000279691,0.0683768,20.919,587.428,-0.37598,0.0,0.0
588,146.75,50.7903,54.1222,155.303,109.583,113.972,0.0002531,0.0679694,20.9197,587.398,-0.354979,0.0,0.0
591,147.5,51.301,53.771,152.718,109.589,114.269,0.000228742,0.0675576,20.9204,587.358,-0.378053,0.0,0.0
594,148.25,50.8179,53.7493,151.379,109.567,114.111,0.000208866,0.0671296,20.9213,587.368,-0.367391,0.0,0.0
597,149,51.047,53.9539,152.284,109.542,113.148,0.000206787,0.066711,20.9219,587.368,-0.292809,0.0,0.0
600,149.75,50.8161,53.4471,149.695,109.526,114.191,0.000235121,0.0663164,20.9224,587.378,-0.377042,0.0,0.0
603,150.5,50.8163,53.6864,150.179,109.503,114.277,0.000268501,0.065867,20.9228,587.388,-0.385709,0.0,0.0
606,151.25,50.6852,53.6707,153.887,109.489,114.841,0.000311835,0.0654542,20.923,587.378,-0.43141,0.0,0.0
609,152,50.8198,53.6601,151.88,109.456,114.678,0.000375915,0.0651096,20.9232,587.368,-0.421288,0.0,0.0
612,152.75,50.4659,53.1232,149.885,109.439,113.953,0.000417301,0.0648457,20.9234,587.388,-0.365414,0.0,0.0
615,153.5,50.7264,53.5565,152.634,109.438,113.923,0.000439608,0.0645398,20.9237,587.398,-0.363044,0.0,0.0
618,154.25,51.0321,53.6686,153.339,109.43,114.306,0.000442423,0.0642685,20.9243,587.378,-0.394106,0.0,0.0
621,155,50.5301,53.256,154.874,109.408,113.23,0.00041785,0.0639007,20.9248,587.368,-0.310436,0.0,0.0
624,155.75,50.2549,53.463,156.125,109.392,114.19,0.000381278,0.0635601,20.9251,587.348,-0.388052,0.0,0.0
627,156.5,50.8037,53.4826,156.589,109.392,113.996,0.000332987,0.0631501,20.9256,587.348,-0.372707,0.0,0.0
630,157.25,50.535,53.1564,155.297,109.381,113.232,0.000291952,0.0627946,20.9264,587.338,-0.312794,0.0,0.0
633,158,50.6344,53.3391,155.19,109.361,114.155,0.000253337,0.0624964,20.9269,587.328,-0.387849,0.0,0.0
636,158.75,50.6532,52.7748,154.784,109.33,112.571,0.000218862,0.0622535,20.9273,587.328,-0.264085,0.0,0.0
639,159.5,50.3309,53.4028,151.952,109.321,114.589,0.000189256,0.0619552,20.9276,587.328,-0.42544,0.0,0.0
642,160.25,50.893,53.2623,153.481,109.316,112.931,0.000153496,0.0617094,20.9278,587.308,-0.294086,0.0,0.0
645,161,50.5309,53.1043,153.73,109.317,113.843,0.000103829,0.0615182,20.928,587.298,-0.366736,0.0,0.0
648,161.75,50.3869,53.0086,149.615,109.282,114.322,5.75626e-05,0.0613586,20.9281,587.318,-0.407575,0.0,0.0
651,162.5,50.426,53.0371,153.754,109.276,114.158,-1.6907e-05,0.0612199,20.9286,587.328,-0.395163,0.0,0.0
654,163.25,50.5984,52.8039,157.274,109.278,113.767,-8.85818e-05,0.0610806,20.9292,587.308,-0.363975,0.0,0.0
657,164,50.0083,52.6847,150.93,109.256,114.921,-0.000148245,0.0608377,20.9296,587.308,-0.456921,0.0,0.0
660,164.75,50.5025,53.1778,157.645,109.228,113.962,-0.000202916,0.060604,20.9299,587.308,-0.383533,0.0,0.0
663,165.5,50.5501,52.9336,151.023,109.222,114.049,-0.000247536,0.0604095,20.9301,587.288,-0.390909,0.0,0.0
666,166.25,50.4358,52.8271,151.329,109.221,114.246,-0.000278823,0.0602879,20.9304,587.288,-0.4066,0.0,0.0
669,167,49.8963,52.8945,152.261,109.208,114.231,-0.000301101,0.0601769,20.9309,587.278,-0.40646,0.0,0.0
672,167.75,50.4706,52.7705,155.02,109.198,114.003,-0.000299628,0.0600577,20.9312,587.268,-0.389241,0.0,0.0
675,168.5,50.4654,52.7324,151.371,109.183,114.011,-0.000273717,0.0599709,20.9319,587.268,-0.391168,0.0,0.0
678,169.25,50.3417,52.9454,155.76,109.184,113.703,-0.000225284,0.0597259,20.9325,587.248,-0.366608,0.0,0.0
681,170,50.1933,52.7228,157.063,109.17,113.729,-0.000157562,0.0594908,20.933,587.238,-0.369831,0.0,0.0
684,170.75,50.1762,52.7609,154.77,109.166,114.452,-5.32451e-05,0.0592431,20.934,587.248,-0.427492,0.0,0.0
687,171.5,50.1477,52.523,152.45,109.155,114.111,3.26204e-05,0.0589734,20.9347,587.258,-0.401373,0.0,0.0
690,172.25,50.4804,52.7309,154.408,109.175,113.948,0.000112006,0.0585953,20.9353,587.248,-0.386891,0.0,0.0
693,173,50.4616,52.425,155.355,109.16,113.869,0.000161216,0.0582631,20.9357,587.258,-0.381762,0.0,0.0
696,173.75,50.2138,52.7281,157.196,109.129,114.375,0.000190126,0.0579968,20.9359,587.248,-0.424424,0.0,0.0
699,174.5,49.9998,52.3951,153.415,109.123,114.296,0.000205604,0.0577422,20.9364,587.238,-0.418664,0.0,0.0
702,175.25,49.9536,52.7662,151.045,109.121,114.334,0.000211568,0.0574753,20.9367,587.248,-0.421887,0.0,0.0
705,176,49.9809,52.2474,154.497,109.104,113.385,0.000212185,0.0571417,20.9372,587.248,-0.347923,0.0,0.0
708,176.75,49.9811,52.2685,153.976,109.086,114.075,0.000207774,0.0567432,20.9379,587.238,-0.404255,0.0,0.0
711,177.5,48.5969,50.5373,156.847,109.075,113.883,0.000198964,0.056312,20.9391,587.228,-0.389973,0.0,0.0
714,178.25,48.5356,50.802,155.473,109.067,113.899,0.000186,0.0557961,20.9399,587.208,-0.391882,0.0,0.0
717,179,48.8338,50.4471,153.524,109.064,114.21,0.000165363,0.055293,20.9405,587.198,-0.416783,0.0,0.0
720,179.75,48.4753,50.429,153.703,109.053,114.137,0.000132598,0.0547248,20.9414,587.1875,-0.411899,0.0,0.0
723,180.5,48.6409,50.8098,153.674,109.036,112.788,8.88406e-05,0.0542735,20.9423,587.177,-0.305845,0.0,0.0
726,181.25,48.2289,50.4389,153.126,109.023,113.192,3.80118e-05,0.0538809,20.9429,587.208,-0.339271,0.0,0.0
729,182,48.1275,50.3124,153.512,109.035,114.226,-1.69264e-05,0.0535948,20.9433,587.218,-0.420487,0.0,0.0
732,182.75,48.4191,50.9281,153.281,109.017,113.489,-9.06316e-05,0.0533713,20.9437,587.1875,-0.363463,0.0,0.0
735,183.5,48.077,50.7948,157.324,109.007,113.878,-0.000162991,0.0531829,20.9439,587.177,-0.395155,0.0,0.0
738,184.25,48.265,51.0646,155.744,109.012,113.593,-0.000223684,0.0529853,20.9441,587.148,-0.372083,0.0,0.0
741,185,47.8337,50.5567,153.356,109.013,112.968,-0.000270543,0.052827,20.9442,587.158,-0.322172,0.0,0.0
744,185.75,48.2024,50.465,153.599,109.004,113.668,-0.000309174,0.0527057,20.9443,587.158,-0.378775,0.0,0.0
747,186.5,48.0661,50.7287,156.048,108.988,113.105,-0.000346193,0.0525971,20.9444,587.177,-0.335265,0.0,0.0
750,187.25,48.1544,50.8016,153.139,108.987,113.747,-0.000383116,0.0525179,20.9444,587.168,-0.386479,0.0,0.0
753,188,48.3341,50.4887,152.212,108.986,113.775,-0.000414267,0.0524602,20.9445,587.1875,-0.388803,0.0,0.0
756,188.75,47.9779,50.4252,153.597,108.992,113.026,-0.000446912,0.0523476,20.9444,587.168,-0.328588,0.0,0.0
759,189.5,48.7098,50.497,155.05,108.962,113.356,-0.000474946,0.0522354,20.9442,587.168,-0.357383,0.0,0.0
762,190.25,48.2051,50.3735,154.715,108.954,113.874,-0.000502468,0.0521133,20.9441,587.168,-0.39928,0.0,0.0
765,191,48.6532,50.5662,156.763,108.953,113.267,-0.000523774,0.0520244,20.944,587.168,-0.351092,0.0,0.0
768,191.75,47.7866,50.3046,153.726,108.966,112.785,-0.000539835,0.0518589,20.9439,587.158,-0.311447,0.0,0.0
771,192.5,48.0045,50.4607,153.945,108.954,113.389,-0.000540915,0.0517241,20.9438,587.158,-0.360625,0.0,0.0
774,193.25,47.9839,50.491,152.628,108.94,113.251,-0.000529938,0.0515976,20.9438,587.127,-0.350789,0.0,0.0
777,194,48.1534,50.3368,152.222,108.944,112.903,-0.000501816,0.0514673,20.9438,587.148,-0.322725,0.0,0.0
780,194.75,48.1088,50.5123,151.665,108.942,113.405,-0.000447784,0.05133,20.9437,587.158,-0.362985,0.0,0.0
783,195.5,47.9937,50.2942,154.32,108.939,113.746,-0.000394099,0.0512118,20.9437,587.158,-0.390291,0.0,0.0
786,196.25,47.7186,50.0826,154.959,108.926,114.072,-0.000319535,0.0511458,20.9437,587.148,-0.417281,0.0,0.0
789,197,47.5868,50.0305,152.431,108.929,113.443,-0.000247465,0.0510754,20.9442,587.168,-0.36711,0.0,0.0
792,197.75,48.0487,49.6152,152.928,108.923,113.914,-0.000189958,0.050986,20.9447,587.137,-0.404947,0.0,0.0
795,198.5,47.6487,50.2119,155.012,108.909,113.262,-0.000145917,0.0509067,20.945,587.148,-0.354292,0.0,0.0
798,199.25,48.0482,50.4894,152.65,108.911,113.43,-0.000116295,0.0508429,20.9453,587.117,-0.367534,0.0,0.0
801,200,48.3019,49.9205,155.84,108.919,113.416,-0.000104257,0.0507964,20.9455,587.117,-0.365747,0.0,0.0
804,200.75,47.868,49.7585,147.625,108.932,113.829,-0.000110012,0.0507223,20.9456,587.107,-0.397505,0.0,0.0
807,201.5,47.8587,50.0682,152.226,108.939,113.587,-0.000139006,0.05064,20.9457,587.087,-0.377742,0.0,0.0
810,202.25,47.9956,50.1089,152.021,108.905,113.728,-0.000172562,0.050568,20.9458,587.047,-0.391756,0.0,0.0
813,203,47.7927,50.3063,155.963,108.916,113.135,-0.000209509,0.0505156,20.9459,587.067,-0.343564,0.0,0.0
816,203.75,47.8911,50.0812,153.609,108.93,113.771,-0.000248738,0.050455,20.9459,587.077,-0.393076,0.0,0.0
819,204.5,47.9763,50.3111,152.05,108.922,114.122,-0.000298449,0.0503728,20.9459,587.097,-0.421538,0.0,0.0
822,205.25,47.6758,49.8633,155.749,108.92,113.586,-0.000343688,0.0502928,20.946,587.067,-0.379202,0.0,0.0
825,206,47.8538,49.7668,154.552,108.93,113.654,-0.000390395,0.0502344,20.9453,587.067,-0.383746,0.0,0.0
828,206.75,47.624,49.6676,152.555,108.944,113.147,-0.000447916,0.0501919,20.9449,587.047,-0.342181,0.0,0.0
831,207.5,47.7557,49.8665,151.526,108.945,113.422,-0.000514648,0.0501609,20.9446,587.047,-0.364058,0.0,0.0
834,208.25,47.9741,49.7176,152.315,108.922,113.446,-0.000575714,0.0501383,20.9443,587.037,-0.367826,0.0,0.0
837,209,47.7966,50.3596,158.532,108.935,113.633,-0.000622259,0.0501218,20.9442,587.047,-0.381693,0.0,0.0
840,209.75,47.3701,49.645,151.943,108.936,113.004,-0.000650601,0.0501098,20.944,587.047,-0.331402,0.0,0.0
843,210.5,47.9577,50.152,151.641,108.949,114.216,-0.000648385,0.0500869,20.9439,587.057,-0.426856,0.0,0.0
846,211.25,47.941,49.644,154.441,108.941,113.557,-0.000607649,0.0500346,20.9439,587.067,-0.375142,0.0,0.0
849,212,47.8375,50.02,155.411,108.95,113.897,-0.000533668,0.0499456,20.944,587.057,-0.40138,0.0,0.0
852,212.75,47.7433,50.0369,151.661,108.953,114.164,-0.000479736,0.0498949,20.9441,587.047,-0.422365,0.0,0.0
855,213.5,47.6826,49.6003,156.095,108.958,113.423,-0.000397907,0.049864,20.9442,587.047,-0.363035,0.0,0.0
858,214.25,47.6828,49.4821,154.686,108.979,113.011,-0.000355452,0.049785,20.9442,587.047,-0.32848,0.0,0.0
861,215,47.627,49.8489,153.252,108.962,114.162,-0.000305595,0.0497034,20.9442,587.027,-0.42147,0.0,0.0
864,215.75,47.5029,49.6486,153.827,108.978,114.976,-0.000285394,0.0496037,20.9443,587.037,-0.484342,0.0,0.0
867,216.5,47.7964,49.4982,161.228,108.983,113.738,-0.000289316,0.0495384,20.9446,587.057,-0.386087,0.0,0.0
870,217.25,48.12,49.3299,154.648,108.977,113.901,-0.000312294,0.0495139,20.9449,587.057,-0.399495,0.0,0.0
873,218,47.8452,49.7777,152.394,108.969,114.148,-0.000352072,0.0494141,20.9454,587.067,-0.419798,0.0,0.0
876,218.75,47.49,49.6254,150.817,108.992,114.251,-0.000397214,0.0493108,20.9461,587.037,-0.426051,0.0,0.0
879,219.5,47.9561,49.5319,154.878,109.019,113.34,-0.000437006,0.0491954,20.9467,587.037,-0.351353,0.0,0.0
882,220.25,47.8794,49.6619,152.462,108.992,114.346,-0.000490813,0.0491514,20.9471,586.987,-0.433497,0.0,0.0
885,221,47.6233,49.956,155.345,109.009,114.383,-0.000526116,0.0491193,20.9474,587.007,-0.435015,0.0,0.0
888,221.75,47.991,49.0902,150.235,109.01,113.499,-0.000545146,0.0490959,20.9471,587.017,-0.364819,0.0,0.0
891,222.5,47.8282,49.5271,155.556,109.029,113.829,-0.000532449,0.0490387,20.9468,586.997,-0.38942,0.0,0.0
894,223.25,47.7282,49.637,158.978,109.019,113.296,-0.00050829,0.048997,20.9465,587.007,-0.347876,0.0,0.0
897,224,47.5848,49.6811,155.126,109.023,113.682,-0.000483017,0.0489665,20.9463,586.997,-0.378244,0.0,0.0
900,224.75,47.6595,49.5159,153.364,109.043,112.867,-0.000462359,0.048864,20.9462,586.987,-0.311578,0.0,0.0
903,225.5,47.8393,49.5786,155.712,109.061,113.86,-0.000453465,0.048761,20.9461,586.967,-0.389341,0.0,0.0
906,226.25,47.5358,49.6442,154.456,109.077,113.784,-0.00044961,0.0486665,20.9461,586.967,-0.381879,0.0,0.0
909,227,47.7426,49.491,153.538,109.071,113.102,-0.000451768,0.0485849,20.9463,586.967,-0.328118,0.0,0.0
912,227.75,47.6549,49.3181,149.398,109.091,113.022,-0.000456112,0.048455,20.9464,586.987,-0.319999,0.0,0.0
915,228.5,47.8405,49.4705,157.032,109.107,113.664,-0.000460397,0.0483302,20.9465,586.997,-0.369857,0.0,0.0
918,229.25,48.1136,49.6353,151.486,109.132,114.435,-0.000467062,0.0482544,20.9465,586.987,-0.428886,0.0,0.0
921,230,47.7539,49.9653,155.074,109.124,113.685,-0.000483099,0.0482056,20.9466,586.977,-0.370191,0.0,0.0
924,230.75,47.5316,49.8571,152.774,109.143,113.721,-0.000510733,0.0482102,20.9472,586.957,-0.371463,0.0,0.0
927,231.5,47.4647,49.8099,152.81,109.162,113.851,-0.000538911,0.0482337,20.9477,586.947,-0.38025,0.0,0.0
930,232.25,47.5563,49.4278,153.134,109.176,114.132,-0.000565041,0.0482085,20.9481,586.927,-0.401335,0.0,0.0
933,233,47.7591,49.5675,152.662,109.175,114.075,-0.00058409,0.0481722,20.9483,586.947,-0.396841,0.0,0.0
936,233.75,47.5387,49.6514,153.103,109.186,113.237,-0.000607027,0.0481456,20.9486,586.927,-0.329396,0.0,0.0
939,234.5,47.7357,49.5396,154.303,109.199,114.205,-0.000607633,0.0481866,20.9484,586.927,-0.405229,0.0,0.0
942,235.25,48.1386,49.6198,158.33,109.216,113.83,-0.000597426,0.0481498,20.9482,586.937,-0.374052,0.0,0.0
945,236,47.1536,49.2402,150.46,109.226,114.35,-0.000560222,0.0480087,20.9481,586.937,-0.414395,0.0,0.0
948,236.75,47.6894,49.5204,155.276,109.239,113.477,-0.000520412,0.0478931,20.9479,586.937,-0.344072,0.0,0.0
951,237.5,47.5653,50.1468,151.902,109.247,113.352,-0.000459506,0.0478712,20.9476,586.907,-0.333457,0.0,0.0
954,238.25,47.6654,49.5248,156.512,109.262,114.195,-0.000412623,0.0478082,20.9474,586.887,-0.399185,0.0,0.0
957,239,47.6382,48.9897,150.048,109.267,114.12,-0.000381961,0.047698,20.9472,586.877,-0.392816,0.0,0.0
960,239.75,47.7984,49.5408,154.001,109.273,114.395,-0.000367432,0.0476176,20.9471,586.917,-0.414066,0.0,0.0
963,240.5,47.9205,49.778,154.954,109.302,114.66,-0.00036305,0.0475664,20.947,586.927,-0.432675,0.0,0.0
966,241.25,47.7886,49.5849,157.53,109.325,113.732,-0.000362503,0.0475418,20.947,586.947,-0.357278,0.0,0.0
969,242,47.2152,49.4665,153.478,109.347,113.465,-0.000353946,0.047564,20.9469,586.927,-0.334124,0.0,0.0
972,242.75,47.1732,49.9593,153.606,109.343,114.179,-0.000349083,0.0475654,20.9469,586.927,-0.391239,0.0,0.0
975,243.5,47.5202,49.6736,149.337,109.37,113.664,-0.000343464,0.0475411,20.9469,586.897,-0.348078,0.0,0.0
978,244.25,47.6832,49.2129,154.196,109.392,112.762,-0.000339368,0.0475233,20.9469,586.887,-0.27429,0.0,0.0
981,245,47.7384,49.5423,154.256,109.413,113.825,-0.000348781,0.0474681,20.9469,586.887,-0.357346,0.0,0.0
984,245.75,47.737,49.0463,150.434,109.412,114.321,-0.000369347,0.0473876,20.9468,586.917,-0.396763,0.0,0.0
987,246.5,47.8328,49.3518,154.851,109.435,114.446,-0.000407773,0.0472909,20.9468,586.917,-0.40481,0.0,0.0
990,247.25,47.4602,49.6106,154.385,109.463,113.683,-0.000454741,0.0472485,20.9468,586.927,-0.341956,0.0,0.0
993,248,47.7563,49.3249,151.861,109.478,113.812,-0.000521395,0.0472719,20.9471,586.897,-0.350999,0.0,0.0
996,248.75,47.3411,49.0901,153.058,109.492,114.556,-0.000589471,0.047307,20.9472,586.867,-0.408713,0.0,0.0
999,249.5,47.5903,49.9412,150.186,109.518,113.947,-0.00064034,0.0473196,20.9474,586.877,-0.358385,0.0,0.0
1002,250.25,47.8099,49.0861,154.113,109.55,114.453,-0.000673378,0.0473231,20.9474,586.907,-0.395779,0.0,0.0
1005,251,47.4318,49.0923,154.332,109.569,113.249,-0.000689638,0.0472694,20.9475,586.887,-0.298614,0.0,0.0
1008,251.75,47.4785,49.4131,151.574,109.583,114.005,-0.000682007,0.0472062,20.9476,586.867,-0.357622,0.0,0.0
1011,252.5,47.9748,49.3752,160.219,109.606,113.932,-0.000661541,0.0470999,20.9476,586.867,-0.349907,0.0,0.0
1014,253.25,47.385,49.7872,152.79,109.618,114.831,-0.000640267,0.0470787,20.9476,586.867,-0.419939,0.0,0.0
1017,254,47.4967,49.2275,156.273,109.644,113.934,-0.000611097,0.0471014,20.9476,586.857,-0.346966,0.0,0.0
1020,254.75,47.7464,49.6177,149.619,109.654,114.794,-0.000579433,0.0471239,20.9477,586.857,-0.41411,0.0,0.0
1023,255.5,47.0669,49.4924,149.622,109.663,114.234,-0.000548526,0.04706,20.9477,586.847,-0.369114,0.0,0.0
1026,256.25,47.9684,49.6461,155.372,109.704,115.083,-0.000525995,0.0469852,20.9477,586.877,-0.432692,0.0,0.0
1029,257,47.0589,49.2387,150.238,109.719,114.726,-0.000504645,0.0469186,20.9479,586.887,-0.403329,0.0,0.0
1032,257.75,47.4853,49.4575,151.585,109.735,114.759,-0.000486981,0.0469505,20.9484,586.877,-0.404717,0.0,0.0
1035,258.5,47.5218,49.2526,154.338,109.746,113.539,-0.000504217,0.0469737,20.9485,586.857,-0.30718,0.0,0.0
1038,259.25,47.4967,49.1661,149.155,109.771,114.478,-0.000534169,0.0469202,20.9486,586.857,-0.379591,0.0,0.0
1041,260,47.5658,49.0972,154.981,109.799,114.363,-0.000568645,0.0468512,20.9487,586.877,-0.368184,0.0,0.0
1044,260.75,47.3783,49.5019,153.719,109.813,114.54,-0.00060272,0.0467858,20.9487,586.867,-0.380956,0.0,0.0
1047,261.5,47.2738,49.507,156.423,109.828,114.948,-0.000628868,0.046739,20.9487,586.857,-0.411904,0.0,0.0
1050,262.25,46.9577,49.4479,150.353,109.835,114.563,-0.000644936,0.0467176,20.9488,586.837,-0.381044,0.0,0.0
1053,263,47.6802,49.2564,156.531,109.871,113.811,-0.000647708,0.046702,20.9488,586.847,-0.318528,0.0,0.0
1056,263.75,47.1884,49.6406,149.103,109.898,114.869,-0.000635558,0.046661,20.9483,586.837,-0.399902,0.0,0.0
1059,264.5,47.345,49.5107,151.446,109.898,115.853,-0.000624217,0.0465804,20.9478,586.847,-0.477047,0.0,0.0
1062,265.25,47.096,49.2547,150.007,109.925,115.172,-0.000616851,0.0465357,20.9475,586.837,-0.421557,0.0,0.0
1065,266,47.5595,49.1928,149.288,109.937,114.381,-0.000614834,0.0465462,20.9472,586.817,-0.358246,0.0,0.0
1068,266.75,47.3695,48.7542,151.008,109.956,114.134,-0.000622221,0.0466172,20.9472,586.817,-0.337156,0.0,0.0
1071,267.5,47.2397,48.9261,153.923,109.968,114.669,-0.000627606,0.0466288,20.9477,586.807,-0.378374,0.0,0.0
1074,268.25,47.511,49.567,153.023,109.989,114.061,-0.000647197,0.0466091,20.948,586.817,-0.328656,0.0,0.0
1077,269,47.914,49.2561,152.374,110.007,114.018,-0.000688266,0.046605,20.9482,586.807,-0.323716,0.0,0.0
1080,269.75,47.403,49.4787,153.655,110.035,114.612,-0.000732376,0.04664,20.9485,586.827,-0.368447,0.0,0.0
1083,270.5,47.5077,49.1607,152.544,110.044,115.165,-0.0007695,0.0466666,20.9488,586.817,-0.411205,0.0,0.0
1086,271.25,47.6779,49.4025,151.853,110.052,114.611,-0.000798681,0.0466864,20.9491,586.827,-0.366944,0.0,0.0
1089,272,47.4746,49.2445,156.337,110.085,114.433,-0.000837668,0.0466445,20.9492,586.827,-0.350128,0.0,0.0
1092,272.75,46.7469,48.9032,154.58,110.093,114.645,-0.000894431,0.0465974,20.9493,586.807,-0.366272,0.0,0.0
1095,273.5,47.5331,49.0286,154.261,110.114,114.688,-0.000943002,0.0465757,20.9497,586.807,-0.367914,0.0,0.0
1098,274.25,47.5966,48.9646,154.591,110.128,115.153,-0.000990705,0.0466,20.9503,586.817,-0.40334,0.0,0.0
1101,275,47.4919,49.1868,153.339,110.153,115.655,-0.00103293,0.0466252,20.9508,586.817,-0.440639,0.0,0.0
1104,275.75,47.4707,49.2452,155.205,110.187,115.212,-0.00106493,0.0466562,20.9511,586.807,-0.403109,0.0,0.0
1107,276.5,46.9645,49.2043,158.208,110.202,115.409,-0.0010849,0.0466989,20.9507,586.767,-0.417373,0.0,0.0
1110,277.25,47.5942,49.0747,152.48,110.209,114.186,-0.00108884,0.0467227,20.9504,586.757,-0.320394,0.0,0.0
1113,278,47.0916,49.1333,154.952,110.245,114.548,-0.00109238,0.0467273,20.9502,586.777,-0.346103,0.0,0.0
1116,278.75,47.5033,48.9568,155.562,110.285,115.1,-0.00109612,0.0467025,20.9501,586.777,-0.38631,0.0,0.0
1119,279.5,47.6562,49.135,155.366,110.295,114.639,-0.00109884,0.046665,20.95,586.787,-0.349183,0.0,0.0
1122,280.25,47.3598,49.413,155.981,110.297,115.018,-0.0010778,0.0466249,20.95,586.797,-0.37893,0.0,0.0
1125,281,47.2764,49.4032,157.388,110.309,114.686,-0.0010339,0.0466345,20.95,586.797,-0.351802,0.0,0.0
1128,281.75,47.2639,48.9232,156.128,110.352,114.408,-0.000989715,0.0466414,20.95,586.787,-0.326296,0.0,0.0
1131,282.5,47.5156,49.0591,150.948,110.352,115.72,-0.000917765,0.0466746,20.95,586.747,-0.429384,0.0,0.0
1134,283.25,47.4273,48.9079,154.688,110.379,115.524,-0.000835952,0.0466886,20.95,586.777,-0.411794,0.0,0.0
1137,284,47.5106,49.2504,156.066,110.403,115.493,-0.000773631,0.0466608,20.95,586.797,-0.407457,0.0,0.0
1140,284.75,47.482,49.0675,150.227,110.421,114.209,-0.00073267,0.0466546,20.95,586.767,-0.304917,0.0,0.0
1143,285.5,47.2039,49.5722,152.691,110.435,114.68,-0.000720196,0.0466561,20.95,586.767,-0.340982,0.0,0.0
1146,286.25,47.4728,49.0883,154.238,110.446,114.909,,0.0466371,,586.777,-0.35811,0.0,0.0
1149,287,47.212,48.9929,151.984,110.474,115.001,,0.0466373,,586.757,-0.36299,0.0,0.0
1152,287.75,47.5045,49.1303,153.693,110.499,115.064,,0.0466286,,586.747,-0.366003,0.0,0.0
1155,288.5,47.2331,49.1937,154.825,110.516,114.395,,0.046597,,586.737,-0.311803,0.0,0.0
1158,289.25,47.5933,48.9403,152.139,110.531,115.092,,,,586.747,-0.365578,0.0,0.0
1161,290,47.4262,49.4809,151.143,110.553,115.24,,,,586.727,-0.375396,0.0,0.0
1164,290.75,47.4694,49.0819,154.994,110.593,114.173,,,,586.737,-0.288053,0.0,0.0
1167,291.5,47.2854,49.0271,152.756,110.625,115.69,,,,586.757,-0.404687,0.0,0.0
1170,292.25,47.907,49.3031,153.35,110.644,115.288,,,,586.767,-0.371704,0.0,0.0
1173,293,47.5208,49.2007,156.415,110.674,114.921,,,,586.747,-0.340408,0.0,0.0
1176,293.75,47.6454,49.1752,154.185,110.693,116.059,,,,586.747,-0.42791,0.0,0.0
1179,294.5,47.1353,49.3659,153.8,110.714,115.827,,,,586.717,-0.40815,0.0,0.0
1182,295.25,46.7484,49.0308,154.976,110.725,115.697,,,,586.727,-0.397098,0.0,0.0
1185,296,47.7915,49.2942,152.432,110.749,114.76,,,,586.737,-0.321677,0.0,0.0
1188,296.75,47.6708,48.9968,154.707,110.773,115.402,,,,586.737,-0.370093,0.0,0.0
1189,297,47.5929,49.2532,153.133,110.779,116.349,,,,586.727,-0.443473,0.0,0.0