File: 01_Data/Rug_Pad/Cone/Rug_Pad_Cone_HF25Scan_220920_R3.csv
Names,Time,Stack TC,Smoke TC,Exh Press,Smoke Comp,Smoke Meas,CO Meter,CO2 Meter,O2 Meter,Sample Mass,Ext Coeff,Start Test,Flame Verif
Chan Gain,,500,500,1,1,1,1,1,1,1,1,1.0,1.0
Offset,,0,0,0.143022,0,0,0,0,0,0,0,0.0,0.0
Gain,,1,1,25.011,14.5176,16.5692,1,1,1,1.00088,1.03055,1.0,1.0
Units,sec,C,C,Pa,%,%,%,%,%,g,/m,,
Baseline,,37.8322,38.648,161.393,110.194,114.216,-0.000947646,0.0436411,20.9527,-447.122,-0.324072,,
2,0.25,36.1598,37.0395,156.077,110.241,114.79,-0.000934198,0.0442135,20.9534,592.532,-0.365565,0.0,0.0
4,0.75,36.2486,37.1296,160.922,110.251,114.085,-0.000985501,0.0442278,20.9534,592.352,-0.309008,0.0,0.0
6,1.25,36.3343,36.9267,161.722,110.26,114.515,-0.00102706,0.0442395,20.9534,592.382,-0.342279,0.0,0.0
8,1.75,35.6191,36.9638,161.803,110.275,114.274,-0.00106196,0.0442348,20.9534,592.362,-0.322016,0.0,0.0
10,2.25,36.1723,37.1475,164.986,110.28,114.77,-0.00109023,0.044231,20.9534,592.392,-0.36074,0.0,0.0
12,2.75,36.3256,37.0122,161.138,110.284,114.308,-0.00110319,0.0442428,20.9534,592.372,-0.323973,0.0,0.0
14,3.25,36.0426,36.8903,163.767,110.299,114.371,-0.00111369,0.0442657,20.9534,592.422,-0.327659,0.0,0.0
16,3.75,36.1453,37.0826,162.56,110.307,115.078,-0.00111239,0.0442842,20.9534,592.402,-0.382708,0.0,0.0
18,4.25,36.5668,37.0194,161.293,110.315,114.555,-0.00110252,0.044271,20.9534,592.412,-0.340928,0.0,0.0
20,4.75,35.9711,36.509,160.487,110.313,114.147,-0.00107465,0.0442604,20.9534,592.412,-0.308851,0.0,0.0
22,5.25,36.2469,36.1922,159.387,110.345,114.53,-0.00105207,0.0442517,20.9534,592.392,-0.336501,0.0,0.0
24,5.75,36.1965,37.0942,167.613,110.335,114.507,-0.00102634,0.0442448,20.9534,592.412,-0.335503,0.0,0.0
26,6.25,36.1766,36.877,163.676,110.36,114.509,-0.00100549,0.0442317,20.9534,592.392,-0.333666,0.0,0.0
28,6.75,36.0224,37.0069,161.357,110.349,114.264,-0.000988605,0.0442144,20.9534,592.402,-0.315232,0.0,0.0
30,7.25,36.0489,36.6627,158.503,110.359,113.879,-0.000985327,0.0442079,20.9534,592.382,-0.283823,0.0,0.0
32,7.75,36.171,36.9108,158.672,110.357,114.081,-0.000979724,0.0442092,20.9534,592.372,-0.30005,0.0,0.0
34,8.25,36.1816,36.6708,167.516,110.379,114.085,-0.00097257,0.0442399,20.9534,592.402,-0.298556,0.0,0.0
36,8.75,35.9931,36.7877,160.4,110.359,114.58,-0.000964423,0.0442915,20.9534,592.392,-0.339329,0.0,0.0
38,9.25,36.1573,36.7984,160.893,110.375,113.963,-0.000957824,0.0443332,20.9534,592.412,-0.289178,0.0,0.0
40,9.75,36.071,36.3764,164.111,110.369,113.845,-0.000952479,0.0443811,20.9534,592.402,-0.280303,0.0,0.0
42,10.25,36.7395,36.5694,162.895,110.384,113.624,-0.000937013,0.0444015,20.9535,592.382,-0.261502,0.0,0.0
44,10.75,36.3881,36.9304,163.05,110.373,114.023,-0.000924486,0.0444142,20.9536,592.382,-0.294134,0.0,0.0
46,11.25,36.1425,37.101,162.808,110.388,113.846,-0.000923032,0.0444045,20.9536,592.372,-0.278896,0.0,0.0
48,11.75,35.8709,36.8478,160.069,110.376,113.999,-0.000921854,0.0443966,20.9535,592.362,-0.29192,0.0,0.0
50,12.25,36.2008,37.0757,163.074,110.414,113.924,-0.000933319,0.0443903,20.9534,592.352,-0.2829,0.0,0.0
52,12.75,35.9377,37.0027,163.169,110.378,113.783,-0.000942606,0.0443559,20.9534,592.362,-0.274637,0.0,0.0
54,13.25,35.7415,37.1939,166.855,110.401,113.909,-0.000958821,0.0443281,20.9533,592.342,-0.282824,0.0,0.0
56,13.75,36.2592,36.2744,163.556,110.388,113.953,-0.000971955,0.0442981,20.9532,592.342,-0.287331,0.0,0.0
58,14.25,36.3562,36.5658,158.474,110.404,113.77,-0.000982594,0.0442672,20.9532,592.342,-0.271524,0.0,0.0
60,14.75,36.2617,37.0759,161.912,110.389,114.007,-0.000994937,0.0442348,20.9532,592.322,-0.291505,0.0,0.0
62,15.25,35.8647,36.5303,160.113,110.406,113.86,-0.00100494,0.0442018,20.9531,592.312,-0.278492,0.0,0.0
64,15.75,36.2843,37.1774,162.544,110.396,113.552,-0.00100558,0.0441603,20.9531,592.302,-0.254844,0.0,0.0
66,16.25,36.0715,36.4453,164.057,110.408,113.842,-0.00100611,0.0441134,20.9531,592.312,-0.276902,0.0,0.0
68,16.75,36.0913,37.3596,163.569,110.395,113.328,-0.000982936,0.0440902,20.9531,592.282,-0.23703,0.0,0.0
70,17.25,36.2459,37.0024,160.851,110.411,114.093,-0.000964167,0.0440847,20.9531,592.282,-0.296541,0.0,0.0
72,17.75,36.4921,37.3638,161.434,110.392,113.604,-0.000914192,0.0440803,20.9531,592.302,-0.259239,0.0,0.0
74,18.25,36.7749,37.0315,162.8,110.408,113.372,-0.000873712,0.0440907,20.9531,592.322,-0.239486,0.0,0.0
76,18.75,36.1461,36.488,158.916,110.4,113.873,-0.000813602,0.0440992,20.9531,592.332,-0.280003,0.0,0.0
78,19.25,36.2142,37.0193,164.175,110.403,113.379,-0.000764913,0.044078,20.9531,592.332,-0.240409,0.0,0.0
80,19.75,36.2387,37.1865,164.898,110.385,113.894,-0.000714255,0.0440607,20.9531,592.342,-0.28289,0.0,0.0
82,20.25,36.1404,36.8362,161.667,110.392,113.541,-0.000673222,0.0440327,20.9531,592.312,-0.254289,0.0,0.0
84,20.75,35.506,36.9602,163.883,110.379,113.912,-0.000639986,0.04401,20.953,592.332,-0.284802,0.0,0.0
86,21.25,36.1021,37.0683,158.689,110.396,113.435,-0.000613718,0.0440057,20.9531,592.302,-0.245464,0.0,0.0
88,21.75,35.9801,36.9783,159.424,110.376,113.833,-0.000593029,0.0440022,20.9533,592.322,-0.278755,0.0,0.0
90,22.25,36.1502,36.9569,160.469,110.386,113.908,-0.000583461,0.0440416,20.9534,592.322,-0.283941,0.0,0.0
92,22.75,36.1311,37.1974,161.417,110.395,113.423,-0.000582181,0.0440735,20.9535,592.322,-0.244646,0.0,0.0
94,23.25,36.3162,36.7158,163.192,110.388,113.536,-0.000591603,0.0440993,20.9536,592.322,-0.254177,0.0,0.0
96,23.75,35.9049,36.9836,157.182,110.372,112.919,-0.000608647,0.0441354,20.9532,592.302,-0.206263,0.0,0.0
98,24.25,36.0465,37.034,160.978,110.393,113.741,-0.000627682,0.0441646,20.9529,592.302,-0.270068,0.0,0.0
100,24.75,35.7075,36.8015,160.85,110.37,113.18,-0.000647806,0.0441438,20.9526,592.292,-0.227272,0.0,0.0
102,25.25,35.9886,36.9822,161.809,110.367,113.175,-0.000660185,0.0440869,20.9524,592.292,-0.227122,0.0,0.0
104,25.75,36.0357,36.5858,159.52,110.376,113.464,-0.000666682,0.0440335,20.9523,592.292,-0.249433,0.0,0.0
106,26.25,36.5511,37.2345,158.23,110.37,113.222,-0.000662795,0.0439836,20.9521,592.292,-0.230624,0.0,0.0
108,26.75,36.509,36.8706,163.831,110.356,112.735,-0.00065141,0.0439431,20.952,592.322,-0.192786,0.0,0.0
110,27.25,36.6335,36.8826,165.779,110.357,112.953,-0.000642188,0.0439244,20.9519,592.302,-0.210209,0.0,0.0
112,27.75,36.2933,36.7901,160.717,110.343,113.147,-0.000620339,0.0439092,20.9519,592.302,-0.226824,0.0,0.0
114,28.25,35.9337,36.7405,158.555,110.343,113.705,-0.000589699,0.0439251,20.9518,592.312,-0.271275,0.0,0.0
116,28.75,36.1922,36.3198,159.094,110.345,113.499,-0.000555076,0.043938,20.9518,592.302,-0.254794,0.0,0.0
118,29.25,36.2635,36.7086,160.111,110.344,112.77,-0.000518208,0.0439484,20.9517,592.282,-0.19664,0.0,0.0
120,29.75,36.2986,36.8212,160.806,110.335,112.109,-0.000488344,0.0439568,20.9517,592.272,-0.144155,0.0,0.0
122,30.25,36.4191,37.0252,162.031,110.337,112.514,-0.000436877,0.0440199,20.9517,592.282,-0.176651,0.0,0.0
124,30.75,36.3428,36.9019,169.274,110.331,112.423,-0.000395188,0.0440711,20.9517,592.282,-0.169767,0.0,0.0
126,31.25,36.1377,36.8487,157.849,110.318,112.096,-0.000332857,0.0441125,20.9516,592.262,-0.144548,0.0,0.0
128,31.75,36.5387,36.6404,163.77,110.318,111.792,-0.000282369,0.0442023,20.9513,592.262,-0.119975,0.0,0.0
130,32.25,36.1487,36.8733,162.562,110.317,112.878,-0.000241474,0.0442825,20.9508,592.262,-0.207485,0.0,0.0
132,32.75,35.9366,36.8558,160.938,110.315,112.545,-0.000183503,0.0443541,20.9504,592.292,-0.180867,0.0,0.0
134,33.25,36.3065,37.0568,162.415,110.317,113.389,-0.000114185,0.0444121,20.9501,592.262,-0.248292,0.0,0.0
136,33.75,35.9625,37.1444,161.447,110.297,112.777,-3.31677e-05,0.044458,20.9496,592.262,-0.201056,0.0,0.0
138,34.25,36.1725,36.8181,158.385,110.303,111.953,3.24562e-05,0.0444952,20.949,592.262,-0.134238,0.0,0.0
140,34.75,36.1502,36.6425,156.943,110.297,112.46,8.56116e-05,0.0445254,20.9486,592.242,-0.17553,0.0,0.0
142,35.25,36.5775,36.8554,162.902,110.298,111.75,0.000161022,0.0448907,20.9477,592.252,-0.11825,0.0,0.0
144,35.75,36.2347,36.809,162.213,110.299,111.907,0.000222105,0.0454935,20.9466,592.222,-0.130886,0.0,1.0
146,36.25,35.9944,36.868,157.427,110.285,111.857,0.000313936,0.0468806,20.9434,592.202,-0.127966,0.0,1.0
148,36.75,36.0964,36.9593,160.781,110.28,114.143,0.000388319,0.048813,20.9387,592.182,-0.311218,0.0,1.0
150,37.25,36.4863,36.9602,155.428,110.273,113.648,0.000507198,0.0523278,20.9318,592.192,-0.272468,0.0,1.0
152,37.75,36.5203,36.941,159.987,110.265,111.867,0.00060349,0.0569292,20.9236,592.212,-0.130382,0.0,1.0
154,38.25,36.3728,37.2902,153.806,110.256,109.424,0.00074521,0.0606564,20.9108,592.172,0.0684078,0.0,1.0
156,38.75,36.4196,36.7659,154.316,110.261,108.144,0.000860003,0.0689648,20.8951,592.152,0.175316,0.0,1.0
158,39.25,36.496,37.1521,152.9,110.248,104.824,0.00101807,0.0756946,20.8781,592.132,0.456022,0.0,1.0
160,39.75,36.954,37.3959,153.263,110.237,105.285,0.00114611,0.0859645,20.8606,592.042,0.415475,0.0,1.0
162,40.25,35.6805,36.1694,157.127,110.239,105.046,0.00129272,0.0942831,20.8464,591.992,0.436217,0.0,1.0
164,40.75,36.1097,35.9473,148.223,110.243,102.988,0.00145009,0.105134,20.8287,592.032,0.615406,0.0,1.0
166,41.25,36.1645,36.2039,158.145,110.222,103.437,0.00157756,0.113924,20.8144,592.072,0.57437,0.0,1.0
168,41.75,36.2383,36.5024,150.098,110.221,102.817,0.00174968,0.124876,20.8028,592.032,0.628639,0.0,0.0
170,42.25,36.4423,36.2132,150.524,110.208,101.792,0.00195109,0.133748,20.7882,592.002,0.718082,0.0,0.0
172,42.75,36.5432,36.3657,146.406,110.21,101.211,0.00217732,0.144253,20.7764,591.952,0.770089,0.0,0.0
174,43.25,37.0345,37.033,149.982,110.215,99.3968,0.00241735,0.152762,20.762,591.962,0.933924,0.0,0.0
176,43.75,37.5591,36.9252,149.118,110.195,100.767,0.00261178,0.159654,20.7503,591.922,0.808514,0.0,0.0
178,44.25,37.0293,37.0581,148.931,110.182,101.705,0.00287432,0.169233,20.7383,591.942,0.723782,0.0,0.0
180,44.75,37.9927,37.0316,151.103,110.184,100.545,0.00308698,0.176992,20.7263,591.872,0.827585,0.0,0.0
182,45.25,38.1259,37.5258,149.895,110.168,100.207,0.00334805,0.183277,20.7133,591.852,0.856651,0.0,0.0
184,45.75,37.6429,37.8945,144.881,110.172,98.614,0.00355953,0.192011,20.6998,591.832,1.00187,0.0,0.0
186,46.25,38.8443,37.7565,148.785,110.166,101.856,0.00380584,0.199086,20.687,591.792,0.708973,0.0,0.0
188,46.75,38.9539,38.045,147.176,110.153,97.9951,0.00400536,0.207005,20.675,591.782,1.05726,0.0,0.0
190,47.25,39.0874,38.6438,149.353,110.142,98.8492,0.00423832,0.21342,20.6639,591.742,0.977905,0.0,0.0
192,47.75,39.2286,38.5078,144.567,110.142,99.3543,0.00442702,0.220585,20.6536,591.712,0.93179,0.0,0.0
194,48.25,39.1377,38.4821,150.655,110.115,96.771,0.00457986,0.226389,20.6453,591.701,1.16777,0.0,0.0
196,48.75,39.937,39.1804,147.444,110.12,97.8652,0.00480966,0.232026,20.6369,591.672,1.06649,0.0,0.0
198,49.25,40.5522,39.183,153.171,110.111,96.0064,0.00499579,0.237433,20.6286,591.641,1.23911,0.0,0.0
200,49.75,40.2429,39.2458,148.713,110.106,96.3487,0.00522465,0.242738,20.6206,591.611,1.20653,0.0,0.0
202,50.25,40.5206,39.6373,145.368,110.078,93.6389,0.00541002,0.247866,20.6128,591.591,1.46213,0.0,0.0
204,50.75,41.0502,39.7573,145.484,110.085,96.8357,0.00560946,0.253211,20.6064,591.571,1.15922,0.0,0.0
206,51.25,40.87,39.7524,142.324,110.069,94.7989,0.00581537,0.258612,20.5982,591.531,1.35014,0.0,0.0
208,51.75,41.2228,40.7543,143.933,110.068,95.7399,0.00602954,0.262987,20.5916,591.511,1.26071,0.0,0.0
210,52.25,41.6786,40.5195,149.14,110.052,94.764,0.00624565,0.268972,20.5817,591.491,1.35202,0.0,0.0
212,52.75,42.0139,40.9307,143.45,110.061,93.0489,0.0064207,0.273819,20.5738,591.441,1.51793,0.0,0.0
214,53.25,42.2579,40.9347,145.675,110.042,91.4045,0.00669015,0.278708,20.5662,591.401,1.67748,0.0,0.0
216,53.75,42.6857,41.1273,150.889,110.057,96.6314,0.00690841,0.283534,20.559,591.361,1.17601,0.0,0.0
218,54.25,42.9588,41.9581,146.144,110.036,95.1357,0.00719644,0.287443,20.5531,591.311,1.31536,0.0,0.0
220,54.75,43.2436,42.0364,149.754,110.025,94.3453,0.00742974,0.292156,20.5484,591.251,1.38982,0.0,0.0
222,55.25,43.3356,42.0953,147.012,110.015,93.8539,0.00761872,0.295973,20.5424,591.231,1.43624,0.0,0.0
224,55.75,43.5534,42.7283,144.33,110.029,94.5137,0.00777179,0.299487,20.5375,591.211,1.37403,0.0,0.0
226,56.25,43.7933,43.0318,148.141,110.005,92.6362,0.00795243,0.302712,20.5339,591.191,1.55345,0.0,0.0
228,56.75,44.3462,43.3151,148.77,110.017,88.7903,0.00814975,0.305695,20.5315,591.151,1.93776,0.0,0.0
230,57.25,44.2826,43.4731,148.353,109.994,88.8418,0.00831232,0.308445,20.5288,591.121,1.93061,0.0,0.0
232,57.75,44.7713,43.6486,146.495,110.005,93.3866,0.00844645,0.310673,20.5259,591.101,1.48055,0.0,0.0
234,58.25,44.5848,43.8404,142.679,109.988,94.3287,0.00854622,0.312477,20.5225,591.051,1.3884,0.0,0.0
236,58.75,45.1974,43.703,143.805,109.987,92.3339,0.00861903,0.315518,20.5187,591.021,1.58151,0.0,0.0
238,59.25,45.4176,44.4117,147.602,109.966,90.4751,0.00866708,0.317981,20.5155,590.991,1.76364,0.0,0.0
240,59.75,45.4198,44.5345,146.255,109.968,89.4334,0.00869616,0.320481,20.513,590.951,1.86854,0.0,0.0
242,60.25,46.1585,44.9004,146.685,109.961,89.0077,0.00870879,0.322959,20.511,590.921,1.91106,0.0,0.0
244,60.75,45.9961,44.9832,143.647,109.963,93.6713,0.00870918,0.325141,20.5093,590.861,1.44958,0.0,0.0
246,61.25,46.7434,45.5461,145.91,109.958,95.4108,0.0087095,0.327066,20.508,590.841,1.28285,0.0,0.0
248,61.75,47.0609,45.6278,142.977,109.945,94.0329,0.00868513,0.328607,20.5074,590.791,1.41326,0.0,0.0
250,62.25,46.9011,45.9343,143.398,109.95,97.5921,0.00866538,0.32984,20.5073,590.761,1.07784,0.0,0.0
252,62.75,46.9786,45.8524,146.94,109.949,95.3673,0.00864052,0.33062,20.5072,590.731,1.28621,0.0,0.0
254,63.25,47.3597,46.0879,144.267,109.934,92.8683,0.0086124,0.331057,20.5079,590.681,1.525,0.0,0.0
256,63.75,47.5253,46.3696,146.823,109.935,94.9557,0.00858963,0.33088,20.509,590.661,1.32418,0.0,0.0
258,64.25,47.9456,46.6776,148.181,109.918,95.3799,0.0085375,0.330259,20.5114,590.651,1.28242,0.0,0.0
260,64.75,47.8876,46.8179,144.631,109.924,97.0076,0.00849529,0.329756,20.5145,590.611,1.12997,0.0,0.0
262,65.25,48.6096,46.7217,153.683,109.913,97.4187,0.00839124,0.328424,20.5187,590.611,1.09083,0.0,0.0
264,65.75,48.4681,47.2007,143.624,109.917,95.0254,0.00830696,0.326511,20.5235,590.51,1.31601,0.0,0.0
266,66.25,48.1181,47.6766,148.538,109.909,96.3113,0.00815092,0.324962,20.5296,590.5,1.19384,0.0,0.0
268,66.75,48.2796,47.7631,150.284,109.898,97.354,0.00802453,0.322701,20.5363,590.48,1.09567,0.0,0.0
270,67.25,48.5485,47.8775,145.744,109.895,98.7637,0.00781784,0.319965,20.5439,590.47,0.96541,0.0,0.0
272,67.75,48.5324,47.929,150.414,109.904,96.0211,0.00765043,0.316818,20.5519,590.43,1.22073,0.0,0.0
274,68.25,48.7999,47.8903,151.803,109.89,98.9609,0.0074031,0.313431,20.5605,590.4,0.947014,0.0,0.0
276,68.75,48.9121,48.1467,149.102,109.881,98.7774,0.00720277,0.309551,20.5694,590.38,0.96303,0.0,0.0
278,69.25,48.9888,48.6693,146.489,109.875,99.4256,0.0070405,0.305385,20.5765,590.37,0.903352,0.0,0.0
280,69.75,49.2378,48.4937,145.726,109.876,101.314,0.00674527,0.301017,20.5854,590.3,0.733356,0.0,0.0
282,70.25,49.3274,48.4753,143.679,109.874,98.1782,0.00650614,0.296584,20.5927,590.27,1.01742,0.0,0.0
284,70.75,48.7355,48.9395,146.24,109.873,98.5362,0.00619515,0.291997,20.6001,590.27,0.984475,0.0,0.0
286,71.25,49.0926,48.5225,149.85,109.855,98.4012,0.00594324,0.287386,20.6076,590.2,0.995339,0.0,0.0
288,71.75,49.4688,49.0654,156.247,109.865,99.7877,0.00562988,0.28238,20.6137,590.19,0.869692,0.0,0.0
290,72.25,49.316,48.6815,152.201,109.848,100.475,0.00537606,0.27718,20.6222,590.18,0.806222,0.0,0.0
292,72.75,49.6423,49.0365,149.31,109.861,101.122,0.00511309,0.272969,20.6291,590.19,0.749315,0.0,0.0
294,73.25,49.4679,48.892,150.047,109.849,101.514,0.00484845,0.267412,20.6391,590.14,0.713285,0.0,0.0
296,73.75,49.3339,48.9545,157.798,109.859,101.777,0.00463409,0.262911,20.6472,590.14,0.690747,0.0,0.0
298,74.25,48.9878,49.4572,154.748,109.851,101.932,0.00435429,0.257599,20.6546,590.12,0.676431,0.0,0.0
300,74.75,48.9226,49.0411,154.852,109.844,101.682,0.00412766,0.253297,20.6615,590.14,0.697909,0.0,0.0
302,75.25,48.9442,49.4586,150.214,109.835,103.126,0.0038508,0.249812,20.6685,590.13,0.569776,0.0,0.0
304,75.75,49.5158,49.2054,154.019,109.837,103.409,0.00362654,0.245025,20.6754,590.11,0.545178,0.0,0.0
306,76.25,49.2702,49.3542,157.525,109.827,105.189,0.00338931,0.240426,20.681,590.1,0.390103,0.0,0.0
308,76.75,49.1534,49.4638,152.305,109.828,105.03,0.00314712,0.236052,20.6882,590.1,0.403824,0.0,0.0
310,77.25,48.7746,49.427,151.384,109.821,104.846,0.00292454,0.23251,20.6941,590.1,0.419139,0.0,0.0
312,77.75,49.2856,49.569,153.422,109.818,106.135,0.00272048,0.227986,20.6988,590.09,0.308431,0.0,0.0
314,78.25,48.9184,49.5033,152.853,109.818,106.533,0.00255519,0.224322,20.704,590.07,0.274563,0.0,0.0
316,78.75,49.4359,49.2545,153.104,109.8125,107.191,0.00239756,0.220441,20.7095,590.05,0.21839,0.0,0.0
318,79.25,49.1406,49.508,157.241,109.811,108.359,0.00224851,0.216474,20.7159,590.04,0.120348,0.0,0.0
320,79.75,48.7266,49.4886,154.448,109.814,109.169,0.00211461,0.213261,20.7211,590.01,0.0532754,0.0,0.0
322,80.25,48.633,49.3305,156.982,109.805,109.723,0.00199428,0.208751,20.7284,589.99,0.00677044,0.0,0.0
324,80.75,49.1611,49.6544,152.509,109.797,109.631,0.001883,0.205097,20.7343,590,0.0137058,0.0,0.0
326,81.25,48.776,49.241,153.79,109.809,110.695,0.00178041,0.202138,20.7426,589.97,-0.0726184,0.0,0.0
328,81.75,48.4652,49.6007,156.281,109.805,110.699,0.00169731,0.197379,20.7494,589.94,-0.0732713,0.0,0.0
330,82.25,48.6397,49.709,156.333,109.789,111.168,0.00159626,0.193525,20.7563,589.94,-0.112865,0.0,0.0
332,82.75,48.03,49.3504,156.527,109.787,111.661,0.0015144,0.189101,20.7631,589.93,-0.153012,0.0,0.0
334,83.25,48.6096,49.3236,150.165,109.799,112.377,0.0014481,0.185518,20.7686,589.94,-0.209768,0.0,0.0
336,83.75,48.4755,49.2061,156.602,109.775,113.126,0.00135443,0.181363,20.774,589.96,-0.271856,0.0,0.0
338,84.25,48.3902,49.1869,158.769,109.785,113.2,0.00127857,0.177998,20.7792,589.93,-0.27695,0.0,0.0
340,84.75,48.3764,49.3546,156.604,109.77,113.788,0.00121054,0.174055,20.7834,589.9,-0.324996,0.0,0.0
342,85.25,48.3199,49.0266,157.188,109.778,113.388,0.00114954,0.170861,20.7886,589.92,-0.29243,0.0,0.0
344,85.75,47.9918,48.9628,156.153,109.76,113.637,0.00110143,0.167534,20.7928,589.89,-0.313819,0.0,0.0
346,86.25,47.7448,49.0851,155.066,109.77,113.971,0.00106365,0.164174,20.798,589.88,-0.339489,0.0,0.0
348,86.75,48.0491,49.383,156.053,109.792,113.872,0.00104027,0.161452,20.8022,589.88,-0.329838,0.0,0.0
350,87.25,47.6707,49.2855,153.87,109.765,114.29,0.00102784,0.158588,20.8078,589.86,-0.365159,0.0,0.0
352,87.75,47.6361,49.0275,158.697,109.749,114.511,0.00103091,0.155675,20.8124,589.83,-0.38397,0.0,0.0
354,88.25,47.7677,49.4784,158.218,109.762,113.649,0.00104523,0.15272,20.8174,589.87,-0.314635,0.0,0.0
356,88.75,47.7187,48.9285,156.966,109.748,113.999,0.00106998,0.149791,20.8214,589.85,-0.343596,0.0,0.0
358,89.25,47.8537,48.9659,157.696,109.746,114.099,0.00110186,0.146886,20.8256,589.86,-0.351601,0.0,0.0
360,89.75,47.4244,48.4981,154.47,109.744,114.183,0.00112769,0.144055,20.829,589.83,-0.358468,0.0,0.0
362,90.25,47.6083,48.5751,158.493,109.752,114.803,0.00116111,0.141762,20.8317,589.83,-0.406758,0.0,0.0
364,90.75,47.112,48.8913,155.796,109.756,114.504,0.00119943,0.138955,20.8348,589.82,-0.382867,0.0,0.0
366,91.25,46.9012,48.8969,158.7,109.744,113.608,0.00123311,0.136681,20.8373,589.83,-0.312799,0.0,0.0
368,91.75,46.9546,48.6802,153.231,109.727,114.022,0.00126275,0.134009,20.8403,589.84,-0.347039,0.0,0.0
370,92.25,47.0521,48.791,157.405,109.745,114.435,0.00128808,0.131845,20.8435,589.79,-0.378349,0.0,0.0
372,92.75,46.9863,48.9083,161.612,109.725,114.308,0.00130979,0.129632,20.8469,589.8,-0.36992,0.0,0.0
374,93.25,46.823,48.4332,157.623,109.742,114.612,0.00132737,0.127427,20.8502,589.83,-0.392534,0.0,0.0
376,93.75,46.9445,48.2649,160.139,109.715,114.172,0.00134161,0.125092,20.8536,589.82,-0.359963,0.0,0.0
378,94.25,46.5465,48.6659,158.569,109.738,114.248,0.00135314,0.122705,20.8569,589.81,-0.364101,0.0,0.0
380,94.75,46.9353,48.0589,158.237,109.731,115.133,0.00136248,0.120772,20.8597,589.8,-0.434397,0.0,0.0
382,95.25,46.6238,48.6004,158.212,109.727,114.876,0.00137005,0.118382,20.8628,589.77,-0.414497,0.0,0.0
384,95.75,46.5227,47.917,159.794,109.719,114.654,0.00138013,0.116445,20.8653,589.76,-0.397742,0.0,0.0
386,96.25,45.9493,48.0969,154.713,109.727,114.491,0.00139185,0.114054,20.8686,589.75,-0.384206,0.0,0.0
388,96.75,46.1366,47.6532,158.194,109.714,114.05,0.00140135,0.112117,20.8714,589.72,-0.350379,0.0,0.0
390,97.25,45.8908,47.7397,159.683,109.719,113.652,0.00141299,0.109742,20.8736,589.74,-0.318343,0.0,0.0
392,97.75,46.2386,47.9998,157.046,109.719,113.848,0.00142597,0.107817,20.8758,589.75,-0.333935,0.0,0.0
394,98.25,46.1145,47.7662,158.525,109.727,113.159,0.00143978,0.106259,20.8776,589.76,-0.27842,0.0,0.0
396,98.75,45.435,48.0641,161.277,109.703,113.711,0.00145394,0.104349,20.8795,589.74,-0.324358,0.0,0.0
398,99.25,45.563,47.5506,160.055,109.719,113.351,0.00146606,0.102802,20.8811,589.72,-0.29434,0.0,0.0
400,99.75,45.1756,47.5664,160.863,109.711,113.954,0.00147647,0.100946,20.8832,589.71,-0.343056,0.0,0.0
402,100.25,44.9525,47.3471,164.056,109.712,113.738,0.00148227,0.0994423,20.8849,589.71,-0.325762,0.0,0.0
404,100.75,45.4225,47.0093,157.443,109.728,114.065,0.00148459,0.097998,20.8863,589.71,-0.350409,0.0,0.0
406,101.25,44.8996,47.5782,157.943,109.715,113.649,0.00148648,0.0966243,20.8888,589.7,-0.31839,0.0,0.0
408,101.75,44.7111,47.3497,161.467,109.712,113.879,0.001488,0.0953231,20.8908,589.7,-0.336964,0.0,0.0
410,102.25,45.0316,47.187,159.612,109.727,114.326,0.00145921,0.0940994,20.8927,589.69,-0.371174,0.0,0.0
412,102.75,44.4965,46.6982,157.999,109.73,113.625,0.0014359,0.0929273,20.8944,589.7,-0.315372,0.0,0.0
414,103.25,44.7854,47.1802,160.495,109.739,113.303,0.00138951,0.0918152,20.8961,589.7,-0.288939,0.0,0.0
416,103.75,44.3244,46.9308,158.836,109.735,113.779,0.00135193,0.0909144,20.8976,589.71,-0.327115,0.0,0.0
418,104.25,44.3523,46.7634,161.744,109.743,113.883,0.00132149,0.0901847,20.8989,589.69,-0.334694,0.0,0.0
420,104.75,44.1731,46.9994,159.458,109.754,113.782,0.0012793,0.0889072,20.9002,589.69,-0.325823,0.0,0.0
422,105.25,44.3154,46.7686,158.351,109.766,113.588,0.00124513,0.0878724,20.9014,589.69,-0.309438,0.0,0.0
424,105.75,44.1365,46.5194,159.781,109.756,114.07,0.00121679,0.08672,20.9024,589.69,-0.348514,0.0,0.0
426,106.25,43.9599,46.122,159,109.76,113.431,0.00119324,0.0857865,20.9039,589.67,-0.297388,0.0,0.0
428,106.75,43.9016,46.7164,159.675,109.778,113.747,0.00117417,0.0850304,20.9056,589.68,-0.321047,0.0,0.0
430,107.25,44.1925,46.0729,160.43,109.775,114.024,0.00116604,0.0839316,20.9066,589.68,-0.343259,0.0,0.0
432,107.75,43.7948,46.3003,158.957,109.77,113.124,0.00115213,0.0830415,20.9082,589.67,-0.272095,0.0,0.0
434,108.25,43.6341,46.2332,161.451,109.801,113.083,0.00113588,0.0819498,20.9095,589.65,-0.266305,0.0,0.0
436,108.75,43.7287,45.9003,157.088,109.783,113.84,0.00111482,0.0810656,20.9105,589.66,-0.328034,0.0,0.0
438,109.25,43.1389,45.7617,160.532,109.776,113.119,0.00109067,0.0801843,20.9118,589.64,-0.271181,0.0,0.0
440,109.75,42.9743,45.6517,163.169,109.791,113.687,0.00106651,0.0793221,20.9129,589.62,-0.315206,0.0,0.0
442,110.25,43.3125,45.3917,160.654,109.787,113.066,0.0010428,0.0789545,20.9138,589.64,-0.266061,0.0,0.0
444,110.75,43.3428,45.1103,159.32,109.788,113.811,0.0010236,0.0781408,20.9144,589.63,-0.325307,0.0,0.0
446,111.25,43.1428,45.43,157.881,109.784,113.76,0.00100805,0.0774817,20.915,589.62,-0.321655,0.0,0.0
448,111.75,42.7189,45.3864,163.081,109.793,113.262,0.000995447,0.0767628,20.9155,589.63,-0.281183,0.0,0.0
450,112.25,43.0303,45.0859,161.339,109.793,114.008,0.000987869,0.0761805,20.9158,589.63,-0.340556,0.0,0.0
452,112.75,42.8267,45.5496,163.356,109.797,113.711,0.000984095,0.0755381,20.9166,589.64,-0.316662,0.0,0.0
454,113.25,42.8874,45.574,162.373,109.788,113.655,0.000982352,0.0750178,20.9172,589.64,-0.312965,0.0,0.0
456,113.75,43.0011,45.2164,165.215,109.801,114.298,0.000982123,0.0745364,20.9177,589.63,-0.362848,0.0,0.0
458,114.25,42.8219,45.2799,159.707,109.793,113.51,0.000981938,0.0740926,20.9181,589.62,-0.300936,0.0,0.0
460,114.75,42.3926,45.0774,159.664,109.792,113.181,0.000988029,0.0737331,20.9184,589.61,-0.274837,0.0,0.0
462,115.25,42.6564,44.7669,157.76,109.806,114.074,0.000992963,0.0732571,20.9186,589.6,-0.344749,0.0,0.0
464,115.75,42.5962,45.127,160.165,109.81,113.773,0.000995711,0.0728715,20.9191,589.6,-0.320511,0.0,0.0
466,116.25,42.2838,44.5503,159.107,109.803,113.277,0.000997936,0.0724312,20.9196,589.6,-0.281594,0.0,0.0
468,116.75,42.4689,44.8434,158.196,109.811,113.744,0.00099317,0.0720746,20.9201,589.62,-0.318144,0.0,0.0
470,117.25,41.1217,43.302,158.321,109.814,113.635,0.000983397,0.0715726,20.9205,589.61,-0.309168,0.0,0.0
472,117.75,40.2697,42.8839,160.248,109.827,113.817,0.000975481,0.071166,20.9208,589.59,-0.322579,0.0,0.0
474,118.25,40.662,43.1547,164.365,109.821,113.734,0.000946613,0.0707544,20.9212,589.59,-0.316461,0.0,0.0
476,118.75,40.3068,42.7702,162.408,109.844,113.339,0.00092323,0.070347,20.9218,589.59,-0.283161,0.0,0.0
478,119.25,40.1071,42.8904,159.882,109.838,113.489,0.000893067,0.0699348,20.9223,589.59,-0.295602,0.0,0.0
480,119.75,40.266,42.514,162.161,109.855,113.73,0.000868635,0.069527,20.9227,589.59,-0.313412,0.0,0.0
482,120.25,40.3049,43.0652,162.028,109.86,113.918,0.000838871,0.0691966,20.9233,589.57,-0.327871,0.0,0.0
484,120.75,40.0202,41.9476,164.498,109.848,113.86,0.000814763,0.0687587,20.9239,589.56,-0.324355,0.0,0.0
486,121.25,40.1115,42.8979,163.356,109.839,113.835,0.000781527,0.068404,20.9245,589.55,-0.323077,0.0,0.0
488,121.75,40.2264,42.4444,158.552,109.846,113.066,0.000754605,0.0680345,20.9249,589.57,-0.261211,0.0,0.0
490,122.25,39.4798,42.7952,158.583,109.835,113.232,0.000721654,0.0676613,20.9252,589.58,-0.275373,0.0,0.0
492,122.75,40.0615,42.1502,164.345,109.85,114.221,0.000684933,0.0672993,20.9255,589.56,-0.352792,0.0,0.0
494,123.25,39.7589,42.3547,160.173,109.836,113.874,0.00064798,0.0669523,20.9257,589.56,-0.32631,0.0,0.0
496,123.75,39.7115,42.2939,160.464,109.85,113.767,0.000611562,0.0666414,20.9259,589.57,-0.316743,0.0,0.0
498,124.25,39.4646,42.2481,157.627,109.843,113.534,0.000582062,0.0663626,20.9261,589.55,-0.298788,0.0,0.0
500,124.75,39.4998,42.1113,155.486,109.848,113.879,0.000558168,0.0660846,20.9262,589.56,-0.325763,0.0,0.0
502,125.25,39.2652,42.0553,160.445,109.833,113.975,0.000550635,0.0658124,20.9263,589.58,-0.334591,0.0,0.0
504,125.75,39.5186,41.9642,159.467,109.848,114.071,0.000555172,0.0655397,20.9271,589.59,-0.340967,0.0,0.0
506,126.25,39.3983,41.8458,159.171,109.84,114.23,0.000558847,0.0652718,20.9278,589.56,-0.354271,0.0,0.0
508,126.75,39.2588,41.8197,158.012,109.843,114.13,0.000574282,0.0650548,20.9284,589.55,-0.346093,0.0,0.0
510,127.25,39.5027,41.6995,159.412,109.849,114.451,0.000586784,0.064879,20.929,589.55,-0.371015,0.0,0.0
512,127.75,38.8924,41.9368,159.884,109.858,114.145,0.000598158,0.0645524,20.9297,589.57,-0.346091,0.0,0.0
514,128.25,38.9973,41.7324,162.376,109.865,114.116,0.00060737,0.0642878,20.9304,589.56,-0.343188,0.0,0.0
516,128.75,39.8015,41.5333,156.672,109.903,113.424,0.000603619,0.0640735,20.9311,589.55,-0.285086,0.0,0.0
518,129.25,39.2414,42.1417,161.113,109.871,113.62,0.000600581,0.0637594,20.9316,589.54,-0.303257,0.0,0.0
520,129.75,39.423,41.5643,159.766,109.907,113.581,0.000583175,0.0635049,20.932,589.51,-0.297247,0.0,0.0
522,130.25,38.6712,41.4387,161.258,109.893,114.039,0.000569076,0.0632615,20.9323,589.52,-0.334761,0.0,0.0
524,130.75,38.9071,41.7163,160.091,109.905,114.336,0.00054894,0.0630308,20.9326,589.53,-0.357352,0.0,0.0
526,131.25,38.4194,41.5617,158.764,109.896,113.884,0.00053263,0.0628156,20.9328,589.53,-0.322229,0.0,0.0
528,131.75,39.0561,41.2011,158.188,109.913,113.765,0.000519419,0.0626413,20.933,589.51,-0.31137,0.0,0.0
530,132.25,38.8443,41.4424,159.159,109.914,113.918,0.000504984,0.0624576,20.9331,589.5,-0.32346,0.0,0.0
532,132.75,39.0226,41.7606,159.342,109.913,113.795,0.000493291,0.0623089,20.9333,589.5,-0.313777,0.0,0.0
534,133.25,38.6636,41.0296,158.374,109.897,114.052,0.000480086,0.0621175,20.9336,589.5,-0.335436,0.0,0.0
536,133.75,38.4104,40.7317,159.691,109.921,113.749,0.00046939,0.0619626,20.9341,589.49,-0.309505,0.0,0.0
538,134.25,38.3705,40.9743,164.606,109.926,113.877,0.000455748,0.0617625,20.9344,589.48,-0.319192,0.0,0.0
540,134.75,38.5724,41.0791,160.387,109.926,114.232,0.000444698,0.0615334,20.9348,589.48,-0.347287,0.0,0.0
542,135.25,38.1223,40.5409,158.568,109.914,114.363,0.000432014,0.0613478,20.935,589.48,-0.358669,0.0,0.0
544,135.75,38.5945,40.1136,163.513,109.918,113.773,0.00042174,0.061056,20.9352,589.47,-0.311575,0.0,0.0
546,136.25,37.993,40.5629,157.527,109.917,113.758,0.000411429,0.0608196,20.9354,589.47,-0.310516,0.0,0.0
548,136.75,38.5822,40.8036,157.688,109.906,114.742,0.000401288,0.0605983,20.936,589.47,-0.389253,0.0,0.0
550,137.25,38.0741,40.1892,160.6,109.908,114.179,0.000391109,0.0603923,20.9364,589.47,-0.344695,0.0,0.0
552,137.75,38.3811,40.6391,155.776,109.898,114.004,0.000381096,0.0602112,20.9366,589.48,-0.331554,0.0,0.0
554,138.25,37.9436,40.9425,158.002,109.893,114.039,0.000372985,0.0600646,20.9368,589.48,-0.334837,0.0,0.0
556,138.75,38.1851,40.3107,157.672,109.903,114.336,0.000365106,0.059908,20.937,589.48,-0.357461,0.0,0.0
558,139.25,38.249,40.4408,157.91,109.885,113.951,0.000357545,0.0597471,20.9371,589.47,-0.32848,0.0,0.0
560,139.75,38.1006,40.249,158.307,109.896,113.936,0.000351421,0.0596168,20.9372,589.49,-0.326402,0.0,0.0
562,140.25,38.2337,40.483,162.184,109.873,113.189,0.000346461,0.0594546,20.9372,589.49,-0.268809,0.0,0.0
564,140.75,38.2928,40.7127,162.92,109.889,113.203,0.000342443,0.0593233,20.9373,589.48,-0.268547,0.0,0.0
566,141.25,37.3795,40.0809,158.146,109.887,113.654,0.000331725,0.059132,20.9373,589.47,-0.304716,0.0,0.0
568,141.75,37.6809,39.8664,161.585,109.89,113.891,0.000323043,0.0589771,20.9374,589.46,-0.323265,0.0,0.0
570,142.25,37.5963,40.3137,158.849,109.9,113.931,0.000299847,0.0588516,20.9374,589.46,-0.325636,0.0,0.0
572,142.75,38.0631,40.515,157.229,109.901,113.737,0.000281058,0.0587075,20.9374,589.45,-0.310144,0.0,0.0
574,143.25,37.4291,40.0502,156.576,109.902,113.592,0.00026211,0.0585908,20.9375,589.45,-0.298565,0.0,0.0
576,143.75,37.7427,40.0654,157.791,109.896,114.306,0.000246761,0.0584115,20.9375,589.44,-0.355682,0.0,0.0
578,144.25,38.1113,39.8095,162.037,109.896,113.429,0.00025298,0.0582662,20.9377,589.389,-0.285996,0.0,0.0
580,144.75,37.6505,40.2936,161.886,109.897,113.71,0.000258016,0.0580778,20.9381,589.419,-0.308338,0.0,0.0
582,145.25,37.8481,40.2839,162.506,109.893,114.322,0.000277157,0.0579252,20.9385,589.43,-0.357217,0.0,0.0
584,145.75,37.4464,40.0539,157.513,109.892,114.023,0.000306216,0.0577026,20.9387,589.45,-0.333551,0.0,0.0
586,146.25,37.4122,39.6919,160.289,109.9,113.967,0.000329754,0.0575224,20.939,589.46,-0.328521,0.0,0.0
588,146.75,37.7714,39.9023,165.432,109.891,113.591,0.000343887,0.0573198,20.9391,589.46,-0.299324,0.0,0.0
590,147.25,37.0648,39.6974,158.319,109.868,113.743,0.000355336,0.0571557,20.9393,589.45,-0.313359,0.0,0.0
592,147.75,37.4362,39.8261,159.171,109.862,113.968,0.000364609,0.0569633,20.9394,589.44,-0.331695,0.0,0.0
594,148.25,37.444,39.9578,160.385,109.871,114.006,0.00037212,0.0567539,20.9395,589.45,-0.333975,0.0,0.0
596,148.75,37.4631,39.7548,156.75,109.86,113.956,0.000321001,0.0565843,20.9392,589.46,-0.33092,0.0,0.0
598,149.25,37.5905,39.9378,156.895,109.852,114.1,0.000279595,0.0564197,20.939,589.47,-0.342923,0.0,0.0
600,149.75,37.151,39.7305,160.281,109.838,113.709,0.000208794,0.0562865,20.9391,589.47,-0.313069,0.0,0.0
602,150.25,37.7517,39.7346,157.482,109.856,113.587,0.000139026,0.0561785,20.9394,589.46,-0.301918,0.0,0.0
604,150.75,36.9774,39.5861,161.023,109.85,113.307,7.13366e-05,0.0560464,20.9396,589.47,-0.280146,0.0,0.0
606,151.25,37.5051,39.7438,163.03,109.849,113.225,9.97197e-06,0.0558993,20.9398,589.45,-0.27364,0.0,0.0
608,151.75,37.3986,39.5469,157.723,109.848,113.487,-4.56162e-05,0.0557801,20.9399,589.44,-0.294639,0.0,0.0
610,152.25,37.505,39.8359,159.985,109.845,113.488,-9.06425e-05,0.0555847,20.94,589.43,-0.294978,0.0,0.0
612,152.75,37.2832,39.0612,160.175,109.824,113.827,-0.000129728,0.0554264,20.9401,589.419,-0.323674,0.0,0.0
614,153.25,37.1754,39.1608,157.516,109.832,113.818,-0.000163741,0.0551852,20.9402,589.43,-0.322299,0.0,0.0
616,153.75,37.3247,39.5245,159.709,109.821,113.313,-0.000191944,0.0549898,20.9403,589.409,-0.282924,0.0,0.0
618,154.25,37.1378,39.6131,158.5,109.809,113.569,-0.000215377,0.0547186,20.9403,589.399,-0.304371,0.0,0.0
620,154.75,36.7651,39.2579,157.998,109.802,113.308,-0.000234358,0.0544989,20.9404,589.399,-0.284165,0.0,0.0
622,155.25,36.5955,39.1915,159.482,109.809,113.944,-0.000249732,0.0543061,20.9408,589.409,-0.334153,0.0,0.0
624,155.75,36.9519,39.4443,163.798,109.805,113.311,-0.000266761,0.0541365,20.9412,589.419,-0.284116,0.0,0.0
626,156.25,37.1235,38.9956,162.432,109.817,114.019,-0.000284672,0.0539917,20.9415,589.419,-0.339468,0.0,0.0
628,156.75,36.8926,38.7016,163.328,109.797,113.031,-0.00029918,0.0538678,20.9418,589.399,-0.262391,0.0,0.0
630,157.25,36.8525,38.9716,157.016,109.82,113.357,-0.000343222,0.0536931,20.942,589.379,-0.286582,0.0,0.0
632,157.75,37.1119,39.0158,163.137,109.814,114.221,-0.000378895,0.0534847,20.9422,589.369,-0.355706,0.0,0.0
634,158.25,36.4414,39.2448,164.637,109.82,113.737,-0.000443805,0.0533159,20.9423,589.379,-0.316738,0.0,0.0
636,158.75,36.7973,39.4004,159.731,109.796,113.702,-0.000496383,0.0530663,20.9424,589.389,-0.316007,0.0,0.0
638,159.25,36.9311,38.4979,158.514,109.796,113.405,-0.000538971,0.0528642,20.9425,589.399,-0.292382,0.0,0.0
640,159.75,36.7792,38.9197,158.707,109.793,113.711,-0.000591115,0.0526863,20.9426,589.389,-0.316954,0.0,0.0
642,160.25,37.133,38.6739,163.252,109.802,113.661,-0.000649234,0.0525422,20.9426,589.389,-0.312204,0.0,0.0
644,160.75,37.0162,38.6314,161.778,109.781,113.643,-0.000695658,0.0524255,20.9427,589.399,-0.312583,0.0,0.0
646,161.25,36.467,38.6111,157.855,109.789,113.182,-0.000732672,0.0523309,20.9429,589.369,-0.275209,0.0,0.0
648,161.75,36.7646,38.7811,157.817,109.776,113.592,-0.000753503,0.0522544,20.9434,589.389,-0.308962,0.0,0.0
650,162.25,36.9512,38.9128,165.034,109.806,113.705,-0.00076214,0.0521077,20.9437,589.409,-0.31545,0.0,0.0
652,162.75,36.6807,38.9968,164.728,109.776,113.081,-0.000754103,0.0519889,20.944,589.379,-0.268146,0.0,0.0
654,163.25,36.354,38.1382,160.848,109.777,113.46,-0.000734062,0.0518555,20.9442,589.369,-0.298303,0.0,0.0
656,163.75,36.5733,38.3435,161.728,109.759,113.776,-0.000700182,0.0517141,20.9444,589.359,-0.324943,0.0,0.0
658,164.25,37.0073,39.0415,161.537,109.775,113.709,-0.000656855,0.0515995,20.9446,589.369,-0.318248,0.0,0.0
660,164.75,36.4938,39.208,161.093,109.754,113.032,-0.00060542,0.0514644,20.9447,589.359,-0.265975,0.0,0.0
662,165.25,36.3952,38.547,163.895,109.767,113.549,-0.000549051,0.051355,20.9448,589.379,-0.30623,0.0,0.0
664,165.75,36.9785,38.6513,159.691,109.752,112.802,-0.000503392,0.0512099,20.9449,589.359,-0.247779,0.0,0.0
666,166.25,36.2866,38.1889,158.269,109.763,113.286,-0.000457257,0.0510924,20.9449,589.379,-0.285524,0.0,0.0
668,166.75,36.1928,38.646,160.974,109.76,113.366,-0.000411653,0.0509408,20.945,589.379,-0.292233,0.0,0.0
670,167.25,36.5569,38.4663,159.059,109.765,113.863,-0.000374713,0.0508106,20.945,589.379,-0.331377,0.0,0.0
672,167.75,36.5755,38.9886,161.539,109.763,113.463,-0.000359619,0.0506985,20.945,589.389,-0.299716,0.0,0.0
674,168.25,35.988,38.3434,157.043,109.776,113.452,-0.000333807,0.0506076,20.9451,589.379,-0.297732,0.0,0.0
676,168.75,35.9935,38.2263,160.098,109.777,113.884,-0.000310416,0.0504776,20.9451,589.379,-0.331965,0.0,0.0
678,169.25,36.5048,38.611,159.18,109.782,113.824,-0.000291469,0.0503723,20.9451,589.379,-0.326862,0.0,0.0
680,169.75,36.6254,37.9052,159.694,109.759,113.173,-0.000278736,0.0502871,20.9451,589.399,-0.276887,0.0,0.0
682,170.25,36.2153,38.0693,161.27,109.774,113.267,-0.000270776,0.0501616,20.9451,589.399,-0.283191,0.0,0.0
684,170.75,36.0552,38.3951,161.048,109.751,113.994,-0.000264329,0.0501081,20.9452,589.369,-0.342903,0.0,0.0
686,171.25,36.2704,38.0592,161.796,109.761,114.048,-0.00025976,0.0499795,20.9452,589.359,-0.34631,0.0,0.0
688,171.75,36.2148,37.8614,160.871,109.761,113.315,-0.000256647,0.049842,20.9455,589.359,-0.288083,0.0,0.0
690,172.25,36.1166,38.3974,155.788,109.753,113.685,-0.000251511,0.0497009,20.9459,589.359,-0.31822,0.0,0.0
692,172.75,36.5136,37.8434,162.277,109.745,113.199,-0.000244998,0.0495599,20.9461,589.349,-0.280077,0.0,0.0
694,173.25,36.4661,37.9988,159.257,109.759,113.385,-0.000239723,0.0494457,20.9463,589.339,-0.293794,0.0,0.0
696,173.75,36.1811,37.8368,161.974,109.758,113.607,-0.000232966,0.049331,20.9465,589.329,-0.311511,0.0,0.0
698,174.25,36.1614,37.9852,160.29,109.764,113.654,-0.000227493,0.049218,20.9466,589.349,-0.314814,0.0,0.0
700,174.75,35.7271,38.0709,159.21,109.757,113.12,-0.000226981,0.0491116,20.9467,589.349,-0.272831,0.0,0.0
702,175.25,35.9523,37.9353,163.124,109.771,113.217,-0.000230096,0.0490122,20.9468,589.369,-0.279418,0.0,0.0
704,175.75,36.1074,37.9162,158.306,109.766,113.524,-0.000240463,0.0489316,20.9469,589.359,-0.304366,0.0,0.0
706,176.25,36.0959,37.77,159.894,109.763,113.434,-0.00025592,0.0487958,20.9469,589.349,-0.297379,0.0,0.0
708,176.75,36.0224,37.8525,158.917,109.756,113.514,-0.000281512,0.0486859,20.947,589.339,-0.304364,0.0,0.0
710,177.25,36.5017,37.665,165.426,109.745,113.578,-0.000314007,0.0486116,20.947,589.329,-0.310353,0.0,0.0
712,177.75,35.8017,38.466,158.613,109.746,112.746,-0.000340328,0.0485649,20.947,589.339,-0.243832,0.0,0.0
714,178.25,35.8812,37.7719,161.715,109.757,113.806,-0.000392696,0.0485196,20.9475,589.349,-0.327459,0.0,0.0
716,178.75,36.1183,37.6318,161.946,109.766,113.36,-0.000435114,0.0484762,20.9479,589.329,-0.291275,0.0,0.0
718,179.25,35.3565,37.757,163.45,109.745,113.216,-0.000479407,0.0483966,20.9482,589.329,-0.281527,0.0,0.0
720,179.75,36.5621,37.9358,160.659,109.738,113.55,-0.000515285,0.048292,20.9484,589.329,-0.308759,0.0,0.0
722,180.25,36.1173,37.9715,159.623,109.739,113.689,-0.000544346,0.0481925,20.9486,589.339,-0.319673,0.0,0.0
724,180.75,35.7859,37.9888,159.854,109.734,113.657,-0.000549257,0.0480986,20.9488,589.329,-0.317578,0.0,0.0
726,181.25,36.1705,37.6855,159.527,109.741,112.741,-0.000553235,0.0480225,20.9489,589.329,-0.243787,0.0,0.0
728,181.75,36.0347,37.8738,159.945,109.733,113.853,-0.000539071,0.0479045,20.949,589.329,-0.333165,0.0,0.0
730,182.25,35.7402,37.9553,161.55,109.741,113.702,-0.000527597,0.0478089,20.9491,589.329,-0.320572,0.0,0.0
732,182.75,35.3951,37.7577,164.714,109.724,113.21,-0.000505885,0.0477166,20.9492,589.319,-0.282717,0.0,0.0
734,183.25,35.7675,37.8009,161.204,109.744,113.275,-0.000488298,0.0476286,20.9493,589.309,-0.286282,0.0,0.0
736,183.75,35.8287,37.2442,160.039,109.737,113.119,-0.000467843,0.0475572,20.9493,589.299,-0.274392,0.0,0.0
738,184.25,35.9877,37.0577,161.697,109.735,113.071,-0.000451274,0.0474572,20.9493,589.309,-0.270658,0.0,0.0
740,184.75,36.2765,37.5733,158.787,109.735,113.326,-0.000439095,0.0473761,20.9494,589.299,-0.291123,0.0,0.0
742,185.25,35.9384,37.8852,161.496,109.729,113.293,-0.00042923,0.0473105,20.9494,589.309,-0.288899,0.0,0.0
744,185.75,36.1556,37.1406,164.222,109.719,113.396,-0.000422547,0.0472573,20.9494,589.319,-0.297929,0.0,0.0
746,186.25,35.7568,37.5631,161.216,109.716,113.277,-0.00041831,0.047192,20.9494,589.319,-0.288743,0.0,0.0
748,186.75,35.29,37.7347,160.951,109.735,114.144,-0.000414878,0.0471191,20.9494,589.329,-0.356078,0.0,0.0
750,187.25,35.3953,37.2461,161.007,109.704,113.5,-0.000419298,0.0470378,20.9495,589.329,-0.30751,0.0,0.0
752,187.75,35.7988,37.3477,163.174,109.705,113.298,-0.000426856,0.046952,20.9495,589.339,-0.29131,0.0,0.0
754,188.25,35.6223,37.5409,159.638,109.707,113.398,-0.000432978,0.046875,20.9495,589.319,-0.299112,0.0,0.0
756,188.75,35.8606,37.3639,158.962,109.711,112.875,-0.000436695,0.046806,20.9495,589.309,-0.257047,0.0,0.0
758,189.25,35.7549,37.481,162.57,109.706,113.748,-0.000439705,0.0467501,20.9495,589.299,-0.327077,0.0,0.0
760,189.75,35.4256,37.4627,161.187,109.717,113.743,-0.000429724,0.0466485,20.9495,589.299,-0.325799,0.0,0.0
762,190.25,36.196,37.5854,157.202,109.715,113.826,-0.00042164,0.0466052,20.9495,589.299,-0.332492,0.0,0.0
764,190.75,35.6652,37.1552,160.716,109.72,113.374,-0.000415091,0.0465311,20.9495,589.319,-0.296199,0.0,0.0
766,191.25,35.4452,37.5519,160.282,109.725,114.617,-0.000409787,0.0464289,20.9495,589.299,-0.394283,0.0,0.0
768,191.75,35.8705,36.8785,165.652,109.714,113.191,-0.000414642,0.046346,20.9495,589.309,-0.282027,0.0,0.0
770,192.25,35.8658,37.4873,159.652,109.712,113.481,-0.00042681,0.046279,20.9495,589.279,-0.305282,0.0,0.0
772,192.75,35.365,36.7811,160.068,109.714,113.586,-0.0004517,0.0462246,20.9495,589.299,-0.313511,0.0,0.0
774,193.25,35.5976,37.0058,163.007,109.713,113.274,-0.000499753,0.0461658,20.9495,589.309,-0.288797,0.0,0.0
776,193.75,35.1368,37.0427,157.335,109.727,113.478,-0.000512679,0.0461048,20.9495,589.299,-0.303837,0.0,0.0
778,194.25,35.6966,37.3274,161.538,109.701,113.381,-0.000534784,0.0460406,20.9495,589.299,-0.298253,0.0,0.0
780,194.75,35.3398,37.6814,161.801,109.715,113.42,-0.000552688,0.0459752,20.9495,589.289,-0.300188,0.0,0.0
782,195.25,35.9035,37.3947,161.387,109.704,113.09,-0.000604448,0.0459223,20.9497,589.299,-0.274862,0.0,0.0
784,195.75,35.8155,37.5656,160.806,109.726,113.407,-0.000646374,0.0458935,20.9498,589.279,-0.298345,0.0,0.0
786,196.25,35.7428,37.3917,160.429,109.717,113.314,-0.000685301,0.0458701,20.95,589.269,-0.291655,0.0,0.0
788,196.75,35.254,36.746,161.254,109.723,113.904,-0.0007201,0.0458512,20.9501,589.269,-0.338094,0.0,0.0
790,197.25,35.6042,37.0261,164.286,109.707,113.396,-0.000751229,0.0458359,20.9502,589.249,-0.299027,0.0,0.0
792,197.75,35.4901,36.8879,160.369,109.736,113.537,-0.000778404,0.0458235,20.9502,589.279,-0.307821,0.0,0.0
794,198.25,35.7494,36.997,156.381,109.715,113.128,-0.00080218,0.0458135,20.9503,589.289,-0.276908,0.0,0.0
796,198.75,35.4858,37.2108,164.735,109.733,114.15,-0.000821439,0.0457913,20.9503,589.289,-0.356738,0.0,0.0
798,199.25,35.2126,37.6802,161.692,109.706,113.476,-0.000828996,0.0457733,20.9503,589.299,-0.305391,0.0,0.0
800,199.75,34.7407,37.0577,161.843,109.736,113.357,-0.000841919,0.0457446,20.9504,589.269,-0.293437,0.0,0.0
802,200.25,35.7536,36.8041,158.602,109.718,112.626,-0.000853039,0.0457214,20.9504,589.269,-0.236513,0.0,0.0
804,200.75,35.3086,36.8733,159.417,109.732,113.18,-0.000862635,0.0456745,20.9504,589.269,-0.279642,0.0,0.0
806,201.25,35.1145,37.2098,162.4375,109.727,113.295,-0.000870408,0.045629,20.9504,589.279,-0.289207,0.0,0.0
808,201.75,34.8992,36.9524,158.818,109.735,112.948,-0.000878011,0.0455856,20.9505,589.279,-0.260829,0.0,0.0
810,202.25,35.7089,36.5397,163.902,109.72,114.325,-0.000885346,0.045567,20.9505,589.269,-0.371682,0.0,0.0
812,202.75,35.0936,36.804,161.644,109.739,112.934,-0.000895209,0.0455205,20.9505,589.299,-0.259408,0.0,0.0
814,203.25,35.3162,36.9551,162.322,109.728,113.069,-0.000906728,0.0454695,20.9505,589.299,-0.271117,0.0,0.0
816,203.75,34.9421,37.0012,163.353,109.734,113.901,-0.000919326,0.0454282,20.9505,589.299,-0.336982,0.0,0.0
818,204.25,35.266,37.1063,157.788,109.729,113.627,-0.000932472,0.0453799,20.9505,589.289,-0.315606,0.0,0.0
820,204.75,35.2562,36.977,162.598,109.741,113.738,-0.000943774,0.0453274,20.9505,589.269,-0.323385,0.0,0.0
822,205.25,35.181,37.1019,159.482,109.734,114,-0.000953517,0.0452998,20.9505,589.269,-0.344767,0.0,0.0
824,205.75,35.048,36.6434,160.426,109.76,114.041,-0.000958794,0.0452907,20.9505,589.289,-0.345862,0.0,0.0
826,206.25,35.4918,36.9139,160.297,109.736,113.773,-0.000960716,0.0452833,20.9505,589.269,-0.32664,0.0,0.0
828,206.75,35.0531,36.6029,160.446,109.743,113.681,-0.000957696,0.0452774,20.9505,589.259,-0.318704,0.0,0.0
830,207.25,35.3348,37.0146,159.16,109.736,113.605,-0.000951133,0.0452503,20.9505,589.249,-0.313215,0.0,0.0
832,207.75,35.1852,36.6242,159.009,109.742,113.387,-0.000945817,0.0452084,20.9505,589.229,-0.295382,0.0,0.0
834,208.25,35.3694,36.5854,162.096,109.74,113.298,-0.00093955,0.0451745,20.9505,589.239,-0.28843,0.0,0.0
836,208.75,35.0837,36.632,170.824,109.776,113.477,-0.000932708,0.0451751,20.9505,589.249,-0.299705,0.0,0.0
838,209.25,35.5372,36.4363,162.989,109.744,113.53,-0.000927167,0.0451905,20.9505,589.279,-0.306561,0.0,0.0
840,209.75,35.1317,36.8026,163.935,109.759,113.544,-0.000922679,0.0452163,20.9505,589.279,-0.306487,0.0,0.0
842,210.25,35.3124,37.0831,164.885,109.741,113.095,-0.000919043,0.0452371,20.9505,589.249,-0.2722,0.0,0.0
844,210.75,35.002,36.5913,164.946,109.75,113.936,-0.000914856,0.0452318,20.9505,589.249,-0.338437,0.0,0.0
846,211.25,34.9703,36.4369,161.055,109.747,113.086,-0.000911465,0.0452075,20.9505,589.259,-0.270921,0.0,0.0
848,211.75,35.2236,36.8793,161.457,109.761,113.653,-0.00090545,0.0451878,20.9505,589.259,-0.314993,0.0,0.0
850,212.25,35.2556,36.9248,162.747,109.755,113.54,-0.000897637,0.0451718,20.9505,589.239,-0.30653,0.0,0.0
852,212.75,35.1115,36.5066,161.215,109.766,113.769,-0.000882157,0.0451589,20.9505,589.209,-0.323833,0.0,0.0
854,213.25,34.8973,36.364,159.413,109.752,114.115,-0.000861383,0.0451062,20.9505,589.219,-0.352409,0.0,0.0
856,213.75,34.903,36.5289,159.328,109.765,113.727,-0.000836059,0.0450635,20.9505,589.219,-0.320611,0.0,0.0
858,214.25,35.1825,36.4639,163.744,109.758,113.448,-0.000807898,0.045029,20.9505,589.229,-0.298909,0.0,0.0
860,214.75,34.634,36.2587,162.418,109.759,113.7,-0.000785089,0.045001,20.9505,589.219,-0.318875,0.0,0.0
862,215.25,35.4728,36.2917,160.782,109.753,113.564,-0.000756155,0.0449635,20.9505,589.219,-0.308605,0.0,0.0
864,215.75,35.3206,36.8821,162.071,109.767,113.577,-0.000723306,0.0449198,20.9505,589.219,-0.308444,0.0,0.0
866,216.25,34.769,36.2464,163.631,109.747,113.638,-0.000690816,0.0449288,20.9505,589.229,-0.314994,0.0,0.0
868,216.75,34.9786,36.3618,159.979,109.75,113.722,-0.000659204,0.0449761,20.9505,589.249,-0.32141,0.0,0.0
870,217.25,35.0636,36.624,163.403,109.764,113.985,-0.000633598,0.0450145,20.9505,589.229,-0.341124,0.0,0.0
872,217.75,35.1748,36.4486,161.44,109.761,113.328,-0.000614165,0.0450174,20.9505,589.239,-0.289132,0.0,0.0
874,218.25,35.0593,36.6045,160.41,109.757,114.062,-0.0005996,0.0450197,20.9505,589.249,-0.3478,0.0,0.0
876,218.75,35.2288,36.2859,155.746,109.761,112.878,-0.000596301,0.044992,20.9505,589.239,-0.253162,0.0,0.0
878,219.25,35.366,36.0743,160.088,109.777,113.905,-0.000601275,0.0449429,20.9505,589.219,-0.333723,0.0,0.0
880,219.75,35.1416,36.5943,160.187,109.756,113.455,-0.000605305,0.0449031,20.9505,589.219,-0.299614,0.0,0.0
882,220.25,35.4879,36.1476,158.507,109.754,113.735,-0.000638374,0.0448709,20.9505,589.239,-0.32209,0.0,0.0
884,220.75,35.1455,36.8301,158.885,109.761,113.449,-0.00066516,0.0448307,20.9505,589.219,-0.298766,0.0,0.0
886,221.25,34.9407,36.6453,159.858,109.756,113.737,-0.000705485,0.0447981,20.9505,589.229,-0.322064,0.0,0.0
888,221.75,35.3432,36.4608,159.555,109.764,113.715,-0.000738148,0.0447577,20.9505,589.239,-0.31972,0.0,0.0
890,222.25,35.1726,36.4131,156.501,109.759,113.823,-0.000764606,0.0447249,20.9505,589.249,-0.328679,0.0,0.0
892,222.75,35.6342,35.9875,160.673,109.761,113.81,-0.000791004,0.0446562,20.9505,589.239,-0.327453,0.0,0.0
894,223.25,35.0478,36.5052,162.303,109.762,113.433,-0.000812386,0.0446005,20.9505,589.239,-0.297371,0.0,0.0
896,223.75,34.7284,36.4378,155.665,109.758,113.162,-0.000832321,0.0445554,20.9505,589.229,-0.276074,0.0,0.0
898,224.25,35.1259,36.3271,162.059,109.765,113.39,-0.000850821,0.0445188,20.9505,589.239,-0.293723,0.0,0.0
900,224.75,35.0005,35.9911,159.291,109.764,112.879,-0.000867767,0.0444892,20.9505,589.229,-0.252988,0.0,0.0
902,225.25,34.5951,36.4548,162.755,109.772,112.541,-0.000883258,0.0445216,20.9505,589.229,-0.225239,0.0,0.0
904,225.75,35.0098,36.5794,166.51,109.764,113.593,-0.000895806,0.0445478,20.9505,589.229,-0.309987,0.0,0.0
906,226.25,35.3091,35.9916,163.251,109.762,113.665,,0.0445838,,589.229,-0.315809,0.0,0.0
908,226.75,34.8858,35.9947,160.187,109.762,113.474,,0.0446263,,589.239,-0.300631,0.0,0.0
910,227.25,34.8988,36.4928,156.173,109.766,114.151,,0.0446607,,589.229,-0.354121,0.0,0.0
912,227.75,34.8079,36.9112,164.066,109.764,113.513,,0.0446886,,589.219,-0.303587,0.0,0.0
914,228.25,34.7189,36.151,162.318,109.759,113.188,,0.0447112,,589.229,-0.278098,0.0,0.0
916,228.75,34.6288,36.1975,162.354,109.764,114.08,,0.0446873,,589.209,-0.348696,0.0,0.0
918,229.25,34.9993,36.1885,161.473,109.772,113.597,,,,589.209,-0.309615,0.0,0.0
920,229.75,34.8018,36.5929,153.613,109.766,113.965,,,,589.189,-0.339332,0.0,0.0
922,230.25,34.7102,36.3621,162.541,109.768,113.844,,,,589.209,-0.329599,0.0,0.0
924,230.75,35.2014,36.1282,164.423,109.764,113.579,,,,589.199,-0.3089,0.0,0.0
926,231.25,35.3657,36.6909,159.9,109.764,113.672,,,,589.199,-0.316262,0.0,0.0
928,231.75,34.9679,36.151,156.36,109.758,113.235,,,,589.209,-0.281963,0.0,0.0
930,232.25,35.0592,36.1467,161.542,109.773,113.391,,,,589.189,-0.293187,0.0,0.0
932,232.75,35.2128,36.0121,160.706,109.777,113.787,,,,589.199,-0.324368,0.0,0.0
934,233.25,34.7434,36.0936,165.759,109.768,113.997,,,,589.199,-0.341753,0.0,0.0
936,233.75,34.8649,35.9011,156.12,109.763,114.182,,,,589.209,-0.356819,0.0,0.0
938,234.25,34.9622,36.5971,158.514,109.768,113.933,,,,589.239,-0.336699,0.0,0.0
940,234.75,35.0419,36.4918,161.103,109.757,113.527,,,,589.229,-0.305298,0.0,0.0
942,235.25,34.8247,36.0732,160.85,109.765,113.769,,,,589.209,-0.323947,0.0,0.0
944,235.75,35.1471,36.3315,161.434,109.763,113.161,,,,589.209,-0.275593,0.0,0.0
946,236.25,34.4316,36.0474,162.94,109.77,113.782,,,,589.209,-0.324513,0.0,0.0
948,236.75,35.1458,35.6616,164,109.761,113.338,,,,589.209,-0.289861,0.0,0.0