File: 01_Data/Rug_Pad/Cone/Rug_Pad_Cone_HF50Scan_220920_R1.csv
Names,Time,Stack TC,Smoke TC,Exh Press,Smoke Comp,Smoke Meas,CO Meter,CO2 Meter,O2 Meter,Sample Mass,Ext Coeff,Start Test,Flame Verif
Chan Gain,,500,500,1,1,1,1,1,1,1,1,1.0,1.0
Offset,,0,0,0.143022,0,0,0,0,0,0,0,0.0,0.0
Gain,,1,1,25.011,14.5176,16.5692,1,1,1,1.00088,1.03055,1.0,1.0
Units,sec,C,C,Pa,%,%,%,%,%,g,/m,,
Baseline,,46.5423,48.0289,156.403,109.662,114.645,-0.000670506,0.0440522,20.9506,-447.355,-0.401623,,
3,0.5,45.0578,46.9982,154.959,109.867,114.418,-0.000942304,0.0442399,20.951,600.199,-0.366847,0.0,0.0
6,1.25,44.9067,46.6831,157.13,109.845,114.914,-0.00096558,0.0442969,20.951,600.019,-0.407778,0.0,0.0
9,2,45.4902,47.0235,155.901,109.833,115.123,-0.000981522,0.0443565,20.951,599.959,-0.425252,0.0,0.0
12,2.75,44.9949,46.6687,159.882,109.847,114.802,-0.000988673,0.0443166,20.9502,600.079,-0.398836,0.0,0.0
15,3.5,45.1685,46.7218,155.102,109.815,114.362,-0.000963772,0.0443001,20.95,600.029,-0.366715,0.0,0.0
18,4.25,45.3323,46.4637,155.274,109.784,113.681,-0.000886007,0.0443387,20.9492,600.059,-0.315344,0.0,0.0
21,5,45.0672,46.6192,160.58,109.779,112.65,-0.000803903,0.0445877,20.9478,600.019,-0.233347,0.0,0.0
24,5.75,45.1121,46.6218,155.218,109.769,113.411,-0.000595044,0.0462449,20.9451,600.029,-0.295091,0.0,0.0
27,6.5,44.9272,46.5727,155.862,109.743,114.323,-0.000310438,0.048539,20.9401,599.989,-0.369623,0.0,1.0
30,7.25,45.1449,46.7915,149.189,109.717,112.441,1.47313e-05,0.0530909,20.9277,599.959,-0.221683,0.0,1.0
33,8,45.781,46.135,151.769,109.734,108.165,0.000488988,0.0632388,20.9072,599.959,0.130133,0.0,1.0
36,8.75,45.5551,46.7014,151.369,109.707,106.175,0.000984156,0.0735482,20.8873,599.829,0.295791,0.0,1.0
39,9.5,45.6702,47.2407,147.66,109.75,102.467,0.00150177,0.0891419,20.8482,599.879,0.620793,0.0,1.0
42,10.25,45.0816,46.6186,146.168,109.811,99.5601,0.00203803,0.107551,20.8196,599.819,0.885881,0.0,1.0
45,11,45.1774,46.0126,141.438,109.859,97.5208,0.00242896,0.127124,20.7837,599.749,1.07691,0.0,0.0
48,11.75,45.7703,46.7028,148.887,109.938,95.0113,0.00319753,0.149929,20.7498,599.709,1.3191,0.0,0.0
51,12.5,46.4126,46.6381,142.266,109.995,94.7175,0.00392228,0.172688,20.7218,599.638,1.35176,0.0,0.0
54,13.25,46.9834,46.9413,136.357,110.05,93.8559,0.00473186,0.191893,20.6882,599.588,1.43892,0.0,0.0
57,14,47.5146,47.6032,135.756,110.105,90.8629,0.00565314,0.215103,20.6521,599.518,1.7364,0.0,0.0
60,14.75,47.9907,48.4125,141.551,110.154,89.5224,0.00632475,0.235949,20.621,599.488,1.87476,0.0,0.0
63,15.5,49.0235,48.3017,137.859,110.205,90.6829,0.00719569,0.260508,20.5806,599.378,1.76254,0.0,0.0
66,16.25,49.2171,49.0956,141.657,110.252,89.9285,0.00809453,0.282099,20.5441,599.358,1.84192,0.0,0.0
69,17,50.0665,50.1324,138.999,110.297,87.8391,0.00897644,0.304144,20.5056,599.248,2.05813,0.0,0.0
72,17.75,50.8368,50.4069,135.687,110.332,88.989,0.00981454,0.328464,20.463,599.218,1.94339,0.0,0.0
75,18.5,51.618,51.383,130.27,110.391,84.1186,0.0107687,0.350269,20.42,599.078,2.45707,0.0,0.0
78,19.25,52.993,51.846,133.77,110.42,82.0262,0.0112563,0.373132,20.3944,599.048,2.68713,0.0,0.0
81,20,53.471,52.3276,137.304,110.456,82.1182,0.0121151,0.400555,20.3507,598.948,2.67993,0.0,0.0
84,20.75,54.4923,53.2737,132.303,110.474,76.6117,0.0130491,0.423788,20.3089,598.868,3.30892,0.0,0.0
87,21.5,54.9668,54.0728,125.519,110.508,79.8225,0.0138874,0.44627,20.2716,598.748,2.94053,0.0,0.0
90,22.25,55.8994,55.0255,132.054,110.526,77.6093,0.0146353,0.463468,20.2349,598.658,3.1962,0.0,0.0
93,23,56.7428,55.8919,130.792,110.544,78.6611,0.0152957,0.483336,20.2082,598.578,3.07597,0.0,0.0
96,23.75,58.0232,56.5491,127.602,110.568,78.1352,0.0157921,0.503291,20.1888,598.497,3.1386,0.0,0.0
99,24.5,58.6119,57.5629,128.415,110.588,78.6236,0.0161795,0.519185,20.1746,598.407,3.08385,0.0,0.0
102,25.25,60.0261,58.0711,133.393,110.608,79.2734,0.0164311,0.531174,20.1642,598.327,3.01112,0.0,0.0
105,26,60.3743,58.7916,135.115,110.622,79.4868,0.0166145,0.539619,20.1567,598.247,2.98798,0.0,0.0
108,26.75,61.1751,59.4819,134.345,110.627,83.7176,0.0165485,0.542981,20.1542,598.167,2.51958,0.0,0.0
111,27.5,61.8032,60.644,134.592,110.649,80.8192,0.016386,0.541722,20.1576,598.117,2.83991,0.0,0.0
114,28.25,62.45,61.4132,131.369,110.661,82.1587,0.016072,0.539222,20.172,598.047,2.69229,0.0,0.0
117,29,62.2844,62.0723,132.564,110.642,84.0791,0.0155103,0.530858,20.1936,597.967,2.48186,0.0,0.0
120,29.75,63.0687,62.1376,137.759,110.66,88.9349,0.014874,0.521971,20.2141,597.887,1.97579,0.0,0.0
123,30.5,63.7655,63.0157,138.059,110.679,86.7454,0.0141899,0.504363,20.253,597.847,2.20261,0.0,0.0
126,31.25,63.4469,63.4365,139.383,110.669,86.7449,0.01348,0.488138,20.2978,597.757,2.2019,0.0,0.0
129,32,63.8224,63.6742,139.183,110.672,91.7953,0.0127173,0.470517,20.3411,597.707,1.69055,0.0,0.0
132,32.75,64.191,63.7244,144.91,110.665,91.5319,0.0120568,0.448499,20.3771,597.667,1.71595,0.0,0.0
135,33.5,63.7795,64.0402,143.098,110.674,90.7815,0.0115753,0.426243,20.4083,597.637,1.79109,0.0,0.0
138,34.25,63.9323,64.5143,148.125,110.668,95.4001,0.0107644,0.404709,20.4394,597.627,1.34202,0.0,0.0
141,35,64.0506,63.8832,145.083,110.674,97.0369,0.00987265,0.384451,20.4725,597.617,1.18871,0.0,0.0
144,35.75,64.138,64.2832,147.632,110.657,100.533,0.009044,0.363946,20.5003,597.597,0.867359,0.0,0.0
147,36.5,63.5577,64.5471,149.574,110.644,101.202,0.0082016,0.346551,20.527,597.527,0.806319,0.0,0.0
150,37.25,63.8779,64.0719,148.616,110.668,104.066,0.00748589,0.330392,20.5565,597.557,0.555963,0.0,0.0
153,38,63.4996,64.1202,144.236,110.626,105.607,0.00663718,0.312664,20.5822,597.537,0.419784,0.0,0.0
156,38.75,63.2618,64.1462,147.64,110.607,107.367,0.00576011,0.296359,20.6082,597.517,0.268756,0.0,0.0
159,39.5,62.5945,64.3933,146.121,110.607,109.632,0.00499457,0.28153,20.634,597.477,0.0800506,0.0,0.0
162,40.25,63.1172,64.2623,146.35,110.606,110.391,0.0043827,0.268157,20.6549,597.447,0.0175797,0.0,0.0
165,41,62.6881,64.5104,151.104,110.581,111.611,0.00383352,0.255278,20.6738,597.397,-0.0838162,0.0,0.0
168,41.75,62.2203,64.3587,151.691,110.556,113.218,0.00337268,0.243453,20.692,597.386,-0.215077,0.0,0.0
171,42.5,62.345,63.7723,150.632,110.543,113.539,0.00300848,0.232948,20.7083,597.357,-0.241801,0.0,0.0
174,43.25,62.2735,63.569,150.888,110.538,114,0.00271538,0.223164,20.7221,597.367,-0.278806,0.0,0.0
177,44,61.772,63.6682,152.096,110.521,113.892,0.00246112,0.215125,20.736,597.316,-0.271594,0.0,0.0
180,44.75,61.5247,63.9234,150.287,110.49,114.56,0.00224633,0.206467,20.7484,597.306,-0.326998,0.0,0.0
183,45.5,61.9047,63.5458,144.534,110.476,114.758,0.00206044,0.198639,20.7583,597.306,-0.343822,0.0,0.0
186,46.25,61.2352,63.6655,148.844,110.462,115.55,0.00189239,0.191595,20.7687,597.306,-0.407072,0.0,0.0
189,47,61.1244,63.6127,152.79,110.445,115.181,0.00175601,0.185276,20.777,597.286,-0.379598,0.0,0.0
192,47.75,60.914,63.5375,150.005,110.416,115.419,0.00163783,0.178971,20.7842,597.266,-0.400592,0.0,0.0
195,48.5,60.8813,63.2071,150.836,110.4,115.38,0.00154368,0.173276,20.7913,597.256,-0.398808,0.0,0.0
198,49.25,60.6147,62.9676,150.545,110.385,115.134,0.00146435,0.168657,20.7979,597.246,-0.380767,0.0,0.0
201,50,60.4752,62.6934,154.6,110.349,115.676,0.00139902,0.164165,20.8039,597.226,-0.42624,0.0,0.0
204,50.75,59.9701,62.643,151.188,110.319,115.164,0.00134425,0.160412,20.8095,597.236,-0.388553,0.0,0.0
207,51.5,60.1317,63.1867,152.017,110.289,115.377,0.00129757,0.156056,20.8154,597.216,-0.407717,0.0,0.0
210,52.25,59.8773,62.4007,151.084,110.278,115.407,0.0012582,0.152087,20.8204,597.166,-0.410925,0.0,0.0
213,53,59.249,62.2542,156.243,110.253,115.208,0.00123699,0.148855,20.8241,597.156,-0.397417,0.0,0.0
216,53.75,59.4976,62.1715,153.853,110.214,115.854,0.00122473,0.145662,20.827,597.146,-0.451139,0.0,0.0
219,54.5,59.2091,62.2945,150.612,110.173,116.036,0.00124704,0.142865,20.8295,597.146,-0.468752,0.0,0.0
222,55.25,58.8942,61.9417,153.778,110.159,115.574,0.00129507,0.140341,20.8323,597.156,-0.433838,0.0,0.0
225,56,58.891,62.1418,153.313,110.139,115.616,0.00136161,0.138014,20.8346,597.146,-0.438683,0.0,0.0
228,56.75,58.9766,61.9083,147.791,110.142,115.994,0.00141012,0.135733,20.8372,597.096,-0.467951,0.0,0.0
231,57.5,58.6981,61.8203,150.629,110.136,115.422,0.00152768,0.133821,20.8395,597.116,-0.423783,0.0,0.0
234,58.25,58.7722,61.5723,153.882,110.142,115.83,0.00162843,0.131803,20.8422,597.106,-0.45521,0.0,0.0
237,59,58.5256,61.2402,151.91,110.165,115.656,0.00170829,0.129997,20.8445,597.066,-0.439697,0.0,0.0
240,59.75,57.7457,61.3631,154.062,110.168,114.777,0.00176651,0.128537,20.8464,597.076,-0.37045,0.0,0.0
243,60.5,58.1754,61.0897,154.335,110.17,115.067,0.00180236,0.12712,20.8485,597.046,-0.393135,0.0,0.0
246,61.25,57.8108,61.1134,152.984,110.181,115.492,0.0018172,0.125485,20.8502,597.046,-0.425571,0.0,0.0
249,62,57.7782,60.9859,153.757,110.193,115.711,0.0018042,0.123973,20.8518,597.066,-0.441715,0.0,0.0
252,62.75,57.8551,60.6366,150.634,110.201,116.511,0.00178457,0.122559,20.853,597.046,-0.5033,0.0,0.0
255,63.5,57.3946,60.7029,149.866,110.205,115.138,0.00172918,0.121227,20.8544,597.016,-0.395824,0.0,0.0
258,64.25,57.5516,60.7243,154.391,110.221,115.71,0.0016575,0.119806,20.8562,596.976,-0.439269,0.0,0.0
261,65,57.1779,60.4319,155.011,110.238,114.857,0.00158072,0.118579,20.8579,596.956,-0.371039,0.0,0.0
264,65.75,56.7005,60.1592,150.266,110.249,115.925,0.00150562,0.117126,20.8596,596.956,-0.45383,0.0,0.0
267,66.5,56.6475,60.0203,152.324,110.255,116.022,0.00144336,0.115864,20.8612,596.986,-0.460926,0.0,0.0
270,67.25,56.1782,60.5863,153.171,110.273,116.1,0.00139478,0.114857,20.8624,596.976,-0.465505,0.0,0.0
273,68,56.4147,60.1893,153.548,110.291,116.033,0.0013665,0.113959,20.8633,596.936,-0.458775,0.0,0.0
276,68.75,56.3154,59.8689,153.68,110.305,115.755,0.00135575,0.113144,20.8645,596.936,-0.435959,0.0,0.0
279,69.5,56.2939,59.8876,149.744,110.303,115.763,0.0013648,0.112482,20.8654,596.906,-0.436733,0.0,0.0
282,70.25,56.2654,59.3465,154.084,110.315,116.155,0.00138641,0.11167,20.8667,596.926,-0.466303,0.0,0.0
285,71,56.0872,59.6964,153.021,110.337,115.065,0.00141384,0.11091,20.8677,596.936,-0.379322,0.0,0.0
288,71.75,55.7229,59.7285,151.173,110.354,116.35,0.00144284,0.11007,20.8686,596.916,-0.478326,0.0,0.0
291,72.5,55.7777,59.6645,148.806,110.359,116.698,0.00147399,0.109306,20.8697,596.916,-0.504876,0.0,0.0
294,73.25,55.7394,59.2884,153.398,110.364,116.473,0.00150032,0.108489,20.8711,596.896,-0.486994,0.0,0.0
297,74,55.5236,59.3545,153.497,110.383,116.062,0.00151838,0.107667,20.8721,596.896,-0.45351,0.0,0.0
300,74.75,55.7256,59.2854,155.012,110.4,116.028,0.00152084,0.106923,20.8729,596.916,-0.449528,0.0,0.0
303,75.5,55.0693,58.918,152.542,110.407,115.67,0.00151011,0.106167,20.8741,596.916,-0.420936,0.0,0.0
306,76.25,55.2054,58.9855,152.873,110.409,115.401,0.0014809,0.105357,20.8752,596.886,-0.399706,0.0,0.0
309,77,55.0711,58.9349,154.228,110.431,116.748,0.00143247,0.104273,20.8767,596.866,-0.502804,0.0,0.0
312,77.75,55.2003,58.7051,157.94,110.457,115.995,0.00141107,0.10327,20.8777,596.856,-0.442288,0.0,0.0
315,78.5,54.874,58.8944,154.64,110.46,115.345,0.00138551,0.102177,20.879,596.856,-0.391138,0.0,0.0
318,79.25,54.6938,58.3384,151.484,110.465,116.808,0.00137062,0.101106,20.8804,596.846,-0.504745,0.0,0.0
321,80,54.5868,58.4835,153.777,110.483,116.856,0.00136137,0.0998165,20.8815,596.846,-0.506972,0.0,0.0
324,80.75,54.8476,57.9294,152.883,110.502,115.556,0.00135726,0.0991451,20.8822,596.846,-0.404281,0.0,0.0
327,81.5,54.6022,58.1921,158.784,110.516,115.057,0.00135876,0.0981971,20.8835,596.826,-0.364034,0.0,0.0
330,82.25,54.6146,58.2209,154.851,110.506,116.104,0.00134738,0.0973114,20.8848,596.806,-0.446658,0.0,0.0
333,83,54.502,58.0864,153.512,110.515,115.713,0.00133907,0.096459,20.8864,596.826,-0.415448,0.0,0.0
336,83.75,54.4672,57.9013,151.813,110.552,115.858,0.00130806,0.0958376,20.8877,596.796,-0.42381,0.0,0.0
339,84.5,54.0018,57.5266,153.356,110.551,115.808,0.0012817,0.0949971,20.8891,596.786,-0.41994,0.0,0.0
342,85.25,53.8053,57.0105,150.99,110.557,116.311,0.00126214,0.0942192,20.8901,596.766,-0.458618,0.0,0.0
345,86,53.9656,57.8925,153.426,110.582,116.443,0.00124907,0.0933248,20.8909,596.746,-0.466877,0.0,0.0
348,86.75,54.1561,57.4155,152.596,110.621,115.775,0.00124066,0.0925438,20.8914,596.736,-0.411685,0.0,0.0
351,87.5,53.5466,57.3886,152.132,110.614,115.836,0.0012381,0.0918893,20.8918,596.746,-0.41704,0.0,0.0
354,88.25,53.8901,57.5523,152.995,110.611,115.839,0.00124123,0.0913606,20.8921,596.786,-0.417454,0.0,0.0
357,89,53.6326,57.0157,153.518,110.628,116.442,0.00124564,0.0908321,20.8925,596.766,-0.463033,0.0,0.0
360,89.75,53.5665,57.1135,154.27,110.65,115.609,0.00123636,0.0903179,20.8933,596.746,-0.396339,0.0,0.0
363,90.5,53.3273,57.0494,152.204,110.667,115.823,0.00122427,0.0897976,20.8938,596.746,-0.411673,0.0,0.0
366,91.25,53.0133,56.9748,154.907,110.664,115.638,0.00120296,0.0892637,20.8942,596.766,-0.397431,0.0,0.0
369,92,53.4012,56.4616,152.293,110.7,115.76,0.00117836,0.088674,20.8945,596.716,-0.404025,0.0,0.0
372,92.75,53.1052,57.0679,154.17,110.693,116.802,0.00115882,0.0881588,20.8947,596.726,-0.485622,0.0,0.0
375,93.5,52.8889,56.7466,151.024,110.716,115.559,0.00113567,0.0876114,20.8948,596.736,-0.387032,0.0,0.0
378,94.25,52.7565,56.7964,156.389,110.737,116.192,0.00110756,0.0870715,20.8956,596.716,-0.434682,0.0,0.0
381,95,52.9769,56.9489,152.224,110.725,116.783,0.00107767,0.086562,20.8961,596.716,-0.48153,0.0,0.0
384,95.75,53.3285,56.5143,153.481,110.745,116.062,0.00104802,0.0859663,20.8965,596.696,-0.423912,0.0,0.0
387,96.5,52.9573,56.1531,153.823,110.769,116.927,0.00100894,0.0854944,20.8968,596.666,-0.489134,0.0,0.0
390,97.25,52.6763,56.4751,154.412,110.767,115.315,0.000965121,0.085086,20.897,596.656,-0.363708,0.0,0.0
393,98,52.8887,56.1534,152.725,110.778,117.017,0.000919707,0.0847068,20.8974,596.676,-0.495331,0.0,0.0
396,98.75,52.4608,56.5317,157.583,110.787,116.44,0.000872885,0.0842732,20.898,596.636,-0.449853,0.0,0.0
399,99.5,52.6182,56.24,154.039,110.803,116.389,0.000823722,0.0838901,20.899,596.656,-0.444624,0.0,0.0
402,100.25,52.3889,56.135,149.865,110.822,116.42,0.000772179,0.0834885,20.8999,596.646,-0.445462,0.0,0.0
405,101,52.2151,56.2869,152.788,110.819,116.902,0.000719656,0.0831357,20.9005,596.656,-0.483098,0.0,0.0
408,101.75,52.3119,55.7066,153.417,110.838,116.441,0.000676304,0.0827756,20.901,596.656,-0.44585,0.0,0.0
411,102.5,52.021,56.1203,152.148,110.868,115.889,0.000646943,0.0824724,20.9013,596.636,-0.400384,0.0,0.0
414,103.25,52.1425,55.6047,152.986,110.874,116.088,0.000625538,0.08218,20.9015,596.626,-0.415481,0.0,0.0
417,104,52.5491,55.4613,148.505,110.899,117.273,0.000632362,0.0819364,20.9017,596.636,-0.505211,0.0,0.0
420,104.75,51.7247,55.81,150.502,110.895,116.761,0.000644929,0.0816773,20.9012,596.606,-0.465965,0.0,0.0
423,105.5,51.9756,55.6174,155.541,110.916,115.964,0.000650726,0.0813743,20.9009,596.606,-0.402322,0.0,0.0
426,106.25,51.8674,55.9405,150.909,110.923,116.721,0.00063718,0.0811047,20.9008,596.626,-0.4606,0.0,0.0
429,107,51.94,55.7131,150.711,110.929,115.712,0.000613604,0.0808556,20.9012,596.616,-0.381587,0.0,0.0
432,107.75,51.6651,55.5242,157.166,110.933,116.723,0.000576881,0.0805841,20.9015,596.606,-0.459959,0.0,0.0
435,108.5,52.1306,55.4572,152.792,110.948,117.596,0.000544271,0.0803048,20.9017,596.596,-0.526112,0.0,0.0
438,109.25,51.8989,54.8993,153.739,110.971,116.418,0.000518722,0.0799871,20.9018,596.546,-0.433134,0.0,0.0
441,110,52.0684,55.2519,156.248,110.969,115.695,0.000500097,0.0796693,20.9019,596.556,-0.377035,0.0,0.0
444,110.75,51.4378,55.3454,155.746,110.981,115.793,0.000513158,0.0793734,20.902,596.576,-0.383683,0.0,0.0
447,111.5,51.5328,55.4578,153.139,110.979,116.447,0.000518092,0.0791007,20.9021,596.576,-0.434797,0.0,0.0
450,112.25,51.5229,55.2393,151.714,110.995,115.859,0.000513843,0.0788776,20.9023,596.576,-0.387731,0.0,0.0
453,113,51.2894,54.9824,157.016,110.999,116.959,0.000489439,0.0786539,20.9029,596.546,-0.47274,0.0,0.0
456,113.75,51.6164,54.9447,150.172,110.991,116.552,0.000471726,0.0784233,20.9032,596.556,-0.441945,0.0,0.0
459,114.5,51.6629,54.567,153.175,111.009,117.33,0.000444536,0.0781398,20.9036,596.506,-0.500626,0.0,0.0
462,115.25,51.0425,54.7618,156.496,111.026,116.493,0.000422939,0.0778191,20.9041,596.506,-0.434512,0.0,0.0
465,116,51.669,54.63,151.356,111.027,116.59,0.000416069,0.0774617,20.9048,596.526,-0.441967,0.0,0.0
468,116.75,51.1513,54.7196,151.603,111.038,116.846,0.000411061,0.0771891,20.9054,596.536,-0.460882,0.0,0.0
471,117.5,50.5767,54.5961,153.446,111.034,116.765,0.000413633,0.0767888,20.9058,596.526,-0.454945,0.0,0.0
474,118.25,50.8501,54.8821,154.396,111.052,116.185,0.000413576,0.076375,20.9067,596.486,-0.408492,0.0,0.0
477,119,51.3332,54.1187,154.796,111.058,116.346,0.000405694,0.076037,20.9074,596.476,-0.420486,0.0,0.0
480,119.75,51.2722,53.9234,155.958,111.044,116.63,0.000382431,0.0756078,20.908,596.466,-0.443693,0.0,0.0
483,120.5,51.1673,54.328,153.168,111.043,116.369,0.000368351,0.0752575,20.9082,596.476,-0.42352,0.0,0.0
486,121.25,50.907,54.3701,154.04,111.068,116.762,0.000347882,0.074938,20.9085,596.456,-0.451973,0.0,0.0
489,122,50.6932,54.4033,148.615,111.066,116.842,0.000335448,0.0747621,20.9087,596.446,-0.458336,0.0,0.0
492,122.75,51.2467,54.3565,157.604,111.054,115.646,0.000332683,0.0745926,20.9088,596.436,-0.366274,0.0,0.0
495,123.5,50.9564,54.2761,152.777,111.066,116.435,0.000339624,0.0744808,20.9089,596.406,-0.426752,0.0,0.0
498,124.25,50.793,54.3342,151.868,111.072,116.803,0.000353394,0.0742376,20.909,596.436,-0.454779,0.0,0.0
501,125,51.0049,53.8121,153.793,111.073,116.042,0.000367147,0.0739744,20.909,596.436,-0.395692,0.0,0.0
504,125.75,50.9719,53.7644,154.317,111.056,116.644,0.000371847,0.0737185,20.9091,596.446,-0.443778,0.0,0.0
507,126.5,51.1525,53.9311,150.711,111.061,117.015,0.000375274,0.0734893,20.9096,596.406,-0.472027,0.0,0.0
510,127.25,50.9441,53.4677,152.92,111.065,115.011,0.000374222,0.073304,20.9102,596.396,-0.315588,0.0,0.0
513,128,50.5335,53.717,155.097,111.075,116.399,0.000377189,0.0729863,20.9107,596.386,-0.423243,0.0,0.0
516,128.75,50.3766,53.7593,154.029,111.072,116.586,0.000384873,0.072641,20.9111,596.416,-0.437974,0.0,0.0
519,129.5,50.3992,53.7579,153.454,111.059,116.491,0.000397195,0.0723407,20.9114,596.426,-0.431682,0.0,0.0
522,130.25,50.914,54.1398,155.105,111.078,117.184,0.000415121,0.0720919,20.9116,596.396,-0.483694,0.0,0.0
525,131,50.7754,53.4952,152.11,111.085,117.152,0.00042819,0.0718219,20.9119,596.396,-0.480696,0.0,0.0
528,131.75,50.6899,53.537,154.459,111.071,116.475,0.000446596,0.0715611,20.9122,596.406,-0.429418,0.0,0.0
531,132.5,50.3375,53.6995,150.62,111.065,116.723,0.000458703,0.0712999,20.9129,596.366,-0.449134,0.0,0.0
534,133.25,50.6451,53.3667,151.975,111.076,116.692,0.000465288,0.0710792,20.9136,596.376,-0.445805,0.0,0.0
537,134,50.3713,53.4851,152.271,111.084,115.969,0.000468843,0.0708389,20.9141,596.366,-0.389005,0.0,0.0
540,134.75,50.5963,53.611,154.882,111.07,116.46,0.000469593,0.0706637,20.9144,596.336,-0.428427,0.0,0.0
543,135.5,50.5211,53.1698,153.474,111.058,116.818,0.0004679,0.0703739,20.9147,596.336,-0.457107,0.0,0.0
546,136.25,50.0527,53.5426,155.264,111.061,116.535,0.000462055,0.0701057,20.9148,596.326,-0.434916,0.0,0.0
549,137,50.5974,53.3012,154.311,111.068,116.633,0.000452682,0.069886,20.915,596.326,-0.441981,0.0,0.0
552,137.75,50.3885,52.8657,149.113,111.062,116.482,0.000441367,0.0695435,20.9151,596.316,-0.430727,0.0,0.0
555,138.5,50.3225,53.2438,152.108,111.053,116.164,0.000424409,0.0692229,20.9152,596.336,-0.406731,0.0,0.0
558,139.25,50.3605,53.2772,154.303,111.052,116.457,0.000404404,0.0690377,20.9157,596.326,-0.42963,0.0,0.0
561,140,50.3774,53.1014,156.538,111.045,116.926,0.000383101,0.0686821,20.9162,596.316,-0.466448,0.0,0.0
564,140.75,50.0778,53.1716,150.661,111.056,116.397,0.00036231,0.0683556,20.9166,596.306,-0.424637,0.0,0.0
567,141.5,49.8825,52.9336,153.971,111.049,116.038,0.000338157,0.0680026,20.9167,596.306,-0.397213,0.0,0.0
570,142.25,49.9531,53.1025,159.104,111.034,116.178,0.000318776,0.0676238,20.9168,596.296,-0.409383,0.0,0.0
573,143,49.5826,53.6047,154.194,111.044,116.562,0.000308377,0.0673029,20.9168,596.255,-0.43844,0.0,0.0
576,143.75,50.0056,52.9127,155.064,111.05,117.027,0.000302388,0.0669923,20.9168,596.286,-0.473905,0.0,0.0
579,144.5,50.0006,53.0649,156.864,111.027,117.151,0.00030157,0.0666429,20.9168,596.286,-0.485345,0.0,0.0
582,145.25,49.8062,52.8962,153.765,111.018,117.205,0.000302282,0.0663508,20.9175,596.276,-0.490241,0.0,0.0
585,146,49.8794,52.8289,155.838,111.021,115.996,0.00030504,0.0660741,20.9181,596.296,-0.396288,0.0,0.0
588,146.75,50.0207,52.7305,155.995,111.024,116.562,0.000303503,0.0659128,20.9191,596.266,-0.440024,0.0,0.0
591,147.5,49.8226,52.3353,157.643,111.01,116.531,0.000301139,0.0657878,20.9197,596.286,-0.438713,0.0,0.0
594,148.25,49.5985,52.737,152.328,111.003,116.303,0.000300848,0.0656838,20.9202,596.266,-0.421583,0.0,0.0
597,149,49.8453,52.7662,156.597,111.002,116.056,0.000303055,0.0654663,20.9204,596.266,-0.402527,0.0,0.0
600,149.75,49.4314,52.3072,151.103,111.006,116.143,0.000305603,0.0652323,20.9207,596.245,-0.408941,0.0,0.0
603,150.5,49.4763,52.3131,150.907,110.998,116.939,0.000295044,0.0650362,20.9209,596.266,-0.471363,0.0,0.0
606,151.25,49.6841,52.5698,154.31,110.982,116.076,0.00027426,0.0648528,20.9216,596.266,-0.40565,0.0,0.0
609,152,49.482,52.6404,156.542,110.977,117.024,0.00023673,0.0647292,20.9223,596.226,-0.479624,0.0,0.0
612,152.75,49.9347,52.178,152.42,110.982,116.639,0.000185666,0.0645481,20.9229,596.255,-0.44945,0.0,0.0
615,153.5,49.8124,52.6617,150.898,110.977,116.539,0.000127849,0.0644161,20.9239,596.226,-0.442123,0.0,0.0
618,154.25,49.8611,52.0851,155.012,110.956,116.986,8.96051e-05,0.0642188,20.9244,596.266,-0.478426,0.0,0.0
621,155,49.4743,52.3844,153.821,110.958,116.331,4.41142e-05,0.0640451,20.9249,596.276,-0.427461,0.0,0.0
624,155.75,49.4633,52.3913,155.257,110.971,116.839,8.71628e-06,0.0638196,20.9254,596.266,-0.465821,0.0,0.0
627,156.5,49.4991,52.089,155.721,110.957,116.166,-2.24027e-05,0.0635756,20.9256,596.226,-0.414715,0.0,0.0
630,157.25,49.4475,52.3307,151.903,110.943,115.543,-4.13628e-05,0.0634127,20.9259,596.205,-0.367301,0.0,0.0
633,158,49.852,52.2076,154.626,110.928,115.351,-4.64065e-05,0.0632649,20.926,596.216,-0.353443,0.0,0.0
636,158.75,49.3539,52.3047,152.115,110.941,116.442,-3.77887e-05,0.0631289,20.9261,596.216,-0.437513,0.0,0.0
639,159.5,49.2646,52.648,153.991,110.931,115.819,7.94449e-07,0.0629654,20.9265,596.216,-0.38985,0.0,0.0
642,160.25,49.4226,52.249,151.88,110.925,116.736,5.51252e-05,0.062757,20.9271,596.205,-0.461552,0.0,0.0
645,161,49.3968,52.3221,153.171,110.908,115.62,0.000115993,0.0624839,20.9276,596.216,-0.376088,0.0,0.0
648,161.75,49.5269,52.2245,153.338,110.905,116.777,0.000180271,0.0622698,20.9279,596.216,-0.466349,0.0,0.0
651,162.5,49.3422,52.0028,153.952,110.899,116.74,0.000238235,0.0620883,20.9281,596.205,-0.463996,0.0,0.0
654,163.25,49.025,52.1368,157.063,110.887,115.996,0.00028497,0.0619277,20.9283,596.195,-0.407192,0.0,0.0
657,164,48.8825,51.7628,152.701,110.873,116.851,0.000307841,0.0617985,20.9284,596.175,-0.474777,0.0,0.0
660,164.75,49.1324,52.1452,152.129,110.88,116.957,0.000313193,0.0617043,20.9285,596.165,-0.482371,0.0,0.0
663,165.5,49.5859,51.8404,153.093,110.884,116.332,0.000305898,0.0615347,20.9286,596.185,-0.433609,0.0,0.0
666,166.25,49.0563,52.017,150.961,110.888,115.981,0.000303068,0.0613588,20.9287,596.155,-0.405974,0.0,0.0
669,167,48.9573,51.8404,153.946,110.868,116.284,0.000310578,0.0611415,20.9287,596.165,-0.43114,0.0,0.0
672,167.75,49.3669,51.5815,154.815,110.874,116.68,0.000330609,0.0609426,20.9294,596.155,-0.461361,0.0,0.0
675,168.5,49.3057,51.8572,155.683,110.874,116.559,0.000364738,0.0607828,20.9298,596.155,-0.452029,0.0,0.0
678,169.25,49.026,51.9748,155.663,110.862,116.605,0.000389619,0.0606407,20.9302,596.135,-0.456573,0.0,0.0
681,170,49.3012,51.5728,151.568,110.861,116.25,0.000407757,0.0605089,20.9304,596.105,-0.429044,0.0,0.0
684,170.75,49.2013,51.5062,153.105,110.855,116.677,0.000397902,0.0603858,20.9306,596.115,-0.462679,0.0,0.0
687,171.5,49.045,51.8799,155.515,110.868,115.441,0.00035685,0.0602706,20.9308,596.095,-0.365373,0.0,0.0
690,172.25,49.2263,51.8454,156.436,110.843,114.692,0.000337222,0.0601463,20.9311,596.115,-0.308562,0.0,0.0
693,173,48.9502,51.7122,154.372,110.82,116.572,0.000314546,0.0599849,20.9317,596.075,-0.457454,0.0,0.0
696,173.75,48.9761,51.7904,154.25,110.802,116.076,0.000237745,0.0598147,20.9321,596.105,-0.42039,0.0,0.0
699,174.5,48.5805,51.6459,152.053,110.811,116.241,0.000170646,0.0596088,20.9323,596.065,-0.432456,0.0,0.0
702,175.25,49.0727,51.3838,149.337,110.809,116.358,7.98833e-05,0.0595341,20.9324,596.085,-0.441758,0.0,0.0
705,176,49.0817,51.4196,153.443,110.789,115.658,4.08175e-05,0.0594337,20.9325,596.095,-0.388736,0.0,0.0
708,176.75,48.8544,51.3741,156.627,110.809,116.211,-4.31572e-06,0.0593545,20.9326,596.095,-0.430283,0.0,0.0
711,177.5,49.4255,51.408,152.7,110.801,115.543,-3.72179e-05,0.0591695,20.9327,596.075,-0.37882,0.0,0.0
714,178.25,48.9982,51.1791,156.751,110.793,115.989,-5.76606e-05,0.0589152,20.9327,596.085,-0.414261,0.0,0.0
717,179,49.0182,51.3653,152.267,110.779,117.023,-7.07914e-05,0.0588167,20.9327,596.095,-0.495653,0.0,0.0
720,179.75,48.5795,51.5504,152.729,110.773,115.818,-8.03638e-05,0.058703,20.9327,596.075,-0.40267,0.0,0.0
723,180.5,49.0799,51.421,153.569,110.759,116.746,-8.20281e-05,0.0585493,20.9328,596.095,-0.475924,0.0,0.0
726,181.25,49.0889,51.2128,155.606,110.757,116.584,-8.38953e-05,0.0583699,20.9328,596.105,-0.463531,0.0,0.0
729,182,48.8533,51.5662,150.027,110.755,116.082,-8.63746e-05,0.0581755,20.9328,596.055,-0.424619,0.0,0.0
732,182.75,48.9974,51.2518,151.344,110.728,115.783,-7.74907e-05,0.0579914,20.9328,596.065,-0.403523,0.0,0.0
735,183.5,49.133,51.3226,156.831,110.737,116.307,-6.23208e-05,0.057839,20.9331,596.065,-0.443683,0.0,0.0
738,184.25,48.7982,51.228,153.934,110.735,116.413,-4.75557e-05,0.0576272,20.9339,596.065,-0.452038,0.0,0.0
741,185,48.3662,50.9331,153.117,110.731,116.616,-4.37348e-05,0.0574444,20.9343,596.055,-0.468095,0.0,0.0
744,185.75,49.0888,51.1241,155.087,110.713,116.491,-4.92556e-05,0.0572992,20.9347,596.045,-0.459931,0.0,0.0
747,186.5,48.1862,51.4183,152.642,110.721,116.805,-5.97378e-05,0.057094,20.9352,596.035,-0.483615,0.0,0.0
750,187.25,48.41,50.938,152.922,110.726,115.969,-7.75571e-05,0.0568314,20.9354,596.025,-0.418259,0.0,0.0
753,188,48.7636,50.978,155.852,110.712,116.083,-8.66647e-05,0.0566633,20.9355,596.055,-0.428281,0.0,0.0
756,188.75,48.9565,50.6747,153.657,110.698,116.659,-9.71867e-05,0.0564491,20.9363,596.045,-0.474104,0.0,0.0
759,189.5,48.8288,50.9096,157.401,110.693,116.296,-0.000110171,0.0561904,20.9368,596.035,-0.446324,0.0,0.0
762,190.25,48.9769,50.812,154.678,110.697,116.256,-0.000129572,0.0560215,20.9372,596.045,-0.442968,0.0,0.0
765,191,48.8271,51.1581,154.475,110.7,115.63,-0.000153834,0.0559084,20.9375,596.045,-0.393907,0.0,0.0
768,191.75,48.649,50.9849,153.818,110.687,116.268,-0.00018158,0.0557637,20.9384,596.045,-0.444704,0.0,0.0
771,192.5,48.7372,51.4667,150.75,110.695,115.896,-0.000221293,0.0556001,20.939,596.025,-0.415038,0.0,0.0
774,193.25,48.6817,50.9486,153.441,110.693,115.881,-0.000250244,0.0553918,20.9394,596.015,-0.414033,0.0,0.0
777,194,47.4831,49.2959,149.734,110.681,116.152,-0.000281327,0.055127,20.9398,596.015,-0.436167,0.0,0.0
780,194.75,47.2279,49.27,154.547,110.663,115.203,-0.000301704,0.054804,20.94,596.015,-0.363445,0.0,0.0
783,195.5,47.1513,49.4108,152.117,110.649,116.086,-0.000305382,0.0544288,20.9401,596.015,-0.433619,0.0,0.0
786,196.25,46.9422,49.1752,155.504,110.657,115.422,-0.000299566,0.0539283,20.94,595.985,-0.381119,0.0,0.0
789,197,47.0035,48.9786,154.147,110.654,115.766,-0.000280796,0.0534667,20.9405,595.975,-0.408262,0.0,0.0
792,197.75,46.6632,49.5065,155.525,110.633,115.729,-0.000277741,0.0530296,20.9408,595.985,-0.407114,0.0,0.0
795,198.5,46.8982,49.3709,156.391,110.618,115.871,-0.000295384,0.0527109,20.9411,595.975,-0.419364,0.0,0.0
798,199.25,46.8601,49.4303,153.889,110.614,115.661,-0.00032979,0.0523798,20.9413,596.005,-0.403303,0.0,0.0
801,200,46.9953,49.0051,151.776,110.62,115.193,-0.000377225,0.052089,20.9414,595.995,-0.366198,0.0,0.0
804,200.75,46.6799,49.0065,152.89,110.609,115.379,-0.00041965,0.0518642,20.9415,596.005,-0.381734,0.0,0.0
807,201.5,47.1472,49.1192,153.566,110.589,116.352,-0.00046399,0.0517205,20.9416,596.005,-0.459232,0.0,0.0
810,202.25,46.4987,49.1747,156.093,110.597,115.759,-0.0004786,0.0515593,20.9417,595.975,-0.412377,0.0,0.0
813,203,47.203,49.0416,155.723,110.599,115.885,-0.000475525,0.0514177,20.9417,595.965,-0.421986,0.0,0.0
816,203.75,46.751,49.4099,154.746,110.586,115.922,-0.000449811,0.0512743,20.9417,595.945,-0.42599,0.0,0.0
819,204.5,47.4034,49.1861,153.291,110.555,115.653,-0.000392096,0.0510992,20.9417,595.985,-0.407527,0.0,0.0
822,205.25,47.0422,49.2271,152.13,110.553,116.125,-0.000325184,0.0509415,20.9418,595.975,-0.444509,0.0,0.0
825,206,46.8104,49.0692,153.249,110.559,116.189,-0.000265816,0.0508064,20.9418,595.965,-0.448997,0.0,0.0
828,206.75,47.256,48.7183,152.96,110.55,115.798,-0.000210138,0.050722,20.9418,595.935,-0.419219,0.0,0.0
831,207.5,46.8221,48.4859,156.974,110.541,115.314,-0.000169549,0.0506665,20.9418,595.935,-0.382088,0.0,0.0
834,208.25,47.1081,48.9783,153.115,110.514,115.279,-0.000150587,0.0505456,20.9418,595.955,-0.381603,0.0,0.0
837,209,46.9493,48.9038,155.689,110.516,116.054,-0.000135522,0.0504293,20.9418,595.965,-0.442001,0.0,0.0
840,209.75,46.8239,49.0347,154.108,110.51,115.892,-0.000122703,0.0503324,20.9418,595.945,-0.429895,0.0,0.0
843,210.5,46.4253,49.4356,152.182,110.495,116.049,-0.000111123,0.0502417,20.9418,595.925,-0.44335,0.0,0.0
846,211.25,47.0577,48.97,154.39,110.489,115.834,-0.000111537,0.0501756,20.9418,595.915,-0.427101,0.0,0.0
849,212,46.8969,49.118,155.902,110.501,115.889,-0.000121775,0.0501274,20.9418,595.905,-0.430308,0.0,0.0
852,212.75,46.6894,48.7538,151.56,110.501,116.005,-0.00014197,0.0500922,20.9418,595.915,-0.439448,0.0,0.0
855,213.5,46.8348,48.8375,152.264,110.478,116.023,-0.000171223,0.0500384,20.9418,595.915,-0.442716,0.0,0.0
858,214.25,46.6816,48.6919,159.2,110.474,115.627,-0.000192549,0.0499871,20.9418,595.915,-0.412104,0.0,0.0
861,215,46.2065,48.6479,158.549,110.48,115.357,-0.000243521,0.0499297,20.9422,595.925,-0.390533,0.0,0.0
864,215.75,46.7761,48.6169,155.601,110.481,115.226,-0.000276955,0.0498073,20.9428,595.945,-0.380193,0.0,0.0
867,216.5,46.4521,49.0026,154.082,110.472,114.859,-0.000299739,0.0497182,20.9431,595.925,-0.351994,0.0,0.0
870,217.25,46.7008,48.5492,154.328,110.465,115.896,-0.000298636,0.0496732,20.9434,595.915,-0.433873,0.0,0.0
873,218,46.654,49.1306,156.391,110.47,115.862,-0.000298485,0.0496405,20.9436,595.905,-0.430791,0.0,0.0
876,218.75,46.8968,48.9786,152.992,110.471,115.976,-0.000299765,0.0496167,20.9433,595.895,-0.439555,0.0,0.0
879,219.5,46.7995,48.6253,154.388,110.457,116.46,-0.00031853,0.0496415,20.943,595.895,-0.478431,0.0,0.0
882,220.25,46.2384,49.2251,151.166,110.462,115.601,-0.000363703,0.0496777,20.9432,595.905,-0.411067,0.0,0.0
885,221,46.7382,48.3046,157.522,110.462,115.526,-0.000426746,0.0496438,20.9434,595.905,-0.405209,0.0,0.0
888,221.75,46.1042,48.9445,155.683,110.486,114.915,-0.000472705,0.0496124,20.9435,595.885,-0.355291,0.0,0.0
891,222.5,46.4031,48.4349,155.163,110.466,115.599,-0.000545179,0.0495446,20.9442,595.845,-0.410582,0.0,0.0
894,223.25,46.9104,48.7075,153.22,110.459,115.391,-0.000614158,0.0494522,20.9447,595.885,-0.394853,0.0,0.0
897,224,46.423,48.7546,157.642,110.472,114.981,-0.000669365,0.0493788,20.9451,595.855,-0.36166,0.0,0.0
900,224.75,46.4694,48.741,155.198,110.481,115.346,-0.000706257,0.0492851,20.9454,595.845,-0.389514,0.0,0.0
903,225.5,46.5014,48.1297,156.218,110.481,115.455,-0.000706582,0.0492094,20.9456,595.855,-0.398109,0.0,0.0
906,226.25,45.9145,48.5306,152.227,110.478,115.536,-0.000689432,0.0491415,20.9457,595.865,-0.404693,0.0,0.0
909,227,46.7239,48.8781,152.855,110.49,116.597,-0.000669518,0.0490317,20.9458,595.845,-0.486343,0.0,0.0
912,227.75,46.7232,48.6585,153.488,110.479,116.127,-0.000633744,0.0489442,20.9459,595.855,-0.450755,0.0,0.0
915,228.5,46.128,48.841,153.273,110.487,116.819,-0.000607665,0.0488678,20.946,595.845,-0.50379,0.0,0.0
918,229.25,46.6878,48.7476,152.297,110.483,115.115,-0.000572711,0.0488121,20.946,595.815,-0.371244,0.0,0.0
921,230,46.1648,48.8538,154.574,110.478,115.028,-0.000541021,0.0487433,20.946,595.825,-0.364886,0.0,0.0
924,230.75,46.285,47.9482,155.708,110.495,115.64,-0.000516578,0.0486811,20.9461,595.815,-0.411425,0.0,0.0
927,231.5,46.5578,48.3015,153.1,110.504,115.885,-0.000505653,0.0486559,20.9461,595.805,-0.42985,0.0,0.0
930,232.25,46.5733,48.1955,155.752,110.489,115.289,-0.000497998,0.0486226,20.9461,595.785,-0.384386,0.0,0.0
933,233,46.5704,48.2586,152.12,110.494,116.205,-0.000493882,0.048573,20.9461,595.775,-0.455546,0.0,0.0
936,233.75,46.4501,48.8986,156.58,110.523,115.407,-0.000489764,0.0485168,20.9461,595.805,-0.390904,0.0,0.0
939,234.5,46.5418,48.41,157.322,110.507,115.081,-0.000479676,0.0484609,20.9461,595.795,-0.366625,0.0,0.0
942,235.25,46.0213,48.6538,152.394,110.498,116.324,-0.000472321,0.0484146,20.9461,595.785,-0.464495,0.0,0.0
945,236,46.2229,48.7454,155.674,110.531,115.416,-0.000449246,0.0484214,20.9461,595.735,-0.391001,0.0,0.0
948,236.75,46.7773,48.4578,155.938,110.517,116.02,-0.000431443,0.0484122,20.9461,595.745,-0.439289,0.0,0.0
951,237.5,46.3861,48.1542,156.904,110.522,115.287,-0.000425516,0.0483996,20.9461,595.785,-0.381585,0.0,0.0
954,238.25,46.0817,48.4921,152.311,110.52,116.229,-0.000443468,0.0483199,20.9461,595.775,-0.455292,0.0,0.0
957,239,46.3464,48.3814,153.729,110.518,115.982,-0.000466489,0.0482317,20.9463,595.715,-0.436222,0.0,0.0
960,239.75,46.9528,48.654,153.087,110.528,115.657,-0.000489468,0.0481247,20.9469,595.755,-0.410087,0.0,0.0
963,240.5,45.8465,48.0219,156.136,110.559,116.085,-0.000509573,0.0481,20.9473,595.715,-0.440964,0.0,0.0
966,241.25,46.2501,48.3093,153.953,110.56,116.318,-0.000517144,0.0480418,20.9476,595.745,-0.458951,0.0,0.0
969,242,45.8439,48.6564,158.463,110.54,114.887,-0.000522664,0.0479486,20.9478,595.755,-0.348642,0.0,0.0
972,242.75,46.8707,48.5676,153.848,110.559,116.25,-0.000512307,0.0478807,20.948,595.755,-0.453792,0.0,0.0
975,243.5,46.5228,48.6414,156.564,110.551,115.731,-0.000480168,0.0478386,20.9481,595.715,-0.414011,0.0,0.0
978,244.25,45.9923,48.1046,151.962,110.544,116.497,-0.000447882,0.0478206,20.9482,595.735,-0.474159,0.0,0.0
981,245,46.131,48.5968,155.27,110.536,116.626,-0.000431535,0.0478075,20.9483,595.745,-0.484771,0.0,0.0
984,245.75,46.6651,47.8493,159.364,110.549,116.177,-0.000431913,0.0477778,20.9477,595.765,-0.448886,0.0,0.0
987,246.5,46.3036,48.4841,157.15,110.558,116.592,-0.000464073,0.0477139,20.9473,595.745,-0.480445,0.0,0.0
990,247.25,46.4421,48.1516,154.57,110.555,116.614,-0.000506146,0.0476493,20.947,595.715,-0.482312,0.0,0.0
993,248,45.9999,48.2409,153.806,110.549,117.146,-0.000544758,0.0476022,20.9467,595.725,-0.523998,0.0,0.0
996,248.75,46.6205,48.2877,153.609,110.548,115.99,-0.000595934,0.0475827,20.9466,595.725,-0.434392,0.0,0.0
999,249.5,46.4778,48.511,152.815,110.565,116.223,-0.000633241,0.0475939,20.9464,595.755,-0.451164,0.0,0.0
1002,250.25,46.7082,47.9854,158.966,110.576,116.59,-0.000660438,0.0476623,20.9464,595.685,-0.478765,0.0,0.0
1005,251,46.5259,48.4661,154.16,110.561,115.361,-0.000682037,0.0476981,20.9463,595.675,-0.384183,0.0,0.0
1008,251.75,46.4184,48.4143,154.288,110.564,116.953,-0.000698435,0.0477182,20.9462,595.685,-0.507887,0.0,0.0
1011,252.5,46.6687,48.2594,152.468,110.572,116.126,-0.000711508,0.0476323,20.9462,595.695,-0.443027,0.0,0.0
1014,253.25,46.188,48.0043,152.149,110.577,116.688,-0.000713952,0.047592,20.9462,595.655,-0.486219,0.0,0.0
1017,254,46.4234,48.2679,154.016,110.565,115.773,-0.000704557,0.0476006,20.9462,595.665,-0.416129,0.0,0.0
1020,254.75,46.2043,48.2515,152.976,110.566,115.893,-0.000692289,0.0476069,20.9461,595.675,-0.425373,0.0,0.0
1023,255.5,46.3641,48.3346,150.427,110.579,115.974,-0.000682229,0.0475692,20.9461,595.655,-0.430555,0.0,0.0
1026,256.25,46.3741,47.8676,155.586,110.585,115.922,-0.000674894,0.0475238,20.9461,595.725,-0.426139,0.0,0.0
1029,257,46.2125,47.7903,153.007,110.578,115.372,-0.000696117,0.0474906,20.9461,595.705,-0.383675,0.0,0.0
1032,257.75,46.1536,48.5519,152.294,110.585,116.293,-0.000718125,0.0475267,20.9461,595.705,-0.454957,0.0,0.0
1035,258.5,46.3927,47.9868,152.541,110.581,116.139,-0.000745346,0.047553,20.9461,595.705,-0.443329,0.0,0.0
1038,259.25,46.3643,48.0469,155.389,110.597,116.61,-0.00077952,0.0475521,20.9461,595.705,-0.47863,0.0,0.0
1041,260,46.2265,48.1613,147.706,110.587,116.434,-0.000789293,0.047507,20.9461,595.685,-0.4657,0.0,0.0
1044,260.75,46.7259,48.003,150.851,110.585,115.674,-0.000797227,0.047398,20.9461,595.675,-0.406757,0.0,0.0
1047,261.5,46.5037,47.8771,153.998,110.586,115.906,-0.000788841,0.0473186,20.9464,595.685,-0.424693,0.0,0.0
1050,262.25,46.2889,48.0106,153.396,110.607,116.644,-0.000761472,0.0472591,20.9469,595.685,-0.480384,0.0,0.0
1053,263,46.4846,48.311,148.149,110.623,116.652,-0.000741519,0.0472439,20.9473,595.695,-0.479711,0.0,0.0
1056,263.75,46.0509,48.1795,156.915,110.618,116.03,-0.000709261,0.0472062,20.9476,595.675,-0.431778,0.0,0.0
1059,264.5,46.3394,48.4404,154.785,110.64,116.827,-0.000685744,0.0471787,20.9479,595.665,-0.491919,0.0,0.0
1062,265.25,46.4192,48.2907,154.677,110.649,116.431,-0.000670371,0.0471587,20.948,595.685,-0.460431,0.0,0.0
1065,266,46.2713,48.311,148.685,110.657,115.636,-0.000664132,0.0471642,20.9479,595.685,-0.397855,0.0,0.0
1068,266.75,46.0534,48.4878,150.854,110.66,116.207,-0.000661702,0.047146,20.9477,595.675,-0.442157,0.0,0.0
1071,267.5,46.3623,48.2459,152.404,110.664,116.072,-0.000674101,0.0470946,20.9477,595.685,-0.431358,0.0,0.0
1074,268.25,46.4622,48.0023,154.602,110.66,116.515,-0.000686866,0.0470424,20.9476,595.665,-0.466005,0.0,0.0
1077,269,46.1961,48.1249,154.93,110.673,116.555,-0.000697106,0.046979,20.9476,595.635,-0.468091,0.0,0.0
1080,269.75,46.5867,48.5149,156.422,110.668,116.288,-0.000703454,0.046989,20.9475,595.615,-0.447758,0.0,0.0
1083,270.5,46.5457,47.8906,158.846,110.675,116.058,-0.000710042,0.0469922,20.9481,595.595,-0.429351,0.0,0.0
1086,271.25,46.4339,48.4088,156.027,110.693,115.172,-0.000718198,0.0469826,20.9486,595.595,-0.35856,0.0,0.0
1089,272,46.137,48.4933,154.917,110.717,115.559,-0.000727685,0.0469554,20.9489,595.565,-0.386921,0.0,0.0
1092,272.75,46.4309,47.887,156.842,110.713,115.267,-0.000731334,0.0469356,20.9491,595.575,-0.364393,0.0,0.0
1095,273.5,46.6128,47.8286,156.216,110.713,115.436,-0.000728406,0.0469212,20.9493,595.575,-0.377629,0.0,0.0
1098,274.25,46.1319,48.3249,154.962,110.708,116.105,-0.000715642,0.0469107,20.9494,595.595,-0.4303,0.0,0.0
1101,275,46.0797,48.5112,155.95,110.737,115.081,-0.000697645,0.0468882,20.9495,595.595,-0.347872,0.0,0.0
1104,275.75,46.4488,48.0083,157.685,110.701,116.027,-0.000680819,0.0468465,20.9496,595.605,-0.424814,0.0,0.0
1107,276.5,46.2341,47.8315,152.191,110.695,115.162,-0.000659696,0.0467759,20.9496,595.615,-0.357628,0.0,0.0
1110,277.25,46.2131,48.2948,154.701,110.706,115.853,-0.000644297,0.0467526,20.9497,595.625,-0.410814,0.0,0.0
1113,278,46.1308,48.2308,152.768,110.707,116.345,-0.000624155,0.0467476,20.9497,595.615,-0.449017,0.0,0.0
1116,278.75,46.1802,47.8482,150.196,110.715,116.97,-0.000603261,0.0467841,20.9497,595.605,-0.496794,0.0,0.0
1119,279.5,46.1397,48.571,151.325,110.711,115.862,-0.000585382,0.0467811,20.9499,595.615,-0.411166,0.0,0.0
1122,280.25,46.2763,47.9591,159.784,110.721,115.237,-0.00054932,0.0467282,20.9501,595.635,-0.361402,0.0,0.0
1125,281,46.4953,47.7609,154.702,110.73,116.833,-0.000516494,0.046668,20.9502,595.635,-0.485004,0.0,0.0
1128,281.75,46.5329,48.488,152.784,110.73,116.251,-0.000481387,0.046587,20.9503,595.625,-0.439898,0.0,0.0
1131,282.5,46.6626,47.9098,151.954,110.724,116.407,-0.000454023,0.0465702,20.9504,595.625,-0.452474,0.0,0.0
1134,283.25,46.4354,48.4479,155.175,110.744,115.553,-0.00044401,0.0465833,20.9505,595.625,-0.384275,0.0,0.0
1137,284,46.461,47.707,151.726,110.74,116.222,-0.000440945,0.0466056,20.9505,595.615,-0.436825,0.0,0.0
1140,284.75,46.0105,48.0282,153.012,110.744,116.199,-0.000461734,0.0465616,20.9505,595.595,-0.434654,0.0,0.0
1143,285.5,46.5724,47.8362,156.692,110.734,116.089,-0.000496863,0.0465154,20.9506,595.585,-0.426982,0.0,0.0
1146,286.25,46.1651,48.3086,157.15,110.762,115.965,-0.000541474,0.0464758,20.9506,595.565,-0.414979,0.0,0.0
1149,287,46.3948,48.3623,155.572,110.775,115.971,-0.000587657,0.0464669,20.9506,595.535,-0.414399,0.0,0.0
1152,287.75,46.6665,48.3322,152.645,110.772,115.943,-0.000627147,0.0464624,20.9506,595.535,-0.412409,0.0,0.0
1155,288.5,46.3616,48.2843,156.596,110.777,115.926,-0.000648484,0.0464371,20.9506,595.535,-0.410671,0.0,0.0
1158,289.25,46.0469,48.4155,155.713,110.789,115.933,-0.000660862,0.0464328,20.9502,595.545,-0.410283,0.0,0.0
1161,290,46.3057,48.1054,151.022,110.806,116.141,-0.000659258,0.0464059,20.9497,595.545,-0.425104,0.0,0.0
1164,290.75,46.2331,47.9189,152.426,110.803,115.554,-0.000654362,0.0463357,20.9494,595.565,-0.37951,0.0,0.0
1167,291.5,46.4222,48.2667,155.824,110.793,115.297,-0.000649206,0.0462845,20.9491,595.555,-0.3603,0.0,0.0
1170,292.25,46.2044,48.2862,158.904,110.809,116.263,-0.000633046,0.0462672,20.9489,595.585,-0.434294,0.0,0.0
1173,293,46.8194,47.8535,153.127,110.834,115.228,-0.000620613,0.0462473,20.9488,595.575,-0.351429,0.0,0.0
1176,293.75,46.0628,48.1014,151.596,110.83,116.697,-0.00061043,0.04622,20.9487,595.585,-0.466303,0.0,0.0
1179,294.5,46.5215,48.1274,153.349,110.827,115.787,-0.000610093,0.0462805,20.9486,595.585,-0.395776,0.0,0.0
1182,295.25,46.8588,48.0473,154.94,110.833,116.409,-0.000617372,0.0462875,20.9486,595.565,-0.443773,0.0,0.0
1185,296,46.3867,48.1848,155.273,110.835,116.468,-0.000632318,0.0462293,20.9486,595.545,-0.448147,0.0,0.0
1188,296.75,46.8091,48.0322,152.261,110.865,116.246,-0.000654392,0.0461868,20.9483,595.555,-0.428404,0.0,0.0
1191,297.5,46.2656,48.1328,149.434,110.857,116.706,-0.000682903,0.0461699,20.9477,595.555,-0.464767,0.0,0.0
1194,298.25,46.3577,48.0674,152.623,110.869,115.889,-0.000708982,0.0461655,20.9473,595.525,-0.400315,0.0,0.0
1197,299,46.7381,47.8607,152.519,110.867,116.058,-0.000734203,0.0461404,20.947,595.535,-0.41366,0.0,0.0
1200,299.75,46.2066,48.4233,153.866,110.884,116.352,-0.000756543,0.0461442,20.9467,595.525,-0.435145,0.0,0.0
1203,300.5,46.5726,48.2115,159.566,110.892,116.269,-0.000775065,0.0461851,20.9466,595.485,-0.42801,0.0,0.0
1206,301.25,46.218,48.3014,158.764,110.874,116.167,-0.000792293,0.0462149,20.9464,595.525,-0.421585,0.0,0.0
1209,302,46.3289,47.8242,156.286,110.895,115.496,-0.000806441,0.0462366,20.9464,595.525,-0.367484,0.0,0.0
1212,302.75,46.5025,48.065,154.666,110.912,115.72,,0.0462122,,595.535,-0.383588,0.0,0.0
1215,303.5,46.8495,48.3141,154.095,110.911,116.521,,0.0461574,,595.525,-0.44609,0.0,0.0
1218,304.25,46.49,48.2085,155.661,110.907,115.602,,0.0460541,,595.535,-0.374777,0.0,0.0
1221,305,46.5037,48.3091,150.478,110.926,116.201,,0.0459386,,595.515,-0.419957,0.0,0.0
1224,305.75,46.2438,48.3197,153.704,110.918,116.186,,,,595.535,-0.41943,0.0,0.0
1227,306.5,46.3795,47.9677,155.579,110.929,116.546,,,,595.495,-0.446607,0.0,0.0
1230,307.25,46.6377,48.5629,154.319,110.915,116.478,,,,595.515,-0.442394,0.0,0.0
1233,308,46.5098,47.8367,153.845,110.925,115.599,,,,595.525,-0.373099,0.0,0.0
1236,308.75,46.3224,47.8071,156.177,110.95,115.625,,,,595.545,-0.373094,0.0,0.0
1239,309.5,46.5551,48.431,153.905,110.948,116.491,,,,595.535,-0.440706,0.0,0.0
1242,310.25,46.2926,47.659,152.578,110.932,115.803,,,,595.535,-0.388515,0.0,0.0
1245,311,46.663,48.1563,153.778,110.947,115.683,,,,595.555,-0.377852,0.0,0.0
1248,311.75,46.128,48.312,154.115,110.946,115.884,,,,595.525,-0.393636,0.0,0.0
1251,312.5,46.1203,48.0329,154.532,110.962,116.553,,,,595.495,-0.444333,0.0,0.0
1254,313.25,46.7462,48.0323,151.886,110.952,116.162,,,,595.515,-0.414796,0.0,0.0
1255,313.5,46.3816,48.2878,155.19,110.964,116.151,,,,595.515,-0.41296,0.0,0.0