File: 01_Data/Rug_Pad/Cone/Rug_Pad_Cone_HF25Scan_220920_R2.csv
Names,Time,Stack TC,Smoke TC,Exh Press,Smoke Comp,Smoke Meas,CO Meter,CO2 Meter,O2 Meter,Sample Mass,Ext Coeff,Start Test,Flame Verif
Chan Gain,,500,500,1,1,1,1,1,1,1,1,1.0,1.0
Offset,,0,0,0.143022,0,0,0,0,0,0,0,0.0,0.0
Gain,,1,1,25.011,14.5176,16.5692,1,1,1,1.00088,1.03055,1.0,1.0
Units,sec,C,C,Pa,%,%,%,%,%,g,/m,,
Baseline,,37.4396,38.2411,161.712,110.142,114.04,-0.000973659,0.0435256,20.9544,-447.134,-0.314379,,
2,0.25,35.7877,36.3943,159.677,109.87,114.551,-0.000945936,0.0444631,20.9545,592.502,-0.377166,0.0,0.0
4,0.75,35.4947,36.5284,161.541,109.86,113.071,-0.000913085,0.0445275,20.9548,592.242,-0.260449,0.0,0.0
6,1.25,35.1817,36.3873,160.934,109.846,113.222,-0.000886477,0.0445234,20.9548,592.182,-0.273658,0.0,0.0
8,1.75,34.9611,36.3569,159.793,109.837,113.587,-0.000864924,0.04452,20.9546,592.402,-0.303485,0.0,0.0
10,2.25,35.2854,36.1946,164.44,109.806,113.29,-0.000847465,0.0445032,20.9544,592.182,-0.282385,0.0,0.0
12,2.75,35.6956,36.2778,163.401,109.8,113.385,-0.000835808,0.0444896,20.9546,592.282,-0.290401,0.0,0.0
14,3.25,35.0607,36.0065,159.859,109.78,113.863,-0.000826366,0.0444786,20.9549,592.322,-0.330136,0.0,0.0
16,3.75,35.8692,35.9209,163.008,109.778,113.583,-0.000832378,0.0444697,20.9553,592.202,-0.308054,0.0,0.0
18,4.25,35.6161,36.1649,159.363,109.746,113.096,-0.000837248,0.0444625,20.9555,592.302,-0.271766,0.0,0.0
20,4.75,34.9066,36.3648,156.115,109.749,113.807,-0.000851127,0.0444566,20.9557,592.262,-0.328196,0.0,0.0
22,5.25,35.2537,36.1203,161.364,109.725,113.552,-0.00086237,0.0444237,20.9559,592.222,-0.309979,0.0,0.0
24,5.75,35.742,36.35,164.827,109.715,112.895,-0.000877686,0.0443971,20.9558,592.252,-0.258294,0.0,0.0
26,6.25,35.6011,36.2517,164.391,109.686,113.259,-0.000890092,0.0443459,20.9555,592.202,-0.289776,0.0,0.0
28,6.75,35.7347,36.1543,160.774,109.668,113.19,-0.000905108,0.0442778,20.9553,592.232,-0.285784,0.0,0.0
30,7.25,35.5915,36.4472,163.351,109.653,113.291,-0.000917271,0.0442085,20.9551,592.222,-0.295094,0.0,0.0
32,7.75,35.4703,36.8383,161.112,109.639,112.865,-0.000924639,0.0441524,20.9549,592.192,-0.26215,0.0,0.0
34,8.25,35.6531,36.3811,161.796,109.61,112.593,-0.000930607,0.0440929,20.9548,592.222,-0.242786,0.0,0.0
36,8.75,35.3988,36.2182,162.486,109.624,112.719,-0.000935441,0.0440447,20.9547,592.212,-0.25168,0.0,0.0
38,9.25,35.3868,36.4144,163.365,109.583,112.6,-0.00092818,0.0439775,20.9546,592.202,-0.245583,0.0,0.0
40,9.75,35.2425,36.4146,158.979,109.565,112.665,-0.000922299,0.0439231,20.9546,592.212,-0.252199,0.0,0.0
42,10.25,35.557,36.118,164.976,109.55,112.391,-0.000912306,0.0439212,20.9545,592.192,-0.23143,0.0,0.0
44,10.75,35.7612,36.5256,161.012,109.536,112.602,-0.000899506,0.0439197,20.9545,592.202,-0.249584,0.0,0.0
46,11.25,35.0628,36.5115,162.102,109.514,112.704,-0.000868377,0.0439185,20.9544,592.202,-0.259569,0.0,0.0
48,11.75,35.4915,36.3048,157.961,109.51,112.357,-0.000832877,0.0439878,20.9544,592.192,-0.231995,0.0,0.0
50,12.25,35.1141,36.5492,158.789,109.489,112.293,-0.000817742,0.044044,20.9544,592.192,-0.228659,0.0,0.0
52,12.75,35.6822,36.2491,161.961,109.483,112.6,-0.000752489,0.0440747,20.9544,592.192,-0.25381,0.0,0.0
54,13.25,35.6246,36.3375,165.252,109.477,112.824,-0.000734935,0.0440862,20.9544,592.222,-0.272251,0.0,0.0
56,13.75,35.6003,36.4591,159.687,109.468,112.647,-0.000707402,0.0440734,20.9543,592.202,-0.258829,0.0,0.0
58,14.25,35.8445,36.2306,163.872,109.453,112.19,-0.0006851,0.04403,20.9543,592.182,-0.223279,0.0,0.0
60,14.75,35.34,36.1564,159.848,109.438,112.671,-0.000668278,0.0440183,20.9543,592.172,-0.263188,0.0,0.0
62,15.25,35.3385,36.436,166.255,109.428,112.517,-0.000654652,0.0440124,20.9543,592.152,-0.251687,0.0,0.0
64,15.75,35.3977,36.1061,163.714,109.412,112.357,-0.000643615,0.0440076,20.9543,592.152,-0.240155,0.0,0.0
66,16.25,35.4071,36.0685,158.849,109.399,111.888,-0.000618531,0.0440038,20.9543,592.202,-0.203384,0.0,0.0
68,16.75,35.3553,35.9437,158.962,109.39,112.194,-0.000598212,0.0440006,20.9543,592.212,-0.228839,0.0,0.0
70,17.25,35.6142,36.1782,160.962,109.373,112.087,-0.0005594,0.0439537,20.9543,592.232,-0.221552,0.0,0.0
72,17.75,35.0937,36.4801,159.857,109.364,112.447,-0.000527963,0.0438757,20.9543,592.202,-0.251347,0.0,0.0
74,18.25,35.38,36.4061,163.963,109.349,111.681,-0.000492564,0.0438347,20.9543,592.202,-0.190797,0.0,0.0
76,18.75,35.387,36.6182,161.438,109.346,111.996,-0.000463891,0.0438215,20.9539,592.162,-0.216515,0.0,0.0
78,19.25,35.7537,36.7415,164.177,109.332,111.807,-0.000444587,0.0438108,20.9535,592.172,-0.202378,0.0,0.0
80,19.75,35.6613,36.245,160.941,109.309,111.849,-0.000432481,0.0438162,20.9537,592.172,-0.207635,0.0,0.0
82,20.25,35.4323,36.3292,159.204,109.304,111.779,-0.000432479,0.0438205,20.9538,592.172,-0.202397,0.0,0.0
84,20.75,35.5902,36.6298,162.022,109.296,111.874,-0.000441302,0.0438389,20.9534,592.192,-0.210778,0.0,0.0
86,21.25,35.5093,36.4548,158.544,109.279,111.982,-0.000464788,0.0438671,20.9532,592.202,-0.22091,0.0,0.0
88,21.75,35.1523,36.3138,161.98,109.265,113.089,-0.000498518,0.0438973,20.9529,592.192,-0.31092,0.0,0.0
90,22.25,35.5911,36.7172,163.012,109.25,112.069,-0.000525839,0.0439285,20.9527,592.192,-0.230269,0.0,0.0
92,22.75,35.1537,36.692,162.339,109.247,111.168,-0.00054797,0.0439537,20.9526,592.212,-0.157585,0.0,0.0
94,23.25,35.6418,36.4823,161.382,109.226,111.636,-0.000603151,0.0439883,20.9525,592.162,-0.197268,0.0,0.0
96,23.75,35.5132,36.0696,162.35,109.221,112.073,-0.000647848,0.0440162,20.9524,592.152,-0.23302,0.0,0.0
98,24.25,35.7599,36.415,161.036,109.214,111.516,-0.00068157,0.0440529,20.9523,592.152,-0.188549,0.0,0.0
100,24.75,35.6413,36.4469,160.532,109.192,110.851,-0.000708884,0.0440827,20.9522,592.152,-0.136314,0.0,0.0
102,25.25,35.713,36.6796,163.427,109.2,110.422,-0.000731009,0.0441438,20.9522,592.172,-0.100577,0.0,0.0
104,25.75,35.9505,36.2636,161.742,109.156,111.11,-0.000715399,0.0442266,20.9521,592.172,-0.160414,0.0,0.0
106,26.25,35.6332,36.8156,163.709,109.151,110.016,-0.000702754,0.0442937,20.9518,592.162,-0.0713562,0.0,0.0
108,26.75,36.005,36.268,157.769,109.142,110.354,-0.000685323,0.0443481,20.9517,592.182,-0.0998383,0.0,0.0
110,27.25,35.3808,36.033,162.801,109.132,111.291,-0.000664733,0.0443921,20.9515,592.172,-0.177035,0.0,0.0
112,27.75,35.9954,36.3313,161.092,109.122,111.005,-0.000651323,0.0444278,20.9514,592.162,-0.154643,0.0,0.0
114,28.25,36.0646,36.3716,165.239,109.122,110.896,-0.000643402,0.0444641,20.9513,592.152,-0.145822,0.0,0.0
116,28.75,35.72,36.2946,161.905,109.105,110.28,-0.000636986,0.0445001,20.9513,592.132,-0.0968348,0.0,0.0
118,29.25,35.4201,36.4689,162.368,109.097,110.75,-0.000642965,0.0445071,20.9512,592.132,-0.135916,0.0,0.0
120,29.75,35.5535,36.9456,161.596,109.089,110.261,-0.000647809,0.0444928,20.9512,592.182,-0.0966137,0.0,0.0
122,30.25,35.6099,35.9307,159.583,109.089,110.705,-0.000651732,0.044496,20.9511,592.172,-0.132981,0.0,0.0
124,30.75,35.8449,36.2766,160.423,109.058,110.599,-0.000653669,0.0445119,20.9511,592.132,-0.126877,0.0,0.0
126,31.25,35.6402,36.2786,162.421,109.07,110.553,-0.000644125,0.0445248,20.9511,592.122,-0.12205,0.0,0.0
128,31.75,35.3016,36.6028,163.697,109.052,110.732,-0.000626395,0.0445634,20.951,592.132,-0.138181,0.0,0.0
130,32.25,35.8328,36.5425,163.361,109.073,110.93,-0.000612033,0.0445947,20.951,592.112,-0.152621,0.0,0.0
132,32.75,36.1531,36.6834,164.788,109.04,110.726,-0.000570596,0.0446496,20.951,592.112,-0.138676,0.0,0.0
134,33.25,35.6753,36.2833,163.649,109.039,109.976,-0.000537031,0.0447208,20.951,592.122,-0.0773517,0.0,0.0
136,33.75,35.9721,36.0375,159.384,109.012,110.279,-0.00049285,0.0447785,20.9503,592.112,-0.104423,0.0,0.0
138,34.25,35.2375,36.1604,162.703,109.023,110.074,-0.000441768,0.0453462,20.9491,592.132,-0.0867752,0.0,0.0
140,34.75,36.0872,36.0674,163.285,109.012,111.166,-0.000360652,0.0458061,20.9465,592.132,-0.176835,0.0,1.0
142,35.25,35.6853,36.3997,159.813,109.018,110.902,-0.000294948,0.0473211,20.9429,592.112,-0.154867,0.0,1.0
144,35.75,35.7813,36.251,159.765,109,111.097,-0.000187048,0.0485482,20.937,592.102,-0.172233,0.0,1.0
146,36.25,35.9231,36.0872,159.515,109.007,109.373,-9.96495e-05,0.0509131,20.9295,592.192,-0.0303207,0.0,1.0
148,36.75,36.1593,36.5043,161.396,108.995,108.123,-2.88566e-05,0.0540626,20.9234,592.002,0.072594,0.0,1.0
150,37.25,36.1394,36.8961,156.272,108.996,108.654,0.000140583,0.0582478,20.9152,592.092,0.0283492,0.0,1.0
152,37.75,35.9783,36.6591,156.688,108.982,106.905,0.00027783,0.0631086,20.9056,591.982,0.173956,0.0,1.0
154,38.25,36.179,36.5635,155.925,108.982,106.589,0.000506445,0.0711819,20.8937,592.052,0.200719,0.0,1.0
156,38.75,35.484,35.7408,158.959,108.99,105.27,0.000691623,0.0777213,20.8802,592.022,0.31388,0.0,1.0
158,39.25,34.8988,35.3758,156.804,108.995,102.75,0.00096948,0.0859564,20.8694,591.962,0.533375,0.0,1.0
160,39.75,35.3172,35.6043,155.312,108.977,102.745,0.00119454,0.0952712,20.8517,591.942,0.53235,0.0,1.0
162,40.25,35.5769,35.5557,149.302,108.99,100.065,0.00145701,0.102816,20.8374,591.932,0.77233,0.0,1.0
164,40.75,35.6508,36.1655,152.541,108.976,98.7121,0.00174175,0.115193,20.8143,591.922,0.894229,0.0,1.0
166,41.25,35.7579,36.0343,150.378,108.998,98.3557,0.00204485,0.125218,20.7956,591.842,0.928735,0.0,1.0
168,41.75,35.9178,36.0893,150.607,108.996,98.3167,0.00235558,0.137404,20.7757,591.822,0.932167,0.0,1.0
170,42.25,36.5491,35.8919,150.79,108.981,97.0349,0.00266932,0.147274,20.7596,591.792,1.04959,0.0,0.0
172,42.75,36.8328,36.3245,153.517,108.985,99.4585,0.00297927,0.157116,20.7441,591.802,0.826872,0.0,0.0
174,43.25,36.7118,36.4295,153.932,108.99,97.622,0.00323033,0.166749,20.7291,591.742,0.995798,0.0,0.0
176,43.75,36.6934,36.2563,148.945,108.985,95.6514,0.00350933,0.175867,20.717,591.712,1.17973,0.0,0.0
178,44.25,37.677,37.0386,147.474,109.007,95.973,0.00380339,0.184436,20.7042,591.701,1.15115,0.0,0.0
180,44.75,37.6557,36.7533,146.63,108.995,94.2007,0.00408052,0.191377,20.6937,591.661,1.3187,0.0,0.0
182,45.25,37.9774,37.3149,152.02,109.003,94.1582,0.00434003,0.199145,20.6836,591.661,1.32344,0.0,0.0
184,45.75,37.8492,37.4581,151.962,109.008,94.4308,0.00457712,0.205437,20.674,591.621,1.29775,0.0,0.0
186,46.25,38.6335,38.0911,151.621,109.019,95.8972,0.00479338,0.211672,20.6631,591.611,1.15933,0.0,0.0
188,46.75,38.597,37.9439,144.171,109.015,94.6927,0.00498941,0.217746,20.6543,591.561,1.27322,0.0,0.0
190,47.25,38.8379,38.3426,146.963,109.035,97.9041,0.00516697,0.222665,20.6471,591.571,0.973381,0.0,0.0
192,47.75,39.1027,38.2802,148.125,109.028,91.8267,0.0053108,0.228623,20.6378,591.521,1.55219,0.0,0.0
194,48.25,39.2325,38.5101,147.55,109.043,96.5808,0.00542731,0.233449,20.6302,591.461,1.09713,0.0,0.0
196,48.75,39.7341,39.115,144.1,109.045,96.4478,0.00559212,0.239107,20.6232,591.441,1.10974,0.0,0.0
198,49.25,40.1441,39.1407,149.716,109.073,97.2458,0.00575194,0.24369,20.6175,591.401,1.03753,0.0,0.0
200,49.75,40.3274,39.0244,148.733,109.07,94.1947,0.0059051,0.248797,20.6118,591.371,1.32552,0.0,0.0
202,50.25,40.5961,39.7702,146.569,109.097,94.0627,0.00602916,0.252933,20.6061,591.341,1.34036,0.0,0.0
204,50.75,40.6501,40.0391,148.463,109.089,96.2162,0.00612964,0.256283,20.6015,591.291,1.13507,0.0,0.0
206,51.25,40.6578,40.3417,142.917,109.102,94.72,0.00630092,0.261004,20.5965,591.301,1.27789,0.0,0.0
208,51.75,41.3925,40.6006,147.045,109.125,90.7158,0.00643966,0.264829,20.5915,591.281,1.67023,0.0,0.0
210,52.25,41.41,40.2021,151.066,109.14,89.1098,0.00660224,0.269048,20.5862,591.251,1.83295,0.0,0.0
212,52.75,41.7185,40.6561,151.286,109.147,91.9025,0.00673394,0.272465,20.5808,591.231,1.55457,0.0,0.0
214,53.25,42.326,41.3443,145.302,109.156,90.7345,0.0068725,0.27624,20.5764,591.201,1.67093,0.0,0.0
216,53.75,41.692,41.2478,148.594,109.169,88.4201,0.00701344,0.280205,20.5701,591.151,1.90557,0.0,0.0
218,54.25,42.9645,41.8126,142.194,109.193,91.0348,0.00715546,0.283417,20.5651,591.131,1.6441,0.0,0.0
220,54.75,42.7804,41.222,145.971,109.198,90.8735,0.00729557,0.287573,20.5588,591.121,1.66061,0.0,0.0
222,55.25,42.8608,41.9702,144.181,109.217,90.1808,0.00743287,0.29094,20.5537,591.081,1.73133,0.0,0.0
224,55.75,43.6645,42.9345,146.048,109.22,91.9005,0.00756551,0.294198,20.5483,590.981,1.56078,0.0,0.0
226,56.25,43.3519,42.522,142.641,109.254,90.5833,0.00768317,0.297315,20.5438,590.981,1.69415,0.0,0.0
228,56.75,44.4601,43.3551,151.588,109.254,92.0694,0.00778767,0.300287,20.5403,590.921,1.54705,0.0,0.0
230,57.25,44.4849,43.5776,148.554,109.268,95.1766,0.00787231,0.303096,20.5374,590.891,1.2481,0.0,0.0
232,57.75,44.5359,43.3119,151.343,109.287,92.7187,0.00794359,0.305371,20.535,590.891,1.4862,0.0,0.0
234,58.25,44.8977,43.3184,144.306,109.293,88.8171,0.00800378,0.307738,20.5331,590.821,1.87535,0.0,0.0
236,58.75,45.0295,43.4865,143.018,109.314,91.5289,0.00804845,0.309655,20.5316,590.811,1.60519,0.0,0.0
238,59.25,45.3566,44.0492,150.873,109.33,90.3735,0.00808095,0.311257,20.5308,590.771,1.72135,0.0,0.0
240,59.75,45.7014,44.3613,147.144,109.353,92.4663,0.00810251,0.312555,20.5301,590.741,1.51633,0.0,0.0
242,60.25,45.8196,44.2611,148.987,109.346,88.6072,0.00811569,0.313131,20.5305,590.741,1.90109,0.0,0.0
244,60.75,45.6532,44.8974,146.282,109.373,89.1543,0.00812636,0.313598,20.5317,590.731,1.84775,0.0,0.0
246,61.25,45.856,45.3699,151.164,109.389,91.8783,0.00811568,0.313615,20.5336,590.681,1.57693,0.0,0.0
248,61.75,45.9936,44.8195,154.342,109.404,88.2583,0.00810703,0.313304,20.5359,590.651,1.94159,0.0,0.0
250,62.25,46.4467,45.7262,148.571,109.408,91.0394,0.00807675,0.313052,20.5384,590.601,1.66142,0.0,0.0
252,62.75,46.5084,45.4192,146.503,109.429,92.5569,0.00805223,0.312326,20.5409,590.57,1.51378,0.0,0.0
254,63.25,46.8141,45.5868,144.411,109.445,94.36,0.00801197,0.311738,20.5429,590.551,1.34068,0.0,0.0
256,63.75,46.6824,45.7334,151.075,109.465,93.8458,0.007961,0.310499,20.5467,590.52,1.39173,0.0,0.0
258,64.25,46.5156,46.469,147.2,109.47,93.6132,0.00791972,0.309496,20.5498,590.49,1.41453,0.0,0.0
260,64.75,46.9841,46.3391,152.719,109.499,93.5778,0.00783471,0.307695,20.5524,590.46,1.42036,0.0,0.0
262,65.25,47.2394,46.587,155.191,109.517,94.1188,0.00771943,0.306235,20.5571,590.39,1.36971,0.0,0.0
264,65.75,47.2113,46.5544,147.706,109.531,93.7487,0.00758813,0.304322,20.5609,590.39,1.40654,0.0,0.0
266,66.25,47.3494,46.5287,150.92,109.546,97.4976,0.00744764,0.302115,20.567,590.35,1.05329,0.0,0.0
268,66.75,47.5885,46.8687,148.073,109.573,95.9472,0.00729533,0.300327,20.572,590.34,1.20045,0.0,0.0
270,67.25,47.6564,47.4235,151.373,109.574,97.272,0.00706989,0.297176,20.581,590.3,1.07652,0.0,0.0
272,67.75,47.7153,46.8138,149.327,109.604,95.8845,0.00700925,0.294623,20.5834,590.28,1.20892,0.0,0.0
274,68.25,47.671,47.5553,148.965,109.606,95.0113,0.00682481,0.291573,20.591,590.25,1.29178,0.0,0.0
276,68.75,47.8871,47.2125,148.762,109.641,97.579,0.00662493,0.288218,20.5972,590.23,1.0536,0.0,0.0
278,69.25,48.0665,47.2824,153.626,109.64,98.7354,0.0064176,0.284748,20.6053,590.21,0.946986,0.0,0.0
280,69.75,48.1741,47.668,150.235,109.659,98.1266,0.00618926,0.28126,20.6119,590.17,1.00447,0.0,0.0
282,70.25,48.1281,47.7782,150.056,109.668,98.8648,0.00594993,0.276441,20.6172,590.2,0.937444,0.0,0.0
284,70.75,47.9734,47.6625,150.605,109.696,100.905,0.00575608,0.274647,20.6242,590.16,0.755083,0.0,0.0
286,71.25,48.2351,47.654,156.358,109.706,102.153,0.00559906,0.270743,20.6299,590.16,0.644807,0.0,0.0
288,71.75,47.952,47.6215,147.496,109.737,97.8768,0.00547187,0.266828,20.6344,590.12,1.03397,0.0,0.0
290,72.25,48.053,47.8713,150.906,109.746,99.818,0.00514153,0.262827,20.6416,590.08,0.857132,0.0,0.0
292,72.75,47.9106,48.1343,155.544,109.774,102.432,0.00487396,0.258838,20.6474,590.08,0.625798,0.0,0.0
294,73.25,47.9706,48.5036,151.688,109.784,101.288,0.00455484,0.255607,20.6532,590.06,0.728073,0.0,0.0
296,73.75,48.3407,48.1786,153.822,109.806,103.359,0.00429635,0.25299,20.6588,590.04,0.547003,0.0,0.0
298,74.25,47.8227,48.3362,153.365,109.805,103.267,0.00402396,0.248386,20.6648,590.03,0.554974,0.0,0.0
300,74.75,48.0306,48.7316,152.422,109.843,103.108,0.00374661,0.244657,20.6709,589.99,0.571947,0.0,0.0
302,75.25,48.2276,48.3732,152.366,109.845,104.403,0.00347169,0.241637,20.6759,589.99,0.459344,0.0,0.0
304,75.75,47.7191,48.5674,153.149,109.871,106.027,0.00320376,0.237231,20.6847,589.98,0.321984,0.0,0.0
306,76.25,47.9165,48.415,149.943,109.889,107.416,0.00294054,0.233662,20.6919,589.98,0.20574,0.0,0.0
308,76.75,48.1559,47.9922,155.942,109.906,107.473,0.00268578,0.229055,20.6999,589.97,0.202324,0.0,0.0
310,77.25,47.8871,48.3871,154.694,109.922,108.388,0.00244583,0.225324,20.7064,589.95,0.127057,0.0,0.0
312,77.75,47.9796,48.5185,156.684,109.938,107.729,0.00222125,0.221411,20.7144,589.96,0.183525,0.0,0.0
314,78.25,47.6493,48.7392,155.878,109.956,109.577,0.00203934,0.217441,20.7208,589.94,0.0312117,0.0,0.0
316,78.75,47.9933,48.8023,151.691,109.984,109.803,0.0018565,0.213411,20.726,589.93,0.0149152,0.0,0.0
318,79.25,47.7161,48.9531,155.571,109.987,110.658,0.00167646,0.209415,20.7328,589.9,-0.0549892,0.0,0.0
320,79.75,48.1805,48.7959,152.836,110.022,111.511,0.00151552,0.206177,20.7384,589.89,-0.121528,0.0,0.0
322,80.25,47.967,48.6545,158.718,110.026,112.274,0.00137158,0.202092,20.7451,589.86,-0.182773,0.0,0.0
324,80.75,47.9329,48.694,154.831,110.049,113.015,0.00124449,0.198782,20.748,589.87,-0.240407,0.0,0.0
326,81.25,47.8766,48.8313,157.235,110.062,113.029,0.00118533,0.19524,20.754,589.84,-0.240447,0.0,0.0
328,81.75,47.1658,48.4619,157.153,110.076,112.61,0.00108418,0.191595,20.76,589.83,-0.205731,0.0,0.0
330,82.25,47.7364,48.0923,155.583,110.089,112.895,0.000994771,0.187809,20.766,589.84,-0.227537,0.0,0.0
332,82.75,47.6439,48.5043,158.449,110.111,113.261,0.00092235,0.183992,20.7719,589.84,-0.254985,0.0,0.0
334,83.25,47.5366,48.6522,159.79,110.12,113.471,0.000878641,0.180298,20.7781,589.82,-0.271031,0.0,0.0
336,83.75,47.8542,48.6063,154.47,110.135,114.5,0.000843237,0.178437,20.7843,589.82,-0.351366,0.0,0.0
338,84.25,47.028,48.3272,161.984,110.146,113.91,0.00084698,0.175254,20.7894,589.79,-0.303788,0.0,0.0
340,84.75,47.1701,48.5968,153.501,110.176,114.634,0.000850011,0.17152,20.7948,589.79,-0.358558,0.0,0.0
342,85.25,47.114,48.2615,153.859,110.195,113.626,0.000852466,0.168495,20.7992,589.77,-0.277132,0.0,0.0
344,85.75,47.0946,48.2497,157.287,110.212,114.831,0.000854455,0.164773,20.8041,589.77,-0.371148,0.0,0.0
346,86.25,47.1336,48.3592,161.196,110.232,115.664,0.000915991,0.161759,20.8081,589.76,-0.434878,0.0,0.0
348,86.75,47.4421,48.3536,159.578,110.253,114.948,0.000965835,0.158315,20.8135,589.74,-0.376924,0.0,0.0
350,87.25,46.6881,47.9833,157.375,110.271,114.682,0.00102246,0.155526,20.8179,589.71,-0.354606,0.0,0.0
352,87.75,47.0357,48.404,159.752,110.279,114.347,0.00106832,0.153267,20.8223,589.69,-0.327487,0.0,0.0
354,88.25,46.4985,48.2999,157.598,110.304,114.28,0.00111047,0.150664,20.8259,589.64,-0.320063,0.0,0.0
356,88.75,46.605,48.2831,161.241,110.32,114.58,0.00114461,0.14786,20.8298,589.65,-0.34252,0.0,0.0
358,89.25,46.3965,48.1126,159.893,110.33,114.133,0.00117351,0.145589,20.8337,589.7,-0.30635,0.0,0.0
360,89.75,46.2897,47.7386,158.51,110.357,114.539,0.00119693,0.142696,20.8378,589.75,-0.336163,0.0,0.0
362,90.25,46.0388,47.9131,158.408,110.365,114.691,0.00123111,0.140352,20.8432,589.72,-0.347551,0.0,0.0
364,90.75,46.4986,47.6528,156.776,110.39,114.197,0.0012403,0.137637,20.8451,589.7,-0.306459,0.0,0.0
366,91.25,46.0825,48.1895,154.614,110.415,114.785,0.00127103,0.135437,20.8484,589.66,-0.350861,0.0,0.0
368,91.75,46.2215,48.1105,161.657,110.435,115.131,0.00129593,0.13284,20.851,589.64,-0.37643,0.0,0.0
370,92.25,46.4708,47.5965,155.044,110.433,114.596,0.00131609,0.130736,20.854,589.66,-0.334508,0.0,0.0
372,92.75,45.8332,48.0563,156.366,110.47,115.128,0.00137247,0.128233,20.8565,589.69,-0.37336,0.0,0.0
374,93.25,46.0196,47.7393,152.597,110.49,114.808,0.00141814,0.124952,20.8584,589.69,-0.346489,0.0,0.0
376,93.75,45.4221,47.2119,157.605,110.505,114.344,0.00145513,0.123823,20.8608,589.66,-0.308784,0.0,0.0
378,94.25,45.5233,47.3474,160.772,110.52,113.941,0.0015029,0.121894,20.8632,589.66,-0.275595,0.0,0.0
380,94.75,45.8932,47.2931,158.012,110.532,114.286,0.00155761,0.119881,20.8653,589.66,-0.301899,0.0,0.0
382,95.25,45.6647,47.1941,157.237,110.551,114.105,0.00160391,0.117847,20.8678,589.66,-0.285975,0.0,0.0
384,95.75,45.1781,47.8608,162.542,110.564,114.29,0.00164319,0.116199,20.8699,589.65,-0.299614,0.0,0.0
386,96.25,44.9377,47.4046,154.498,110.597,114.751,0.00167369,0.114127,20.872,589.65,-0.333373,0.0,0.0
388,96.75,44.9986,47.2746,156.986,110.598,113.985,0.00169721,0.112449,20.8737,589.64,-0.272709,0.0,0.0
390,97.25,45.0174,46.6846,162.806,110.621,114.715,0.00170834,0.11109,20.8765,589.63,-0.328516,0.0,0.0
392,97.75,45.0544,47.0041,156.847,110.654,114.683,0.00171024,0.109153,20.8787,589.62,-0.323323,0.0,0.0
394,98.25,44.6172,46.4024,155.921,110.652,114.341,0.00171177,0.107584,20.8813,589.6,-0.29648,0.0,0.0
396,98.75,44.4642,46.7248,158.277,110.656,114.188,0.00168046,0.105972,20.8835,589.6,-0.283996,0.0,0.0
398,99.25,44.9958,47.1981,159.678,110.68,113.669,0.00165509,0.10436,20.8857,589.59,-0.240913,0.0,0.0
400,99.75,44.8654,46.8411,158.217,110.685,114.079,0.00163454,0.102759,20.8879,589.59,-0.273074,0.0,0.0
402,100.25,44.6589,46.3041,158.597,110.713,113.875,0.00157536,0.101197,20.8902,589.6,-0.254591,0.0,0.0
404,100.75,44.0921,46.194,162.479,110.73,113.606,0.00152742,0.099622,20.8924,589.59,-0.231801,0.0,0.0
406,101.25,44.049,46.4848,160.9,110.742,114.271,0.00148359,0.0980676,20.8947,589.59,-0.283581,0.0,0.0
408,101.75,44.0169,46.4514,158.423,110.746,113.681,0.00144809,0.0968085,20.897,589.57,-0.236528,0.0,0.0
410,102.25,44.3972,46.3437,162.309,110.773,113.502,0.00142065,0.0954719,20.8988,589.57,-0.219965,0.0,0.0
412,102.75,44.1325,46.6464,162.873,110.769,113.217,0.0013996,0.0941041,20.9008,589.57,-0.19766,0.0,0.0
414,103.25,43.8635,45.7492,154.647,110.782,113.835,0.00138256,0.0929962,20.9023,589.58,-0.245778,0.0,0.0
416,103.75,43.5754,45.8469,159.561,110.783,113.223,0.0013638,0.0916997,20.904,589.56,-0.196952,0.0,0.0
418,104.25,43.2669,45.7859,159.066,110.824,113.355,0.00134861,0.0902904,20.9054,589.57,-0.204153,0.0,0.0
420,104.75,43.7441,45.481,155.119,110.811,113.339,0.0013349,0.0889232,20.906,589.56,-0.203875,0.0,0.0
422,105.25,43.0988,45.9975,159.742,110.834,113.578,0.00131145,0.0876128,20.9076,589.55,-0.221092,0.0,0.0
424,105.75,43.7613,45.9316,164.506,110.833,113.034,0.00128259,0.086341,20.9089,589.55,-0.177751,0.0,0.0
426,106.25,43.1862,45.7325,166.362,110.85,114.003,0.00125034,0.0851215,20.9104,589.56,-0.253535,0.0,0.0
428,106.75,43.129,45.5701,167.777,110.848,113.274,0.00122421,0.0841337,20.9117,589.56,-0.195752,0.0,0.0
430,107.25,42.4197,45.8695,159.377,110.872,113.615,0.00119648,0.0829925,20.9129,589.55,-0.220958,0.0,0.0
432,107.75,42.9332,45.4003,160.109,110.865,113.518,0.0011681,0.082506,20.9141,589.55,-0.213772,0.0,0.0
434,108.25,42.6579,45.3349,160.987,110.89,113.872,0.00113985,0.0815465,20.915,589.53,-0.239856,0.0,0.0
436,108.75,42.7047,45.255,158.334,110.896,114.487,0.00111224,0.0806545,20.9158,589.52,-0.288068,0.0,0.0
438,109.25,43.0844,44.9171,159.061,110.894,113.188,0.001082,0.0799321,20.9165,589.51,-0.185092,0.0,0.0
440,109.75,42.5845,44.8851,158.226,110.889,113.377,0.0010504,0.0790904,20.917,589.51,-0.20058,0.0,0.0
442,110.25,42.2083,44.8622,160.456,110.906,113.435,0.00101109,0.0784087,20.9179,589.49,-0.203803,0.0,0.0
444,110.75,42.4166,45.0624,162.499,110.897,113.038,0.000979247,0.0777366,20.919,589.49,-0.172913,0.0,0.0
446,111.25,42.5982,44.4755,160.749,110.915,113.77,0.000946234,0.0770843,20.9199,589.48,-0.229722,0.0,0.0
448,111.75,42.1933,44.7796,158.971,110.913,113.799,0.000912994,0.0764661,20.9207,589.49,-0.232193,0.0,0.0
450,112.25,41.6805,43.3999,160.729,110.923,113.306,0.000885414,0.0758844,20.9213,589.48,-0.19219,0.0,0.0
452,112.75,40.7982,43.089,156.903,110.912,113.35,0.000862484,0.0753608,20.9218,589.49,-0.196562,0.0,0.0
454,113.25,40.456,43.0533,163.257,110.933,113.276,0.00084391,0.0748895,20.9222,589.49,-0.188979,0.0,0.0
456,113.75,40.3783,42.7677,160.813,110.914,113.649,0.000836741,0.0744254,20.9225,589.48,-0.220182,0.0,0.0
458,114.25,39.9615,42.3519,166.552,110.939,113.426,0.000838024,0.0739754,20.9232,589.51,-0.20041,0.0,0.0
460,114.75,39.8753,42.8868,162.67,110.94,113.975,0.000839063,0.0734986,20.9237,589.5,-0.243921,0.0,0.0
462,115.25,40.0029,42.4642,163.64,110.948,113.881,0.000847389,0.0730114,20.9242,589.47,-0.235885,0.0,0.0
464,115.75,39.8119,42.6234,160.677,110.959,113.169,0.000854133,0.0726168,20.9246,589.47,-0.178285,0.0,0.0
466,116.25,39.9171,42.7042,158.562,110.958,113.527,0.000855853,0.072155,20.9249,589.46,-0.20695,0.0,0.0
468,116.75,40.0013,42.0765,159.441,110.942,113.346,0.000857246,0.071781,20.9254,589.5,-0.193788,0.0,0.0
470,117.25,39.8767,42.1511,157.988,110.96,113.599,0.000858375,0.071478,20.926,589.46,-0.212449,0.0,0.0
472,117.75,39.5895,42.1994,164.77,110.958,113.588,0.000854037,0.0710195,20.9264,589.44,-0.21182,0.0,0.0
474,118.25,39.4858,42.1397,160.906,110.971,114.23,0.000845797,0.0706481,20.926,589.45,-0.261698,0.0,0.0
476,118.75,39.6625,41.7701,157.919,110.948,114.649,0.000833873,0.070191,20.9256,589.43,-0.296615,0.0,0.0
478,119.25,39.7282,41.9533,162.586,110.977,113.618,0.000819488,0.0698208,20.9253,589.44,-0.212566,0.0,0.0
480,119.75,39.4739,42.0074,160.622,110.966,114.132,0.000802588,0.069521,20.925,589.419,-0.254292,0.0,0.0
482,120.25,39.2359,42.2163,163.588,110.966,113.884,0.000784175,0.069166,20.9253,589.43,-0.234682,0.0,0.0
484,120.75,39.6907,41.9159,163.94,110.968,113.352,0.00076926,0.0687776,20.9255,589.44,-0.192137,0.0,0.0
486,121.25,39.2573,41.239,164.082,110.977,112.986,0.000753244,0.0683883,20.9259,589.409,-0.162176,0.0,0.0
488,121.75,38.6568,41.7548,160.764,110.974,113.633,0.000736728,0.0680058,20.9264,589.409,-0.214026,0.0,0.0
490,122.25,39.3748,41.2883,159.931,110.979,113.743,0.000721383,0.0676287,20.9268,589.389,-0.222394,0.0,0.0
492,122.75,39.0191,41.5609,159.541,110.979,113.711,0.000707183,0.0672628,20.9272,589.379,-0.219898,0.0,0.0
494,123.25,39.1956,41.372,162.773,110.982,113.651,0.000691746,0.0669664,20.9274,589.369,-0.21482,0.0,0.0
496,123.75,38.9183,40.7706,160.251,110.976,113.854,0.0006757,0.0665845,20.9277,589.399,-0.231448,0.0,0.0
498,124.25,38.2358,41.341,155.675,110.974,113.981,0.000662704,0.0662752,20.9279,589.419,-0.241695,0.0,0.0
500,124.75,38.8401,41.2858,159.629,110.977,113.276,0.00063723,0.0659724,20.928,589.399,-0.185364,0.0,0.0
502,125.25,38.773,41.4634,160.452,110.972,113.271,0.000616596,0.0656801,20.9281,589.389,-0.185398,0.0,0.0
504,125.75,38.6124,41.3591,157.421,110.977,113.732,0.000574939,0.0653762,20.9281,589.399,-0.221694,0.0,0.0
506,126.25,38.7591,41.2503,160.574,110.983,114.055,0.000541196,0.0650696,20.9281,589.389,-0.246867,0.0,0.0
508,126.75,38.5277,40.9244,160.341,110.972,113.877,0.000495534,0.064784,20.928,589.389,-0.233538,0.0,0.0
510,127.25,38.3748,40.8457,163.19,110.977,113.787,0.000442051,0.064519,20.928,589.399,-0.226029,0.0,0.0
512,127.75,38.1351,40.8316,161.672,110.961,114.514,0.000398729,0.0643044,20.9279,589.379,-0.284913,0.0,0.0
514,128.25,38.146,40.9255,156.927,110.973,113.75,0.000357423,0.0640445,20.9281,589.379,-0.223426,0.0,0.0
516,128.75,38.6095,40.935,162.834,110.976,113.892,0.000323965,0.0638339,20.9285,589.379,-0.234454,0.0,0.0
518,129.25,38.2255,40.6652,163.197,110.965,113.675,0.00030668,0.0636335,20.9288,589.379,-0.218122,0.0,0.0
520,129.75,38.0951,40.8294,159.516,110.962,113.184,0.000301514,0.0634443,20.9291,589.369,-0.179209,0.0,0.0
522,130.25,38.2445,40.7143,161.299,110.96,113.909,0.00030977,0.0632911,20.9293,589.359,-0.237081,0.0,0.0
524,130.75,37.8451,40.873,160.389,110.95,113.798,0.000327654,0.0630678,20.9299,589.339,-0.229156,0.0,0.0
526,131.25,38.1185,40.7048,159.788,110.959,114.158,0.000352622,0.062887,20.9303,589.349,-0.256988,0.0,0.0
528,131.75,37.8705,40.2853,159.813,110.959,113.781,0.000382281,0.0626809,20.9307,589.349,-0.227032,0.0,0.0
530,132.25,38.1295,39.9849,160.887,110.952,114.071,0.000414826,0.0624602,20.9311,589.329,-0.250599,0.0,0.0
532,132.75,37.6194,39.6101,157.712,110.953,113.96,0.000448857,0.0622368,20.9313,589.329,-0.241711,0.0,0.0
534,133.25,37.4435,40.4317,158.497,110.943,113.701,0.000477733,0.0620156,20.9315,589.329,-0.221981,0.0,0.0
536,133.75,37.7736,40.2022,162.533,110.958,114.458,0.000502304,0.0617768,20.9317,589.329,-0.280697,0.0,0.0
538,134.25,37.6429,40.312,157.678,110.938,114.316,0.000522205,0.0615297,20.9318,589.339,-0.271093,0.0,0.0
540,134.75,37.7977,40.0677,159.342,110.938,114.152,0.000520889,0.06127,20.932,589.329,-0.258168,0.0,0.0
542,135.25,37.5739,40.3096,161.76,110.925,113.765,0.000519823,0.061006,20.9325,589.339,-0.228526,0.0,0.0
544,135.75,37.7893,40.0715,157.974,110.933,113.81,0.000506511,0.0607623,20.9329,589.349,-0.231487,0.0,0.0
546,136.25,37.3383,40.1124,161.59,110.937,113.94,0.000484526,0.0605382,20.9333,589.349,-0.241443,0.0,0.0
548,136.75,37.5228,39.6074,159.369,110.929,113.656,0.000466717,0.0603566,20.9336,589.339,-0.219553,0.0,0.0
550,137.25,37.1566,39.8948,160.849,110.921,113.852,0.000432387,0.0601671,20.9338,589.329,-0.235723,0.0,0.0
552,137.75,37.4253,40.0374,159.912,110.91,114.193,0.00040458,0.0600135,20.934,589.329,-0.263685,0.0,0.0
554,138.25,37.2379,39.9866,156.987,110.909,113.706,0.000373352,0.0598892,20.9341,589.329,-0.225123,0.0,0.0
556,138.75,36.98,39.5843,159.761,110.903,113.512,0.000348056,0.0596894,20.9342,589.339,-0.210183,0.0,0.0
558,139.25,37.2671,39.9491,157.355,110.906,113.585,0.00032037,0.0595276,20.9343,589.349,-0.215768,0.0,0.0
560,139.75,37.3001,39.6875,160.289,110.887,113.679,0.000291466,0.0593117,20.9344,589.339,-0.224799,0.0,0.0
562,140.25,37.2449,39.4328,162.265,110.893,113.996,0.000268054,0.0591368,20.9345,589.319,-0.249505,0.0,0.0
564,140.75,37.3899,39.5157,158.909,110.891,113.67,0.00024909,0.0589579,20.9345,589.329,-0.223749,0.0,0.0
566,141.25,37.1923,39.5089,159.729,110.883,113.948,0.000205152,0.0587795,20.9351,589.329,-0.246489,0.0,0.0
568,141.75,37.2963,39.268,159.365,110.874,114.209,0.000169562,0.0585606,20.9355,589.329,-0.267852,0.0,0.0
570,142.25,37.1043,39.2079,160.737,110.862,113.664,0.000127663,0.0583162,20.9358,589.329,-0.225615,0.0,0.0
572,142.75,36.8647,39.2031,163.076,110.868,113.701,8.1959e-05,0.0581183,20.9361,589.319,-0.22808,0.0,0.0
574,143.25,36.7281,39.3798,161.206,110.841,113.962,3.77492e-05,0.0578836,20.9363,589.309,-0.251045,0.0,0.0
576,143.75,37.4213,38.9634,163.364,110.856,113.889,-4.53174e-06,0.0576266,20.9365,589.309,-0.244003,0.0,0.0
578,144.25,37.0091,39.1084,160.39,110.832,113.517,-4.40083e-05,0.0574184,20.9367,589.309,-0.216401,0.0,0.0
580,144.75,36.7407,39.2578,166.551,110.831,113.918,-8.06905e-05,0.0571753,20.9368,589.299,-0.248346,0.0,0.0
582,145.25,36.9822,39.16,161.148,110.824,114.003,-0.000110403,0.0569115,20.9369,589.299,-0.255663,0.0,0.0
584,145.75,37.2821,39.5894,161.641,110.836,114.139,-0.000145647,0.0566978,20.9372,589.299,-0.265394,0.0,0.0
586,146.25,36.4862,38.8313,163.269,110.814,113.773,-0.000174195,0.0564541,20.9377,589.289,-0.238276,0.0,0.0
588,146.75,36.5816,38.7223,160.263,110.819,114.037,-0.000203528,0.0562566,20.938,589.299,-0.25875,0.0,0.0
590,147.25,36.31,38.8793,159.351,110.801,113.869,-0.000227288,0.0559696,20.9383,589.279,-0.246878,0.0,0.0
592,147.75,36.2004,38.835,159.037,110.796,114.19,-0.000242611,0.0557371,20.9386,589.289,-0.27269,0.0,0.0
594,148.25,36.9621,38.4382,159.971,110.784,113.725,-0.000251494,0.0554216,20.9388,589.289,-0.236876,0.0,0.0
596,148.75,36.8214,38.6971,158.808,110.797,114.544,-0.000258689,0.0551661,20.9389,589.269,-0.300596,0.0,0.0
598,149.25,36.0694,38.5773,155.106,110.761,113.64,-0.000253406,0.0548603,20.9391,589.279,-0.231965,0.0,0.0
600,149.75,35.8412,38.7868,162.28,110.761,113.452,-0.000239125,0.0546126,20.9392,589.289,-0.216954,0.0,0.0
602,150.25,36.7673,38.4888,162.654,110.734,113.908,-0.000220369,0.0543748,20.9393,589.279,-0.255428,0.0,0.0
604,150.75,36.2492,38.2741,157.575,110.741,113.64,-0.000198705,0.0541488,20.9393,589.279,-0.233669,0.0,0.0
606,151.25,36.4039,38.4028,160.972,110.708,113.758,-0.000179196,0.0539657,20.9394,589.279,-0.245676,0.0,0.0
608,151.75,36.5345,38.6618,159.091,110.723,113.561,-0.000161629,0.0537327,20.9394,589.269,-0.228762,0.0,0.0
610,152.25,35.9335,38.8531,157.369,110.703,113.387,-0.0001474,0.0535439,20.9395,589.269,-0.216533,0.0,0.0
612,152.75,36.7087,38.3909,159.736,110.705,114.203,-0.000143326,0.0533465,20.9397,589.269,-0.281257,0.0,0.0
614,153.25,36.3868,38.4855,162.075,110.688,113.684,-0.000140026,0.0531465,20.9402,589.269,-0.241468,0.0,0.0
616,153.75,36.3107,38.3082,155.527,110.684,113.66,-0.000151038,0.0529547,20.9403,589.269,-0.239863,0.0,0.0
618,154.25,36.3886,38.3875,161.494,110.672,113.619,-0.000169868,0.0527727,20.9406,589.269,-0.23751,0.0,0.0
620,154.75,36.4117,38.4257,159.194,110.661,113.853,-0.000202507,0.0526252,20.9411,589.269,-0.257023,0.0,0.0
622,155.25,35.9426,38.2828,161.423,110.644,112.959,-0.000228945,0.052407,20.9417,589.259,-0.187172,0.0,0.0
624,155.75,36.0286,38.334,160.669,110.65,114.075,-0.00025036,0.0522303,20.9422,589.259,-0.275576,0.0,0.0
626,156.25,36.3059,37.7404,163.643,110.626,113.793,-0.000259208,0.0520025,20.9426,589.259,-0.255104,0.0,0.0
628,156.75,36.2795,38.3165,154.323,110.623,114.117,-0.000258728,0.0519053,20.9429,589.259,-0.281109,0.0,0.0
630,157.25,36.2483,38.1416,157.57,110.598,113.513,-0.000247227,0.051697,20.9432,589.259,-0.235176,0.0,0.0
632,157.75,36.0733,38.4194,161.034,110.598,113.783,-0.000227912,0.0515282,20.9434,589.249,-0.256658,0.0,0.0
634,158.25,36.0666,38.0056,157.879,110.575,113.762,-0.000212266,0.0513914,20.9436,589.249,-0.256853,0.0,0.0
636,158.75,35.1641,37.6498,160.9,110.573,113.198,-0.000179723,0.0512102,20.9437,589.269,-0.212082,0.0,0.0
638,159.25,35.9853,38.1711,162.596,110.548,113.406,-0.000153363,0.0510633,20.9438,589.239,-0.230735,0.0,0.0
640,159.75,36.089,37.8599,159.114,110.545,113.843,-0.000122077,0.0508479,20.9439,589.229,-0.265783,0.0,0.0
642,160.25,35.9401,38.1941,160.873,110.54,113.834,-9.67345e-05,0.0505866,20.944,589.239,-0.265419,0.0,0.0
644,160.75,35.9947,38.2273,160.561,110.527,113.336,-7.86914e-05,0.0503305,20.944,589.239,-0.22683,0.0,0.0
646,161.25,36.0694,37.7692,158.226,110.492,113.813,-7.19199e-05,0.0500829,20.9441,589.239,-0.267686,0.0,0.0
648,161.75,35.9735,37.7749,162.467,110.477,113.745,-7.3494e-05,0.0498824,20.9446,589.229,-0.263536,0.0,0.0
650,162.25,35.8048,38.1528,161.109,110.457,113.181,-7.4769e-05,0.0497058,20.945,589.229,-0.220243,0.0,0.0
652,162.75,35.7962,37.9021,159.714,110.453,113.119,-8.75669e-05,0.0495629,20.9453,589.239,-0.215564,0.0,0.0
654,163.25,35.5719,37.5828,158.659,110.429,113.99,-0.000108522,0.0494189,20.9455,589.249,-0.286921,0.0,0.0
656,163.75,35.5704,37.6298,159.028,110.412,113.746,-0.000125495,0.0493022,20.9453,589.249,-0.268906,0.0,0.0
658,164.25,35.0943,37.8132,164.656,110.392,113.254,-0.000142512,0.0491654,20.9451,589.249,-0.231316,0.0,0.0
660,164.75,35.4186,37.9628,160.917,110.38,113.393,-0.000159237,0.0490547,20.9452,589.239,-0.243461,0.0,0.0
662,165.25,35.7659,37.7901,161.096,110.355,113.374,-0.000172784,0.0489353,20.9456,589.229,-0.244042,0.0,0.0
664,165.75,35.4337,37.6932,159.049,110.345,113.161,-0.000183757,0.0488119,20.9459,589.229,-0.227847,0.0,0.0
666,166.25,35.8182,37.5896,160.934,110.323,112.947,-0.000192645,0.0487119,20.9462,589.229,-0.212522,0.0,0.0
668,166.75,35.964,37.7578,162.83,110.304,113.001,-0.000202328,0.0486309,20.9464,589.219,-0.218372,0.0,0.0
670,167.25,35.659,37.8726,159.183,110.3,113.305,-0.000210171,0.0484526,20.9466,589.219,-0.242978,0.0,0.0
672,167.75,35.6151,37.7047,162.441,110.275,113.024,-0.000217155,0.0483082,20.9468,589.229,-0.222589,0.0,0.0
674,168.25,35.8315,37.8799,160.265,110.256,113.189,-0.000223379,0.0481348,20.947,589.229,-0.237407,0.0,0.0
676,168.75,35.5015,37.0598,162.496,110.227,113.532,-0.000236264,0.0479944,20.9473,589.219,-0.267066,0.0,0.0
678,169.25,35.4268,37.5622,162.079,110.217,112.988,-0.00025376,0.0478666,20.9474,589.209,-0.224404,0.0,0.0
680,169.75,35.5032,37.3659,164.778,110.217,113.657,-0.000267932,0.0477631,20.9476,589.209,-0.277882,0.0,0.0
682,170.25,35.3902,37.0487,161.407,110.191,113.004,-0.000287255,0.0476575,20.9477,589.209,-0.227919,0.0,0.0
684,170.75,35.5883,37.5523,156.621,110.184,113.23,-0.000309966,0.0475525,20.9478,589.209,-0.246564,0.0,0.0
686,171.25,35.5144,37.383,162.398,110.165,113.034,-0.000330976,0.0474526,20.9478,589.209,-0.232413,0.0,0.0
688,171.75,35.5493,37.3816,158.901,110.147,112.566,-0.000350347,0.0473584,20.9479,589.199,-0.196343,0.0,0.0
690,172.25,35.5107,37.4249,161.088,110.12,112.787,-0.000366038,0.047282,20.9479,589.209,-0.216402,0.0,0.0
692,172.75,35.9473,37.4748,158.176,110.096,113.442,-0.000386199,0.0472054,20.948,589.199,-0.270658,0.0,0.0
694,173.25,35.2317,37.0585,160.252,110.081,113.007,-0.000402529,0.0471299,20.948,589.199,-0.237176,0.0,0.0
696,173.75,35.1917,37.3943,159.6,110.04,112.74,-0.00041824,0.047054,20.9483,589.199,-0.219105,0.0,0.0
698,174.25,35.4731,37.3358,164.019,110.023,112.761,-0.000430966,0.0469791,20.9487,589.199,-0.222191,0.0,0.0
700,174.75,35.3298,37.4321,159.592,109.993,113.366,-0.000441275,0.0469185,20.949,589.179,-0.273059,0.0,0.0
702,175.25,35.57,37.3341,159.216,109.986,113.784,-0.000449624,0.0468131,20.9493,589.189,-0.306846,0.0,0.0
704,175.75,35.3755,36.7535,162.318,109.956,112.788,-0.000443968,0.0467277,20.9493,589.179,-0.229915,0.0,0.0
706,176.25,35.6791,37.5066,159.069,109.944,112.882,-0.000439387,0.0466726,20.9491,589.199,-0.238432,0.0,0.0
708,176.75,35.563,37.3697,161.567,109.908,112.67,-0.000435676,0.0466279,20.9489,589.189,-0.224361,0.0,0.0
710,177.25,35.5641,36.9784,163.685,109.898,113.281,-0.000409074,0.0465777,20.9487,589.189,-0.274079,0.0,0.0
712,177.75,35.824,37.394,159.745,109.867,113.855,-0.000387527,0.046537,20.9486,589.189,-0.322349,0.0,0.0
714,178.25,35.1644,37.2458,157.337,109.857,113.081,-0.000362884,0.0465115,20.9485,589.189,-0.261472,0.0,0.0
716,178.75,35.296,37.1742,161.53,109.837,112.415,-0.000336452,0.0464975,20.9485,589.179,-0.209723,0.0,0.0
718,179.25,35.2569,37.0836,158.091,109.813,112.773,-0.000318964,0.0464935,20.9484,589.189,-0.240434,0.0,0.0
720,179.75,35.4742,36.9204,158.059,109.796,112.925,-0.000308328,0.046497,20.9483,589.189,-0.254086,0.0,0.0
722,180.25,35.1649,37.257,165.983,109.784,112.291,-0.000310824,0.0464998,20.9483,589.189,-0.204168,0.0,0.0
724,180.75,35.5934,37.1244,157.62,109.755,112.182,-0.000322848,0.0464724,20.9487,589.179,-0.197701,0.0,0.0
726,181.25,34.9052,37.187,160.147,109.745,112.895,-0.000343698,0.0464236,20.949,589.179,-0.255816,0.0,0.0
728,181.75,35.4837,37.3268,161.308,109.72,112.83,-0.000370587,0.0463692,20.9493,589.169,-0.252672,0.0,0.0
730,182.25,35.1237,37.3656,159.503,109.718,113.019,-0.000400211,0.0463118,20.9495,589.179,-0.267953,0.0,0.0
732,182.75,35.2687,36.8713,164.812,109.684,112.865,-0.000431266,0.0462653,20.9497,589.179,-0.258424,0.0,0.0
734,183.25,35.1191,36.7414,158.046,109.683,112.934,-0.000456421,0.0462276,20.9499,589.169,-0.264004,0.0,0.0
736,183.75,35.2313,36.4262,160.212,109.653,112.782,-0.000489214,0.0461971,20.95,589.159,-0.254339,0.0,0.0
738,184.25,35.4864,37.0068,163.499,109.645,112.647,-0.000526955,0.0461583,20.9501,589.159,-0.244169,0.0,0.0
740,184.75,35.2175,37.3775,158.046,109.64,112.84,-0.000567982,0.0461269,20.9501,589.169,-0.260051,0.0,0.0
742,185.25,35.0901,36.8353,158.339,109.614,113.385,-0.000610627,0.046017,20.9502,589.159,-0.305737,0.0,0.0
744,185.75,35.2375,36.937,160.771,109.572,112.674,-0.000651705,0.045928,20.9502,589.159,-0.252349,0.0,0.0
746,186.25,35.0623,36.7288,160.419,109.57,112.267,-0.000690861,0.0458484,20.9503,589.149,-0.219814,0.0,0.0
748,186.75,35.5591,36.8083,160.212,109.543,112.841,-0.000722577,0.0457773,20.9503,589.149,-0.268099,0.0,0.0
750,187.25,34.9228,36.797,160.497,109.527,112.594,-0.000748267,0.0457198,20.9503,589.149,-0.249661,0.0,0.0
752,187.75,34.8156,36.7764,162.192,109.519,112.794,-0.000757899,0.0456872,20.9504,589.159,-0.266383,0.0,0.0
754,188.25,34.9001,36.8925,161.289,109.516,112.68,-0.000765701,0.0456608,20.9509,589.159,-0.257479,0.0,0.0
756,188.75,34.6952,37.0152,159.065,109.478,112.731,-0.000772043,0.0456254,20.9514,589.169,-0.26472,0.0,0.0
758,189.25,35.4666,36.4173,163.128,109.472,112.53,-0.0007772,0.0455967,20.9516,589.159,-0.24908,0.0,0.0
760,189.75,34.7309,37.0599,159.712,109.446,112.49,-0.000785952,0.0455734,20.9517,589.159,-0.247952,0.0,0.0
762,190.25,34.8397,36.7731,164.882,109.437,112.318,-0.000797159,0.0454842,20.9518,589.149,-0.234935,0.0,0.0
764,190.75,35.0464,36.287,162.04,109.414,112.845,-0.000806237,0.0454119,20.9519,589.149,-0.279146,0.0,0.0
766,191.25,35.2921,36.5551,159.394,109.396,112.799,-0.000817512,0.0453751,20.952,589.159,-0.276887,0.0,0.0
768,191.75,35.4856,36.5939,160.606,109.388,112.208,-0.000830174,0.0453647,20.9521,589.159,-0.230085,0.0,0.0
770,192.25,35.1172,36.2425,157.363,109.386,112.679,-0.000837816,0.0453934,20.9522,589.159,-0.268079,0.0,0.0
772,192.75,34.5986,36.5703,161.963,109.355,112.562,-0.000841652,0.0454499,20.9522,589.159,-0.261266,0.0,0.0
774,193.25,35.1427,36.6771,158.571,109.359,112.587,-0.000839531,0.0454958,20.9522,589.149,-0.262963,0.0,0.0
776,193.75,34.6721,36.6119,161.201,109.327,112.861,-0.000833107,0.0454766,20.9523,589.149,-0.287578,0.0,0.0
778,194.25,35.1309,36.4365,166.494,109.323,111.719,-0.000827904,0.045461,20.9523,589.159,-0.195991,0.0,0.0
780,194.75,35.0258,36.4604,161.544,109.301,112.747,-0.000805061,0.0454484,20.9523,589.149,-0.280663,0.0,0.0
782,195.25,35.0724,36.2796,163.903,109.291,112.769,-0.000786558,0.0453819,20.9523,589.149,-0.283209,0.0,0.0
784,195.75,35.0415,36.5019,163.656,109.277,112.39,-0.000761636,0.0453206,20.9526,589.149,-0.253934,0.0,0.0
786,196.25,35.1661,36.7082,160.609,109.267,112.288,-0.000741449,0.0452643,20.953,589.149,-0.246557,0.0,0.0
788,196.75,34.496,36.2042,160.601,109.255,112.448,-0.000725098,0.0452187,20.9531,589.129,-0.260401,0.0,0.0
790,197.25,35.1782,36.2959,162.002,109.253,112.07,-0.000711853,0.0451536,20.9529,589.129,-0.230172,0.0,0.0
792,197.75,35.2066,36.4062,160.888,109.222,112.138,-0.000701125,0.0451009,20.9528,589.139,-0.238125,0.0,0.0
794,198.25,34.937,36.1626,160.249,109.213,111.852,-0.000679873,0.0450441,20.9532,589.139,-0.215834,0.0,0.0
796,198.75,35.0656,36.4169,160.38,109.202,112.141,-0.000674157,0.0449981,20.9533,589.139,-0.24002,0.0,0.0
798,199.25,34.9313,36.457,159.841,109.179,111.903,-0.00067179,0.0450031,20.9536,589.139,-0.222707,0.0,0.0
800,199.75,34.7844,36.3543,158.699,109.167,112.351,-0.000669873,0.0450071,20.9538,589.139,-0.259818,0.0,0.0
802,200.25,35.029,36.4318,160.158,109.174,112.375,-0.000682046,0.04504,20.954,589.139,-0.26122,0.0,0.0
804,200.75,34.6388,36.6226,163.135,109.167,111.93,-0.00070426,0.0450933,20.9538,589.129,-0.225903,0.0,0.0
806,201.25,34.7595,36.2688,159.699,109.146,111.983,-0.000731405,0.0451549,20.9537,589.119,-0.231952,0.0,0.0
808,201.75,35.0165,36.5966,160.777,109.132,112.487,-0.000761627,0.0451424,20.9536,589.139,-0.273655,0.0,0.0
810,202.25,34.6125,36.0795,160.858,109.121,111.584,-0.000788722,0.045121,20.9536,589.139,-0.201784,0.0,0.0
812,202.75,34.8188,36.4629,159.927,109.116,112.305,-0.000813022,0.0450614,20.9535,589.139,-0.260448,0.0,0.0
814,203.25,34.8285,36.3103,158.844,109.101,111.733,-0.00083009,0.0450132,20.9534,589.149,-0.215504,0.0,0.0
816,203.75,34.3375,36.3566,160.758,109.099,112.281,-0.000841562,0.0449741,20.9534,589.139,-0.25993,0.0,0.0
818,204.25,35.247,36.4238,161.571,109.088,112.112,-0.000850855,0.0449284,20.9534,589.129,-0.247164,0.0,0.0
820,204.75,35.0284,36.316,156.736,109.088,111.765,-0.000859036,0.0449136,20.9533,589.119,-0.219109,0.0,0.0
822,205.25,35.089,36.3962,158.169,109.074,112.349,-0.00086625,0.0449216,20.9533,589.139,-0.267439,0.0,0.0
824,205.75,35.1821,36.2589,161.706,109.071,112.1,-0.000874709,0.0449429,20.9533,589.129,-0.247658,0.0,0.0
826,206.25,34.7718,36.7493,161.46,109.062,111.655,-0.000883913,0.0449735,20.9537,589.119,-0.212359,0.0,0.0
828,206.75,35.204,36.0048,161.394,109.053,112.026,-0.000898558,0.0449982,20.9541,589.119,-0.243171,0.0,0.0
830,207.25,34.8242,36.2621,160.988,109.053,111.81,-0.000916892,0.0450042,20.9544,589.119,-0.225686,0.0,0.0
832,207.75,35.0228,36.2983,158.901,109.05,112.583,-0.000940893,0.0450091,20.9546,589.119,-0.288278,0.0,0.0
834,208.25,34.6674,36.3102,159.123,109.05,111.545,-0.000968569,0.0449834,20.9543,589.119,-0.204495,0.0,0.0
836,208.75,34.6352,35.8535,158.502,109.038,112.266,-0.000990987,0.0449359,20.9541,589.119,-0.2637,0.0,0.0
838,209.25,34.8655,36.2791,161.557,109.033,112.004,-0.00102405,0.04489,20.954,589.099,-0.243065,0.0,0.0
840,209.75,34.4505,36.2816,161.252,109.044,112.176,-0.00105083,0.0448462,20.9541,589.109,-0.255975,0.0,0.0
842,210.25,34.7708,36.1617,156.748,109.041,111.911,-0.00107252,0.0448107,20.9543,589.119,-0.234813,0.0,0.0
844,210.75,34.6091,35.8107,161.812,109.034,111.596,-0.00108358,0.0447538,20.9546,589.109,-0.209955,0.0,0.0
846,211.25,35.0199,35.9846,158.793,109.018,111.891,-0.00108667,0.0447077,20.9538,589.109,-0.235168,0.0,0.0
848,211.75,34.6613,36.1645,157.359,109.029,112.464,-0.00108917,0.0446704,20.9531,589.119,-0.280421,0.0,0.0
850,212.25,34.9407,36.2526,163.833,109.018,112.318,-0.0010527,0.0446401,20.9526,589.109,-0.269622,0.0,0.0
852,212.75,34.7464,35.8038,162.138,109.023,112.592,-0.00102316,0.0446156,20.9521,589.099,-0.291172,0.0,0.0
854,213.25,34.7169,36.1444,161.383,109.008,111.992,-0.000979364,0.0446229,20.9518,589.099,-0.244065,0.0,0.0
856,213.75,35.0159,35.9018,161.232,109.027,112.34,-0.000943888,0.0446288,20.9519,589.099,-0.270678,0.0,0.0
858,214.25,34.7537,35.7809,161.877,109.011,112.152,-0.000915805,0.0446335,20.952,589.099,-0.256774,0.0,0.0
860,214.75,34.6235,36.0084,157.498,109.021,112.323,-0.000893647,0.0446233,20.9521,589.099,-0.269735,0.0,0.0
862,215.25,34.4521,36.0571,157.679,109.022,111.965,-0.000878967,0.0446151,20.9522,589.099,-0.240799,0.0,0.0
864,215.75,34.6757,35.9076,161.777,109.035,112.274,-0.000870018,0.0445862,20.9523,589.099,-0.264684,0.0,0.0
866,216.25,34.706,36.0547,157.814,109.037,112.932,-0.000865252,0.0445427,20.9524,589.089,-0.317274,0.0,0.0
868,216.75,34.7257,35.6968,161.831,109.039,112.664,-0.000861393,0.0445076,20.9524,589.089,-0.295576,0.0,0.0
870,217.25,35.3366,35.9205,161.297,109.028,112.218,-0.000856959,0.0444791,20.9524,589.089,-0.260638,0.0,0.0
872,217.75,34.5257,36.243,162.64,109.042,112.415,-0.000852191,0.0444634,20.9525,589.069,-0.275372,0.0,0.0
874,218.25,34.978,36.1975,160.464,109.046,112.841,-0.000848329,0.0444574,20.9525,589.079,-0.309292,0.0,0.0
876,218.75,34.7069,35.6506,159.956,109.065,112.068,-0.000842717,0.0444673,20.9523,589.069,-0.245524,0.0,0.0
878,219.25,34.7633,36.1603,157.466,109.041,112.025,-0.000838171,0.0444887,20.9519,589.069,-0.244117,0.0,0.0
880,219.75,34.5153,36.5492,159.624,109.075,112.088,-0.000839718,0.044506,20.9516,589.069,-0.24627,0.0,0.0
882,220.25,34.8611,36.1853,156.723,109.062,112.007,-0.000845677,0.04452,20.9513,589.069,-0.240849,0.0,0.0
884,220.75,34.7551,35.8156,162.644,109.073,111.802,-0.000856386,0.0445314,20.9511,589.069,-0.223383,0.0,0.0
886,221.25,34.4988,35.8158,158.323,109.065,112.351,,0.0445265,,589.069,-0.268296,0.0,0.0
888,221.75,34.4776,35.6324,156.896,109.085,112.659,,0.0445226,,589.069,-0.291465,0.0,0.0
890,222.25,34.7857,35.9447,160.206,109.079,112.224,,0.0445194,,589.089,-0.256903,0.0,0.0
892,222.75,34.5306,36.0521,160.032,109.108,112.453,,0.0445168,,589.099,-0.27295,0.0,0.0
894,223.25,34.8565,35.9624,155.728,109.101,112.421,,0.0444925,,589.079,-0.271017,0.0,0.0
896,223.75,34.8579,35.9941,160.576,109.105,112.116,,0.0444528,,589.069,-0.246058,0.0,0.0
898,224.25,34.7754,35.5128,155.058,109.103,112.556,,,,589.069,-0.281683,0.0,0.0
900,224.75,35.0746,36.0165,159.425,109.129,112.364,,,,589.059,-0.264031,0.0,0.0
902,225.25,34.474,35.8577,159.263,109.132,111.802,,,,589.059,-0.218505,0.0,0.0
904,225.75,34.4095,36.1147,157.372,109.136,112.4,,,,589.069,-0.266409,0.0,0.0
906,226.25,34.431,35.7844,165.037,109.136,112.392,,,,589.069,-0.265759,0.0,0.0
908,226.75,34.4568,35.7238,162.818,109.164,112.176,,,,589.059,-0.246023,0.0,0.0
910,227.25,34.5491,35.6158,163.705,109.158,112.535,,,,589.059,-0.275422,0.0,0.0
912,227.75,34.5762,35.5291,160.363,109.184,112.287,,,,589.059,-0.253332,0.0,0.0
914,228.25,35.0092,35.7009,163.055,109.187,111.766,,,,589.049,-0.210971,0.0,0.0
916,228.75,34.2177,35.6457,161.663,109.206,112.545,,,,589.049,-0.27224,0.0,0.0
918,229.25,34.8075,35.7481,161.152,109.221,112.812,,,,589.059,-0.292409,0.0,0.0
920,229.75,34.7743,36.0879,157.551,109.228,112.603,,,,589.059,-0.275072,0.0,0.0
922,230.25,34.5418,35.6585,160.29,109.233,112.496,,,,589.049,-0.266023,0.0,0.0
924,230.75,35.1517,35.7569,163.99,109.263,112.595,,,,589.059,-0.271603,0.0,0.0
926,231.25,34.483,35.6923,158.817,109.256,112.092,,,,589.059,-0.231628,0.0,0.0
928,231.75,34.8363,35.839,158.81,109.266,112.326,,,,589.059,-0.249647,0.0,0.0
929,232,34.562,35.6954,160.282,109.271,113.112,,,,589.049,-0.312303,0.0,0.0