File: 01_Data/Rug_Pad/Cone/Rug_Pad_Cone_HF75Scan_220920_R2.csv
Names,Time,Stack TC,Smoke TC,Exh Press,Smoke Comp,Smoke Meas,CO Meter,CO2 Meter,O2 Meter,Sample Mass,Ext Coeff,Start Test,Flame Verif
Chan Gain,,500,500,1,1,1,1,1,1,1,1,1.0,1.0
Offset,,0,0,0.143022,0,0,0,0,0,0,0,0.0,0.0
Gain,,1,1,25.011,14.5176,16.5692,1,1,1,1.00088,1.03055,1.0,1.0
Units,sec,C,C,Pa,%,%,%,%,%,g,/m,,
Baseline,,57.5973,59.6691,151.482,109.347,113.961,-0.00102751,0.0434148,20.9502,-448.099,-0.373539,,
3,0.5,56.122,58.4549,151.187,109.218,112.769,-0.000939276,0.0441636,20.9534,589.88,-0.289261,0.0,0.0
6,1.25,56.3197,58.248,149.794,109.201,113.972,-0.000892275,0.0444414,20.9526,590.29,-0.386572,0.0,0.0
9,2,56.0779,58.3466,150.321,109.233,114.375,-0.000725123,0.0452064,20.9511,590.26,-0.415841,0.0,0.0
12,2.75,56.4402,58.1998,152.433,109.228,111.541,-0.000449665,0.0474151,20.9497,590.12,-0.189416,0.0,0.0
15,3.5,56.237,58.1624,149.907,109.232,111.043,-8.30682e-05,0.0518484,20.9449,590.07,-0.148633,0.0,1.0
18,4.25,56.1344,58.4731,145.748,109.237,107,0.000382859,0.0636956,20.935,589.87,0.187101,0.0,1.0
21,5,56.2609,58.3398,142.115,109.225,98.6879,0.00106226,0.076005,20.9091,589.94,0.917083,0.0,1.0
24,5.75,56.5265,58.6766,140.144,109.235,92.4314,0.00195272,0.101675,20.8672,589.83,1.50996,0.0,1.0
27,6.5,57.3416,58.6229,140.347,109.26,91.8393,0.00276423,0.120389,20.8182,589.81,1.57014,0.0,1.0
30,7.25,57.1055,58.2967,139.735,109.229,91.5951,0.00363349,0.153195,20.7677,589.83,1.59168,0.0,1.0
33,8,56.9057,58.2857,134.791,109.232,92.2246,0.00477153,0.182264,20.7101,589.74,1.52999,0.0,0.0
36,8.75,57.7042,58.3611,139.222,109.272,88.2189,0.00560115,0.212268,20.6592,589.67,1.93475,0.0,0.0
39,9.5,58.2072,58.9428,133.749,109.27,85.1192,0.00703914,0.247718,20.6064,589.6,2.25787,0.0,0.0
42,10.25,59.0038,59.5692,134.699,109.253,82.2825,0.00835052,0.284342,20.5612,589.52,2.56291,0.0,0.0
45,11,59.8653,60.246,129.807,109.249,79.105,0.00975638,0.315638,20.5043,589.44,2.9186,0.0,0.0
48,11.75,61.2766,61.0151,129.663,109.25,73.7679,0.0112054,0.353759,20.4502,589.349,3.55014,0.0,0.0
51,12.5,62.3631,61.7975,126.33,109.259,73.3285,0.0128116,0.388075,20.3757,589.249,3.60488,0.0,0.0
54,13.25,63.7371,62.7581,122.787,109.26,68.3266,0.0143006,0.434755,20.2982,589.149,4.24362,0.0,0.0
57,14,64.4159,63.6154,127.227,109.274,69.215,0.015661,0.475555,20.2095,589.039,4.12801,0.0,0.0
60,14.75,65.8899,64.991,127.185,109.267,68.8646,0.0169454,0.516874,20.1371,588.889,4.17327,0.0,0.0
63,15.5,67.2766,66.3535,127.526,109.288,72.1179,0.0180064,0.5618,20.0712,588.789,3.75778,0.0,0.0
66,16.25,69.0729,67.2193,118.229,109.293,65.6694,0.0192395,0.602482,20.0116,588.609,4.60491,0.0,0.0
69,17,69.8316,68.3558,121.502,109.267,64.9857,0.02027,0.63846,19.9633,588.549,4.69735,0.0,0.0
72,17.75,71.1366,69.8229,113.77,109.28,68.1268,0.0210772,0.669715,19.928,588.389,4.27174,0.0,0.0
75,18.5,72.2959,70.9256,123.074,109.291,64.9559,0.0217192,0.694717,19.9023,588.319,4.70348,0.0,0.0
78,19.25,73.9207,72.5619,120.602,109.295,65.4873,0.0221375,0.71389,19.8836,588.178,4.63015,0.0,0.0
81,20,74.8693,73.968,118.499,109.28,65.2937,0.0223577,0.724364,19.8712,588.098,4.65572,0.0,0.0
84,20.75,76.2832,74.5961,122.36,109.28,68.4848,0.0222521,0.726928,19.8746,587.988,4.22432,0.0,0.0
87,21.5,76.3537,75.5707,129.448,109.283,71.7215,0.0218687,0.726637,19.8917,587.908,3.80717,0.0,0.0
90,22.25,76.9837,76.5012,125.362,109.282,69.1791,0.0214587,0.711822,19.9201,587.798,4.13332,0.0,0.0
93,23,77.65,77.35,130.489,109.287,73.6339,0.0207402,0.690829,19.9511,587.718,3.56958,0.0,0.0
96,23.75,78.1157,78.0569,136.15,109.287,75.6095,0.0198028,0.67118,19.9912,587.648,3.33027,0.0,0.0
99,24.5,78.7329,78.6903,134.695,109.289,79.0246,0.0187177,0.637776,20.0521,587.668,2.93105,0.0,0.0
102,25.25,78.5648,78.9999,134.607,109.307,84.654,0.0173387,0.600776,20.1142,587.598,2.31049,0.0,0.0
105,26,78.3788,78.7096,140.636,109.288,85.1385,0.0164197,0.56841,20.1512,587.498,2.25737,0.0,0.0
108,26.75,78.9286,79.2623,138.097,109.294,88.8616,0.0150831,0.527838,20.205,587.478,1.87093,0.0,0.0
111,27.5,78.3573,79.5348,143.476,109.29,93.6759,0.01378,0.488763,20.2629,587.458,1.39361,0.0,0.0
114,28.25,78.3927,79.6745,139.301,109.309,96.2446,0.0122678,0.452156,20.3272,587.438,1.15067,0.0,0.0
117,29,78.2025,79.5005,145.434,109.307,98.4998,0.0107169,0.428561,20.3806,587.428,0.941147,0.0,0.0
120,29.75,77.8523,79.2402,144.152,109.313,102.358,0.00958627,0.401302,20.4307,587.378,0.594299,0.0,0.0
123,30.5,77.8829,79.2399,147.976,109.297,105.143,0.00825726,0.367577,20.4788,587.348,0.350258,0.0,0.0
126,31.25,77.0505,79.481,148.126,109.318,107.014,0.00718892,0.338279,20.5188,587.338,0.192497,0.0,0.0
129,32,77.1025,79.2404,141.885,109.307,108.105,0.00623997,0.314911,20.563,587.298,0.0999538,0.0,0.0
132,32.75,76.6901,79.0945,144.14,109.313,111.273,0.00538418,0.292773,20.602,587.268,-0.160673,0.0,0.0
135,33.5,76.446,79.0652,146.493,109.324,111.545,0.00468468,0.274458,20.6332,587.268,-0.181753,0.0,0.0
138,34.25,75.9791,79.2589,148.975,109.32,111.241,0.0041425,0.255792,20.6648,587.218,-0.157458,0.0,0.0
141,35,75.7289,78.5988,144.557,109.312,112.494,0.00367188,0.240683,20.6919,587.198,-0.259376,0.0,0.0
144,35.75,75.3882,78.6952,145.229,109.31,113.2,0.00330492,0.227101,20.7151,587.218,-0.316143,0.0,0.0
147,36.5,75.435,78.6111,148.227,109.311,113.61,0.00302722,0.214,20.7353,587.208,-0.348645,0.0,0.0
150,37.25,75.3658,77.8348,145.129,109.322,113.08,0.00283358,0.202818,20.7526,587.137,-0.305542,0.0,0.0
153,38,74.6523,77.906,150.335,109.328,113.923,0.00272256,0.193155,20.7671,587.127,-0.372165,0.0,0.0
156,38.75,74.4585,78.0537,145.619,109.317,113.578,0.00265289,0.184717,20.7789,587.107,-0.345635,0.0,0.0
159,39.5,74.2804,78.0552,149.92,109.317,113.536,0.00264158,0.177245,20.7892,587.127,-0.342371,0.0,0.0
162,40.25,73.799,77.576,149.105,109.305,113.528,0.0026497,0.171235,20.7982,587.127,-0.342674,0.0,0.0
165,41,74.0082,77.2555,146.992,109.306,114.321,0.0026626,0.165273,20.806,587.087,-0.405555,0.0,0.0
168,41.75,73.2309,77.2311,149.048,109.317,113.883,0.00266123,0.160101,20.8121,587.067,-0.36987,0.0,0.0
171,42.5,72.5434,76.6847,146.622,109.301,113.549,0.00265227,0.155979,20.8174,587.057,-0.344736,0.0,0.0
174,43.25,72.6353,76.5778,148.205,109.304,113.479,0.00263216,0.151589,20.8231,587.037,-0.338842,0.0,0.0
177,44,72.5767,76.534,150.351,109.309,113.59,0.00260616,0.147642,20.8275,587.047,-0.347296,0.0,0.0
180,44.75,72.6802,76.3696,146.635,109.302,114.459,0.00258239,0.144445,20.8311,587.017,-0.416758,0.0,0.0
183,45.5,71.8497,75.913,151.285,109.307,112.771,0.00255609,0.14107,20.8346,586.997,-0.282052,0.0,0.0
186,46.25,71.6119,75.9347,147.106,109.301,113.944,0.00254072,0.138387,20.8388,586.957,-0.376081,0.0,0.0
189,47,71.6909,75.494,146.438,109.33,113.399,0.00254311,0.136049,20.8405,586.927,-0.330313,0.0,0.0
192,47.75,71.3563,75.7047,150.024,109.3,113.202,0.00255437,0.134126,20.8431,586.897,-0.317111,0.0,0.0
195,48.5,70.8109,75.7376,143.519,109.309,112.771,0.00256258,0.132539,20.8451,586.927,-0.281832,0.0,0.0
198,49.25,71.0193,75.2492,147.758,109.314,113.516,0.00255724,0.13087,20.8464,586.897,-0.340979,0.0,0.0
201,50,70.5044,75.0432,148.115,109.33,114.149,0.00254851,0.130192,20.8475,586.857,-0.389973,0.0,0.0
204,50.75,70.3853,74.8317,150.971,109.319,113.706,0.00254216,0.129425,20.8482,586.877,-0.355665,0.0,0.0
207,51.5,70.4029,74.6917,147.305,109.311,112.569,0.0024822,0.128807,20.8485,586.907,-0.265498,0.0,0.0
210,52.25,70.067,74.2874,147.858,109.312,113.062,0.0023984,0.128212,20.8484,586.837,-0.304929,0.0,0.0
213,53,69.5668,74.1491,147.704,109.331,113.857,0.00230904,0.127778,20.8484,586.827,-0.366727,0.0,0.0
216,53.75,69.8945,74.1373,148.241,109.321,113.289,0.00223638,0.126797,20.8488,586.857,-0.322254,0.0,0.0
219,54.5,69.4944,74.0166,152.258,109.317,113.356,0.00218415,0.126082,20.8493,586.847,-0.327986,0.0,0.0
222,55.25,69.38,74.1073,147.959,109.305,113.996,0.00215286,0.125332,20.8496,586.847,-0.379886,0.0,0.0
225,56,69.4552,73.6063,147.425,109.314,113.956,0.00214796,0.124693,20.8499,586.827,-0.375982,0.0,0.0
228,56.75,69.0809,73.3285,150.4,109.304,113.984,0.00215568,0.12407,20.85,586.797,-0.379034,0.0,0.0
231,57.5,68.9345,73.8223,147.902,109.321,113.105,0.00216613,0.123429,20.8502,586.807,-0.307596,0.0,0.0
234,58.25,69.128,73.0159,146.095,109.309,114.078,0.00215989,0.122875,20.8503,586.747,-0.386046,0.0,0.0
237,59,68.8876,73.0842,146.989,109.31,113.437,0.00213127,0.12241,20.8503,586.767,-0.334985,0.0,0.0
240,59.75,68.4682,72.772,145.613,109.321,113.909,0.0020652,0.122033,20.8504,586.717,-0.371664,0.0,0.0
243,60.5,68.8125,73.2408,144.612,109.301,113.37,0.00196062,0.121699,20.8504,586.707,-0.330397,0.0,0.0
246,61.25,68.2506,73.2079,148.927,109.306,112.663,0.00179868,0.121344,20.8505,586.747,-0.273447,0.0,0.0
249,62,67.713,72.5128,148.517,109.318,113.156,0.00164841,0.121194,20.8505,586.707,-0.31193,0.0,0.0
252,62.75,68.1726,72.4034,147.738,109.313,112.241,0.00148374,0.120905,20.8505,586.707,-0.238923,0.0,0.0
255,63.5,67.9377,72.5023,144.497,109.297,112.947,0.00131208,0.120584,20.8505,586.727,-0.296916,0.0,0.0
258,64.25,67.6065,72.8814,148.591,109.299,112.996,0.00118694,0.120245,20.8505,586.707,-0.300731,0.0,0.0
261,65,67.3221,72.235,145.895,109.312,113.116,0.0010637,0.119853,20.8505,586.677,-0.309214,0.0,0.0
264,65.75,67.6679,72.372,147.503,109.319,112.728,0.000982581,0.119544,20.8505,586.647,-0.277584,0.0,0.0
267,66.5,67.4201,71.8801,146.297,109.31,113.562,0.000935701,0.11928,20.8505,586.617,-0.344969,0.0,0.0
270,67.25,67.7405,72.2278,148.734,109.306,112.037,0.000916117,0.118963,20.8505,586.607,-0.223082,0.0,0.0
273,68,67.2446,71.8053,148.34,109.318,112.899,0.000912518,0.118693,20.8505,586.587,-0.291348,0.0,0.0
276,68.75,67.1211,71.7588,145.476,109.333,112.778,0.000902409,0.118432,20.8505,586.587,-0.280461,0.0,0.0
279,69.5,67.0523,71.9321,149.891,109.333,112.985,0.000882658,0.118256,20.8505,586.567,-0.297023,0.0,0.0
282,70.25,67.4267,72.1668,145.675,109.35,113.112,0.000852545,0.118087,20.8505,586.587,-0.305781,0.0,0.0
285,71,66.8306,71.661,147.277,109.356,112.879,0.000813538,0.117886,20.8505,586.577,-0.28666,0.0,0.0
288,71.75,66.7349,71.4962,149.455,109.377,111.639,0.000755936,0.117471,20.8512,586.567,-0.185051,0.0,0.0
291,72.5,66.7733,71.4209,145.633,109.377,112.602,0.000702735,0.116979,20.8516,586.557,-0.262683,0.0,0.0
294,73.25,66.7727,71.4956,147.66,109.379,112.425,0.000659172,0.116426,20.852,586.507,-0.248354,0.0,0.0
297,74,66.4545,70.9289,145.715,109.375,112.657,0.00062807,0.115827,20.8522,586.497,-0.267286,0.0,0.0
300,74.75,66.5724,71.0937,147.987,109.409,113.466,0.00061296,0.115192,20.8526,586.457,-0.329114,0.0,0.0
303,75.5,66.5891,71.2063,147.748,109.413,113.247,0.000599239,0.11439,20.8539,586.467,-0.311328,0.0,0.0
306,76.25,66.0939,70.6846,143.929,109.412,112.257,0.000589583,0.113806,20.8555,586.447,-0.231982,0.0,0.0
309,77,66.0529,70.8666,147.838,109.441,113.284,0.000572183,0.112946,20.857,586.437,-0.312005,0.0,0.0
312,77.75,65.8953,70.9396,147.522,109.457,111.734,0.000542688,0.112491,20.8588,586.427,-0.186124,0.0,0.0
315,78.5,66.0787,70.7416,147.228,109.457,113.554,0.000494341,0.111947,20.8601,586.417,-0.332209,0.0,0.0
318,79.25,66.1942,70.7447,148.144,109.464,112.863,0.00041319,0.11157,20.861,586.417,-0.276432,0.0,0.0
321,80,65.8924,70.5073,143.621,109.474,112.812,0.000290235,0.111194,20.8617,586.447,-0.271499,0.0,0.0
324,80.75,65.9338,70.1264,149.795,109.488,113.538,0.000169553,0.110824,20.8622,586.377,-0.3284,0.0,0.0
327,81.5,65.8423,69.9643,148.964,109.502,113.064,6.57244e-05,0.110463,20.8625,586.397,-0.289351,0.0,0.0
330,82.25,65.654,70.3125,147.541,109.508,112.836,-1.44375e-05,0.110093,20.8628,586.327,-0.270663,0.0,0.0
333,83,65.6536,70.2308,146.096,109.519,112.976,-5.17629e-05,0.109641,20.863,586.377,-0.280923,0.0,0.0
336,83.75,65.6141,70.032,147.771,109.545,113.994,-6.99724e-05,0.109106,20.8631,586.347,-0.359848,0.0,0.0
339,84.5,65.6535,70.0551,149.631,109.554,113.035,-3.36453e-05,0.108614,20.8637,586.327,-0.282727,0.0,0.0
342,85.25,65.9448,70.0148,147.792,109.556,112.796,1.24629e-05,0.108152,20.8643,586.307,-0.263397,0.0,0.0
345,86,65.6399,69.854,149.269,109.566,113.262,7.96358e-05,0.107711,20.8647,586.297,-0.299916,0.0,0.0
348,86.75,65.2542,69.9715,147.877,109.586,113.48,0.000153444,0.107246,20.8655,586.297,-0.315649,0.0,0.0
351,87.5,65.2803,69.8217,142.549,109.609,114.622,0.000220938,0.106906,20.8664,586.267,-0.404287,0.0,0.0
354,88.25,65.2643,69.472,146.11,109.614,113.337,0.000275977,0.106391,20.8675,586.257,-0.301903,0.0,0.0
357,89,65.3162,69.4011,148.873,109.633,114.247,0.000339184,0.105872,20.8688,586.237,-0.372716,0.0,0.0
360,89.75,65.2139,69.7615,150.134,109.633,113.726,0.00039398,0.105246,20.8699,586.207,-0.331411,0.0,0.0
363,90.5,64.8574,69.5094,146.31,109.654,113.821,0.000438298,0.104564,20.8707,586.217,-0.33717,0.0,0.0
366,91.25,65.216,69.3575,144.97,109.655,113.699,0.000471727,0.103879,20.8719,586.197,-0.327373,0.0,0.0
369,92,65.1418,69.276,149.486,109.655,113.532,0.000492163,0.1033,20.8728,586.197,-0.314137,0.0,0.0
372,92.75,64.7837,69.1834,149.977,109.684,114.306,0.000500336,0.102488,20.8741,586.177,-0.373158,0.0,0.0
375,93.5,64.428,69.1479,146.715,109.698,113.517,0.000496333,0.101567,20.8752,586.157,-0.30935,0.0,0.0
378,94.25,65.0702,69.1249,145.052,109.712,114.196,0.000489169,0.100896,20.8765,586.167,-0.3621,0.0,0.0
381,95,64.8298,69.4082,144.846,109.715,112.96,0.00048217,0.100057,20.8774,586.167,-0.263479,0.0,0.0
384,95.75,64.7498,69.0079,148.515,109.729,113.295,0.000484539,0.0993405,20.8781,586.157,-0.2891,0.0,0.0
387,96.5,64.4629,68.8915,147.111,109.739,114.369,0.000489449,0.0986367,20.8785,586.167,-0.37359,0.0,0.0
390,97.25,64.5186,69.1362,148.566,109.758,113.215,0.000502207,0.0980006,20.879,586.157,-0.280388,0.0,0.0
393,98,64.5123,68.9957,145.236,109.768,113.951,0.000531134,0.0974612,20.8794,586.147,-0.338144,0.0,0.0
396,98.75,64.5921,69.0145,148.837,109.773,113.958,0.000558949,0.0969387,20.881,586.087,-0.338227,0.0,0.0
399,99.5,64.2528,68.4931,148.347,109.791,114.508,0.000578571,0.0965578,20.8821,586.077,-0.380264,0.0,0.0
402,100.25,64.1825,68.0282,148.803,109.813,112.805,0.000591754,0.0956248,20.8836,586.037,-0.243024,0.0,0.0
405,101,64.1217,68.4376,147.605,109.822,113.908,0.000588926,0.0946433,20.8851,586.016,-0.330284,0.0,0.0
408,101.75,64.0135,68.3949,149.933,109.847,114.409,0.000586864,0.0937993,20.8866,586.047,-0.367842,0.0,0.0
411,102.5,64.2288,68.2901,148.273,109.849,113.849,0.000587984,0.0928774,20.8881,586.057,-0.323362,0.0,0.0
414,103.25,64.0118,68.0606,150.971,109.865,115.084,0.000593285,0.09216,20.8898,586.077,-0.419529,0.0,0.0
417,104,63.3949,68.0354,149.532,109.873,114.419,0.00060338,0.0915596,20.8911,586.057,-0.36653,0.0,0.0
420,104.75,64.2359,68.2337,150.836,109.89,115.266,0.000613394,0.0908972,20.892,586.077,-0.431703,0.0,0.0
423,105.5,63.9346,68.087,148.201,109.888,114.357,0.000615364,0.0902508,20.8927,586.097,-0.360416,0.0,0.0
426,106.25,63.6037,67.7526,148.329,109.917,114.327,0.000614176,0.0896967,20.8932,586.047,-0.355608,0.0,0.0
429,107,63.7841,67.5186,150.514,109.919,114.738,0.000608826,0.089151,20.8942,585.996,-0.387877,0.0,0.0
432,107.75,63.502,67.8686,150.598,109.921,114.414,0.000601188,0.088447,20.8951,586.047,-0.362122,0.0,0.0
435,108.5,63.195,67.3792,146.52,109.933,115.23,0.000599272,0.0879337,20.8962,585.986,-0.425428,0.0,0.0
438,109.25,63.252,67.72,149.07,109.957,114.337,0.000606846,0.0870903,20.8977,585.996,-0.353093,0.0,0.0
441,110,63.2827,67.2965,147.973,109.964,115.274,0.000644364,0.0864003,20.8991,585.956,-0.426325,0.0,0.0
444,110.75,63.4099,67.7916,150.917,109.98,114.257,0.000700402,0.0857685,20.9004,585.966,-0.344883,0.0,0.0
447,111.5,63.5022,67.3527,149.324,109.974,114.622,0.000768592,0.0851653,20.9013,585.946,-0.374229,0.0,0.0
450,112.25,63.1123,67.0881,147.803,109.99,114.441,0.00084414,0.0845398,20.902,585.986,-0.35863,0.0,0.0
453,113,63.3086,67.1598,145.761,109.983,115.316,0.000909074,0.0839144,20.9025,585.977,-0.428013,0.0,0.0
456,113.75,63.5653,67.6124,149.301,109.989,115.095,0.000973273,0.0833043,20.9035,585.996,-0.410205,0.0,0.0
459,114.5,63.1666,67.1646,144.834,110.005,115.065,0.00101295,0.0826454,20.9042,585.996,-0.40651,0.0,0.0
462,115.25,63.1022,66.8252,154.694,110.019,115.393,0.0010307,0.0818935,20.9048,585.966,-0.431127,0.0,0.0
465,116,62.8737,66.7215,150.07,110.028,115.18,0.00102453,0.0810372,20.9058,585.926,-0.41367,0.0,0.0
468,116.75,62.6709,66.984,149.018,110.027,114.916,0.000982652,0.0802029,20.9074,585.906,-0.393003,0.0,0.0
471,117.5,62.5053,66.9446,150.126,110.022,114.217,0.000923443,0.0792355,20.909,585.886,-0.338264,0.0,0.0
474,118.25,62.7342,67.0205,147.173,110.032,115.015,0.000860181,0.0782661,20.9101,585.896,-0.400356,0.0,0.0
477,119,62.8466,67.0763,148.419,110.041,114.693,0.000800602,0.0774695,20.9112,585.916,-0.374276,0.0,0.0
480,119.75,62.4076,66.6415,152.82,110.026,115.707,0.000757169,0.076735,20.9123,585.906,-0.455034,0.0,0.0
483,120.5,62.6926,66.9111,148.651,110.043,115.016,0.000747943,0.0759762,20.9133,585.886,-0.399602,0.0,0.0
486,121.25,62.776,66.2662,148.386,110.061,114.668,0.000756031,0.0752665,20.9142,585.876,-0.370689,0.0,0.0
489,122,62.3275,66.5293,148.913,110.068,115.305,0.000770906,0.0746824,20.9148,585.856,-0.420229,0.0,0.0
492,122.75,62.6219,65.7882,147.985,110.058,114.969,0.000785307,0.0741218,20.9157,585.856,-0.394664,0.0,0.0
495,123.5,62.1726,66.0417,149.107,110.077,114.913,0.000802043,0.0734827,20.9168,585.856,-0.388612,0.0,0.0
498,124.25,62.2095,65.9957,149.824,110.069,114.485,0.000816902,0.0727752,20.918,585.846,-0.355592,0.0,0.0
501,125,62.1101,65.9307,153.064,110.092,115.459,0.000852649,0.0721264,20.9189,585.846,-0.430311,0.0,0.0
504,125.75,62.1429,66.107,145.125,110.084,114.698,0.000884622,0.0715724,20.9195,585.856,-0.371185,0.0,0.0
507,126.5,62.2075,66.1122,148.841,110.086,114.917,0.00091804,0.0711173,20.9199,585.816,-0.388279,0.0,0.0
510,127.25,62.2127,65.5428,150.373,110.087,114.729,0.000956137,0.0706719,20.9205,585.806,-0.373358,0.0,0.0
513,128,62.0655,65.8401,147.165,110.096,115.918,0.000993053,0.0702166,20.9213,585.796,-0.46582,0.0,0.0
516,128.75,62.1302,66.1802,150.875,110.093,115.704,0.00102558,0.069744,20.9219,585.766,-0.44934,0.0,0.0
519,129.5,62.4418,65.9623,151.111,110.089,115.733,0.00106712,0.0692799,20.9228,585.786,-0.451997,0.0,0.0
522,130.25,61.6433,65.6608,146.974,110.092,116.047,0.00109887,0.0687372,20.9234,585.786,-0.476162,0.0,0.0
525,131,62.108,65.705,146.463,110.117,114.948,0.00114907,0.0681003,20.9247,585.766,-0.388119,0.0,0.0
528,131.75,61.5465,65.6248,148.95,110.101,115.355,0.00119815,0.0674211,20.9256,585.726,-0.421423,0.0,0.0
531,132.5,61.5491,65.2261,148.218,110.101,115.371,0.00122892,0.0667346,20.9266,585.776,-0.422691,0.0,0.0
534,133.25,62.107,65.7054,154.703,110.09,114.761,0.00124922,0.0661994,20.9276,585.766,-0.375656,0.0,0.0
537,134,61.8974,65.5513,152.053,110.11,114.31,0.00126153,0.0654534,20.9284,585.756,-0.33838,0.0,0.0
540,134.75,61.6846,65.2634,146.086,110.12,115.263,0.0012714,0.0648255,20.929,585.726,-0.412681,0.0,0.0
543,135.5,61.6643,65.3586,147.114,110.101,115.022,0.00128197,0.0643166,20.9294,585.746,-0.395236,0.0,0.0
546,136.25,61.1754,65.2905,152.823,110.107,115.636,0.00130719,0.063804,20.9299,585.746,-0.442919,0.0,0.0
549,137,61.0939,65.1899,154.298,110.125,115.316,0.00133304,0.06337,20.9307,585.726,-0.416408,0.0,0.0
552,137.75,61.4982,65.2982,152.3,110.134,114.906,0.00135188,0.0629525,20.9313,585.746,-0.383436,0.0,0.0
555,138.5,61.6135,64.8933,148.572,110.118,114.96,0.00134243,0.0626109,20.9317,585.746,-0.389004,0.0,0.0
558,139.25,61.6738,65.2734,146.134,110.127,114.691,0.00131429,0.0622981,20.9323,585.746,-0.367095,0.0,0.0
561,140,61.4164,64.6715,148.428,110.139,115.176,0.00128471,0.0619852,20.933,585.756,-0.404181,0.0,0.0
564,140.75,61.0555,64.6524,150.497,110.139,115.199,0.00119145,0.061691,20.9336,585.706,-0.406007,0.0,0.0
567,141.5,61.2046,64.595,153.184,110.124,114.955,0.00113011,0.0614256,20.934,585.726,-0.38817,0.0,0.0
570,142.25,61.4545,64.8147,147.119,110.129,115.092,0.0010365,0.0611109,20.9344,585.716,-0.398503,0.0,0.0
573,143,60.1214,63.5362,149.017,110.128,115.463,0.000951851,0.0607825,20.9346,585.686,-0.427644,0.0,0.0
576,143.75,59.1338,63.4181,150.24,110.161,115.732,0.000862099,0.0605008,20.9346,585.686,-0.445987,0.0,0.0
579,144.5,59.311,63.3383,147.067,110.147,114.587,0.000798446,0.0602551,20.9345,585.656,-0.357245,0.0,0.0
582,145.25,59.1906,62.6388,152.672,110.133,115.499,0.000759519,0.0600759,20.9345,585.656,-0.430015,0.0,0.0
585,146,58.9621,63.0883,150.348,110.135,114.563,0.000734329,0.0599595,20.9345,585.626,-0.356391,0.0,0.0
588,146.75,59.293,62.821,152.392,110.159,114.7,0.000728429,0.0598732,20.9345,585.646,-0.365162,0.0,0.0
591,147.5,58.8056,62.5885,151.478,110.162,114.841,0.000729442,0.0597976,20.9345,585.626,-0.376092,0.0,0.0
594,148.25,58.8955,62.5446,151.619,110.143,114.961,0.000732674,0.0596819,20.9345,585.646,-0.387048,0.0,0.0
597,149,59.0979,62.5701,147.878,110.163,115.115,0.000742,0.0595826,20.9345,585.656,-0.397491,0.0,0.0
600,149.75,59.3532,63.201,148.496,110.158,115.842,0.000758899,0.0594848,20.9345,585.626,-0.454772,0.0,0.0
603,150.5,59.0102,62.5463,153.036,110.165,115.826,0.000790787,0.0593711,20.9345,585.686,-0.453007,0.0,0.0
606,151.25,59.1674,62.5534,151.87,110.157,115.065,0.000817778,0.0592701,20.9345,585.626,-0.394107,0.0,0.0
609,152,58.6156,62.571,148.314,110.151,114.584,0.00083905,0.0590955,20.9345,585.606,-0.356641,0.0,0.0
612,152.75,59.3304,62.636,147.779,110.163,115.097,0.000838542,0.0589117,20.9345,585.596,-0.396101,0.0,0.0
615,153.5,58.6325,62.6265,151.934,110.171,115.067,0.000816828,0.0587238,20.9345,585.596,-0.393067,0.0,0.0
618,154.25,58.7152,62.4895,151.621,110.159,114.72,0.000800998,0.0585359,20.9345,585.616,-0.366788,0.0,0.0
621,155,58.9217,62.5367,148.805,110.162,115.403,0.000753904,0.0583565,20.9345,585.646,-0.420093,0.0,0.0
624,155.75,58.7984,62.3278,149.037,110.166,115.268,0.000705869,0.0581927,20.9345,585.626,-0.409223,0.0,0.0
627,156.5,58.9859,62.4214,147.213,110.171,114.649,0.00066501,0.0580479,20.9352,585.596,-0.360151,0.0,0.0
630,157.25,58.6334,62.3042,147.993,110.162,115.281,0.000617791,0.057902,20.9356,585.586,-0.410542,0.0,0.0
633,158,58.6241,62.1288,149.816,110.186,115.066,0.000574625,0.0577956,20.936,585.576,-0.391748,0.0,0.0
636,158.75,58.9206,62.3784,148.603,110.173,114.725,0.000540917,0.0576172,20.9362,585.546,-0.365947,0.0,0.0
639,159.5,58.8835,62.4587,152.782,110.196,114.5,0.000532325,0.0574306,20.9364,585.556,-0.346309,0.0,0.0
642,160.25,58.7654,62.1421,149.338,110.171,115.314,0.000541007,0.0572705,20.9365,585.546,-0.412431,0.0,0.0
645,161,58.6751,61.9808,149.211,110.182,115.133,0.000553708,0.0571537,20.9366,585.566,-0.397317,0.0,0.0
648,161.75,58.5994,62.46,145.998,110.186,114.646,0.00057418,0.0570545,20.9367,585.536,-0.358676,0.0,0.0
651,162.5,58.1101,61.3936,151.051,110.202,114.526,0.000597164,0.0569612,20.9367,585.526,-0.347953,0.0,0.0
654,163.25,58.3495,61.6651,148.249,110.203,115.242,0.000619527,0.0568678,20.9368,585.526,-0.40422,0.0,0.0
657,164,57.9729,61.4866,148.436,110.174,114.968,0.000651831,0.0567432,20.9368,585.536,-0.385055,0.0,0.0
660,164.75,58.5055,62.0743,149.319,110.19,115.578,0.000691591,0.0566282,20.9368,585.506,-0.431536,0.0,0.0
663,165.5,58.878,62.0128,147.893,110.195,115.881,0.000727487,0.0565041,20.9368,585.496,-0.454796,0.0,0.0
666,166.25,57.9805,61.6904,152.62,110.194,114.639,0.000762387,0.0563712,20.9368,585.486,-0.357463,0.0,0.0
669,167,58.3147,61.6791,150.546,110.189,115.086,0.000791551,0.0562339,20.9374,585.506,-0.393079,0.0,0.0
672,167.75,59.016,61.8151,150.787,110.19,115.834,0.000796598,0.0560957,20.9378,585.476,-0.451639,0.0,0.0
675,168.5,58.5868,61.4194,148.771,110.197,115.714,0.000793365,0.055995,20.9381,585.496,-0.441624,0.0,0.0
678,169.25,58.5124,61.507,151.688,110.198,115.506,0.000744899,0.0558812,20.9383,585.496,-0.425338,0.0,0.0
681,170,58.2456,61.8344,151.792,110.206,115.431,0.000672874,0.0557559,20.9384,585.456,-0.418713,0.0,0.0
684,170.75,57.9202,61.4179,146.742,110.183,115.744,0.000591239,0.0556464,20.9385,585.476,-0.445081,0.0,0.0
687,171.5,58.6067,61.6797,148.383,110.211,115.295,0.00051753,0.0555101,20.9386,585.466,-0.407654,0.0,0.0
690,172.25,58.5645,61.5546,151.404,110.217,115.133,0.000472505,0.0553867,20.9389,585.436,-0.394482,0.0,0.0
693,173,58.6442,61.379,149.463,110.201,114.798,0.000451255,0.0553169,20.9395,585.416,-0.369472,0.0,0.0
696,173.75,58.3725,61.2013,149.706,110.209,115.116,0.000449204,0.0553083,20.94,585.426,-0.393829,0.0,0.0
699,174.5,58.6383,61.3002,146.934,110.214,115.842,0.000461915,0.0553127,20.9403,585.416,-0.450192,0.0,0.0
702,175.25,58.3216,61.8849,150.437,110.23,114.984,0.000471181,0.0553032,20.9405,585.426,-0.381752,0.0,0.0
705,176,58.0966,61.2391,148.519,110.22,114.459,0.00047616,0.0552762,20.9407,585.446,-0.341189,0.0,0.0
708,176.75,58.4083,61.1301,145.917,110.216,114.542,0.000471075,0.0552415,20.9408,585.436,-0.348023,0.0,0.0
711,177.5,58.233,61.8425,150.539,110.219,114.775,0.000463653,0.0551909,20.9409,585.446,-0.366147,0.0,0.0
714,178.25,58.2329,61.2564,147.077,110.229,115.93,0.00044953,0.0551338,20.941,585.446,-0.45582,0.0,0.0
717,179,58.0168,60.9562,147.623,110.228,115.201,0.00043814,0.0550476,20.941,585.426,-0.398971,0.0,0.0
720,179.75,58.0028,61.0833,150.19,110.223,115.318,0.000434318,0.0549085,20.9411,585.436,-0.408493,0.0,0.0
723,180.5,58.6405,61.1422,146.032,110.216,115.591,0.000452696,0.0547505,20.9413,585.396,-0.430457,0.0,0.0
726,181.25,58.4206,61.3486,148.08,110.24,115.221,0.000488887,0.0546113,20.9419,585.376,-0.399501,0.0,0.0
729,182,58.227,61.1511,153.413,110.225,114.303,0.000538816,0.05453,20.9423,585.386,-0.328408,0.0,0.0
732,182.75,58.2249,61.4428,148.784,110.217,114.942,0.000610126,0.0544558,20.9427,585.346,-0.379463,0.0,0.0
735,183.5,58.3878,61.1394,151.969,110.221,114.789,0.000676994,0.0543763,20.9429,585.366,-0.367156,0.0,0.0
738,184.25,58.1138,61.1852,147.955,110.223,114.694,0.000731079,0.0542983,20.9431,585.356,-0.35941,0.0,0.0
741,185,58.2644,61.2538,150.617,110.226,115.33,0.000753045,0.0542413,20.9432,585.306,-0.409193,0.0,0.0
744,185.75,58.0458,61.1529,151.25,110.225,114.648,0.000751773,0.0541998,20.9433,585.306,-0.355677,0.0,0.0
747,186.5,58.0176,61.1025,144.402,110.206,115.069,0.000734014,0.0541696,20.9427,585.336,-0.390314,0.0,0.0
750,187.25,57.6344,61.2323,150.207,110.23,114.967,0.000697964,0.0541178,20.9423,585.336,-0.380364,0.0,0.0
753,188,57.8669,61.0962,145.652,110.23,115.183,0.000661195,0.0540292,20.942,585.326,-0.397325,0.0,0.0
756,188.75,57.8776,61.3042,148.142,110.22,115.247,0.000616457,0.0539445,20.942,585.306,-0.403199,0.0,0.0
759,189.5,58.2066,61.1664,149.575,110.21,115.064,0.000583842,0.0538262,20.9424,585.316,-0.38959,0.0,0.0
762,190.25,57.6995,61.0006,155.658,110.214,115.262,0.000530195,0.0537011,20.9426,585.336,-0.404858,0.0,0.0
765,191,57.9365,60.8776,151.915,110.227,115.161,0.000470497,0.0535845,20.9425,585.326,-0.395909,0.0,0.0
768,191.75,58.0123,60.974,148.049,110.213,114.961,0.000413542,0.0534994,20.9419,585.306,-0.381304,0.0,0.0
771,192.5,58.6598,60.6124,145.997,110.219,114.958,0.00035586,0.0534672,20.9418,585.286,-0.380593,0.0,0.0
774,193.25,58.113,60.9142,146.467,110.224,116.308,0.000305675,0.0534945,20.9419,585.256,-0.485741,0.0,0.0
777,194,57.8463,60.9213,148.757,110.231,114.747,0.00026856,0.053472,20.942,585.256,-0.363016,0.0,0.0
780,194.75,57.7689,61.4317,145.565,110.216,114.245,0.000264557,0.0534376,20.9416,585.246,-0.324571,0.0,0.0
783,195.5,58.2191,61.1997,147.448,110.222,115.26,0.000286519,0.0534125,20.9414,585.236,-0.40397,0.0,0.0
786,196.25,58.3075,60.761,148.621,110.225,115.142,0.000313135,0.0533942,20.9416,585.246,-0.39451,0.0,0.0
789,197,58.0154,60.8124,147.475,110.24,114.82,0.000349964,0.0533527,20.9417,585.226,-0.367947,0.0,0.0
792,197.75,57.9867,60.843,149.179,110.21,115.16,0.00038162,0.0533103,20.9419,585.226,-0.397211,0.0,0.0
795,198.5,57.6575,60.6349,145.536,110.212,114.884,0.000400216,0.0532392,20.9419,585.196,-0.375291,0.0,0.0
798,199.25,58.1604,60.5859,149.798,110.229,115.703,0.000407877,0.0531948,20.942,585.206,-0.438102,0.0,0.0
801,200,57.8647,60.9454,143.348,110.229,116.067,0.00040338,0.0531751,20.9421,585.216,-0.466463,0.0,0.0
804,200.75,57.7495,60.7252,149.956,110.227,115.078,0.000396551,0.0531607,20.9421,585.186,-0.389281,0.0,0.0
807,201.5,58.0636,61.1187,147.354,110.212,115.651,0.000396899,0.0531502,20.9421,585.216,-0.435489,0.0,0.0
810,202.25,57.7577,60.7749,145.176,110.227,115.304,0.000405865,0.0531426,20.9421,585.216,-0.407095,0.0,0.0
813,203,57.732,61.0684,146.577,110.225,115.916,0.000416114,0.0531794,20.9421,585.206,-0.455046,0.0,0.0
816,203.75,57.8238,60.844,150.974,110.233,115.761,0.000435383,0.0532094,20.9422,585.226,-0.442278,0.0,0.0
819,204.5,57.6467,60.8928,147.909,110.224,115.685,0.000469602,0.0532059,20.9422,585.246,-0.437192,0.0,0.0
822,205.25,57.9199,60.7987,147.589,110.226,115.627,0.000514092,0.0531228,20.9422,585.216,-0.432389,0.0,0.0
825,206,57.9586,60.6487,150.114,110.231,114.813,0.000552757,0.0530473,20.9422,585.196,-0.368117,0.0,0.0
828,206.75,58.1061,60.5554,147.196,110.233,114.218,0.000582943,0.0529669,20.9422,585.186,-0.321069,0.0,0.0
831,207.5,58.0314,60.9514,150.899,110.218,115.945,0.000603828,0.0529224,20.9422,585.186,-0.457875,0.0,0.0
834,208.25,58.1367,60.8888,148.409,110.224,115.274,0.000613721,0.0528886,20.9422,585.176,-0.404974,0.0,0.0
837,209,58.1432,60.8627,148.153,110.244,114.963,0.000610966,0.0528512,20.9422,585.156,-0.378884,0.0,0.0
840,209.75,57.6223,60.5819,147.978,110.234,115.14,0.000604708,0.0528038,20.9422,585.136,-0.393624,0.0,0.0
843,210.5,57.8925,60.4641,148.007,110.234,115.251,0.000589003,0.0527834,20.9422,585.136,-0.40235,0.0,0.0
846,211.25,58.2036,60.4419,149.708,110.228,115.212,0.0005585,0.0527745,20.9422,585.106,-0.399768,0.0,0.0
849,212,58.3227,60.7553,146.231,110.229,114.982,0.000530367,0.052768,20.9422,585.076,-0.381662,0.0,0.0
852,212.75,58.0422,60.8451,148.261,110.232,115.485,0.000499776,0.052741,20.9423,585.066,-0.420801,0.0,0.0
855,213.5,57.8834,60.7504,146.423,110.23,115.719,0.000481209,0.0526832,20.9426,585.076,-0.439254,0.0,0.0
858,214.25,58.0628,60.4825,145.545,110.231,114.477,0.000472541,0.0526411,20.9429,585.006,-0.341682,0.0,0.0
861,215,57.8704,60.8562,149.099,110.221,114.143,0.000471824,0.0526104,20.943,585.036,-0.316122,0.0,0.0
864,215.75,58.2943,60.4226,150.237,110.231,114.385,0.000474853,0.0525739,20.9432,585.046,-0.334372,0.0,0.0
867,216.5,58.0436,60.447,150.402,110.217,115.334,0.000474104,0.052519,20.9433,585.066,-0.410273,0.0,0.0
870,217.25,57.8988,61.0003,151.317,110.216,114.578,0.000473304,0.0524408,20.9433,585.076,-0.3509,0.0,0.0
873,218,58.265,61.0331,149.509,110.22,115.284,0.000461728,0.052398,20.9434,585.086,-0.406091,0.0,0.0
876,218.75,58.0753,60.504,149.361,110.224,115.747,0.000449554,0.052401,20.9434,585.116,-0.441974,0.0,0.0
879,219.5,58.0681,60.372,148.416,110.217,115.32,0.000439088,0.0524042,20.9434,585.066,-0.409127,0.0,0.0
882,220.25,58.0265,60.9749,147.109,110.216,115.001,0.000426132,0.0523853,20.9434,585.076,-0.38415,0.0,0.0
885,221,57.8936,60.5958,151.411,110.204,115.141,0.00041014,0.052371,20.9435,585.066,-0.396175,0.0,0.0
888,221.75,58.1175,60.3471,149.577,110.23,115.212,0.000387283,0.0523732,20.9435,585.046,-0.399548,0.0,0.0
891,222.5,58.3011,60.2631,149.433,110.216,114.507,0.000367071,0.0523466,20.9435,585.026,-0.345233,0.0,0.0
894,223.25,58.0494,60.7483,149.596,110.198,114.619,0.000348606,0.0523152,20.9435,585.076,-0.355544,0.0,0.0
897,224,58.0975,60.7874,149.228,110.203,115.113,0.000333553,0.0523124,20.9435,585.056,-0.394061,0.0,0.0
900,224.75,57.771,60.72,148.476,110.202,115.038,0.000323824,0.0523104,20.9435,585.056,-0.388254,0.0,0.0
903,225.5,57.7581,60.2942,145.689,110.198,115.296,0.00032119,0.0522525,20.9435,585.036,-0.40886,0.0,0.0
906,226.25,57.6225,60.5764,148.449,110.182,115.585,0.000325987,0.0521862,20.9435,585.016,-0.432778,0.0,0.0
909,227,58.1421,60.9344,149.802,110.198,115.188,0.000343682,0.0521177,20.9435,585.026,-0.400335,0.0,0.0
912,227.75,57.5369,60.3797,148.14,110.176,115.841,0.000366539,0.0520678,20.9435,585.046,-0.453242,0.0,0.0
915,228.5,57.9673,60.316,150.392,110.196,115.293,0.000389412,0.0520032,20.9435,585.006,-0.408806,0.0,0.0
918,229.25,58.3394,60.5166,148.841,110.174,115.437,0.000409447,0.0519292,20.9435,585.016,-0.421765,0.0,0.0
921,230,57.7358,60.826,150.2,110.167,115.089,0.000421564,0.0518499,20.9435,585.016,-0.395062,0.0,0.0
924,230.75,57.8592,60.71,148.775,110.17,115.32,0.000429335,0.0517921,20.9435,584.996,-0.41298,0.0,0.0
927,231.5,57.6567,60.7041,149.712,110.183,114.871,0.000415088,0.0517298,20.9435,585.026,-0.376655,0.0,0.0
930,232.25,57.7524,60.357,146.368,110.165,115.17,0.000389666,0.0517267,20.9435,584.996,-0.401672,0.0,0.0
933,233,57.993,60.5213,145.376,110.17,115.344,0.000359939,0.0517425,20.9435,584.996,-0.414879,0.0,0.0
936,233.75,57.7462,60.229,149.28,110.167,114.493,0.000316984,0.0518105,20.9435,584.996,-0.348189,0.0,0.0
939,234.5,58.1451,60.2083,148.755,110.184,115.722,0.00028567,0.0518841,20.9435,584.986,-0.443346,0.0,0.0
942,235.25,57.4142,60.2794,152.229,110.176,114.879,0.000233016,0.0518774,20.9438,584.976,-0.377877,0.0,0.0
945,236,57.8281,60.0315,146.161,110.171,115.106,0.000176034,0.0518799,20.9445,584.986,-0.396121,0.0,0.0
948,236.75,57.6686,60.4531,149.199,110.159,114.858,0.000124434,0.0518944,20.9451,584.946,-0.37762,0.0,0.0
951,237.5,58.0743,60.2252,148.697,110.18,114.935,9.03605e-05,0.0518976,20.9454,584.936,-0.381962,0.0,0.0
954,238.25,57.7753,60.5253,143.74,110.175,115.184,6.55209e-05,0.0518872,20.9457,584.946,-0.401948,0.0,0.0
957,239,57.7506,60.376,142.454,110.156,114.724,8.4624e-05,0.0518656,20.9459,584.946,-0.367286,0.0,0.0
960,239.75,58.147,60.6944,149.875,110.156,115.261,0.000139586,0.0518437,20.9461,584.926,-0.409501,0.0,0.0
963,240.5,57.8645,60.601,149.218,110.173,115.206,0.000197147,0.0518278,20.9462,584.946,-0.403839,0.0,0.0
966,241.25,58.1178,60.3207,149.624,110.16,114.823,0.000308366,0.0518162,20.9463,584.966,-0.374764,0.0,0.0
969,242,57.6751,60.562,150.052,110.154,115.834,0.000399937,0.0518003,20.9463,584.946,-0.454583,0.0,0.0
972,242.75,58.1385,60.8135,144.427,110.14,114.524,0.000484638,0.0517761,20.9464,584.936,-0.352882,0.0,0.0
975,243.5,57.7791,60.1325,149.118,110.155,115.007,0.000526832,0.0518007,20.9464,584.976,-0.389683,0.0,0.0
978,244.25,57.7004,60.1164,147.077,110.164,115.166,0.000520228,0.0517996,20.9464,584.966,-0.401428,0.0,0.0
981,245,57.2853,60.485,152.4,110.153,115.276,0.000499485,0.0517353,20.9464,584.926,-0.410909,0.0,0.0
984,245.75,57.6201,60.1952,149.341,110.147,114.982,0.000400984,0.0516037,20.9465,584.916,-0.38839,0.0,0.0
987,246.5,57.5413,60.0973,149.473,110.153,114.641,0.000305572,0.0514717,20.9465,584.926,-0.361042,0.0,0.0
990,247.25,57.7668,60.1575,149.263,110.155,114.936,0.000225953,0.0513755,20.9465,584.875,-0.384041,0.0,0.0
993,248,57.7171,60.3693,150.317,110.154,114.389,0.000157282,0.0513618,20.9465,584.885,-0.341052,0.0,0.0
996,248.75,57.7468,60.3261,152.335,110.149,115.205,0.000104737,0.0513759,20.9465,584.856,-0.405683,0.0,0.0
999,249.5,58.1732,59.8532,149.359,110.154,114.724,6.16467e-05,0.051366,20.9465,584.856,-0.367467,0.0,0.0
1002,250.25,57.5129,60.0763,147.032,110.149,114.352,2.86459e-05,0.0513871,20.9465,584.865,-0.338574,0.0,0.0
1005,251,57.6031,60.6431,145.422,110.153,115.475,6.29674e-06,0.0514144,20.9465,584.875,-0.426558,0.0,0.0
1008,251.75,57.7829,60.2166,151.812,110.154,115.116,-1.43786e-05,0.0514344,20.9465,584.885,-0.398333,0.0,0.0
1011,252.5,57.7421,60.4076,148.568,110.15,115.106,,0.051469,,584.875,-0.397831,0.0,0.0
1014,253.25,57.516,60.4716,150.621,110.158,114.22,,0.0514802,,584.875,-0.327368,0.0,0.0
1017,254,57.5386,60.1244,147.693,110.144,114.569,,0.0514823,,584.865,-0.356106,0.0,0.0
1020,254.75,57.5261,60.1252,149.901,110.15,115.889,,0.0514425,,584.845,-0.459132,0.0,0.0
1023,255.5,57.9314,60.0425,148.745,110.145,115.093,,,,584.815,-0.397273,0.0,0.0
1026,256.25,57.8525,59.6355,144.468,110.164,114.322,,,,584.805,-0.334939,0.0,0.0
1029,257,57.584,60.0997,148.518,110.157,115.16,,,,584.835,-0.401572,0.0,0.0
1032,257.75,57.3847,60.4089,149.95,110.129,114.979,,,,584.835,-0.389606,0.0,0.0
1035,258.5,57.5128,60.2487,147.295,110.142,115.535,,,,584.805,-0.432098,0.0,0.0
1038,259.25,57.5518,60.5653,152.017,110.133,115.211,,,,584.795,-0.407468,0.0,0.0
1041,260,57.7511,60.1552,151.174,110.139,114.825,,,,584.775,-0.376708,0.0,0.0
1044,260.75,57.8546,60.2347,152.335,110.127,114.952,,,,584.785,-0.387677,0.0,0.0
1047,261.5,57.9512,60.2999,151.437,110.125,114.77,,,,584.745,-0.373459,0.0,0.0
1050,262.25,58.3006,60.4186,146.653,110.131,115.388,,,,584.745,-0.421562,0.0,0.0
1052,262.75,57.2686,60.4015,147.967,110.136,114.942,,,,584.745,-0.386078,0.0,0.0