File: 01_Data/Rug_Pad/Cone/Rug_Pad_Cone_HF50Scan_220920_R3.csv
Names,Time,Stack TC,Smoke TC,Exh Press,Smoke Comp,Smoke Meas,CO Meter,CO2 Meter,O2 Meter,Sample Mass,Ext Coeff,Start Test,Flame Verif
Chan Gain,,500,500,1,1,1,1,1,1,1,1,1.0,1.0
Offset,,0,0,0.143022,0,0,0,0,0,0,0,0.0,0.0
Gain,,1,1,25.011,14.5176,16.5692,1,1,1,1.00088,1.03055,1.0,1.0
Units,sec,C,C,Pa,%,%,%,%,%,g,/m,,
Baseline,,48.8448,50.2906,155.807,109.896,114.201,-0.00102285,0.0433136,20.9532,-447.535,-0.347357,,
4,0.75,47.0926,48.3868,158.272,110.208,113.926,-0.000905335,0.0435944,20.9512,591.661,-0.299902,0.0,0.0
8,1.75,47.2568,48.265,156.06,110.201,114.072,-0.000895653,0.043655,20.9512,591.661,-0.312076,0.0,0.0
12,2.75,47.2148,48.2849,156.966,110.223,113.472,-0.0008893,0.0436693,20.9511,591.641,-0.262642,0.0,0.0
16,3.75,47.0218,48.229,158.252,110.228,113.375,-0.000761498,0.0436586,20.9519,591.691,-0.254504,0.0,0.0
20,4.75,47.3255,48.5849,153.538,110.233,112.557,-0.000540528,0.0436462,20.9526,591.712,-0.188561,0.0,0.0
24,5.75,47.3907,48.3523,155.703,110.241,112.306,-0.000217825,0.0452313,20.9487,591.681,-0.167778,0.0,1.0
28,6.75,47.4501,48.1032,151.084,110.251,113.466,0.000212754,0.0502418,20.9278,591.772,-0.259829,0.0,1.0
32,7.75,47.5655,48.7615,146.912,110.258,106.997,0.000778346,0.0671414,20.8906,591.591,0.271396,0.0,1.0
36,8.75,47.9028,48.918,146.638,110.259,101.121,0.00141999,0.090886,20.85,591.421,0.782084,0.0,1.0
40,9.75,47.349,48.3685,144.595,110.271,99.1738,0.00215244,0.118327,20.8166,591.441,0.958877,0.0,1.0
44,10.75,47.4889,48.2026,145.241,110.267,93.9641,0.00318405,0.145211,20.7691,591.441,1.44628,0.0,0.0
48,11.75,47.8572,48.0135,149.744,110.271,92.7247,0.0041881,0.172158,20.7261,591.361,1.56667,0.0,0.0
52,12.75,48.9981,48.8525,141.91,110.269,91.4525,0.00529109,0.195716,20.6762,591.261,1.69142,0.0,0.0
56,13.75,49.3504,49.652,141.991,110.283,90.8326,0.00626319,0.22536,20.6306,591.181,1.75403,0.0,0.0
60,14.75,50.1018,50.1423,132.227,110.287,85.5071,0.00729537,0.254833,20.5871,591.111,2.3005,0.0,0.0
64,15.75,51.1491,50.8674,140.986,110.303,85.6294,0.00821914,0.282697,20.5478,591.041,2.28892,0.0,0.0
68,16.75,51.6932,51.9148,141.093,110.29,84.9064,0.00893971,0.307769,20.5112,590.901,2.36453,0.0,0.0
72,17.75,53.0018,52.161,134.406,110.298,78.8087,0.00994734,0.330995,20.4807,590.841,3.03885,0.0,0.0
76,18.75,54.2692,53.2844,134.369,110.294,81.5827,0.0108624,0.352749,20.4411,590.711,2.72583,0.0,0.0
80,19.75,55.1412,53.7432,131.98,110.306,78.384,0.0116978,0.370966,20.3994,590.601,3.08843,0.0,0.0
84,20.75,55.5939,54.9566,141.163,110.285,79.3493,0.0124918,0.394252,20.3594,590.49,2.97604,0.0,0.0
88,21.75,56.2785,55.9444,135.444,110.287,78.7132,0.0131258,0.418637,20.3247,590.36,3.04898,0.0,0.0
92,22.75,57.4095,57.119,128.722,110.288,79.3093,0.0138875,0.440958,20.2949,590.21,2.98081,0.0,0.0
96,23.75,58.763,57.1802,128.956,110.29,74.7372,0.0145449,0.459962,20.2712,590.16,3.51772,0.0,0.0
100,24.75,59.5299,58.755,137.619,110.287,74.5966,0.0150642,0.47441,20.2551,590.06,3.53456,0.0,0.0
104,25.75,60.891,59.3169,129.37,110.291,79.8787,0.0154286,0.484297,20.2445,589.97,2.91636,0.0,0.0
108,26.75,61.4448,59.8314,138.849,110.277,73.9135,0.0156142,0.489515,20.2388,589.85,3.61685,0.0,0.0
112,27.75,61.9374,60.9486,139.336,110.273,81.0513,0.0155638,0.490591,20.2416,589.78,2.78317,0.0,0.0
116,28.75,62.9766,61.8031,130.623,110.279,81.3734,0.0152839,0.486621,20.2588,589.71,2.74782,0.0,0.0
120,29.75,62.7711,62.7504,136.934,110.262,82.6957,0.014787,0.476556,20.2726,589.59,2.60073,0.0,0.0
124,30.75,63.766,63.2857,137.147,110.253,87.5792,0.0142625,0.462154,20.3005,589.52,2.08132,0.0,0.0
128,31.75,63.9611,63.9582,139.526,110.247,88.6841,0.0134615,0.442968,20.3344,589.419,1.96748,0.0,0.0
132,32.75,64.4082,64.1934,143.882,110.249,85.3478,0.0126326,0.429327,20.3686,589.359,2.31427,0.0,0.0
136,33.75,64.1263,64.5204,147.304,110.239,87.2,0.0116349,0.405331,20.4095,589.339,2.11939,0.0,0.0
140,34.75,64.7089,64.6097,141.966,110.237,90.018,0.0105551,0.382713,20.4484,589.239,1.83169,0.0,0.0
144,35.75,64.6687,64.2895,142.335,110.234,90.1737,0.00953936,0.362481,20.4819,589.239,1.81581,0.0,0.0
148,36.75,64.7189,64.8699,145.304,110.221,95.6681,0.00856462,0.342619,20.511,589.179,1.28011,0.0,0.0
152,37.75,65.2383,64.837,150.716,110.221,97.0668,0.00764123,0.324025,20.5416,589.109,1.14883,0.0,0.0
156,38.75,63.9689,65.3834,145.374,110.213,98.7344,0.0067775,0.306452,20.573,589.089,0.994224,0.0,0.0
160,39.75,64.0386,65.225,146.119,110.2,101.739,0.00596918,0.290078,20.602,588.989,0.722099,0.0,0.0
164,40.75,64.0331,65.3512,148.746,110.196,104.767,0.00520424,0.273179,20.6328,588.949,0.456707,0.0,0.0
168,41.75,63.6325,64.4252,145.3,110.185,107.716,0.00452523,0.256876,20.6583,588.969,0.204896,0.0,0.0
172,42.75,63.8155,65.2923,150.34,110.16,110.129,0.00397642,0.243528,20.679,588.949,0.00254826,0.0,0.0
176,43.75,63.457,64.8675,149.44,110.16,111.124,0.00333171,0.23114,20.6989,588.889,-0.0787637,0.0,0.0
180,44.75,63.4583,65.0065,148.703,110.138,113.247,0.00278603,0.219625,20.7156,588.919,-0.2516,0.0,0.0
184,45.75,62.8329,64.2514,148.156,110.145,113.461,0.00239406,0.209265,20.7302,588.899,-0.268157,0.0,0.0
188,46.75,62.7306,65.2468,152.603,110.127,114.553,0.00215456,0.199458,20.7454,588.889,-0.356208,0.0,0.0
192,47.75,62.6923,63.8606,150.898,110.138,113.864,0.00203502,0.189897,20.7583,588.829,-0.30079,0.0,0.0
196,48.75,62.127,64.9893,154.774,110.133,114.383,0.00197466,0.181841,20.7699,588.809,-0.342245,0.0,0.0
200,49.75,62.1864,64.6029,152.684,110.101,114.593,0.00195921,0.174349,20.7806,588.789,-0.361509,0.0,0.0
204,50.75,62.3012,63.9811,149.48,110.112,114.976,0.00194012,0.168387,20.7896,588.769,-0.39071,0.0,0.0
208,51.75,61.9311,64.2133,149.269,110.102,115.086,0.00190553,0.163208,20.7968,588.799,-0.400169,0.0,0.0
212,52.75,62.1036,63.9291,150.86,110.091,114.442,0.00185251,0.158878,20.8032,588.749,-0.350375,0.0,0.0
216,53.75,60.9709,63.566,149.769,110.076,114.083,0.0017922,0.155303,20.8089,588.709,-0.323248,0.0,0.0
220,54.75,60.8837,63.654,146.009,110.082,114.656,0.00172363,0.152092,20.8137,588.689,-0.368022,0.0,0.0
224,55.75,59.7462,63.5732,156.368,110.082,114.127,0.00167281,0.149113,20.8166,588.699,-0.326261,0.0,0.0
228,56.75,60.7014,62.9264,162.715,110.07,114.137,0.00161149,0.14646,20.8209,588.659,-0.327964,0.0,0.0
232,57.75,59.3171,63.316,148.263,110.066,114.57,0.00156947,0.143815,20.8237,588.649,-0.362548,0.0,0.0
236,58.75,60.1425,63.0656,149.214,110.045,114.224,0.0015325,0.14205,20.8261,588.629,-0.337004,0.0,0.0
240,59.75,60.1621,62.8998,152.852,110.031,114.755,0.00148086,0.14011,20.8286,588.619,-0.380054,0.0,0.0
244,60.75,60.0587,62.8515,152.099,110.033,115.344,0.00140995,0.138441,20.8308,588.589,-0.426116,0.0,0.0
248,61.75,59.7389,62.574,151.352,110.02,113.868,0.00131962,0.136827,20.8335,588.569,-0.310749,0.0,0.0
252,62.75,59.0937,62.8324,157.043,110.01,114.774,0.00119695,0.135235,20.836,588.619,-0.383239,0.0,0.0
256,63.75,58.5266,62.4316,151.191,110.017,114.914,0.00113994,0.133699,20.8376,588.579,-0.393678,0.0,0.0
260,64.75,59.0804,62.2685,150.474,109.999,114.642,0.00108458,0.132147,20.8387,588.559,-0.373745,0.0,0.0
264,65.75,58.9889,62.2576,148.101,109.964,113.804,0.00106274,0.130716,20.8402,588.499,-0.310278,0.0,0.0
268,66.75,57.8267,61.992,151.715,110,114.103,0.00108006,0.129299,20.8426,588.479,-0.331031,0.0,0.0
272,67.75,58.3878,61.2185,151.814,109.965,114.387,0.00110499,0.127965,20.8447,588.509,-0.356394,0.0,0.0
276,68.75,58.1165,61.7021,152.525,109.969,114.386,0.00110099,0.126662,20.8466,588.499,-0.35595,0.0,0.0
280,69.75,58.3681,61.34,153.161,109.957,114.03,0.00105543,0.125535,20.8481,588.489,-0.328757,0.0,0.0
284,70.75,57.6763,61.4947,147.851,109.95,115.472,0.000990612,0.124442,20.8491,588.469,-0.442985,0.0,0.0
288,71.75,57.9334,61.2107,150.311,109.929,114.532,0.000919788,0.123409,20.8497,588.439,-0.370843,0.0,0.0
292,72.75,57.7328,61.0847,149.094,109.933,113.889,0.000825939,0.122347,20.8507,588.439,-0.319606,0.0,0.0
296,73.75,57.8205,60.8456,149.214,109.921,114.735,0.000748578,0.121258,20.8521,588.419,-0.387493,0.0,0.0
300,74.75,57.4032,60.9864,150.943,109.9,115.765,0.00068204,0.120006,20.8537,588.409,-0.469957,0.0,0.0
304,75.75,57.5242,60.3865,151.368,109.894,113.842,0.000631212,0.118658,20.8555,588.349,-0.319078,0.0,0.0
308,76.75,57.3822,60.7902,150.075,109.873,115.449,0.000601263,0.117459,20.8569,588.349,-0.447544,0.0,0.0
312,77.75,57.0571,60.6563,152.507,109.871,113.837,0.000587636,0.116318,20.8577,588.359,-0.320577,0.0,0.0
316,78.75,56.7556,60.5488,149.926,109.865,113.41,0.000589233,0.11513,20.859,588.329,-0.287093,0.0,0.0
320,79.75,56.7981,60.3163,148.257,109.85,114.745,0.000588025,0.114053,20.8599,588.308,-0.39412,0.0,0.0
324,80.75,56.6728,60.3771,154.121,109.852,114.422,0.000588257,0.113016,20.8612,588.268,-0.368443,0.0,0.0
328,81.75,56.5455,60.0213,150.681,109.83,114.049,0.000599395,0.111875,20.8629,588.258,-0.340699,0.0,0.0
332,82.75,56.4382,60.1314,150.829,109.824,115.062,0.000625771,0.110697,20.864,588.279,-0.421214,0.0,0.0
336,83.75,56.5728,59.7898,153.606,109.819,114.324,0.000662274,0.109633,20.8655,588.258,-0.363388,0.0,0.0
340,84.75,56.7318,60.0539,150.956,109.8125,113.474,0.000727137,0.108525,20.867,588.258,-0.296473,0.0,0.0
344,85.75,56.4246,59.9692,152.668,109.808,113.574,0.000796784,0.107311,20.8683,588.248,-0.304809,0.0,0.0
348,86.75,56.2404,59.8019,154.635,109.798,114.416,0.000832569,0.106022,20.8695,588.248,-0.372416,0.0,0.0
352,87.75,55.806,59.4462,150.411,109.765,115.015,0.000812314,0.104836,20.8713,588.238,-0.422368,0.0,0.0
356,88.75,55.6414,59.465,152.671,109.762,113.465,0.000730578,0.103744,20.8732,588.218,-0.299906,0.0,0.0
360,89.75,55.2567,59.529,151.61,109.748,114.071,0.000619064,0.102717,20.8751,588.168,-0.349251,0.0,0.0
364,90.75,55.9803,59.4223,152.611,109.719,114.453,0.000522713,0.101673,20.8763,588.168,-0.381824,0.0,0.0
368,91.75,55.9146,59.385,150.507,109.716,114.019,0.000433874,0.100499,20.877,588.168,-0.347751,0.0,0.0
372,92.75,55.3653,59.2062,152.436,109.7,113.677,0.000337505,0.0991932,20.8784,588.148,-0.321884,0.0,0.0
376,93.75,55.4751,58.9495,152.136,109.7,113.739,0.000261598,0.0977897,20.8803,588.168,-0.326828,0.0,0.0
380,94.75,55.9944,58.8577,149.914,109.686,113.319,0.000190777,0.0965322,20.8825,588.158,-0.294537,0.0,0.0
384,95.75,54.8228,58.5049,150.51,109.654,114.285,0.000119414,0.0946984,20.8847,588.158,-0.373885,0.0,0.0
388,96.75,54.9326,58.5547,152.863,109.626,113.802,4.86774e-05,0.0932193,20.887,588.118,-0.337909,0.0,0.0
392,97.75,55.0653,59.0873,155.708,109.639,114.052,-1.80432e-05,0.0918809,20.8883,588.108,-0.35671,0.0,0.0
396,98.75,55.1577,58.4339,154.337,109.603,113.348,-5.93347e-05,0.0905362,20.8893,588.108,-0.303781,0.0,0.0
400,99.75,54.7597,57.8271,150.727,109.596,113.927,-6.95108e-05,0.0891674,20.891,588.088,-0.350386,0.0,0.0
404,100.75,54.8624,58.2437,148.621,109.57,113.685,-4.67288e-05,0.0879554,20.8932,588.078,-0.333266,0.0,0.0
408,101.75,54.6138,58.152,155.54,109.583,113.748,2.18166e-06,0.0864357,20.8949,588.088,-0.337268,0.0,0.0
412,102.75,54.3938,57.6496,152.674,109.565,113.421,7.02649e-05,0.0850248,20.8968,588.058,-0.312616,0.0,0.0
416,103.75,54.4797,57.8486,152.61,109.558,114.008,0.000137264,0.0838149,20.8986,588.038,-0.359947,0.0,0.0
420,104.75,54.5696,57.8458,151.577,109.539,113.843,0.000175872,0.0827109,20.8996,588.048,-0.348439,0.0,0.0
424,105.75,54.0547,57.7615,149.585,109.536,114.383,0.000209815,0.0817831,20.9005,588.038,-0.391475,0.0,0.0
428,106.75,54.1046,57.3033,151.915,109.513,114.374,0.000249069,0.0809365,20.9015,588.008,-0.392618,0.0,0.0
432,107.75,54.3438,57.6074,149.573,109.5,113.806,0.000308881,0.0802176,20.9034,588.038,-0.348685,0.0,0.0
436,108.75,53.7431,57.1932,153.787,109.484,113.767,0.000370479,0.0794213,20.9053,588.028,-0.346872,0.0,0.0
440,109.75,53.8774,57.4716,154.268,109.464,113.827,0.000407221,0.0785635,20.9077,587.998,-0.353258,0.0,0.0
444,110.75,53.9388,57.482,154.573,109.454,114.334,0.0004168,0.0777965,20.9093,587.968,-0.394365,0.0,0.0
448,111.75,53.8524,57.0531,152.426,109.429,113.876,0.00041769,0.0771307,20.9104,587.928,-0.360121,0.0,0.0
452,112.75,53.5098,56.6536,154.924,109.403,114.097,0.000419872,0.0764471,20.911,587.938,-0.379728,0.0,0.0
456,113.75,53.5204,56.4122,153.432,109.39,113.977,0.000425809,0.0756604,20.9119,587.948,-0.371326,0.0,0.0
460,114.75,53.2784,56.703,155.847,109.371,114.292,0.000436177,0.0748095,20.9133,587.948,-0.397851,0.0,0.0
464,115.75,53.0204,56.7336,149.625,109.358,114.063,0.000448428,0.0740077,20.9146,587.948,-0.380781,0.0,0.0
468,116.75,53.2317,56.5954,153.457,109.342,114.506,0.000458063,0.0733166,20.9154,587.938,-0.417138,0.0,0.0
472,117.75,53.1409,56.8597,153.544,109.336,113.65,0.000454427,0.0726405,20.9159,587.958,-0.349849,0.0,0.0
476,118.75,53.0434,56.2407,150.815,109.328,114.005,0.000443975,0.0720574,20.9165,587.918,-0.378699,0.0,0.0
480,119.75,53.0991,56.1114,149.712,109.303,113.219,0.000376792,0.0715665,20.9175,587.918,-0.318264,0.0,0.0
484,120.75,52.7759,56.2184,155.483,109.295,114.132,0.000275719,0.0712225,20.9181,587.898,-0.391469,0.0,0.0
488,121.75,52.5853,56.5759,152.899,109.305,113.341,0.000182291,0.0707334,20.9185,587.828,-0.327765,0.0,0.0
492,122.75,52.7933,55.0438,150.127,109.272,114.353,0.000104189,0.0702893,20.9188,587.848,-0.41086,0.0,0.0
496,123.75,51.8254,55.8783,152.393,109.257,113.859,4.12351e-05,0.0698852,20.9196,587.838,-0.372967,0.0,0.0
500,124.75,52.8219,55.7648,155.397,109.247,113.052,-2.57389e-05,0.0696565,20.9203,587.858,-0.309512,0.0,0.0
504,125.75,52.1349,55.7824,153.747,109.236,113.412,-8.47699e-05,0.0694252,20.9212,587.838,-0.339208,0.0,0.0
508,126.75,52.1785,55.7677,156.618,109.238,113.851,-0.000177449,0.0692004,20.9222,587.858,-0.373865,0.0,0.0
512,127.75,52.3335,55.2867,151.294,109.22,113.74,-0.000242752,0.0688217,20.9228,587.708,-0.366531,0.0,0.0
516,128.75,52.257,54.4158,150.632,109.193,113.129,-0.000260737,0.0684719,20.9232,587.818,-0.320089,0.0,0.0
520,129.75,52.235,55.2465,156.401,109.21,113.521,-0.000242251,0.0681584,20.9237,587.788,-0.349959,0.0,0.0
524,130.75,52.1262,55.4427,158.939,109.186,113.867,-0.000196106,0.0678999,20.9241,587.788,-0.379473,0.0,0.0
528,131.75,51.8592,55.4465,150.43,109.173,113.301,-0.000141339,0.0676612,20.9243,587.768,-0.335467,0.0,0.0
532,132.75,52.1064,55.1614,149.451,109.167,114.386,-9.53472e-05,0.067377,20.9245,587.798,-0.422188,0.0,0.0
536,133.75,51.5863,55.0803,154.955,109.139,114.144,-5.39308e-05,0.0670878,20.9246,587.738,-0.405374,0.0,0.0
540,134.75,51.6628,54.985,151.392,109.105,113.671,-3.79987e-05,0.0667183,20.9249,587.788,-0.370606,0.0,0.0
544,135.75,51.548,55.0588,152.883,109.111,113.84,-3.28594e-05,0.0663747,20.9257,587.748,-0.383546,0.0,0.0
548,136.75,51.678,54.4729,154.419,109.101,113.13,-3.80029e-05,0.0660228,20.9262,587.748,-0.327766,0.0,0.0
552,137.75,51.6298,54.8205,157.09,109.076,113.275,-5.21405e-05,0.0656547,20.9265,587.718,-0.341484,0.0,0.0
556,138.75,52.1149,55.1164,155.669,109.067,113.757,-6.6371e-05,0.0653531,20.9268,587.728,-0.380594,0.0,0.0
560,139.75,51.9841,54.7456,155.917,109.058,114.305,-7.77911e-05,0.0650729,20.9269,587.718,-0.424859,0.0,0.0
564,140.75,51.8763,54.5947,155.267,109.054,113.088,-9.87706e-05,0.0647943,20.927,587.718,-0.328381,0.0,0.0
568,141.75,51.1372,54.8269,156.338,109.036,113.831,-0.000119072,0.0645205,20.9265,587.728,-0.389033,0.0,0.0
572,142.75,51.4994,54.2352,155.263,109.021,113.436,-0.000147092,0.0642855,20.9258,587.678,-0.358902,0.0,0.0
576,143.75,51.5634,54.5261,151.937,109.004,113.703,-0.00015826,0.0641313,20.9254,587.708,-0.381509,0.0,0.0
580,144.75,51.5988,54.8108,153.736,108.976,112.96,-0.000156833,0.0640908,20.9252,587.708,-0.324615,0.0,0.0
584,145.75,51.3646,54.3412,152.777,108.97,113.978,-0.000162814,0.0640805,20.925,587.718,-0.406186,0.0,0.0
588,146.75,51.3298,53.8913,153.49,108.959,113.229,-0.000172248,0.0640131,20.9249,587.738,-0.347513,0.0,0.0
592,147.75,51.1219,54.28,150.736,108.954,112.873,-0.000216401,0.0638756,20.9254,587.688,-0.319452,0.0,0.0
596,148.75,51.4909,54.3477,153.432,108.948,112.765,-0.000293113,0.063745,20.926,587.648,-0.311297,0.0,0.0
600,149.75,51.3578,54.2031,150.794,108.937,112.941,-0.000362929,0.0636122,20.9263,587.668,-0.326275,0.0,0.0
604,150.75,51.0694,54.2381,149.652,108.933,113.734,-0.000430121,0.0634289,20.9265,587.678,-0.389842,0.0,0.0
608,151.75,51.2114,54.1751,151.479,108.925,112.911,-0.000497217,0.0632507,20.9267,587.668,-0.324913,0.0,0.0
612,152.75,51.3975,53.905,156.941,108.918,112.718,-0.000546804,0.0631702,20.9268,587.638,-0.309986,0.0,0.0
616,153.75,51.4495,54.0315,155.851,108.91,112.909,-0.000577326,0.0631174,20.9268,587.618,-0.325927,0.0,0.0
620,154.75,51.2611,53.5432,157.137,108.895,113.423,-0.00053666,0.0630221,20.9269,587.638,-0.368293,0.0,0.0
624,155.75,50.9751,54.1651,159.655,108.888,112.848,-0.000465022,0.0628827,20.9269,587.648,-0.322866,0.0,0.0
628,156.75,51.113,53.3057,152.391,108.879,113.672,-0.000400037,0.0627749,20.9276,587.648,-0.389387,0.0,0.0
632,157.75,51.4964,54.0351,155.405,108.882,113.528,-0.000366393,0.0626617,20.9282,587.638,-0.377775,0.0,0.0
636,158.75,50.7489,53.8275,157.756,108.879,113.434,-0.000371292,0.0624933,20.9286,587.608,-0.370504,0.0,0.0
640,159.75,50.5333,54.0683,150.822,108.881,113.521,-0.000393991,0.0622299,20.9288,587.628,-0.377286,0.0,0.0
644,160.75,50.5739,54.0162,157.745,108.874,112.955,-0.00042393,0.0620464,20.929,587.638,-0.332627,0.0,0.0
648,161.75,51.1409,53.483,153.925,108.877,113.532,-0.000467487,0.0619367,20.9291,587.618,-0.378425,0.0,0.0
652,162.75,50.949,54.021,153.964,108.876,113.343,-0.000482577,0.0618466,20.9292,587.568,-0.363505,0.0,0.0
656,163.75,51.0867,53.5143,154.743,108.867,113.062,-0.000463256,0.061608,20.9292,587.578,-0.341753,0.0,0.0
660,164.75,50.77,53.5121,149.741,108.867,113.902,-0.000434892,0.0613948,20.9292,587.608,-0.408695,0.0,0.0
664,165.75,51.0204,53.6512,155.248,108.872,113.227,-0.000368871,0.0612016,20.9301,587.608,-0.354596,0.0,0.0
668,166.75,50.3295,53.4542,156.205,108.868,113.146,-0.000299968,0.0610567,20.9306,587.608,-0.348429,0.0,0.0
672,167.75,50.8357,53.4836,154.041,108.871,112.985,-0.00024679,0.0609011,20.931,587.588,-0.335311,0.0,0.0
676,168.75,50.6681,53.0619,157.488,108.868,113.399,-0.000229882,0.0606615,20.9312,587.548,-0.368566,0.0,0.0
680,169.75,50.4547,53.6011,157.606,108.87,114.025,-0.000236501,0.060391,20.9313,587.538,-0.418224,0.0,0.0
684,170.75,50.6671,53.5396,152.936,108.884,112.189,-0.00025927,0.0601776,20.9314,587.568,-0.270263,0.0,0.0
688,171.75,50.6256,53.1573,156.028,108.877,112.888,-0.000277801,0.0600039,20.9315,587.548,-0.327062,0.0,0.0
692,172.75,50.8459,53.045,151.61,108.886,112.821,-0.000288074,0.0598055,20.9315,587.568,-0.320903,0.0,0.0
696,173.75,50.6922,53.1817,155.258,108.884,112.955,-0.000289092,0.0595953,20.9316,587.528,-0.331817,0.0,0.0
700,174.75,50.5967,53.0089,152.249,108.887,113.955,-0.000291353,0.0594723,20.9316,587.508,-0.411253,0.0,0.0
704,175.75,50.3309,53.161,152.084,108.886,113.801,-0.000312321,0.0593019,20.932,587.418,-0.399161,0.0,0.0
708,176.75,50.1909,52.9613,152.19,108.891,113.035,-0.000358294,0.0590736,20.9327,587.468,-0.337697,0.0,0.0
712,177.75,50.6422,53.3935,152.789,108.89,113.077,-0.000407942,0.0588099,20.9331,587.428,-0.341086,0.0,0.0
716,178.75,50.6466,52.8147,155.57,108.881,113.257,-0.000465242,0.0585613,20.9334,587.448,-0.356242,0.0,0.0
720,179.75,50.3266,52.7438,154.471,108.906,113.715,-0.000522249,0.0583107,20.9336,587.428,-0.390601,0.0,0.0
724,180.75,50.8983,52.9867,151.5,108.89,113.162,-0.00056843,0.0580802,20.9337,587.438,-0.347878,0.0,0.0
728,181.75,50.4573,52.8486,153.637,108.897,113.222,-0.000595478,0.057834,20.9338,587.398,-0.352092,0.0,0.0
732,182.75,50.761,52.9887,152.39,108.9,113.209,-0.000615186,0.057618,20.9343,587.448,-0.350826,0.0,0.0
736,183.75,49.7348,52.6172,151.122,108.907,113.278,-0.000633772,0.0574763,20.935,587.408,-0.355727,0.0,0.0
740,184.75,50.6563,52.9291,153.061,108.904,113.116,-0.000656566,0.0573748,20.9354,587.408,-0.343025,0.0,0.0
744,185.75,50.3986,53.1432,151.879,108.907,113.451,-0.000678563,0.0572656,20.9357,587.428,-0.369519,0.0,0.0
748,186.75,50.572,52.6969,152.676,108.914,113.51,-0.000685543,0.0572451,20.9359,587.448,-0.373638,0.0,0.0
752,187.75,50.5172,52.5795,157.663,108.919,112.71,-0.000684087,0.0571037,20.9361,587.438,-0.309264,0.0,0.0
756,188.75,49.7775,52.7166,153.299,108.923,114.054,-0.000671892,0.0569342,20.9365,587.438,-0.416092,0.0,0.0
760,189.75,49.7941,52.8109,153.867,108.941,113.842,-0.000662649,0.0568486,20.9369,587.428,-0.39778,0.0,0.0
764,190.75,50.2913,52.4438,149.419,108.948,112.622,-0.00064937,0.0566652,20.9371,587.398,-0.299777,0.0,0.0
768,191.75,50.0352,52.7837,153.332,108.982,114.132,-0.000631052,0.0564269,20.9373,587.428,-0.417453,0.0,0.0
772,192.75,50.5151,52.1988,156.051,108.963,112.911,-0.0006033,0.0562344,20.9374,587.428,-0.321715,0.0,0.0
776,193.75,50.3859,52.6309,150.343,108.968,113.076,-0.000568703,0.0560313,20.9375,587.408,-0.334534,0.0,0.0
780,194.75,50.4539,52.5702,153.3,108.979,113.992,-0.000529981,0.0558577,20.9375,587.428,-0.406572,0.0,0.0
784,195.75,50.2781,52.6715,150.347,108.98,113.751,-0.000496605,0.0556624,20.9376,587.348,-0.387351,0.0,0.0
788,196.75,49.995,52.6585,153.206,108.989,113.03,-0.000484643,0.0553561,20.938,587.388,-0.329132,0.0,0.0
792,197.75,50.3119,52.7756,153.245,108.992,113.889,-0.00049726,0.0551085,20.9387,587.378,-0.39736,0.0,0.0
796,198.75,50.3014,52.3626,157.224,109.004,113.405,-0.000524291,0.0548826,20.9391,587.388,-0.357763,0.0,0.0
800,199.75,50.4754,52.4375,154.559,109.007,113.746,-0.000546453,0.0546074,20.9394,587.388,-0.384709,0.0,0.0
804,200.75,50.0722,52.0724,153.637,109.011,113.652,-0.000550695,0.0543758,20.9396,587.368,-0.3769,0.0,0.0
808,201.75,50.0444,52.4698,149.451,109.027,113.934,-0.000543914,0.054103,20.9403,587.388,-0.397993,0.0,0.0
812,202.75,50.1299,52.0164,150.943,109.034,112.906,-0.000552951,0.0538512,20.941,587.358,-0.31547,0.0,0.0
816,203.75,50.416,52.3093,152.326,109.043,113.82,-0.000558881,0.0536551,20.9414,587.358,-0.387598,0.0,0.0
820,204.75,50.1188,52.2162,152.565,109.053,113.309,-0.000568127,0.0535351,20.9417,587.348,-0.34606,0.0,0.0
824,205.75,49.9745,52.162,152.205,109.07,113.976,-0.000548669,0.0534678,20.9419,587.318,-0.397682,0.0,0.0
828,206.75,50.1045,52.2693,156.669,109.085,112.787,-0.00051443,0.0532959,20.942,587.288,-0.301724,0.0,0.0
832,207.75,50.0421,52.5048,152.936,109.094,113.92,-0.000481252,0.0531428,20.9421,587.308,-0.391284,0.0,0.0
836,208.75,49.7793,51.9313,150.756,109.114,113.123,-0.00046312,0.0529711,20.9422,587.328,-0.326136,0.0,0.0
840,209.75,49.8446,52.1445,154.132,109.119,113.191,-0.00046414,0.052802,20.9422,587.318,-0.331222,0.0,0.0
844,210.75,50.1313,52.142,151.085,109.124,113.723,-0.000498194,0.0526601,20.9422,587.268,-0.373205,0.0,0.0
848,211.75,49.9124,52.118,152.726,109.133,113.215,-0.000557129,0.0524811,20.9422,587.288,-0.331909,0.0,0.0
852,212.75,49.736,52.4958,153.585,109.145,113.646,-0.000662699,0.0522953,20.942,587.278,-0.365292,0.0,0.0
856,213.75,49.8609,52.0172,150.412,109.158,113.73,-0.000776247,0.0522158,20.9421,587.308,-0.370943,0.0,0.0
860,214.75,49.9733,51.7941,153.535,109.168,114.378,-0.000880372,0.0521424,20.9422,587.318,-0.421475,0.0,0.0
864,215.75,49.7985,52.0672,152.874,109.187,113.002,-0.000964083,0.0520388,20.9423,587.328,-0.310455,0.0,0.0
868,216.75,49.8424,51.9104,153.889,109.199,114.337,-0.00102541,0.051926,20.9424,587.298,-0.41563,0.0,0.0
872,217.75,49.945,52.1296,153.919,109.218,113.729,-0.00107156,0.0517498,20.9424,587.308,-0.36591,0.0,0.0
876,218.75,49.9406,51.8947,155.762,109.226,112.678,-0.00109842,0.0516268,20.9427,587.278,-0.281302,0.0,0.0
880,219.75,49.8631,51.9116,152.804,109.224,112.904,-0.00110281,0.051528,20.9434,587.258,-0.299524,0.0,0.0
884,220.75,49.8867,51.6671,157.238,109.242,113.963,-0.00108489,0.0514121,20.9439,587.268,-0.382443,0.0,0.0
888,221.75,49.8037,51.8792,153.003,109.271,114.641,-0.00106712,0.0512757,20.9442,587.238,-0.433688,0.0,0.0
892,222.75,49.985,52.0977,155.737,109.3,114.062,-0.00106024,0.0511498,20.9444,587.238,-0.385496,0.0,0.0
896,223.75,49.8218,52.0815,153.228,109.31,112.608,-0.00106922,0.0510417,20.9446,587.268,-0.268698,0.0,0.0
900,224.75,49.8184,52.0901,153.285,109.323,113.893,-0.00105942,0.0509252,20.9446,587.258,-0.37016,0.0,0.0
904,225.75,49.8806,52.1013,154.504,109.34,113.727,-0.000995776,0.0507674,20.9447,587.228,-0.355634,0.0,0.0
908,226.75,49.9608,51.5734,154.464,109.357,113.975,-0.000892098,0.0506067,20.9447,587.228,-0.373875,0.0,0.0
912,227.75,49.5898,52.1029,151.77,109.379,114.155,-0.000782544,0.0504502,20.9454,587.208,-0.386311,0.0,0.0
916,228.75,49.8573,52.0122,149.821,109.41,114.284,-0.000705963,0.0503878,20.946,587.258,-0.39403,0.0,0.0
920,229.75,50.1323,52.0726,149.861,109.403,114.229,-0.000674867,0.0503577,20.9464,587.248,-0.390218,0.0,0.0
924,230.75,49.6778,51.2638,152.997,109.426,114.985,-0.000665925,0.0503634,20.9466,587.208,-0.447942,0.0,0.0
928,231.75,49.7053,51.5131,159.602,109.434,113.89,-0.000642814,0.0504182,20.9468,587.198,-0.360842,0.0,0.0
932,232.75,49.7793,51.8804,154.396,109.452,113.5,-0.000617763,0.0503266,20.9469,587.208,-0.328343,0.0,0.0
936,233.75,49.947,51.5342,156.198,109.468,113.723,-0.000604811,0.050251,20.947,587.218,-0.34477,0.0,0.0
940,234.75,49.9592,51.7245,151.701,109.455,114.1,-0.000597324,0.0501495,20.947,587.198,-0.375689,0.0,0.0
944,235.75,49.9599,51.8676,151.376,109.491,113.389,-0.000623882,0.0500992,20.9465,587.1875,-0.316259,0.0,0.0
948,236.75,49.9768,51.7527,149.993,109.496,114.507,-0.000654795,0.0500732,20.9456,587.218,-0.404552,0.0,0.0
952,237.75,49.6727,51.8535,153.964,109.498,113.504,-0.000663837,0.0500069,20.9453,587.177,-0.324861,0.0,0.0
956,238.75,49.8402,51.8499,153.219,109.501,114.152,-0.000659834,0.049915,20.9456,587.228,-0.37597,0.0,0.0
960,239.75,49.7099,51.7556,153.235,109.527,114.079,-0.000652885,0.0498291,20.9458,587.208,-0.368158,0.0,0.0
964,240.75,49.9468,51.7812,154.548,109.54,113.33,-0.000662521,0.0497466,20.946,587.208,-0.307482,0.0,0.0
968,241.75,49.7491,51.5867,153.508,109.552,113.897,-0.000684107,0.0496562,20.9461,587.218,-0.35156,0.0,0.0
972,242.75,49.5211,51.4623,151.097,109.567,113.627,-0.000702057,0.0495459,20.9454,587.1875,-0.328934,0.0,0.0
976,243.75,49.6884,51.4691,156.3,109.572,113.668,-0.000714071,0.0494225,20.9449,587.177,-0.331793,0.0,0.0
980,244.75,49.4096,51.3691,151.769,109.586,113.893,-0.000722958,0.0493415,20.9446,587.158,-0.348461,0.0,0.0
984,245.75,49.7653,51.4995,154.162,109.595,113.69,-0.000741189,0.0493139,20.9448,587.168,-0.331582,0.0,0.0
988,246.75,49.342,51.7164,153.948,109.6,114.244,-0.000742315,0.0492703,20.9453,587.168,-0.375179,0.0,0.0
992,247.75,49.3507,51.5499,150.767,109.61,113.946,-0.000728716,0.0493221,20.9456,587.158,-0.350705,0.0,0.0
996,248.75,49.8346,51.6915,151.591,109.614,113.705,-0.000710088,0.0493777,20.9458,587.158,-0.33118,0.0,0.0
1000,249.75,49.4718,51.3847,153.804,109.639,114.04,-0.000705319,0.0493121,20.946,587.127,-0.355785,0.0,0.0
1004,250.75,49.4024,51.3394,157.476,109.63,114.844,-0.000721886,0.0492179,20.9461,587.117,-0.420027,0.0,0.0
1008,251.75,49.3051,51.5509,154.109,109.64,114.392,-0.000743821,0.0491052,20.9461,587.107,-0.383569,0.0,0.0
1012,252.75,49.4826,51.4495,150.678,109.651,114.95,-0.000778444,0.0489548,20.9462,587.127,-0.426585,0.0,0.0
1016,253.75,49.4223,51.6739,155.683,109.659,114.425,-0.000796664,0.0488305,20.9462,587.097,-0.384593,0.0,0.0
1020,254.75,49.0341,51.3764,152.59,109.669,113.984,-0.000801534,0.0487691,20.9462,587.087,-0.348815,0.0,0.0
1024,255.75,49.657,51.9545,156.924,109.656,113.46,-0.000800339,0.0486638,20.9463,587.087,-0.308305,0.0,0.0
1028,256.75,49.4385,51.3097,155.802,109.654,114.577,-0.000797543,0.0485376,20.9463,587.117,-0.397051,0.0,0.0
1032,257.75,49.3845,51.4564,156.831,109.645,114.195,-0.000804699,0.0484622,20.9466,587.107,-0.367567,0.0,0.0
1036,258.75,49.6007,51.1584,152.201,109.659,114.208,-0.000793451,0.0484309,20.947,587.137,-0.367479,0.0,0.0
1040,259.75,49.712,51.2636,152.097,109.655,114.305,-0.0007408,0.0484177,20.9472,587.097,-0.375413,0.0,0.0
1044,260.75,49.3183,51.4817,153.806,109.645,114.423,-0.000656719,0.0484346,20.9473,587.097,-0.385642,0.0,0.0
1048,261.75,49.6055,51.3385,152.681,109.654,114.079,-0.000551762,0.0484637,20.9474,587.077,-0.357632,0.0,0.0
1052,262.75,49.4719,51.349,153.035,109.648,113.47,-0.000482303,0.0483553,20.9475,587.067,-0.309727,0.0,0.0
1056,263.75,49.5325,51.4589,156.542,109.645,114.54,-0.000452702,0.0482239,20.9475,587.077,-0.394825,0.0,0.0
1060,264.75,49.4447,51.512,153.477,109.648,114.49,-0.000445904,0.0481215,20.9475,587.067,-0.390698,0.0,0.0
1064,265.75,49.3781,51.4157,151.716,109.651,113.505,-0.000452603,0.0480341,20.9476,587.067,-0.312255,0.0,0.0
1068,266.75,49.2468,51.4493,154.726,109.66,113.823,-0.000458771,0.047871,20.9476,587.067,-0.336816,0.0,0.0
1072,267.75,49.2356,51.4967,153.946,109.648,114.313,-0.000465065,0.0477771,20.9476,587.077,-0.376676,0.0,0.0
1076,268.75,49.3375,51.3137,155.344,109.645,114.612,-0.000480299,0.0477545,20.9476,587.077,-0.400497,0.0,0.0
1080,269.75,49.0909,51.1663,153.568,109.642,114.949,-0.000502009,0.0477625,20.9476,587.067,-0.427273,0.0,0.0
1084,270.75,47.8924,49.5344,152.162,109.65,113.743,-0.000525722,0.0477603,20.948,587.057,-0.331273,0.0,0.0
1088,271.75,47.6733,49.5539,153.576,109.642,114.517,-0.000544957,0.0477482,20.9487,587.017,-0.393212,0.0,0.0
1092,272.75,47.7753,49.4924,156.185,109.66,114.421,-0.000554328,0.0477435,20.9491,586.987,-0.384164,0.0,0.0
1096,273.75,47.9947,49.1704,153.835,109.663,113.488,-0.000552491,0.0477191,20.9494,587.027,-0.30994,0.0,0.0
1100,274.75,47.8131,50.0753,154.623,109.65,114.83,-0.000542687,0.0477392,20.9496,587.017,-0.417305,0.0,0.0
1104,275.75,47.824,49.6999,153.387,109.659,113.986,-0.000517251,0.0477015,20.9497,586.997,-0.349855,0.0,0.0
1108,276.75,47.4524,49.4144,159.785,109.652,113.464,-0.000471627,0.0476512,20.949,587.007,-0.308919,0.0,0.0
1112,277.75,47.926,49.5424,154.876,109.664,114.11,-0.00040816,0.047578,20.9485,587.017,-0.35927,0.0,0.0
1116,278.75,47.9762,49.6345,155.92,109.645,114.497,-0.000378386,0.047479,20.9481,586.957,-0.391433,0.0,0.0
1120,279.75,47.8973,49.1512,146.652,109.652,113.656,-0.000378027,0.047363,20.948,586.957,-0.324174,0.0,0.0
1124,280.75,47.5854,49.2892,157.434,109.684,114.218,-0.000420122,0.047262,20.9476,586.927,-0.366197,0.0,0.0
1128,281.75,47.5186,49.6316,155.76,109.659,114.346,-0.000475576,0.0471696,20.9474,586.947,-0.378362,0.0,0.0
1132,282.75,47.9151,49.8672,152.195,109.652,114.304,-0.000520871,0.0470129,20.948,586.987,-0.375628,0.0,0.0
1136,283.75,47.6572,50.0037,153.206,109.659,114.454,-0.000543766,0.0468961,20.9485,586.997,-0.386909,0.0,0.0
1140,284.75,47.8727,50.0615,153.803,109.677,114.759,-0.00054015,0.0468564,20.9487,586.987,-0.409466,0.0,0.0
1144,285.75,47.6613,49.4085,151.855,109.658,113.702,-0.00052343,0.0468277,20.9489,586.997,-0.327322,0.0,0.0
1148,286.75,47.7919,49.7007,152.803,109.649,113.912,-0.000507207,0.0467974,20.949,586.967,-0.344798,0.0,0.0
1152,287.75,47.9851,49.0455,158.891,109.661,114.514,-0.000516263,0.0467173,20.949,586.947,-0.391402,0.0,0.0
1156,288.75,47.4956,49.4828,155.199,109.65,114.1,-0.000565385,0.0466334,20.9488,586.957,-0.35964,0.0,0.0
1160,289.75,47.5355,49.8073,152.192,109.653,113.873,-0.000648544,0.0465735,20.9487,586.957,-0.341415,0.0,0.0
1164,290.75,47.2232,49.4896,154.718,109.635,114.619,-0.000752085,0.0465523,20.9486,586.987,-0.401856,0.0,0.0
1168,291.75,47.866,49.4406,153.729,109.628,114.526,-0.000849287,0.0465384,20.9485,586.957,-0.395176,0.0,0.0
1172,292.75,47.7092,49.5958,154.606,109.625,114.023,-0.000935381,0.0466057,20.9485,586.947,-0.355594,0.0,0.0
1176,293.75,47.5599,49.3823,158.527,109.62,114.451,-0.000991867,0.0466097,20.9485,586.957,-0.389885,0.0,0.0
1180,294.75,47.4501,49.2577,149.679,109.623,114.56,-0.00102184,0.0465614,20.9484,586.917,-0.398212,0.0,0.0
1184,295.75,47.1802,49.3479,149.363,109.629,114.945,-0.00103429,0.0465188,20.9484,586.927,-0.428013,0.0,0.0
1188,296.75,47.8691,50.043,158.575,109.632,114.692,-0.00102612,0.0464761,20.9484,586.957,-0.407893,0.0,0.0
1192,297.75,47.9435,49.9615,151.477,109.632,114.722,-0.0010002,0.0464267,20.9484,586.967,-0.41024,0.0,0.0
1196,298.75,47.8795,49.4961,153.651,109.628,113.978,-0.000954619,0.0464305,20.9484,586.937,-0.351766,0.0,0.0
1200,299.75,47.7094,49.8745,154.59,109.627,114.186,-0.000905584,0.0464585,20.9484,586.927,-0.368311,0.0,0.0
1204,300.75,47.8905,49.1804,154.647,109.628,114.189,-0.000861014,0.0464003,20.9484,586.887,-0.368515,0.0,0.0
1208,301.75,47.4993,49.5676,156.018,109.625,113.965,-0.000836583,0.0463823,20.9484,586.947,-0.35102,0.0,0.0
1212,302.75,47.3755,49.6583,156.766,109.592,113.768,-0.000814655,0.046404,20.9484,586.927,-0.338068,0.0,0.0
1216,303.75,47.9058,49.7187,154.896,109.6,114.658,-0.000811506,0.0464263,20.9483,586.947,-0.407889,0.0,0.0
1220,304.75,47.7974,49.528,152.523,109.602,113.959,-0.000788476,0.0464093,20.9482,586.937,-0.352361,0.0,0.0
1224,305.75,47.297,49.3909,156.297,109.589,114.381,-0.000757999,0.0463372,20.9481,586.907,-0.386889,0.0,0.0
1228,306.75,47.6791,49.4981,150.299,109.579,114.833,-0.000731625,0.0462866,20.948,586.927,-0.423427,0.0,0.0
1232,307.75,47.8987,49.6502,152.418,109.572,112.999,-0.000735392,0.0463157,20.9485,586.927,-0.278433,0.0,0.0
1236,308.75,47.8586,49.7989,150.359,109.577,113.784,-0.000768004,0.0463436,20.9491,586.907,-0.340519,0.0,0.0
1240,309.75,47.7469,49.3142,151.386,109.569,114.508,-0.000828475,0.0463436,20.9498,586.887,-0.398563,0.0,0.0
1244,310.75,47.5251,49.6801,152.564,109.579,113.315,-0.000887647,0.0463269,20.9503,586.907,-0.303056,0.0,0.0
1248,311.75,47.8482,49.7106,149.246,109.59,113.945,-0.000927984,0.046336,20.9498,586.947,-0.352265,0.0,0.0
1252,312.75,47.7569,49.4007,151.884,109.598,113.727,-0.000941903,0.0463273,20.9494,586.897,-0.334341,0.0,0.0
1256,313.75,47.389,49.366,152.968,109.582,113.293,-0.000939876,0.0463563,20.9492,586.847,-0.301066,0.0,0.0
1260,314.75,47.7551,49.4242,156.314,109.578,113.225,-0.000920563,0.0463862,20.9491,586.867,-0.295945,0.0,0.0
1264,315.75,47.7441,49.8268,156.248,109.592,113.139,-0.000880917,0.0463455,20.9494,586.877,-0.287947,0.0,0.0
1268,316.75,48.0305,49.5958,156.317,109.591,113.311,-0.000815936,0.0463027,20.95,586.857,-0.301746,0.0,0.0
1272,317.75,47.5039,49.3144,152.175,109.588,114.073,-0.000745105,0.0462745,20.9504,586.867,-0.362596,0.0,0.0
1276,318.75,47.6176,49.4682,158.056,109.59,113.23,-0.000695639,0.0462486,20.9507,586.867,-0.295362,0.0,0.0
1280,319.75,47.8129,49.1613,154.893,109.582,113.956,-0.000662419,0.0462136,20.9508,586.857,-0.353806,0.0,0.0
1284,320.75,47.8948,49.4064,153.909,109.598,113.976,-0.000639617,0.046161,20.9509,586.857,-0.35409,0.0,0.0
1288,321.75,47.6018,49.2233,151.639,109.6,113.78,-0.000635895,0.0460541,20.9504,586.837,-0.338334,0.0,0.0
1292,322.75,47.8385,49.7248,154.689,109.61,113.627,-0.000635702,0.0459585,20.9498,586.857,-0.325316,0.0,0.0
1296,323.75,47.8753,49.6537,155.325,109.603,114.148,-0.00064007,0.045936,20.9495,586.907,-0.367241,0.0,0.0
1300,324.75,47.7982,49.4209,156.378,109.602,114.672,-0.000651928,0.0459602,20.9493,586.897,-0.408782,0.0,0.0
1304,325.75,47.728,49.5575,152.736,109.603,113.01,-0.000668859,0.0459988,20.9491,586.877,-0.276761,0.0,0.0
1308,326.75,47.9551,49.5535,157.862,109.618,114.532,-0.000709477,0.046002,20.9491,586.837,-0.396455,0.0,0.0
1312,327.75,47.7768,49.6273,153.392,109.607,114.99,-0.000753662,0.0459498,20.949,586.787,-0.433343,0.0,0.0
1316,328.75,48.3725,49.2841,156.295,109.592,113.257,-0.000816308,0.0459557,20.949,586.807,-0.297396,0.0,0.0
1320,329.75,47.9618,49.8179,155.333,109.616,115.061,-0.000867707,0.0459905,20.949,586.847,-0.438251,0.0,0.0
1324,330.75,47.4657,49.3767,154.78,109.631,114.756,-0.00089786,0.0460187,20.949,586.807,-0.412986,0.0,0.0
1328,331.75,47.9571,49.7144,158.072,109.644,114.24,-0.000890338,0.0460373,20.9492,586.717,-0.371242,0.0,0.0
1332,332.75,47.7699,49.4196,152.616,109.666,114.413,-0.000851213,0.0460749,20.9499,586.757,-0.383053,0.0,0.0
1336,333.75,47.8399,49.6333,153.885,109.676,114.078,-0.000791056,0.0461398,20.9504,586.797,-0.355759,0.0,0.0
1340,334.75,47.6756,49.5892,150.431,109.702,113.573,-0.000737503,0.046153,20.9507,586.807,-0.313487,0.0,0.0
1344,335.75,47.4335,49.5095,155.61,109.716,113.35,-0.000677639,0.0460705,20.9509,586.797,-0.294552,0.0,0.0
1348,336.75,47.9807,49.5597,152.601,109.743,114.289,-0.000647355,0.0459948,20.951,586.777,-0.366904,0.0,0.0
1352,337.75,48.259,49.8091,153.292,109.747,113.76,-0.000661203,0.0459852,20.9511,586.777,-0.324683,0.0,0.0
1356,338.75,47.9114,49.9415,153.407,109.767,114.507,-0.000698477,0.0459757,20.9512,586.757,-0.382195,0.0,0.0
1360,339.75,48.0499,49.972,153.655,109.789,114.322,-0.000742935,0.045944,20.9508,586.787,-0.365749,0.0,0.0
1364,340.75,47.5821,49.5858,159.08,109.798,113.798,-0.000772735,0.0459258,20.9501,586.797,-0.32346,0.0,0.0
1368,341.75,47.5135,49.787,158.163,109.806,113.512,-0.00078625,0.0459254,20.9494,586.777,-0.300044,0.0,0.0
1372,342.75,47.5537,49.6234,156.04,109.81,113.835,-0.000788375,0.0458977,20.9496,586.777,-0.325447,0.0,0.0
1376,343.75,47.8593,49.8371,155.327,109.824,113.569,-0.000785273,0.0458795,20.9499,586.797,-0.303058,0.0,0.0
1380,344.75,47.9212,49.5257,152.617,109.838,113.768,-0.000781466,0.0458475,20.9501,586.767,-0.317808,0.0,0.0
1384,345.75,47.36,49.9678,161.298,109.844,113.323,-0.000782035,0.045807,20.9502,586.797,-0.281907,0.0,0.0
1388,346.75,48.0162,49.4107,151.353,109.844,113.697,-0.000793989,0.0457542,20.9503,586.757,-0.311634,0.0,0.0
1392,347.75,47.6806,50.2174,153.988,109.848,113.568,-0.000818861,0.0456686,20.9503,586.747,-0.301121,0.0,0.0
1396,348.75,48.1329,49.409,152.864,109.862,113.752,-0.000838991,0.0456059,20.9504,586.757,-0.314517,0.0,0.0
1400,349.75,47.559,49.846,155.411,109.859,113.873,-0.000868344,0.0456445,20.9504,586.777,-0.324411,0.0,0.0
1404,350.75,47.6456,49.5727,156.956,109.86,114.112,-0.000895671,0.0456879,20.9507,586.747,-0.343265,0.0,0.0
1408,351.75,47.9707,49.25,151.235,109.862,113.423,-0.000904575,0.0456867,20.9511,586.707,-0.288359,0.0,0.0
1412,352.75,48.045,49.5519,153.867,109.87,114.345,-0.000913583,0.0456137,20.9513,586.717,-0.360915,0.0,0.0
1416,353.75,47.5191,49.8075,156.312,109.875,113.604,-0.000943566,0.0455931,20.9515,586.727,-0.301715,0.0,0.0
1420,354.75,47.8301,49.0586,153.785,109.88,114.788,-0.000979834,0.0455541,20.9516,586.717,-0.395027,0.0,0.0
1424,355.75,47.6478,49.7038,152.44,109.9,113.845,-0.00100522,0.0454884,20.9517,586.727,-0.318813,0.0,0.0
1428,356.75,47.7643,49.6088,152.064,109.909,113.831,-0.00101303,0.0454545,20.9517,586.727,-0.316956,0.0,0.0
1432,357.75,47.7963,49.6003,152.575,109.903,114.584,-0.00102639,0.0454578,20.9517,586.717,-0.377026,0.0,0.0
1436,358.75,48.0889,49.9374,154.203,109.903,114.785,-0.00106282,0.0454372,20.9518,586.727,-0.392893,0.0,0.0
1440,359.75,47.559,49.8864,154.149,109.91,115.278,-0.0011046,0.0454157,20.9518,586.687,-0.431054,0.0,0.0
1444,360.75,47.5553,49.7853,154.904,109.917,114.626,-0.00114359,0.0454377,20.9518,586.717,-0.37925,0.0,0.0
1448,361.75,47.68,49.5621,155.186,109.916,114.674,-0.00116791,0.0454226,20.9515,586.737,-0.383068,0.0,0.0
1452,362.75,48.0877,49.5391,155.171,109.903,115.078,-0.00117421,0.0453403,20.9507,586.697,-0.415957,0.0,0.0
1456,363.75,47.8292,49.7576,153.198,109.894,115.018,-0.0011694,0.045208,20.95,586.727,-0.411962,0.0,0.0
1460,364.75,47.8649,49.8427,153.662,109.902,114.996,-0.00116339,0.0451413,20.95,586.717,-0.409553,0.0,0.0
1464,365.75,47.518,49.8111,153.389,109.904,114.989,-0.00116193,0.0451407,20.9503,586.717,-0.408851,0.0,0.0
1468,366.75,48.1206,50.014,154.527,109.929,113.83,-0.00116174,0.0452119,20.9505,586.687,-0.315204,0.0,0.0
1472,367.75,48.0489,49.5782,153.255,109.938,114.698,-0.00115192,0.0452766,20.9507,586.687,-0.383162,0.0,0.0
1476,368.75,47.687,49.7236,153.976,109.962,114.969,-0.00111856,0.0452937,20.9508,586.697,-0.402531,0.0,0.0
1480,369.75,48.172,49.8887,153.915,109.955,115.084,-0.00108058,0.0452793,20.9508,586.707,-0.412095,0.0,0.0
1484,370.75,48.0432,49.4618,152.983,109.971,114.449,-0.000997152,0.0453209,20.9509,586.717,-0.360834,0.0,0.0
1488,371.75,48.0493,49.7166,152.553,109.962,114.763,-0.000903643,0.0453482,20.9509,586.687,-0.386292,0.0,0.0
1492,372.75,47.8234,49.7503,154.464,109.982,114.27,-0.000836097,0.0453801,20.9511,586.707,-0.345738,0.0,0.0
1496,373.75,47.8731,49.4853,154.797,109.982,114.971,-0.000791781,0.0453982,20.9514,586.687,-0.401048,0.0,0.0
1500,374.75,47.8458,49.7577,158.244,109.983,114.185,-0.000787432,0.0453753,20.9516,586.687,-0.338939,0.0,0.0
1504,375.75,47.7686,49.5294,153.927,109.976,113.721,-0.000800314,0.045318,20.9517,586.687,-0.302741,0.0,0.0
1508,376.75,47.5351,49.7067,158.136,109.965,114.461,-0.000799774,0.0453026,20.9518,586.677,-0.362267,0.0,0.0
1512,377.75,47.825,49.2124,151.219,109.968,114.697,-0.000794451,0.0453158,20.9519,586.687,-0.380606,0.0,0.0
1516,378.75,47.6445,50.0736,150.749,109.977,114.189,-0.000801838,0.045248,20.9519,586.657,-0.339733,0.0,0.0
1520,379.75,48.4789,49.8489,154.637,109.993,114.46,,0.0451494,,586.667,-0.359892,0.0,0.0
1524,380.75,47.657,49.3309,149.403,109.973,114.416,,0.0450846,,586.667,-0.35798,0.0,0.0
1528,381.75,47.6631,49.6712,156.063,109.975,114.715,,0.0451225,,586.637,-0.381454,0.0,0.0
1532,382.75,47.6547,49.4185,151.97,109.958,113.663,,,,586.667,-0.299611,0.0,0.0
1536,383.75,47.5325,49.812,154.261,109.972,114.788,,,,586.647,-0.387485,0.0,0.0
1540,384.75,47.4122,49.7488,155.973,109.973,113.683,,,,586.637,-0.299905,0.0,0.0
1544,385.75,47.8237,49.3864,150.514,109.98,114.56,,,,586.637,-0.368849,0.0,0.0
1548,386.75,48.229,49.4766,151.717,109.986,114.117,,,,586.627,-0.333319,0.0,0.0
1552,387.75,47.9914,49.7441,154.829,110,114.443,,,,586.627,-0.357955,0.0,0.0
1556,388.75,47.8028,49.5574,155.699,109.989,114.172,,,,586.627,-0.337468,0.0,0.0
1560,389.75,47.829,49.4532,150.527,110.008,114.025,,,,586.617,-0.324208,0.0,0.0
1561,390,47.9274,49.5634,152.231,110.006,114.551,,,,586.627,-0.365946,0.0,0.0