File: 01_Data/PMMA_R03/MCC/PMMA_R03_MCC_30K_min_211015_R2.txt
Sample ID:	C:\MCC\MCC Cal\Test\PMMA_R03_MCC_30K_min_211015_R2.txt
Sample Weight (mg):	4.83
Heating Rate (C/s):	0.5
Combustor Temp (C):	900
N2 Flow Rate (cc/min):	80
O2 Flow Rate (cc/min):	20
Calibration File:	C:\MCC\MCC Cal\Coeff1 JN10440_30_210304.txt.txt
T Correction Coefficients:	0	1.024463	0
Time Shift (s):	14
*
Time (s)	Temperature (C)	N2 flow rate (cc/min)	O2 flow rate (cc/min)	Flow Rate (cc/min)	Oxygen (%)	HRR (W/g)	Heating rate (C/s)
0.000	108.051	80.000	19.995	102.813	19.816	0.205	-0.015
2.000	108.042	79.998	19.997	102.815	19.817	0.105	-0.046
4.000	108.039	79.997	19.996	102.817	19.819	0.009	0.022
6.000	108.051	79.997	19.997	102.818	19.812	0.479	-0.010
8.000	108.044	79.997	19.996	102.820	19.811	0.490	0.023
10.000	108.045	79.997	19.995	102.822	19.815	0.288	-0.009
12.001	108.012	79.998	19.995	102.843	19.809	0.635	-0.019
14.000	108.037	79.995	19.994	102.884	19.807	0.789	-0.009
16.000	108.108	79.996	19.996	102.900	19.801	1.194	-0.008
18.000	108.123	79.996	19.998	102.904	19.803	1.067	0.060
20.000	108.164	79.996	19.997	102.897	19.799	1.312	0.020
22.000	108.223	79.997	19.996	102.912	19.796	1.497	0.009
24.000	108.352	79.996	19.995	102.937	19.796	1.499	0.058
26.000	108.471	79.996	19.995	102.943	19.792	1.771	0.078
28.000	108.609	79.996	19.998	102.942	19.789	1.993	0.056
30.000	108.789	79.997	19.995	102.937	19.788	2.069	0.080
32.000	108.974	79.997	19.994	102.933	19.788	2.063	0.075
34.000	109.174	79.998	19.995	102.949	19.789	2.016	0.099
36.000	109.386	79.998	19.994	102.958	19.787	2.131	0.086
38.000	109.645	79.997	19.996	102.960	19.788	2.039	0.139
40.000	109.832	79.997	19.996	102.962	19.786	2.153	0.133
42.000	110.124	79.997	19.995	102.956	19.788	2.082	0.142
44.000	110.372	79.997	19.996	102.968	19.789	1.997	0.110
46.000	110.633	79.998	19.995	102.971	19.784	2.333	0.145
48.000	110.959	79.999	19.995	102.987	19.784	2.320	0.196
50.000	111.287	79.999	19.994	102.997	19.783	2.377	0.176
52.000	111.643	79.998	19.997	102.994	19.783	2.415	0.181
54.000	111.983	79.999	19.994	103.005	19.780	2.570	0.146
56.000	112.391	79.998	19.995	103.010	19.780	2.579	0.155
58.000	112.780	79.998	19.996	103.014	19.778	2.746	0.199
60.000	113.181	79.998	19.994	103.017	19.773	3.075	0.193
62.000	113.636	79.998	19.995	103.016	19.772	3.117	0.213
64.000	114.071	79.999	19.993	103.033	19.769	3.313	0.239
66.000	114.582	79.999	19.995	103.045	19.768	3.384	0.258
68.000	115.056	79.996	19.996	103.049	19.770	3.257	0.244
70.000	115.568	79.998	19.996	103.050	19.768	3.378	0.241
72.000	116.105	79.999	19.996	103.054	19.767	3.456	0.263
74.001	116.618	79.999	19.995	103.053	19.766	3.542	0.289
76.000	117.184	80.000	19.994	103.053	19.765	3.615	0.267
78.000	117.774	79.999	19.995	103.052	19.762	3.782	0.286
80.001	118.370	79.998	19.994	103.050	19.762	3.757	0.302
82.001	118.978	79.999	19.996	103.051	19.764	3.648	0.310
84.000	119.587	79.998	19.995	103.053	19.764	3.650	0.311
86.000	120.195	79.997	19.994	103.058	19.763	3.730	0.281
88.000	120.847	79.996	19.995	103.070	19.762	3.795	0.328
90.000	121.567	79.997	19.996	103.079	19.767	3.470	0.337
92.000	122.257	79.997	19.996	103.078	19.761	3.859	0.350
94.000	122.981	79.997	19.996	103.084	19.764	3.663	0.363
96.000	123.712	79.997	19.995	103.078	19.761	3.852	0.371
98.000	124.462	79.997	19.995	103.084	19.760	3.904	0.373
100.000	125.193	79.998	19.995	103.077	19.761	3.866	0.388
102.001	125.954	79.998	19.996	103.078	19.757	4.130	0.401
104.000	126.748	79.999	19.995	103.081	19.760	3.892	0.402
106.000	127.526	79.998	19.995	103.081	19.760	3.892	0.372
108.001	128.314	79.997	19.996	103.081	19.758	4.046	0.387
110.000	129.113	79.997	19.996	103.082	19.757	4.090	0.371
112.000	129.965	79.998	19.995	103.089	19.758	4.073	0.409
114.000	130.805	79.995	19.997	103.088	19.756	4.159	0.430
116.000	131.604	79.996	19.996	103.086	19.757	4.139	0.417
118.000	132.468	79.997	19.997	103.086	19.754	4.341	0.427
120.000	133.315	79.998	19.997	103.087	19.758	4.033	0.420
122.000	134.196	79.996	19.996	103.085	19.753	4.410	0.445
124.000	135.038	79.996	19.997	103.087	19.754	4.295	0.427
126.000	135.942	79.996	19.997	103.085	19.757	4.139	0.458
128.000	136.827	79.998	19.996	103.088	19.754	4.350	0.446
130.000	137.705	79.997	19.995	103.084	19.751	4.488	0.452
132.000	138.666	79.997	19.996	103.087	19.748	4.693	0.489
134.000	139.566	80.000	19.995	103.091	19.747	4.751	0.491
136.000	140.472	79.998	19.994	103.089	19.749	4.677	0.449
138.000	141.449	80.002	19.996	103.088	19.750	4.597	0.499
140.000	142.309	80.001	19.995	103.088	19.743	5.020	0.418
142.000	143.305	79.998	19.997	103.089	19.744	5.009	0.463
144.000	144.220	79.997	19.996	103.080	19.741	5.194	0.491
146.000	145.202	79.998	19.995	103.089	19.740	5.258	0.475
148.000	146.134	79.996	19.996	103.088	19.743	5.020	0.450
150.000	147.138	80.001	19.996	103.085	19.744	5.009	0.482
152.000	148.075	79.998	19.995	103.090	19.738	5.378	0.492
154.000	149.027	79.999	19.994	103.086	19.742	5.101	0.478
156.000	150.036	79.999	19.996	103.088	19.734	5.628	0.500
158.000	150.960	80.000	19.994	103.079	19.735	5.586	0.475
160.000	151.975	80.000	19.994	103.085	19.731	5.819	0.500
162.000	152.961	79.998	19.996	103.085	19.732	5.792	0.492
164.000	153.930	79.999	19.995	103.084	19.730	5.893	0.492
166.000	154.901	79.999	19.993	103.075	19.730	5.890	0.481
168.000	155.893	79.997	19.996	103.077	19.728	6.017	0.511
170.000	156.871	79.996	19.995	103.069	19.727	6.098	0.482
172.000	157.861	79.999	19.996	103.076	19.723	6.383	0.518
174.000	158.836	79.997	19.996	103.068	19.724	6.337	0.450
176.000	159.854	79.997	19.996	103.075	19.721	6.522	0.505
178.000	160.846	79.996	19.995	103.075	19.719	6.662	0.501
180.000	161.868	79.997	19.997	103.065	19.722	6.450	0.506
182.000	162.861	79.999	19.996	103.060	19.718	6.697	0.504
184.000	163.835	79.997	19.995	103.059	19.719	6.635	0.508
186.000	164.865	79.998	19.996	103.054	19.715	6.937	0.481
188.000	165.940	79.995	19.996	103.050	19.717	6.788	0.574
190.000	166.921	79.998	19.995	103.057	19.714	6.962	0.492
192.000	167.898	79.997	19.996	103.051	19.710	7.225	0.504
194.000	168.900	79.998	19.996	103.051	19.710	7.249	0.497
196.000	169.939	79.996	19.995	103.053	19.710	7.225	0.513
198.000	170.963	79.994	19.996	103.058	19.709	7.314	0.541
200.000	171.941	79.995	19.995	103.057	19.710	7.220	0.516
202.000	172.955	79.997	19.997	103.052	19.711	7.165	0.544
204.000	173.969	79.994	19.996	103.053	19.710	7.263	0.520
206.000	174.967	79.997	19.995	103.052	19.712	7.089	0.500
208.000	175.960	79.998	19.995	103.052	19.710	7.238	0.484
210.000	176.962	79.996	19.996	103.051	19.713	7.071	0.501
212.000	177.996	79.997	19.995	103.049	19.711	7.169	0.535
214.000	178.999	79.997	19.997	103.051	19.712	7.087	0.515
216.000	179.999	79.998	19.996	103.050	19.711	7.205	0.510
218.000	181.014	79.996	19.996	103.051	19.715	6.936	0.524
220.000	182.007	79.999	19.995	103.051	19.715	6.885	0.494
222.000	182.990	79.997	19.995	103.053	19.717	6.747	0.491
224.000	184.010	79.998	19.996	103.051	19.720	6.588	0.492
226.000	184.951	79.995	19.996	103.050	19.719	6.627	0.474
228.000	186.002	79.998	19.996	103.047	19.716	6.858	0.487
230.000	187.051	79.999	19.995	103.046	19.719	6.616	0.543
232.000	188.010	79.995	19.996	103.045	19.718	6.709	0.477
234.000	189.021	79.998	19.997	103.044	19.718	6.690	0.506
236.000	190.060	80.000	19.996	103.037	19.720	6.603	0.521
238.000	191.039	80.002	19.995	103.042	19.717	6.801	0.509
240.000	192.066	79.999	19.996	103.046	19.719	6.616	0.525
242.000	193.001	80.001	19.995	103.045	19.716	6.877	0.505
244.000	194.024	79.998	19.995	103.039	19.723	6.381	0.505
246.000	194.939	80.002	19.995	103.041	19.717	6.753	0.476
248.000	195.927	80.000	19.996	103.043	19.720	6.582	0.492
250.000	196.916	79.997	19.997	103.038	19.722	6.430	0.520
252.000	197.906	79.998	19.995	103.036	19.717	6.803	0.481
254.000	198.919	79.999	19.994	103.031	19.721	6.540	0.511
256.000	199.875	79.997	19.995	103.034	19.720	6.581	0.456
258.000	200.881	79.996	19.996	103.035	19.725	6.263	0.473
260.000	201.874	79.996	19.994	103.046	19.724	6.303	0.499
262.000	202.835	79.999	19.995	103.035	19.726	6.169	0.509
264.000	203.820	79.997	19.996	103.048	19.727	6.140	0.490
266.000	204.833	79.998	19.994	103.035	19.727	6.140	0.502
268.000	205.834	79.999	19.996	103.034	19.725	6.269	0.511
270.000	206.813	79.998	19.996	103.030	19.723	6.371	0.504
272.000	207.787	79.997	19.996	103.032	19.731	5.832	0.507
274.000	208.797	79.997	19.995	103.035	19.729	5.961	0.485
276.000	209.787	79.998	19.996	103.040	19.728	6.020	0.484
278.000	210.824	79.998	19.996	103.038	19.730	5.917	0.514
280.000	211.768	79.998	19.995	103.043	19.731	5.870	0.493
282.000	212.779	79.997	19.995	103.030	19.730	5.881	0.518
284.000	213.773	79.996	19.996	103.020	19.730	5.906	0.485
286.000	214.733	79.999	19.997	103.037	19.734	5.674	0.522
288.000	215.721	79.998	19.996	103.027	19.731	5.854	0.481
290.000	216.695	79.998	19.995	103.017	19.736	5.527	0.478
292.000	217.657	80.001	19.997	103.014	19.735	5.612	0.524
294.000	218.648	80.000	19.996	103.013	19.733	5.690	0.494
296.000	219.621	79.998	19.996	103.018	19.728	6.050	0.503
298.000	220.593	79.998	19.996	103.021	19.728	6.044	0.494
300.000	221.630	80.001	19.997	103.014	19.734	5.658	0.523
302.000	222.604	79.998	19.997	103.010	19.739	5.323	0.514
304.000	223.564	79.998	19.997	103.009	19.739	5.292	0.469
306.000	224.594	79.997	19.998	103.011	19.737	5.439	0.500
308.000	225.593	80.000	19.997	103.013	19.741	5.171	0.515
310.000	226.375	79.998	19.995	103.014	19.742	5.084	0.315
312.000	227.394	80.000	19.996	103.014	19.744	4.976	0.542
314.000	228.535	79.999	19.995	103.013	19.744	4.971	0.486
316.000	229.520	80.002	19.995	103.012	19.744	5.007	0.492
318.000	230.546	79.998	19.994	103.013	19.737	5.474	0.529
320.000	231.562	79.998	19.994	103.011	19.739	5.302	0.510
322.000	232.446	79.999	19.995	103.010	19.738	5.358	0.492
324.000	233.478	80.001	19.995	103.015	19.735	5.608	0.446
326.000	234.461	80.000	19.995	103.017	19.738	5.394	0.517
328.000	235.439	80.000	19.994	103.012	19.733	5.710	0.478
330.000	236.436	80.001	19.996	103.012	19.731	5.821	0.516
332.000	237.397	80.000	19.996	103.012	19.731	5.861	0.520
334.000	238.388	79.999	19.995	103.013	19.730	5.894	0.492
336.000	239.365	79.999	19.997	103.015	19.727	6.132	0.508
338.000	240.279	79.997	19.995	103.014	19.725	6.221	0.466
340.000	241.269	79.999	19.995	103.014	19.721	6.539	0.473
342.000	242.262	79.996	19.995	103.018	19.711	7.174	0.484
344.000	243.275	79.999	19.995	103.014	19.708	7.383	0.520
346.000	244.263	79.998	19.994	103.017	19.705	7.548	0.491
348.000	245.255	79.998	19.995	103.025	19.702	7.790	0.490
350.000	246.234	79.999	19.995	103.025	19.693	8.365	0.489
352.000	247.210	79.999	19.995	103.021	19.687	8.771	0.475
354.000	248.187	80.000	19.995	103.026	19.683	9.018	0.515
356.000	249.160	79.998	19.995	103.025	19.671	9.811	0.492
358.000	250.187	79.999	19.994	103.025	19.663	10.390	0.492
360.000	251.213	79.997	19.996	103.023	19.658	10.688	0.510
362.000	252.170	80.000	19.997	103.017	19.650	11.267	0.494
364.000	253.153	79.998	19.997	103.038	19.635	12.253	0.476
366.000	254.120	79.998	19.996	103.021	19.623	13.053	0.468
368.000	255.167	79.997	19.997	103.036	19.619	13.301	0.515
370.000	256.146	79.999	19.997	103.032	19.602	14.418	0.492
372.000	257.116	79.998	19.996	103.031	19.589	15.270	0.507
374.000	258.125	79.999	19.995	103.042	19.580	15.897	0.479
376.000	259.120	79.999	19.996	103.037	19.568	16.678	0.490
378.000	260.123	79.999	19.996	103.035	19.553	17.708	0.473
380.000	261.085	79.999	19.995	103.043	19.545	18.202	0.503
382.000	262.088	80.000	19.996	103.046	19.526	19.503	0.515
384.000	263.088	79.999	19.995	103.045	19.515	20.242	0.534
386.000	264.065	79.999	19.995	103.047	19.497	21.410	0.473
388.000	265.042	80.000	19.998	103.049	19.480	22.524	0.516
390.000	266.056	79.999	19.996	103.049	19.462	23.730	0.489
392.000	267.050	79.999	19.997	103.050	19.450	24.540	0.498
394.000	268.097	79.997	19.996	103.051	19.434	25.648	0.537
396.000	269.074	79.997	19.996	103.053	19.412	27.054	0.511
398.000	270.092	79.997	19.996	103.051	19.394	28.318	0.521
400.000	271.141	80.000	19.997	103.053	19.379	29.295	0.510
402.000	272.108	80.000	19.997	103.053	19.361	30.486	0.494
404.000	273.085	80.001	19.995	103.051	19.339	31.921	0.480
406.000	274.111	80.000	19.996	103.055	19.319	33.276	0.500
408.000	275.136	80.000	19.994	103.062	19.305	34.219	0.490
410.000	276.130	79.999	19.994	103.063	19.282	35.725	0.532
412.000	277.100	79.998	19.995	103.057	19.267	36.737	0.506
414.000	278.146	79.997	19.994	103.062	19.247	38.081	0.531
416.000	279.132	79.997	19.995	103.069	19.229	39.283	0.513
418.000	280.134	79.998	19.995	103.076	19.212	40.396	0.458
420.000	281.145	79.998	19.994	103.083	19.198	41.323	0.501
422.000	282.149	79.997	19.996	103.081	19.179	42.574	0.528
424.000	283.102	79.999	19.996	103.070	19.168	43.362	0.475
426.000	284.137	79.998	19.996	103.064	19.153	44.317	0.491
428.000	285.122	79.999	19.995	103.072	19.140	45.173	0.494
430.000	286.139	79.999	19.996	103.072	19.124	46.256	0.519
432.000	287.170	79.998	19.996	103.070	19.112	47.065	0.517
434.000	288.173	79.998	19.994	103.070	19.109	47.280	0.522
436.000	289.194	79.999	19.996	103.069	19.099	47.899	0.545
438.000	290.184	79.998	19.995	103.059	19.090	48.518	0.513
440.000	291.201	79.999	19.996	103.057	19.093	48.314	0.524
442.000	292.232	80.001	19.995	103.068	19.091	48.444	0.529
444.000	293.198	79.998	19.995	103.056	19.094	48.258	0.492
446.000	294.190	79.998	19.996	103.050	19.091	48.430	0.509
448.000	295.212	79.998	19.996	103.052	19.097	48.065	0.503
450.000	296.201	79.997	19.996	103.054	19.105	47.500	0.494
452.000	297.197	79.998	19.995	103.049	19.119	46.566	0.475
454.000	298.226	79.998	19.996	103.048	19.130	45.811	0.527
456.000	299.255	80.000	19.996	103.048	19.142	45.034	0.490
458.000	300.294	80.000	19.997	103.045	19.160	43.820	0.493
460.000	301.269	79.999	19.996	103.043	19.180	42.544	0.457
462.000	302.331	80.000	19.996	103.040	19.200	41.172	0.544
464.000	303.336	79.997	19.995	103.027	19.224	39.602	0.529
466.000	304.317	80.001	19.997	103.014	19.245	38.197	0.488
468.000	305.379	79.999	19.994	103.028	19.269	36.574	0.524
470.000	306.367	79.998	19.995	103.029	19.290	35.194	0.526
472.000	307.381	79.999	19.996	103.019	19.317	33.389	0.486
474.000	308.396	79.999	19.996	103.017	19.334	32.293	0.527
476.000	309.424	79.998	19.995	103.013	19.354	30.935	0.495
478.000	310.454	79.997	19.995	103.033	19.368	30.037	0.507
480.000	311.484	79.998	19.996	103.050	19.372	29.748	0.535
482.000	312.505	79.999	19.997	103.035	19.383	29.013	0.538
484.000	313.504	80.001	19.997	103.015	19.381	29.167	0.521
486.000	314.559	80.000	19.997	103.012	19.390	28.569	0.503
488.000	315.555	79.999	19.996	103.028	19.386	28.834	0.515
490.000	316.554	80.001	19.996	103.033	19.383	29.031	0.524
492.000	317.585	80.001	19.997	103.031	19.381	29.176	0.517
494.000	318.550	79.999	19.996	103.035	19.369	29.927	0.488
496.000	319.518	79.998	19.997	103.035	19.353	31.031	0.470
498.000	320.541	79.998	19.994	103.038	19.346	31.468	0.511
500.000	321.521	79.999	19.996	103.046	19.319	33.276	0.516
502.000	322.522	79.998	19.996	103.049	19.300	34.566	0.481
504.000	323.499	79.999	19.996	103.049	19.279	35.954	0.475
506.000	324.517	79.998	19.995	103.047	19.262	37.075	0.540
508.000	325.532	79.999	19.996	103.049	19.244	38.240	0.492
510.000	326.502	79.999	19.996	103.048	19.224	39.637	0.497
512.000	327.546	79.999	19.995	103.053	19.198	41.373	0.529
514.000	328.483	80.000	19.996	103.084	19.179	42.623	0.489
516.000	329.529	80.000	19.995	103.062	19.156	44.145	0.552
518.000	330.506	80.000	19.995	103.051	19.138	45.358	0.479
520.000	331.542	79.999	19.996	103.080	19.104	47.645	0.499
522.000	332.561	79.998	19.996	103.104	19.048	51.339	0.502
524.000	333.576	79.998	19.995	103.114	19.033	52.380	0.509
526.000	334.577	79.998	19.995	103.094	18.976	56.143	0.540
528.000	335.582	79.998	19.994	103.073	18.941	58.518	0.514
530.000	336.580	79.998	19.994	103.096	18.902	61.053	0.473
532.000	337.505	79.999	19.995	103.130	18.843	64.997	0.461
534.000	338.508	79.999	19.995	103.154	18.785	68.862	0.506
536.000	339.535	79.997	19.995	103.165	18.712	73.732	0.482
538.000	340.499	79.998	19.996	103.151	18.654	77.728	0.469
540.000	341.491	80.000	19.995	103.141	18.601	81.257	0.485
542.000	342.504	80.001	19.995	103.121	18.553	84.301	0.488
544.000	343.528	80.001	19.995	103.133	18.491	88.416	0.482
546.000	344.484	80.000	19.996	103.149	18.411	93.765	0.480
548.000	345.520	79.999	19.996	103.226	18.320	100.068	0.528
550.000	346.584	79.999	19.995	103.298	18.248	104.778	0.489
552.000	347.570	79.999	19.996	103.195	18.206	107.438	0.516
554.000	348.555	79.999	19.995	103.072	18.171	109.741	0.466
556.000	349.594	80.001	19.997	103.055	18.087	115.607	0.541
558.000	350.540	79.998	19.994	103.293	18.009	120.661	0.498
560.000	351.498	79.999	19.995	103.315	17.968	123.408	0.485
562.000	352.553	80.000	19.997	103.208	17.940	125.299	0.533
564.000	353.597	80.001	19.996	103.075	17.845	131.398	0.568
566.000	354.556	80.002	19.997	103.257	17.800	134.672	0.469
568.000	355.576	80.000	19.995	103.311	17.770	136.510	0.510
570.000	356.576	80.001	19.996	103.113	17.680	142.629	0.512
572.000	357.593	80.001	19.995	103.308	17.677	142.735	0.509
574.000	358.629	80.001	19.995	103.123	17.648	144.739	0.535
576.000	359.632	79.999	19.996	103.175	17.598	148.148	0.483
578.000	360.663	79.998	19.996	103.251	17.577	149.485	0.537
580.000	361.681	79.997	19.996	103.233	17.563	150.412	0.501
582.000	362.722	79.998	19.997	103.233	17.550	151.293	0.522
584.000	363.739	79.999	19.998	103.120	17.523	153.164	0.521
586.000	364.764	79.996	19.996	103.293	17.505	154.304	0.530
588.000	365.777	80.000	19.997	103.254	17.480	155.971	0.524
590.000	366.836	79.998	19.995	103.229	17.458	157.396	0.510
592.000	367.799	80.000	19.996	103.209	17.433	159.088	0.478
594.000	368.827	79.999	19.995	103.240	17.410	160.608	0.491
596.000	369.885	79.999	19.996	103.252	17.386	162.215	0.508
598.000	370.885	80.000	19.996	103.240	17.360	163.978	0.505
600.000	371.896	79.998	19.995	103.231	17.342	165.127	0.500
602.000	372.928	79.999	19.995	103.216	17.312	167.118	0.501
604.000	373.938	79.997	19.996	103.216	17.294	168.308	0.543
606.000	374.977	79.998	19.996	103.220	17.286	168.846	0.527
608.000	376.005	79.998	19.996	103.222	17.275	169.551	0.518
610.000	377.002	79.996	19.995	103.220	17.272	169.746	0.489
612.000	378.053	79.998	19.996	103.213	17.273	169.663	0.491
614.000	379.077	79.997	19.996	103.211	17.278	169.306	0.499
616.000	380.098	79.998	19.995	103.207	17.284	168.923	0.513
618.000	381.097	79.998	19.995	103.197	17.309	167.267	0.519
620.000	382.113	80.000	19.996	103.180	17.337	165.352	0.499
622.000	383.113	80.000	19.996	103.175	17.363	163.599	0.476
624.000	384.141	80.001	19.996	103.175	17.400	161.117	0.498
626.000	385.110	80.000	19.995	103.169	17.450	157.826	0.491
628.000	386.188	80.000	19.996	103.166	17.495	154.774	0.545
630.000	387.133	80.001	19.994	103.155	17.548	151.241	0.488
632.000	388.187	80.001	19.996	103.154	17.613	146.891	0.517
634.000	389.176	80.001	19.996	103.140	17.675	142.780	0.500
636.000	390.160	80.001	19.996	103.130	17.745	138.124	0.497
638.000	391.171	80.000	19.995	103.128	17.818	133.185	0.482
640.000	392.207	80.000	19.997	103.126	17.891	128.333	0.481
642.000	393.270	80.000	19.997	103.106	17.961	123.640	0.534
644.000	394.246	80.000	19.996	103.091	18.042	118.246	0.524
646.000	395.312	80.001	19.996	103.087	18.119	113.134	0.563
648.000	396.340	80.000	19.996	103.081	18.204	107.485	0.528
650.000	397.355	80.001	19.997	103.061	18.282	102.295	0.504
652.000	398.374	80.003	19.997	103.052	18.364	96.779	0.512
654.000	399.428	79.999	19.996	103.048	18.443	91.571	0.530
656.000	400.430	80.000	19.995	103.047	18.530	85.736	0.492
658.000	401.441	79.999	19.995	103.034	18.609	80.492	0.519
660.000	402.445	79.998	19.995	103.020	18.686	75.400	0.516
662.000	403.505	79.999	19.996	103.019	18.761	70.384	0.519
664.000	404.461	79.999	19.996	103.014	18.832	65.623	0.462
666.000	405.527	79.998	19.996	103.014	18.898	61.241	0.491
668.000	406.522	79.997	19.997	103.009	18.964	56.867	0.538
670.000	407.571	79.998	19.996	103.007	19.034	52.238	0.520
672.000	408.568	79.997	19.996	103.002	19.093	48.304	0.496
674.000	409.610	79.998	19.996	102.978	19.149	44.533	0.536
676.000	410.591	79.998	19.996	102.977	19.206	40.783	0.509
678.000	411.610	79.998	19.996	102.976	19.257	37.351	0.500
680.000	412.652	79.999	19.996	102.975	19.311	33.789	0.519
682.000	413.587	80.000	19.997	102.972	19.351	31.094	0.470
684.000	414.597	79.999	19.996	102.971	19.394	28.283	0.508
686.000	415.602	79.999	19.996	102.972	19.435	25.544	0.506
688.000	416.618	79.998	19.996	102.970	19.471	23.142	0.518
690.000	417.610	79.998	19.997	102.968	19.504	20.932	0.511
692.000	418.611	79.997	19.996	102.969	19.534	18.931	0.464
694.000	419.650	79.999	19.995	102.971	19.564	16.982	0.482
696.000	420.687	79.999	19.997	102.972	19.585	15.543	0.518
698.000	421.716	79.999	19.997	102.970	19.610	13.880	0.512
700.000	422.698	79.999	19.996	102.968	19.630	12.552	0.507
702.000	423.687	80.001	19.995	102.968	19.646	11.487	0.490
704.000	424.698	80.002	19.996	102.961	19.665	10.213	0.506
706.000	425.688	80.002	19.995	102.967	19.678	9.370	0.512
708.000	426.728	80.002	19.996	102.965	19.692	8.407	0.502
710.000	427.725	80.000	19.997	102.954	19.699	7.973	0.507
712.000	428.721	80.000	19.995	102.963	19.719	6.624	0.493
714.000	429.756	79.999	19.996	102.959	19.730	5.912	0.503
716.000	430.740	80.000	19.995	102.968	19.735	5.597	0.518
718.000	431.750	80.000	19.996	102.963	19.742	5.129	0.514
720.000	432.776	80.001	19.996	102.971	19.750	4.572	0.479
722.000	433.819	79.999	19.996	102.972	19.761	3.853	0.503
724.000	434.816	80.000	19.995	102.960	19.761	3.871	0.495
726.000	435.883	80.000	19.995	102.965	19.761	3.815	0.512
728.000	436.888	80.001	19.995	102.971	19.771	3.187	0.519
730.000	437.873	80.001	19.996	102.974	19.775	2.933	0.461
732.000	438.873	80.000	19.994	102.973	19.772	3.123	0.493
734.000	439.920	80.001	19.995	102.971	19.776	2.856	0.486
736.000	440.935	79.998	19.994	102.972	19.776	2.829	0.474
738.000	441.944	79.998	19.996	102.970	19.777	2.817	0.484
740.000	442.971	79.998	19.997	102.966	19.781	2.521	0.516
742.000	444.007	79.997	19.996	102.965	19.783	2.406	0.516
744.000	445.006	79.997	19.996	102.965	19.781	2.508	0.512
746.000	446.002	79.998	19.996	102.953	19.785	2.219	0.479
748.000	447.049	79.999	19.997	102.963	19.785	2.248	0.523
750.000	448.031	79.999	19.997	102.967	19.785	2.227	0.505
752.000	449.041	79.998	19.996	102.960	19.782	2.459	0.502
754.000	450.032	79.999	19.997	102.961	19.788	2.049	0.506
756.000	451.117	79.999	19.996	102.962	19.789	1.992	0.547
758.000	452.134	79.999	19.996	102.963	19.785	2.239	0.523
760.000	453.140	79.998	19.997	102.967	19.787	2.150	0.525
762.000	454.154	80.000	19.997	102.964	19.788	2.061	0.493
764.000	455.192	79.998	19.997	102.957	19.789	1.972	0.526
766.000	456.179	79.998	19.997	102.953	19.787	2.147	0.514
768.000	457.258	79.997	19.997	102.956	19.792	1.778	0.525
770.000	458.264	79.997	19.996	102.962	19.785	2.239	0.496
772.000	459.306	79.997	19.997	102.952	19.786	2.196	0.509
774.000	460.306	79.998	19.997	102.956	19.791	1.869	0.512
776.000	461.318	79.999	19.996	102.956	19.784	2.332	0.512
778.000	462.347	79.998	19.995	102.963	19.787	2.111	0.527
780.000	463.383	79.999	19.996	102.952	19.790	1.918	0.506
782.000	464.405	79.999	19.995	102.960	19.790	1.920	0.517
784.000	465.364	80.000	19.995	102.965	19.788	2.022	0.478
786.000	466.416	80.000	19.996	102.966	19.786	2.156	0.517
788.000	467.462	79.999	19.996	102.967	19.786	2.194	0.535
790.000	468.432	80.001	19.996	102.967	19.787	2.096	0.482
792.000	469.449	80.001	19.995	102.963	19.786	2.177	0.546
794.000	470.535	79.999	19.996	102.970	19.786	2.189	0.555
796.000	471.541	80.000	19.996	102.963	19.785	2.252	0.546
798.000	472.545	79.998	19.996	102.954	19.789	2.007	0.513
800.000	473.595	79.999	19.996	102.960	19.788	2.034	0.530
802.000	474.616	79.998	19.995	102.960	19.786	2.183	0.515
804.000	475.640	79.999	19.996	102.956	19.790	1.925	0.490
806.000	476.636	79.998	19.995	102.963	19.786	2.214	0.503
808.000	477.714	80.001	19.994	102.957	19.784	2.288	0.517
810.000	478.701	80.000	19.994	102.946	19.785	2.283	0.474
812.000	479.712	80.000	19.996	102.953	19.782	2.455	0.497
814.000	480.790	80.000	19.995	102.954	19.784	2.330	0.516
816.000	481.818	80.001	19.994	102.959	19.788	2.070	0.515
818.000	482.808	80.000	19.995	102.957	19.784	2.315	0.518
820.000	483.828	79.999	19.996	102.959	19.785	2.221	0.500
822.000	484.856	79.999	19.994	102.956	19.785	2.258	0.515
824.000	485.856	79.998	19.995	102.961	19.784	2.312	0.517
826.000	486.872	79.998	19.995	102.955	19.782	2.426	0.502
828.000	487.939	79.998	19.997	102.954	19.787	2.130	0.512
830.000	488.950	79.998	19.996	102.962	19.789	1.989	0.554
832.000	489.998	80.000	19.997	102.964	19.791	1.829	0.539
834.000	491.013	80.000	19.996	102.957	19.794	1.659	0.534
836.000	492.057	79.999	19.996	102.959	19.792	1.793	0.538
838.000	493.083	79.999	19.995	102.955	19.788	2.056	0.527
840.000	494.125	80.000	19.995	102.960	19.790	1.913	0.519
842.000	495.202	79.998	19.996	102.960	19.789	1.993	0.531
844.000	496.256	79.999	19.995	102.956	19.791	1.820	0.538
846.000	497.290	79.999	19.997	102.966	19.788	2.032	0.538
848.000	498.337	80.000	19.996	102.968	19.793	1.729	0.534
850.000	499.326	79.998	19.995	102.966	19.790	1.920	0.498
852.000	500.358	79.997	19.997	102.972	19.792	1.753	0.480
854.000	501.411	79.997	19.997	102.963	19.793	1.689	0.525
856.000	502.441	79.998	19.996	102.966	19.791	1.838	0.508
858.000	503.483	79.997	19.997	102.962	19.791	1.838	0.531
860.000	504.470	79.996	19.997	102.963	19.796	1.533	0.511
862.000	505.534	79.997	19.997	102.960	19.790	1.914	0.536
864.000	506.529	79.998	19.997	102.964	19.791	1.862	0.533
866.000	507.550	79.999	19.996	102.967	19.786	2.199	0.473
868.000	508.560	79.999	19.995	102.962	19.791	1.858	0.508
870.000	509.592	80.002	19.996	102.962	19.788	2.040	0.506
872.000	510.587	80.000	19.995	102.956	19.787	2.140	0.473
874.000	511.633	80.000	19.995	102.945	19.789	2.016	0.504
876.000	512.633	79.999	19.996	102.951	19.781	2.502	0.489
878.000	513.678	80.001	19.996	102.956	19.787	2.116	0.532
880.000	514.677	80.001	19.996	102.961	19.788	2.054	0.514
882.000	515.718	80.000	19.995	102.963	19.789	1.998	0.540
884.000	516.697	80.001	19.995	102.964	19.792	1.784	0.479
886.000	517.756	80.000	19.997	102.953	19.792	1.760	0.523
888.000	518.792	80.000	19.996	102.947	19.793	1.717	0.511
890.000	519.812	80.001	19.995	102.949	19.789	1.978	0.515
892.000	520.803	80.001	19.996	102.957	19.791	1.847	0.507
894.000	521.864	80.003	19.996	102.969	19.791	1.862	0.535
896.000	522.861	80.002	19.995	102.966	19.792	1.798	0.495
898.000	523.896	80.001	19.996	102.955	19.786	2.183	0.506
900.000	524.959	80.002	19.996	102.966	19.785	2.270	0.558
902.000	525.964	80.001	19.995	102.956	19.787	2.096	0.524
904.000	526.985	79.999	19.996	102.947	19.788	2.083	0.513
906.000	528.027	79.999	19.996	102.962	19.793	1.742	0.537
908.000	529.000	79.999	19.996	102.961	19.792	1.800	0.490
910.000	530.047	79.999	19.996	102.948	19.792	1.769	0.486
912.000	531.038	80.000	19.995	102.962	19.791	1.874	0.498
914.000	532.080	79.999	19.996	102.954	19.785	2.246	0.504
916.000	533.109	80.000	19.995	102.956	19.788	2.049	0.478
918.000	534.159	79.999	19.996	102.953	19.787	2.118	0.545
920.000	535.193	79.998	19.995	102.939	19.786	2.176	0.508
922.000	536.232	80.000	19.996	102.949	19.787	2.127	0.515
924.000	537.301	79.999	19.995	102.945	19.784	2.299	0.502
926.000	538.306	79.998	19.996	102.950	19.786	2.208	0.510
928.000	539.329	79.998	19.996	102.968	19.786	2.181	0.528
930.000	540.314	80.000	19.996	102.970	19.784	2.291	0.522
932.000	541.365	79.997	19.996	102.957	19.787	2.099	0.499
934.000	542.354	79.998	19.994	102.970	19.786	2.181	0.507
936.000	543.394	79.999	19.995	102.963	19.786	2.183	0.532
938.000	544.362	79.999	19.996	102.952	19.786	2.190	0.503
940.000	545.397	79.998	19.996	102.950	19.784	2.348	0.513
942.000	546.402	79.998	19.996	102.944	19.783	2.393	0.498
944.000	547.483	79.998	19.997	102.952	19.783	2.377	0.532
946.000	548.472	79.999	19.996	102.960	19.787	2.147	0.487
948.000	549.514	79.999	19.996	102.952	19.788	2.054	0.513
950.000	550.565	80.000	19.995	102.944	19.787	2.132	0.514
952.000	551.575	80.001	19.996	102.949	19.786	2.186	0.507
954.000	552.589	79.999	19.995	102.941	19.786	2.189	0.528
956.000	553.627	80.001	19.997	102.959	19.785	2.237	0.512
958.000	554.643	79.999	19.997	102.944	19.785	2.272	0.511
960.000	555.756	79.999	19.995	102.942	19.786	2.217	0.544
962.000	556.743	80.000	19.996	102.938	19.788	2.076	0.534
964.000	557.770	80.000	19.995	102.955	19.784	2.319	0.508
966.000	558.790	80.000	19.995	102.961	19.789	2.009	0.514
968.000	559.810	80.000	19.996	102.948	19.791	1.882	0.529
970.000	560.840	80.000	19.995	102.943	19.789	1.983	0.522
972.000	561.902	80.003	19.995	102.946	19.789	1.978	0.555
974.000	562.897	80.002	19.995	102.950	19.787	2.136	0.499
976.000	563.941	80.002	19.995	102.959	19.787	2.087	0.509
978.000	564.933	80.002	19.995	102.965	19.790	1.907	0.499
980.000	566.000	80.001	19.995	102.954	19.787	2.096	0.569
982.000	567.001	79.999	19.995	102.939	19.789	1.987	0.480
984.000	568.059	79.998	19.994	102.957	19.791	1.865	0.530
986.000	569.037	79.999	19.994	102.954	19.790	1.902	0.512
988.000	570.135	79.999	19.995	102.943	19.792	1.816	0.506
990.000	571.144	80.000	19.995	102.943	19.793	1.696	0.502
992.000	572.184	79.999	19.995	102.943	19.792	1.773	0.562
994.000	573.182	80.000	19.994	102.955	19.792	1.802	0.512
996.000	574.294	80.001	19.995	102.944	19.793	1.687	0.553
998.000	575.331	79.999	19.994	102.957	19.792	1.773	0.524
1000.000	576.361	80.000	19.994	102.945	19.789	1.970	0.488
1002.000	577.379	80.000	19.995	102.938	19.790	1.950	0.537
1004.000	578.417	80.001	19.995	102.937	19.792	1.760	0.516
1006.000	579.442	80.001	19.995	102.942	19.788	2.034	0.513
1008.000	580.478	80.001	19.995	102.945	19.794	1.651	0.554
1010.000	581.500	79.999	19.995	102.953	19.791	1.838	0.531
1012.000	582.536	79.997	19.995	102.941	19.791	1.872	0.526
1014.000	583.563	80.000	19.995	102.935	19.793	1.735	0.519
1016.000	584.546	79.999	19.996	102.942	19.792	1.762	0.482
1018.000	585.580	79.999	19.996	102.945	19.794	1.656	0.491
1020.000	586.637	79.999	19.996	102.937	19.793	1.744	0.531
1022.000	587.626	79.998	19.996	102.937	19.791	1.867	0.491
1024.000	588.667	79.999	19.996	102.946	19.795	1.582	0.508
1026.000	589.662	80.000	19.996	102.942	19.794	1.664	0.494
1028.000	590.652	80.003	19.996	102.940	19.796	1.551	0.496
1030.000	591.705	80.001	19.995	102.944	19.793	1.715	0.497
1032.000	592.735	80.001	19.994	102.938	19.795	1.558	0.519
1034.000	593.736	80.003	19.996	102.937	19.797	1.470	0.489
1036.000	594.801	80.003	19.996	102.944	19.792	1.780	0.566
1038.000	595.825	80.002	19.996	102.933	19.797	1.466	0.541
1040.000	596.836	79.999	19.996	102.939	19.796	1.549	0.509
1042.000	597.847	79.999	19.997	102.940	19.791	1.827	0.507
1044.000	598.840	80.000	19.997	102.936	19.793	1.700	0.500
1046.000	599.869	79.999	19.996	102.946	19.792	1.762	0.495
1048.000	600.912	79.997	19.995	102.941	19.792	1.783	0.516
1050.000	601.872	80.000	19.996	102.934	19.792	1.774	0.456
1052.000	602.924	80.000	19.996	102.933	19.790	1.941	0.506
1054.000	603.954	80.002	19.995	102.932	19.792	1.818	0.531
1056.000	604.955	80.001	19.995	102.932	19.791	1.831	0.535
1058.000	605.940	80.000	19.994	102.932	19.791	1.831	0.478
1060.000	606.933	80.001	19.994	102.938	19.787	2.137	0.501
1062.000	607.941	79.999	19.994	102.945	19.787	2.094	0.506
1064.000	608.967	80.001	19.995	102.938	19.789	1.992	0.532
1066.000	609.968	79.999	19.994	102.937	19.791	1.838	0.495
1068.000	610.986	79.997	19.995	102.935	19.791	1.850	0.497
1070.000	612.030	79.998	19.996	102.934	19.791	1.838	0.523
1072.000	613.085	79.997	19.996	102.933	19.789	1.997	0.508
1074.000	614.067	79.999	19.996	102.932	19.795	1.611	0.509
1076.000	615.069	79.999	19.995	102.932	19.795	1.611	0.522
1078.000	616.101	79.997	19.995	102.933	19.795	1.615	0.508
1080.000	617.109	79.998	19.995	102.933	19.789	1.976	0.510
1082.000	618.192	79.999	19.995	102.933	19.789	1.983	0.527
1084.000	619.168	79.998	19.995	102.932	19.789	1.972	0.515
1086.000	620.213	79.997	19.994	102.932	19.789	1.954	0.522
1088.000	621.256	79.998	19.995	102.932	19.789	1.963	0.510
1090.000	622.283	79.999	19.995	102.932	19.790	1.894	0.505
1092.000	623.290	79.998	19.995	102.934	19.794	1.676	0.500
1094.001	624.311	79.998	19.994	102.933	19.795	1.609	0.506
1096.000	625.284	79.998	19.994	102.933	19.790	1.907	0.490
1098.000	626.325	79.997	19.995	102.934	19.792	1.772	0.496
1100.000	627.368	79.999	19.995	102.933	19.793	1.707	0.525
1102.001	628.392	79.998	19.995	102.933	19.794	1.636	0.517
1104.000	629.394	79.997	19.995	102.937	19.795	1.615	0.498
1106.000	630.459	79.999	19.996	102.934	19.790	1.892	0.518
1108.000	631.488	79.999	19.996	102.934	19.793	1.749	0.482
1110.000	632.480	79.999	19.996	102.935	19.792	1.774	0.499
1112.000	633.508	79.998	19.995	102.936	19.792	1.818	0.505
1114.000	634.532	79.999	19.996	102.938	19.798	1.397	0.532
1116.000	635.595	79.999	19.995	102.941	19.796	1.497	0.528
1118.000	636.595	80.001	19.995	102.937	19.798	1.410	0.500
1120.000	637.597	79.999	19.995	102.932	19.791	1.849	0.493
1122.000	638.653	79.999	19.995	102.933	19.794	1.644	0.538
1124.000	639.656	79.999	19.994	102.934	19.795	1.584	0.505
1126.000	640.638	79.999	19.996	102.946	19.794	1.685	0.520
1128.000	641.721	79.999	19.996	102.939	19.793	1.745	0.553
1130.000	642.723	80.000	19.996	102.943	19.795	1.593	0.504
1132.001	643.728	79.999	19.996	102.940	19.794	1.622	0.514
1134.001	644.723	80.001	19.996	102.934	19.796	1.522	0.505
1136.000	645.747	80.000	19.997	102.931	19.798	1.357	0.498
1138.000	646.750	80.002	19.996	102.935	19.795	1.576	0.512
1140.000	647.776	80.000	19.996	102.931	19.796	1.551	0.513
1142.000	648.798	80.001	19.996	102.930	19.797	1.448	0.490
1144.000	649.812	80.003	19.996	102.930	19.797	1.439	0.516
1146.000	650.869	80.000	19.996	102.931	19.797	1.457	0.541
1148.000	651.855	79.999	19.996	102.931	19.799	1.306	0.509
1150.000	652.904	79.999	19.996	102.931	19.796	1.518	0.489
1152.000	653.916	79.999	19.996	102.931	19.796	1.524	0.478
1154.000	654.940	79.998	19.995	102.932	19.795	1.558	0.499
1156.000	655.949	79.999	19.995	102.932	19.794	1.624	0.482
1158.000	657.011	80.000	19.995	102.933	19.796	1.546	0.538
1160.000	657.970	79.999	19.996	102.935	19.792	1.754	0.502
1162.001	659.020	80.000	19.995	102.932	19.794	1.666	0.525
1164.000	659.986	79.998	19.996	102.932	19.795	1.595	0.464
1166.000	661.030	79.998	19.996	102.932	19.795	1.564	0.510
1168.000	662.063	79.998	19.996	102.937	19.794	1.629	0.514
1170.000	663.053	79.998	19.996	102.944	19.793	1.709	0.498
1172.000	664.089	80.001	19.995	102.938	19.795	1.571	0.521
1174.000	665.092	79.998	19.995	102.937	19.796	1.537	0.499
1176.001	666.097	79.998	19.995	102.933	19.793	1.743	0.506
1178.000	667.121	80.000	19.996	102.936	19.795	1.555	0.514
1180.000	668.085	79.999	19.994	102.939	19.798	1.404	0.503
1182.000	669.141	79.998	19.995	102.939	19.793	1.740	0.516
1184.000	670.156	79.998	19.995	102.928	19.794	1.633	0.512
1186.000	671.156	79.999	19.995	102.930	19.791	1.841	0.495
1188.000	672.177	79.998	19.995	102.935	19.793	1.742	0.511
1190.000	673.175	79.999	19.995	102.935	19.792	1.796	0.478
1192.000	674.226	80.000	19.995	102.936	19.794	1.631	0.541
1194.000	675.286	80.000	19.995	102.937	19.792	1.801	0.538
1196.000	676.290	80.000	19.995	102.933	19.792	1.776	0.510
1198.000	677.246	80.000	19.995	102.935	19.792	1.809	0.491
1200.000	678.312	80.000	19.996	102.935	19.792	1.771	0.533
1202.000	679.292	79.998	19.996	102.940	19.795	1.566	0.484
1204.000	680.328	80.000	19.996	102.933	19.791	1.820	0.531
1206.000	681.323	79.999	19.997	102.931	19.789	1.961	0.499
1208.000	682.360	80.000	19.996	102.931	19.791	1.870	0.508
1210.000	683.338	80.001	19.996	102.934	19.794	1.638	0.499
1212.000	684.378	79.999	19.996	102.934	19.793	1.698	0.494
1214.001	685.441	80.000	19.996	102.931	19.791	1.845	0.576
1216.000	686.425	80.001	19.996	102.931	19.794	1.643	0.475
1218.000	687.460	80.001	19.995	102.930	19.790	1.943	0.528
1220.000	688.462	80.003	19.995	102.930	19.793	1.707	0.510
1222.000	689.469	80.001	19.995	102.930	19.792	1.772	0.526
1224.000	690.503	80.000	19.996	102.938	19.792	1.776	0.518
1226.000	691.533	80.001	19.995	102.919	19.789	1.994	0.535
1228.000	692.571	79.999	19.996	102.948	19.790	1.939	0.511
1230.000	693.582	79.998	19.997	102.938	19.792	1.801	0.501
1232.001	694.606	79.999	19.996	102.931	19.793	1.751	0.472
1234.001	695.637	79.997	19.997	102.935	19.789	1.952	0.523
1236.000	696.677	79.999	19.996	102.938	19.788	2.055	0.545
1238.000	697.684	80.001	19.996	102.939	19.791	1.854	0.482
1240.000	698.693	79.999	19.995	102.935	19.789	1.976	0.504
1242.000	699.757	80.000	19.995	102.934	19.788	2.023	0.543
1244.000	700.774	79.999	19.994	102.933	19.789	2.005	0.528
1246.000	701.780	80.000	19.995	102.934	19.788	2.081	0.493
1248.000	702.812	79.999	19.995	102.938	19.789	1.970	0.517
1250.000	703.828	79.999	19.995	102.936	19.792	1.814	0.514
1252.000	704.854	79.998	19.995	102.933	19.790	1.947	0.515
1254.000	705.907	79.997	19.995	102.934	19.790	1.912	0.535
1256.000	706.944	79.999	19.995	102.934	19.793	1.689	0.510
1258.000	707.967	79.998	19.995	102.935	19.789	1.999	0.519
1260.000	708.965	80.000	19.995	102.935	19.792	1.778	0.496
1262.000	709.981	79.999	19.996	102.936	19.793	1.694	0.514
1264.000	711.017	79.998	19.995	102.939	19.792	1.814	0.516
1266.000	712.052	79.999	19.995	102.934	19.792	1.763	0.503
1268.000	713.076	79.999	19.996	102.935	19.792	1.818	0.520
1270.000	714.147	79.999	19.996	102.934	19.793	1.742	0.505
1272.001	715.125	80.000	19.995	102.931	19.792	1.809	0.522
1274.000	716.218	80.000	19.995	102.932	19.791	1.823	0.525
1276.000	717.235	80.000	19.995	102.931	19.790	1.945	0.522
1278.000	718.218	80.002	19.994	102.930	19.791	1.834	0.473
1280.000	719.265	80.000	19.995	102.930	19.790	1.925	0.514
1282.000	720.260	80.002	19.995	102.930	19.790	1.921	0.503
1284.000	721.277	80.000	19.996	102.928	19.789	1.963	0.480
1286.000	722.288	80.000	19.996	102.930	19.792	1.812	0.508
1288.000	723.267	80.001	19.995	102.932	19.793	1.689	0.484
1290.000	724.274	80.000	19.996	102.929	19.786	2.152	0.482
1292.001	725.293	80.001	19.996	102.931	19.787	2.090	0.501
1294.000	726.258	80.004	19.995	102.929	19.791	1.865	0.465
1296.000	727.307	80.001	19.995	102.928	19.790	1.892	0.482
1298.000	728.275	80.001	19.996	102.930	19.791	1.856	0.463
1300.000	729.345	80.002	19.995	102.930	19.791	1.843	0.486
1302.000	730.378	80.003	19.995	102.931	19.790	1.889	0.506
1304.000	731.359	80.000	19.995	102.934	19.790	1.930	0.496
1306.000	732.392	80.002	19.995	102.933	19.790	1.919	0.477
1308.000	733.414	80.000	19.995	102.934	19.789	1.985	0.538
1310.000	734.424	79.998	19.995	102.933	19.790	1.889	0.483
1312.000	735.411	80.003	19.995	102.930	19.791	1.863	0.526
1314.001	736.436	80.000	19.995	102.933	19.791	1.885	0.518
1316.000	737.426	79.999	19.996	102.934	19.788	2.075	0.482
1318.000	738.462	80.000	19.996	102.934	19.789	1.959	0.513
1320.000	739.437	79.998	19.997	102.931	19.792	1.792	0.460
1322.001	740.493	79.999	19.997	102.932	19.789	1.972	0.517
1324.000	741.507	79.999	19.996	102.938	19.791	1.852	0.501
1326.000	742.536	79.997	19.997	102.935	19.789	1.977	0.557
1328.000	743.525	80.001	19.996	102.933	19.791	1.874	0.506