File: 01_Data/PMMA_R03/MCC/PMMA_R03_MCC_30K_min_211015_R1.txt
Sample ID:	C:\MCC\MCC Cal\Test\PMMA_R03_MCC_30K_min_211015_R1.txt
Sample Weight (mg):	4.61
Heating Rate (C/s):	0.5
Combustor Temp (C):	900
N2 Flow Rate (cc/min):	80
O2 Flow Rate (cc/min):	20
Calibration File:	C:\MCC\MCC Cal\Coeff1 JN10440_30_210304.txt.txt
T Correction Coefficients:	0	1.024463	0
Time Shift (s):	14
*
Time (s)	Temperature (C)	N2 flow rate (cc/min)	O2 flow rate (cc/min)	Flow Rate (cc/min)	Oxygen (%)	HRR (W/g)	Heating rate (C/s)
0.000	109.718	79.993	19.997	102.702	20.036	0.140	0.008
2.000	109.722	79.992	19.996	102.700	20.039	-0.066	-0.026
4.000	109.699	79.991	19.996	102.702	20.037	0.070	-0.008
6.000	109.740	79.992	19.996	102.703	20.038	0.021	0.009
8.000	109.721	79.993	19.996	102.704	20.036	0.159	-0.001
10.000	109.686	79.994	19.996	102.706	20.035	0.184	-0.023
12.000	109.667	79.993	19.995	102.711	20.034	0.245	-0.014
14.000	109.682	79.993	19.995	102.739	20.030	0.513	0.008
16.000	109.725	79.993	19.996	102.747	20.027	0.718	-0.009
18.000	109.719	79.994	19.996	102.784	20.025	0.864	0.015
20.000	109.753	79.996	19.995	102.829	20.018	1.353	0.008
22.000	109.821	79.993	19.995	102.852	20.019	1.341	0.050
24.000	109.918	79.996	19.995	102.870	20.011	1.891	0.044
26.000	110.066	79.994	19.996	102.869	20.010	1.959	0.072
28.000	110.232	79.995	19.995	102.874	20.007	2.147	0.115
30.000	110.428	79.995	19.996	102.873	20.008	2.109	0.112
32.000	110.655	79.995	19.995	102.884	20.004	2.344	0.149
34.000	110.902	79.996	19.996	102.902	20.003	2.440	0.127
36.000	111.233	79.995	19.995	102.903	20.002	2.491	0.165
38.000	111.499	79.995	19.995	102.913	20.000	2.665	0.137
40.000	111.808	79.995	19.995	102.902	19.999	2.733	0.137
42.001	112.136	79.997	19.996	102.921	19.999	2.705	0.153
44.000	112.566	79.997	19.994	102.924	19.996	2.920	0.192
46.000	112.924	79.998	19.995	102.917	19.998	2.806	0.227
48.000	113.319	79.995	19.995	102.925	19.998	2.791	0.192
50.000	113.758	79.995	19.995	102.937	19.992	3.201	0.230
52.000	114.224	79.994	19.994	102.941	19.991	3.291	0.208
54.000	114.682	79.994	19.995	102.942	19.988	3.449	0.227
56.000	115.226	79.993	19.996	102.944	19.993	3.107	0.272
58.000	115.715	79.994	19.996	102.943	19.990	3.297	0.237
60.000	116.285	79.994	19.996	102.944	19.986	3.588	0.305
62.000	116.824	79.994	19.995	102.946	19.988	3.457	0.310
64.000	117.424	79.992	19.996	102.962	19.987	3.573	0.296
66.000	118.033	79.993	19.996	102.965	19.986	3.640	0.314
68.000	118.652	79.994	19.996	102.974	19.984	3.769	0.308
70.000	119.312	79.994	19.996	102.977	19.983	3.824	0.327
72.000	119.976	79.994	19.996	102.981	19.983	3.832	0.348
74.000	120.652	79.992	19.997	102.978	19.982	3.902	0.353
76.000	121.429	79.993	19.996	102.982	19.980	4.028	0.390
78.000	122.155	79.993	19.995	102.982	19.980	4.010	0.387
80.000	122.878	79.994	19.996	102.975	19.976	4.330	0.362
82.000	123.666	79.994	19.996	102.979	19.978	4.142	0.367
84.000	124.420	79.993	19.996	102.978	19.977	4.237	0.372
86.000	125.212	79.993	19.996	102.976	19.975	4.405	0.415
88.000	126.021	79.991	19.997	102.979	19.978	4.144	0.384
90.001	126.829	79.992	19.996	102.979	19.973	4.500	0.418
92.000	127.657	79.994	19.996	102.985	19.977	4.222	0.414
94.001	128.526	79.993	19.996	102.983	19.972	4.602	0.414
96.000	129.396	79.996	19.995	102.984	19.972	4.603	0.431
98.000	130.261	79.996	19.995	103.001	19.973	4.538	0.451
100.000	131.153	79.995	19.995	102.996	19.976	4.291	0.459
102.000	132.074	79.995	19.994	102.994	19.969	4.797	0.450
104.000	132.943	79.994	19.996	102.987	19.973	4.534	0.421
106.000	133.937	79.994	19.995	102.989	19.970	4.749	0.501
108.000	134.829	79.994	19.997	102.998	19.967	4.904	0.456
110.000	135.763	79.995	19.995	102.985	19.970	4.752	0.438
112.000	136.726	79.993	19.995	103.001	19.971	4.657	0.492
114.000	137.741	79.995	19.995	102.998	19.969	4.815	0.504
116.000	138.696	79.994	19.994	102.984	19.971	4.623	0.499
118.000	139.697	79.994	19.995	102.986	19.967	4.923	0.533
120.000	140.675	79.995	19.995	102.981	19.966	5.014	0.499
122.000	141.638	79.997	19.994	102.981	19.968	4.895	0.496
124.000	142.682	79.996	19.994	102.985	19.963	5.220	0.521
126.000	143.704	79.997	19.995	102.978	19.966	5.001	0.510
128.000	144.701	79.996	19.996	102.979	19.966	5.018	0.499
130.000	145.728	79.995	19.996	102.979	19.966	4.995	0.477
132.000	146.723	79.995	19.994	102.978	19.964	5.149	0.491
134.000	147.761	79.994	19.995	102.980	19.962	5.286	0.541
136.000	148.756	79.994	19.996	102.976	19.965	5.090	0.511
138.000	149.822	79.991	19.995	102.975	19.962	5.310	0.551
140.000	150.847	79.993	19.996	102.971	19.958	5.575	0.554
142.000	151.844	79.994	19.996	102.971	19.957	5.600	0.476
144.000	152.843	79.994	19.996	102.973	19.957	5.652	0.502
146.000	153.893	79.993	19.996	102.971	19.955	5.792	0.500
148.000	154.855	79.995	19.996	102.956	19.954	5.814	0.485
150.000	155.881	79.995	19.996	102.968	19.951	6.025	0.501
152.000	156.908	79.995	19.996	102.951	19.952	5.951	0.476
154.000	157.862	79.995	19.995	102.949	19.950	6.129	0.489
156.000	158.896	79.994	19.995	102.950	19.948	6.255	0.496
158.000	159.899	79.993	19.996	102.948	19.944	6.560	0.499
160.000	160.900	79.995	19.996	102.955	19.943	6.597	0.484
162.000	161.899	79.994	19.996	102.962	19.945	6.460	0.517
164.000	162.926	79.992	19.996	102.944	19.946	6.366	0.470
166.000	163.901	79.993	19.996	102.958	19.938	6.977	0.494
168.000	164.908	79.994	19.995	102.955	19.941	6.726	0.470
170.000	165.929	79.993	19.996	102.949	19.940	6.792	0.495
172.000	166.970	79.995	19.997	102.950	19.935	7.178	0.548
174.000	167.992	79.994	19.996	102.951	19.940	6.809	0.503
176.000	168.915	79.993	19.996	102.941	19.935	7.177	0.486
178.000	169.976	79.995	19.996	102.945	19.934	7.221	0.544
180.000	170.911	79.995	19.996	102.943	19.939	6.891	0.422
182.000	171.958	79.996	19.996	102.941	19.934	7.237	0.519
184.000	172.909	79.994	19.996	102.938	19.937	7.039	0.485
186.000	173.925	79.996	19.997	102.932	19.935	7.177	0.503
188.000	174.947	79.995	19.996	102.936	19.935	7.183	0.529
190.000	175.893	79.996	19.995	102.937	19.936	7.077	0.472
192.000	176.881	79.993	19.995	102.938	19.938	6.976	0.497
194.000	177.883	79.995	19.995	102.937	19.938	6.968	0.516
196.000	178.859	79.996	19.995	102.931	19.942	6.674	0.496
198.000	179.854	79.998	19.995	102.935	19.938	6.980	0.502
200.000	180.830	79.997	19.995	102.936	19.937	7.048	0.504
202.000	181.797	79.997	19.995	102.938	19.937	7.058	0.487
204.000	182.789	79.997	19.995	102.938	19.941	6.740	0.494
206.000	183.748	79.996	19.994	102.937	19.937	6.997	0.460
208.000	184.785	79.997	19.995	102.933	19.935	7.128	0.523
210.000	185.777	79.995	19.996	102.936	19.941	6.760	0.492
212.000	186.790	79.995	19.994	102.938	19.940	6.809	0.506
214.000	187.824	79.993	19.995	102.938	19.940	6.820	0.516
216.000	188.786	79.994	19.994	102.938	19.939	6.898	0.494
218.000	189.762	79.994	19.995	102.936	19.940	6.836	0.492
220.000	190.774	79.995	19.995	102.940	19.940	6.820	0.515
222.000	191.716	79.995	19.996	102.940	19.941	6.720	0.464
224.000	192.748	79.994	19.995	102.940	19.942	6.668	0.505
226.000	193.735	79.993	19.995	102.938	19.944	6.552	0.506
228.000	194.747	79.993	19.995	102.940	19.943	6.578	0.524
230.000	195.735	79.995	19.995	102.940	19.943	6.623	0.475
232.000	196.761	79.995	19.995	102.940	19.943	6.624	0.512
234.000	197.739	79.994	19.995	102.940	19.944	6.499	0.517
236.000	198.711	79.993	19.996	102.937	19.944	6.553	0.478
238.000	199.721	79.993	19.995	102.930	19.946	6.368	0.511
240.000	200.722	79.993	19.996	102.913	19.946	6.404	0.500
242.000	201.701	79.992	19.996	102.921	19.948	6.266	0.514
244.000	202.714	79.994	19.995	102.919	19.945	6.445	0.509
246.000	203.689	79.995	19.996	102.919	19.945	6.468	0.504
248.000	204.661	79.993	19.996	102.920	19.949	6.172	0.504
250.000	205.698	79.996	19.995	102.914	19.947	6.323	0.492
252.000	206.711	79.995	19.995	102.920	19.947	6.321	0.521
254.000	207.726	79.995	19.997	102.928	19.950	6.131	0.520
256.000	208.696	79.996	19.995	102.931	19.950	6.084	0.497
258.000	209.695	79.995	19.995	102.917	19.952	5.975	0.504
260.000	210.687	79.994	19.995	102.915	19.949	6.159	0.491
262.000	211.653	79.995	19.995	102.911	19.951	6.030	0.481
264.000	212.678	79.995	19.996	102.922	19.951	6.056	0.503
266.000	213.663	79.995	19.996	102.905	19.952	5.944	0.512
268.000	214.655	79.995	19.996	102.903	19.953	5.878	0.499
270.000	215.661	79.993	19.995	102.907	19.952	5.963	0.499
272.000	216.664	79.994	19.996	102.911	19.956	5.708	0.513
274.000	217.654	79.994	19.995	102.918	19.959	5.463	0.527
276.000	218.649	79.995	19.996	102.903	19.958	5.552	0.501
278.000	219.628	79.996	19.995	102.908	19.958	5.568	0.457
280.000	220.610	79.996	19.995	102.909	19.960	5.421	0.469
282.000	221.633	79.996	19.995	102.909	19.961	5.379	0.525
284.000	222.666	79.995	19.996	102.903	19.960	5.397	0.523
286.000	223.624	79.995	19.994	102.903	19.962	5.279	0.528
288.000	224.642	79.994	19.995	102.904	19.964	5.174	0.505
290.000	225.613	79.994	19.996	102.908	19.965	5.040	0.500
292.000	226.594	79.994	19.995	102.902	19.962	5.279	0.485
294.000	227.601	79.992	19.995	102.902	19.964	5.140	0.473
296.000	228.590	79.993	19.995	102.902	19.966	4.992	0.509
298.000	229.636	79.995	19.995	102.906	19.963	5.205	0.518
300.000	230.658	79.995	19.994	102.903	19.965	5.064	0.510
302.000	231.674	79.994	19.996	102.906	19.963	5.222	0.512
304.000	232.663	79.996	19.995	102.902	19.958	5.556	0.502
306.000	233.637	79.993	19.994	102.903	19.957	5.662	0.497
308.000	234.619	79.994	19.995	102.904	19.962	5.263	0.474
310.000	235.642	79.994	19.995	102.902	19.958	5.550	0.487
312.000	236.593	79.993	19.995	102.901	19.956	5.668	0.490
314.000	237.607	79.995	19.995	102.901	19.958	5.533	0.504
316.000	238.545	79.995	19.994	102.900	19.959	5.474	0.489
318.000	239.545	79.994	19.996	102.898	19.956	5.723	0.475
320.000	240.557	79.995	19.996	102.899	19.954	5.869	0.511
322.000	241.552	79.994	19.996	102.899	19.951	6.060	0.510
324.000	242.547	79.993	19.997	102.896	19.947	6.301	0.480
326.000	243.570	79.994	19.996	102.899	19.944	6.559	0.497
328.000	244.528	79.995	19.996	102.897	19.942	6.645	0.482
330.000	245.588	79.995	19.997	102.898	19.941	6.727	0.514
332.000	246.585	79.994	19.996	102.901	19.936	7.098	0.488
334.000	247.539	79.997	19.995	102.901	19.928	7.629	0.505
336.000	248.486	79.995	19.995	102.897	19.921	8.144	0.474
338.000	249.506	79.994	19.996	102.904	19.916	8.450	0.511
340.000	250.567	79.995	19.996	102.905	19.908	9.007	0.519
342.000	251.561	79.995	19.995	102.902	19.904	9.354	0.517
344.000	252.540	79.994	19.996	102.908	19.899	9.636	0.461
346.000	253.533	79.995	19.996	102.902	19.888	10.434	0.507
348.000	254.536	79.995	19.995	102.901	19.881	10.936	0.501
350.000	255.548	79.993	19.996	102.903	19.874	11.411	0.518
352.000	256.496	79.995	19.997	102.912	19.860	12.356	0.509
354.000	257.480	79.995	19.997	102.909	19.856	12.684	0.484
356.000	258.521	79.996	19.996	102.909	19.844	13.498	0.519
358.000	259.526	79.995	19.996	102.915	19.835	14.109	0.522
360.000	260.512	79.995	19.995	102.906	19.823	14.984	0.511
362.000	261.514	79.995	19.996	102.918	19.806	16.115	0.492
364.000	262.503	79.995	19.995	102.921	19.797	16.769	0.517
366.000	263.474	79.994	19.995	102.926	19.785	17.600	0.495
368.000	264.484	79.992	19.994	102.923	19.772	18.506	0.501
370.000	265.503	79.993	19.995	102.935	19.755	19.734	0.508
372.000	266.459	79.995	19.995	102.936	19.739	20.802	0.508
374.000	267.494	79.994	19.996	102.934	19.726	21.702	0.518
376.000	268.475	79.994	19.995	102.936	19.712	22.696	0.530
378.000	269.464	79.993	19.997	102.937	19.698	23.660	0.490
380.000	270.500	79.994	19.997	102.936	19.682	24.804	0.523
382.000	271.529	79.993	19.995	102.938	19.665	25.960	0.540
384.000	272.558	79.994	19.995	102.933	19.647	27.222	0.489
386.000	273.541	79.994	19.996	102.937	19.628	28.543	0.535
388.000	274.501	79.994	19.995	102.937	19.612	29.640	0.483
390.000	275.581	79.994	19.996	102.937	19.597	30.723	0.542
392.000	276.576	79.994	19.995	102.936	19.579	31.951	0.479
394.000	277.512	79.995	19.995	102.938	19.564	33.048	0.478
396.000	278.507	79.995	19.996	102.938	19.541	34.587	0.487
398.000	279.521	79.995	19.995	102.940	19.520	36.106	0.468
400.000	280.527	79.995	19.994	102.939	19.505	37.132	0.499
402.000	281.541	79.994	19.995	102.941	19.489	38.250	0.519
404.000	282.560	79.993	19.995	102.952	19.470	39.583	0.532
406.000	283.541	79.994	19.995	102.955	19.456	40.544	0.502
408.000	284.567	79.994	19.996	102.948	19.441	41.573	0.517
410.000	285.535	79.995	19.996	102.950	19.427	42.530	0.491
412.000	286.544	79.994	19.995	102.942	19.410	43.714	0.513
414.000	287.536	79.995	19.997	102.943	19.398	44.572	0.512
416.000	288.559	79.995	19.995	102.942	19.387	45.334	0.498
418.000	289.574	79.995	19.996	102.951	19.376	46.108	0.507
420.000	290.568	79.992	19.996	102.941	19.367	46.704	0.504
422.000	291.653	79.995	19.995	102.947	19.359	47.306	0.530
424.000	292.637	79.994	19.996	102.940	19.351	47.866	0.493
426.000	293.624	79.994	19.995	102.941	19.350	47.938	0.490
428.000	294.661	79.994	19.997	102.943	19.343	48.414	0.484
430.000	295.711	79.995	19.996	102.943	19.345	48.257	0.507
432.000	296.711	79.994	19.995	102.942	19.347	48.147	0.495
434.000	297.730	79.996	19.996	102.942	19.348	48.017	0.529
436.000	298.741	79.995	19.996	102.940	19.357	47.422	0.498
438.000	299.724	79.995	19.996	102.938	19.367	46.750	0.504
440.000	300.749	79.996	19.996	102.932	19.374	46.204	0.512
442.000	301.777	79.996	19.996	102.933	19.383	45.570	0.507
444.000	302.788	79.994	19.997	102.931	19.396	44.695	0.511
446.000	303.797	79.995	19.996	102.914	19.417	43.260	0.523
448.000	304.773	79.995	19.997	102.917	19.432	42.178	0.492
450.000	305.771	79.994	19.997	102.917	19.453	40.697	0.484
452.000	306.799	79.993	19.996	102.913	19.473	39.365	0.488
454.000	307.821	79.994	19.996	102.902	19.492	37.997	0.523
456.000	308.812	79.994	19.996	102.899	19.515	36.418	0.489
458.000	309.837	79.994	19.995	102.905	19.535	35.023	0.504
460.000	310.870	79.996	19.995	102.903	19.554	33.671	0.521
462.000	311.907	79.994	19.996	102.898	19.573	32.405	0.512
464.000	312.918	79.995	19.995	102.900	19.590	31.189	0.488
466.000	313.966	79.993	19.995	102.901	19.606	30.082	0.507
468.000	314.939	79.994	19.995	102.899	19.619	29.183	0.475
470.000	315.982	79.993	19.995	102.900	19.631	28.346	0.530
472.000	316.927	79.992	19.995	102.902	19.632	28.274	0.478
474.000	317.934	79.994	19.995	102.905	19.634	28.100	0.498
476.000	318.959	79.992	19.995	102.902	19.636	27.975	0.514
478.000	319.929	79.993	19.994	102.903	19.633	28.178	0.450
480.000	320.995	79.992	19.996	102.904	19.622	28.990	0.505
482.000	321.976	79.993	19.996	102.912	19.612	29.635	0.515
484.000	322.949	79.992	19.996	102.922	19.602	30.334	0.477
486.000	323.957	79.993	19.996	102.908	19.594	30.947	0.495
488.000	324.854	79.994	19.995	102.904	19.585	31.558	0.482
490.000	325.879	79.995	19.994	102.902	19.567	32.777	0.472
492.000	326.898	79.995	19.994	102.919	19.546	34.285	0.472
494.000	327.848	79.996	19.995	102.951	19.527	35.621	0.461
496.000	328.849	79.995	19.994	102.940	19.511	36.682	0.473
498.000	329.815	79.995	19.996	102.917	19.497	37.640	0.490
500.000	330.809	79.994	19.995	102.915	19.464	39.952	0.491
502.000	331.805	79.995	19.996	102.943	19.427	42.589	0.515
504.000	332.784	79.995	19.996	102.985	19.397	44.669	0.476
506.000	333.776	79.994	19.995	102.947	19.375	46.153	0.512
508.000	334.778	79.995	19.996	102.906	19.346	48.177	0.510
510.000	335.779	79.996	19.996	102.921	19.315	50.352	0.510
512.000	336.760	79.996	19.995	102.962	19.277	53.008	0.487
514.000	337.718	79.996	19.995	102.987	19.237	55.836	0.511
516.000	338.681	79.996	19.996	102.986	19.199	58.455	0.488
518.000	339.673	79.998	19.995	102.953	19.166	60.741	0.516
520.000	340.626	79.997	19.994	102.946	19.123	63.732	0.474
522.000	341.627	79.997	19.996	102.982	19.068	67.635	0.483
524.000	342.588	79.995	19.996	103.029	19.008	71.839	0.469
526.000	343.587	79.995	19.996	103.037	18.957	75.413	0.537
528.000	344.537	79.994	19.995	103.007	18.900	79.382	0.505
530.000	345.503	79.994	19.997	102.980	18.851	82.757	0.468
532.000	346.504	79.993	19.996	102.990	18.784	87.428	0.499
534.000	347.496	79.992	19.998	103.049	18.714	92.323	0.479
536.000	348.443	79.993	19.996	103.059	18.633	97.971	0.461
538.000	349.443	79.993	19.996	103.084	18.560	103.085	0.506
540.000	350.447	79.994	19.996	103.048	18.495	107.547	0.499
542.000	351.393	79.993	19.995	103.020	18.435	111.770	0.482
544.000	352.423	79.994	19.997	103.012	18.378	115.894	0.522
546.000	353.452	79.993	19.995	103.050	18.325	119.522	0.518
548.000	354.396	79.994	19.994	103.061	18.281	122.527	0.485
550.000	355.398	79.994	19.994	103.074	18.256	124.119	0.502
552.000	356.362	79.992	19.994	103.031	18.196	128.421	0.477
554.000	357.378	79.993	19.996	103.113	18.132	133.060	0.524
556.000	358.379	79.994	19.994	103.174	18.087	136.209	0.526
558.000	359.362	79.991	19.995	103.099	18.071	137.212	0.489
560.000	360.366	79.993	19.996	102.984	18.067	137.350	0.488
562.000	361.371	79.993	19.996	102.964	18.031	139.892	0.479
564.000	362.364	79.995	19.996	103.135	17.992	142.742	0.477
566.000	363.430	79.995	19.995	103.161	17.948	145.915	0.487
568.000	364.407	79.995	19.995	103.161	17.931	147.066	0.508
570.000	365.390	79.996	19.995	103.016	17.925	147.320	0.477
572.000	366.437	79.996	19.995	102.958	17.910	148.419	0.512
574.000	367.400	79.997	19.995	103.055	17.884	150.244	0.510
576.000	368.410	79.996	19.994	103.120	17.847	152.843	0.508
578.000	369.396	79.996	19.995	103.167	17.829	154.122	0.502
580.000	370.404	79.995	19.995	103.078	17.809	155.512	0.529
582.000	371.390	79.996	19.995	103.041	17.789	156.911	0.468
584.000	372.413	79.996	19.995	103.066	17.767	158.437	0.509
586.000	373.367	79.995	19.994	103.092	17.750	159.623	0.491
588.000	374.378	79.995	19.995	103.095	17.730	161.021	0.522
590.000	375.388	79.995	19.996	103.093	17.712	162.304	0.481
592.000	376.414	79.995	19.996	103.094	17.699	163.160	0.501
594.000	377.414	79.995	19.994	103.091	17.686	164.046	0.501
596.000	378.421	79.996	19.996	103.093	17.678	164.604	0.525
598.000	379.444	79.997	19.995	103.091	17.673	164.954	0.501
600.000	380.495	79.995	19.995	103.094	17.670	165.154	0.539
602.000	381.524	79.994	19.994	103.094	17.668	165.270	0.538
604.000	382.565	79.995	19.994	103.090	17.675	164.827	0.539
606.000	383.647	79.994	19.995	103.078	17.686	163.999	0.534
608.000	384.663	79.995	19.996	103.079	17.701	163.000	0.522
610.000	385.738	79.994	19.995	103.065	17.721	161.520	0.519
612.000	386.769	79.994	19.995	103.062	17.745	159.885	0.496
614.000	387.862	79.993	19.995	103.057	17.778	157.518	0.524
616.000	388.950	79.992	19.996	103.057	17.814	155.060	0.533
618.000	389.991	79.994	19.995	103.052	17.856	152.045	0.555
620.000	391.063	79.992	19.996	103.036	17.906	148.566	0.542
622.000	392.141	79.993	19.996	103.024	17.961	144.758	0.531
624.000	393.206	79.994	19.998	103.018	18.018	140.730	0.512
626.000	394.255	79.993	19.998	103.014	18.082	136.288	0.518
628.000	395.358	79.994	19.997	103.001	18.149	131.636	0.541
630.000	396.426	79.994	19.996	102.980	18.216	126.924	0.572
632.000	397.490	79.994	19.996	102.981	18.286	122.010	0.517
634.000	398.532	79.995	19.996	102.974	18.359	116.985	0.501
636.000	399.607	79.994	19.994	102.963	18.434	111.710	0.559
638.000	400.663	79.994	19.994	102.961	18.515	106.025	0.534
640.000	401.756	79.994	19.996	102.941	18.598	100.292	0.532
642.000	402.836	79.993	19.995	102.937	18.677	94.746	0.539
644.000	403.870	79.994	19.995	102.939	18.755	89.339	0.531
646.000	404.901	79.995	19.996	102.929	18.832	83.938	0.522
648.000	405.965	79.995	19.997	102.908	18.911	78.462	0.538
650.000	407.000	79.995	19.997	102.904	18.985	73.325	0.520
652.000	408.046	79.995	19.996	102.912	19.057	68.268	0.507
654.000	409.115	79.995	19.995	102.902	19.129	63.257	0.536
656.000	410.142	79.997	19.995	102.895	19.195	58.640	0.490
658.000	411.216	79.995	19.996	102.879	19.261	54.084	0.509
660.000	412.236	79.993	19.995	102.870	19.321	49.878	0.500
662.000	413.277	79.995	19.994	102.866	19.382	45.655	0.519
664.000	414.325	79.995	19.995	102.862	19.435	41.937	0.519
666.000	415.335	79.995	19.994	102.861	19.485	38.450	0.500
668.000	416.375	79.996	19.994	102.862	19.535	35.029	0.513
670.000	417.420	79.996	19.994	102.863	19.580	31.888	0.508
672.000	418.428	79.996	19.993	102.862	19.623	28.851	0.503
674.000	419.459	79.997	19.994	102.860	19.664	25.995	0.488
676.000	420.491	79.995	19.996	102.859	19.703	23.335	0.492
678.000	421.522	79.995	19.996	102.859	19.732	21.290	0.509
680.000	422.485	79.995	19.996	102.856	19.762	19.216	0.476
682.000	423.495	79.995	19.994	102.848	19.792	17.089	0.496
684.000	424.536	79.993	19.996	102.850	19.816	15.420	0.509
686.000	425.564	79.993	19.996	102.856	19.837	14.012	0.525
688.000	426.586	79.994	19.996	102.840	19.859	12.469	0.495
690.000	427.585	79.995	19.997	102.844	19.872	11.542	0.488
692.000	428.600	79.994	19.996	102.845	19.892	10.129	0.495
694.000	429.629	79.996	19.996	102.854	19.904	9.301	0.499
696.000	430.621	79.994	19.996	102.848	19.919	8.292	0.499
698.000	431.589	79.995	19.995	102.853	19.928	7.641	0.491
700.000	432.593	79.995	19.996	102.856	19.944	6.561	0.492
702.000	433.601	79.994	19.996	102.856	19.948	6.227	0.487
704.000	434.631	79.995	19.996	102.853	19.957	5.631	0.523
706.000	435.610	79.994	19.995	102.846	19.963	5.227	0.474
708.000	436.653	79.995	19.996	102.848	19.968	4.843	0.527
710.000	437.599	79.994	19.996	102.840	19.970	4.725	0.483
712.000	438.596	79.993	19.996	102.837	19.977	4.207	0.489
714.000	439.584	79.992	19.997	102.840	19.981	3.952	0.497
716.000	440.575	79.993	19.998	102.833	19.989	3.413	0.495
718.000	441.579	79.994	19.996	102.832	19.986	3.614	0.509
720.000	442.559	79.994	19.996	102.844	19.989	3.379	0.499
722.000	443.563	79.993	19.996	102.848	19.993	3.124	0.515
724.000	444.465	79.994	19.995	102.854	19.994	3.024	0.480
726.000	445.548	79.996	19.995	102.845	19.997	2.855	0.505
728.000	446.501	79.996	19.995	102.843	19.992	3.221	0.516
730.000	447.525	79.997	19.995	102.850	20.001	2.579	0.543
732.000	448.545	79.997	19.997	102.851	20.007	2.167	0.489
734.000	449.456	79.996	19.996	102.856	19.998	2.771	0.521
736.000	450.459	79.996	19.995	102.857	19.998	2.788	0.462
738.000	451.435	79.995	19.996	102.848	19.999	2.676	0.414
740.000	452.427	79.995	19.995	102.853	20.004	2.382	0.412
742.000	453.307	79.996	19.994	102.848	20.003	2.389	0.476
744.000	454.094	79.995	19.995	102.853	20.000	2.638	-0.078
746.000	455.721	79.995	19.995	102.858	19.997	2.835	0.805
748.000	456.396	79.996	19.995	102.856	20.000	2.615	0.515
750.000	457.391	79.998	19.994	102.845	20.000	2.659	0.556
752.000	458.406	79.997	19.995	102.848	19.998	2.765	0.498
754.000	459.390	79.998	19.995	102.843	20.000	2.645	0.465
756.000	460.376	79.998	19.995	102.841	20.001	2.574	0.466
758.000	461.375	79.999	19.995	102.847	19.999	2.718	0.498
760.000	462.306	79.999	19.994	102.835	19.998	2.756	0.488
762.000	463.276	79.996	19.995	102.836	19.997	2.856	0.485
764.000	464.223	79.995	19.994	102.832	19.998	2.800	0.445
766.000	465.182	79.994	19.995	102.852	19.998	2.788	0.476
768.000	466.123	79.995	19.996	102.857	19.995	3.014	0.464
770.000	467.081	79.994	19.995	102.850	19.995	2.970	0.484
772.000	468.098	79.994	19.995	102.850	19.998	2.773	0.473
774.000	469.054	79.994	19.996	102.854	19.995	2.978	0.467
776.000	470.037	79.995	19.996	102.845	19.997	2.845	0.471
778.000	471.036	79.994	19.995	102.843	19.998	2.777	0.485
780.000	471.989	79.995	19.996	102.850	20.000	2.667	0.483
782.000	472.969	79.994	19.996	102.845	19.997	2.866	0.509
784.000	473.987	79.993	19.996	102.847	19.994	3.018	0.496
786.000	475.033	79.995	19.995	102.838	19.998	2.765	0.491
788.000	475.968	79.994	19.994	102.852	19.994	3.038	0.535
790.000	476.959	79.994	19.995	102.859	19.997	2.866	0.493
792.000	477.941	79.993	19.996	102.856	19.999	2.735	0.513
794.000	478.964	79.993	19.995	102.857	20.000	2.625	0.498
796.000	479.942	79.992	19.996	102.857	19.996	2.887	0.510
798.000	480.895	79.993	19.996	102.844	19.997	2.824	0.465
800.000	481.895	79.993	19.995	102.842	19.996	2.891	0.484
802.000	482.883	79.993	19.996	102.856	19.996	2.934	0.502
804.000	483.919	79.993	19.996	102.852	19.996	2.927	0.536
806.000	484.889	79.993	19.997	102.855	19.996	2.879	0.499
808.000	485.900	79.995	19.995	102.847	19.997	2.868	0.483
810.000	486.941	79.995	19.997	102.844	19.996	2.891	0.512
812.000	487.912	79.996	19.997	102.848	19.999	2.714	0.484
814.000	488.888	79.997	19.995	102.850	19.997	2.854	0.524
816.000	489.907	79.995	19.995	102.843	19.997	2.839	0.524
818.000	490.915	79.996	19.995	102.845	19.997	2.815	0.495
820.000	491.911	79.994	19.996	102.852	20.001	2.583	0.523
822.000	492.932	79.995	19.996	102.846	20.000	2.650	0.514
824.000	494.025	79.996	19.994	102.847	20.001	2.551	0.532
826.000	495.088	79.996	19.994	102.847	20.001	2.549	0.528
828.000	496.088	79.996	19.995	102.857	19.999	2.724	0.532
830.000	497.117	79.995	19.995	102.857	20.000	2.623	0.525
832.000	498.190	79.997	19.997	102.853	20.001	2.581	0.526
834.000	499.252	79.998	19.994	102.857	19.999	2.683	0.560
836.000	500.320	79.997	19.996	102.856	19.998	2.739	0.533
838.000	501.432	79.995	19.996	102.854	19.999	2.714	0.537
840.000	502.489	79.996	19.995	102.852	19.998	2.775	0.516
842.000	503.550	79.995	19.996	102.857	20.000	2.621	0.516
844.000	504.625	79.993	19.994	102.845	19.999	2.705	0.537
846.000	505.725	79.994	19.995	102.845	19.999	2.710	0.576
848.000	506.835	79.994	19.995	102.856	19.994	3.054	0.565
850.000	507.921	79.995	19.995	102.854	19.999	2.733	0.556
852.000	509.011	79.994	19.994	102.858	19.998	2.769	0.536
854.000	510.121	79.995	19.996	102.858	19.996	2.925	0.553
856.000	511.179	79.995	19.995	102.860	19.998	2.761	0.557
858.000	512.247	79.995	19.995	102.858	19.998	2.752	0.520
860.000	513.380	79.995	19.996	102.847	19.996	2.878	0.540
862.000	514.446	79.995	19.995	102.859	19.997	2.822	0.548
864.000	515.554	79.994	19.995	102.850	19.996	2.921	0.546
866.000	516.621	79.993	19.996	102.841	19.999	2.726	0.521
868.000	517.691	79.994	19.996	102.852	19.997	2.855	0.539
870.000	518.791	79.994	19.996	102.864	19.997	2.857	0.550
872.000	519.880	79.993	19.995	102.860	19.998	2.792	0.544
874.000	520.929	79.995	19.995	102.861	19.996	2.927	0.544
876.000	522.055	79.993	19.996	102.862	19.995	2.990	0.552
878.000	523.097	79.993	19.996	102.857	19.997	2.860	0.520
880.000	524.177	79.994	19.995	102.859	19.998	2.750	0.516
882.000	525.267	79.994	19.996	102.858	19.999	2.695	0.546
884.000	526.359	79.995	19.997	102.856	19.995	2.985	0.565
886.000	527.430	79.994	19.997	102.857	19.993	3.120	0.532
888.000	528.513	79.996	19.995	102.857	19.997	2.843	0.555
890.000	529.586	79.995	19.995	102.855	19.996	2.917	0.561
892.000	530.660	79.995	19.997	102.842	19.995	2.976	0.549
894.000	531.757	79.995	19.997	102.849	19.993	3.139	0.562
896.000	532.806	79.996	19.997	102.850	19.996	2.927	0.543
898.000	533.921	79.995	19.997	102.847	19.995	2.972	0.531
900.000	534.961	79.995	19.995	102.855	19.994	3.028	0.515
902.000	536.059	79.996	19.996	102.847	19.994	3.037	0.525
904.000	537.095	79.996	19.995	102.853	19.995	2.952	0.518
906.000	538.174	79.996	19.996	102.850	19.995	2.959	0.503
908.000	539.267	79.997	19.996	102.855	19.992	3.162	0.536
910.000	540.326	79.997	19.996	102.855	19.996	2.925	0.534
912.000	541.316	79.997	19.996	102.853	19.995	3.001	0.514
914.000	542.385	79.998	19.993	102.852	19.993	3.122	0.501
916.000	543.430	79.996	19.994	102.855	19.995	3.003	0.515
918.000	544.494	79.996	19.996	102.852	19.987	3.542	0.531
920.000	545.506	79.995	19.996	102.856	19.991	3.236	0.516
922.000	546.540	79.994	19.994	102.859	19.990	3.341	0.539
924.000	547.596	79.994	19.995	102.844	19.994	3.029	0.540
926.000	548.636	79.995	19.996	102.860	19.992	3.206	0.526
928.000	549.662	79.994	19.994	102.860	19.990	3.295	0.531
930.000	550.726	79.993	19.996	102.860	19.992	3.181	0.546
932.000	551.775	79.996	19.995	102.854	19.991	3.255	0.517
934.000	552.817	79.994	19.996	102.858	19.992	3.215	0.524
936.000	553.875	79.995	19.995	102.856	19.990	3.316	0.549
938.000	554.917	79.995	19.994	102.859	19.989	3.375	0.533
940.000	555.989	79.996	19.995	102.859	19.990	3.333	0.514
942.000	556.973	79.994	19.996	102.855	19.989	3.424	0.496
944.000	558.056	79.996	19.994	102.852	19.992	3.189	0.524
946.000	559.107	79.996	19.994	102.849	19.991	3.225	0.512
948.000	560.117	79.995	19.994	102.857	19.992	3.219	0.495
950.000	561.171	79.994	19.995	102.856	19.989	3.422	0.523
952.000	562.248	79.993	19.995	102.843	19.988	3.456	0.539
954.000	563.216	79.994	19.996	102.854	19.991	3.285	0.506
956.000	564.249	79.993	19.996	102.853	19.988	3.451	0.512
958.000	565.274	79.995	19.997	102.847	19.989	3.397	0.514
960.000	566.295	79.993	19.996	102.844	19.994	3.018	0.522
962.000	567.336	79.995	19.995	102.854	19.993	3.101	0.493
964.000	568.324	79.996	19.996	102.837	19.991	3.242	0.504
966.000	569.333	79.996	19.996	102.853	19.985	3.654	0.473
968.000	570.388	79.996	19.996	102.842	19.988	3.462	0.506
970.000	571.387	79.997	19.995	102.841	19.988	3.487	0.532
972.000	572.361	79.996	19.996	102.839	19.989	3.415	0.502
974.000	573.457	79.995	19.995	102.841	19.990	3.327	0.536
976.000	574.480	79.995	19.996	102.851	19.989	3.422	0.530
978.000	575.485	79.995	19.996	102.829	19.992	3.198	0.484
980.000	576.481	79.995	19.997	102.851	19.990	3.314	0.473
982.000	577.476	79.995	19.996	102.845	19.991	3.263	0.479
984.000	578.473	79.996	19.996	102.845	19.993	3.092	0.456
986.000	579.466	79.995	19.995	102.844	19.993	3.094	0.489
988.000	580.461	79.995	19.996	102.844	19.993	3.107	0.483
990.000	581.470	79.995	19.995	102.850	19.989	3.397	0.515
992.000	582.501	79.996	19.994	102.842	19.986	3.618	0.521
994.000	583.515	79.997	19.993	102.849	19.989	3.397	0.497
996.000	584.490	79.995	19.996	102.844	19.989	3.432	0.496
998.000	585.461	79.996	19.994	102.846	19.988	3.487	0.483
1000.000	586.459	79.996	19.995	102.850	19.989	3.383	0.502
1002.000	587.439	79.995	19.995	102.833	19.989	3.416	0.486
1004.000	588.426	79.995	19.994	102.844	19.988	3.462	0.509
1006.000	589.391	79.995	19.996	102.840	19.985	3.652	0.475
1008.000	590.431	79.993	19.995	102.847	19.984	3.737	0.519
1010.000	591.419	79.995	19.996	102.858	19.987	3.532	0.487
1012.000	592.425	79.995	19.997	102.841	19.987	3.523	0.498
1014.000	593.448	79.995	19.996	102.840	19.987	3.513	0.525
1016.000	594.464	79.994	19.996	102.850	19.989	3.396	0.506
1018.000	595.420	79.995	19.995	102.845	19.988	3.489	0.501
1020.000	596.403	79.996	19.995	102.841	19.990	3.350	0.499
1022.000	597.392	79.995	19.995	102.840	19.989	3.396	0.479
1024.000	598.410	79.997	19.994	102.839	19.990	3.359	0.499
1026.000	599.300	79.996	19.994	102.833	19.988	3.468	0.448
1028.000	600.322	79.995	19.996	102.845	19.989	3.377	0.495
1030.000	601.341	79.995	19.995	102.839	19.986	3.580	0.497
1032.000	602.342	79.995	19.995	102.851	19.987	3.569	0.508
1034.000	603.288	79.994	19.996	102.840	19.986	3.589	0.478
1036.000	604.277	79.995	19.996	102.839	19.987	3.551	0.504
1038.000	605.252	79.995	19.994	102.857	19.987	3.556	0.507
1040.000	606.245	79.995	19.996	102.843	19.984	3.779	0.509
1042.001	607.230	79.995	19.995	102.847	19.986	3.635	0.504
1044.000	608.210	79.996	19.996	102.845	19.986	3.639	0.505
1046.000	609.224	79.994	19.995	102.837	19.985	3.691	0.485
1048.000	610.210	79.997	19.996	102.855	19.987	3.550	0.517
1050.000	611.211	79.996	19.995	102.848	19.984	3.728	0.515
1052.000	612.189	79.997	19.996	102.831	19.982	3.888	0.495
1054.000	613.191	79.995	19.997	102.855	19.985	3.692	0.511
1056.000	614.221	79.994	19.995	102.859	19.988	3.483	0.526
1058.000	615.239	79.996	19.994	102.862	19.989	3.365	0.513
1060.000	616.247	79.993	19.996	102.856	19.984	3.734	0.493
1062.000	617.277	79.996	19.995	102.853	19.985	3.671	0.509
1064.000	618.295	79.994	19.995	102.861	19.984	3.768	0.485
1066.000	619.269	79.996	19.995	102.858	19.982	3.918	0.518
1068.000	620.307	79.997	19.996	102.853	19.982	3.866	0.503
1070.000	621.348	79.996	19.996	102.847	19.981	3.960	0.543
1072.001	622.388	79.997	19.996	102.847	19.986	3.601	0.527
1074.000	623.366	79.998	19.995	102.851	19.985	3.647	0.505
1076.000	624.376	79.996	19.997	102.834	19.985	3.643	0.507
1078.001	625.372	79.996	19.995	102.837	19.987	3.529	0.500
1080.000	626.400	79.995	19.994	102.845	19.986	3.616	0.509
1082.000	627.403	79.994	19.996	102.855	19.986	3.601	0.504
1084.000	628.452	79.996	19.996	102.850	19.986	3.612	0.477
1086.000	629.497	79.996	19.995	102.853	19.989	3.399	0.533
1088.000	630.522	79.995	19.995	102.856	19.985	3.692	0.516
1090.001	631.530	79.996	19.994	102.847	19.983	3.789	0.500
1092.000	632.562	79.995	19.996	102.846	19.984	3.770	0.513
1094.000	633.587	79.994	19.996	102.853	19.985	3.700	0.533
1096.000	634.645	79.995	19.994	102.842	19.985	3.708	0.532
1098.000	635.701	79.995	19.994	102.845	19.983	3.839	0.535
1100.000	636.724	79.995	19.995	102.854	19.983	3.844	0.492
1102.000	637.744	79.994	19.995	102.857	19.984	3.779	0.522
1104.000	638.774	79.993	19.994	102.856	19.985	3.654	0.503
1106.001	639.798	79.994	19.995	102.855	19.984	3.728	0.517
1108.000	640.845	79.995	19.995	102.860	19.984	3.768	0.529
1110.000	641.880	79.994	19.994	102.860	19.984	3.755	0.500
1112.000	642.895	79.995	19.995	102.849	19.982	3.855	0.511
1114.000	643.921	79.994	19.994	102.860	19.986	3.618	0.514
1116.000	644.922	79.994	19.995	102.846	19.985	3.689	0.482
1118.000	645.915	79.994	19.995	102.853	19.986	3.609	0.527
1120.000	646.961	79.992	19.996	102.856	19.987	3.567	0.530
1122.001	647.992	79.995	19.994	102.854	19.985	3.673	0.529
1124.000	648.976	79.995	19.995	102.854	19.983	3.816	0.488
1126.001	650.009	79.996	19.995	102.860	19.983	3.796	0.526
1128.000	651.049	79.997	19.996	102.858	19.985	3.673	0.535
1130.000	652.040	79.995	19.995	102.849	19.983	3.800	0.492
1132.000	653.034	79.995	19.996	102.847	19.982	3.892	0.487
1134.000	654.031	79.996	19.997	102.855	19.979	4.098	0.490
1136.000	655.050	79.995	19.995	102.849	19.981	3.979	0.486
1138.000	656.041	79.999	19.993	102.845	19.979	4.060	0.485
1140.000	657.032	79.994	19.995	102.853	19.981	3.976	0.501
1142.000	658.044	79.995	19.995	102.852	19.977	4.229	0.524
1144.000	658.993	79.995	19.995	102.847	19.979	4.072	0.495
1146.001	659.985	79.996	19.995	102.851	19.979	4.077	0.493
1148.000	660.924	79.996	19.995	102.843	19.981	3.971	0.487
1150.000	661.936	79.996	19.995	102.846	19.979	4.117	0.491
1152.001	662.968	79.997	19.994	102.823	19.978	4.150	0.510
1154.001	663.947	79.996	19.995	102.843	19.976	4.270	0.525
1156.000	664.925	79.996	19.995	102.842	19.979	4.089	0.475
1158.000	665.926	79.996	19.995	102.845	19.978	4.172	0.473
1160.000	666.921	79.996	19.996	102.844	19.977	4.206	0.503
1162.001	667.847	79.992	19.997	102.853	19.978	4.194	0.478
1164.000	668.928	79.994	19.997	102.852	19.979	4.106	0.466
1166.000	669.936	79.991	19.997	102.851	19.978	4.178	0.496
1168.000	670.958	79.993	19.997	102.846	19.978	4.148	0.501
1170.000	672.011	79.993	19.994	102.844	19.976	4.289	0.526
1172.000	672.984	79.993	19.997	102.848	19.976	4.287	0.513
1174.000	673.943	79.995	19.995	102.855	19.976	4.334	0.457
1176.000	675.030	79.994	19.994	102.855	19.976	4.277	0.545
1178.000	676.020	79.995	19.995	102.852	19.975	4.344	0.508
1180.000	677.058	79.994	19.996	102.858	19.974	4.408	0.515
1182.000	678.093	79.994	19.997	102.854	19.974	4.473	0.538
1184.000	679.066	79.994	19.995	102.851	19.970	4.687	0.485
1186.000	680.092	79.994	19.996	102.855	19.974	4.441	0.501
1188.000	681.116	79.993	19.994	102.856	19.973	4.541	0.504
1190.001	682.106	79.994	19.995	102.848	19.976	4.271	0.515
1192.000	683.126	79.993	19.996	102.847	19.977	4.267	0.563
1194.000	684.167	79.994	19.996	102.853	19.975	4.385	0.507
1196.000	685.219	79.988	20.001	102.856	19.975	4.353	0.539
1198.000	686.209	79.994	19.996	102.855	19.976	4.293	0.516
1200.000	687.276	79.995	19.994	102.849	19.971	4.674	0.511
1202.000	688.268	79.995	19.996	102.847	19.975	4.391	0.496
1204.000	689.345	79.995	19.997	102.850	19.975	4.404	0.490
1206.000	690.342	79.997	19.995	102.854	19.974	4.434	0.505
1208.001	691.355	79.997	19.996	102.857	19.973	4.486	0.537
1210.000	692.382	79.997	19.996	102.858	19.973	4.504	0.504
1212.000	693.412	79.995	19.996	102.855	19.972	4.567	0.522
1214.000	694.452	79.997	19.995	102.857	19.973	4.532	0.476
1216.000	695.504	79.994	19.999	102.841	19.973	4.507	0.535
1218.000	696.488	79.996	19.995	102.839	19.977	4.214	0.512
1220.000	697.488	79.996	19.993	102.843	19.973	4.511	0.481
1222.000	698.518	79.996	19.996	102.839	19.971	4.617	0.513
1224.000	699.525	79.993	19.997	102.839	19.971	4.645	0.521
1226.000	700.587	79.994	19.996	102.852	19.969	4.765	0.542
1228.000	701.619	79.996	19.995	102.848	19.973	4.505	0.506
1230.000	702.622	79.999	19.996	102.851	19.972	4.602	0.509
1232.001	703.636	79.996	19.994	102.847	19.968	4.854	0.515
1234.000	704.627	79.998	19.997	102.835	19.966	5.008	0.478
1236.000	705.653	80.000	19.995	102.844	19.968	4.849	0.522
1238.001	706.646	80.000	19.993	102.842	19.971	4.630	0.494
1240.000	707.621	79.995	19.994	102.856	19.968	4.871	0.497
1242.000	708.636	79.998	19.996	102.853	19.967	4.900	0.483
1244.000	709.665	79.994	19.996	102.832	19.968	4.843	0.495
1246.000	710.636	79.996	19.996	102.848	19.967	4.899	0.487
1248.000	711.652	79.985	20.001	102.857	19.965	5.058	0.505
1250.000	712.668	79.994	19.995	102.837	19.966	4.991	0.465
1252.000	713.700	79.995	19.997	102.845	19.970	4.745	0.500
1254.000	714.744	79.988	19.997	102.840	19.965	5.078	0.513
1256.000	715.743	79.994	19.993	102.855	19.969	4.760	0.489
1258.000	716.798	79.994	19.996	102.856	19.970	4.729	0.545
1260.000	717.765	79.992	19.997	102.848	19.969	4.792	0.504
1262.000	718.801	79.996	19.993	102.851	19.969	4.818	0.481
1264.000	719.731	79.996	19.991	102.851	19.968	4.860	0.508
1266.000	720.767	79.995	19.993	102.847	19.967	4.928	0.489
1268.000	721.595	79.993	19.997	102.853	19.969	4.793	0.423
1270.000	722.715	79.997	19.998	102.849	19.967	4.913	0.577
1272.000	723.690	79.997	19.994	102.852	19.967	4.951	0.489
1274.000	724.688	79.989	20.001	102.845	19.967	4.928	0.503
1276.000	725.638	79.993	19.995	102.836	19.964	5.103	0.485
1278.000	726.653	79.996	19.991	102.843	19.963	5.192	0.507
1280.000	727.584	79.991	19.996	102.840	19.963	5.232	0.465
1282.001	728.604	79.994	19.997	102.850	19.963	5.227	0.482
1284.000	729.521	79.995	19.996	102.854	19.968	4.870	0.462
1286.000	730.522	79.994	19.995	102.841	19.963	5.228	0.496
1288.000	731.505	80.002	19.991	102.841	19.967	4.956	0.495
1290.000	732.455	79.997	19.994	102.844	19.964	5.143	0.495
1292.000	733.427	79.995	19.992	102.847	19.961	5.331	0.482
1294.000	734.398	79.991	19.994	102.851	19.963	5.178	0.502
1296.000	735.371	79.992	19.991	102.844	19.961	5.356	0.488
1298.001	736.310	79.992	19.998	102.833	19.961	5.316	0.472
1300.000	737.269	79.995	19.996	102.844	19.964	5.154	0.457
1302.000	738.243	79.996	19.996	102.848	19.962	5.292	0.470
1304.000	739.223	79.997	19.993	102.853	19.963	5.221	0.494
1306.000	740.191	79.994	19.998	102.860	19.964	5.140	0.469
1308.000	741.198	79.997	19.993	102.850	19.964	5.165	0.475
1310.001	742.193	79.991	20.000	102.846	19.964	5.136	0.479
1312.000	743.194	79.996	19.993	102.849	19.964	5.124	0.476
1313.000	743.648	79.995	19.999	102.860	19.966	4.979	0.473