File: 01_Data/Vinyl_Tile/STA/N2/10K_min/Vinyl_Tile_STA_N2_10KData_22056_R3.csv
##Temp./Â°C,Time/min,Mass loss(subtr.2)/mg,DSC(subtr.2)/(mW/mg),Sensit./(uV/mW)
49.839,10.01,0.0385,-0.003552708,1.06049
50.439,10.73354,0.04046573,0.02463747,1.06037
51.039,10.92319,0.04145816,0.04462775,1.06024
51.639,11.06511,0.04096088,0.06456917,1.06012
52.239,11.18334,0.04096443,0.07734298,1.05999
52.839,11.28733,0.04247803,0.08888376,1.05987
53.439,11.38342,0.04294717,0.09984515,1.05974
54.039,11.47425,0.04288166,0.11113,1.05961
54.639,11.55919,0.04221068,0.11881,1.05948
55.239,11.64076,0.04240385,0.12521,1.05936
55.839,11.71986,0.04342752,0.13197,1.05923
56.439,11.79677,0.04333225,0.13805,1.0591
57.039,11.8714,0.0434451,0.14514,1.05896
57.639,11.9442,0.04334764,0.14947,1.05883
58.239,12.01568,0.04451531,0.15314,1.0587
58.839,12.08625,0.04442429,0.15612,1.05857
59.439,12.15584,0.04466795,0.16243,1.05844
60.039,12.22472,0.04596448,0.16465,1.0583
60.639,12.29309,0.04585404,0.16611,1.05817
61.239,12.36095,0.04597891,0.1684,1.05803
61.839,12.4281,0.04502139,0.16973,1.05789
62.439,12.49503,0.04489891,0.17434,1.05776
63.039,12.56151,0.04555529,0.17595,1.05762
63.639,12.6278,0.04651315,0.17799,1.05748
64.239,12.69387,0.04736193,0.1775,1.05734
64.839,12.75939,0.04638627,0.17794,1.0572
65.439,12.82457,0.04628712,0.18029,1.05706
66.039,12.88947,0.04626879,0.18039,1.05692
66.639,12.9545,0.04760722,0.18011,1.05678
67.239,13.0192,0.04630597,0.18056,1.05664
67.839,13.08411,0.04763854,0.18314,1.0565
68.439,13.1484,0.04759638,0.18379,1.05635
69.039,13.2127,0.04627124,0.18567,1.05621
69.639,13.2767,0.04759774,0.18636,1.05606
70.239,13.34039,0.04759535,0.18703,1.05592
70.839,13.40399,0.04892929,0.18651,1.05577
71.439,13.46742,0.047602,0.18794,1.05563
72.039,13.53084,0.04860217,0.19003,1.05548
72.639,13.5942,0.04760264,0.19272,1.05533
73.239,13.6577,0.04759562,0.1916,1.05518
73.839,13.72081,0.04819713,0.19223,1.05503
74.439,13.78372,0.04761051,0.19525,1.05488
75.039,13.8463,0.04892456,0.19423,1.05473
75.639,13.90889,0.04967378,0.19535,1.05458
76.239,13.97165,0.04880131,0.19502,1.05443
76.839,14.0342,0.04888131,0.19696,1.05428
77.439,14.09676,0.05022091,0.20072,1.05412
78.039,14.15903,0.04993259,0.20097,1.05397
78.639,14.2212,0.04994083,0.20139,1.05381
79.239,14.2832,0.04887897,0.20378,1.05366
79.839,14.345,0.05021788,0.20527,1.0535
80.439,14.40688,0.04989891,0.20532,1.05335
81.039,14.46856,0.05023981,0.20465,1.05319
81.639,14.5301,0.05023998,0.20483,1.05303
82.239,14.5916,0.04888614,0.20676,1.05287
82.839,14.65295,0.05019946,0.20776,1.05271
83.439,14.7141,0.05154902,0.2089,1.05255
84.039,14.7752,0.05155632,0.20788,1.05239
84.639,14.8361,0.05023144,0.20815,1.05223
85.239,14.89696,0.05023309,0.21075,1.05207
85.839,14.95776,0.05023479,0.20994,1.05191
86.439,15.0184,0.05157896,0.21085,1.05175
87.039,15.0789,0.05022495,0.21239,1.05158
87.639,15.1394,0.05154981,0.21426,1.05142
88.239,15.1997,0.05154999,0.2143,1.05125
88.839,15.25999,0.05089079,0.21489,1.05109
89.439,15.32029,0.05153785,0.21643,1.05092
90.039,15.38039,0.05153178,0.21553,1.05075
90.639,15.4404,0.05220354,0.21746,1.05059
91.239,15.50051,0.05188322,0.21888,1.05042
91.839,15.5602,0.05286712,0.21851,1.05025
92.439,15.62009,0.05286716,0.21653,1.05008
93.039,15.68,0.0525308,0.21926,1.04991
93.639,15.73966,0.0515704,0.22018,1.04974
94.239,15.7994,0.05155001,0.22153,1.04957
94.839,15.859,0.05155,0.22099,1.0494
95.439,15.9185,0.05154749,0.22388,1.04922
96.039,15.9778,0.05286415,0.22375,1.04905
96.639,16.03717,0.05287,0.2241,1.04888
97.239,16.09659,0.05287378,0.22506,1.0487
97.839,16.15569,0.05187555,0.22682,1.04853
98.439,16.21479,0.05287036,0.22618,1.04835
99.039,16.27386,0.05427477,0.22937,1.04817
99.639,16.3331,0.05285324,0.22961,1.048
100.239,16.3925,0.05286,0.22954,1.04782
100.839,16.4516,0.05285885,0.2308,1.04764
101.439,16.5106,0.05417593,0.23112,1.04746
102.039,16.56935,0.05286419,0.23094,1.04728
102.639,16.62814,0.05368357,0.2304,1.0471
103.239,16.68696,0.05418002,0.23405,1.04692
103.839,16.74589,0.05418017,0.23328,1.04674
104.439,16.80467,0.05567999,0.2351,1.04656
105.039,16.86366,0.05417977,0.23607,1.04637
105.639,16.92248,0.05526566,0.23688,1.04619
106.239,16.98132,0.05516977,0.23801,1.04601
106.839,17.04009,0.05384735,0.2376,1.04582
107.439,17.09879,0.05385001,0.23855,1.04564
108.039,17.15766,0.05384999,0.23806,1.04545
108.639,17.2165,0.05374098,0.23885,1.04526
109.239,17.27529,0.05254021,0.23956,1.04508
109.839,17.3339,0.05286196,0.24094,1.04489
110.439,17.3925,0.05418666,0.2429,1.0447
111.039,17.4511,0.05417868,0.24123,1.04451
111.639,17.50958,0.0555005,0.24477,1.04432
112.239,17.5681,0.0555001,0.24255,1.04413
112.839,17.62677,0.05675547,0.24492,1.04394
113.439,17.68548,0.0554996,0.24534,1.04375
114.039,17.74408,0.05550098,0.24576,1.04356
114.639,17.80262,0.05453496,0.24598,1.04337
115.239,17.86115,0.05452,0.24637,1.04317
115.839,17.91901,0.05451817,0.24908,1.04298
116.439,17.97756,0.05582324,0.24764,1.04278
117.039,18.0362,0.05583253,0.24591,1.04259
117.639,18.09487,0.05549762,0.24672,1.04239
118.239,18.15375,0.05550528,0.24895,1.0422
118.839,18.21201,0.05419419,0.24738,1.042
119.439,18.2703,0.05550297,0.24844,1.0418
120.039,18.32859,0.05418021,0.24803,1.0416
120.639,18.387,0.05549358,0.25108,1.0414
121.239,18.44549,0.05549,0.25134,1.0412
121.839,18.504,0.05547924,0.25035,1.041
122.439,18.56265,0.05412451,0.25073,1.0408
123.039,18.62106,0.05549993,0.25315,1.0406
123.639,18.67942,0.0555,0.25081,1.0404
124.239,18.73751,0.0555,0.25201,1.0402
124.839,18.79557,0.05550001,0.25397,1.03999
125.439,18.85397,0.0555205,0.25455,1.03979
126.039,18.9121,0.05628474,0.25554,1.03959
126.639,18.97043,0.05550003,0.25446,1.03938
127.239,19.0284,0.05550001,0.25673,1.03917
127.839,19.0865,0.05552794,0.25656,1.03897
128.439,19.14452,0.05647803,0.25857,1.03876
129.039,19.2026,0.05647948,0.25784,1.03855
129.639,19.26075,0.05514016,0.2595,1.03835
130.239,19.3189,0.05515992,0.26174,1.03814
130.839,19.37695,0.05550793,0.26152,1.03793
131.439,19.435,0.05674885,0.26034,1.03772
132.039,19.49312,0.05812024,0.26157,1.03751
132.639,19.55126,0.05680781,0.26256,1.0373
133.239,19.6094,0.05681,0.26163,1.03708
133.839,19.66759,0.05681,0.26257,1.03687
134.439,19.72576,0.05680937,0.26176,1.03666
135.039,19.7835,0.05780892,0.26013,1.03644
135.639,19.84146,0.05681978,0.26285,1.03623
136.239,19.89926,0.05648534,0.26252,1.03602
136.839,19.95738,0.05648999,0.26311,1.0358
137.439,20.01556,0.05648324,0.26273,1.03558
138.039,20.07375,0.05779802,0.26326,1.03537
138.639,20.13162,0.05779969,0.26614,1.03515
139.239,20.18956,0.05649436,0.26625,1.03493
139.839,20.2473,0.05648004,0.26664,1.03471
140.439,20.30513,0.05647781,0.26696,1.0345
141.039,20.36319,0.0560843,0.26667,1.03428
141.639,20.42093,0.05648997,0.26789,1.03406
142.239,20.47877,0.05649,0.26816,1.03384
142.839,20.53639,0.05649,0.26957,1.03361
143.439,20.5941,0.05648997,0.27134,1.03339
144.039,20.652,0.05645252,0.27027,1.03317
144.639,20.70956,0.05781035,0.27066,1.03295
145.239,20.76729,0.05844979,0.27259,1.03272
145.839,20.825,0.05819598,0.27186,1.0325
146.439,20.88271,0.05713976,0.27226,1.03227
147.039,20.94044,0.05714,0.27256,1.03205
147.639,20.99821,0.05714,0.27263,1.03182
148.239,21.05592,0.05713498,0.27335,1.0316
148.839,21.1137,0.05780503,0.27535,1.03137
149.439,21.1712,0.05775557,0.27139,1.03114
150.039,21.22883,0.0577939,0.27284,1.03091
150.639,21.28641,0.05780001,0.27328,1.03068
151.239,21.3438,0.05783873,0.27489,1.03045
151.839,21.4014,0.05649065,0.27336,1.03022
152.439,21.45879,0.05649,0.27399,1.02999
153.039,21.51631,0.05649187,0.27405,1.02976
153.639,21.57387,0.05788969,0.27481,1.02953
154.239,21.6317,0.0568096,0.27493,1.0293
154.839,21.68944,0.05680979,0.27508,1.02906
155.439,21.74707,0.05648561,0.27785,1.02883
156.039,21.80465,0.05648001,0.27723,1.0286
156.639,21.86211,0.05648078,0.27678,1.02836
157.239,21.9195,0.0577979,0.27557,1.02813
157.839,21.9771,0.05779999,0.27802,1.02789
158.439,22.0347,0.05779939,0.27864,1.02765
159.039,22.09209,0.05747787,0.27992,1.02742
159.639,22.14965,0.0574696,0.28198,1.02718
160.239,22.20707,0.05649185,0.28164,1.02694
160.839,22.26471,0.0571449,0.28236,1.0267
161.439,22.32225,0.05713998,0.28132,1.02646
162.039,22.37981,0.05714389,0.28122,1.02622
162.639,22.43715,0.05746893,0.28304,1.02598
163.239,22.49461,0.05748328,0.283,1.02574
163.839,22.55198,0.05617111,0.28308,1.0255
164.439,22.6095,0.05616,0.28453,1.02526
165.039,22.6669,0.05616002,0.28517,1.02501
165.639,22.72428,0.05623842,0.28686,1.02477
166.239,22.7818,0.05714024,0.28788,1.02453
166.839,22.83925,0.05713463,0.287,1.02428
167.439,22.8966,0.05581747,0.28799,1.02404
168.039,22.95405,0.05582,0.2884,1.02379
168.639,23.01138,0.05582,0.28789,1.02354
169.239,23.06885,0.05582,0.2883,1.0233
169.839,23.12612,0.05582,0.29186,1.02305
170.439,23.18345,0.05582,0.28964,1.0228
171.039,23.24079,0.05581951,0.28925,1.02255
171.639,23.29802,0.05491471,0.2913,1.0223
172.239,23.3555,0.05483979,0.29133,1.02205
172.839,23.41292,0.05572478,0.29223,1.0218
173.439,23.47019,0.05484016,0.29399,1.02155
174.039,23.52754,0.05351652,0.29371,1.0213
174.639,23.58494,0.05459624,0.29544,1.02105
175.239,23.64225,0.0560657,0.29469,1.0208
175.839,23.6997,0.05352136,0.29588,1.02054
176.439,23.75704,0.05354481,0.29413,1.02029
177.039,23.81435,0.0548405,0.29728,1.02004
177.639,23.87164,0.05484,0.29535,1.01978
178.239,23.92898,0.05484,0.29707,1.01953
178.839,23.98639,0.05484,0.29472,1.01927
179.439,24.04373,0.05484,0.30031,1.01901
180.039,24.1012,0.05484,0.29632,1.01876
180.639,24.15864,0.05483992,0.29709,1.0185
181.239,24.21593,0.05436758,0.29725,1.01824
181.839,24.2731,0.05484045,0.2973,1.01798
182.439,24.3304,0.05484,0.30151,1.01772
183.039,24.38779,0.05484,0.29941,1.01746
183.639,24.44509,0.05484,0.30092,1.0172
184.239,24.50244,0.05484,0.30103,1.01694
184.839,24.55963,0.05484,0.30159,1.01668
185.439,24.6169,0.05484,0.30337,1.01642
186.039,24.67418,0.05483851,0.30128,1.01616
186.639,24.7314,0.05354052,0.30494,1.01589
187.239,24.78848,0.05220983,0.30267,1.01563
187.839,24.8455,0.05206072,0.30351,1.01537
188.439,24.90277,0.05167172,0.30124,1.0151
189.039,24.96,0.05287,0.30294,1.01484
189.639,25.01727,0.05281263,0.30431,1.01457
190.239,25.07457,0.05187966,0.30341,1.0143
190.839,25.13154,0.05188,0.30399,1.01404
191.439,25.18893,0.05187993,0.30462,1.01377
192.039,25.24619,0.05244778,0.30296,1.0135
192.639,25.30329,0.05254029,0.30573,1.01323
193.239,25.36038,0.05151961,0.30521,1.01296
193.839,25.4174,0.05122001,0.30423,1.01269
194.439,25.4745,0.05041714,0.3078,1.01242
195.039,25.5317,0.0499001,0.3072,1.01215
195.639,25.58863,0.0499,0.30935,1.01188
196.239,25.64571,0.04989998,0.30952,1.01161
196.839,25.7027,0.04986678,0.30932,1.01134
197.439,25.75989,0.05089002,0.30931,1.01106
198.039,25.81719,0.05089025,0.31057,1.01079
198.639,25.87435,0.04988064,0.31163,1.01052
199.239,25.9314,0.04957005,0.31214,1.01024
199.839,25.98854,0.04956991,0.31194,1.00997
200.439,26.04551,0.04905675,0.31268,1.00969
201.039,26.1025,0.04827053,0.3125,1.00942
201.639,26.1596,0.04825856,0.31348,1.00914
202.239,26.21667,0.04688572,0.31521,1.00886
202.839,26.27388,0.046951,0.31666,1.00858
203.439,26.331,0.04759079,0.31428,1.00831
204.039,26.38806,0.04759977,0.31493,1.00803
204.639,26.4451,0.04848307,0.31631,1.00775
205.239,26.5019,0.04729021,0.31662,1.00747
205.839,26.5589,0.04726999,0.31706,1.00719
206.439,26.61601,0.04727005,0.31832,1.00691
207.039,26.67302,0.04734999,0.31678,1.00663
207.639,26.73003,0.04562,0.31804,1.00634
208.239,26.7871,0.04479742,0.31723,1.00606
208.839,26.84426,0.04333191,0.31886,1.00578
209.439,26.90144,0.04333,0.31855,1.00549
210.039,26.95859,0.04333075,0.31775,1.00521
210.639,27.01571,0.04235408,0.32012,1.00493
211.239,27.07273,0.04233925,0.31866,1.00464
211.839,27.12985,0.04167823,0.3209,1.00436
212.439,27.18702,0.04167655,0.32216,1.00407
213.039,27.2443,0.04064096,0.3238,1.00378
213.639,27.3015,0.04069014,0.32458,1.0035
214.239,27.3586,0.03911918,0.32672,1.00321
214.839,27.41562,0.03805941,0.3279,1.00292
215.439,27.47285,0.03782955,0.32664,1.00263
216.039,27.53016,0.03674,0.32721,1.00234
216.639,27.5873,0.03673993,0.32558,1.00205
217.239,27.6445,0.03650774,0.32861,1.00176
217.839,27.70172,0.03462701,0.3294,1.00147
218.439,27.7589,0.03410987,0.32961,1.00118
219.039,27.81607,0.03352624,0.33055,1.00089
219.639,27.8733,0.03278997,0.32955,1.00059
220.239,27.93042,0.03278987,0.33288,1.0003
220.839,27.98759,0.03149488,0.33169,1.00001
221.439,28.0448,0.03064274,0.33128,0.99971
222.039,28.102,0.03017448,0.33191,0.99942
222.639,28.1594,0.02886409,0.33231,0.99913
223.239,28.2168,0.02752006,0.33543,0.99883
223.839,28.2742,0.02747363,0.33377,0.99853
224.439,28.33137,0.0254237,0.33577,0.99824
225.039,28.3887,0.02400446,0.33873,0.99794
225.639,28.44572,0.02248334,0.33837,0.99764
226.239,28.5028,0.02215202,0.33874,0.99734
226.839,28.5601,0.02215049,0.34217,0.99705
227.439,28.6174,0.02082797,0.34291,0.99675
228.039,28.6746,0.02059361,0.34239,0.99645
228.639,28.73178,0.01840316,0.3439,0.99615
229.239,28.789,0.01820024,0.34285,0.99585
229.839,28.8462,0.01690068,0.34389,0.99555
230.439,28.9033,0.01569789,0.3448,0.99524
231.039,28.9603,0.01424155,0.34517,0.99494
231.639,29.01747,0.01289174,0.34635,0.99464
232.239,29.0745,0.01155112,0.34686,0.99434
232.839,29.13178,0.009201006,0.3483,0.99403
233.439,29.1891,0.007903547,0.35024,0.99373
234.039,29.2462,0.00627454,0.35285,0.99342
234.639,29.3035,0.00491365,0.35227,0.99312
235.239,29.3606,0.003598988,0.35512,0.99281
235.839,29.41778,0.0009126017,0.35682,0.99251
236.439,29.4748,-0.000448309,0.35693,0.9922
237.039,29.53187,-0.001765406,0.35695,0.99189
237.639,29.58904,-0.002330626,0.35842,0.99159
238.239,29.64617,-0.00459608,0.3604,0.99128
238.839,29.7033,-0.006189297,0.36058,0.99097
239.439,29.76042,-0.00804513,0.36167,0.99066
240.039,29.81765,-0.01000612,0.36244,0.99035
240.639,29.8747,-0.01239958,0.3652,0.99004
241.239,29.93184,-0.01498997,0.36655,0.98973
241.839,29.98896,-0.01704121,0.36663,0.98942
242.439,30.04594,-0.01862551,0.37066,0.98911
243.039,30.10305,-0.01974246,0.37148,0.9888
243.639,30.1602,-0.02271564,0.37277,0.98848
244.239,30.2174,-0.02539478,0.37314,0.98817
244.839,30.27447,-0.02788233,0.3755,0.98786
245.439,30.33172,-0.02991195,0.37627,0.98754
246.039,30.38877,-0.0327932,0.37841,0.98723
246.639,30.446,-0.03405591,0.3798,0.98691
247.239,30.50325,-0.037472,0.3824,0.9866
247.839,30.56046,-0.03908884,0.38367,0.98628
248.439,30.61775,-0.04192733,0.38345,0.98597
249.039,30.675,-0.04528351,0.38322,0.98565
249.639,30.73221,-0.04745752,0.38562,0.98533
250.239,30.78937,-0.05148425,0.38553,0.98501
250.839,30.8466,-0.05350757,0.38842,0.9847
251.439,30.90375,-0.05636096,0.38734,0.98438
252.039,30.96088,-0.05811159,0.3899,0.98406
252.639,31.01805,-0.06078493,0.39177,0.98374
253.239,31.07517,-0.06369811,0.39211,0.98342
253.839,31.13232,-0.06777833,0.39231,0.9831
254.439,31.18938,-0.07026261,0.39177,0.98278
255.039,31.24643,-0.07366143,0.39119,0.98245
255.639,31.30357,-0.07649888,0.39803,0.98213
256.239,31.3608,-0.07978263,0.39618,0.98181
256.839,31.41785,-0.08321671,0.39504,0.98149
257.439,31.47503,-0.0863758,0.39575,0.98116
258.039,31.5322,-0.08967167,0.39634,0.98084
258.639,31.58928,-0.09347584,0.39701,0.98051
259.239,31.6464,-0.09648167,0.39721,0.98019
259.839,31.7034,-0.10033,0.39749,0.97986
260.439,31.76039,-0.10466,0.39715,0.97954
261.039,31.81745,-0.10881,0.39669,0.97921
261.639,31.87463,-0.11301,0.39485,0.97889
262.239,31.9316,-0.11633,0.39713,0.97856
262.839,31.98879,-0.11858,0.39541,0.97823
263.439,32.04592,-0.12303,0.39558,0.9779
264.039,32.10301,-0.1272,0.3978,0.97757
264.639,32.1605,-0.1319,0.39687,0.97724
265.239,32.21781,-0.1354,0.39489,0.97691
265.839,32.27518,-0.14067,0.39457,0.97658
266.439,32.33248,-0.14495,0.39652,0.97625
267.039,32.38965,-0.14859,0.3963,0.97592
267.639,32.44684,-0.15357,0.39309,0.97559
268.239,32.504,-0.15845,0.3937,0.97526
268.839,32.56134,-0.16247,0.39392,0.97493
269.439,32.61865,-0.16759,0.39179,0.97459
270.039,32.67604,-0.17284,0.39225,0.97426
270.639,32.7335,-0.17714,0.39149,0.97393
271.239,32.79094,-0.18274,0.39129,0.97359
271.839,32.8483,-0.18808,0.38993,0.97326
272.439,32.90568,-0.19304,0.39231,0.97292
273.039,32.96294,-0.19863,0.38956,0.97259
273.639,33.02043,-0.20339,0.39235,0.97225
274.239,33.07778,-0.20931,0.38965,0.97191
274.839,33.13528,-0.21608,0.39218,0.97158
275.439,33.1926,-0.22232,0.39337,0.97124
276.039,33.24998,-0.22837,0.3962,0.9709
276.639,33.3076,-0.23525,0.39791,0.97056
277.239,33.36509,-0.24145,0.40014,0.97022
277.839,33.42257,-0.24834,0.40381,0.96988
278.439,33.48003,-0.25437,0.40861,0.96954
279.039,33.5375,-0.26208,0.41128,0.9692
279.639,33.59517,-0.26795,0.41841,0.96886
280.239,33.65275,-0.27454,0.42271,0.96852
280.839,33.71043,-0.28261,0.42946,0.96818
281.439,33.76789,-0.28998,0.43683,0.96784
282.039,33.82527,-0.29647,0.44124,0.9675
282.639,33.88256,-0.30392,0.44301,0.96715
283.239,33.93988,-0.31281,0.44951,0.96681
283.839,33.9972,-0.31999,0.4574,0.96647
284.439,34.05451,-0.32689,0.46542,0.96612
285.039,34.11197,-0.33389,0.47104,0.96578
285.639,34.1695,-0.34326,0.47926,0.96543
286.239,34.22696,-0.35135,0.48259,0.96509
286.839,34.2847,-0.35871,0.48739,0.96474
287.439,34.34234,-0.36461,0.49254,0.96439
288.039,34.39985,-0.37269,0.49573,0.96405
288.639,34.45717,-0.3798,0.50079,0.9637
289.239,34.51448,-0.3873,0.50213,0.96335
289.839,34.57175,-0.39527,0.50669,0.963
290.439,34.62925,-0.40139,0.50637,0.96265
291.039,34.68683,-0.40915,0.50881,0.9623
291.639,34.74429,-0.41588,0.50805,0.96196
292.239,34.8018,-0.42318,0.50881,0.96161
292.839,34.85928,-0.4291,0.50764,0.96125
293.439,34.91673,-0.43534,0.50455,0.9609
294.039,34.9741,-0.44168,0.50391,0.96055
294.639,35.03158,-0.44843,0.50046,0.9602
295.239,35.08903,-0.4556,0.49655,0.95985
295.839,35.14642,-0.45967,0.49249,0.9595
296.439,35.20394,-0.46478,0.48746,0.95914
297.039,35.26132,-0.47068,0.48573,0.95879
297.639,35.3188,-0.47583,0.48157,0.95844
298.239,35.3762,-0.48106,0.4726,0.95808
298.839,35.43372,-0.48502,0.46698,0.95773
299.439,35.491,-0.4884,0.46141,0.95737
300.039,35.5484,-0.49341,0.45849,0.95702
300.639,35.60565,-0.49841,0.45066,0.95666
301.239,35.6631,-0.50197,0.44427,0.9563
301.839,35.72056,-0.5054,0.44021,0.95595
302.439,35.7779,-0.50989,0.4341,0.95559
303.039,35.83525,-0.51423,0.4294,0.95523
303.639,35.8926,-0.51737,0.42358,0.95487
304.239,35.94999,-0.52046,0.4186,0.95451
304.839,36.00755,-0.52219,0.41291,0.95415
305.439,36.06488,-0.52603,0.40903,0.9538
306.039,36.1224,-0.52981,0.40415,0.95344
306.639,36.17982,-0.53416,0.40163,0.95307
307.239,36.2373,-0.53547,0.39601,0.95271
307.839,36.29488,-0.53836,0.38915,0.95235
308.439,36.35248,-0.54019,0.38741,0.95199
309.039,36.40998,-0.54305,0.38225,0.95163
309.639,36.46744,-0.54499,0.37914,0.95127
310.239,36.5251,-0.54757,0.37404,0.9509
310.839,36.58271,-0.55062,0.37279,0.95054
311.439,36.64042,-0.55311,0.37154,0.95018
312.039,36.69795,-0.55232,0.36599,0.94981
312.639,36.75541,-0.55624,0.36571,0.94945
313.239,36.81297,-0.55842,0.36229,0.94908
313.839,36.87052,-0.56158,0.36307,0.94872
314.439,36.92804,-0.56374,0.35852,0.94835
315.039,36.98568,-0.56589,0.35457,0.94799
315.639,37.0433,-0.5672,0.3508,0.94762
316.239,37.10093,-0.56967,0.35008,0.94725
316.839,37.15847,-0.57184,0.34532,0.94689
317.439,37.21604,-0.57322,0.34626,0.94652
318.039,37.27346,-0.57448,0.34435,0.94615
318.639,37.33104,-0.57496,0.34239,0.94578
319.239,37.38865,-0.57627,0.34117,0.94541
319.839,37.4463,-0.57797,0.3384,0.94504
320.439,37.5041,-0.58027,0.33685,0.94467
321.039,37.56187,-0.58155,0.33652,0.9443
321.639,37.61958,-0.5834,0.33575,0.94393
322.239,37.67706,-0.58444,0.33529,0.94356
322.839,37.73465,-0.58619,0.33392,0.94319
323.439,37.7922,-0.58866,0.33105,0.94282
324.039,37.84975,-0.58858,0.33306,0.94244
324.639,37.90757,-0.5899,0.3305,0.94207
325.239,37.96521,-0.59121,0.32983,0.9417
325.839,38.02296,-0.59384,0.33014,0.94133
326.439,38.0807,-0.59412,0.33021,0.94095
327.039,38.13818,-0.59517,0.3303,0.94058
327.639,38.19601,-0.59669,0.33288,0.9402
328.239,38.25357,-0.59801,0.33233,0.93983
328.839,38.31118,-0.59802,0.3316,0.93945
329.439,38.3688,-0.59933,0.33159,0.93908
330.039,38.4262,-0.60064,0.33477,0.9387
330.639,38.48401,-0.60196,0.33255,0.93832
331.239,38.5419,-0.60329,0.33431,0.93795
331.839,38.59969,-0.6046,0.32966,0.93757
332.439,38.65756,-0.60572,0.33031,0.93719
333.039,38.71529,-0.60582,0.33196,0.93681
333.639,38.77284,-0.60723,0.32941,0.93643
334.239,38.83051,-0.60723,0.32979,0.93605
334.839,38.88805,-0.60742,0.32748,0.93568
335.439,38.94569,-0.60858,0.32835,0.9353
336.039,39.0034,-0.60883,0.32826,0.93492
336.639,39.06107,-0.60985,0.32566,0.93453
337.239,39.11878,-0.61085,0.32655,0.93415
337.839,39.17657,-0.61214,0.32702,0.93377
338.439,39.23466,-0.61251,0.32602,0.93339
339.039,39.2926,-0.61382,0.32288,0.93301
339.639,39.3506,-0.61513,0.32359,0.93263
340.239,39.40852,-0.61391,0.31962,0.93224
340.839,39.46617,-0.61512,0.32133,0.93186
341.439,39.52405,-0.61511,0.31984,0.93148
342.039,39.58193,-0.61644,0.32036,0.93109
342.639,39.63982,-0.61644,0.32059,0.93071
343.239,39.6978,-0.61775,0.319,0.93032
343.839,39.7556,-0.61774,0.31892,0.92994
344.439,39.81355,-0.61907,0.31846,0.92955
345.039,39.87126,-0.61907,0.31754,0.92917
345.639,39.9291,-0.6204,0.31781,0.92878
346.239,39.98704,-0.61927,0.31786,0.92839
346.839,40.04485,-0.62041,0.31606,0.92801
347.439,40.10269,-0.62167,0.31728,0.92762
348.039,40.1606,-0.62302,0.31694,0.92723
348.639,40.21847,-0.62302,0.31697,0.92684
349.239,40.27649,-0.62404,0.31531,0.92645
349.839,40.33449,-0.62305,0.3138,0.92606
350.439,40.39239,-0.62303,0.31462,0.92567
351.039,40.45016,-0.62435,0.31293,0.92529
351.639,40.50789,-0.6246,0.31481,0.92489
352.239,40.56583,-0.62459,0.31674,0.9245
352.839,40.62383,-0.62532,0.31453,0.92411
353.439,40.68184,-0.62662,0.31592,0.92372
354.039,40.7399,-0.62664,0.3146,0.92333
354.639,40.7978,-0.62535,0.31368,0.92294
355.239,40.85588,-0.62665,0.31504,0.92255
355.839,40.9137,-0.62892,0.31679,0.92215
356.439,40.97173,-0.62927,0.31312,0.92176
357.039,41.0297,-0.62797,0.31566,0.92137
357.639,41.08763,-0.62813,0.31185,0.92097
358.239,41.1456,-0.63063,0.31428,0.92058
358.839,41.20371,-0.63059,0.3116,0.92018
359.439,41.2618,-0.63058,0.30962,0.91979
360.039,41.32002,-0.63059,0.3055,0.91939
360.639,41.37792,-0.63059,0.30646,0.919
361.239,41.43602,-0.63042,0.30297,0.9186
361.839,41.49412,-0.63069,0.29962,0.91821
362.439,41.55226,-0.63125,0.29716,0.91781
363.039,41.61057,-0.63125,0.29457,0.91741
363.639,41.66878,-0.63125,0.29594,0.91702
364.239,41.7271,-0.6326,0.28431,0.91662
364.839,41.78536,-0.63193,0.2746,0.91622
365.439,41.84347,-0.63191,0.26873,0.91582
366.039,41.90155,-0.63194,0.26338,0.91542
366.639,41.95987,-0.6319,0.259,0.91502
367.239,42.01809,-0.63322,0.25581,0.91462
367.839,42.07645,-0.63311,0.25451,0.91422
368.439,42.13476,-0.63288,0.25495,0.91382
369.039,42.193,-0.63289,0.25052,0.91342
369.639,42.25123,-0.63289,0.25194,0.91302
370.239,42.30939,-0.6332,0.24963,0.91262
370.839,42.36759,-0.63452,0.24837,0.91222
371.439,42.42587,-0.63453,0.24671,0.91182
372.039,42.48433,-0.63453,0.24794,0.91141
372.639,42.5427,-0.63454,0.24739,0.91101
373.239,42.60115,-0.63585,0.24513,0.91061
373.839,42.65961,-0.63585,0.24262,0.9102
374.439,42.71813,-0.63585,0.2465,0.9098
375.039,42.7767,-0.63702,0.24409,0.9094
375.639,42.83507,-0.63717,0.24203,0.90899
376.239,42.8932,-0.63717,0.24468,0.90859
376.839,42.95132,-0.6371,0.24143,0.90818
377.439,43.00947,-0.63652,0.24319,0.90778
378.039,43.06795,-0.637,0.24,0.90737
378.639,43.12632,-0.63783,0.24158,0.90696
379.239,43.1848,-0.63789,0.24223,0.90656
379.839,43.24323,-0.63915,0.2391,0.90615
380.439,43.30144,-0.63915,0.24116,0.90574
381.039,43.35966,-0.63883,0.24007,0.90534
381.639,43.4178,-0.63849,0.23961,0.90493
382.239,43.47592,-0.63882,0.23945,0.90452
382.839,43.53412,-0.63908,0.23883,0.90411
383.439,43.59243,-0.63915,0.24056,0.9037
384.039,43.65063,-0.64046,0.24056,0.90329
384.639,43.70909,-0.64014,0.24377,0.90288
385.239,43.76737,-0.64293,0.243,0.90247
385.839,43.82541,-0.64135,0.24061,0.90206
386.439,43.88375,-0.64152,0.24245,0.90165
387.039,43.94182,-0.64149,0.24043,0.90124
387.639,44,-0.64277,0.24028,0.90083
388.239,44.0582,-0.64278,0.24158,0.90042
388.839,44.11649,-0.64408,0.23903,0.90001
389.439,44.17478,-0.64408,0.24044,0.89959
390.039,44.2331,-0.64539,0.2402,0.89918
390.639,44.29153,-0.64441,0.23902,0.89877
391.239,44.34985,-0.64441,0.23885,0.89835
391.839,44.40824,-0.64443,0.23895,0.89794
392.439,44.46646,-0.64572,0.23664,0.89753
393.039,44.52474,-0.64705,0.2387,0.89711
393.639,44.58299,-0.64704,0.23828,0.8967
394.239,44.64136,-0.6475,0.23679,0.89628
394.839,44.6997,-0.64968,0.23762,0.89587
395.439,44.7581,-0.64968,0.23838,0.89545
396.039,44.8166,-0.64825,0.24049,0.89504
396.639,44.87506,-0.64815,0.2376,0.89462
397.239,44.93352,-0.64824,0.23614,0.8942
397.839,44.99176,-0.64825,0.23812,0.89379
398.439,45.05015,-0.64957,0.23513,0.89337
399.039,45.10862,-0.65023,0.23558,0.89295
399.639,45.16725,-0.65154,0.23637,0.89253
400.239,45.2258,-0.65251,0.23404,0.89212
400.839,45.2843,-0.65351,0.23862,0.8917
401.439,45.34276,-0.65235,0.24035,0.89128
402.039,45.40128,-0.65352,0.23963,0.89086
402.639,45.45971,-0.65483,0.23716,0.89044
403.239,45.51806,-0.65461,0.23717,0.89002
403.839,45.5765,-0.65499,0.23528,0.8896
404.439,45.63493,-0.65515,0.23707,0.88918
405.039,45.69348,-0.65566,0.23443,0.88876
405.639,45.75201,-0.65785,0.23558,0.88834
406.239,45.81058,-0.65911,0.23529,0.88792
406.839,45.86908,-0.65978,0.2376,0.88749
407.439,45.92774,-0.6591,0.23856,0.88707
408.039,45.9864,-0.65911,0.23456,0.88665
408.639,46.04506,-0.66052,0.23278,0.88623
409.239,46.10366,-0.66035,0.23412,0.8858
409.839,46.16227,-0.66174,0.23591,0.88538
410.439,46.22084,-0.66305,0.23455,0.88496
411.039,46.2795,-0.66305,0.23317,0.88453
411.639,46.3382,-0.66439,0.2354,0.88411
412.239,46.3968,-0.6657,0.23476,0.88369
412.839,46.4555,-0.66701,0.23536,0.88326
413.439,46.51417,-0.66756,0.23515,0.88284
414.039,46.5728,-0.6677,0.23878,0.88241
414.639,46.63142,-0.667,0.23752,0.88198
415.239,46.68998,-0.66832,0.23848,0.88156
415.839,46.74861,-0.66965,0.23773,0.88113
416.439,46.80723,-0.67083,0.23788,0.88071
417.039,46.866,-0.67094,0.24161,0.88028
417.639,46.9247,-0.67227,0.23715,0.87985
418.239,46.9833,-0.67226,0.24169,0.87942
418.839,47.042,-0.67358,0.24028,0.879
419.439,47.10062,-0.67362,0.24234,0.87857
420.039,47.15938,-0.67488,0.24567,0.87814
420.639,47.2181,-0.67739,0.24399,0.87771
421.239,47.27688,-0.67753,0.24161,0.87728
421.839,47.33556,-0.67897,0.24227,0.87685
422.439,47.39432,-0.67858,0.24522,0.87642
423.039,47.4532,-0.6795,0.24611,0.87599
423.639,47.51185,-0.67948,0.24584,0.87556
424.239,47.57058,-0.68097,0.24583,0.87513
424.839,47.62927,-0.68221,0.24715,0.8747
425.439,47.68808,-0.68352,0.24806,0.87427
426.039,47.74702,-0.68488,0.2483,0.87384
426.639,47.80596,-0.68628,0.24932,0.87341
427.239,47.8648,-0.68744,0.24877,0.87297
427.839,47.92367,-0.6888,0.24989,0.87254
428.439,47.98255,-0.69012,0.25156,0.87211
429.039,48.04128,-0.69146,0.25227,0.87168
429.639,48.1002,-0.69278,0.25317,0.87124
430.239,48.15907,-0.69368,0.2526,0.87081
430.839,48.2179,-0.69488,0.2537,0.87038
431.439,48.27673,-0.69536,0.25601,0.86994
432.039,48.33553,-0.69664,0.25825,0.86951
432.639,48.39437,-0.69894,0.25982,0.86907
433.239,48.45324,-0.69944,0.26139,0.86864
433.839,48.51194,-0.70129,0.26156,0.8682
434.439,48.57067,-0.70345,0.26283,0.86777
435.039,48.6295,-0.70473,0.26314,0.86733
435.639,48.68813,-0.70609,0.26434,0.8669
436.239,48.74691,-0.70847,0.26433,0.86646
436.839,48.80574,-0.71076,0.26845,0.86602
437.439,48.86455,-0.71196,0.26869,0.86559
438.039,48.9233,-0.71316,0.27161,0.86515
438.639,48.98192,-0.7145,0.27323,0.86471
439.239,49.04071,-0.71722,0.27358,0.86428
439.839,49.0996,-0.71864,0.27565,0.86384
440.439,49.1584,-0.72155,0.27942,0.8634
441.039,49.21744,-0.72395,0.27964,0.86296
441.639,49.27643,-0.7241,0.28178,0.86252
442.239,49.33533,-0.72539,0.28193,0.86208
442.839,49.3942,-0.72843,0.28784,0.86164
443.439,49.4529,-0.72967,0.29104,0.8612
444.039,49.51169,-0.73231,0.29241,0.86076
444.639,49.57046,-0.73362,0.29181,0.86032
445.239,49.62928,-0.73664,0.2983,0.85988
445.839,49.6881,-0.73939,0.29791,0.85944
446.439,49.74713,-0.74079,0.30337,0.859
447.039,49.8061,-0.74446,0.30477,0.85856
447.639,49.86517,-0.74661,0.30831,0.85812
448.239,49.92402,-0.74788,0.30699,0.85768
448.839,49.9828,-0.74974,0.31092,0.85723
449.439,50.04167,-0.75239,0.31138,0.85679
450.039,50.10067,-0.75514,0.31672,0.85635
450.639,50.15988,-0.75684,0.32023,0.85591
451.239,50.21893,-0.75914,0.32103,0.85546
451.839,50.27799,-0.76142,0.32192,0.85502
452.439,50.33704,-0.76435,0.32636,0.85458
453.039,50.39601,-0.76675,0.32672,0.85413
453.639,50.4551,-0.76978,0.33141,0.85369
454.239,50.51408,-0.77284,0.33339,0.85324
454.839,50.5731,-0.77387,0.33567,0.8528
455.439,50.6322,-0.77642,0.34042,0.85235
456.039,50.6911,-0.78049,0.34207,0.85191
456.639,50.75033,-0.78186,0.34296,0.85146
457.239,50.80928,-0.78478,0.34076,0.85102
457.839,50.86835,-0.7874,0.34745,0.85057
458.439,50.92753,-0.78784,0.34939,0.85013
459.039,50.9865,-0.79125,0.34997,0.84968
459.639,51.04545,-0.79453,0.35282,0.84923
460.239,51.10443,-0.79682,0.35829,0.84878
460.839,51.16338,-0.79972,0.36301,0.84834
461.439,51.22248,-0.802,0.36336,0.84789
462.039,51.28153,-0.80503,0.3665,0.84744
462.639,51.34044,-0.80838,0.36792,0.84699
463.239,51.39931,-0.81145,0.37064,0.84655
463.839,51.45814,-0.81172,0.37154,0.8461
464.439,51.51698,-0.8165,0.37501,0.84565
465.039,51.57586,-0.81808,0.37792,0.8452
465.639,51.63479,-0.81983,0.38143,0.84475
466.239,51.69381,-0.82228,0.38184,0.8443
466.839,51.75277,-0.82424,0.3835,0.84385
467.439,51.8118,-0.82647,0.387,0.8434
468.039,51.87079,-0.82864,0.38885,0.84295
468.639,51.92985,-0.83087,0.39061,0.8425
469.239,51.9888,-0.83375,0.39402,0.84205
469.839,52.04795,-0.83668,0.39733,0.8416
470.439,52.107,-0.83898,0.39847,0.84115
471.039,52.16612,-0.84112,0.4021,0.84069
471.639,52.2252,-0.84275,0.40334,0.84024
472.239,52.2842,-0.84538,0.40664,0.83979
472.839,52.3434,-0.84827,0.40814,0.83934
473.439,52.40272,-0.84838,0.41049,0.83888
474.039,52.46196,-0.85145,0.4141,0.83843
474.639,52.5211,-0.85336,0.41442,0.83798
475.239,52.58019,-0.85468,0.415,0.83753
475.839,52.63907,-0.85609,0.41601,0.83707
476.439,52.69831,-0.85763,0.41966,0.83662
477.039,52.7574,-0.85917,0.42151,0.83616
477.639,52.81663,-0.86229,0.42607,0.83571
478.239,52.8757,-0.86431,0.42612,0.83526
478.839,52.93496,-0.86729,0.43003,0.8348
479.439,52.99409,-0.86701,0.43119,0.83435
480.039,53.0535,-0.86823,0.43157,0.83389
480.639,53.11285,-0.86979,0.43513,0.83343
481.239,53.17195,-0.87136,0.43643,0.83298
481.839,53.2312,-0.87267,0.43538,0.83252
482.439,53.2904,-0.87398,0.43876,0.83207
483.039,53.34985,-0.8753,0.43852,0.83161
483.639,53.40922,-0.8766,0.44478,0.83115
484.239,53.46855,-0.87825,0.44619,0.8307
484.839,53.5278,-0.87872,0.44511,0.83024
485.439,53.58727,-0.88194,0.44823,0.82978
486.039,53.64662,-0.88253,0.4509,0.82933
486.639,53.7058,-0.88452,0.45305,0.82887
487.239,53.765,-0.88392,0.45356,0.82841
487.839,53.82436,-0.88592,0.45595,0.82795
488.439,53.88369,-0.88712,0.45887,0.82749
489.039,53.9431,-0.88846,0.46114,0.82703
489.639,54.0023,-0.88981,0.46101,0.82657
490.239,54.06165,-0.89109,0.4607,0.82612
490.839,54.121,-0.89215,0.46379,0.82566
491.439,54.18042,-0.89241,0.4657,0.8252
492.039,54.2397,-0.8937,0.46682,0.82474
492.639,54.299,-0.89462,0.46651,0.82428
493.239,54.35825,-0.89504,0.46975,0.82382
493.839,54.4175,-0.89616,0.47069,0.82336
494.439,54.47674,-0.8974,0.47127,0.82289
495.039,54.5362,-0.89705,0.4736,0.82243
495.639,54.59534,-0.898,0.47614,0.82197
496.239,54.65456,-0.898,0.47502,0.82151
496.839,54.71377,-0.8993,0.47559,0.82105
497.439,54.773,-0.90021,0.47808,0.82059
498.039,54.83245,-0.90129,0.48239,0.82013
498.639,54.8918,-0.90155,0.48367,0.81966
499.239,54.9512,-0.9013,0.48082,0.8192
499.839,55.0105,-0.90261,0.48377,0.81874
500.439,55.0699,-0.90261,0.48463,0.81828
501.039,55.12924,-0.9036,0.48358,0.81781
501.639,55.1887,-0.90393,0.48689,0.81735
502.239,55.24804,-0.90525,0.48937,0.81689
502.839,55.30757,-0.90529,0.49078,0.81642
503.439,55.367,-0.90524,0.49456,0.81596
504.039,55.42665,-0.90514,0.49146,0.81549
504.639,55.48613,-0.90673,0.49416,0.81503
505.239,55.54563,-0.90848,0.49801,0.81456
505.839,55.6051,-0.90853,0.49671,0.8141
506.439,55.66463,-0.90848,0.50083,0.81363
507.039,55.7242,-0.90871,0.50167,0.81317
507.639,55.78369,-0.91018,0.50039,0.8127
508.239,55.8432,-0.91152,0.50483,0.81224
508.839,55.9027,-0.91281,0.50829,0.81177
509.439,55.96213,-0.91274,0.50898,0.81131
510.039,56.0216,-0.91282,0.50878,0.81084
510.639,56.081,-0.91545,0.5131,0.81037
511.239,56.14042,-0.91545,0.51216,0.80991
511.839,56.1999,-0.91576,0.51596,0.80944
512.439,56.25931,-0.91809,0.51456,0.80897
513.039,56.3187,-0.91676,0.51905,0.8085
513.639,56.37806,-0.91726,0.52189,0.80804
514.239,56.4376,-0.91807,0.52097,0.80757
514.839,56.49697,-0.91937,0.5233,0.8071
515.439,56.5563,-0.92069,0.52783,0.80663
516.039,56.6158,-0.92109,0.53085,0.80616
516.639,56.6752,-0.92073,0.53398,0.8057
517.239,56.73483,-0.92202,0.53689,0.80523
517.839,56.79447,-0.92333,0.53908,0.80476
518.439,56.85408,-0.92334,0.54225,0.80429
519.039,56.9135,-0.92336,0.54424,0.80382
519.639,56.97286,-0.92466,0.5477,0.80335
520.239,57.03221,-0.92598,0.55076,0.80288
520.839,57.0917,-0.92727,0.55307,0.80241
521.439,57.15124,-0.92837,0.55302,0.80194
522.039,57.21091,-0.9286,0.55866,0.80147
522.639,57.27036,-0.92896,0.55948,0.801
523.239,57.32976,-0.92861,0.56292,0.80053
523.839,57.38924,-0.92857,0.56764,0.80006
524.439,57.44875,-0.92993,0.56813,0.79959
525.039,57.5082,-0.92995,0.57089,0.79912
525.639,57.5675,-0.93125,0.57331,0.79864
526.239,57.6268,-0.93217,0.57706,0.79817
526.839,57.6862,-0.93259,0.57961,0.7977
527.439,57.74564,-0.93399,0.58172,0.79723
528.039,57.80519,-0.93605,0.5871,0.79676
528.639,57.8648,-0.93725,0.59116,0.79628
529.239,57.9243,-0.93749,0.5939,0.79581
529.839,57.98381,-0.93931,0.59944,0.79534
530.439,58.04335,-0.94132,0.60298,0.79486
531.039,58.10281,-0.94122,0.60901,0.79439
531.639,58.16209,-0.9412,0.61191,0.79392
532.239,58.2215,-0.94254,0.61818,0.79344
532.839,58.28086,-0.94385,0.62262,0.79297
533.439,58.34039,-0.94517,0.62776,0.7925
534.039,58.40005,-0.94649,0.6296,0.79202
534.639,58.4596,-0.94648,0.63298,0.79155
535.239,58.51935,-0.94644,0.63797,0.79107
535.839,58.57884,-0.94907,0.6382,0.7906
536.439,58.6384,-0.95048,0.64086,0.79012
537.039,58.698,-0.95075,0.64222,0.78965
537.639,58.7572,-0.95091,0.64578,0.78917
538.239,58.8167,-0.95214,0.65274,0.7887
538.839,58.8762,-0.95306,0.65468,0.78822
539.439,58.93589,-0.95437,0.65703,0.78775
540.039,58.99555,-0.95568,0.66225,0.78727
540.639,59.0552,-0.95677,0.6639,0.7868
541.239,59.1148,-0.95707,0.66664,0.78632
541.839,59.1746,-0.95832,0.66856,0.78584
542.439,59.2344,-0.95965,0.67009,0.78537
543.039,59.29413,-0.95964,0.67344,0.78489
543.639,59.35391,-0.96092,0.67504,0.78441
544.239,59.4138,-0.96229,0.67516,0.78394
544.839,59.47355,-0.96359,0.67461,0.78346
545.439,59.53329,-0.96489,0.67505,0.78298
546.039,59.59315,-0.96619,0.67314,0.7825
546.639,59.6529,-0.96655,0.67757,0.78203
547.239,59.71266,-0.96676,0.67693,0.78155
547.839,59.7725,-0.96798,0.6749,0.78107
548.439,59.8322,-0.97137,0.68158,0.78059
549.039,59.89209,-0.9715,0.6833,0.78011
549.639,59.9519,-0.9715,0.68421,0.77963
550.239,60.01177,-0.97279,0.6841,0.77915
550.839,60.0715,-0.97412,0.6868,0.77868
551.439,60.13129,-0.97544,0.68754,0.7782
552.039,60.19118,-0.97674,0.69331,0.77772
552.639,60.2509,-0.97774,0.69705,0.77724
553.239,60.3106,-0.97676,0.69669,0.77676
553.839,60.3704,-0.97808,0.70016,0.77628
554.439,60.43034,-0.97939,0.70094,0.7758
555.039,60.49043,-0.98071,0.70272,0.77532
555.639,60.5504,-0.98215,0.70116,0.77484
556.239,60.6103,-0.98345,0.70772,0.77436
556.839,60.67017,-0.98478,0.71036,0.77388
557.439,60.7301,-0.98608,0.71027,0.7734
558.039,60.79008,-0.9874,0.7117,0.77291
558.639,60.85,-0.98872,0.71505,0.77243
559.239,60.9099,-0.99003,0.7172,0.77195
559.839,60.96989,-0.99146,0.71934,0.77147
560.439,61.0299,-0.9919,0.72393,0.77099
561.039,61.0898,-0.99452,0.72765,0.77051
561.639,61.14988,-0.9976,0.73144,0.77003
562.239,61.20981,-0.99596,0.73292,0.76954
562.839,61.2698,-0.99727,0.73883,0.76906
563.439,61.3299,-0.99792,0.74267,0.76858
564.039,61.38986,-0.99924,0.74556,0.7681
564.639,61.45,-1.00056,0.7485,0.76761
565.239,61.50982,-1.00187,0.75239,0.76713
565.839,61.56972,-1.00319,0.75634,0.76665
566.439,61.62964,-1.00451,0.76464,0.76617
567.039,61.68946,-1.00611,0.7691,0.76568
567.639,61.7495,-1.00712,0.77186,0.7652
568.239,61.80953,-1.00874,0.77791,0.76471
568.839,61.8695,-1.0111,0.78214,0.76423
569.439,61.9295,-1.01209,0.79146,0.76375
570.039,61.98976,-1.01306,0.79642,0.76326
570.639,62.0496,-1.01447,0.8048,0.76278
571.239,62.10957,-1.01449,0.81124,0.76229
571.839,62.1693,-1.01641,0.81686,0.76181
572.439,62.22926,-1.02201,0.82792,0.76133
573.039,62.28934,-1.02181,0.83507,0.76084
573.639,62.3495,-1.02131,0.84339,0.76036
574.239,62.4096,-1.02261,0.85153,0.75987
574.839,62.4695,-1.02393,0.86346,0.75939
575.439,62.5294,-1.02628,0.87105,0.7589
576.039,62.5894,-1.0282,0.88228,0.75842
576.639,62.6497,-1.02952,0.89372,0.75793
577.239,62.7098,-1.03083,0.90752,0.75744
577.839,62.76985,-1.03368,0.91479,0.75696
578.439,62.82983,-1.03653,0.92787,0.75647
579.039,62.88994,-1.03862,0.93694,0.75599
579.639,62.95001,-1.03994,0.94826,0.7555
580.239,63.0101,-1.0416,0.9559,0.75501
580.839,63.07014,-1.04422,0.96671,0.75453
581.439,63.13,-1.04707,0.97132,0.75404
582.039,63.19025,-1.04993,0.97548,0.75355
582.639,63.2505,-1.04994,0.97858,0.75307
583.239,63.31094,-1.05268,0.97878,0.75258
583.839,63.37125,-1.05399,0.97635,0.75209
584.439,63.4315,-1.05687,0.97131,0.7516
585.039,63.49155,-1.05987,0.95698,0.75112
585.639,63.55165,-1.06111,0.93354,0.75063
586.239,63.6117,-1.0625,0.89559,0.75014
586.839,63.67196,-1.06571,0.85109,0.74965
587.439,63.73225,-1.06703,0.80975,0.74917
588.039,63.7924,-1.06831,0.77739,0.74868
588.639,63.8524,-1.06966,0.74733,0.74819
589.239,63.9122,-1.07098,0.72381,0.7477
589.839,63.97221,-1.07002,0.70923,0.74721
590.439,64.0322,-1.07131,0.69816,0.74672
591.039,64.09218,-1.0713,0.68818,0.74623
591.639,64.15215,-1.07261,0.68283,0.74575
592.239,64.21209,-1.07345,0.67686,0.74526
592.839,64.27195,-1.07394,0.67301,0.74477
593.439,64.33189,-1.07394,0.67208,0.74428
594.039,64.3918,-1.07524,0.66881,0.74379
594.639,64.45179,-1.0735,0.66436,0.7433
595.239,64.51179,-1.074,0.66531,0.74281
595.839,64.57166,-1.07561,0.66323,0.74232
596.439,64.63175,-1.07614,0.66418,0.74183
597.039,64.6918,-1.07646,0.6601,0.74134
597.639,64.75195,-1.07515,0.66323,0.74085
598.239,64.812,-1.07646,0.66291,0.74036
598.839,64.87213,-1.07659,0.66271,0.73987
599.439,64.9322,-1.07754,0.66792,0.73938
600.039,64.99221,-1.07778,0.67037,0.73889
600.639,65.05221,-1.07778,0.67074,0.7384
601.239,65.11236,-1.07778,0.68037,0.73791
601.839,65.1725,-1.07747,0.68714,0.73741
602.439,65.23259,-1.08035,0.69399,0.73692
603.039,65.2929,-1.08032,0.69936,0.73643
603.639,65.35307,-1.08162,0.70912,0.73594
604.239,65.41315,-1.08217,0.7171,0.73545
604.839,65.47326,-1.08298,0.72564,0.73496
605.439,65.5335,-1.08192,0.7315,0.73447
606.039,65.59366,-1.08194,0.73923,0.73397
606.639,65.6539,-1.08326,0.74762,0.73348
607.239,65.7141,-1.08457,0.75384,0.73299
607.839,65.7744,-1.08458,0.76156,0.7325
608.439,65.83471,-1.08464,0.76877,0.73201
609.039,65.89499,-1.08636,0.77362,0.73151
609.639,65.95524,-1.08721,0.78246,0.73102
610.239,66.01547,-1.08854,0.78749,0.73053
610.839,66.07549,-1.08848,0.79599,0.73003
611.439,66.13571,-1.08949,0.80126,0.72954
612.039,66.19583,-1.08915,0.80758,0.72905
612.639,66.25599,-1.08953,0.81402,0.72856
613.239,66.31636,-1.09084,0.81876,0.72806
613.839,66.37642,-1.09212,0.82428,0.72757
614.439,66.43661,-1.09319,0.83243,0.72708
615.039,66.49681,-1.09347,0.83835,0.72658
615.639,66.55711,-1.0948,0.8436,0.72609
616.239,66.61749,-1.0962,0.84963,0.7256
616.839,66.6776,-1.09753,0.86041,0.7251
617.439,66.7379,-1.09802,0.86434,0.72461
618.039,66.79813,-1.10002,0.87244,0.72411
618.639,66.85839,-1.10016,0.87737,0.72362
619.239,66.91856,-1.10148,0.88729,0.72313
619.839,66.9788,-1.1028,0.8941,0.72263
620.439,67.03904,-1.10173,0.89992,0.72214
621.039,67.09921,-1.10306,0.90698,0.72164
621.639,67.15948,-1.10472,0.91631,0.72115
622.239,67.2197,-1.10542,0.92227,0.72065
622.839,67.27975,-1.10684,0.92778,0.72016
623.439,67.3399,-1.10958,0.9397,0.71966
624.039,67.39976,-1.11223,0.94318,0.71917
624.639,67.45981,-1.11222,0.95619,0.71867
625.239,67.51988,-1.11355,0.96026,0.71818
625.839,67.58014,-1.11353,0.96809,0.71768
626.439,67.64036,-1.11485,0.97526,0.71719
627.039,67.70051,-1.11619,0.98546,0.71669
627.639,67.76085,-1.11754,0.99272,0.7162
628.239,67.82135,-1.12017,1.00135,0.7157
628.839,67.8818,-1.12142,1.00904,0.71521
629.439,67.94226,-1.12303,1.0195,0.71471
630.039,68.0026,-1.12565,1.0304,0.71421
630.639,68.06289,-1.12641,1.03616,0.71372
631.239,68.12329,-1.1291,1.04528,0.71322
631.839,68.18366,-1.13025,1.05757,0.71273
632.439,68.24404,-1.13286,1.06718,0.71223
633.039,68.30454,-1.13447,1.0753,0.71173
633.639,68.36495,-1.13625,1.0885,0.71124
634.239,68.4253,-1.13831,1.09669,0.71074
634.839,68.4856,-1.13981,1.10814,0.71024
635.439,68.54603,-1.14255,1.11576,0.70975
636.039,68.60661,-1.14457,1.13023,0.70925
636.639,68.667,-1.14575,1.14175,0.70875
637.239,68.72753,-1.14698,1.14878,0.70826
637.839,68.788,-1.14963,1.16405,0.70776
638.439,68.8484,-1.15148,1.17135,0.70726
639.039,68.9089,-1.15394,1.18594,0.70676
639.639,68.9692,-1.1557,1.19849,0.70627
640.239,69.02964,-1.15839,1.21018,0.70577
640.839,69.09012,-1.16147,1.2212,0.70527
641.439,69.1506,-1.16423,1.23718,0.70478
642.039,69.21095,-1.16718,1.24982,0.70428
642.639,69.27122,-1.16818,1.26284,0.70378
643.239,69.33154,-1.16989,1.27424,0.70328
643.839,69.39185,-1.17299,1.28639,0.70278
644.439,69.4521,-1.17586,1.30076,0.70229
645.039,69.51245,-1.17842,1.31789,0.70179
645.639,69.5728,-1.18186,1.32555,0.70129
646.239,69.63327,-1.18308,1.34198,0.70079
646.839,69.69376,-1.18555,1.35562,0.70029
647.439,69.75421,-1.18913,1.36801,0.6998
648.039,69.81466,-1.19061,1.37878,0.6993
648.639,69.87513,-1.19489,1.39299,0.6988
649.239,69.9354,-1.19627,1.40911,0.6983
649.839,69.99574,-1.19885,1.42098,0.6978
650.439,70.05604,-1.2043,1.43507,0.6973
651.039,70.11635,-1.2072,1.44876,0.6968
651.639,70.1768,-1.21031,1.45684,0.69631
652.239,70.23708,-1.21353,1.47622,0.69581
652.839,70.29743,-1.21477,1.48581,0.69531
653.439,70.35767,-1.21817,1.49879,0.69481
654.039,70.41798,-1.22203,1.51099,0.69431
654.639,70.47833,-1.22614,1.52215,0.69381
655.239,70.53866,-1.22748,1.53093,0.69331
655.839,70.59911,-1.23022,1.54571,0.69281
656.439,70.6593,-1.23362,1.55973,0.69231
657.039,70.71937,-1.23683,1.56764,0.69181
657.639,70.7795,-1.23988,1.57974,0.69131
658.239,70.8396,-1.2436,1.59102,0.69081
658.839,70.89997,-1.24692,1.60213,0.69031
659.439,70.96047,-1.24826,1.61496,0.68981
660.039,71.02067,-1.25288,1.62428,0.68932
660.639,71.08096,-1.25631,1.63439,0.68882
661.239,71.14105,-1.2591,1.64698,0.68832
661.839,71.20104,-1.26292,1.65927,0.68782
662.439,71.26096,-1.26686,1.66924,0.68732
663.039,71.32118,-1.27034,1.68676,0.68682
663.639,71.38156,-1.27334,1.70418,0.68632
664.239,71.4422,-1.27523,1.71832,0.68582
664.839,71.50268,-1.27848,1.73441,0.68531
665.439,71.5629,-1.2817,1.75227,0.68481
666.039,71.6233,-1.28541,1.7689,0.68431
666.639,71.6838,-1.28907,1.79099,0.68381
667.239,71.74421,-1.29224,1.81159,0.68331
667.839,71.8049,-1.29648,1.83242,0.68281
668.439,71.86536,-1.30041,1.85916,0.68231
669.039,71.926,-1.30428,1.88503,0.68181
669.639,71.98666,-1.30829,1.91621,0.68131
670.239,72.04732,-1.31278,1.9474,0.68081
670.839,72.10805,-1.31679,1.97944,0.68031
671.439,72.16852,-1.32201,2.01011,0.67981
672.039,72.22926,-1.32711,2.04393,0.67931
672.639,72.2899,-1.3317,2.08133,0.67881
673.239,72.35076,-1.33533,2.1145,0.67831
673.839,72.41165,-1.33958,2.14923,0.6778
674.439,72.47242,-1.34518,2.18119,0.6773
675.039,72.53308,-1.35032,2.22189,0.6768
675.639,72.59379,-1.35573,2.25679,0.6763
676.239,72.65438,-1.36035,2.29731,0.6758
676.839,72.71511,-1.36501,2.33678,0.6753
677.439,72.7757,-1.37032,2.37608,0.6748
678.039,72.8365,-1.37652,2.41938,0.6743
678.639,72.89706,-1.3824,2.46083,0.67379
679.239,72.95786,-1.38781,2.50307,0.67329
679.839,73.01868,-1.39411,2.55139,0.67279
680.439,73.07945,-1.4001,2.59758,0.67229
681.039,73.1405,-1.4059,2.64527,0.67179
681.639,73.20134,-1.41311,2.70088,0.67129
682.239,73.26219,-1.42049,2.75612,0.67078
682.839,73.32304,-1.42612,2.81523,0.67028
683.439,73.38391,-1.43498,2.88181,0.66978
684.039,73.4449,-1.44177,2.94811,0.66928
684.639,73.50564,-1.44807,3.01603,0.66878
685.239,73.56635,-1.45553,3.09162,0.66828
685.839,73.62697,-1.46197,3.16687,0.66777
686.439,73.6875,-1.47026,3.24336,0.66727
687.039,73.74829,-1.47747,3.30774,0.66677
687.639,73.80917,-1.48672,3.3657,0.66627
688.239,73.87,-1.49415,3.40136,0.66577
688.839,73.9308,-1.50293,3.42584,0.66526
689.439,73.9914,-1.5109,3.43032,0.66476
690.039,74.05201,-1.52137,3.42588,0.66426
690.639,74.11261,-1.53015,3.42232,0.66376
691.239,74.17324,-1.53869,3.42274,0.66325
691.839,74.23395,-1.54886,3.43164,0.66275
692.439,74.29439,-1.55731,3.43918,0.66225
693.039,74.35489,-1.56775,3.45577,0.66175
693.639,74.41526,-1.57762,3.47725,0.66124
694.239,74.4757,-1.58799,3.5005,0.66074
694.839,74.53623,-1.59724,3.52063,0.66024
695.439,74.59676,-1.60562,3.55033,0.65974
696.039,74.6575,-1.61566,3.57258,0.65923
696.639,74.71803,-1.62543,3.59446,0.65873
697.239,74.77854,-1.63632,3.6286,0.65823
697.839,74.83883,-1.64662,3.65871,0.65773
698.439,74.89928,-1.65633,3.68384,0.65722
699.039,74.9597,-1.66675,3.71053,0.65672
699.639,75.02016,-1.67703,3.74027,0.65622
700.239,75.0806,-1.68907,3.77111,0.65572
700.839,75.1412,-1.70022,3.80268,0.65521
701.439,75.20172,-1.71136,3.83531,0.65471
702.039,75.26201,-1.72359,3.86498,0.65421
702.639,75.32257,-1.73274,3.89791,0.6537
703.239,75.3832,-1.74343,3.92957,0.6532
703.839,75.444,-1.75486,3.95651,0.6527
704.439,75.5046,-1.76645,3.98166,0.6522
705.039,75.565,-1.77699,4.00988,0.65169
705.639,75.6256,-1.78918,4.02921,0.65119
706.239,75.68625,-1.8015,4.05096,0.65069
706.839,75.74673,-1.81245,4.06817,0.65018
707.439,75.8074,-1.82561,4.08274,0.64968
708.039,75.868,-1.83724,4.09306,0.64918
708.639,75.92859,-1.85011,4.09959,0.64868
709.239,75.98925,-1.86118,4.09413,0.64817
709.839,76.04984,-1.87297,4.08228,0.64767
710.439,76.11065,-1.88494,4.06071,0.64717
711.039,76.1713,-1.89457,4.01324,0.64666
711.639,76.232,-1.90765,3.95304,0.64616
712.239,76.2924,-1.91811,3.86353,0.64566
712.839,76.35284,-1.92998,3.74373,0.64515
713.439,76.41334,-1.94023,3.5721,0.64465
714.039,76.4738,-1.95055,3.35869,0.64415
714.639,76.53416,-1.95868,3.08686,0.64364
715.239,76.59436,-1.96633,2.75855,0.64314
715.839,76.65427,-1.97345,2.33356,0.64264
716.439,76.71409,-1.97989,1.81544,0.64213
717.039,76.77372,-1.98367,1.31954,0.64163
717.639,76.83319,-1.988,1.16287,0.64113
718.239,76.89282,-1.99038,1.11319,0.64062
718.839,76.95277,-1.99221,1.0512,0.64012
719.439,77.01299,-1.99212,1.00199,0.63962
720.039,77.07337,-1.99152,0.97919,0.63911
720.639,77.13391,-1.9936,0.9639,0.63861
721.239,77.19458,-1.99396,0.95602,0.63811
721.839,77.25527,-1.99387,0.95623,0.6376
722.439,77.31588,-1.99387,0.95729,0.6371
723.039,77.3765,-1.99387,0.95861,0.6366
723.639,77.4372,-1.9943,0.96877,0.63609
724.239,77.49802,-1.99522,0.96618,0.63559
724.839,77.55879,-1.99486,0.97198,0.63509
725.439,77.61944,-1.99486,0.97626,0.63458
726.039,77.68024,-1.99487,0.98191,0.63408
726.639,77.7409,-1.99617,0.98648,0.63358
727.239,77.8018,-1.99618,0.98497,0.63307
727.839,77.86264,-1.99618,0.98644,0.63257
728.439,77.92323,-1.99616,0.98814,0.63207
729.039,77.98401,-1.99487,0.98953,0.63156
729.639,78.04472,-1.99623,0.99611,0.63106
730.239,78.10562,-1.99618,0.99766,0.63055
730.839,78.1665,-1.99618,0.99563,0.63005
731.439,78.22739,-1.99618,0.99738,0.62955
732.039,78.28834,-1.99618,0.99683,0.62904
732.639,78.3492,-1.99751,1.00111,0.62854
733.239,78.4101,-1.99618,1.00245,0.62804
733.839,78.4709,-1.99618,1.00611,0.62753
734.439,78.53171,-1.99829,1.00757,0.62703
735.039,78.59246,-1.99882,1.00761,0.62653
735.639,78.65353,-1.99745,1.01159,0.62602
736.239,78.71444,-1.99742,1.01539,0.62552
736.839,78.77542,-1.99932,1.01352,0.62502
737.439,78.83621,-2.00012,1.01689,0.62451
738.039,78.89709,-1.99882,1.01732,0.62401
738.639,78.95787,-1.99747,1.02005,0.62351
739.239,79.01871,-1.99881,1.01921,0.623
739.839,79.07935,-1.99885,1.01962,0.6225
740.439,79.1401,-1.99782,1.02432,0.622
741.039,79.201,-1.99917,1.02602,0.62149
741.639,79.26177,-1.99882,1.02242,0.62099
742.239,79.32268,-1.99745,1.02403,0.62049
742.839,79.38351,-1.99784,1.02615,0.61998
743.439,79.44425,-1.99915,1.0267,0.61948
744.039,79.50494,-1.99947,1.02642,0.61898
744.639,79.5657,-2.00015,1.02623,0.61847
745.239,79.62648,-2.00012,1.02561,0.61797
745.839,79.68728,-2.00078,1.02404,0.61747
746.439,79.74814,-2.00079,1.02517,0.61696
747.039,79.80895,-2.00079,1.02689,0.61646
747.639,79.8698,-2.00079,1.02335,0.61596
748.239,79.93065,-2.00079,1.02217,0.61545
748.839,79.99149,-2.00211,1.02121,0.61495