File: 01_Data/Vinyl_Tile/STA/N2/10K_min/Vinyl_Tile_STA_N2_10KData_22055_R1.csv
##Temp./Â°C,Time/min,Mass loss(subtr.2)/mg,DSC(subtr.2)/(mW/mg),Sensit./(uV/mW)
49.881,10.01,-0.00066,-0.0007212318,1.06048
50.481,10.73569,-0.00130845,0.02161907,1.06036
51.081,10.92493,-0.000344928,0.03977751,1.06023
51.681,11.06523,-0.0004617392,0.05198158,1.06011
52.281,11.18326,-8.77721e-05,0.06218432,1.05998
52.881,11.28867,-0.000821535,0.07462261,1.05986
53.481,11.385,-4.806931e-05,0.08213843,1.05973
54.081,11.47542,-0.0001285964,0.09163906,1.0596
54.681,11.56119,0.0006377732,0.09512928,1.05947
55.281,11.6426,-3.333425e-05,0.1008,1.05935
55.881,11.72092,0.000313175,0.10638,1.05922
56.481,11.79749,0.0001232122,0.11135,1.05909
57.081,11.87208,-0.0002048912,0.11425,1.05896
57.681,11.94536,3.20903e-05,0.12026,1.05882
58.281,12.0169,3.167636e-05,0.12122,1.05869
58.881,12.08704,0.00157579,0.12475,1.05856
59.481,12.15617,0.0005499051,0.12669,1.05843
60.081,12.2258,0.001516649,0.12625,1.05829
60.681,12.2947,0.0005401024,0.13111,1.05816
61.281,12.36336,0.0005650732,0.13201,1.05802
61.881,12.43033,0.0005497545,0.13128,1.05789
62.481,12.49728,0.0005298385,0.13503,1.05775
63.081,12.56385,0.0005228169,0.13505,1.05761
63.681,12.63028,0.000226062,0.13634,1.05747
64.281,12.69598,-0.001161016,0.13631,1.05733
64.881,12.76074,0.000404563,0.13827,1.05719
65.481,12.82468,0.0001528745,0.13877,1.05705
66.081,12.88916,-0.0009784954,0.13835,1.05691
66.681,12.95461,-0.0009837991,0.13925,1.05677
67.281,13.02009,-0.00231498,0.13951,1.05663
67.881,13.0855,-0.00222887,0.14301,1.05649
68.481,13.1503,-0.000990361,0.14248,1.05634
69.081,13.21512,0.00035936,0.14242,1.0562
69.681,13.27963,0.0004398535,0.14265,1.05605
70.281,13.3438,0.0001102617,0.1456,1.05591
70.881,13.4078,0.0004463118,0.14635,1.05576
71.481,13.4716,-0.000882791,0.14767,1.05562
72.081,13.5353,0.000380819,0.1477,1.05547
72.681,13.59861,-0.000526859,0.14729,1.05532
73.281,13.66199,-0.001333647,0.15082,1.05517
73.881,13.7252,-0.002298578,0.15137,1.05502
74.481,13.78788,-0.0009940514,0.14963,1.05487
75.081,13.8509,-0.0009796637,0.1505,1.05472
75.681,13.9135,-0.0006065525,0.14983,1.05457
76.281,13.9763,-0.0009830198,0.15136,1.05442
76.881,14.03904,-0.002053571,0.15048,1.05427
77.481,14.10154,-0.000990169,0.15006,1.05411
78.081,14.164,-2.02025e-05,0.15086,1.05396
78.681,14.2264,-0.0009825708,0.15266,1.0538
79.281,14.2886,-0.002237611,0.15348,1.05365
79.881,14.3505,-0.00266968,0.15295,1.05349
80.481,14.41252,-0.00230987,0.15545,1.05334
81.081,14.4743,-0.002310412,0.15586,1.05318
81.681,14.53597,-0.00103298,0.15797,1.05302
82.281,14.5977,-0.002271679,0.1567,1.05286
82.881,14.6592,-0.0009894927,0.15749,1.0527
83.481,14.72052,-0.0009945638,0.15757,1.05254
84.081,14.78176,0.0003294233,0.15882,1.05238
84.681,14.8428,-0.00084366,0.15928,1.05222
85.281,14.90391,-0.0009897649,0.15987,1.05206
85.881,14.96473,-0.0009797745,0.16031,1.0519
86.481,15.02551,-0.002070598,0.15967,1.05173
87.081,15.08605,-0.002199828,0.15976,1.05157
87.681,15.14671,-0.0009896319,0.16154,1.05141
88.281,15.20699,-0.002062806,0.16262,1.05124
88.881,15.2672,-0.00098619,0.16201,1.05108
89.481,15.32743,-0.0009866828,0.16343,1.05091
90.081,15.38759,-0.00229333,0.16162,1.05074
90.681,15.44767,-0.002298416,0.16259,1.05058
91.281,15.5076,-0.002342579,0.16556,1.05041
91.881,15.5674,-0.002387535,0.16433,1.05024
92.481,15.62696,-0.0009900874,0.16432,1.05007
93.081,15.6866,-0.000989091,0.1671,1.0499
93.681,15.7463,-2.486551e-05,0.16671,1.04973
94.281,15.80591,-0.000669593,0.16824,1.04956
94.881,15.86559,-0.0009858085,0.16953,1.04938
95.481,15.92526,-0.00229439,0.16794,1.04921
96.081,15.98461,-0.0009918065,0.16968,1.04904
96.681,16.044,-0.0009897931,0.17041,1.04886
97.281,16.10295,-0.001892939,0.16943,1.04869
97.881,16.16185,-0.001273155,0.1697,1.04851
98.481,16.22094,-0.00265256,0.17111,1.04834
99.081,16.27993,-0.0023,0.17386,1.04816
99.681,16.3389,-0.002300018,0.17197,1.04798
100.281,16.39808,-0.002370516,0.17275,1.04781
100.881,16.45705,-0.002298949,0.17493,1.04763
101.481,16.51612,-0.002299864,0.17454,1.04745
102.081,16.5751,-0.00182232,0.1753,1.04727
102.681,16.6339,-0.002308144,0.17471,1.04709
103.281,16.69259,-0.00236609,0.17443,1.04691
103.881,16.75127,-0.0009881668,0.17582,1.04673
104.481,16.80978,-0.0009899999,0.17761,1.04654
105.081,16.8686,-0.0009875246,0.17742,1.04636
105.681,16.9271,-0.000916447,0.17624,1.04618
106.281,16.98565,-0.0009799647,0.1788,1.04599
106.881,17.0444,-0.0009799685,0.17857,1.04581
107.481,17.10318,-0.001630758,0.17717,1.04562
108.081,17.1617,-0.0022999,0.17905,1.04544
108.681,17.22071,-0.00229679,0.17908,1.04525
109.281,17.2794,-0.000990193,0.18215,1.04506
109.881,17.338,-0.0009899712,0.18032,1.04488
110.481,17.3963,-0.000894654,0.18135,1.04469
111.081,17.45486,-0.002301248,0.18105,1.0445
111.681,17.51332,-0.002377947,0.18069,1.04431
112.281,17.57207,-0.00233861,0.18086,1.04412
112.881,17.63109,-0.0009900687,0.18004,1.04393
113.481,17.68993,-0.0009899999,0.17954,1.04374
114.081,17.7488,-0.0009870997,0.17963,1.04354
114.681,17.8077,-0.00165843,0.1805,1.04335
115.281,17.86608,-0.00231145,0.1806,1.04316
115.881,17.92463,-0.002310238,0.18257,1.04296
116.481,17.98335,-0.00137341,0.18318,1.04277
117.081,18.04188,-0.001656541,0.1823,1.04257
117.681,18.1003,-0.0023003,0.1818,1.04238
118.281,18.1584,-0.002290165,0.18362,1.04218
118.881,18.2163,-0.0008789898,0.18056,1.04198
119.481,18.27463,-0.002299879,0.18309,1.04179
120.081,18.33301,-0.00229997,0.18312,1.04159
120.681,18.39132,-0.00226685,0.18294,1.04139
121.281,18.44969,-0.001969991,0.18183,1.04119
121.881,18.5081,-0.00197132,0.1843,1.04099
122.481,18.56664,-0.00265213,0.18307,1.04079
123.081,18.62517,-0.001979968,0.18195,1.04059
123.681,18.68346,-0.001980226,0.18279,1.04038
124.281,18.74172,-0.003003494,0.18344,1.04018
124.881,18.79982,-0.003289722,0.18402,1.03998
125.481,18.85807,-0.003292963,0.18207,1.03978
126.081,18.9166,-0.001981562,0.1856,1.03957
126.681,18.9751,-0.002933489,0.18554,1.03937
127.281,19.0337,-0.00295999,0.18523,1.03916
127.881,19.09176,-0.00296327,0.18448,1.03895
128.481,19.15012,-0.003292005,0.1852,1.03875
129.081,19.20838,-0.003285517,0.1843,1.03854
129.681,19.26725,-0.003289748,0.18603,1.03833
130.281,19.32584,-0.004406049,0.18723,1.03812
130.881,19.3843,-0.005562384,0.1882,1.03791
131.481,19.44269,-0.004992643,0.18663,1.0377
132.081,19.5008,-0.004270127,0.18604,1.03749
132.681,19.55872,-0.003386327,0.18695,1.03728
133.281,19.6166,-0.003290327,0.19066,1.03707
133.881,19.67429,-0.003062891,0.18785,1.03686
134.481,19.73222,-0.00330504,0.18927,1.03664
135.081,19.79012,-0.00460975,0.18854,1.03643
135.681,19.84812,-0.00329766,0.19219,1.03622
136.281,19.90602,-0.003280413,0.18986,1.036
136.881,19.964,-0.00329,0.19066,1.03579
137.481,20.0219,-0.0032952,0.19121,1.03557
138.081,20.07995,-0.004599899,0.19079,1.03535
138.681,20.13735,-0.004599997,0.19091,1.03514
139.281,20.19524,-0.0046,0.19261,1.03492
139.881,20.25337,-0.0046,0.19083,1.0347
140.481,20.31135,-0.0046,0.19158,1.03448
141.081,20.36936,-0.004600076,0.19224,1.03426
141.681,20.42736,-0.00451534,0.19222,1.03404
142.281,20.48507,-0.004609942,0.19447,1.03382
142.881,20.54277,-0.00461,0.19387,1.0336
143.481,20.60053,-0.004610013,0.19313,1.03338
144.081,20.65837,-0.00580448,0.19382,1.03315
144.681,20.71649,-0.00600766,0.19543,1.03293
145.281,20.77432,-0.005607706,0.1955,1.03271
145.881,20.8323,-0.005603466,0.19515,1.03248
146.481,20.89002,-0.004609917,0.19598,1.03226
147.081,20.94771,-0.004640484,0.19338,1.03203
147.681,21.0055,-0.00427984,0.1954,1.03181
148.281,21.063,-0.004279992,0.19574,1.03158
148.881,21.12061,-0.004276209,0.19447,1.03135
149.481,21.17845,-0.004544673,0.19573,1.03112
150.081,21.23607,-0.005919383,0.19631,1.0309
150.681,21.29382,-0.007219744,0.19739,1.03067
151.281,21.35152,-0.006244802,0.19681,1.03044
151.881,21.4091,-0.00625,0.19786,1.03021
152.481,21.46678,-0.00625,0.19864,1.02998
153.081,21.52449,-0.00625,0.19819,1.02975
153.681,21.5821,-0.00624588,0.20208,1.02951
154.281,21.63978,-0.00689161,0.19878,1.02928
154.881,21.69727,-0.005931058,0.20087,1.02905
155.481,21.75477,-0.005930001,0.20089,1.02881
156.081,21.81249,-0.00593,0.2001,1.02858
156.681,21.87025,-0.00593,0.20179,1.02834
157.281,21.9279,-0.00593,0.20134,1.02811
157.881,21.98551,-0.00592974,0.20137,1.02787
158.481,22.0433,-0.0068495,0.20129,1.02764
159.081,22.1009,-0.007239967,0.20311,1.0274
159.681,22.1585,-0.007239875,0.20286,1.02716
160.281,22.216,-0.007584174,0.20122,1.02692
160.881,22.27338,-0.006246808,0.20296,1.02668
161.481,22.33094,-0.00657562,0.20261,1.02645
162.081,22.38862,-0.00780381,0.20647,1.0262
162.681,22.4462,-0.007900159,0.20219,1.02596
163.281,22.50365,-0.00693479,0.2057,1.02572
163.881,22.56127,-0.00625044,0.20465,1.02548
164.481,22.61875,-0.00625,0.20455,1.02524
165.081,22.67626,-0.00625191,0.20682,1.025
165.681,22.73394,-0.007576995,0.20718,1.02475
166.281,22.7914,-0.00757,0.2069,1.02451
166.881,22.84907,-0.00757,0.20992,1.02426
167.481,22.90635,-0.0075705,0.20776,1.02402
168.081,22.9639,-0.006348247,0.20868,1.02377
168.681,23.02122,-0.007568089,0.20785,1.02353
169.281,23.0789,-0.008890422,0.20866,1.02328
169.881,23.13661,-0.008880013,0.2085,1.02303
170.481,23.19432,-0.00887998,0.20837,1.02278
171.081,23.25202,-0.008855555,0.21092,1.02254
171.681,23.30937,-0.008562506,0.20948,1.02229
172.281,23.36681,-0.008560005,0.21157,1.02204
172.881,23.4242,-0.00856,0.2101,1.02179
173.481,23.4813,-0.00855996,0.21171,1.02154
174.081,23.53872,-0.00884884,0.21159,1.02128
174.681,23.59594,-0.009081473,0.21131,1.02103
175.281,23.65363,-0.00918426,0.21155,1.02078
175.881,23.71116,-0.009539302,0.21132,1.02053
176.481,23.76843,-0.01087529,0.21415,1.02027
177.081,23.8258,-0.01086002,0.21301,1.02002
177.681,23.88317,-0.01085991,0.21362,1.01976
178.281,23.94081,-0.01080848,0.21509,1.01951
178.881,23.99833,-0.009559758,0.21432,1.01925
179.481,24.05552,-0.01086319,0.21666,1.019
180.081,24.11293,-0.01088111,0.21737,1.01874
180.681,24.17008,-0.01217002,0.21704,1.01848
181.281,24.2275,-0.01217,0.21712,1.01822
181.881,24.28477,-0.01217028,0.21709,1.01796
182.481,24.342,-0.01140891,0.21865,1.0177
183.081,24.39921,-0.01118999,0.21586,1.01745
183.681,24.45662,-0.01119133,0.21644,1.01718
184.281,24.51386,-0.01182119,0.21665,1.01692
184.881,24.57121,-0.01184022,0.21577,1.01666
185.481,24.62866,-0.01310962,0.21599,1.0164
186.081,24.68589,-0.01315994,0.21828,1.01614
186.681,24.74325,-0.01316,0.21955,1.01587
187.281,24.80035,-0.01315989,0.21805,1.01561
187.881,24.85753,-0.01383297,0.21987,1.01535
188.481,24.91481,-0.0138166,0.21849,1.01508
189.081,24.972,-0.01511902,0.2208,1.01482
189.681,25.02945,-0.01512598,0.22016,1.01455
190.281,25.08682,-0.01381759,0.2209,1.01428
190.881,25.14391,-0.01374478,0.22123,1.01402
191.481,25.20105,-0.01512994,0.22301,1.01375
192.081,25.2581,-0.01513,0.22264,1.01348
192.681,25.3155,-0.01513,0.22138,1.01321
193.281,25.37294,-0.01513107,0.22452,1.01294
193.881,25.4303,-0.01645119,0.22373,1.01267
194.481,25.48779,-0.01645,0.22379,1.0124
195.081,25.5451,-0.01645,0.22375,1.01213
195.681,25.60245,-0.01644976,0.22403,1.01186
196.281,25.65905,-0.01778662,0.22397,1.01159
196.881,25.71569,-0.0177701,0.22602,1.01132
197.481,25.77263,-0.01788526,0.2263,1.01105
198.081,25.83006,-0.01908001,0.22663,1.01077
198.681,25.8876,-0.01908,0.2277,1.0105
199.281,25.94525,-0.01908,0.22677,1.01022
199.881,26.00225,-0.01908045,0.22766,1.00995
200.481,26.0592,-0.02037105,0.22544,1.00967
201.081,26.11637,-0.02039995,0.22586,1.0094
201.681,26.17315,-0.02039682,0.22536,1.00912
202.281,26.2306,-0.02072089,0.22941,1.00884
202.881,26.2877,-0.02073,0.22976,1.00856
203.481,26.34497,-0.02068066,0.22658,1.00829
204.081,26.40229,-0.02319512,0.22748,1.00801
204.681,26.45947,-0.02337002,0.23014,1.00773
205.281,26.5166,-0.02374424,0.22939,1.00745
205.881,26.5736,-0.02471772,0.22956,1.00717
206.481,26.63062,-0.02337033,0.22861,1.00689
207.081,26.68761,-0.02452011,0.23076,1.00661
207.681,26.7451,-0.02599064,0.23148,1.00632
208.281,26.8023,-0.02514475,0.23244,1.00604
208.881,26.85956,-0.02467998,0.22962,1.00576
209.481,26.9168,-0.02467277,0.23487,1.00547
210.081,26.9738,-0.02695999,0.23247,1.00519
210.681,27.0311,-0.02730996,0.23462,1.00491
211.281,27.0883,-0.02730961,0.23328,1.00462
211.881,27.1455,-0.02860772,0.23569,1.00434
212.481,27.2027,-0.02864406,0.23572,1.00405
213.081,27.2597,-0.03123923,0.23503,1.00376
213.681,27.31638,-0.03125939,0.23426,1.00348
214.281,27.37343,-0.03255411,0.23658,1.00319
214.881,27.4306,-0.03258,0.23802,1.0029
215.481,27.48788,-0.03257959,0.23856,1.00261
216.081,27.54522,-0.03383075,0.23995,1.00232
216.681,27.6024,-0.03289605,0.23809,1.00203
217.281,27.65943,-0.0329003,0.23782,1.00174
217.881,27.7162,-0.03425242,0.23925,1.00145
218.481,27.77335,-0.03547248,0.24056,1.00116
219.081,27.83059,-0.03685996,0.24038,1.00087
219.681,27.88765,-0.03686186,0.24151,1.00057
220.281,27.9451,-0.03817466,0.24098,1.00028
220.881,28.0022,-0.03894852,0.24274,0.99999
221.481,28.0595,-0.03949717,0.24217,0.99969
222.081,28.1166,-0.04081218,0.24454,0.9994
222.681,28.1737,-0.04208888,0.24579,0.9991
223.281,28.23102,-0.04342789,0.24433,0.99881
223.881,28.28825,-0.04345289,0.24653,0.99851
224.481,28.3457,-0.04472429,0.24784,0.99822
225.081,28.4027,-0.0460477,0.24935,0.99792
225.681,28.4598,-0.04737358,0.24742,0.99762
226.281,28.51688,-0.04869691,0.24951,0.99732
226.881,28.574,-0.0500082,0.25155,0.99703
227.481,28.63127,-0.05131662,0.2517,0.99673
228.081,28.6885,-0.05265073,0.25323,0.99643
228.681,28.74571,-0.05394945,0.25468,0.99613
229.281,28.8029,-0.05528666,0.2546,0.99583
229.881,28.85987,-0.05559948,0.25779,0.99552
230.481,28.9171,-0.05660021,0.25658,0.99522
231.081,28.97425,-0.05800975,0.25631,0.99492
231.681,29.0314,-0.06076616,0.25825,0.99462
232.281,29.08853,-0.06095679,0.25851,0.99432
232.881,29.14555,-0.06282379,0.2589,0.99401
233.481,29.2027,-0.06478767,0.25953,0.99371
234.081,29.2598,-0.0662448,0.26141,0.9934
234.681,29.3171,-0.06757374,0.26015,0.9931
235.281,29.3743,-0.06856094,0.26173,0.99279
235.881,29.43145,-0.07028874,0.26324,0.99249
236.481,29.48848,-0.072836,0.2631,0.99218
237.081,29.5457,-0.07376245,0.26318,0.99187
237.681,29.60285,-0.0753109,0.26391,0.99157
238.281,29.6599,-0.07798395,0.26485,0.99126
238.881,29.7174,-0.0796747,0.26493,0.99095
239.481,29.7746,-0.08187,0.26528,0.99064
240.081,29.83189,-0.08296541,0.26792,0.99033
240.681,29.88905,-0.08481254,0.26906,0.99002
241.281,29.94602,-0.0887781,0.27027,0.98971
241.881,30.0031,-0.09055784,0.26959,0.9894
242.481,30.06042,-0.09249389,0.27199,0.98909
243.081,30.11767,-0.0920683,0.2723,0.98877
243.681,30.1746,-0.0958438,0.27404,0.98846
244.281,30.2316,-0.09784653,0.27648,0.98815
244.881,30.28872,-0.10092,0.27837,0.98784
245.481,30.3459,-0.10206,0.28069,0.98752
246.081,30.4032,-0.10499,0.27974,0.98721
246.681,30.46,-0.10815,0.28307,0.98689
247.281,30.51704,-0.10952,0.28388,0.98658
247.881,30.57435,-0.11195,0.28556,0.98626
248.481,30.6316,-0.11578,0.28471,0.98594
249.081,30.68915,-0.11924,0.2854,0.98563
249.681,30.7461,-0.1213,0.28698,0.98531
250.281,30.8031,-0.12396,0.28591,0.98499
250.881,30.8601,-0.12713,0.28798,0.98467
251.481,30.91752,-0.13061,0.28853,0.98436
252.081,30.97472,-0.13319,0.28895,0.98404
252.681,31.03211,-0.13623,0.29011,0.98372
253.281,31.0895,-0.13917,0.2938,0.9834
253.881,31.147,-0.14083,0.29081,0.98308
254.481,31.20412,-0.14518,0.2926,0.98275
255.081,31.2613,-0.14954,0.29203,0.98243
255.681,31.31837,-0.15206,0.29137,0.98211
256.281,31.37572,-0.15425,0.2918,0.98179
256.881,31.433,-0.15733,0.29248,0.98146
257.481,31.49015,-0.16147,0.29118,0.98114
258.081,31.54703,-0.16459,0.29237,0.98082
258.681,31.6039,-0.16766,0.29186,0.98049
259.281,31.66064,-0.1713,0.29214,0.98017
259.881,31.71782,-0.17525,0.29034,0.97984
260.481,31.7751,-0.17886,0.29504,0.97952
261.081,31.83241,-0.1827,0.29445,0.97919
261.681,31.8902,-0.18704,0.29317,0.97886
262.281,31.94785,-0.19099,0.29615,0.97853
262.881,32.00555,-0.19465,0.29389,0.97821
263.481,32.06325,-0.19856,0.29389,0.97788
264.081,32.12048,-0.20238,0.29334,0.97755
264.681,32.17772,-0.20523,0.29223,0.97722
265.281,32.23491,-0.20863,0.29328,0.97689
265.881,32.29197,-0.21456,0.29142,0.97656
266.481,32.34935,-0.21879,0.29008,0.97623
267.081,32.4066,-0.22347,0.29022,0.9759
267.681,32.46396,-0.2278,0.2921,0.97557
268.281,32.52131,-0.23179,0.28853,0.97524
268.881,32.57865,-0.23597,0.29135,0.9749
269.481,32.63616,-0.24094,0.29012,0.97457
270.081,32.69334,-0.24619,0.29,0.97424
270.681,32.7506,-0.25081,0.28823,0.9739
271.281,32.8078,-0.25628,0.28854,0.97357
271.881,32.86502,-0.2625,0.28865,0.97323
272.481,32.9225,-0.26749,0.28809,0.9729
273.081,32.97991,-0.27246,0.28803,0.97256
273.681,33.0374,-0.27783,0.28806,0.97223
274.281,33.09467,-0.2828,0.2893,0.97189
274.881,33.15195,-0.28775,0.28997,0.97155
275.481,33.20936,-0.29279,0.292,0.97121
276.081,33.26678,-0.29986,0.29288,0.97088
276.681,33.32427,-0.30739,0.29539,0.97054
277.281,33.38156,-0.31317,0.29615,0.9702
277.881,33.43902,-0.31964,0.29906,0.96986
278.481,33.49631,-0.32641,0.30531,0.96952
279.081,33.5535,-0.33258,0.30805,0.96918
279.681,33.6108,-0.33967,0.3132,0.96884
280.281,33.66807,-0.34647,0.31599,0.9685
280.881,33.72551,-0.35309,0.32258,0.96816
281.481,33.78284,-0.3604,0.3283,0.96781
282.081,33.8403,-0.36771,0.33421,0.96747
282.681,33.89776,-0.37509,0.33885,0.96713
283.281,33.95493,-0.38175,0.3465,0.96679
283.881,34.0122,-0.38867,0.35263,0.96644
284.481,34.06951,-0.39613,0.35891,0.9661
285.081,34.12689,-0.40322,0.36528,0.96575
285.681,34.18465,-0.41088,0.37115,0.96541
286.281,34.24222,-0.41906,0.37553,0.96506
286.881,34.2996,-0.42827,0.38015,0.96472
287.481,34.35689,-0.43511,0.38789,0.96437
288.081,34.41435,-0.44256,0.39155,0.96402
288.681,34.47166,-0.44956,0.39316,0.96367
289.281,34.52924,-0.45616,0.39698,0.96333
289.881,34.5869,-0.46376,0.40059,0.96298
290.481,34.64448,-0.47136,0.40511,0.96263
291.081,34.702,-0.47758,0.40295,0.96228
291.681,34.75938,-0.483,0.40438,0.96193
292.281,34.81697,-0.49046,0.40217,0.96158
292.881,34.87443,-0.49859,0.40152,0.96123
293.481,34.93202,-0.50458,0.40006,0.96088
294.081,34.98948,-0.51087,0.39634,0.96053
294.681,35.04668,-0.51612,0.39539,0.96018
295.281,35.10418,-0.52171,0.39179,0.95982
295.881,35.16172,-0.52792,0.3863,0.95947
296.481,35.21953,-0.53294,0.38089,0.95912
297.081,35.2772,-0.53837,0.37796,0.95876
297.681,35.3347,-0.54273,0.3731,0.95841
298.281,35.39162,-0.54848,0.3692,0.95806
298.881,35.4486,-0.55293,0.36266,0.9577
299.481,35.50547,-0.55802,0.35657,0.95735
300.081,35.56256,-0.5623,0.35184,0.95699
300.681,35.6205,-0.56734,0.34453,0.95663
301.281,35.67814,-0.56995,0.34169,0.95628
301.881,35.73601,-0.57367,0.33456,0.95592
302.481,35.79391,-0.5783,0.32625,0.95556
303.081,35.85155,-0.58158,0.32507,0.95521
303.681,35.90909,-0.58474,0.31926,0.95485
304.281,35.96662,-0.58923,0.31521,0.95449
304.881,36.0243,-0.59333,0.3067,0.95413
305.481,36.08183,-0.59652,0.30227,0.95377
306.081,36.1392,-0.59848,0.29919,0.95341
306.681,36.19655,-0.60164,0.29477,0.95305
307.281,36.25391,-0.60433,0.28888,0.95269
307.881,36.3114,-0.60577,0.28435,0.95233
308.481,36.369,-0.60891,0.28283,0.95197
309.081,36.42646,-0.61172,0.27906,0.9516
309.681,36.48366,-0.61483,0.27673,0.95124
310.281,36.54108,-0.61792,0.2733,0.95088
310.881,36.5985,-0.61921,0.26883,0.95052
311.481,36.65605,-0.62253,0.26354,0.95015
312.081,36.71362,-0.62375,0.26229,0.94979
312.681,36.77111,-0.62514,0.26069,0.94942
313.281,36.8286,-0.62827,0.25639,0.94906
313.881,36.88603,-0.63084,0.25366,0.94869
314.481,36.9435,-0.63312,0.25325,0.94833
315.081,37.00094,-0.63497,0.25013,0.94796
315.681,37.05846,-0.63753,0.24426,0.94759
316.281,37.11585,-0.63881,0.24344,0.94723
316.881,37.17323,-0.64013,0.24105,0.94686
317.481,37.231,-0.64253,0.23874,0.94649
318.081,37.28865,-0.64433,0.23566,0.94612
318.681,37.34639,-0.64609,0.23305,0.94575
319.281,37.40408,-0.64733,0.23097,0.94539
319.881,37.46165,-0.64865,0.22637,0.94502
320.481,37.5193,-0.65027,0.22547,0.94465
321.081,37.577,-0.65271,0.22395,0.94428
321.681,37.6348,-0.65407,0.22134,0.94391
322.281,37.69262,-0.65502,0.22106,0.94353
322.881,37.7504,-0.65636,0.21808,0.94316
323.481,37.80814,-0.65766,0.21727,0.94279
324.081,37.86593,-0.65898,0.21691,0.94242
324.681,37.92372,-0.66031,0.21292,0.94205
325.281,37.9814,-0.66173,0.21072,0.94167
325.881,38.03909,-0.66305,0.20793,0.9413
326.481,38.09639,-0.66468,0.20719,0.94093
327.081,38.15406,-0.666,0.20452,0.94055
327.681,38.21171,-0.6674,0.20531,0.94018
328.281,38.26923,-0.66733,0.20252,0.9398
328.881,38.327,-0.67,0.20275,0.93943
329.481,38.38447,-0.67101,0.20087,0.93905
330.081,38.4422,-0.67108,0.19894,0.93867
330.681,38.49998,-0.67237,0.19767,0.9383
331.281,38.55754,-0.67432,0.19696,0.93792
331.881,38.6154,-0.67426,0.19623,0.93754
332.481,38.67308,-0.67566,0.19196,0.93716
333.081,38.73081,-0.67731,0.19226,0.93679
333.681,38.78864,-0.67731,0.19111,0.93641
334.281,38.84648,-0.6787,0.19125,0.93603
334.881,38.9043,-0.67885,0.19054,0.93565
335.481,38.96219,-0.67994,0.18697,0.93527
336.081,39.0199,-0.67994,0.18735,0.93489
336.681,39.0776,-0.68121,0.18438,0.93451
337.281,39.13532,-0.68257,0.1813,0.93413
337.881,39.19301,-0.68259,0.18266,0.93375
338.481,39.2505,-0.68389,0.18339,0.93336
339.081,39.3078,-0.68553,0.17951,0.93298
339.681,39.36508,-0.68584,0.17464,0.9326
340.281,39.4225,-0.68685,0.17609,0.93222
340.881,39.4803,-0.68685,0.17575,0.93183
341.481,39.53845,-0.68685,0.17511,0.93145
342.081,39.59683,-0.68802,0.17246,0.93106
342.681,39.65511,-0.68958,0.17095,0.93068
343.281,39.71331,-0.68949,0.1712,0.9303
343.881,39.77091,-0.68952,0.17026,0.92991
344.481,39.82868,-0.6908,0.17039,0.92952
345.081,39.88664,-0.69147,0.16617,0.92914
345.681,39.9446,-0.69212,0.1672,0.92875
346.281,40.00277,-0.69343,0.16757,0.92837
346.881,40.06075,-0.69343,0.16365,0.92798
347.481,40.11869,-0.69343,0.16381,0.92759
348.081,40.17662,-0.69476,0.16231,0.9272
348.681,40.23465,-0.69541,0.16306,0.92681
349.281,40.2926,-0.69541,0.16192,0.92643
349.881,40.35052,-0.69673,0.16348,0.92604
350.481,40.4086,-0.69673,0.15968,0.92565
351.081,40.46652,-0.69673,0.16026,0.92526
351.681,40.5244,-0.69674,0.16119,0.92487
352.281,40.58225,-0.69804,0.16298,0.92448
352.881,40.63968,-0.69936,0.16031,0.92409
353.481,40.6974,-0.69936,0.1624,0.92369
354.081,40.75493,-0.69803,0.16606,0.9233
354.681,40.81297,-0.69801,0.1631,0.92291
355.281,40.87128,-0.70013,0.16302,0.92252
355.881,40.92994,-0.70002,0.16173,0.92213
356.481,40.98842,-0.70002,0.16187,0.92173
357.081,41.04692,-0.70002,0.16217,0.92134
357.681,41.10485,-0.70131,0.16388,0.92095
358.281,41.16279,-0.70133,0.16347,0.92055
358.881,41.22096,-0.70133,0.16303,0.92016
359.481,41.2791,-0.70191,0.16303,0.91976
360.081,41.33741,-0.70195,0.16505,0.91937
360.681,41.39545,-0.70331,0.16458,0.91897
361.281,41.45353,-0.7033,0.16351,0.91858
361.881,41.5116,-0.70298,0.16282,0.91818
362.481,41.56967,-0.70298,0.16228,0.91778
363.081,41.62784,-0.70316,0.16233,0.91738
363.681,41.68611,-0.70467,0.1612,0.91699
364.281,41.74412,-0.70651,0.16089,0.91659
364.881,41.80231,-0.7066,0.16064,0.91619
365.481,41.86045,-0.7066,0.15913,0.91579
366.081,41.91874,-0.7066,0.15993,0.91539
366.681,41.97701,-0.7079,0.15762,0.91499
367.281,42.03536,-0.70792,0.15964,0.91459
367.881,42.09366,-0.70792,0.15852,0.9142
368.481,42.15195,-0.70792,0.15965,0.91379
369.081,42.21018,-0.70792,0.15699,0.91339
369.681,42.2686,-0.70922,0.15866,0.91299
370.281,42.32676,-0.70923,0.15547,0.91259
370.881,42.38493,-0.70784,0.15766,0.91219
371.481,42.44299,-0.70846,0.15613,0.91179
372.081,42.5011,-0.71054,0.15468,0.91139
372.681,42.55915,-0.71055,0.1547,0.91098
373.281,42.61737,-0.71061,0.15585,0.91058
373.881,42.6757,-0.7112,0.15663,0.91018
374.481,42.7338,-0.7112,0.1588,0.90977
375.081,42.79207,-0.7112,0.15694,0.90937
375.681,42.85009,-0.7112,0.15737,0.90896
376.281,42.9082,-0.71219,0.157,0.90856
376.881,42.9664,-0.71219,0.15603,0.90815
377.481,43.0244,-0.71347,0.15763,0.90775
378.081,43.08294,-0.7136,0.1561,0.90734
378.681,43.14118,-0.71351,0.15425,0.90694
379.281,43.19948,-0.71351,0.1583,0.90653
379.881,43.25792,-0.71351,0.15682,0.90612
380.481,43.3163,-0.71351,0.15806,0.90571
381.081,43.37466,-0.71351,0.15836,0.90531
381.681,43.43315,-0.71491,0.15742,0.9049
382.281,43.49155,-0.71482,0.15619,0.90449
382.881,43.54978,-0.71482,0.15654,0.90408
383.481,43.60799,-0.71581,0.15714,0.90367
384.081,43.66637,-0.71712,0.15578,0.90326
384.681,43.72472,-0.71713,0.15621,0.90285
385.281,43.78308,-0.71583,0.15312,0.90244
385.881,43.84132,-0.71427,0.15424,0.90203
386.481,43.89955,-0.71743,0.15346,0.90162
387.081,43.9579,-0.71868,0.15541,0.90121
387.681,44.01632,-0.71938,0.15562,0.9008
388.281,44.07483,-0.72009,0.15338,0.90039
388.881,44.13317,-0.71954,0.15292,0.89998
389.481,44.19142,-0.7191,0.15316,0.89956
390.081,44.24974,-0.72041,0.15355,0.89915
390.681,44.30812,-0.72042,0.14934,0.89874
391.281,44.3666,-0.72042,0.15156,0.89833
391.881,44.42498,-0.72075,0.15231,0.89791
392.481,44.48349,-0.72202,0.15329,0.8975
393.081,44.54175,-0.72239,0.15107,0.89708
393.681,44.60015,-0.72371,0.15097,0.89667
394.281,44.65845,-0.72305,0.15154,0.89625
394.881,44.71667,-0.72246,0.15348,0.89584
395.481,44.7751,-0.72307,0.15016,0.89542
396.081,44.83362,-0.72371,0.15453,0.89501
396.681,44.89217,-0.72372,0.15133,0.89459
397.281,44.95068,-0.72307,0.15034,0.89417
397.881,45.00897,-0.72436,0.15169,0.89376
398.481,45.0674,-0.72436,0.15229,0.89334
399.081,45.12572,-0.72569,0.15083,0.89292
399.681,45.18425,-0.72568,0.1485,0.8925
400.281,45.24259,-0.72568,0.14953,0.89209
400.881,45.3011,-0.72742,0.14737,0.89167
401.481,45.3596,-0.72828,0.14957,0.89125
402.081,45.41823,-0.72897,0.14979,0.89083
402.681,45.4768,-0.72937,0.148,0.89041
403.281,45.5354,-0.73029,0.14581,0.88999
403.881,45.59346,-0.73029,0.14571,0.88957
404.481,45.652,-0.72932,0.14579,0.88915
405.081,45.7104,-0.73062,0.14677,0.88873
405.681,45.769,-0.73063,0.14194,0.88831
406.281,45.8282,-0.73194,0.14348,0.88789
406.881,45.88674,-0.73194,0.1422,0.88746
407.481,45.9454,-0.73321,0.14352,0.88704
408.081,46.00414,-0.73326,0.14487,0.88662
408.681,46.06277,-0.73455,0.1429,0.8862
409.281,46.1213,-0.73457,0.14336,0.88577
409.881,46.17951,-0.73589,0.14316,0.88535
410.481,46.23813,-0.73719,0.14229,0.88493
411.081,46.29671,-0.73655,0.14179,0.8845
411.681,46.35553,-0.73721,0.13945,0.88408
412.281,46.4146,-0.73852,0.13722,0.88366
412.881,46.47309,-0.7391,0.13781,0.88323
413.481,46.53185,-0.74115,0.13966,0.88281
414.081,46.59055,-0.74246,0.1386,0.88238
414.681,46.6492,-0.74213,0.1383,0.88195
415.281,46.70798,-0.74344,0.13947,0.88153
415.881,46.7665,-0.74439,0.13797,0.8811
416.481,46.8252,-0.74376,0.13479,0.88068
417.081,46.88384,-0.74382,0.13603,0.88025
417.681,46.94234,-0.74577,0.13673,0.87982
418.281,47.0011,-0.74661,0.13597,0.87939
418.881,47.0597,-0.74815,0.13725,0.87897
419.481,47.1183,-0.74916,0.14129,0.87854
420.081,47.17706,-0.74916,0.13707,0.87811
420.681,47.23563,-0.75049,0.13905,0.87768
421.281,47.2943,-0.75049,0.13763,0.87725
421.881,47.3529,-0.7518,0.137,0.87682
422.481,47.41172,-0.75046,0.13528,0.87639
423.081,47.47045,-0.75311,0.13753,0.87596
423.681,47.52904,-0.75445,0.13847,0.87553
424.281,47.5879,-0.75446,0.13999,0.8751
424.881,47.64654,-0.75574,0.13922,0.87467
425.481,47.70518,-0.75754,0.13944,0.87424
426.081,47.76384,-0.75837,0.13818,0.87381
426.681,47.8223,-0.7597,0.13891,0.87338
427.281,47.88102,-0.76101,0.13808,0.87294
427.881,47.93987,-0.76232,0.13765,0.87251
428.481,47.99875,-0.76359,0.13777,0.87208
429.081,48.0578,-0.76478,0.13744,0.87165
429.681,48.1167,-0.76525,0.14033,0.87121
430.281,48.17543,-0.76557,0.14123,0.87078
430.881,48.23423,-0.76783,0.14147,0.87035
431.481,48.29298,-0.76804,0.14164,0.86991
432.081,48.35185,-0.76937,0.14347,0.86948
432.681,48.41082,-0.77345,0.14362,0.86904
433.281,48.46974,-0.77471,0.14198,0.86861
433.881,48.52864,-0.77602,0.14289,0.86817
434.481,48.58737,-0.77729,0.14319,0.86774
435.081,48.64618,-0.77732,0.14441,0.8673
435.681,48.70489,-0.77971,0.1477,0.86687
436.281,48.76327,-0.7814,0.14697,0.86643
436.881,48.8221,-0.78398,0.14879,0.86599
437.481,48.88077,-0.78534,0.14948,0.86556
438.081,48.9397,-0.78729,0.15297,0.86512
438.681,48.99825,-0.78951,0.15151,0.86468
439.281,49.05696,-0.78953,0.15189,0.86424
439.881,49.11587,-0.79212,0.15406,0.86381
440.481,49.17492,-0.79391,0.15607,0.86337
441.081,49.234,-0.79636,0.15749,0.86293
441.681,49.29285,-0.79917,0.15837,0.86249
442.281,49.35163,-0.80092,0.15844,0.86205
442.881,49.41044,-0.80224,0.1593,0.86161
443.481,49.46927,-0.80328,0.16267,0.86117
444.081,49.52802,-0.80507,0.1637,0.86073
444.681,49.58676,-0.80707,0.16491,0.86029
445.281,49.64541,-0.80918,0.16838,0.85985
445.881,49.70425,-0.81089,0.16881,0.85941
446.481,49.76315,-0.8133,0.17105,0.85897
447.081,49.82204,-0.81578,0.17443,0.85853
447.681,49.88102,-0.81859,0.17559,0.85809
448.281,49.93988,-0.821,0.17793,0.85765
448.881,49.99883,-0.82387,0.17788,0.8572
449.481,50.05771,-0.82448,0.17932,0.85676
450.081,50.11668,-0.8271,0.18466,0.85632
450.681,50.17556,-0.82978,0.18322,0.85588
451.281,50.23447,-0.83156,0.18646,0.85543
451.881,50.29351,-0.8345,0.18977,0.85499
452.481,50.3525,-0.83744,0.19516,0.85455
453.081,50.41166,-0.84012,0.19208,0.8541
453.681,50.47075,-0.84225,0.19724,0.85366
454.281,50.52995,-0.84469,0.19788,0.85321
454.881,50.589,-0.847,0.19819,0.85277
455.481,50.6481,-0.85196,0.20513,0.85232
456.081,50.7072,-0.85424,0.20482,0.85188
456.681,50.76618,-0.85534,0.20619,0.85143
457.281,50.8252,-0.85702,0.20908,0.85099
457.881,50.88423,-0.85929,0.21217,0.85054
458.481,50.94339,-0.86203,0.2127,0.85009
459.081,51.0026,-0.86516,0.2142,0.84965
459.681,51.0617,-0.86724,0.21551,0.8492
460.281,51.1209,-0.86955,0.21856,0.84875
460.881,51.18,-0.872,0.22021,0.84831
461.481,51.23918,-0.87417,0.22317,0.84786
462.081,51.29821,-0.87704,0.22313,0.84741
462.681,51.35733,-0.87848,0.22444,0.84696
463.281,51.41637,-0.88114,0.2269,0.84651
463.881,51.47555,-0.88533,0.22961,0.84607
464.481,51.53458,-0.88611,0.23062,0.84562
465.081,51.5937,-0.8873,0.22987,0.84517
465.681,51.65292,-0.89048,0.23197,0.84472
466.281,51.71204,-0.89477,0.23385,0.84427
466.881,51.77124,-0.8957,0.23569,0.84382
467.481,51.8303,-0.89725,0.23715,0.84337
468.081,51.8894,-0.89908,0.23814,0.84292
468.681,51.9486,-0.90117,0.23613,0.84247
469.281,52.00781,-0.90429,0.23994,0.84202
469.881,52.06694,-0.90675,0.23803,0.84157
470.481,52.12604,-0.90966,0.2404,0.84111
471.081,52.18525,-0.91164,0.24304,0.84066
471.681,52.24435,-0.91399,0.24247,0.84021
472.281,52.30344,-0.91561,0.24434,0.83976
472.881,52.36253,-0.91806,0.24451,0.83931
473.481,52.42159,-0.91943,0.24686,0.83885
474.081,52.4809,-0.91998,0.2512,0.8384
474.681,52.53985,-0.92236,0.25306,0.83795
475.281,52.59885,-0.92373,0.2507,0.83749
475.881,52.6578,-0.92557,0.24991,0.83704
476.481,52.7164,-0.92791,0.2516,0.83659
477.081,52.7756,-0.92979,0.25168,0.83613
477.681,52.83439,-0.93199,0.25089,0.83568
478.281,52.8934,-0.93332,0.25352,0.83522
478.881,52.95244,-0.93466,0.25472,0.83477
479.481,53.0114,-0.93612,0.25621,0.83431
480.081,53.0706,-0.93873,0.25689,0.83386
480.681,53.1298,-0.94,0.25698,0.8334
481.281,53.1889,-0.94144,0.25676,0.83295
481.881,53.24794,-0.94276,0.25621,0.83249
482.481,53.3071,-0.94419,0.25973,0.83204
483.081,53.36631,-0.9455,0.2608,0.83158
483.681,53.4257,-0.94681,0.26249,0.83112
484.281,53.48489,-0.94812,0.26032,0.83067
484.881,53.54394,-0.94946,0.26208,0.83021
485.481,53.603,-0.95081,0.26041,0.82975
486.081,53.6621,-0.95206,0.2625,0.82929
486.681,53.72116,-0.95345,0.26378,0.82884
487.281,53.7804,-0.95339,0.26239,0.82838
487.881,53.8398,-0.95471,0.26532,0.82792
488.481,53.8994,-0.95469,0.26347,0.82746
489.081,53.9591,-0.95599,0.26608,0.827
489.681,54.01875,-0.95857,0.26456,0.82654
490.281,54.07801,-0.95946,0.26528,0.82608
490.881,54.1373,-0.96128,0.26636,0.82562
491.481,54.1966,-0.96009,0.26247,0.82516
492.081,54.2558,-0.96119,0.26515,0.8247
492.681,54.31504,-0.96255,0.26688,0.82424
493.281,54.3742,-0.96524,0.26721,0.82378
493.881,54.43345,-0.9652,0.26581,0.82332
494.481,54.49266,-0.96656,0.26593,0.82286
495.081,54.55165,-0.96787,0.26611,0.8224
495.681,54.61101,-0.96861,0.26586,0.82194
496.281,54.6703,-0.9682,0.26326,0.82148
496.881,54.72976,-0.96786,0.26686,0.82102
497.481,54.78861,-0.96919,0.26649,0.82056
498.081,54.8477,-0.9705,0.26422,0.82009
498.681,54.90693,-0.97182,0.26732,0.81963
499.281,54.9664,-0.97182,0.26501,0.81917
499.881,55.02609,-0.97245,0.2639,0.81871
500.481,55.0854,-0.97182,0.26302,0.81824
501.081,55.1447,-0.97321,0.26941,0.81778
501.681,55.204,-0.9748,0.26558,0.81732
502.281,55.26334,-0.97577,0.26558,0.81685
502.881,55.3226,-0.97577,0.26774,0.81639
503.481,55.38196,-0.97712,0.26725,0.81592
504.081,55.4413,-0.97666,0.26739,0.81546
504.681,55.50079,-0.97708,0.26809,0.815
505.281,55.5603,-0.97708,0.27441,0.81453
505.881,55.61971,-0.97839,0.27203,0.81407
506.481,55.67901,-0.9784,0.27418,0.8136
507.081,55.7384,-0.97971,0.27256,0.81314
507.681,55.798,-0.9802,0.275,0.81267
508.281,55.85754,-0.98098,0.27482,0.8122
508.881,55.9172,-0.98185,0.27407,0.81174
509.481,55.9767,-0.98147,0.27374,0.81127
510.081,56.0363,-0.98329,0.27549,0.81081
510.681,56.09584,-0.984,0.27473,0.81034
511.281,56.15521,-0.9854,0.27569,0.80987
511.881,56.2148,-0.98531,0.27835,0.80941
512.481,56.2742,-0.98811,0.27708,0.80894
513.081,56.33393,-0.98827,0.2796,0.80847
513.681,56.39362,-0.98948,0.28109,0.808
514.281,56.4532,-0.98959,0.28162,0.80754
514.881,56.5128,-0.9888,0.28412,0.80707
515.481,56.5724,-0.98959,0.2862,0.8066
516.081,56.6318,-0.99095,0.2898,0.80613
516.681,56.69106,-0.99222,0.28969,0.80566
517.281,56.75068,-0.99091,0.29247,0.80519
517.881,56.8103,-0.99222,0.2956,0.80473
518.481,56.87001,-0.99354,0.29671,0.80426
519.081,56.9298,-0.99354,0.29687,0.80379
519.681,56.9895,-0.99486,0.30182,0.80332
520.281,57.049,-0.99358,0.30459,0.80285
520.881,57.10852,-0.99485,0.3033,0.80238
521.481,57.16802,-0.99486,0.30775,0.80191
522.081,57.22755,-0.99619,0.31509,0.80144
522.681,57.28719,-0.99751,0.31742,0.80097
523.281,57.34684,-0.99884,0.32287,0.8005
523.881,57.4065,-0.9988,0.32756,0.80002
524.481,57.466,-1.0001,0.33053,0.79955
525.081,57.5254,-1.00015,0.33561,0.79908
525.681,57.5849,-1.00143,0.33796,0.79861
526.281,57.6444,-1.00239,0.34224,0.79814
526.881,57.7042,-1.00238,0.34799,0.79767
527.481,57.7638,-1.00373,0.35275,0.7972
528.081,57.8232,-1.00505,0.35529,0.79672
528.681,57.8822,-1.00638,0.36719,0.79625
529.281,57.9412,-1.00681,0.38143,0.79578
529.881,58.0007,-1.00769,0.38839,0.7953
530.481,58.06052,-1.00769,0.39717,0.79483
531.081,58.1205,-1.009,0.40039,0.79436
531.681,58.1803,-1.00933,0.40371,0.79389
532.281,58.24,-1.01064,0.40633,0.79341
532.881,58.29982,-1.01328,0.40826,0.79294
533.481,58.35951,-1.01461,0.41316,0.79246
534.081,58.4192,-1.01433,0.4092,0.79199
534.681,58.4786,-1.01459,0.4114,0.79152
535.281,58.5383,-1.01459,0.41322,0.79104
535.881,58.598,-1.01719,0.41265,0.79057
536.481,58.65797,-1.01865,0.41149,0.79009
537.081,58.7177,-1.01892,0.41305,0.78962
537.681,58.77762,-1.01951,0.41143,0.78914
538.281,58.8374,-1.01997,0.41035,0.78867
538.881,58.8971,-1.02127,0.41193,0.78819
539.481,58.95678,-1.0212,0.41227,0.78771
540.081,59.01642,-1.02264,0.41151,0.78724
540.681,59.07606,-1.02392,0.41251,0.78676
541.281,59.1357,-1.02532,0.41018,0.78629
541.881,59.19554,-1.02664,0.41267,0.78581
542.481,59.25544,-1.02663,0.4095,0.78533
543.081,59.31524,-1.02782,0.40988,0.78486
543.681,59.37505,-1.02926,0.41092,0.78438
544.281,59.43486,-1.02985,0.41075,0.7839
544.881,59.49449,-1.02989,0.40738,0.78342
545.481,59.55434,-1.03108,0.41155,0.78295
546.081,59.61424,-1.03269,0.41385,0.78247
546.681,59.67406,-1.03379,0.41229,0.78199
547.281,59.7338,-1.03443,0.41452,0.78151
547.881,59.79365,-1.03575,0.41083,0.78104
548.481,59.8534,-1.03708,0.41541,0.78056
549.081,59.91329,-1.0384,0.41625,0.78008
549.681,59.9731,-1.03972,0.41784,0.7796
550.281,60.03278,-1.04112,0.41498,0.77912
550.881,60.0926,-1.04161,0.41564,0.77864
551.481,60.1523,-1.04237,0.41896,0.77816
552.081,60.212,-1.04366,0.42116,0.77768
552.681,60.27179,-1.04368,0.42618,0.7772
553.281,60.33165,-1.0452,0.42305,0.77672
553.881,60.3915,-1.04718,0.43012,0.77624
554.481,60.4514,-1.04773,0.42819,0.77576
555.081,60.51115,-1.04969,0.42761,0.77528
555.681,60.57082,-1.05103,0.43042,0.7748
556.281,60.6305,-1.05233,0.43456,0.77432
556.881,60.6902,-1.05329,0.43932,0.77384
557.481,60.75017,-1.05365,0.43914,0.77336
558.081,60.8101,-1.05399,0.43917,0.77288
558.681,60.8699,-1.05496,0.44537,0.7724
559.281,60.92974,-1.05529,0.44734,0.77192
559.881,60.98967,-1.05662,0.45034,0.77144
560.481,61.04955,-1.05924,0.45572,0.77096
561.081,61.10943,-1.06056,0.4575,0.77047
561.681,61.1693,-1.06188,0.46135,0.76999
562.281,61.22929,-1.06319,0.46206,0.76951
562.881,61.28937,-1.06388,0.46946,0.76903
563.481,61.34936,-1.06528,0.47262,0.76855
564.081,61.4092,-1.0666,0.47548,0.76806
564.681,61.4691,-1.06815,0.47779,0.76758
565.281,61.529,-1.06981,0.48247,0.7671
565.881,61.589,-1.0699,0.48265,0.76661
566.481,61.64891,-1.06988,0.48589,0.76613
567.081,61.7089,-1.07143,0.4898,0.76565
567.681,61.769,-1.07262,0.49496,0.76516
568.281,61.82889,-1.07393,0.49592,0.76468
568.881,61.88907,-1.07525,0.50243,0.7642
569.481,61.9491,-1.07655,0.50621,0.76371
570.081,62.0093,-1.07881,0.50932,0.76323
570.681,62.0694,-1.08047,0.51616,0.76275
571.281,62.1294,-1.08181,0.51995,0.76226
571.881,62.18939,-1.08316,0.52539,0.76178
572.481,62.24938,-1.08467,0.53509,0.76129
573.081,62.3095,-1.08597,0.54243,0.76081
573.681,62.36965,-1.08885,0.54751,0.76032
574.281,62.4298,-1.08887,0.55459,0.75984
574.881,62.4899,-1.09016,0.56553,0.75935
575.481,62.5499,-1.09149,0.57121,0.75887
576.081,62.60995,-1.09498,0.58166,0.75838
576.681,62.67012,-1.09719,0.59393,0.7579
577.281,62.7303,-1.09852,0.60396,0.75741
577.881,62.7902,-1.10114,0.60835,0.75692
578.481,62.8504,-1.10227,0.6173,0.75644
579.081,62.9105,-1.10327,0.62829,0.75595
579.681,62.97061,-1.10553,0.632,0.75547
580.281,63.0308,-1.1085,0.63816,0.75498
580.881,63.091,-1.10979,0.63779,0.75449
581.481,63.1512,-1.112,0.64217,0.75401
582.081,63.21147,-1.11414,0.6423,0.75352
582.681,63.27166,-1.11693,0.64012,0.75303
583.281,63.33192,-1.11983,0.63273,0.75254
583.881,63.3921,-1.12048,0.62105,0.75206
584.481,63.4524,-1.12282,0.60038,0.75157
585.081,63.51246,-1.12436,0.56891,0.75108
585.681,63.57213,-1.12701,0.53235,0.75059
586.281,63.6322,-1.12989,0.50086,0.75011
586.881,63.69205,-1.13251,0.46476,0.74962
587.481,63.75212,-1.13335,0.4328,0.74913
588.081,63.81216,-1.13507,0.40889,0.74864
588.681,63.8717,-1.13462,0.3842,0.74815
589.281,63.93114,-1.13514,0.36732,0.74767
589.881,63.99058,-1.13486,0.35758,0.74718
590.481,64.05022,-1.13514,0.34514,0.74669
591.081,64.11019,-1.13514,0.33771,0.7462
591.681,64.17027,-1.13514,0.3313,0.74571
592.281,64.23029,-1.13645,0.32762,0.74522
592.881,64.29025,-1.13645,0.32115,0.74473
593.481,64.35032,-1.13777,0.31935,0.74424
594.081,64.41081,-1.13776,0.31609,0.74375
594.681,64.47116,-1.13718,0.31586,0.74326
595.281,64.53171,-1.13916,0.31554,0.74277
595.881,64.59178,-1.13909,0.31265,0.74228
596.481,64.6519,-1.13909,0.31153,0.74179
597.081,64.71199,-1.13909,0.30983,0.7413
597.681,64.7721,-1.13918,0.30925,0.74081
598.281,64.8322,-1.14041,0.31274,0.74032
598.881,64.89232,-1.14041,0.31193,0.73983
599.481,64.9525,-1.14139,0.3163,0.73934
600.081,65.01263,-1.1414,0.32111,0.73885
600.681,65.0727,-1.14175,0.32466,0.73836
601.281,65.13285,-1.1414,0.3292,0.73787
601.881,65.19289,-1.1427,0.33901,0.73738
602.481,65.25313,-1.14303,0.34261,0.73689
603.081,65.31336,-1.14437,0.34833,0.7364
603.681,65.3737,-1.14436,0.3556,0.73591
604.281,65.43405,-1.14437,0.36021,0.73541
604.881,65.4943,-1.14304,0.36997,0.73492
605.481,65.55445,-1.14448,0.37729,0.73443
606.081,65.61443,-1.14682,0.38269,0.73394
606.681,65.6746,-1.14806,0.38825,0.73345
607.281,65.73477,-1.14676,0.39557,0.73296
607.881,65.79483,-1.14808,0.40122,0.73246
608.481,65.8549,-1.14808,0.40442,0.73197
609.081,65.91506,-1.14809,0.41547,0.73148
609.681,65.97537,-1.1494,0.42322,0.73099
610.281,66.03572,-1.14935,0.42883,0.73049
610.881,66.09584,-1.15016,0.4353,0.73
611.481,66.15604,-1.15073,0.43732,0.72951
612.081,66.21627,-1.1517,0.44342,0.72901
612.681,66.27639,-1.15334,0.44958,0.72852
613.281,66.33665,-1.15596,0.45798,0.72803
613.881,66.39665,-1.15469,0.46167,0.72754
614.481,66.4568,-1.15599,0.46771,0.72704
615.081,66.51694,-1.15598,0.47078,0.72655
615.681,66.5772,-1.15597,0.48018,0.72605
616.281,66.63746,-1.15729,0.48526,0.72556
616.881,66.69764,-1.15806,0.49031,0.72507
617.481,66.75795,-1.16097,0.49651,0.72457
618.081,66.8181,-1.16224,0.50284,0.72408
618.681,66.8784,-1.16246,0.50995,0.72359
619.281,66.9388,-1.16379,0.51333,0.72309
619.881,66.99915,-1.16483,0.52098,0.7226
620.481,67.05951,-1.16619,0.52981,0.7221
621.081,67.1198,-1.16651,0.53205,0.72161
621.681,67.18001,-1.16783,0.5412,0.72111
622.281,67.24034,-1.16914,0.54875,0.72062
622.881,67.30057,-1.17046,0.55515,0.72012
623.481,67.36081,-1.17178,0.56191,0.71963
624.081,67.42098,-1.17309,0.56867,0.71913
624.681,67.48119,-1.17441,0.57538,0.71864
625.281,67.5413,-1.17545,0.58288,0.71814
625.881,67.60155,-1.1775,0.58836,0.71765
626.481,67.6618,-1.17816,0.59596,0.71715
627.081,67.72215,-1.17935,0.60345,0.71666
627.681,67.78235,-1.18116,0.61638,0.71616
628.281,67.84259,-1.18239,0.62101,0.71567
628.881,67.9028,-1.18363,0.62841,0.71517
629.481,67.96334,-1.18487,0.63474,0.71468
630.081,68.02386,-1.18622,0.64174,0.71418
630.681,68.0844,-1.18836,0.65172,0.71368
631.281,68.1447,-1.18998,0.65941,0.71319
631.881,68.20519,-1.19132,0.66752,0.71269
632.481,68.26545,-1.1941,0.67831,0.71219
633.081,68.32579,-1.1957,0.68235,0.7117
633.681,68.38602,-1.19597,0.69347,0.7112
634.281,68.44618,-1.19886,0.70369,0.71071
634.881,68.50653,-1.20129,0.71159,0.71021
635.481,68.56702,-1.20313,0.72353,0.70971
636.081,68.62751,-1.20596,0.73236,0.70922
636.681,68.688,-1.20866,0.74399,0.70872
637.281,68.7484,-1.21112,0.7544,0.70822
637.881,68.80885,-1.21174,0.76491,0.70772
638.481,68.86921,-1.21556,0.77499,0.70723
639.081,68.92948,-1.21697,0.78087,0.70673
639.681,68.98974,-1.21849,0.79405,0.70623
640.281,69.04995,-1.2218,0.80468,0.70574
640.881,69.11036,-1.2238,0.81239,0.70524
641.481,69.17067,-1.22701,0.826,0.70474
642.081,69.23103,-1.22924,0.83799,0.70424
642.681,69.29135,-1.23165,0.84502,0.70374
643.281,69.35169,-1.23461,0.85715,0.70325
643.881,69.41206,-1.23556,0.87169,0.70275
644.481,69.47229,-1.23764,0.88119,0.70225
645.081,69.53251,-1.24092,0.89364,0.70175
645.681,69.59295,-1.24288,0.90662,0.70126
646.281,69.6533,-1.24526,0.9153,0.70076
646.881,69.7135,-1.24685,0.92911,0.70026
647.481,69.77385,-1.24993,0.94133,0.69976
648.081,69.83415,-1.25295,0.95282,0.69926
648.681,69.89471,-1.25584,0.96205,0.69876
649.281,69.95525,-1.2588,0.97651,0.69827
649.881,70.0157,-1.26124,0.98917,0.69777
650.481,70.07605,-1.26273,1.00094,0.69727
651.081,70.1365,-1.26642,1.01261,0.69677
651.681,70.19678,-1.26992,1.02348,0.69627
652.281,70.25704,-1.27305,1.03535,0.69577
652.881,70.31734,-1.2765,1.04462,0.69527
653.481,70.37777,-1.27909,1.05719,0.69477
654.081,70.43814,-1.28192,1.06484,0.69427
654.681,70.4983,-1.28526,1.07848,0.69378
655.281,70.55835,-1.28877,1.08664,0.69328
655.881,70.6188,-1.29157,1.09742,0.69278
656.481,70.67963,-1.29437,1.10755,0.69228
657.081,70.74043,-1.29584,1.11845,0.69178
657.681,70.80108,-1.29878,1.12909,0.69128
658.281,70.86142,-1.30263,1.14004,0.69078
658.881,70.9218,-1.30594,1.14878,0.69028
659.481,70.98214,-1.30992,1.16051,0.68978
660.081,71.04251,-1.31335,1.17251,0.68928
660.681,71.10293,-1.31673,1.18125,0.68878
661.281,71.16351,-1.31802,1.19115,0.68828
661.881,71.22404,-1.32224,1.20653,0.68778
662.481,71.28447,-1.32723,1.21733,0.68728
663.081,71.34493,-1.33082,1.23344,0.68678
663.681,71.4054,-1.33223,1.24541,0.68628
664.281,71.4661,-1.3357,1.25832,0.68578
664.881,71.52668,-1.34055,1.27542,0.68528
665.481,71.58735,-1.34398,1.28959,0.68478
666.081,71.64801,-1.34698,1.31102,0.68428
666.681,71.70864,-1.3515,1.33006,0.68378
667.281,71.7691,-1.35534,1.34701,0.68328
667.881,71.82967,-1.3593,1.37246,0.68278
668.481,71.89,-1.36383,1.39763,0.68228
669.081,71.95055,-1.36543,1.4235,0.68178
669.681,72.01097,-1.36902,1.44822,0.68128
670.281,72.0715,-1.37353,1.4754,0.68078
670.881,72.13202,-1.37807,1.50272,0.68027
671.481,72.19261,-1.38289,1.54048,0.67977
672.081,72.25333,-1.38695,1.56741,0.67927
672.681,72.3142,-1.39094,1.60122,0.67877
673.281,72.3749,-1.39538,1.63565,0.67827
673.881,72.43566,-1.40041,1.66372,0.67777
674.481,72.49631,-1.40568,1.69875,0.67727
675.081,72.55686,-1.41041,1.73587,0.67677
675.681,72.61745,-1.4166,1.77265,0.67627
676.281,72.67786,-1.42129,1.81192,0.67576
676.881,72.73826,-1.42773,1.8462,0.67526
677.481,72.79864,-1.43043,1.88473,0.67476
678.081,72.8591,-1.43647,1.92721,0.67426
678.681,72.91983,-1.44367,1.96951,0.67376
679.281,72.98084,-1.44888,2.01182,0.67326
679.881,73.04177,-1.45481,2.0593,0.67276
680.481,73.10279,-1.46028,2.11011,0.67225
681.081,73.16355,-1.46713,2.16031,0.67175
681.681,73.22431,-1.47257,2.21266,0.67125
682.281,73.28514,-1.47974,2.27496,0.67075
682.881,73.346,-1.48705,2.33498,0.67025
683.481,73.40684,-1.49411,2.40194,0.66975
684.081,73.4677,-1.50043,2.46861,0.66924
684.681,73.5286,-1.50747,2.53887,0.66874
685.281,73.5895,-1.51591,2.61209,0.66824
685.881,73.65044,-1.52436,2.68098,0.66774
686.481,73.71137,-1.53136,2.74223,0.66724
687.081,73.7722,-1.54067,2.78553,0.66673
687.681,73.83306,-1.54801,2.81296,0.66623
688.281,73.89381,-1.55689,2.83241,0.66573
688.881,73.95452,-1.56523,2.83623,0.66523
689.481,74.01525,-1.57474,2.83473,0.66473
690.081,74.0758,-1.58204,2.83419,0.66422
690.681,74.13634,-1.59136,2.83668,0.66372
691.281,74.1969,-1.60106,2.84737,0.66322
691.881,74.25752,-1.60934,2.86141,0.66272
692.481,74.3182,-1.62028,2.87867,0.66221
693.081,74.37905,-1.62908,2.89859,0.66171
693.681,74.4398,-1.64021,2.91492,0.66121
694.281,74.5005,-1.64985,2.94034,0.66071
694.881,74.5613,-1.65865,2.96713,0.6602
695.481,74.62204,-1.66935,2.98956,0.6597
696.081,74.6827,-1.67856,3.0146,0.6592
696.681,74.74337,-1.6894,3.03697,0.6587
697.281,74.8042,-1.6997,3.06534,0.65819
697.881,74.86492,-1.70841,3.09314,0.65769
698.481,74.92564,-1.71992,3.12133,0.65719
699.081,74.98621,-1.7293,3.15125,0.65669
699.681,75.04687,-1.74061,3.17449,0.65618
700.281,75.1078,-1.75105,3.2017,0.65568
700.881,75.16872,-1.7627,3.22611,0.65518
701.481,75.22976,-1.77325,3.25362,0.65468
702.081,75.29047,-1.7836,3.28176,0.65417
702.681,75.35109,-1.79499,3.30411,0.65367
703.281,75.4116,-1.80677,3.32261,0.65317
703.881,75.47225,-1.81826,3.34165,0.65266
704.481,75.5332,-1.82715,3.35895,0.65216
705.081,75.59403,-1.83944,3.37417,0.65166
705.681,75.65501,-1.85092,3.38728,0.65116
706.281,75.7157,-1.86352,3.39748,0.65065
706.881,75.77626,-1.87477,3.39986,0.65015
707.481,75.837,-1.88645,3.40137,0.64965
708.081,75.89761,-1.89853,3.39754,0.64914
708.681,75.95832,-1.90964,3.38239,0.64864
709.281,76.01898,-1.92171,3.36105,0.64814
709.881,76.07956,-1.93217,3.33319,0.64763
710.481,76.14024,-1.94436,3.29197,0.64713
711.081,76.20094,-1.95405,3.2356,0.64663
711.681,76.26142,-1.96448,3.16078,0.64612
712.281,76.32196,-1.97632,3.06437,0.64562
712.881,76.38235,-1.98446,2.93167,0.64512
713.481,76.44278,-1.99512,2.76516,0.64461
714.081,76.50288,-2.00571,2.53784,0.64411
714.681,76.5631,-2.01387,2.25573,0.64361
715.281,76.62304,-2.02097,1.91557,0.6431
715.881,76.6828,-2.0267,1.5029,0.6426
716.481,76.74245,-2.03271,1.03473,0.6421
717.081,76.80202,-2.03788,0.6463,0.64159
717.681,76.86171,-2.04046,0.4777,0.64109
718.281,76.9217,-2.04171,0.42709,0.64059
718.881,76.98183,-2.043,0.37286,0.64008
719.481,77.04202,-2.04311,0.33435,0.63958
720.081,77.1019,-2.04312,0.30811,0.63908
720.681,77.1618,-2.04409,0.29438,0.63857
721.281,77.22205,-2.04411,0.28793,0.63807
721.881,77.28271,-2.04411,0.28761,0.63757
722.481,77.34379,-2.04316,0.28527,0.63706
723.081,77.4045,-2.04355,0.2832,0.63656
723.681,77.46514,-2.04411,0.2812,0.63606
724.281,77.5257,-2.04411,0.27975,0.63555
724.881,77.58623,-2.04411,0.27544,0.63505
725.481,77.6468,-2.04434,0.2779,0.63455
726.081,77.70749,-2.04444,0.27073,0.63404
726.681,77.76824,-2.04445,0.27422,0.63354
727.281,77.82896,-2.04574,0.27142,0.63304
727.881,77.88979,-2.04444,0.26727,0.63253
728.481,77.95062,-2.04444,0.26989,0.63203
729.081,78.01132,-2.04444,0.26478,0.63153
729.681,78.07207,-2.04445,0.26038,0.63102
730.281,78.13303,-2.04576,0.25866,0.63052
730.881,78.194,-2.04576,0.25853,0.63002
731.481,78.2551,-2.04576,0.25635,0.62951
732.081,78.316,-2.04576,0.25364,0.62901
732.681,78.37699,-2.04444,0.25148,0.62851
733.281,78.43788,-2.04445,0.24857,0.628
733.881,78.49886,-2.04576,0.248,0.6275
734.481,78.5599,-2.04576,0.24186,0.627
735.081,78.6209,-2.04576,0.24054,0.62649
735.681,78.68185,-2.04576,0.24119,0.62599
736.281,78.7426,-2.04576,0.23993,0.62549
736.881,78.80346,-2.04641,0.23514,0.62498
737.481,78.86442,-2.0471,0.23728,0.62448
738.081,78.92541,-2.04575,0.23407,0.62397
738.681,78.98647,-2.04575,0.22963,0.62347
739.281,79.0474,-2.04574,0.22905,0.62297
739.881,79.1082,-2.04707,0.22819,0.62246
740.481,79.169,-2.04707,0.22683,0.62196
741.081,79.22974,-2.04676,0.22493,0.62146
741.681,79.29046,-2.04576,0.22356,0.62095
742.281,79.35125,-2.0471,0.22566,0.62045
742.881,79.41195,-2.04813,0.22185,0.61995
743.481,79.4726,-2.04805,0.22018,0.61944
744.081,79.53321,-2.04805,0.21646,0.61894
744.681,79.59382,-2.04806,0.21567,0.61844
745.281,79.65437,-2.04903,0.21187,0.61793
745.881,79.71511,-2.04939,0.20783,0.61743
746.481,79.77588,-2.04839,0.20789,0.61693
747.081,79.8367,-2.04839,0.21026,0.61642
747.681,79.89744,-2.04839,0.20351,0.61592
748.281,79.9581,-2.04839,0.20186,0.61542
748.681,79.99851,-2.04941,0.20262,0.61508