File: 01_Data/Vinyl_Tile/STA/N2/10K_min/Vinyl_Tile_STA_N2_10KData_22055_R2.csv
##Temp./Â°C,Time/min,Mass loss(subtr.2)/mg,DSC(subtr.2)/(mW/mg),Sensit./(uV/mW)
49.843,10.01,-0.01777,0.00446293,1.06049
50.443,10.7348,-0.01921927,0.03031865,1.06037
51.043,10.92338,-0.01991887,0.0503027,1.06024
51.643,11.06533,-0.02087622,0.06722534,1.06012
52.243,11.1835,-0.01998461,0.07949275,1.05999
52.843,11.2881,-0.02112409,0.09079634,1.05987
53.443,11.38418,-0.02069131,0.09965765,1.05974
54.043,11.47436,-0.02086018,0.10887,1.05961
54.643,11.5597,-0.02085135,0.11788,1.05948
55.243,11.64131,-0.02105955,0.12373,1.05935
55.843,11.71992,-0.02139591,0.12922,1.05922
56.443,11.7963,-0.02143944,0.13595,1.05909
57.043,11.87091,-0.02011962,0.14001,1.05896
57.643,11.944,-0.01940511,0.14555,1.05883
58.243,12.01569,-0.02117419,0.15008,1.0587
58.843,12.08636,-0.02137194,0.15249,1.05857
59.443,12.15617,-0.02101647,0.15473,1.05843
60.043,12.22525,-0.02117004,0.15765,1.0583
60.643,12.29359,-0.0211767,0.16159,1.05817
61.243,12.36135,-0.02114602,0.16396,1.05803
61.843,12.42863,-0.02239855,0.16468,1.05789
62.443,12.49548,-0.02110597,0.16725,1.05776
63.043,12.5616,-0.02117085,0.1683,1.05762
63.643,12.6275,-0.02117185,0.16988,1.05748
64.243,12.69313,-0.02185121,0.17076,1.05734
64.843,12.759,-0.02117186,0.17242,1.0572
65.443,12.82462,-0.02116993,0.17251,1.05706
66.043,12.89018,-0.02117,0.17303,1.05692
66.643,12.95513,-0.02030468,0.17461,1.05678
67.243,13.0197,-0.0211722,0.17414,1.05664
67.843,13.08381,-0.02258629,0.17563,1.0565
68.443,13.14745,-0.02220059,0.17769,1.05635
69.043,13.21163,-0.02252101,0.17629,1.05621
69.643,13.27605,-0.02248461,0.17632,1.05606
70.243,13.341,-0.02117725,0.17671,1.05592
70.843,13.4055,-0.0225423,0.17955,1.05577
71.443,13.4693,-0.02246581,0.17824,1.05563
72.043,13.53295,-0.02278562,0.18267,1.05548
72.643,13.5963,-0.0224911,0.18293,1.05533
73.243,13.65962,-0.02381336,0.18301,1.05518
73.843,13.72281,-0.02244038,0.1852,1.05503
74.443,13.7859,-0.02358628,0.18451,1.05488
75.043,13.84895,-0.02247902,0.18486,1.05473
75.643,13.91165,-0.02382103,0.18491,1.05458
76.243,13.97425,-0.02270354,0.187,1.05443
76.843,14.03646,-0.02381019,0.18748,1.05428
77.443,14.0987,-0.02380097,0.18928,1.05412
78.043,14.1607,-0.02379322,0.18926,1.05397
78.643,14.22326,-0.02512363,0.19252,1.05381
79.243,14.2853,-0.02385111,0.1941,1.05366
79.843,14.3474,-0.02380999,0.1933,1.0535
80.443,14.409,-0.02380655,0.19447,1.05335
81.043,14.47049,-0.02512013,0.19464,1.05319
81.643,14.5321,-0.02511995,0.19628,1.05303
82.243,14.59371,-0.0236986,0.19954,1.05287
82.843,14.6551,-0.02510534,0.19886,1.05271
83.443,14.71623,-0.02380536,0.19878,1.05255
84.043,14.77713,-0.0249934,0.2017,1.05239
84.643,14.83809,-0.02380092,0.20186,1.05223
85.243,14.89899,-0.02477313,0.20171,1.05207
85.843,14.9598,-0.02512001,0.20079,1.05191
86.443,15.02043,-0.02512005,0.20513,1.05174
87.043,15.0813,-0.0239051,0.20599,1.05158
87.643,15.142,-0.02512075,0.205,1.05142
88.243,15.20231,-0.02643455,0.20555,1.05125
88.843,15.26285,-0.02645131,0.20523,1.05109
89.443,15.32303,-0.02643998,0.20706,1.05092
90.043,15.3832,-0.02709252,0.20802,1.05075
90.643,15.4431,-0.02779284,0.20993,1.05059
91.243,15.503,-0.02644155,0.20899,1.05042
91.843,15.56294,-0.02775474,0.20746,1.05025
92.443,15.6228,-0.02675434,0.20788,1.05008
93.043,15.68286,-0.02637552,0.20964,1.04991
93.643,15.74276,-0.02774987,0.21083,1.04974
94.243,15.80264,-0.0277482,0.21007,1.04957
94.843,15.8626,-0.02708691,0.21188,1.0494
95.443,15.922,-0.02780528,0.21153,1.04922
96.043,15.98144,-0.02685926,0.21186,1.04905
96.643,16.04073,-0.02709713,0.21109,1.04888
97.243,16.09991,-0.02709,0.21248,1.0487
97.843,16.15931,-0.02709001,0.21291,1.04853
98.443,16.21884,-0.02712599,0.21566,1.04835
99.043,16.27812,-0.02742825,0.21418,1.04817
99.643,16.33768,-0.02740313,0.21465,1.048
100.243,16.39675,-0.02677332,0.21559,1.04782
100.843,16.45589,-0.02681689,0.21792,1.04764
101.443,16.51495,-0.02768735,0.21801,1.04746
102.043,16.5741,-0.02643527,0.21863,1.04728
102.643,16.63317,-0.02777755,0.21776,1.0471
103.243,16.6923,-0.02830471,0.21968,1.04692
103.843,16.75124,-0.02902385,0.21815,1.04674
104.443,16.81012,-0.02775998,0.22268,1.04656
105.043,16.8689,-0.027761,0.22322,1.04637
105.643,16.92772,-0.02915731,0.22246,1.04619
106.243,16.9867,-0.02774991,0.22228,1.04601
106.843,17.0456,-0.02811039,0.22369,1.04582
107.443,17.10429,-0.02808001,0.22218,1.04564
108.043,17.1631,-0.02808001,0.22466,1.04545
108.643,17.2219,-0.02808971,0.22409,1.04526
109.243,17.28061,-0.02939013,0.22538,1.04508
109.843,17.33932,-0.02940257,0.22663,1.04489
110.443,17.398,-0.02898197,0.22673,1.0447
111.043,17.45663,-0.02903485,0.22653,1.04451
111.643,17.51539,-0.02906998,0.22771,1.04432
112.243,17.574,-0.02906707,0.23064,1.04413
112.843,17.63257,-0.03032223,0.22971,1.04394
113.443,17.69125,-0.02972995,0.23004,1.04375
114.043,17.7499,-0.02940508,0.22985,1.04356
114.643,17.80856,-0.02906952,0.23307,1.04336
115.243,17.86722,-0.02874539,0.23182,1.04317
115.843,17.92592,-0.02873982,0.23126,1.04298
116.443,17.98449,-0.02910527,0.23288,1.04278
117.043,18.04299,-0.02903879,0.23333,1.04259
117.643,18.10152,-0.03038933,0.23434,1.04239
118.243,18.16009,-0.03039,0.23379,1.04219
118.843,18.21864,-0.03039055,0.2365,1.042
119.443,18.27713,-0.03036376,0.23535,1.0418
120.043,18.33579,-0.03038999,0.23443,1.0416
120.643,18.3944,-0.03039,0.23735,1.0414
121.243,18.45297,-0.03039001,0.23622,1.0412
121.843,18.51144,-0.03039703,0.2346,1.041
122.443,18.5696,-0.0316984,0.23825,1.0408
123.043,18.62813,-0.03034801,0.23798,1.0406
123.643,18.68671,-0.03157257,0.23842,1.0404
124.243,18.74519,-0.03038955,0.23649,1.0402
124.843,18.8037,-0.03039,0.23713,1.03999
125.443,18.86187,-0.03039,0.23619,1.03979
126.043,18.91999,-0.03039,0.23528,1.03958
126.643,18.97822,-0.03038987,0.23666,1.03938
127.243,19.03633,-0.02967795,0.23651,1.03917
127.843,19.0947,-0.03037938,0.23734,1.03897
128.443,19.15307,-0.03167505,0.23796,1.03876
129.043,19.21152,-0.03169999,0.23708,1.03855
129.643,19.26979,-0.03170053,0.23683,1.03834
130.243,19.328,-0.03269113,0.2393,1.03814
130.843,19.3862,-0.0323476,0.23899,1.03793
131.443,19.44454,-0.03138072,0.23979,1.03772
132.043,19.50277,-0.03137,0.23866,1.03751
132.643,19.56072,-0.03137009,0.24012,1.03729
133.243,19.61862,-0.03170057,0.23939,1.03708
133.843,19.67654,-0.03050712,0.24042,1.03687
134.443,19.73443,-0.03170048,0.24049,1.03666
135.043,19.79252,-0.0317,0.2402,1.03644
135.643,19.8505,-0.03170007,0.2392,1.03623
136.243,19.90855,-0.0312561,0.24158,1.03601
136.843,19.96655,-0.03170004,0.24061,1.0358
137.443,20.02456,-0.0317,0.24309,1.03558
138.043,20.08246,-0.03169899,0.24192,1.03537
138.643,20.14047,-0.03269736,0.24245,1.03515
139.243,20.19865,-0.03269061,0.2445,1.03493
139.843,20.2566,-0.03404529,0.24258,1.03471
140.443,20.31456,-0.0332007,0.24509,1.03449
141.043,20.3725,-0.03269012,0.24408,1.03428
141.643,20.43045,-0.03269032,0.24461,1.03405
142.243,20.48835,-0.03221878,0.24441,1.03383
142.843,20.54642,-0.03302019,0.2471,1.03361
143.443,20.60426,-0.03302001,0.2464,1.03339
144.043,20.66188,-0.03303271,0.24677,1.03317
144.643,20.7196,-0.03364544,0.24745,1.03295
145.243,20.7774,-0.03400803,0.24889,1.03272
145.843,20.83509,-0.03361715,0.24819,1.0325
146.443,20.89303,-0.03367997,0.24872,1.03227
147.043,20.95056,-0.03368,0.25005,1.03205
147.643,21.0081,-0.0336799,0.24941,1.03182
148.243,21.0659,-0.03311352,0.2489,1.03159
148.843,21.12306,-0.03271467,0.25013,1.03137
149.443,21.18054,-0.03400189,0.25046,1.03114
150.043,21.23828,-0.03397408,0.25242,1.03091
150.643,21.29605,-0.03434662,0.25002,1.03068
151.243,21.35434,-0.0353212,0.25288,1.03045
151.843,21.41208,-0.0353202,0.24944,1.03022
152.443,21.46966,-0.034359,0.25181,1.02999
153.043,21.52719,-0.03519588,0.25184,1.02976
153.643,21.58475,-0.03532006,0.25218,1.02953
154.243,21.6423,-0.03551263,0.25259,1.0293
154.843,21.6999,-0.03499172,0.25296,1.02906
155.443,21.75769,-0.03499003,0.25391,1.02883
156.043,21.81543,-0.03499,0.25344,1.02859
156.643,21.87314,-0.03499,0.25141,1.02836
157.243,21.93074,-0.03499,0.25418,1.02812
157.843,21.9885,-0.03499,0.25266,1.02789
158.443,22.04607,-0.03499005,0.25464,1.02765
159.043,22.10374,-0.03510602,0.25461,1.02741
159.643,22.16114,-0.03531994,0.25519,1.02718
160.243,22.21865,-0.03409373,0.25611,1.02694
160.843,22.27616,-0.03530015,0.25575,1.0267
161.443,22.33389,-0.03531999,0.25673,1.02646
162.043,22.3914,-0.03532,0.25462,1.02622
162.643,22.44888,-0.03532004,0.25519,1.02598
163.243,22.5063,-0.03568045,0.25753,1.02574
163.843,22.56387,-0.03664027,0.25826,1.0255
164.443,22.62136,-0.03664,0.25701,1.02525
165.043,22.679,-0.03664,0.25877,1.02501
165.643,22.73675,-0.03664007,0.25789,1.02477
166.243,22.79423,-0.03684731,0.25864,1.02452
166.843,22.85191,-0.03795022,0.25846,1.02428
167.443,22.90931,-0.03795005,0.25815,1.02403
168.043,22.96675,-0.03736325,0.25863,1.02379
168.643,23.02429,-0.03665506,0.25905,1.02354
169.243,23.08174,-0.03762675,0.25898,1.0233
169.843,23.13909,-0.03763,0.26193,1.02305
170.443,23.19649,-0.03763,0.26041,1.0228
171.043,23.2539,-0.03762805,0.26125,1.02255
171.643,23.3113,-0.03796155,0.26181,1.0223
172.243,23.3689,-0.03796,0.26314,1.02205
172.843,23.42628,-0.03796189,0.26214,1.0218
173.443,23.48355,-0.03937562,0.26252,1.02155
174.043,23.54092,-0.03958999,0.26182,1.0213
174.643,23.5984,-0.03937709,0.26502,1.02105
175.243,23.65577,-0.03824422,0.2641,1.0208
175.843,23.71302,-0.03861018,0.26615,1.02054
176.443,23.77045,-0.03861107,0.26622,1.02029
177.043,23.8279,-0.03992424,0.26592,1.02003
177.643,23.8853,-0.03993,0.2675,1.01978
178.243,23.94285,-0.03993001,0.26831,1.01952
178.843,24.0003,-0.03993125,0.2667,1.01927
179.443,24.0575,-0.03891242,0.26613,1.01901
180.043,24.11479,-0.03861064,0.26858,1.01875
180.643,24.172,-0.03861,0.26806,1.0185
181.243,24.22919,-0.03861,0.26448,1.01824
181.843,24.28646,-0.03862925,0.26776,1.01798
182.443,24.34391,-0.04124865,0.26706,1.01772
183.043,24.40115,-0.04125,0.26764,1.01746
183.643,24.4585,-0.04125,0.26773,1.0172
184.243,24.51559,-0.04125,0.27046,1.01694
184.843,24.57261,-0.04125002,0.26812,1.01668
185.443,24.6299,-0.04124849,0.26784,1.01642
186.043,24.6872,-0.03992972,0.26904,1.01615
186.643,24.7444,-0.03993017,0.27089,1.01589
187.243,24.80175,-0.04012566,0.27161,1.01563
187.843,24.85901,-0.04255979,0.26883,1.01536
188.443,24.91637,-0.04255818,0.26802,1.0151
189.043,24.97346,-0.04123303,0.26754,1.01483
189.643,25.03059,-0.04124201,0.26783,1.01457
190.243,25.08788,-0.04388214,0.26975,1.0143
190.843,25.14534,-0.04388,0.2714,1.01403
191.443,25.2023,-0.04388,0.2716,1.01377
192.043,25.25948,-0.04388,0.2721,1.0135
192.643,25.31662,-0.04388,0.27351,1.01323
193.243,25.3742,-0.04388,0.27348,1.01296
193.843,25.43153,-0.04388,0.27345,1.01269
194.443,25.48878,-0.04387972,0.27133,1.01242
195.043,25.54603,-0.04517934,0.27469,1.01215
195.643,25.60301,-0.04538447,0.27229,1.01188
196.243,25.65996,-0.04651022,0.27435,1.01161
196.843,25.7171,-0.04651244,0.27459,1.01134
197.443,25.77427,-0.04617747,0.27384,1.01106
198.043,25.83141,-0.04618,0.2747,1.01079
198.643,25.88864,-0.04618112,0.27446,1.01052
199.243,25.9458,-0.04750578,0.27219,1.01024
199.843,26.00305,-0.04749983,0.27503,1.00997
200.443,26.0603,-0.04749,0.27625,1.00969
201.043,26.11724,-0.04763978,0.27804,1.00941
201.643,26.17438,-0.0488105,0.28019,1.00914
202.243,26.2315,-0.04881001,0.27723,1.00886
202.843,26.2888,-0.04880059,0.27747,1.00858
203.443,26.346,-0.04979907,0.27883,1.0083
204.043,26.40318,-0.0498,0.28034,1.00803
204.643,26.4604,-0.04980108,0.27976,1.00775
205.243,26.51748,-0.05078778,0.28021,1.00747
205.843,26.57467,-0.05078983,0.28022,1.00719
206.443,26.6319,-0.0511476,0.28061,1.00691
207.043,26.68903,-0.05111976,0.28078,1.00662
207.643,26.74605,-0.05238867,0.28,1.00634
208.243,26.8032,-0.05242836,0.28081,1.00606
208.843,26.86018,-0.05276026,0.28123,1.00578
209.443,26.91729,-0.05276141,0.28072,1.00549
210.043,26.97427,-0.05480029,0.28135,1.00521
210.643,27.0315,-0.05539348,0.28138,1.00492
211.243,27.0887,-0.05538969,0.28371,1.00464
211.843,27.14586,-0.05666528,0.2858,1.00435
212.443,27.20322,-0.05670999,0.28438,1.00407
213.043,27.2603,-0.05670987,0.2841,1.00378
213.643,27.3174,-0.05874346,0.28463,1.00349
214.243,27.37473,-0.05868001,0.28507,1.00321
214.843,27.43192,-0.05919365,0.28413,1.00292
215.443,27.48913,-0.0600003,0.2853,1.00263
216.043,27.5463,-0.06068134,0.28506,1.00234
216.643,27.6035,-0.06172618,0.28603,1.00205
217.243,27.6606,-0.06196023,0.28397,1.00176
217.843,27.71785,-0.06329022,0.28708,1.00147
218.443,27.77492,-0.06328952,0.28907,1.00118
219.043,27.832,-0.06439912,0.29028,1.00089
219.643,27.88907,-0.06593063,0.29017,1.00059
220.243,27.94633,-0.06593014,0.29,1.0003
220.843,28.00357,-0.06733613,0.29093,1.00001
221.443,28.0608,-0.06859846,0.29159,0.99971
222.043,28.118,-0.06855992,0.2914,0.99942
222.643,28.175,-0.06941861,0.29231,0.99912
223.243,28.23205,-0.06987713,0.29528,0.99883
223.843,28.2891,-0.07119119,0.2935,0.99853
224.443,28.3464,-0.07171917,0.29402,0.99824
225.043,28.4039,-0.07383077,0.29557,0.99794
225.643,28.4611,-0.07513197,0.29426,0.99764
226.243,28.5182,-0.07631924,0.29656,0.99734
226.843,28.5753,-0.07595754,0.29819,0.99704
227.443,28.63237,-0.07654687,0.29826,0.99675
228.043,28.68952,-0.07907557,0.30021,0.99645
228.643,28.7467,-0.07913292,0.30017,0.99615
229.243,28.80405,-0.08106166,0.3002,0.99585
229.843,28.8613,-0.0823939,0.30234,0.99554
230.443,28.9185,-0.08388058,0.30274,0.99524
231.043,28.97563,-0.08527865,0.30148,0.99494
231.643,29.0326,-0.0858763,0.30191,0.99464
232.243,29.0897,-0.08697128,0.30426,0.99433
232.843,29.1466,-0.08841978,0.30455,0.99403
233.443,29.20365,-0.09032047,0.30447,0.99373
234.043,29.2605,-0.0909302,0.30568,0.99342
234.643,29.3172,-0.09342535,0.30662,0.99312
235.243,29.37436,-0.09487591,0.30687,0.99281
235.843,29.4317,-0.09619532,0.3045,0.99251
236.443,29.48927,-0.09686652,0.30616,0.9922
237.043,29.5468,-0.09841447,0.30781,0.99189
237.643,29.60394,-0.09952425,0.30926,0.99158
238.243,29.6611,-0.10135,0.31044,0.99128
238.843,29.71827,-0.10369,0.30917,0.99097
239.443,29.77549,-0.10556,0.30665,0.99066
240.043,29.83282,-0.10849,0.31089,0.99035
240.643,29.89,-0.10958,0.31264,0.99004
241.243,29.94725,-0.11023,0.312,0.98973
241.843,30.0045,-0.1119,0.31206,0.98942
242.443,30.0617,-0.11446,0.31377,0.98911
243.043,30.1192,-0.1162,0.31344,0.98879
243.643,30.1766,-0.11952,0.31268,0.98848
244.243,30.23402,-0.12146,0.31576,0.98817
244.843,30.29128,-0.12363,0.31791,0.98786
245.443,30.34848,-0.12562,0.31802,0.98754
246.043,30.40575,-0.12721,0.3174,0.98723
246.643,30.4631,-0.12993,0.32043,0.98691
247.243,30.52047,-0.13275,0.31983,0.9866
247.843,30.5777,-0.13503,0.32354,0.98628
248.443,30.635,-0.13648,0.3226,0.98596
249.043,30.6922,-0.1384,0.32243,0.98565
249.643,30.7493,-0.14126,0.32523,0.98533
250.243,30.8066,-0.14208,0.32265,0.98501
250.843,30.86375,-0.14698,0.32716,0.98469
251.443,30.92098,-0.14889,0.32886,0.98438
252.043,30.97815,-0.15275,0.33129,0.98406
252.643,31.0354,-0.15578,0.32939,0.98374
253.243,31.0925,-0.15773,0.3298,0.98342
253.843,31.14957,-0.16059,0.32967,0.9831
254.443,31.2068,-0.16317,0.33214,0.98277
255.043,31.264,-0.16589,0.33287,0.98245
255.643,31.32125,-0.16914,0.33323,0.98213
256.243,31.3784,-0.1716,0.33117,0.98181
256.843,31.43566,-0.17477,0.33299,0.98148
257.443,31.4929,-0.17877,0.33076,0.98116
258.043,31.55007,-0.18122,0.33448,0.98084
258.643,31.60724,-0.18409,0.33492,0.98051
259.243,31.66425,-0.18688,0.33568,0.98019
259.843,31.7214,-0.19083,0.33555,0.97986
260.443,31.77848,-0.19647,0.33387,0.97954
261.043,31.8357,-0.19969,0.33489,0.97921
261.643,31.89319,-0.20301,0.33566,0.97888
262.243,31.95056,-0.2061,0.33433,0.97856
262.843,32.00788,-0.2108,0.33389,0.97823
263.443,32.06511,-0.21516,0.3331,0.9779
264.043,32.12245,-0.21845,0.33136,0.97757
264.643,32.1798,-0.22242,0.33304,0.97724
265.243,32.23704,-0.22686,0.33489,0.97691
265.843,32.29425,-0.23035,0.33379,0.97658
266.443,32.35152,-0.23565,0.33373,0.97625
267.043,32.40874,-0.23933,0.33299,0.97592
267.643,32.4662,-0.24323,0.33385,0.97559
268.243,32.5235,-0.24819,0.33289,0.97526
268.843,32.58067,-0.25301,0.33281,0.97492
269.443,32.6381,-0.25937,0.33342,0.97459
270.043,32.69534,-0.26497,0.33365,0.97426
270.643,32.7526,-0.26897,0.33384,0.97392
271.243,32.80995,-0.274,0.3327,0.97359
271.843,32.86727,-0.28001,0.33078,0.97325
272.443,32.92474,-0.28592,0.33252,0.97292
273.043,32.98217,-0.29094,0.33438,0.97258
273.643,33.0396,-0.29735,0.33204,0.97225
274.243,33.09697,-0.30276,0.33493,0.97191
274.843,33.15439,-0.30965,0.33504,0.97157
275.443,33.21164,-0.3152,0.3366,0.97124
276.043,33.26907,-0.32309,0.33858,0.9709
276.643,33.32627,-0.32963,0.34184,0.97056
277.243,33.38371,-0.33686,0.34498,0.97022
277.843,33.4412,-0.34351,0.34609,0.96988
278.443,33.49857,-0.35176,0.35329,0.96954
279.043,33.55611,-0.3591,0.35774,0.9692
279.643,33.61342,-0.36584,0.36177,0.96886
280.243,33.67093,-0.37406,0.36688,0.96852
280.843,33.72848,-0.3821,0.37335,0.96818
281.443,33.78597,-0.39071,0.38094,0.96784
282.043,33.84353,-0.39865,0.38662,0.96749
282.643,33.90106,-0.40671,0.39155,0.96715
283.243,33.95854,-0.41223,0.39818,0.96681
283.843,34.016,-0.42044,0.40551,0.96646
284.443,34.07346,-0.42967,0.41279,0.96612
285.043,34.13082,-0.43882,0.41746,0.96577
285.643,34.18824,-0.44693,0.42303,0.96543
286.243,34.24575,-0.45579,0.43011,0.96508
286.843,34.3033,-0.46344,0.43551,0.96474
287.443,34.36083,-0.47109,0.44317,0.96439
288.043,34.41836,-0.47934,0.44706,0.96404
288.643,34.47589,-0.48711,0.45002,0.9637
289.243,34.53334,-0.49536,0.45453,0.96335
289.843,34.59081,-0.50389,0.45542,0.963
290.443,34.64822,-0.51143,0.45574,0.96265
291.043,34.70564,-0.51801,0.45758,0.9623
291.643,34.7633,-0.52563,0.45788,0.96195
292.243,34.82091,-0.53274,0.45868,0.9616
292.843,34.87836,-0.53884,0.45743,0.96125
293.443,34.93582,-0.54668,0.45535,0.9609
294.043,34.99326,-0.55352,0.45218,0.96055
294.643,35.05073,-0.55949,0.44765,0.9602
295.243,35.10832,-0.56572,0.44456,0.95985
295.843,35.1657,-0.57349,0.43988,0.95949
296.443,35.2233,-0.57941,0.43441,0.95914
297.043,35.28068,-0.58282,0.42806,0.95879
297.643,35.33829,-0.58902,0.4246,0.95843
298.243,35.3959,-0.59466,0.417,0.95808
298.843,35.45339,-0.60096,0.41392,0.95772
299.443,35.5109,-0.60371,0.40754,0.95737
300.043,35.5685,-0.60834,0.40108,0.95701
300.643,35.6261,-0.61266,0.39466,0.95666
301.243,35.68356,-0.6174,0.38989,0.9563
301.843,35.74091,-0.62221,0.38307,0.95594
302.443,35.79837,-0.62777,0.37671,0.95559
303.043,35.85572,-0.6309,0.37163,0.95523
303.643,35.9131,-0.63425,0.36686,0.95487
304.243,35.9707,-0.6376,0.36339,0.95451
304.843,36.02803,-0.64117,0.35511,0.95415
305.443,36.0854,-0.64585,0.3537,0.95379
306.043,36.14267,-0.64901,0.34927,0.95343
306.643,36.20001,-0.65055,0.34165,0.95307
307.243,36.25756,-0.65353,0.34036,0.95271
307.843,36.3149,-0.65732,0.33412,0.95235
308.443,36.37238,-0.6602,0.33143,0.95199
309.043,36.4298,-0.66295,0.32604,0.95163
309.643,36.48723,-0.66609,0.32337,0.95126
310.243,36.54481,-0.66739,0.31833,0.9509
310.843,36.60228,-0.67023,0.31152,0.95054
311.443,36.6598,-0.67336,0.31247,0.95017
312.043,36.71723,-0.6761,0.30823,0.94981
312.643,36.77462,-0.67795,0.30612,0.94945
313.243,36.83226,-0.68043,0.30312,0.94908
313.843,36.88977,-0.68215,0.30074,0.94872
314.443,36.94749,-0.6848,0.29795,0.94835
315.043,37.00497,-0.68634,0.29472,0.94798
315.643,37.06248,-0.69056,0.29412,0.94762
316.243,37.11997,-0.6919,0.28919,0.94725
316.843,37.1774,-0.69512,0.28448,0.94688
317.443,37.235,-0.69645,0.28104,0.94652
318.043,37.29252,-0.69782,0.27941,0.94615
318.643,37.35003,-0.69882,0.27523,0.94578
319.243,37.40775,-0.70037,0.27159,0.94541
319.843,37.46545,-0.70197,0.27278,0.94504
320.443,37.52319,-0.70465,0.26781,0.94467
321.043,37.58088,-0.70741,0.26758,0.9443
321.643,37.63856,-0.7087,0.26742,0.94393
322.243,37.69628,-0.70967,0.26357,0.94356
322.843,37.75392,-0.71002,0.26044,0.94319
323.443,37.81152,-0.71133,0.25919,0.94281
324.043,37.86915,-0.71395,0.25757,0.94244
324.643,37.92673,-0.71439,0.25676,0.94207
325.243,37.98441,-0.71561,0.25474,0.9417
325.843,38.04205,-0.71819,0.25263,0.94132
326.443,38.09972,-0.71954,0.25128,0.94095
327.043,38.15726,-0.72081,0.2488,0.94057
327.643,38.21488,-0.72223,0.24789,0.9402
328.243,38.27275,-0.72466,0.24634,0.93982
328.843,38.33057,-0.72483,0.24448,0.93945
329.443,38.38838,-0.72608,0.24163,0.93907
330.043,38.44607,-0.72747,0.24213,0.9387
330.643,38.50373,-0.72877,0.23782,0.93832
331.243,38.5614,-0.73007,0.23866,0.93794
331.843,38.61913,-0.73133,0.23784,0.93757
332.443,38.6768,-0.73205,0.23596,0.93719
333.043,38.73462,-0.7327,0.23469,0.93681
333.643,38.79235,-0.73401,0.23325,0.93643
334.243,38.85009,-0.73534,0.23018,0.93605
334.843,38.9078,-0.73581,0.23006,0.93567
335.443,38.9655,-0.73668,0.23028,0.93529
336.043,39.02325,-0.73797,0.22642,0.93491
336.643,39.08127,-0.73927,0.22734,0.93453
337.243,39.13929,-0.73929,0.22715,0.93415
337.843,39.19704,-0.7406,0.2248,0.93377
338.443,39.25468,-0.74201,0.22525,0.93339
339.043,39.31243,-0.74239,0.22275,0.93301
339.643,39.37017,-0.74356,0.22123,0.93262
340.243,39.42795,-0.74356,0.22114,0.93224
340.843,39.48577,-0.74486,0.21892,0.93186
341.443,39.54364,-0.74618,0.21971,0.93147
342.043,39.6016,-0.74485,0.21681,0.93109
342.643,39.65955,-0.74619,0.22069,0.9307
343.243,39.71735,-0.74689,0.21746,0.93032
343.843,39.77512,-0.74685,0.21515,0.92993
344.443,39.8329,-0.74815,0.21713,0.92955
345.043,39.89067,-0.74817,0.21611,0.92916
345.643,39.94858,-0.74948,0.2128,0.92878
346.243,40.00651,-0.74948,0.213,0.92839
346.843,40.0644,-0.74948,0.21398,0.928
347.443,40.12254,-0.75081,0.21253,0.92762
348.043,40.18045,-0.75082,0.21041,0.92723
348.643,40.23842,-0.75278,0.212,0.92684
349.243,40.29652,-0.75281,0.21233,0.92645
349.843,40.35453,-0.75409,0.21164,0.92606
350.443,40.41231,-0.75409,0.21275,0.92567
351.043,40.47027,-0.75409,0.20808,0.92528
351.643,40.52811,-0.75409,0.21253,0.92489
352.243,40.58617,-0.75537,0.21387,0.9245
352.843,40.64451,-0.75541,0.21209,0.92411
353.443,40.70261,-0.75541,0.2121,0.92372
354.043,40.76086,-0.75541,0.20991,0.92333
354.643,40.81905,-0.75673,0.2112,0.92294
355.243,40.87706,-0.75673,0.20916,0.92254
355.843,40.93508,-0.75809,0.21243,0.92215
356.443,40.9931,-0.75804,0.20946,0.92176
357.043,41.05129,-0.75936,0.21054,0.92136
357.643,41.10937,-0.75936,0.20999,0.92097
358.243,41.16745,-0.75936,0.20785,0.92058
358.843,41.2256,-0.75936,0.20668,0.92018
359.443,41.2837,-0.75936,0.20627,0.91979
360.043,41.34178,-0.75935,0.20575,0.91939
360.643,41.39996,-0.76067,0.2054,0.919
361.243,41.45813,-0.76066,0.20403,0.9186
361.843,41.5163,-0.76199,0.20576,0.9182
362.443,41.57462,-0.76199,0.20168,0.91781
363.043,41.6327,-0.76199,0.20241,0.91741
363.643,41.69075,-0.76304,0.20296,0.91701
364.243,41.74876,-0.76377,0.20369,0.91661
364.843,41.80683,-0.76331,0.20437,0.91622
365.443,41.86501,-0.76331,0.20275,0.91582
366.043,41.92323,-0.76424,0.2043,0.91542
366.643,41.98134,-0.76561,0.20389,0.91502
367.243,42.03928,-0.76429,0.20221,0.91462
367.843,42.0974,-0.76429,0.2035,0.91422
368.443,42.15555,-0.76465,0.20548,0.91382
369.043,42.21363,-0.76465,0.20729,0.91342
369.643,42.27186,-0.76726,0.20494,0.91302
370.243,42.3302,-0.76726,0.20368,0.91262
370.843,42.38834,-0.76809,0.20568,0.91222
371.443,42.4467,-0.76856,0.2037,0.91181
372.043,42.50485,-0.76792,0.2026,0.91141
372.643,42.56313,-0.76792,0.20396,0.91101
373.243,42.6216,-0.76726,0.20422,0.9106
373.843,42.67972,-0.76857,0.2051,0.9102
374.443,42.73787,-0.76857,0.20488,0.9098
375.043,42.796,-0.76857,0.20498,0.90939
375.643,42.8544,-0.76981,0.20553,0.90899
376.243,42.91284,-0.76989,0.20532,0.90858
376.843,42.97118,-0.76989,0.20443,0.90818
377.443,43.0294,-0.76989,0.20435,0.90777
378.043,43.08757,-0.76989,0.20479,0.90737
378.643,43.1454,-0.76988,0.20305,0.90696
379.243,43.2034,-0.7712,0.20757,0.90655
379.843,43.26142,-0.7712,0.20559,0.90615
380.443,43.31967,-0.77252,0.20584,0.90574
381.043,43.3779,-0.77252,0.20821,0.90533
381.643,43.43626,-0.77252,0.20802,0.90492
382.243,43.49454,-0.77252,0.20768,0.90452
382.843,43.5527,-0.77383,0.20774,0.90411
383.443,43.61081,-0.77255,0.20813,0.9037
384.043,43.66879,-0.77384,0.20881,0.90329
384.643,43.7267,-0.77375,0.20759,0.90288
385.243,43.78484,-0.77515,0.209,0.90247
385.843,43.84292,-0.77515,0.20983,0.90206
386.443,43.9011,-0.77515,0.20806,0.90165
387.043,43.95946,-0.77648,0.21084,0.90124
387.643,44.01777,-0.77746,0.20968,0.90083
388.243,44.0762,-0.77747,0.21084,0.90041
388.843,44.13458,-0.77878,0.20842,0.9
389.443,44.19297,-0.77878,0.21034,0.89959
390.043,44.25115,-0.77844,0.20673,0.89918
390.643,44.30934,-0.77942,0.21027,0.89877
391.243,44.36757,-0.77943,0.20838,0.89835
391.843,44.42561,-0.77944,0.20763,0.89794
392.443,44.48404,-0.77976,0.20817,0.89752
393.043,44.54248,-0.78107,0.20715,0.89711
393.643,44.60087,-0.78108,0.20782,0.8967
394.243,44.65948,-0.78108,0.21031,0.89628
394.843,44.71783,-0.78246,0.20675,0.89586
395.443,44.77598,-0.78107,0.2076,0.89545
396.043,44.8343,-0.78226,0.21051,0.89503
396.643,44.89268,-0.78371,0.20898,0.89462
397.243,44.9512,-0.78371,0.20997,0.8942
397.843,45.0097,-0.78371,0.20972,0.89378
398.443,45.06796,-0.78503,0.20899,0.89337
399.043,45.12628,-0.78503,0.20591,0.89295
399.643,45.1848,-0.78643,0.2069,0.89253
400.243,45.24334,-0.78634,0.20614,0.89211
400.843,45.30202,-0.78635,0.20392,0.89169
401.443,45.36061,-0.78733,0.20635,0.89128
402.043,45.41923,-0.78766,0.20402,0.89086
402.643,45.47773,-0.78846,0.20412,0.89044
403.243,45.53626,-0.78789,0.20422,0.89002
403.843,45.59476,-0.78929,0.20136,0.8896
404.443,45.6534,-0.7909,0.20336,0.88918
405.043,45.71185,-0.79184,0.20264,0.88876
405.643,45.7704,-0.79128,0.2027,0.88833
406.243,45.82904,-0.79154,0.20097,0.88791
406.843,45.88769,-0.79259,0.19995,0.88749
407.443,45.94643,-0.79258,0.20068,0.88707
408.043,46.00505,-0.79391,0.20253,0.88665
408.643,46.06364,-0.79391,0.20098,0.88622
409.243,46.1223,-0.79531,0.20127,0.8858
409.843,46.181,-0.79522,0.19923,0.88538
410.443,46.2398,-0.79654,0.19727,0.88495
411.043,46.29858,-0.79587,0.19853,0.88453
411.643,46.3574,-0.79725,0.1997,0.88411
412.243,46.416,-0.79721,0.19901,0.88368
412.843,46.47463,-0.79851,0.19727,0.88326
413.443,46.5332,-0.79982,0.19876,0.88283
414.043,46.59183,-0.79983,0.19937,0.88241
414.643,46.65067,-0.80118,0.19668,0.88198
415.243,46.70944,-0.80115,0.19516,0.88156
415.843,46.7682,-0.80248,0.19424,0.88113
416.443,46.82697,-0.80378,0.19555,0.8807
417.043,46.88557,-0.80505,0.19413,0.88028
417.643,46.94422,-0.80632,0.19427,0.87985
418.243,47.00287,-0.80641,0.1934,0.87942
418.843,47.0617,-0.80638,0.19522,0.87899
419.443,47.1205,-0.80773,0.19455,0.87856
420.043,47.17918,-0.80905,0.19388,0.87814
420.643,47.2378,-0.80906,0.19319,0.87771
421.243,47.29639,-0.81035,0.19283,0.87728
421.843,47.35519,-0.81168,0.19361,0.87685
422.443,47.4139,-0.81304,0.19218,0.87642
423.043,47.47272,-0.81416,0.19292,0.87599
423.643,47.53141,-0.81569,0.19485,0.87556
424.243,47.59005,-0.81563,0.19405,0.87513
424.843,47.64867,-0.81649,0.19528,0.8747
425.443,47.7073,-0.81738,0.1927,0.87427
426.043,47.76598,-0.81816,0.19497,0.87384
426.643,47.8248,-0.81958,0.19605,0.8734
427.243,47.88354,-0.82082,0.19426,0.87297
427.843,47.94223,-0.82275,0.19347,0.87254
428.443,48.00091,-0.82393,0.19741,0.87211
429.043,48.05966,-0.82484,0.19608,0.87167
429.643,48.1184,-0.82616,0.19667,0.87124
430.243,48.17718,-0.82747,0.19734,0.87081
430.843,48.2359,-0.82879,0.19792,0.87037
431.443,48.29453,-0.8301,0.19853,0.86994
432.043,48.3532,-0.83141,0.20063,0.86951
432.643,48.41191,-0.83274,0.20302,0.86907
433.243,48.47071,-0.83379,0.20257,0.86864
433.843,48.52959,-0.83549,0.20263,0.8682
434.443,48.5882,-0.83703,0.20538,0.86777
435.043,48.6468,-0.83905,0.20291,0.86733
435.643,48.70537,-0.84178,0.20344,0.86689
436.243,48.76404,-0.84184,0.2072,0.86646
436.843,48.82286,-0.84208,0.20642,0.86602
437.443,48.88159,-0.84389,0.20708,0.86558
438.043,48.94023,-0.84722,0.20766,0.86515
438.643,48.99886,-0.84856,0.20719,0.86471
439.243,49.0576,-0.85002,0.20647,0.86427
439.843,49.11655,-0.85239,0.20944,0.86383
440.443,49.17541,-0.85378,0.20953,0.8634
441.043,49.2344,-0.85693,0.21095,0.86296
441.643,49.29325,-0.85994,0.21074,0.86252
442.243,49.35195,-0.86113,0.21258,0.86208
442.843,49.4108,-0.86374,0.21713,0.86164
443.443,49.46949,-0.86543,0.21482,0.8612
444.043,49.52825,-0.86697,0.2199,0.86076
444.643,49.587,-0.8688,0.2199,0.86032
445.243,49.64571,-0.87052,0.21924,0.85988
445.843,49.70454,-0.87346,0.22222,0.85944
446.443,49.76331,-0.87651,0.22762,0.859
447.043,49.82206,-0.87791,0.22495,0.85856
447.643,49.88098,-0.8807,0.22622,0.85812
448.243,49.94001,-0.88386,0.22934,0.85767
448.843,49.9989,-0.88541,0.23267,0.85723
449.443,50.058,-0.88933,0.23073,0.85679
450.043,50.11687,-0.89073,0.23468,0.85635
450.643,50.1757,-0.89379,0.23561,0.8559
451.243,50.23455,-0.89694,0.23841,0.85546
451.843,50.29356,-0.8973,0.24064,0.85502
452.443,50.3525,-0.9003,0.24097,0.85457
453.043,50.41163,-0.90302,0.24588,0.85413
453.643,50.47071,-0.90594,0.24436,0.85369
454.243,50.5297,-0.90938,0.24772,0.85324
454.843,50.58873,-0.91159,0.24813,0.8528
455.443,50.64778,-0.91391,0.25044,0.85235
456.043,50.7066,-0.91719,0.2541,0.85191
456.643,50.76552,-0.9203,0.25452,0.85146
457.243,50.8245,-0.92293,0.25861,0.85101
457.843,50.88353,-0.9244,0.25671,0.85057
458.443,50.9426,-0.92772,0.2604,0.85012
459.043,51.00186,-0.93056,0.26414,0.84968
459.643,51.06105,-0.93326,0.26706,0.84923
460.243,51.12034,-0.9351,0.26501,0.84878
460.843,51.17953,-0.93711,0.26734,0.84833
461.443,51.23867,-0.94043,0.27069,0.84789
462.043,51.29782,-0.94373,0.26844,0.84744
462.643,51.35673,-0.94699,0.27265,0.84699
463.243,51.4161,-0.94822,0.27302,0.84654
463.843,51.47521,-0.95061,0.27572,0.84609
464.443,51.53438,-0.95399,0.277,0.84564
465.043,51.59345,-0.95659,0.27635,0.8452
465.643,51.65247,-0.95964,0.28009,0.84475
466.243,51.71158,-0.96186,0.28303,0.8443
466.843,51.7705,-0.96382,0.28248,0.84385
467.443,51.8295,-0.96689,0.28456,0.8434
468.043,51.8887,-0.9682,0.28916,0.84295
468.643,51.94765,-0.97106,0.28878,0.8425
469.243,52.0067,-0.97606,0.28555,0.84204
469.843,52.06575,-0.97694,0.2857,0.84159
470.443,52.12461,-0.97821,0.28972,0.84114
471.043,52.18374,-0.9797,0.29043,0.84069
471.643,52.24288,-0.98117,0.29003,0.84024
472.243,52.3022,-0.98344,0.29045,0.83979
472.843,52.3613,-0.98667,0.2925,0.83933
473.443,52.42045,-0.98961,0.2913,0.83888
474.043,52.4795,-0.99092,0.29205,0.83843
474.643,52.5386,-0.99308,0.29454,0.83798
475.243,52.59771,-0.99502,0.29322,0.83752
475.843,52.65687,-0.99678,0.29716,0.83707
476.443,52.71621,-0.99951,0.29781,0.83662
477.043,52.77554,-1.00073,0.29609,0.83616
477.643,52.835,-1.0035,0.29632,0.83571
478.243,52.89421,-1.00396,0.29775,0.83525
478.843,52.95338,-1.00502,0.29802,0.8348
479.443,53.01262,-1.00768,0.30002,0.83434
480.043,53.07185,-1.00951,0.29878,0.83389
480.643,53.1312,-1.01032,0.29886,0.83343
481.243,53.1906,-1.01164,0.29883,0.83298
481.843,53.2499,-1.01295,0.30086,0.83252
482.443,53.3091,-1.01578,0.3007,0.83206
483.043,53.36834,-1.01843,0.30593,0.83161
483.643,53.42751,-1.01889,0.3064,0.83115
484.243,53.4867,-1.01947,0.30485,0.83069
484.843,53.54605,-1.02127,0.30756,0.83024
485.443,53.6053,-1.02301,0.30698,0.82978
486.043,53.66482,-1.02403,0.30816,0.82932
486.643,53.7241,-1.02536,0.30554,0.82886
487.243,53.7833,-1.02679,0.30798,0.82841
487.843,53.84248,-1.02809,0.3069,0.82795
488.443,53.9017,-1.02941,0.3091,0.82749
489.043,53.9611,-1.03071,0.3063,0.82703
489.643,54.0204,-1.03072,0.30697,0.82657
490.243,54.07975,-1.03204,0.30938,0.82611
490.843,54.1388,-1.03348,0.30788,0.82565
491.443,54.1978,-1.03612,0.31028,0.82519
492.043,54.257,-1.037,0.31052,0.82473
492.643,54.3161,-1.03609,0.31171,0.82427
493.243,54.37551,-1.03664,0.31218,0.82381
493.843,54.43495,-1.03864,0.31107,0.82335
494.443,54.49435,-1.04004,0.31109,0.82289
495.043,54.5537,-1.04136,0.31372,0.82243
495.643,54.6129,-1.04268,0.31141,0.82197
496.243,54.67227,-1.04254,0.31005,0.82151
496.843,54.7317,-1.04301,0.31245,0.82105
497.443,54.79115,-1.04432,0.31202,0.82058
498.043,54.85063,-1.04432,0.31148,0.82012
498.643,54.91001,-1.04432,0.3095,0.81966
499.243,54.96945,-1.04564,0.3114,0.8192
499.843,55.0287,-1.04695,0.31038,0.81874
500.443,55.0881,-1.04741,0.31108,0.81827
501.043,55.1473,-1.04794,0.31484,0.81781
501.643,55.2067,-1.04748,0.31259,0.81735
502.243,55.26605,-1.0486,0.31458,0.81688
502.843,55.3253,-1.04866,0.31198,0.81642
503.443,55.3847,-1.05004,0.31082,0.81595
504.043,55.44387,-1.05274,0.31411,0.81549
504.643,55.503,-1.05356,0.31238,0.81503
505.243,55.56221,-1.05401,0.31579,0.81456
505.843,55.6217,-1.05345,0.31829,0.8141
506.443,55.6811,-1.05529,0.31638,0.81363
507.043,55.74041,-1.0566,0.31665,0.81317
507.643,55.7996,-1.05562,0.31954,0.8127
508.243,55.85878,-1.05695,0.31863,0.81223
508.843,55.9181,-1.05811,0.32001,0.81177
509.443,55.97745,-1.05825,0.31952,0.8113
510.043,56.03669,-1.05957,0.32203,0.81084
510.643,56.09596,-1.06112,0.32225,0.81037
511.243,56.1553,-1.06086,0.32221,0.8099
511.843,56.2147,-1.06012,0.32443,0.80944
512.443,56.27389,-1.06145,0.32521,0.80897
513.043,56.33322,-1.06146,0.32533,0.8085
513.643,56.39266,-1.06275,0.32958,0.80803
514.243,56.45221,-1.06274,0.32936,0.80757
514.843,56.51189,-1.06276,0.33022,0.8071
515.443,56.5713,-1.06277,0.33289,0.80663
516.043,56.6308,-1.06416,0.33515,0.80616
516.643,56.6903,-1.06728,0.33918,0.80569
517.243,56.7497,-1.06671,0.34138,0.80522
517.843,56.80927,-1.06668,0.34442,0.80476
518.443,56.86858,-1.06792,0.34881,0.80429
519.043,56.92805,-1.06802,0.35143,0.80382
519.643,56.9875,-1.06913,0.35857,0.80335
520.243,57.0468,-1.06936,0.36044,0.80288
520.843,57.1061,-1.07065,0.3694,0.80241
521.443,57.1655,-1.07065,0.37339,0.80194
522.043,57.2249,-1.07201,0.37843,0.80147
522.643,57.28445,-1.07331,0.38212,0.801
523.243,57.344,-1.074,0.3828,0.80053
523.843,57.40362,-1.07529,0.38927,0.80005
524.443,57.4631,-1.07529,0.39043,0.79958
525.043,57.52253,-1.07657,0.39336,0.79911
525.643,57.58194,-1.07789,0.39702,0.79864
526.243,57.6415,-1.0769,0.3987,0.79817
526.843,57.7012,-1.07822,0.40182,0.7977
527.443,57.76087,-1.07956,0.3994,0.79723
528.043,57.8205,-1.08217,0.40345,0.79675
528.643,57.87996,-1.08217,0.40489,0.79628
529.243,57.9396,-1.08313,0.40679,0.79581
529.843,57.99904,-1.08216,0.41101,0.79533
530.443,58.05874,-1.0835,0.41451,0.79486
531.043,58.11864,-1.08612,0.41711,0.79439
531.643,58.17845,-1.08743,0.42003,0.79392
532.243,58.2382,-1.08736,0.42152,0.79344
532.843,58.29756,-1.08801,0.42534,0.79297
533.443,58.3569,-1.08875,0.4266,0.79249
534.043,58.41672,-1.08979,0.42849,0.79202
534.643,58.4764,-1.09042,0.42936,0.79155
535.243,58.53606,-1.09138,0.43107,0.79107
535.843,58.5957,-1.09248,0.43388,0.7906
536.443,58.65525,-1.09318,0.43585,0.79012
537.043,58.71506,-1.09428,0.43529,0.78965
537.643,58.77488,-1.09528,0.43426,0.78917
538.243,58.8345,-1.09664,0.43665,0.7887
538.843,58.8942,-1.09801,0.44285,0.78822
539.443,58.9538,-1.09918,0.44142,0.78774
540.043,59.01333,-1.09994,0.44256,0.78727
540.643,59.0731,-1.10178,0.44292,0.78679
541.243,59.1328,-1.1006,0.44325,0.78632
541.843,59.19256,-1.10191,0.44273,0.78584
542.443,59.25232,-1.10374,0.44436,0.78536
543.043,59.31199,-1.10417,0.44152,0.78489
543.643,59.3718,-1.10633,0.44201,0.78441
544.243,59.4315,-1.10684,0.43895,0.78393
544.843,59.49145,-1.10816,0.43893,0.78346
545.443,59.5513,-1.10946,0.43769,0.78298
546.043,59.61096,-1.11078,0.43668,0.7825
546.643,59.6708,-1.1121,0.43179,0.78202
547.243,59.7303,-1.11211,0.42953,0.78154
547.843,59.78999,-1.11408,0.42998,0.78107
548.443,59.8498,-1.11474,0.43218,0.78059
549.043,59.90947,-1.11606,0.42746,0.78011
549.643,59.96911,-1.11638,0.42937,0.77963
550.243,60.0286,-1.1177,0.42583,0.77915
550.843,60.0883,-1.11902,0.4286,0.77867
551.443,60.14795,-1.12031,0.42731,0.77819
552.043,60.2078,-1.12165,0.42715,0.77771
552.643,60.26761,-1.12135,0.42449,0.77723
553.243,60.32745,-1.12255,0.42386,0.77675
553.843,60.38743,-1.12387,0.42818,0.77628
554.443,60.4473,-1.12528,0.42616,0.7758
555.043,60.50722,-1.12527,0.42507,0.77531
555.643,60.56703,-1.12797,0.4266,0.77483
556.243,60.6269,-1.12923,0.42821,0.77435
556.843,60.68674,-1.1306,0.42579,0.77387
557.443,60.74683,-1.13185,0.42816,0.77339
558.043,60.80684,-1.1332,0.42336,0.77291
558.643,60.86702,-1.13449,0.4261,0.77243
559.243,60.92697,-1.13384,0.42807,0.77195
559.843,60.9868,-1.13518,0.42698,0.77147
560.443,61.0467,-1.13646,0.42752,0.77099
561.043,61.1065,-1.13779,0.43086,0.7705
561.643,61.1664,-1.13909,0.42927,0.77002
562.243,61.2262,-1.14062,0.43158,0.76954
562.843,61.28615,-1.14195,0.43165,0.76906
563.443,61.34621,-1.1433,0.4341,0.76858
564.043,61.4062,-1.14454,0.43606,0.76809
564.643,61.4664,-1.1446,0.4363,0.76761
565.243,61.5263,-1.1457,0.44095,0.76713
565.843,61.5861,-1.14806,0.44489,0.76665
566.443,61.64591,-1.14925,0.44628,0.76616
567.043,61.7057,-1.15066,0.45101,0.76568
567.643,61.76536,-1.15194,0.4539,0.7652
568.243,61.8248,-1.15321,0.45649,0.76471
568.843,61.88439,-1.15456,0.46182,0.76423
569.443,61.9439,-1.15586,0.4664,0.76374
570.043,62.004,-1.15719,0.47253,0.76326
570.643,62.06391,-1.15737,0.47555,0.76278
571.243,62.12398,-1.15906,0.48099,0.76229
571.843,62.18447,-1.16047,0.48966,0.76181
572.443,62.245,-1.16181,0.49554,0.76132
573.043,62.30545,-1.16319,0.49887,0.76084
573.643,62.3658,-1.16391,0.50663,0.76035
574.243,62.42589,-1.1667,0.51114,0.75987
574.843,62.48611,-1.16792,0.51644,0.75938
575.443,62.54639,-1.16932,0.52044,0.7589
576.043,62.6065,-1.17053,0.52815,0.75841
576.643,62.66656,-1.17339,0.53645,0.75793
577.243,62.72673,-1.17475,0.54453,0.75744
577.843,62.78685,-1.17596,0.55354,0.75695
578.443,62.84698,-1.17866,0.56282,0.75647
579.043,62.9071,-1.18005,0.57339,0.75598
579.643,62.96722,-1.18134,0.58039,0.7555
580.243,63.02734,-1.18254,0.58955,0.75501
580.843,63.0874,-1.18399,0.59809,0.75452
581.443,63.14748,-1.18659,0.60513,0.75404
582.043,63.2076,-1.18825,0.60782,0.75355
582.643,63.26772,-1.18972,0.6137,0.75306
583.243,63.3277,-1.19237,0.6181,0.75258
583.843,63.38759,-1.19547,0.62328,0.75209
584.443,63.44758,-1.19706,0.62104,0.7516
585.043,63.50767,-1.19982,0.61868,0.75111
585.643,63.56754,-1.19985,0.61293,0.75063
586.243,63.62786,-1.20241,0.60592,0.75014
586.843,63.6879,-1.20395,0.59335,0.74965
587.443,63.74785,-1.20754,0.57748,0.74916
588.043,63.80794,-1.20949,0.5591,0.74867
588.643,63.86792,-1.21123,0.52871,0.74819
589.243,63.92787,-1.21257,0.49264,0.7477
589.843,63.9878,-1.2139,0.46661,0.74721
590.443,64.04767,-1.21521,0.44401,0.74672
591.043,64.10771,-1.21653,0.4174,0.74623
591.643,64.1677,-1.21783,0.39761,0.74574
592.243,64.22766,-1.21785,0.37821,0.74525
592.843,64.28772,-1.21916,0.36318,0.74476
593.443,64.3477,-1.22047,0.35445,0.74427
594.043,64.40783,-1.22048,0.34619,0.74378
594.643,64.46799,-1.22128,0.33823,0.7433
595.243,64.52803,-1.2218,0.33197,0.74281
595.843,64.58795,-1.2218,0.33008,0.74232
596.443,64.6478,-1.2218,0.32595,0.74183
597.043,64.70781,-1.22208,0.3228,0.74134
597.643,64.76796,-1.22212,0.32003,0.74085
598.243,64.82835,-1.22208,0.31854,0.74036
598.843,64.88851,-1.22344,0.31878,0.73986
599.443,64.94848,-1.22474,0.3141,0.73937
600.043,65.0085,-1.22475,0.31636,0.73888
600.643,65.0686,-1.22575,0.31877,0.73839
601.243,65.1288,-1.22418,0.3203,0.7379
601.843,65.18893,-1.2241,0.32064,0.73741
602.443,65.2491,-1.22443,0.3201,0.73692
603.043,65.3092,-1.22705,0.32411,0.73643
603.643,65.3695,-1.22735,0.33089,0.73594
604.243,65.42976,-1.22837,0.33209,0.73545
604.843,65.48988,-1.22706,0.33771,0.73495
605.443,65.55014,-1.22706,0.34366,0.73446
606.043,65.61023,-1.22707,0.35185,0.73397
606.643,65.6705,-1.22838,0.35829,0.73348
607.243,65.7306,-1.2297,0.36349,0.73299
607.843,65.79083,-1.2297,0.36933,0.73249
608.443,65.85118,-1.22968,0.37806,0.732
609.043,65.9114,-1.23101,0.38212,0.73151
609.643,65.97163,-1.23101,0.38759,0.73102
610.243,66.03184,-1.23232,0.39364,0.73052
610.843,66.09221,-1.23102,0.39739,0.73003
611.443,66.15247,-1.23232,0.40493,0.72954
612.043,66.21276,-1.23232,0.40922,0.72905
612.643,66.27314,-1.2336,0.41592,0.72855
613.243,66.33346,-1.23497,0.41971,0.72806
613.843,66.39367,-1.23599,0.42659,0.72757
614.443,66.45399,-1.23659,0.43295,0.72707
615.043,66.5143,-1.23764,0.4334,0.72658
615.643,66.57471,-1.2383,0.44191,0.72609
616.243,66.6353,-1.23858,0.44323,0.72559
616.843,66.69561,-1.23997,0.45326,0.7251
617.443,66.75607,-1.23984,0.45555,0.7246
618.043,66.81647,-1.24111,0.45554,0.72411
618.643,66.87676,-1.2425,0.46692,0.72362
619.243,66.93696,-1.24227,0.4684,0.72312
619.843,66.99715,-1.24309,0.47416,0.72263
620.443,67.0573,-1.2445,0.47598,0.72213
621.043,67.11737,-1.24582,0.4846,0.72164
621.643,67.17765,-1.24713,0.49057,0.72114
622.243,67.23783,-1.24849,0.49367,0.72065
622.843,67.29809,-1.24763,0.50161,0.72016
623.443,67.35823,-1.24848,0.50569,0.71966
624.043,67.41835,-1.25129,0.51195,0.71917
624.643,67.4784,-1.25241,0.52041,0.71867
625.243,67.5386,-1.25371,0.52277,0.71818
625.843,67.59878,-1.25375,0.52908,0.71768
626.443,67.65894,-1.25428,0.53661,0.71718
627.043,67.719,-1.25593,0.53952,0.71669
627.643,67.77924,-1.25764,0.54867,0.71619
628.243,67.83945,-1.25898,0.55531,0.7157
628.843,67.89971,-1.2603,0.56063,0.7152
629.443,67.95995,-1.26161,0.56713,0.71471
630.043,68.02016,-1.26293,0.57786,0.71421
630.643,68.08041,-1.26425,0.58139,0.71371
631.243,68.14067,-1.26627,0.58872,0.71322
631.843,68.2009,-1.26983,0.59598,0.71272
632.443,68.26102,-1.27106,0.59931,0.71223
633.043,68.32123,-1.26994,0.60904,0.71173
633.643,68.3814,-1.27103,0.61543,0.71123
634.243,68.44167,-1.27242,0.6233,0.71074
634.843,68.50206,-1.27507,0.62424,0.71024
635.443,68.56237,-1.27652,0.63692,0.70974
636.043,68.62272,-1.27786,0.64149,0.70925
636.643,68.68303,-1.2798,0.64954,0.70875
637.243,68.74302,-1.28191,0.65289,0.70825
637.843,68.80293,-1.28346,0.66071,0.70776
638.443,68.86283,-1.28547,0.66749,0.70726
639.043,68.92266,-1.28628,0.67662,0.70676
639.643,68.9829,-1.28856,0.6848,0.70626
640.243,69.04326,-1.29002,0.69392,0.70577
640.843,69.10359,-1.29243,0.70203,0.70527
641.443,69.16404,-1.29592,0.71127,0.70477
642.043,69.22465,-1.29851,0.72319,0.70427
642.643,69.2854,-1.30019,0.73221,0.70378
643.243,69.34611,-1.30151,0.74013,0.70328
643.843,69.4067,-1.30423,0.75187,0.70278
644.443,69.46709,-1.30765,0.76091,0.70228
645.043,69.52736,-1.31011,0.77333,0.70179
645.643,69.5877,-1.30948,0.78281,0.70129
646.243,69.648,-1.31033,0.79404,0.70079
646.843,69.70834,-1.31356,0.80544,0.70029
647.443,69.76852,-1.31595,0.81347,0.69979
648.043,69.82875,-1.31891,0.82687,0.69929
648.643,69.889,-1.32236,0.84012,0.6988
649.243,69.94918,-1.3238,0.85018,0.6983
649.843,70.0093,-1.32661,0.86086,0.6978
650.443,70.06963,-1.32827,0.87346,0.6973
651.043,70.13,-1.33027,0.8849,0.6968
651.643,70.1904,-1.33393,0.89695,0.6963
652.243,70.25085,-1.33628,0.91112,0.6958
652.843,70.311,-1.33863,0.92105,0.6953
653.443,70.3712,-1.34177,0.93474,0.69481
654.043,70.43151,-1.34469,0.94745,0.69431
654.643,70.4917,-1.34647,0.96067,0.69381
655.243,70.55213,-1.3495,0.9727,0.69331
655.843,70.6125,-1.35387,0.98483,0.69281
656.443,70.67311,-1.35568,0.99517,0.69231
657.043,70.7338,-1.35867,1.0086,0.69181
657.643,70.79435,-1.36045,1.01708,0.69131
658.243,70.85484,-1.36298,1.02805,0.69081
658.843,70.91513,-1.36561,1.0448,0.69031
659.443,70.97551,-1.36857,1.05827,0.68981
660.043,71.03599,-1.37193,1.07047,0.68931
660.643,71.09666,-1.37484,1.08587,0.68881
661.243,71.15714,-1.37786,1.09871,0.68831
661.843,71.21761,-1.3811,1.11383,0.68781
662.443,71.2778,-1.38427,1.1299,0.68731
663.043,71.33774,-1.38634,1.14294,0.68681
663.643,71.3982,-1.38981,1.15938,0.68631
664.243,71.45871,-1.39131,1.17231,0.68581
664.843,71.51966,-1.39422,1.19001,0.68531
665.443,71.5804,-1.39907,1.20423,0.68481
666.043,71.64073,-1.40298,1.22153,0.68431
666.643,71.70116,-1.4065,1.23907,0.68381
667.243,71.76156,-1.40966,1.25559,0.68331
667.843,71.82203,-1.41228,1.27232,0.68281
668.443,71.88249,-1.41482,1.28737,0.68231
669.043,71.94317,-1.41828,1.30819,0.68181
669.643,72.00392,-1.42182,1.32884,0.68131
670.243,72.06472,-1.42519,1.34979,0.68081
670.843,72.12513,-1.42974,1.37129,0.68031
671.443,72.18517,-1.43166,1.39183,0.67981
672.043,72.24507,-1.4352,1.4197,0.6793
672.643,72.30512,-1.44049,1.44542,0.6788
673.243,72.36572,-1.44387,1.4727,0.6783
673.843,72.42667,-1.44837,1.50332,0.6778
674.443,72.4876,-1.45276,1.53245,0.6773
675.043,72.54854,-1.4576,1.55932,0.6768
675.643,72.6091,-1.4612,1.59197,0.6763
676.243,72.6697,-1.46483,1.62885,0.6758
676.843,72.73023,-1.47082,1.66119,0.6753
677.443,72.79082,-1.47501,1.6971,0.67479
678.043,72.85161,-1.4806,1.73321,0.67429
678.643,72.91221,-1.48575,1.77592,0.67379
679.243,72.97278,-1.48984,1.81306,0.67329
679.843,73.0334,-1.49518,1.85796,0.67279
680.443,73.09415,-1.50042,1.90232,0.67229
681.043,73.155,-1.506,1.95049,0.67178
681.643,73.21582,-1.51106,2.00384,0.67128
682.243,73.2766,-1.51646,2.0569,0.67078
682.843,73.33721,-1.52272,2.11519,0.67028
683.443,73.39783,-1.52845,2.17469,0.66978
684.043,73.45845,-1.53396,2.23835,0.66928
684.643,73.51904,-1.54078,2.30509,0.66877
685.243,73.5799,-1.5469,2.37361,0.66827
685.843,73.64086,-1.55358,2.43948,0.66777
686.443,73.70184,-1.56149,2.49897,0.66727
687.043,73.76271,-1.56825,2.5367,0.66677
687.643,73.8237,-1.5743,2.56105,0.66626
688.243,73.8845,-1.58208,2.56923,0.66576
688.843,73.94538,-1.58941,2.57141,0.66526
689.443,74.00609,-1.59804,2.56589,0.66476
690.043,74.0668,-1.60584,2.56506,0.66426
690.643,74.1275,-1.61446,2.55995,0.66375
691.243,74.18841,-1.62204,2.56391,0.66325
691.843,74.24927,-1.63102,2.57042,0.66275
692.443,74.31004,-1.63871,2.58224,0.66225
693.043,74.37062,-1.64699,2.60025,0.66174
693.643,74.43124,-1.65487,2.61529,0.66124
694.243,74.4919,-1.66405,2.63137,0.66074
694.843,74.5526,-1.67161,2.65073,0.66024
695.443,74.61338,-1.68108,2.67217,0.65973
696.043,74.67421,-1.68964,2.68835,0.65923
696.643,74.735,-1.69761,2.70653,0.65873
697.243,74.79579,-1.70526,2.728,0.65823
697.843,74.85642,-1.71547,2.74603,0.65772
698.443,74.91704,-1.72354,2.76385,0.65722
699.043,74.97769,-1.7332,2.78029,0.65672
699.643,75.0384,-1.74174,2.80182,0.65622
700.243,75.09916,-1.75243,2.8179,0.65571
700.843,75.15989,-1.76068,2.83532,0.65521
701.443,75.22057,-1.77078,2.85166,0.65471
702.043,75.28109,-1.78089,2.8639,0.6542
702.643,75.34174,-1.78991,2.87572,0.6537
703.243,75.40219,-1.7997,2.89011,0.6532
703.843,75.46276,-1.80695,2.90237,0.6527
704.443,75.5233,-1.8179,2.91149,0.65219
705.043,75.58399,-1.82707,2.91543,0.65169
705.643,75.64479,-1.83812,2.92497,0.65119
706.243,75.70564,-1.84677,2.93028,0.65068
706.843,75.7665,-1.85591,2.93254,0.65018
707.443,75.82727,-1.86662,2.93473,0.64968
708.043,75.88806,-1.87621,2.9331,0.64917
708.643,75.9487,-1.88666,2.93481,0.64867
709.243,76.0095,-1.89566,2.9304,0.64817
709.843,76.07026,-1.90486,2.92444,0.64767
710.443,76.131,-1.91429,2.9269,0.64716
711.043,76.19181,-1.92472,2.91925,0.64666
711.643,76.25247,-1.9341,2.91276,0.64616
712.243,76.31315,-1.94364,2.90405,0.64565
712.843,76.37376,-1.95409,2.89343,0.64515
713.443,76.43459,-1.96296,2.8856,0.64465
714.043,76.49537,-1.97238,2.87598,0.64414
714.643,76.5561,-1.97952,2.86455,0.64364
715.243,76.61689,-1.98949,2.8518,0.64314
715.843,76.6776,-1.99985,2.83688,0.64263
716.443,76.73816,-2.00924,2.82289,0.64213
717.043,76.7988,-2.01901,2.79848,0.64163
717.643,76.8592,-2.02801,2.77259,0.64112
718.243,76.9199,-2.03674,2.74131,0.64062
718.843,76.98057,-2.04448,2.70156,0.64012
719.443,77.04111,-2.0535,2.65033,0.63961
720.043,77.10176,-2.06185,2.58365,0.63911
720.643,77.16232,-2.07043,2.5044,0.63861
721.243,77.22276,-2.07909,2.40984,0.6381
721.843,77.28336,-2.08643,2.29031,0.6376
722.443,77.3437,-2.09358,2.1406,0.6371
723.043,77.40405,-2.10145,1.94901,0.63659
723.643,77.4641,-2.10687,1.71026,0.63609
724.243,77.52431,-2.11054,1.41166,0.63559
724.843,77.58434,-2.11507,1.01855,0.63508
725.443,77.64407,-2.11905,0.55908,0.63458
726.043,77.7039,-2.12115,0.39671,0.63408
726.643,77.76384,-2.12261,0.39077,0.63357
727.243,77.82386,-2.12462,0.37308,0.63307
727.843,77.88413,-2.12457,0.35854,0.63257
728.443,77.94471,-2.12583,0.35405,0.63206
729.043,78.00531,-2.12519,0.35301,0.63156
729.643,78.06605,-2.12515,0.34809,0.63106
730.243,78.12676,-2.12451,0.34902,0.63055
730.843,78.18749,-2.12553,0.35183,0.63005
731.443,78.24818,-2.1255,0.35245,0.62954
732.043,78.3091,-2.12583,0.35384,0.62904
732.643,78.3699,-2.1255,0.35391,0.62854
733.243,78.43091,-2.12684,0.35449,0.62803
733.843,78.49175,-2.12682,0.35516,0.62753
734.443,78.55261,-2.12682,0.35216,0.62703
735.043,78.61326,-2.12682,0.35338,0.62652
735.643,78.67396,-2.12682,0.35332,0.62602
736.243,78.73478,-2.12685,0.35347,0.62552
736.843,78.7957,-2.12748,0.3568,0.62501
737.443,78.8566,-2.12631,0.35602,0.62451
738.043,78.9174,-2.12615,0.35563,0.62401
738.643,78.97834,-2.12615,0.35615,0.6235
739.243,79.03926,-2.12614,0.35614,0.623
739.843,79.10014,-2.12648,0.35457,0.6225
740.443,79.16099,-2.12655,0.34953,0.62199
741.043,79.22171,-2.12651,0.35325,0.62149
741.643,79.28231,-2.12784,0.35103,0.62099
742.243,79.3429,-2.1278,0.34854,0.62048
742.843,79.40385,-2.1278,0.34996,0.61998
743.443,79.46504,-2.12651,0.35038,0.61948
744.043,79.52631,-2.12781,0.34693,0.61897
744.643,79.5873,-2.12781,0.35034,0.61847
745.243,79.64826,-2.1265,0.34863,0.61797
745.843,79.70926,-2.1271,0.35014,0.61746
746.443,79.7702,-2.12879,0.3473,0.61696
747.043,79.83125,-2.12879,0.34574,0.61646
747.643,79.8923,-2.12879,0.34289,0.61595
748.243,79.95329,-2.1275,0.34215,0.61545
748.643,79.99417,-2.12747,0.34297,0.61511