File: 01_Data/Concrete_Block/MCC/Concrete_Block_MCC_30K_min_220224_R3.txt
Sample ID:	C:\MCC\MCC Cal\Test\Concrete_Block_MCC_30K_min_220224_R3.txt
Sample Weight (mg):	4.86
Heating Rate (C/s):	0.5
Combustor Temp (C):	900
N2 Flow Rate (cc/min):	80
O2 Flow Rate (cc/min):	20
Calibration File:	C:\MCC\MCC Cal\Coeff1 JN10440_30_210304.txt.txt
T Correction Coefficients:	0	1.024463	0
Time Shift (s):	14
*
Time (s)	Temperature (C)	N2 flow rate (cc/min)	O2 flow rate (cc/min)	Flow Rate (cc/min)	Oxygen (%)	HRR (W/g)	Heating rate (C/s)
-0.001	112.959	80.003	19.994	103.746	20.101	0.160	0.018
1.500	112.944	80.003	19.993	103.741	20.100	0.166	-0.007
3.000	112.986	80.002	19.993	103.733	20.103	-0.029	0.031
4.500	112.944	80.003	19.993	103.743	20.102	0.035	-0.024
6.000	112.940	80.000	19.992	103.748	20.102	0.038	-0.024
7.500	112.927	80.002	19.995	103.752	20.101	0.144	-0.028
9.000	112.932	80.003	19.994	103.753	20.100	0.218	0.019
10.500	112.914	80.003	19.994	103.746	20.102	0.076	-0.012
12.001	112.905	80.005	19.994	103.754	20.102	0.089	-0.021
13.500	112.917	80.004	19.992	103.754	20.099	0.253	0.036
15.000	112.922	80.003	19.992	103.752	20.096	0.476	0.007
16.500	112.940	80.004	19.993	103.759	20.094	0.572	0.012
18.000	112.942	80.003	19.995	103.776	20.093	0.673	0.029
19.500	112.958	80.002	19.994	103.793	20.091	0.804	0.001
21.000	112.969	80.003	19.993	103.825	20.085	1.200	0.025
22.500	112.987	80.004	19.994	103.856	20.085	1.209	0.015
24.000	113.026	80.001	19.994	103.891	20.076	1.823	0.039
25.500	113.116	80.003	19.994	103.911	20.075	1.833	0.061
27.000	113.176	80.002	19.994	103.919	20.069	2.287	0.034
28.500	113.298	80.002	19.994	103.929	20.064	2.603	0.072
30.000	113.407	80.003	19.994	103.943	20.064	2.617	0.081
31.500	113.552	80.002	19.995	103.955	20.060	2.838	0.092
32.999	113.780	80.002	19.994	103.952	20.062	2.712	0.160
34.499	113.950	80.002	19.994	103.959	20.056	3.135	0.116
35.999	114.159	80.005	19.994	103.978	20.059	2.952	0.152
37.499	114.344	80.004	19.993	103.983	20.054	3.285	0.130
38.999	114.635	80.004	19.994	103.983	20.056	3.159	0.189
40.500	114.907	80.004	19.994	103.975	20.054	3.270	0.199
41.999	115.188	80.006	19.994	103.976	20.055	3.170	0.206
43.501	115.468	80.005	19.993	103.983	20.055	3.177	0.190
44.999	115.819	80.005	19.993	103.974	20.054	3.279	0.222
46.499	116.110	80.005	19.993	103.960	20.056	3.144	0.227
48.000	116.458	80.005	19.992	103.971	20.054	3.257	0.225
49.499	116.852	80.003	19.993	103.980	20.051	3.447	0.255
51.000	117.193	80.005	19.992	103.977	20.057	3.091	0.218
52.500	117.623	80.003	19.992	103.985	20.050	3.566	0.285
53.999	117.984	80.004	19.992	103.987	20.054	3.263	0.265
55.499	118.410	80.004	19.994	103.988	20.052	3.371	0.283
56.999	118.787	80.005	19.993	103.988	20.053	3.347	0.251
58.499	119.227	80.005	19.993	103.988	20.054	3.280	0.276
59.999	119.692	80.006	19.992	103.987	20.050	3.554	0.309
61.499	120.131	80.008	19.993	103.988	20.047	3.703	0.322
62.999	120.605	80.008	19.993	103.992	20.051	3.484	0.315
64.499	121.064	80.006	19.993	103.995	20.049	3.579	0.307
65.999	121.558	80.006	19.993	103.989	20.049	3.594	0.314
67.499	122.042	80.007	19.993	103.993	20.047	3.756	0.322
68.999	122.588	80.006	19.992	104.002	20.050	3.552	0.375
70.499	123.075	80.005	19.992	104.016	20.046	3.783	0.324
71.999	123.625	80.005	19.992	104.004	20.045	3.895	0.358
73.499	124.141	80.005	19.993	103.998	20.045	3.879	0.348
74.999	124.670	80.002	19.993	104.006	20.047	3.742	0.357
76.501	125.238	80.004	19.995	104.016	20.046	3.784	0.387
78.000	125.782	80.003	19.994	104.011	20.044	3.955	0.358
79.499	126.358	80.003	19.993	104.014	20.048	3.664	0.387
80.999	126.920	80.003	19.994	104.010	20.046	3.793	0.378
82.499	127.455	80.003	19.992	104.014	20.044	3.954	0.370
83.999	128.037	80.003	19.992	104.024	20.044	3.913	0.382
85.500	128.683	80.003	19.993	104.022	20.045	3.851	0.409
86.999	129.285	80.004	19.993	104.013	20.046	3.787	0.414
88.499	129.858	80.004	19.993	104.015	20.042	4.067	0.401
89.999	130.512	80.003	19.994	104.027	20.042	4.096	0.421
91.499	131.170	80.004	19.993	104.030	20.040	4.198	0.442
92.999	131.807	80.003	19.993	104.029	20.043	4.007	0.421
94.499	132.415	80.005	19.993	104.023	20.039	4.296	0.410
95.999	133.060	80.004	19.995	104.010	20.045	3.884	0.427
97.500	133.743	80.002	19.994	104.008	20.043	4.006	0.451
99.000	134.419	80.004	19.993	104.016	20.044	3.926	0.443
100.499	135.112	80.005	19.992	104.020	20.049	3.609	0.468
101.999	135.740	80.003	19.994	104.018	20.046	3.782	0.425
103.499	136.382	80.005	19.995	104.024	20.043	4.012	0.440
104.999	137.104	80.004	19.995	104.018	20.042	4.101	0.467
106.499	137.799	80.002	19.993	104.014	20.042	4.096	0.463
108.000	138.515	80.004	19.993	104.016	20.045	3.871	0.471
109.500	139.196	80.003	19.993	104.021	20.045	3.891	0.440
110.999	139.922	80.003	19.993	104.022	20.046	3.780	0.478
112.499	140.616	80.003	19.994	104.018	20.046	3.802	0.461
113.999	141.337	80.003	19.994	104.020	20.046	3.785	0.463
115.500	142.049	80.003	19.993	104.010	20.045	3.858	0.471
116.999	142.755	80.004	19.993	104.010	20.049	3.627	0.493
118.499	143.488	80.004	19.993	104.025	20.045	3.855	0.494
119.999	144.201	80.004	19.993	104.013	20.046	3.814	0.482
121.499	144.959	80.004	19.994	104.014	20.045	3.884	0.503
123.001	145.715	80.005	19.993	104.019	20.048	3.647	0.498
124.499	146.430	80.005	19.993	104.015	20.044	3.922	0.482
125.999	147.109	80.005	19.995	104.004	20.046	3.829	0.460
127.500	147.855	80.002	19.994	104.007	20.047	3.732	0.490
129.000	148.602	80.004	19.993	104.019	20.050	3.528	0.488
130.500	149.373	80.005	19.994	104.011	20.049	3.630	0.507
132.000	150.088	80.003	19.995	104.006	20.048	3.654	0.485
133.500	150.859	80.004	19.993	104.019	20.045	3.880	0.503
135.000	151.649	80.003	19.995	104.013	20.047	3.714	0.521
136.500	152.384	80.004	19.994	104.010	20.047	3.761	0.503
138.000	153.115	80.004	19.993	104.004	20.046	3.812	0.509
139.500	153.871	80.004	19.994	103.991	20.044	3.914	0.504
141.000	154.598	80.005	19.993	103.996	20.046	3.780	0.490
142.500	155.347	80.007	19.993	103.999	20.044	3.933	0.506
144.000	156.099	80.006	19.992	103.996	20.045	3.849	0.502
145.500	156.873	80.006	19.993	103.998	20.047	3.754	0.515
147.000	157.596	80.006	19.992	104.003	20.044	3.913	0.500
148.500	158.312	80.006	19.992	103.997	20.048	3.657	0.484
150.000	159.100	80.006	19.992	103.993	20.046	3.831	0.539
151.500	159.832	80.006	19.992	104.001	20.046	3.781	0.494
153.000	160.628	80.006	19.992	103.998	20.044	3.929	0.539
154.500	161.366	80.005	19.993	103.994	20.046	3.788	0.509
156.000	162.128	80.005	19.994	104.005	20.050	3.564	0.520
157.500	162.872	80.004	19.992	104.001	20.047	3.717	0.488
159.000	163.614	80.005	19.992	103.992	20.047	3.748	0.505
160.500	164.407	80.005	19.992	103.997	20.048	3.651	0.523
162.000	165.162	80.003	19.993	103.993	20.049	3.620	0.527
163.500	165.928	80.005	19.993	103.989	20.045	3.899	0.514
165.000	166.678	80.005	19.992	103.989	20.046	3.772	0.480
166.500	167.461	80.004	19.992	103.990	20.049	3.626	0.505
168.000	168.206	80.004	19.993	103.995	20.049	3.571	0.504
169.500	168.984	80.003	19.993	103.994	20.047	3.715	0.521
171.000	169.763	80.005	19.993	103.990	20.049	3.591	0.508
172.500	170.470	80.004	19.993	103.989	20.046	3.795	0.455
174.000	171.248	80.006	19.994	103.988	20.046	3.774	0.517
175.500	171.992	80.006	19.993	103.988	20.052	3.380	0.498
177.000	172.753	80.005	19.994	103.986	20.046	3.777	0.518
178.500	173.567	80.007	19.993	103.987	20.046	3.785	0.534
180.000	174.294	80.005	19.994	103.985	20.047	3.711	0.492
181.500	175.088	80.006	19.993	103.983	20.049	3.602	0.525
183.000	175.794	80.004	19.993	103.988	20.049	3.569	0.478
184.500	176.570	80.004	19.994	103.988	20.046	3.783	0.534
186.000	177.292	80.002	19.994	103.986	20.051	3.498	0.498
187.500	178.035	80.005	19.994	103.987	20.050	3.563	0.483
189.000	178.837	80.004	19.994	103.989	20.050	3.512	0.526
190.500	179.596	80.005	19.994	103.986	20.049	3.578	0.506
192.000	180.327	80.004	19.993	103.977	20.051	3.441	0.471
193.500	181.056	80.004	19.995	103.981	20.049	3.625	0.501
195.000	181.821	80.006	19.994	103.986	20.050	3.534	0.505
196.500	182.584	80.002	19.993	103.982	20.047	3.718	0.517
198.000	183.350	80.006	19.993	103.978	20.049	3.623	0.506
199.500	184.095	80.006	19.993	103.975	20.049	3.621	0.507
201.000	184.852	80.005	19.993	103.975	20.051	3.455	0.510
202.500	185.634	80.007	19.992	103.960	20.050	3.543	0.516
204.000	186.356	80.006	19.993	103.968	20.048	3.654	0.475
205.500	187.134	80.004	19.993	103.973	20.051	3.446	0.504
207.000	187.889	80.004	19.993	103.967	20.051	3.445	0.505
208.500	188.599	80.006	19.993	103.973	20.051	3.433	0.483
210.000	189.343	80.007	19.992	103.960	20.053	3.357	0.515
211.500	190.134	80.004	19.994	103.958	20.053	3.331	0.514
213.000	190.834	80.005	19.993	103.960	20.052	3.377	0.471
214.500	191.610	80.005	19.994	103.966	20.052	3.397	0.522
216.000	192.350	80.002	19.992	103.965	20.050	3.533	0.499
217.500	193.083	80.000	19.994	103.965	20.050	3.517	0.496
219.000	193.785	80.003	19.993	103.960	20.052	3.415	0.486
220.500	194.568	80.005	19.992	103.955	20.051	3.484	0.503
222.000	195.294	80.002	19.995	103.959	20.050	3.524	0.478
223.500	196.005	80.004	19.994	103.958	20.052	3.406	0.485
225.000	196.743	80.004	19.995	103.953	20.051	3.435	0.478
226.500	197.488	79.999	19.995	103.952	20.052	3.408	0.501
228.000	198.229	80.008	19.993	103.948	20.048	3.672	0.490
229.500	198.989	80.005	19.993	103.947	20.051	3.450	0.500
231.000	199.710	80.003	19.993	103.946	20.048	3.668	0.490
232.500	200.407	80.006	19.993	103.948	20.050	3.561	0.453
234.000	201.139	80.009	19.993	103.956	20.050	3.541	0.483
235.500	201.915	80.008	19.992	103.956	20.053	3.326	0.488
237.000	202.593	80.005	19.992	103.949	20.051	3.495	0.460
238.500	203.373	80.009	19.992	103.948	20.053	3.351	0.515
240.000	204.080	80.004	19.993	103.951	20.050	3.504	0.482
241.500	204.786	80.003	19.995	103.950	20.051	3.455	0.460
243.000	205.515	80.005	19.994	103.948	20.052	3.389	0.476
244.500	206.271	80.002	19.993	103.952	20.047	3.701	0.508
246.000	207.014	80.005	19.994	103.954	20.054	3.278	0.484
247.500	207.773	80.004	19.992	103.953	20.050	3.528	0.532
249.000	208.513	80.004	19.994	103.952	20.049	3.626	0.483
250.500	209.273	80.003	19.994	103.950	20.047	3.752	0.509
252.000	210.001	80.004	19.993	103.949	20.051	3.442	0.470
253.500	210.749	80.004	19.994	103.949	20.047	3.738	0.511
255.000	211.430	80.003	19.993	103.951	20.046	3.803	0.462
256.500	212.205	80.005	19.994	103.955	20.050	3.537	0.541
258.000	212.942	80.003	19.994	103.952	20.049	3.596	0.494
259.500	213.694	80.004	19.993	103.952	20.048	3.652	0.517
261.000	214.437	80.005	19.993	103.950	20.053	3.333	0.496
262.500	215.143	80.004	19.992	103.955	20.051	3.475	0.484
264.000	215.859	80.006	19.993	103.957	20.049	3.626	0.487
265.500	216.613	80.001	19.993	103.952	20.049	3.583	0.479
267.000	217.376	80.001	19.993	103.950	20.052	3.373	0.510
268.500	218.083	79.998	19.994	103.952	20.052	3.370	0.487
270.000	218.822	80.014	19.992	103.955	20.048	3.694	0.481
271.500	219.628	80.001	19.994	103.955	20.050	3.532	0.508
273.000	220.311	80.000	19.994	103.955	20.050	3.537	0.440
274.500	221.091	80.010	19.993	103.954	20.049	3.595	0.498
276.000	221.841	80.001	19.994	103.953	20.051	3.468	0.490
277.500	222.579	80.005	19.994	103.958	20.048	3.676	0.493
279.000	223.288	80.005	19.992	103.960	20.044	3.944	0.458
280.500	224.033	80.003	19.993	103.953	20.051	3.442	0.488
282.000	224.802	80.004	19.994	103.954	20.047	3.734	0.527
283.500	225.522	80.005	19.995	103.953	20.050	3.510	0.487
285.000	226.292	80.008	19.994	103.952	20.045	3.834	0.517
286.500	227.042	80.003	19.995	103.953	20.052	3.431	0.497
288.000	227.790	80.004	19.993	103.953	20.050	3.548	0.502
289.500	228.574	80.004	19.993	103.953	20.052	3.386	0.527
291.000	229.296	80.004	19.994	103.945	20.045	3.865	0.503
292.500	230.051	80.004	19.995	103.940	20.044	3.956	0.494
294.000	230.810	80.005	19.994	103.948	20.047	3.723	0.511
295.500	231.535	80.006	19.994	103.951	20.053	3.364	0.486
297.000	232.305	80.008	19.994	103.949	20.048	3.652	0.501
298.500	233.050	80.003	19.993	103.949	20.051	3.486	0.497
300.000	233.787	80.000	19.994	103.949	20.051	3.438	0.504
301.500	234.557	80.009	19.994	103.944	20.048	3.692	0.512
303.000	235.370	80.006	19.992	103.944	20.050	3.553	0.552
304.500	236.066	80.002	19.993	103.950	20.051	3.458	0.470
306.000	236.815	80.008	19.993	103.949	20.052	3.377	0.497
307.500	237.556	80.004	19.993	103.950	20.051	3.482	0.503
309.000	238.343	80.009	19.994	103.948	20.049	3.599	0.526
310.500	239.085	80.005	19.993	103.939	20.051	3.480	0.481
312.000	239.779	80.005	19.994	103.941	20.050	3.522	0.453
313.500	240.570	79.996	19.996	103.933	20.053	3.327	0.514
315.000	241.284	80.007	19.994	103.937	20.051	3.479	0.465
316.500	242.135	80.007	19.992	103.947	20.053	3.336	0.582
318.000	242.868	80.009	19.994	103.948	20.048	3.677	0.487
319.500	243.613	80.007	19.993	103.944	20.052	3.374	0.515
321.000	244.362	80.006	19.994	103.949	20.050	3.544	0.489
322.500	245.108	80.004	19.994	103.941	20.047	3.752	0.507
324.000	245.868	80.005	19.993	103.939	20.053	3.342	0.518
325.500	246.615	80.002	19.994	103.946	20.050	3.520	0.489
327.000	247.380	80.003	19.993	103.947	20.054	3.245	0.520
328.500	248.109	80.004	19.993	103.949	20.052	3.373	0.503
330.000	248.893	80.003	19.993	103.943	20.050	3.523	0.521
331.500	249.625	80.008	19.992	103.941	20.054	3.254	0.506
333.000	250.414	79.990	19.994	103.952	20.053	3.304	0.517
334.500	251.183	80.009	19.992	103.948	20.053	3.347	0.510
336.000	251.880	80.003	19.993	103.937	20.051	3.442	0.460
337.500	252.644	80.002	19.993	103.936	20.051	3.433	0.496
339.000	253.489	80.010	19.990	103.945	20.049	3.613	0.546
340.500	254.157	80.000	19.993	103.955	20.049	3.609	0.452
342.000	254.909	79.999	19.998	103.954	20.049	3.629	0.521
343.500	255.650	80.010	19.993	103.947	20.048	3.655	0.489
345.000	256.411	80.005	19.993	103.938	20.049	3.587	0.529
346.500	257.134	80.011	19.993	103.929	20.052	3.365	0.474
348.000	257.895	80.004	19.994	103.935	20.053	3.347	0.491
349.500	258.647	80.001	19.992	103.933	20.048	3.651	0.488
351.000	259.436	80.001	19.992	103.935	20.052	3.378	0.524
352.500	260.150	80.005	19.993	103.933	20.051	3.489	0.481
354.000	260.847	80.005	19.993	103.937	20.056	3.103	0.471
355.500	261.614	80.007	19.992	103.933	20.051	3.487	0.519
357.000	262.339	80.007	19.993	103.934	20.049	3.594	0.482
358.500	263.088	80.009	19.993	103.943	20.052	3.371	0.509
360.000	263.864	80.008	19.993	103.939	20.053	3.341	0.543
361.500	264.582	80.006	19.993	103.925	20.055	3.193	0.492
363.000	265.333	80.006	19.994	103.930	20.049	3.585	0.525
364.500	266.074	80.002	19.993	103.934	20.053	3.361	0.491
366.000	266.802	80.009	19.992	103.928	20.052	3.390	0.470
367.500	267.599	80.004	19.994	103.924	20.053	3.339	0.522
369.000	268.298	80.002	19.992	103.930	20.053	3.350	0.456
370.500	269.042	79.999	19.994	103.938	20.058	3.028	0.496
372.000	269.751	80.010	19.992	103.925	20.055	3.186	0.469
373.500	270.542	79.983	19.994	103.919	20.051	3.452	0.523
375.000	271.296	80.010	19.994	103.927	20.054	3.289	0.518
376.500	272.037	80.009	19.992	103.924	20.052	3.368	0.476
378.000	272.770	80.041	19.990	103.921	20.053	3.319	0.508
379.500	273.502	80.004	19.995	103.932	20.057	3.071	0.502
381.000	274.241	80.009	19.993	103.926	20.052	3.377	0.485
382.500	275.043	80.010	19.993	103.925	20.053	3.334	0.514
384.000	275.790	80.006	19.994	103.923	20.052	3.379	0.494
385.500	276.506	79.998	19.995	103.906	20.051	3.465	0.493
387.000	277.246	80.009	19.994	103.917	20.052	3.372	0.477
388.500	278.010	80.008	19.993	103.920	20.050	3.519	0.521
390.000	278.740	79.993	19.994	103.913	20.054	3.273	0.473
391.500	279.496	80.005	19.993	103.917	20.056	3.106	0.525
393.000	280.223	80.013	19.994	103.924	20.058	3.009	0.498
394.500	281.001	80.015	19.992	103.925	20.055	3.186	0.517
396.000	281.736	80.013	19.992	103.933	20.056	3.131	0.475
397.500	282.459	79.998	19.994	103.927	20.051	3.459	0.471
399.000	283.202	80.001	19.994	103.910	20.051	3.477	0.481
400.500	283.956	80.005	19.993	103.914	20.057	3.091	0.489
402.000	284.747	80.008	19.994	103.925	20.056	3.135	0.520
403.500	285.463	80.013	19.994	103.922	20.054	3.290	0.472
405.000	286.185	79.995	19.995	103.923	20.052	3.364	0.487
406.500	286.965	80.003	19.994	103.930	20.051	3.432	0.505
408.000	287.727	80.003	19.996	103.916	20.052	3.381	0.508
409.500	288.443	80.001	19.994	103.912	20.056	3.133	0.473
411.000	289.175	80.001	19.995	103.911	20.056	3.118	0.485
412.500	289.963	80.007	19.993	103.920	20.049	3.605	0.514
414.000	290.711	80.003	19.994	103.914	20.050	3.514	0.514
415.500	291.470	80.002	19.994	103.912	20.054	3.242	0.486
417.000	292.210	80.006	19.993	103.914	20.056	3.157	0.493
418.500	292.995	80.001	19.992	103.914	20.054	3.263	0.503
420.000	293.699	80.006	19.993	103.915	20.051	3.443	0.457
421.500	294.446	79.994	19.995	103.917	20.052	3.421	0.506
423.000	295.175	80.001	19.993	103.910	20.052	3.430	0.475
424.500	295.902	79.990	19.995	103.911	20.050	3.523	0.479
426.000	296.695	80.012	19.992	103.908	20.052	3.388	0.507
427.500	297.436	80.006	19.992	103.911	20.052	3.397	0.505
429.000	298.159	80.005	19.992	103.920	20.052	3.399	0.498
430.500	298.979	80.002	19.993	103.913	20.053	3.301	0.525
432.000	299.716	80.008	19.992	103.910	20.054	3.239	0.499
433.500	300.434	79.999	19.995	103.914	20.053	3.357	0.506
435.000	301.162	79.996	19.993	103.906	20.054	3.237	0.489
436.500	301.945	80.003	19.992	103.915	20.054	3.280	0.490
438.000	302.734	80.005	19.993	103.909	20.053	3.355	0.505
439.500	303.458	80.014	19.992	103.909	20.054	3.242	0.501
441.000	304.222	80.001	19.992	103.918	20.053	3.310	0.504
442.500	304.937	80.008	19.993	103.914	20.055	3.215	0.492
444.000	305.725	80.020	19.989	103.906	20.052	3.381	0.496
445.500	306.481	80.004	19.994	103.915	20.048	3.636	0.490
447.000	307.218	80.003	19.993	103.912	20.057	3.095	0.499
448.500	307.977	80.006	19.994	103.907	20.055	3.168	0.512
450.000	308.740	80.002	19.993	103.904	20.055	3.228	0.539
451.500	309.524	80.002	19.993	103.905	20.055	3.195	0.509
453.000	310.241	80.012	19.993	103.910	20.054	3.241	0.456
454.500	310.969	80.016	19.992	103.914	20.049	3.566	0.482
456.000	311.717	80.010	19.993	103.914	20.053	3.328	0.486
457.500	312.461	80.002	19.992	103.913	20.054	3.235	0.496
459.000	313.279	80.020	19.991	103.914	20.053	3.329	0.543
460.500	314.021	80.003	19.993	103.909	20.054	3.292	0.479
462.000	314.744	80.009	19.994	103.909	20.054	3.246	0.467
463.500	315.527	80.011	19.993	103.916	20.051	3.452	0.534
465.000	316.285	80.009	19.992	103.907	20.054	3.277	0.525
466.500	317.024	80.008	19.993	103.906	20.050	3.514	0.524
468.000	317.762	80.007	19.993	103.909	20.051	3.466	0.498
469.500	318.517	80.002	19.993	103.900	20.050	3.548	0.523
471.000	319.296	80.004	19.993	103.910	20.051	3.432	0.511
472.500	320.045	80.011	19.992	103.914	20.055	3.213	0.519
474.000	320.798	80.007	19.994	103.914	20.052	3.398	0.508
475.500	321.555	80.010	19.994	103.914	20.056	3.145	0.524
477.000	322.334	80.004	19.993	103.907	20.049	3.574	0.529
478.500	323.025	80.010	19.992	103.901	20.050	3.546	0.457
480.000	323.807	80.006	19.995	103.911	20.052	3.406	0.530
481.500	324.552	80.025	19.992	103.909	20.052	3.388	0.505
483.000	325.302	80.015	19.994	103.898	20.053	3.342	0.482
484.500	326.044	80.013	19.992	103.891	20.054	3.284	0.529
486.000	326.806	80.001	19.993	103.897	20.052	3.384	0.517
487.500	327.557	79.987	19.995	103.904	20.051	3.481	0.517
489.000	328.328	80.006	19.994	103.902	20.055	3.198	0.515
490.500	329.071	80.007	19.992	103.905	20.052	3.413	0.482
492.000	329.783	79.993	19.995	103.910	20.049	3.617	0.496
493.500	330.549	80.003	19.995	103.891	20.053	3.360	0.512
495.000	331.352	80.002	19.992	103.885	20.054	3.249	0.524
496.500	332.048	79.992	19.995	103.899	20.051	3.437	0.465
498.000	332.846	80.008	19.994	103.904	20.054	3.238	0.538
499.500	333.591	80.006	19.994	103.901	20.054	3.257	0.493
501.000	334.344	79.995	19.995	103.902	20.053	3.300	0.512
502.500	335.103	80.000	19.994	103.894	20.052	3.388	0.491
504.000	335.890	79.997	19.996	103.901	20.057	3.094	0.488
505.500	336.575	79.981	19.996	103.908	20.056	3.154	0.469
507.000	337.346	80.010	19.993	103.900	20.057	3.083	0.498
508.500	338.083	79.996	19.996	103.900	20.052	3.412	0.479
510.000	338.882	79.987	19.995	103.905	20.054	3.253	0.520
511.500	339.628	80.003	19.995	103.898	20.056	3.116	0.510
513.000	340.367	80.012	19.995	103.899	20.054	3.286	0.487
514.500	341.122	79.997	19.994	103.904	20.052	3.410	0.497
516.000	341.899	80.000	19.995	103.899	20.053	3.333	0.523
517.500	342.637	80.001	19.995	103.893	20.053	3.326	0.491
519.000	343.401	80.010	19.992	103.903	20.049	3.583	0.515
520.500	344.147	80.004	19.992	103.905	20.056	3.138	0.496
522.000	344.877	80.001	19.993	103.901	20.054	3.244	0.496
523.500	345.619	79.999	19.993	103.911	20.054	3.262	0.461
525.000	346.402	80.005	19.994	103.908	20.055	3.226	0.534
526.500	347.122	80.002	19.994	103.904	20.057	3.096	0.490
528.000	347.890	79.994	19.995	103.904	20.054	3.240	0.497
529.500	348.653	80.005	19.994	103.902	20.053	3.309	0.511
531.000	349.436	80.010	19.994	103.900	20.051	3.434	0.537
532.500	350.161	80.006	19.992	103.896	20.054	3.262	0.511
534.000	350.888	79.997	19.993	103.906	20.054	3.242	0.520
535.500	351.696	80.011	19.993	103.905	20.055	3.213	0.524
537.000	352.433	80.003	19.994	103.906	20.056	3.126	0.485
538.500	353.166	79.996	19.994	103.911	20.056	3.127	0.491
540.000	353.949	80.009	19.993	103.898	20.053	3.307	0.494
541.500	354.721	80.009	19.993	103.907	20.054	3.257	0.523
543.000	355.436	80.009	19.992	103.911	20.053	3.302	0.483
544.500	356.230	80.003	19.993	103.894	20.055	3.204	0.509
546.000	356.929	80.007	19.994	103.901	20.057	3.041	0.465
547.500	357.706	80.000	19.992	103.909	20.056	3.125	0.518
549.000	358.467	80.014	19.992	103.906	20.055	3.198	0.495
550.500	359.221	80.001	19.994	103.895	20.056	3.127	0.518
552.000	359.968	80.021	19.993	103.910	20.053	3.353	0.518
553.500	360.746	80.006	19.992	103.909	20.054	3.238	0.504
555.000	361.465	79.997	19.993	103.899	20.051	3.457	0.499
556.500	362.233	80.010	19.993	103.898	20.056	3.158	0.481
558.000	362.983	80.015	19.991	103.897	20.057	3.082	0.476
559.500	363.736	80.001	19.994	103.903	20.057	3.038	0.522
561.000	364.510	79.995	19.996	103.906	20.051	3.477	0.500
562.500	365.245	80.021	19.992	103.900	20.056	3.113	0.505
564.000	366.084	80.010	19.993	103.895	20.055	3.195	0.558
565.500	366.829	80.008	19.994	103.910	20.057	3.032	0.489
567.000	367.601	80.004	19.993	103.908	20.055	3.195	0.507
568.500	368.342	79.993	19.993	103.909	20.056	3.136	0.496
570.000	369.139	80.020	19.991	103.899	20.056	3.098	0.569
571.500	369.883	80.008	19.993	103.908	20.052	3.389	0.479
573.000	370.655	80.002	19.993	103.905	20.056	3.109	0.501
574.500	371.360	80.007	19.994	103.907	20.056	3.129	0.482
576.000	372.159	80.010	19.992	103.902	20.055	3.202	0.534
577.500	372.971	80.001	19.994	103.896	20.056	3.140	0.523
579.000	373.716	80.002	19.993	103.893	20.052	3.371	0.509
580.500	374.504	80.006	19.993	103.884	20.057	3.087	0.528
582.000	375.235	80.009	19.994	103.895	20.056	3.151	0.505
583.500	376.024	80.005	19.993	103.894	20.057	3.078	0.527
585.000	376.776	80.004	19.994	103.900	20.056	3.144	0.502
586.500	377.556	80.003	19.994	103.903	20.056	3.100	0.515
588.000	378.359	80.006	19.993	103.907	20.058	2.983	0.523
589.500	379.086	80.006	19.994	103.899	20.059	2.930	0.495
591.000	379.853	80.004	19.993	103.900	20.059	2.916	0.521
592.500	380.613	80.003	19.996	103.894	20.058	2.978	0.520
594.000	381.386	80.007	19.994	103.899	20.058	3.023	0.506
595.500	382.168	80.003	19.994	103.905	20.060	2.879	0.531
597.000	382.928	80.013	19.993	103.895	20.055	3.218	0.527
598.500	383.702	80.007	19.994	103.904	20.052	3.411	0.525
600.000	384.457	80.002	19.994	103.905	20.058	2.977	0.461
601.500	385.221	79.999	19.995	103.905	20.054	3.280	0.486
603.000	385.980	80.003	19.994	103.900	20.058	2.992	0.521
604.500	386.729	79.989	19.995	103.895	20.057	3.080	0.495
606.000	387.509	80.005	19.993	103.895	20.058	3.016	0.511
607.500	388.231	80.002	19.995	103.900	20.055	3.187	0.494
609.000	389.002	80.000	19.995	103.898	20.056	3.107	0.504
610.500	389.796	80.002	19.993	103.887	20.056	3.100	0.550
612.000	390.519	80.005	19.993	103.884	20.055	3.204	0.476
613.500	391.299	80.006	19.993	103.899	20.060	2.848	0.516
615.000	392.052	80.005	19.994	103.895	20.058	2.999	0.503
616.500	392.819	80.007	19.993	103.901	20.058	2.992	0.524
618.000	393.580	80.007	19.995	103.898	20.055	3.203	0.502
619.500	394.413	80.006	19.994	103.884	20.054	3.254	0.527
621.000	395.170	80.008	19.994	103.890	20.057	3.038	0.518
622.500	395.927	80.008	19.993	103.903	20.053	3.340	0.525
624.000	396.677	80.005	19.993	103.894	20.056	3.131	0.519
625.500	397.483	80.006	19.993	103.892	20.054	3.269	0.534
627.000	398.245	80.010	19.993	103.898	20.058	2.983	0.520
628.500	399.011	79.995	19.996	103.895	20.057	3.090	0.505
630.000	399.784	80.006	19.992	103.886	20.059	2.957	0.531
631.500	400.539	80.006	19.994	103.892	20.056	3.153	0.509
633.000	401.305	79.997	19.996	103.892	20.059	2.950	0.504
634.500	402.093	80.007	19.992	103.890	20.059	2.947	0.512
636.000	402.874	80.007	19.995	103.893	20.057	3.061	0.526
637.500	403.605	80.001	19.991	103.876	20.057	3.065	0.477
639.000	404.397	80.009	19.993	103.884	20.059	2.955	0.516
640.500	405.124	80.017	19.992	103.881	20.060	2.837	0.506
642.000	405.911	80.005	19.994	103.895	20.060	2.849	0.513
643.500	406.693	80.007	19.993	103.901	20.059	2.959	0.521
645.000	407.476	80.005	19.992	103.900	20.056	3.139	0.539
646.500	408.208	80.006	19.994	103.888	20.060	2.864	0.520
648.000	408.991	80.007	19.992	103.888	20.059	2.930	0.517
649.500	409.725	80.005	19.992	103.888	20.056	3.138	0.487
651.000	410.471	80.001	19.995	103.874	20.057	3.094	0.493
652.500	411.275	80.012	19.991	103.868	20.060	2.870	0.543
654.000	412.014	79.999	19.992	103.883	20.054	3.268	0.477
655.500	412.768	80.005	19.994	103.880	20.055	3.192	0.508
657.000	413.497	80.002	19.994	103.876	20.053	3.329	0.476
658.500	414.196	79.999	19.995	103.882	20.058	2.981	0.475
660.000	414.968	80.006	19.994	103.889	20.055	3.208	0.513
661.500	415.673	80.003	19.994	103.880	20.054	3.263	0.478
663.000	416.436	80.000	19.994	103.877	20.053	3.325	0.494
664.500	417.158	80.001	19.994	103.878	20.055	3.163	0.498
666.000	417.931	80.008	19.994	103.875	20.052	3.393	0.513
667.500	418.639	80.003	19.994	103.888	20.054	3.237	0.493
669.000	419.346	80.004	19.994	103.896	20.054	3.250	0.470
670.500	420.132	80.003	19.994	103.882	20.050	3.525	0.537
672.000	420.887	80.003	19.994	103.881	20.052	3.400	0.492
673.500	421.619	80.004	19.993	103.882	20.052	3.413	0.497
675.000	422.332	80.004	19.994	103.889	20.056	3.143	0.474
676.500	423.076	80.005	19.993	103.885	20.052	3.392	0.498
678.000	423.801	80.004	19.993	103.875	20.054	3.268	0.498
679.500	424.559	80.002	19.993	103.877	20.054	3.245	0.506
681.000	425.349	80.002	19.994	103.877	20.052	3.416	0.516
682.500	426.069	80.002	19.993	103.877	20.053	3.340	0.478
684.000	426.814	80.002	19.994	103.879	20.052	3.365	0.477
685.500	427.553	80.004	19.994	103.887	20.049	3.608	0.514
687.000	428.331	80.004	19.994	103.882	20.049	3.568	0.528
688.500	429.067	80.003	19.995	103.875	20.050	3.547	0.503
690.000	429.849	80.002	19.994	103.884	20.048	3.666	0.491
691.500	430.614	80.006	19.995	103.888	20.052	3.372	0.511
693.000	431.361	80.006	19.994	103.884	20.047	3.742	0.487
694.500	432.100	80.005	19.994	103.877	20.049	3.584	0.507
696.000	432.893	80.005	19.995	103.882	20.050	3.522	0.516
697.500	433.643	80.007	19.995	103.890	20.050	3.518	0.494
699.000	434.382	80.004	19.994	103.878	20.054	3.265	0.487
700.500	435.187	80.004	19.995	103.880	20.051	3.469	0.522
702.000	435.950	80.004	19.995	103.878	20.050	3.517	0.508
703.500	436.697	80.007	19.994	103.879	20.053	3.358	0.489
705.000	437.469	80.006	19.993	103.884	20.048	3.637	0.518
706.500	438.254	80.005	19.994	103.889	20.047	3.699	0.526
708.000	438.985	80.006	19.994	103.882	20.052	3.404	0.470
709.500	439.706	80.003	19.994	103.880	20.049	3.595	0.476
711.000	440.548	80.005	19.993	103.875	20.050	3.513	0.515
712.500	441.316	80.006	19.994	103.880	20.053	3.341	0.540
714.000	442.068	80.005	19.993	103.890	20.050	3.515	0.504
715.500	442.838	80.004	19.994	103.879	20.052	3.418	0.524
717.000	443.625	80.005	19.994	103.878	20.050	3.555	0.517
718.500	444.346	80.006	19.993	103.886	20.046	3.805	0.496
720.000	445.148	80.005	19.992	103.884	20.050	3.531	0.539
721.500	445.872	80.008	19.992	103.873	20.053	3.299	0.498
723.000	446.668	80.004	19.993	103.875	20.050	3.546	0.526
724.500	447.429	80.007	19.993	103.878	20.052	3.402	0.503
726.000	448.180	80.007	19.993	103.882	20.049	3.604	0.503
727.500	449.003	80.005	19.992	103.881	20.052	3.405	0.571
729.000	449.724	80.006	19.993	103.890	20.048	3.688	0.489
730.500	450.528	80.005	19.993	103.882	20.050	3.538	0.534
732.000	451.256	80.002	19.992	103.875	20.052	3.423	0.500
733.500	452.046	80.005	19.993	103.880	20.050	3.533	0.551
735.000	452.796	80.003	19.993	103.886	20.049	3.587	0.488
736.500	453.584	80.005	19.993	103.878	20.050	3.524	0.535
738.000	454.342	80.006	19.993	103.882	20.054	3.234	0.526
739.500	455.156	80.004	19.993	103.876	20.051	3.454	0.548
741.000	455.940	80.003	19.993	103.880	20.050	3.520	0.529
742.500	456.706	80.003	19.992	103.878	20.050	3.526	0.506
744.000	457.480	80.005	19.992	103.878	20.049	3.580	0.501
745.500	458.246	80.003	19.993	103.878	20.048	3.644	0.501
747.000	459.001	80.001	19.992	103.876	20.051	3.482	0.497
748.500	459.808	80.005	19.993	103.872	20.050	3.524	0.544
750.000	460.537	80.004	19.993	103.871	20.050	3.504	0.492
751.500	461.278	80.005	19.994	103.881	20.049	3.569	0.509
753.000	462.068	80.006	19.993	103.888	20.049	3.576	0.532
754.500	462.802	80.008	19.993	103.883	20.050	3.554	0.497
756.000	463.603	80.005	19.994	103.884	20.049	3.600	0.530
757.500	464.327	80.007	19.995	103.878	20.050	3.511	0.495
759.000	465.096	80.007	19.993	103.879	20.052	3.416	0.503
760.500	465.864	80.006	19.993	103.880	20.050	3.522	0.526
762.000	466.634	80.003	19.994	103.875	20.052	3.376	0.517
763.500	467.412	80.003	19.995	103.872	20.050	3.540	0.491
765.000	468.145	80.005	19.994	103.872	20.050	3.547	0.482
766.500	468.905	80.005	19.994	103.872	20.050	3.514	0.503
768.000	469.649	80.003	19.995	103.871	20.049	3.624	0.487
769.500	470.399	80.004	19.994	103.872	20.051	3.451	0.503
771.000	471.212	80.003	19.995	103.872	20.051	3.458	0.536
772.500	471.964	80.002	19.995	103.871	20.051	3.471	0.506
774.000	472.696	80.004	19.993	103.874	20.051	3.450	0.491
775.500	473.422	80.006	19.993	103.873	20.046	3.791	0.490
777.000	474.225	80.006	19.994	103.871	20.046	3.802	0.527
778.500	474.992	80.003	19.994	103.872	20.050	3.518	0.529
780.000	475.732	80.004	19.994	103.874	20.048	3.665	0.477
781.500	476.486	80.005	19.993	103.876	20.049	3.569	0.505
783.000	477.245	80.004	19.994	103.874	20.048	3.671	0.501
784.500	478.005	80.005	19.995	103.871	20.053	3.327	0.505
786.000	478.744	80.004	19.996	103.870	20.048	3.695	0.487
787.500	479.502	80.005	19.994	103.873	20.049	3.596	0.521
789.000	480.272	80.000	19.994	103.873	20.047	3.733	0.537
790.500	481.012	80.003	19.995	103.870	20.049	3.611	0.506
792.000	481.807	80.004	19.994	103.872	20.048	3.646	0.549
793.500	482.537	80.005	19.995	103.871	20.048	3.669	0.495
795.000	483.311	80.005	19.994	103.874	20.048	3.662	0.515
796.500	484.075	80.006	19.994	103.875	20.053	3.345	0.498
798.000	484.832	80.005	19.993	103.877	20.048	3.660	0.478
799.500	485.570	80.005	19.992	103.874	20.051	3.482	0.506
801.000	486.345	80.005	19.993	103.873	20.048	3.693	0.520
802.500	487.091	80.006	19.993	103.877	20.051	3.489	0.504
804.000	487.843	80.007	19.992	103.878	20.048	3.669	0.479
805.500	488.609	80.006	19.993	103.872	20.047	3.746	0.494
807.000	489.382	80.006	19.993	103.871	20.047	3.715	0.525
808.500	490.118	80.006	19.993	103.873	20.047	3.720	0.484
810.000	490.919	80.007	19.992	103.876	20.048	3.654	0.536
811.500	491.678	80.005	19.993	103.877	20.049	3.602	0.496
813.000	492.469	80.006	19.993	103.872	20.053	3.305	0.511
814.500	493.249	80.005	19.993	103.868	20.049	3.627	0.516
816.000	494.012	80.005	19.993	103.871	20.049	3.593	0.523
817.500	494.796	80.005	19.994	103.872	20.048	3.664	0.522
819.000	495.563	80.003	19.993	103.870	20.045	3.837	0.507
820.500	496.340	80.004	19.994	103.869	20.048	3.658	0.526
822.000	497.139	80.003	19.994	103.870	20.047	3.711	0.536
823.500	497.869	80.003	19.993	103.871	20.049	3.607	0.481
825.000	498.681	80.002	19.994	103.873	20.045	3.844	0.537
826.500	499.415	80.005	19.994	103.871	20.047	3.716	0.519
828.000	500.205	80.005	19.993	103.869	20.051	3.461	0.507
829.500	500.939	80.004	19.993	103.870	20.047	3.718	0.486
831.000	501.714	80.005	19.993	103.871	20.045	3.871	0.509
832.500	502.467	80.005	19.994	103.871	20.047	3.751	0.494
834.000	503.206	80.004	19.993	103.870	20.046	3.768	0.502
835.500	503.999	80.005	19.993	103.873	20.046	3.804	0.536
837.000	504.773	80.004	19.994	103.873	20.046	3.786	0.522
838.500	505.510	80.004	19.993	103.864	20.047	3.735	0.481
840.000	506.267	80.005	19.994	103.871	20.045	3.848	0.495
841.500	507.025	80.005	19.993	103.867	20.047	3.722	0.530
843.000	507.810	80.004	19.993	103.870	20.045	3.850	0.530
844.500	508.567	80.004	19.993	103.874	20.044	3.897	0.503
846.000	509.363	80.003	19.994	103.873	20.045	3.851	0.524
847.500	510.053	80.003	19.995	103.872	20.046	3.795	0.463
849.000	510.870	80.002	19.994	103.878	20.045	3.864	0.540
850.500	511.597	80.003	19.995	103.872	20.049	3.563	0.484
852.000	512.387	80.004	19.994	103.873	20.049	3.620	0.529
853.500	513.151	80.003	19.993	103.872	20.049	3.584	0.512
855.000	513.940	80.005	19.995	103.868	20.048	3.660	0.531
856.500	514.749	80.005	19.994	103.865	20.051	3.452	0.542
858.000	515.509	80.005	19.994	103.871	20.052	3.421	0.516
859.500	516.254	80.007	19.994	103.869	20.052	3.378	0.507
861.000	517.056	80.005	19.993	103.869	20.048	3.642	0.528
862.500	517.807	80.004	19.995	103.876	20.050	3.536	0.510
864.000	518.581	80.003	19.993	103.878	20.051	3.436	0.520
865.500	519.393	80.005	19.992	103.880	20.047	3.696	0.528
867.000	520.145	80.006	19.993	103.879	20.048	3.693	0.504
868.500	520.912	80.005	19.994	103.873	20.047	3.716	0.486
870.000	521.705	80.006	19.993	103.873	20.048	3.678	0.529
871.500	522.464	80.004	19.994	103.873	20.049	3.605	0.495
873.000	523.268	80.005	19.994	103.873	20.048	3.662	0.512
874.500	524.046	80.006	19.993	103.874	20.043	3.970	0.521
876.000	524.852	80.006	19.994	103.873	20.046	3.786	0.538
877.500	525.594	80.003	19.993	103.870	20.044	3.910	0.513
879.000	526.356	80.004	19.994	103.869	20.044	3.897	0.501
880.500	527.112	80.003	19.994	103.868	20.046	3.822	0.511
882.000	527.873	80.004	19.995	103.868	20.047	3.722	0.497
883.500	528.670	80.005	19.995	103.869	20.047	3.698	0.527
885.000	529.463	80.006	19.994	103.869	20.048	3.673	0.523
886.500	530.192	80.007	19.993	103.868	20.044	3.917	0.500
888.000	530.976	80.006	19.994	103.872	20.044	3.959	0.521
889.500	531.755	80.007	19.994	103.869	20.044	3.928	0.518
891.000	532.464	80.007	19.994	103.867	20.048	3.695	0.495
892.500	533.254	80.005	19.993	103.869	20.047	3.749	0.520
894.000	534.054	80.005	19.993	103.860	20.047	3.726	0.512
895.500	534.796	80.005	19.993	103.859	20.045	3.886	0.519
897.000	535.583	80.004	19.994	103.865	20.044	3.926	0.518
898.500	536.382	80.004	19.993	103.865	20.043	3.990	0.508
900.000	537.126	80.005	19.993	103.868	20.046	3.784	0.484
901.500	537.903	80.006	19.993	103.870	20.045	3.853	0.515
903.000	538.654	80.005	19.993	103.874	20.045	3.875	0.506
904.500	539.422	80.005	19.994	103.873	20.046	3.799	0.516
906.000	540.173	80.003	19.993	103.873	20.048	3.646	0.509
907.500	540.962	80.004	19.993	103.874	20.049	3.580	0.538
909.000	541.727	80.005	19.993	103.873	20.046	3.764	0.522
910.500	542.514	80.004	19.993	103.873	20.045	3.859	0.510
912.000	543.258	80.006	19.994	103.870	20.047	3.735	0.514
913.500	544.023	80.004	19.995	103.872	20.046	3.811	0.492
915.000	544.800	80.005	19.992	103.873	20.044	3.924	0.519
916.500	545.538	80.005	19.994	103.872	20.047	3.740	0.500
918.000	546.292	80.004	19.993	103.872	20.045	3.848	0.523
919.500	547.101	80.005	19.992	103.873	20.043	3.990	0.524
921.000	547.871	80.005	19.992	103.869	20.045	3.833	0.502
922.500	548.623	80.004	19.993	103.874	20.046	3.768	0.498
924.000	549.435	80.004	19.993	103.876	20.046	3.802	0.519
925.500	550.178	80.004	19.993	103.876	20.048	3.644	0.475
927.000	550.999	80.003	19.994	103.879	20.047	3.729	0.533
928.500	551.761	80.003	19.992	103.875	20.046	3.786	0.512
930.000	552.509	80.003	19.993	103.875	20.047	3.757	0.494
931.500	553.306	80.004	19.993	103.876	20.048	3.640	0.537
933.000	554.063	80.004	19.993	103.878	20.046	3.800	0.531
934.500	554.842	80.004	19.993	103.878	20.046	3.786	0.504
936.000	555.623	80.006	19.993	103.880	20.048	3.640	0.532
937.500	556.364	80.005	19.994	103.878	20.051	3.485	0.505
939.000	557.206	80.005	19.994	103.875	20.049	3.598	0.558
940.500	557.959	80.004	19.993	103.873	20.050	3.531	0.539
942.000	558.804	80.005	19.993	103.872	20.050	3.545	0.534
943.500	559.508	80.004	19.994	103.871	20.048	3.645	0.481
945.000	560.312	80.005	19.994	103.870	20.047	3.751	0.527
946.500	561.091	80.004	19.995	103.871	20.048	3.694	0.545
948.000	561.828	80.005	19.993	103.870	20.046	3.800	0.491
949.500	562.651	80.005	19.993	103.873	20.047	3.709	0.516
951.000	563.401	80.005	19.992	103.873	20.044	3.920	0.500
952.500	564.176	80.005	19.995	103.870	20.045	3.838	0.510
954.000	564.961	80.004	19.995	103.869	20.046	3.808	0.534
955.500	565.720	80.005	19.993	103.867	20.047	3.700	0.513
957.000	566.498	80.008	19.991	103.865	20.048	3.685	0.517
958.500	567.296	80.006	19.995	103.869	20.045	3.873	0.535
960.000	568.078	80.003	19.994	103.864	20.044	3.959	0.519
961.500	568.817	80.004	19.994	103.866	20.044	3.924	0.514
963.000	569.552	80.006	19.994	103.868	20.043	4.019	0.459
964.500	570.345	80.007	19.995	103.871	20.045	3.895	0.563
966.000	571.106	80.007	19.994	103.872	20.046	3.782	0.510
967.500	571.857	80.005	19.994	103.867	20.044	3.906	0.503
969.000	572.569	80.007	19.992	103.866	20.045	3.884	0.506
970.500	573.363	80.006	19.994	103.870	20.044	3.926	0.534
972.000	574.120	80.006	19.995	103.869	20.046	3.768	0.505
973.500	574.914	80.006	19.994	103.870	20.042	4.075	0.519
975.000	575.688	80.006	19.996	103.870	20.043	3.984	0.521
976.500	576.415	80.005	19.994	103.870	20.042	4.034	0.499
978.000	577.181	80.003	19.994	103.871	20.045	3.835	0.508
979.500	577.935	80.004	19.993	103.870	20.043	3.970	0.490
981.000	578.666	80.005	19.992	103.871	20.043	3.972	0.475
982.500	579.479	80.003	19.995	103.874	20.042	4.083	0.526
984.000	580.187	80.005	19.994	103.874	20.044	3.930	0.477
985.500	580.946	80.004	19.993	103.871	20.044	3.946	0.487
987.000	581.670	80.004	19.993	103.874	20.043	4.021	0.493
988.500	582.452	80.004	19.993	103.873	20.043	3.976	0.509
990.000	583.177	80.003	19.994	103.871	20.043	4.009	0.510
991.500	583.921	80.006	19.993	103.877	20.041	4.147	0.517
993.000	584.692	80.005	19.991	103.882	20.042	4.087	0.508
994.500	585.432	80.005	19.993	103.879	20.042	4.083	0.487
996.000	586.206	80.005	19.993	103.876	20.042	4.090	0.528
997.500	586.938	80.004	19.993	103.876	20.041	4.112	0.496
999.000	587.672	80.005	19.992	103.886	20.043	4.012	0.514
1000.500	588.419	80.004	19.992	103.895	20.040	4.176	0.481
1002.000	589.168	80.004	19.995	103.893	20.041	4.112	0.498
1003.500	589.998	80.006	19.994	103.881	20.042	4.088	0.534
1005.000	590.699	80.005	19.993	103.881	20.040	4.219	0.479
1006.500	591.481	80.003	19.993	103.877	20.041	4.159	0.528
1008.000	592.183	80.003	19.994	103.871	20.043	4.015	0.508
1009.500	592.985	80.002	19.993	103.871	20.041	4.152	0.500
1011.000	593.723	80.000	19.993	103.874	20.042	4.057	0.481
1012.500	594.519	80.004	19.994	103.872	20.043	4.026	0.533
1014.000	595.290	80.003	19.990	103.873	20.041	4.159	0.524
1015.500	596.084	80.004	19.992	103.873	20.042	4.039	0.512
1017.000	596.793	80.002	19.993	103.874	20.040	4.221	0.475
1018.500	597.590	80.005	19.993	103.874	20.039	4.259	0.498
1020.000	598.325	80.005	19.994	103.878	20.041	4.134	0.473
1021.500	599.106	80.004	19.993	103.879	20.043	4.021	0.528
1023.000	599.861	80.005	19.992	103.874	20.043	3.986	0.482
1024.499	600.588	80.006	19.992	103.872	20.037	4.383	0.476
1025.999	601.327	80.006	19.993	103.873	20.041	4.139	0.456
1027.499	602.135	80.008	19.992	103.864	20.033	4.637	0.521
1028.999	602.892	80.009	19.993	103.866	20.026	5.098	0.528
1030.500	603.671	80.005	19.994	103.870	20.036	4.454	0.530
1031.999	604.387	80.006	19.994	103.869	20.042	4.079	0.450
1033.499	605.181	80.006	19.994	103.873	20.040	4.190	0.538
1034.999	605.917	80.004	19.993	103.874	20.039	4.289	0.534
1036.499	606.757	80.009	19.993	103.872	20.037	4.411	0.540
1037.999	607.609	80.003	19.990	103.872	20.040	4.167	0.466
1039.499	608.322	80.009	19.992	103.872	20.037	4.407	0.645
1040.999	609.092	80.003	19.996	103.873	20.039	4.249	0.586
1042.499	609.519	80.005	19.994	103.871	20.043	4.010	0.334
1043.999	610.356	80.004	19.995	103.871	20.041	4.150	0.299
1045.500	611.715	80.005	19.995	103.872	20.037	4.400	0.578
1046.999	612.023	80.008	19.993	103.870	20.036	4.493	0.423
1048.499	612.881	80.009	19.991	103.871	20.039	4.270	0.542
1049.999	613.580	80.006	19.993	103.871	20.040	4.216	0.491
1051.499	614.454	80.006	19.993	103.871	20.037	4.389	0.555
1052.999	615.207	80.005	19.995	103.876	20.039	4.251	0.607
1054.499	615.927	80.007	19.993	103.878	20.036	4.484	0.575
1055.999	616.695	80.005	19.992	103.873	20.038	4.332	0.521
1057.500	617.482	80.006	19.992	103.873	20.040	4.167	0.501
1059.000	618.189	80.003	19.993	103.873	20.040	4.225	0.459
1060.500	619.016	80.004	19.993	103.873	20.038	4.340	0.582
1061.999	619.738	80.005	19.994	103.884	20.037	4.412	0.480
1063.499	620.479	80.004	19.994	103.883	20.039	4.283	0.477
1064.999	621.203	80.002	19.993	103.874	20.037	4.371	0.486
1066.500	621.932	80.003	19.994	103.872	20.036	4.438	0.504
1067.999	622.715	80.004	19.994	103.871	20.039	4.265	0.520
1069.499	623.469	80.003	19.997	103.872	20.040	4.174	0.529
1070.999	624.170	80.004	19.993	103.875	20.039	4.276	0.503
1072.499	624.951	80.001	19.995	103.874	20.037	4.400	0.500
1074.000	625.695	80.004	19.995	103.869	20.037	4.422	0.469
1075.499	626.438	80.005	19.994	103.871	20.038	4.323	0.502
1076.999	627.278	80.004	19.995	103.871	20.037	4.403	0.521
1078.499	628.000	80.005	19.993	103.871	20.037	4.374	0.480
1079.999	628.785	80.006	19.993	103.872	20.038	4.320	0.511
1081.499	629.527	80.005	19.992	103.876	20.036	4.456	0.518
1082.999	630.326	80.007	19.994	103.877	20.037	4.409	0.513
1084.499	631.047	80.005	19.993	103.878	20.037	4.373	0.486
1086.000	631.804	80.005	19.995	103.875	20.037	4.395	0.489
1087.499	632.517	80.004	19.994	103.873	20.039	4.238	0.491
1088.999	633.273	80.005	19.994	103.873	20.033	4.635	0.516
1090.499	634.018	80.005	19.994	103.874	20.035	4.524	0.513
1091.999	634.813	80.004	19.994	103.872	20.036	4.442	0.503
1093.500	635.591	80.005	19.993	103.873	20.035	4.561	0.519
1094.999	636.315	80.005	19.994	103.883	20.033	4.649	0.486
1096.499	637.053	80.005	19.993	103.890	20.035	4.499	0.515
1097.999	637.828	80.005	19.994	103.878	20.035	4.553	0.500
1099.499	638.578	80.005	19.993	103.883	20.035	4.520	0.503
1100.999	639.348	80.004	19.993	103.890	20.033	4.658	0.521
1102.499	640.081	80.004	19.994	103.888	20.034	4.621	0.493
1103.999	640.794	80.002	19.996	103.897	20.036	4.463	0.462
1105.500	641.562	80.006	19.993	103.899	20.033	4.682	0.486
1107.000	642.319	80.005	19.995	103.885	20.034	4.569	0.531
1108.499	643.039	80.007	19.993	103.882	20.038	4.343	0.493
1109.999	643.794	80.006	19.992	103.901	20.033	4.634	0.523
1111.500	644.537	80.006	19.995	103.910	20.036	4.476	0.520
1113.000	645.274	80.005	19.993	103.899	20.034	4.604	0.470
1114.499	646.017	80.002	19.997	103.897	20.037	4.423	0.500
1116.001	646.741	80.005	19.992	103.906	20.036	4.485	0.486
1117.499	647.474	80.006	19.992	103.911	20.035	4.564	0.471
1118.999	648.220	80.004	19.992	103.908	20.041	4.146	0.505
1120.499	648.964	80.005	19.993	103.905	20.031	4.775	0.504
1122.000	649.743	80.005	19.994	103.907	20.035	4.531	0.510
1123.499	650.436	80.003	19.994	103.907	20.034	4.622	0.454
1125.000	651.196	80.005	19.993	103.907	20.032	4.724	0.535
1126.499	651.961	80.007	19.995	103.913	20.032	4.733	0.477
1127.999	652.714	80.006	19.993	103.914	20.032	4.748	0.531
1129.499	653.457	80.012	19.987	103.915	20.033	4.651	0.439
1131.000	654.261	80.006	19.993	103.915	20.032	4.702	0.517
1132.499	654.777	80.006	19.995	103.912	20.031	4.811	0.287
1133.999	655.484	80.008	19.995	103.909	20.035	4.529	0.445
1135.499	656.408	80.007	19.993	103.907	20.030	4.868	0.556
1136.999	657.197	80.005	19.994	103.906	20.031	4.813	0.473
1138.499	657.881	80.006	19.994	103.908	20.032	4.719	0.475
1140.000	658.649	80.006	19.995	103.910	20.035	4.522	0.528
1141.500	659.424	80.003	19.994	103.910	20.032	4.759	0.501
1142.999	660.139	80.006	19.993	103.910	20.027	5.098	0.494
1144.501	660.940	80.004	19.996	103.913	20.030	4.838	0.518
1145.999	661.719	80.004	19.994	103.914	20.029	4.940	0.503
1147.499	662.443	80.007	19.993	103.913	20.033	4.641	0.483
1148.999	663.255	80.006	19.991	103.916	20.030	4.857	0.520
1150.499	663.999	80.003	19.996	103.918	20.028	5.010	0.494
1151.999	664.741	80.008	19.990	103.925	20.029	4.900	0.501
1153.499	665.515	80.003	19.993	103.922	20.028	5.008	0.520
1154.999	666.288	80.005	19.993	103.926	20.029	4.937	0.501
1156.499	667.058	80.004	19.991	103.920	20.028	4.983	0.516
1157.999	667.817	80.006	19.993	103.932	20.028	4.977	0.509
1159.499	668.637	80.006	19.994	103.946	20.027	5.061	0.548
1160.999	669.396	80.005	19.993	103.947	20.027	5.048	0.500
1162.499	670.173	80.009	19.993	103.944	20.028	4.992	0.496
1164.000	670.950	80.004	19.996	103.936	20.027	5.072	0.537
1165.499	671.653	80.002	19.997	103.945	20.028	4.994	0.506
1166.999	672.467	80.004	19.994	103.945	20.020	5.545	0.533
1168.499	673.216	80.001	19.999	103.948	20.026	5.149	0.479
1169.999	673.993	80.001	19.997	103.948	20.027	5.076	0.514
1171.499	674.790	79.999	19.997	103.948	20.021	5.498	0.514
1172.999	675.602	80.006	19.993	103.951	20.022	5.416	0.530
1174.501	676.346	80.005	19.992	103.955	20.021	5.472	0.484
1176.000	677.078	80.004	19.993	103.952	20.021	5.438	0.503
1177.499	677.922	80.003	19.997	103.955	20.022	5.385	0.528
1178.999	678.588	80.003	19.993	103.957	20.022	5.391	0.480
1180.500	679.389	80.003	19.990	103.951	20.021	5.491	0.530
1181.999	680.206	80.003	19.992	103.963	20.021	5.440	0.550
1183.499	680.926	80.007	19.984	103.965	20.020	5.553	0.499
1184.999	682.035	80.006	19.990	103.963	20.022	5.386	0.693
1186.499	682.410	80.007	19.994	103.965	20.019	5.603	0.416
1188.000	683.245	79.998	19.994	103.969	20.019	5.579	0.524
1189.499	683.970	80.007	19.991	103.979	20.020	5.556	0.503
1191.000	684.807	80.004	19.993	103.983	20.021	5.461	0.561
1192.500	685.503	80.003	19.997	103.983	20.021	5.446	0.457
1193.999	686.310	80.004	19.999	103.983	20.020	5.546	0.526
1195.499	687.077	80.002	20.000	103.985	20.021	5.481	0.527
1196.999	687.841	80.002	19.997	103.987	20.016	5.787	0.508
1198.499	688.596	80.008	19.991	103.989	20.020	5.561	0.516
1199.999	689.373	80.006	19.992	103.990	20.016	5.804	0.507
1201.499	690.134	80.006	19.993	103.987	20.016	5.824	0.493
1203.000	690.861	80.003	19.995	103.988	20.019	5.634	0.476
1204.500	691.662	80.002	20.000	103.987	20.016	5.808	0.546
1205.999	692.387	80.006	19.996	103.986	20.019	5.628	0.500
1207.501	693.128	80.000	19.998	103.992	20.017	5.754	0.476
1208.999	693.893	80.006	19.994	103.986	20.019	5.577	0.510
1210.499	694.606	80.006	19.999	103.987	20.018	5.670	0.462
1211.999	695.388	80.006	19.993	103.988	20.015	5.842	0.527
1213.500	696.138	80.006	19.992	103.992	20.017	5.756	0.503
1214.999	696.879	80.005	19.996	104.005	20.015	5.861	0.484
1216.499	697.625	80.006	19.996	104.010	20.013	5.988	0.493
1218.000	698.397	80.003	19.996	104.009	20.011	6.118	0.501
1219.499	699.123	80.010	19.994	104.011	20.011	6.135	0.476
1220.999	699.904	80.006	19.992	104.020	20.009	6.266	0.523
1222.500	700.611	79.998	20.001	104.020	20.010	6.209	0.481
1223.999	701.407	80.009	19.992	104.022	20.009	6.287	0.529
1225.500	702.132	80.005	19.998	104.029	20.008	6.360	0.490
1226.999	702.863	80.005	19.992	104.026	20.009	6.251	0.486
1228.499	703.648	80.005	19.994	104.028	20.011	6.114	0.524
1229.999	704.414	80.006	19.994	104.035	20.008	6.336	0.502
1231.499	705.164	80.005	19.993	104.032	20.008	6.317	0.497
1232.999	705.896	80.007	19.992	104.048	20.010	6.182	0.493
1234.500	706.647	80.005	19.992	104.051	20.007	6.425	0.478
1235.999	707.393	80.003	19.994	104.051	20.011	6.144	0.514
1237.499	708.157	80.005	19.993	104.063	20.009	6.286	0.500
1238.999	708.943	80.002	19.997	104.062	20.008	6.318	0.531
1240.499	709.636	80.010	19.990	104.066	20.009	6.270	0.467
1241.999	710.401	80.004	19.996	104.068	20.006	6.486	0.492
1243.499	711.167	80.004	19.990	104.065	20.008	6.353	0.505
1244.999	711.869	80.004	19.998	104.069	20.003	6.693	0.464
1246.499	712.638	80.004	19.995	104.069	20.005	6.563	0.508
1247.999	713.400	80.004	19.995	104.071	20.005	6.567	0.504
1249.500	714.135	80.007	19.996	104.072	20.005	6.540	0.490
1250.999	714.910	80.005	19.996	104.075	20.004	6.590	0.510
1252.500	715.646	80.004	19.995	104.083	20.002	6.723	0.487
1253.999	716.422	80.004	19.995	104.093	20.001	6.807	0.524
1255.500	717.130	80.004	19.994	104.092	20.004	6.621	0.495
1256.999	717.868	80.002	19.994	104.093	20.001	6.789	0.501
1258.499	718.599	79.997	20.001	104.087	20.001	6.795	0.480
1259.999	719.343	80.005	19.997	104.090	19.999	6.951	0.505
1261.500	720.108	80.004	19.994	104.104	19.997	7.059	0.489
1263.001	720.851	80.005	19.995	104.103	19.997	7.105	0.493
1264.499	721.598	80.008	19.988	104.103	19.994	7.295	0.491
1265.999	722.312	80.004	19.993	104.107	19.997	7.091	0.466
1267.499	723.115	80.005	19.987	104.108	19.996	7.143	0.541
1268.999	723.828	80.005	19.993	104.120	19.994	7.264	0.460
1270.499	724.575	80.007	19.994	104.126	19.992	7.385	0.490
1271.999	725.309	80.007	19.993	104.134	19.993	7.358	0.492
1273.500	726.065	80.005	19.992	104.141	19.992	7.407	0.517
1274.999	726.830	80.007	19.987	104.141	19.992	7.393	0.506
1276.499	727.557	80.004	19.998	104.140	19.991	7.476	0.492
1278.000	728.314	80.009	19.997	104.138	19.989	7.599	0.486
1279.500	729.054	80.001	19.994	104.140	19.988	7.699	0.497
1280.999	729.843	80.005	19.992	104.141	19.991	7.489	0.533
1282.499	730.607	80.007	19.996	104.144	19.987	7.748	0.523
1284.001	731.381	80.005	19.997	104.147	19.991	7.515	0.527
1285.499	732.120	80.006	19.994	104.148	19.989	7.611	0.490
1286.999	732.908	80.007	19.995	104.159	19.986	7.834	0.524
1288.499	733.646	80.006	19.998	104.165	19.985	7.876	0.510
1289.999	734.430	80.007	19.993	104.169	19.982	8.062	0.514
1291.499	735.204	80.011	19.993	104.171	19.981	8.181	0.533
1292.999	735.999	80.010	19.992	104.178	19.984	7.961	0.528
1294.499	736.747	80.008	19.992	104.180	19.977	8.454	0.530
1295.999	737.516	80.003	19.996	104.180	19.985	7.879	0.530
1297.499	738.337	80.007	19.989	104.181	19.978	8.327	0.528
1298.999	739.107	80.007	19.992	104.185	19.979	8.285	0.502
1300.500	739.874	80.008	19.990	104.202	19.979	8.270	0.494
1302.000	740.619	80.008	19.995	104.207	19.979	8.272	0.502
1303.500	741.384	80.006	19.992	104.215	19.981	8.149	0.519
1304.999	742.119	80.006	19.993	104.222	19.977	8.411	0.508
1306.500	742.925	80.002	19.996	104.224	19.979	8.261	0.525
1307.500	743.489	80.004	19.996	104.224	19.975	8.539	0.549