File: 01_Data/Concrete_Block/MCC/Concrete_Block_MCC_30K_min_220224_R2.txt
Sample ID:	C:\MCC\MCC Cal\Test\Concrete_Block_MCC_30K_min_220224_R2.txt
Sample Weight (mg):	4.42
Heating Rate (C/s):	0.5
Combustor Temp (C):	900
N2 Flow Rate (cc/min):	80
O2 Flow Rate (cc/min):	20
Calibration File:	C:\MCC\MCC Cal\Coeff1 JN10440_30_210304.txt.txt
T Correction Coefficients:	0	1.024463	0
Time Shift (s):	14
*
Time (s)	Temperature (C)	N2 flow rate (cc/min)	O2 flow rate (cc/min)	Flow Rate (cc/min)	Oxygen (%)	HRR (W/g)	Heating rate (C/s)
0.000	112.407	80.006	19.995	103.792	20.035	-0.182	-0.016
2.000	112.382	80.005	19.993	103.788	20.032	0.030	-0.015
4.000	112.387	80.005	19.994	103.791	20.030	0.144	-0.019
6.000	112.404	80.006	19.995	103.789	20.031	0.104	0.011
8.000	112.434	80.005	19.994	103.786	20.033	-0.072	0.028
10.000	112.376	80.004	19.993	103.790	20.032	-0.022	-0.029
12.000	112.404	80.005	19.994	103.784	20.032	-0.022	0.009
14.000	112.388	80.004	19.994	103.792	20.027	0.371	-0.028
16.000	112.357	80.004	19.994	103.821	20.028	0.263	-0.006
18.000	112.361	80.003	19.995	103.833	20.027	0.397	-0.007
20.000	112.398	80.004	19.994	103.865	20.020	0.910	0.011
22.000	112.443	80.005	19.994	103.877	20.017	1.081	0.034
24.000	112.532	80.004	19.995	103.908	20.009	1.689	0.053
26.000	112.591	80.004	19.994	103.920	20.008	1.765	0.027
28.000	112.755	80.005	19.994	103.950	20.007	1.829	0.064
30.000	112.917	80.006	19.993	103.960	20.004	2.066	0.092
32.000	113.114	80.005	19.993	103.977	20.005	2.003	0.089
34.000	113.312	80.005	19.993	103.987	20.000	2.383	0.097
36.000	113.576	80.006	19.994	103.998	19.997	2.569	0.119
38.000	113.890	80.004	19.993	103.991	19.997	2.580	0.145
40.000	114.190	80.004	19.994	104.003	19.992	2.958	0.178
42.000	114.613	80.005	19.993	104.022	19.989	3.141	0.201
44.000	114.924	80.003	19.994	103.949	19.987	3.300	0.201
46.000	115.318	80.004	19.994	104.032	19.992	2.913	0.202
48.000	115.744	80.003	19.994	104.066	19.991	3.023	0.200
50.000	116.205	80.003	19.994	104.011	19.989	3.183	0.201
52.000	116.694	80.003	19.993	103.994	19.989	3.188	0.251
54.000	117.138	80.003	19.994	104.008	19.987	3.273	0.275
56.000	117.693	80.005	19.994	104.023	19.989	3.185	0.294
58.000	118.189	80.006	19.994	104.023	19.989	3.195	0.250
60.000	118.730	80.007	19.993	104.014	19.990	3.053	0.268
62.000	119.296	80.007	19.994	104.010	19.990	3.065	0.261
64.000	119.856	80.006	19.994	104.015	19.991	3.015	0.305
66.000	120.444	80.006	19.994	103.996	19.989	3.196	0.267
68.000	121.005	80.004	19.994	104.001	19.991	2.991	0.270
70.000	121.642	80.005	19.993	104.002	19.989	3.168	0.320
72.001	122.308	80.005	19.994	104.026	19.989	3.144	0.331
74.000	122.932	80.004	19.994	104.026	19.990	3.090	0.309
76.000	123.636	80.006	19.994	104.026	19.989	3.126	0.357
78.000	124.312	80.005	19.993	104.027	19.987	3.274	0.338
80.000	125.015	80.006	19.994	104.027	19.986	3.405	0.339
82.000	125.680	80.006	19.994	104.026	19.988	3.238	0.341
84.000	126.403	80.007	19.993	104.031	19.987	3.338	0.330
86.000	127.112	80.009	19.994	104.036	19.986	3.379	0.357
88.000	127.843	80.008	19.994	104.026	19.985	3.451	0.366
90.000	128.623	80.006	19.993	104.028	19.984	3.523	0.375
92.000	129.394	80.006	19.993	104.031	19.990	3.084	0.387
94.000	130.140	80.005	19.993	104.028	19.988	3.212	0.375
96.000	130.934	80.004	19.994	104.037	19.984	3.563	0.407
98.000	131.734	80.004	19.993	104.042	19.985	3.437	0.383
100.000	132.535	80.004	19.993	104.035	19.983	3.580	0.416
102.000	133.337	80.004	19.994	104.037	19.983	3.624	0.414
104.000	134.204	80.005	19.994	104.044	19.981	3.772	0.426
106.000	135.075	80.002	19.995	104.040	19.982	3.660	0.440
108.001	135.903	80.004	19.994	104.046	19.981	3.757	0.451
110.000	136.754	80.005	19.994	104.052	19.982	3.649	0.432
112.000	137.637	80.004	19.994	104.056	19.981	3.731	0.472
114.000	138.492	80.005	19.994	104.048	19.983	3.606	0.397
116.000	139.410	80.005	19.995	104.053	19.981	3.763	0.439
118.000	140.300	80.003	19.994	104.061	19.987	3.271	0.445
120.000	141.252	80.005	19.994	104.063	19.980	3.817	0.496
122.000	142.123	80.005	19.993	104.057	19.982	3.696	0.441
124.001	143.045	80.004	19.993	104.063	19.985	3.446	0.489
126.000	143.958	80.003	19.994	104.062	19.980	3.813	0.466
128.000	144.921	80.006	19.993	104.055	19.983	3.598	0.471
130.000	145.880	80.003	19.994	104.059	19.981	3.734	0.454
132.000	146.824	80.003	19.994	104.062	19.982	3.666	0.472
134.000	147.819	80.005	19.994	104.045	19.982	3.654	0.435
136.000	148.843	80.005	19.994	104.058	19.986	3.407	0.450
138.000	149.780	80.005	19.994	104.058	19.987	3.333	0.477
140.000	150.753	80.007	19.994	104.052	19.984	3.547	0.516
142.000	151.781	80.007	19.996	104.055	19.982	3.671	0.512
144.000	152.753	80.006	19.994	104.052	19.982	3.672	0.529
146.000	153.748	80.007	19.994	104.053	19.986	3.381	0.481
148.000	154.767	80.006	19.993	104.055	19.985	3.476	0.532
150.000	155.772	80.005	19.994	104.039	19.984	3.501	0.521
152.000	156.779	80.006	19.994	104.051	19.983	3.632	0.510
154.000	157.772	80.005	19.994	104.053	19.983	3.603	0.486
156.000	158.772	80.007	19.994	104.038	19.983	3.615	0.468
158.000	159.829	80.005	19.993	104.053	19.983	3.607	0.520
160.000	160.865	80.006	19.994	104.041	19.984	3.519	0.540
162.000	161.911	80.005	19.993	104.043	19.985	3.419	0.516
164.000	162.947	80.006	19.993	104.034	19.986	3.360	0.534
166.000	163.917	80.007	19.993	104.030	19.990	3.116	0.471
168.000	165.028	80.007	19.995	104.038	19.987	3.294	0.536
170.000	166.076	80.005	19.995	104.031	19.986	3.386	0.547
172.000	167.122	80.007	19.994	104.029	19.990	3.106	0.468
174.000	168.115	80.005	19.994	104.028	19.990	3.101	0.502
176.000	169.147	80.004	19.995	104.030	19.991	3.001	0.508
178.000	170.168	80.004	19.994	104.030	19.990	3.053	0.508
180.000	171.226	80.005	19.994	104.026	19.992	2.903	0.513
182.000	172.237	80.004	19.994	104.030	19.992	2.903	0.503
184.000	173.296	80.003	19.994	104.021	19.993	2.858	0.484
186.000	174.328	80.003	19.994	104.022	19.994	2.786	0.498
188.000	175.370	80.004	19.994	104.025	19.996	2.617	0.502
190.000	176.402	80.003	19.994	104.016	19.995	2.746	0.523
192.000	177.384	80.004	19.994	104.026	19.993	2.856	0.500
194.000	178.465	80.004	19.995	104.011	19.997	2.607	0.541
196.000	179.521	80.005	19.995	104.002	19.995	2.704	0.553
198.000	180.502	80.004	19.994	104.003	19.994	2.765	0.501
200.000	181.527	80.003	19.994	103.994	19.992	2.914	0.478
202.000	182.554	80.005	19.994	103.993	19.992	2.924	0.531
204.000	183.518	80.004	19.995	103.997	19.990	3.054	0.470
206.000	184.560	80.002	19.995	103.995	19.993	2.898	0.521
208.000	185.586	80.002	19.993	103.991	19.993	2.854	0.525
210.000	186.608	80.003	19.993	103.987	19.996	2.609	0.523
212.000	187.636	80.003	19.994	103.990	19.996	2.649	0.488
214.000	188.576	80.006	19.993	103.991	19.996	2.671	0.474
216.000	189.598	80.004	19.994	103.987	19.998	2.533	0.514
218.000	190.611	80.007	19.994	103.988	19.996	2.679	0.521
220.000	191.629	80.006	19.994	103.989	19.998	2.533	0.516
222.000	192.644	80.006	19.993	103.988	19.995	2.751	0.540
224.000	193.619	80.005	19.994	103.989	19.998	2.533	0.515
226.000	194.575	80.005	19.993	103.987	19.998	2.477	0.489
228.000	195.542	80.005	19.993	103.986	19.998	2.499	0.497
230.000	196.555	80.007	19.993	103.988	19.997	2.561	0.498
232.000	197.501	80.006	19.993	103.988	19.998	2.491	0.506
234.000	198.527	80.005	19.993	103.988	19.999	2.457	0.518
236.000	199.491	80.006	19.996	103.985	19.999	2.405	0.494
238.000	200.484	80.006	19.993	103.992	20.000	2.364	0.494
240.000	201.449	80.004	19.995	103.989	20.001	2.264	0.474
242.000	202.377	80.006	19.993	103.986	19.998	2.493	0.456
244.000	203.344	80.007	19.993	103.990	19.997	2.563	0.452
246.000	204.369	80.008	19.992	103.989	19.996	2.623	0.540
248.000	205.306	80.007	19.993	103.986	20.000	2.356	0.463
250.000	206.305	80.007	19.993	103.986	19.999	2.408	0.516
252.000	207.251	80.008	19.991	103.990	20.000	2.344	0.477
254.000	208.237	80.006	19.992	103.982	20.001	2.278	0.517
256.000	209.215	80.007	19.993	103.985	20.003	2.108	0.447
258.000	210.207	80.004	19.993	103.975	20.000	2.348	0.483
260.000	211.159	80.005	19.994	103.983	20.001	2.244	0.487
262.000	212.172	80.003	19.994	103.984	20.002	2.230	0.542
264.000	213.168	80.003	19.994	103.978	19.999	2.427	0.511
266.000	214.082	80.004	19.994	103.985	20.004	2.059	0.452
268.000	215.072	80.005	19.994	103.987	19.999	2.414	0.499
270.000	216.050	80.005	19.993	103.985	20.003	2.119	0.495
272.000	217.033	80.004	19.995	103.982	20.001	2.248	0.474
274.000	217.990	80.006	19.994	103.986	20.001	2.280	0.488
276.000	219.006	80.006	19.994	103.983	20.005	1.979	0.503
278.000	219.966	80.005	19.994	103.983	20.001	2.300	0.476
280.000	220.927	80.006	19.993	103.980	20.004	2.023	0.462
282.000	221.920	80.005	19.994	103.969	20.004	2.084	0.488
284.000	222.917	80.004	19.994	103.972	20.002	2.238	0.505
286.000	223.884	80.004	19.993	103.980	20.001	2.272	0.497
288.000	224.880	80.002	19.994	103.972	20.000	2.352	0.481
290.000	225.901	80.004	19.993	103.964	20.002	2.236	0.505
292.000	226.841	80.004	19.995	103.975	20.003	2.103	0.514
294.000	227.827	80.004	19.995	103.984	20.004	2.065	0.478
296.000	228.836	80.002	19.995	103.984	20.003	2.146	0.516
298.000	229.862	80.003	19.994	103.981	20.003	2.146	0.502
300.000	230.813	80.005	19.994	103.976	20.005	1.997	0.505
302.000	231.840	80.004	19.994	103.972	20.005	2.003	0.510
304.000	232.813	80.006	19.994	103.974	20.004	2.047	0.486
306.000	233.811	80.005	19.993	103.982	20.007	1.863	0.513
308.000	234.830	80.006	19.993	103.986	20.005	1.963	0.497
310.000	235.827	80.006	19.993	103.984	20.007	1.829	0.498
312.000	236.785	80.007	19.993	103.967	20.003	2.134	0.473
314.000	237.809	80.006	19.993	103.970	20.005	2.015	0.501
316.000	238.812	80.005	19.993	103.965	20.004	2.029	0.484
318.000	239.796	80.005	19.993	103.971	20.003	2.147	0.476
320.000	240.820	80.005	19.993	103.970	20.006	1.937	0.504
322.000	241.784	80.005	19.993	103.988	20.005	1.967	0.499
324.000	242.775	80.005	19.993	103.985	20.009	1.706	0.462
326.000	243.811	80.005	19.994	103.961	20.007	1.866	0.508
328.000	244.771	80.006	19.994	103.963	20.010	1.598	0.480
330.000	245.800	80.007	19.992	103.962	20.005	1.965	0.510
332.000	246.790	80.007	19.993	103.960	20.007	1.800	0.524
334.000	247.805	80.007	19.994	103.952	20.006	1.877	0.483
336.000	248.821	80.007	19.993	103.954	20.008	1.754	0.475
338.000	249.866	80.006	19.993	103.954	20.009	1.708	0.538
340.000	250.872	80.005	19.993	103.949	20.009	1.714	0.478
342.000	251.939	80.005	19.993	103.952	20.008	1.728	0.518
344.000	252.915	80.005	19.993	103.955	20.011	1.532	0.518
346.000	253.892	80.005	19.993	103.962	20.011	1.572	0.485
348.000	254.899	80.004	19.993	103.962	20.011	1.572	0.475
350.000	255.911	80.005	19.995	103.951	20.011	1.516	0.486
352.000	256.904	80.005	19.994	103.951	20.011	1.550	0.515
354.000	257.929	80.005	19.994	103.949	20.013	1.399	0.491
356.000	258.928	80.004	19.994	103.949	20.010	1.600	0.498
358.000	259.947	80.004	19.994	103.957	20.012	1.435	0.467
360.000	260.944	80.005	19.993	103.955	20.012	1.437	0.512
362.000	261.948	80.006	19.993	103.951	20.012	1.437	0.500
364.000	262.948	80.005	19.993	103.953	20.011	1.556	0.530
366.000	263.933	80.005	19.994	103.952	20.013	1.429	0.491
368.000	264.949	80.004	19.993	103.952	20.011	1.554	0.508
370.000	265.948	80.005	19.994	103.954	20.010	1.612	0.473
372.000	266.953	80.003	19.994	103.952	20.010	1.584	0.511
374.000	267.935	80.004	19.994	103.952	20.012	1.465	0.518
376.000	268.967	80.005	19.993	103.953	20.010	1.616	0.539
378.000	269.933	80.003	19.995	103.952	20.015	1.269	0.511
380.000	270.960	80.004	19.994	103.945	20.012	1.449	0.481
382.000	271.965	80.005	19.995	103.953	20.014	1.351	0.489
384.000	272.960	80.005	19.994	103.952	20.013	1.413	0.486
386.000	273.980	80.005	19.998	103.949	20.014	1.315	0.506
388.000	274.948	80.006	19.995	103.949	20.017	1.123	0.481
390.000	275.971	80.006	19.995	103.952	20.016	1.203	0.473
392.000	276.986	80.006	19.995	103.947	20.015	1.229	0.511
394.000	277.992	80.006	19.994	103.947	20.014	1.347	0.518
396.000	279.012	80.004	19.993	103.945	20.016	1.193	0.527
398.000	279.949	80.006	19.994	103.944	20.013	1.413	0.477
400.000	280.988	80.006	19.994	103.948	20.013	1.407	0.488
402.000	281.933	80.006	19.994	103.948	20.014	1.341	0.489
404.000	282.938	80.007	19.993	103.950	20.013	1.405	0.490
406.000	283.969	80.009	19.993	103.944	20.014	1.327	0.485
408.000	284.959	80.007	19.993	103.946	20.018	1.052	0.489
410.000	285.989	80.009	19.994	103.946	20.017	1.124	0.490
412.000	286.969	80.006	19.993	103.948	20.015	1.275	0.505
414.000	287.967	80.009	19.994	103.944	20.017	1.121	0.501
416.000	288.966	80.007	19.995	103.946	20.015	1.229	0.484
418.000	289.977	80.007	19.994	103.947	20.016	1.201	0.498
420.000	290.983	80.006	19.994	103.936	20.018	1.016	0.532
422.000	292.033	80.003	19.993	103.931	20.016	1.185	0.542
424.000	293.019	80.004	19.993	103.949	20.017	1.135	0.487
426.000	294.001	80.004	19.995	103.944	20.016	1.185	0.511
428.000	295.024	80.004	19.994	103.939	20.014	1.323	0.506
430.000	296.008	80.005	19.992	103.944	20.017	1.098	0.459
432.000	297.049	80.006	19.993	103.935	20.018	1.010	0.489
434.000	298.031	80.005	19.993	103.936	20.014	1.355	0.531
436.000	299.050	80.004	19.993	103.947	20.017	1.084	0.484
438.000	300.059	80.006	19.993	103.945	20.012	1.457	0.489
440.000	301.036	80.005	19.992	103.940	20.014	1.297	0.488
442.000	302.051	80.006	19.993	103.935	20.015	1.231	0.524
444.000	303.050	80.005	19.992	103.938	20.014	1.303	0.516
446.000	304.084	80.004	19.994	103.943	20.014	1.307	0.518
448.000	305.044	80.005	19.993	103.929	20.017	1.072	0.485
450.000	306.070	80.004	19.993	103.928	20.020	0.890	0.512
452.000	307.061	80.005	19.995	103.947	20.019	0.940	0.471
454.000	308.075	80.005	19.993	103.940	20.017	1.100	0.541
456.000	309.085	80.003	19.995	103.934	20.019	0.936	0.471
458.000	310.119	80.004	19.994	103.938	20.020	0.894	0.535
460.000	311.095	80.004	19.994	103.920	20.022	0.762	0.509
462.000	312.137	80.005	19.994	103.926	20.021	0.826	0.534
464.000	313.158	80.004	19.994	103.931	20.021	0.784	0.509
466.000	314.153	80.006	19.993	103.923	20.025	0.513	0.493
468.000	315.185	80.007	19.994	103.925	20.025	0.527	0.483
470.000	316.161	80.005	19.994	103.929	20.021	0.806	0.481
472.000	317.189	80.007	19.994	103.913	20.022	0.731	0.487
474.000	318.165	80.005	19.995	103.915	20.019	0.936	0.489
476.000	319.208	80.004	19.995	103.939	20.019	0.980	0.503
478.000	320.227	80.005	19.995	103.926	20.020	0.848	0.528
480.000	321.227	80.005	19.994	103.933	20.022	0.750	0.500
482.000	322.252	80.004	19.994	103.924	20.022	0.748	0.476
484.000	323.264	80.005	19.995	103.914	20.023	0.677	0.487
486.000	324.261	80.005	19.994	103.920	20.024	0.601	0.498
488.000	325.246	80.005	19.994	103.914	20.022	0.719	0.515
490.000	326.249	80.006	19.993	103.915	20.027	0.355	0.489
492.000	327.303	80.006	19.994	103.924	20.026	0.437	0.526
494.000	328.301	80.006	19.993	103.916	20.028	0.307	0.501
496.000	329.341	80.006	19.993	103.918	20.024	0.585	0.510
498.000	330.348	80.006	19.994	103.917	20.023	0.661	0.503
500.000	331.341	80.007	19.993	103.916	20.025	0.503	0.515
502.000	332.372	80.006	19.994	103.920	20.024	0.597	0.533
504.000	333.418	80.004	19.993	103.917	20.024	0.583	0.527
506.000	334.425	80.005	19.993	103.914	20.027	0.401	0.523
508.000	335.464	80.004	19.993	103.916	20.023	0.645	0.497
510.000	336.456	80.003	19.993	103.915	20.023	0.627	0.489
512.000	337.432	80.004	19.993	103.917	20.024	0.581	0.490
514.000	338.463	80.003	19.994	103.917	20.023	0.641	0.497
516.000	339.433	80.004	19.994	103.917	20.022	0.699	0.502
518.000	340.479	80.005	19.993	103.911	20.027	0.357	0.513
520.000	341.471	80.006	19.994	103.912	20.023	0.669	0.515
522.000	342.434	80.005	19.994	103.912	20.022	0.758	0.475
524.000	343.449	80.005	19.995	103.912	20.025	0.521	0.488
526.000	344.438	80.006	19.995	103.916	20.025	0.541	0.488
528.000	345.472	80.005	19.994	103.912	20.027	0.333	0.512
530.000	346.472	80.005	19.993	103.916	20.027	0.355	0.504
532.000	347.434	80.005	19.993	103.914	20.026	0.473	0.464
534.000	348.473	80.004	19.993	103.913	20.023	0.629	0.509
536.000	349.450	80.004	19.994	103.912	20.025	0.529	0.496
538.000	350.418	80.004	19.993	103.915	20.024	0.599	0.469
540.000	351.443	80.004	19.994	103.913	20.028	0.321	0.493
542.000	352.500	80.005	19.993	103.913	20.026	0.455	0.525
544.000	353.507	80.004	19.995	103.911	20.026	0.427	0.499
546.000	354.527	80.005	19.994	103.912	20.030	0.144	0.513
548.000	355.528	80.007	19.995	103.919	20.027	0.367	0.516
550.000	356.506	80.005	19.993	103.912	20.028	0.313	0.507
552.000	357.521	80.005	19.993	103.911	20.028	0.281	0.512
554.000	358.518	80.006	19.993	103.912	20.026	0.429	0.488
556.000	359.520	80.005	19.993	103.909	20.029	0.242	0.481
558.000	360.506	80.006	19.994	103.918	20.028	0.319	0.516
560.000	361.543	80.006	19.993	103.914	20.028	0.269	0.489
562.000	362.561	80.005	19.994	103.918	20.026	0.437	0.518
564.000	363.561	80.005	19.993	103.908	20.027	0.337	0.506
566.000	364.538	80.005	19.994	103.906	20.025	0.485	0.469
568.000	365.537	80.005	19.996	103.908	20.028	0.293	0.493
570.000	366.542	80.005	19.994	103.909	20.029	0.236	0.493
572.000	367.536	80.006	19.994	103.911	20.029	0.259	0.474
574.000	368.558	80.005	19.994	103.911	20.030	0.178	0.497
576.000	369.569	80.006	19.993	103.907	20.028	0.260	0.517
578.000	370.553	80.007	19.994	103.909	20.026	0.447	0.514
580.000	371.562	80.004	19.993	103.908	20.030	0.122	0.494
582.000	372.572	80.005	19.994	103.908	20.029	0.218	0.520
584.000	373.592	80.005	19.994	103.907	20.029	0.232	0.500
586.000	374.577	80.004	19.995	103.899	20.032	0.008	0.486
588.000	375.598	80.006	19.994	103.910	20.028	0.303	0.493
590.000	376.630	80.004	19.994	103.910	20.031	0.090	0.515
592.000	377.611	80.006	19.994	103.908	20.029	0.248	0.493
594.000	378.633	80.005	19.993	103.906	20.028	0.321	0.516
596.000	379.642	80.005	19.996	103.905	20.029	0.242	0.493
598.000	380.681	80.005	19.993	103.910	20.029	0.226	0.512
600.000	381.671	80.005	19.993	103.906	20.030	0.134	0.499
602.000	382.683	80.006	19.993	103.901	20.029	0.186	0.491
604.000	383.685	80.006	19.994	103.897	20.029	0.250	0.512
606.000	384.697	80.005	19.994	103.906	20.029	0.246	0.509
608.000	385.712	80.006	19.994	103.898	20.030	0.112	0.508
610.000	386.699	80.005	19.993	103.906	20.030	0.166	0.531
612.000	387.708	80.004	19.993	103.903	20.030	0.124	0.495
614.000	388.723	80.005	19.993	103.910	20.033	-0.038	0.483
616.000	389.702	80.003	19.994	103.912	20.033	-0.072	0.499
618.000	390.724	80.003	19.993	103.910	20.032	0.024	0.521
620.000	391.738	80.004	19.993	103.906	20.032	-0.030	0.502
622.000	392.757	80.004	19.993	103.914	20.030	0.128	0.474
624.000	393.797	80.006	19.993	103.911	20.033	-0.100	0.484
626.000	394.805	80.005	19.994	103.909	20.031	0.064	0.493
628.000	395.826	80.007	19.993	103.913	20.032	0.032	0.502
630.000	396.828	80.006	19.993	103.903	20.030	0.136	0.481
632.000	397.834	80.006	19.995	103.909	20.033	-0.076	0.497
634.000	398.846	80.005	19.994	103.911	20.033	-0.044	0.512
636.000	399.828	80.005	19.993	103.910	20.033	-0.080	0.490
638.000	400.885	80.006	19.993	103.898	20.033	-0.100	0.548
640.000	401.842	80.004	19.994	103.893	20.034	-0.154	0.494
642.000	402.867	80.004	19.995	103.899	20.033	-0.090	0.487
644.000	403.867	80.006	19.995	103.900	20.033	-0.096	0.510
646.000	404.869	80.005	19.994	103.902	20.030	0.116	0.482
648.000	405.894	80.005	19.994	103.903	20.033	-0.042	0.511
650.000	406.864	80.005	19.994	103.895	20.035	-0.226	0.491
652.000	407.873	80.006	19.993	103.896	20.037	-0.387	0.495
654.000	408.843	80.007	19.993	103.892	20.034	-0.142	0.479
656.000	409.828	80.008	19.994	103.903	20.034	-0.136	0.476
658.000	410.863	80.006	19.995	103.893	20.036	-0.268	0.501
660.000	411.837	80.007	19.994	103.899	20.035	-0.210	0.468
662.000	412.845	80.006	19.995	103.897	20.035	-0.208	0.502
664.000	413.842	80.005	19.994	103.897	20.034	-0.108	0.514
666.000	414.827	80.004	19.994	103.885	20.036	-0.270	0.499
668.000	415.846	80.004	19.994	103.897	20.032	0.002	0.504
670.000	416.809	80.004	19.995	103.904	20.035	-0.246	0.466
672.000	417.820	80.004	19.995	103.904	20.035	-0.200	0.475
674.000	418.814	80.004	19.995	103.897	20.031	0.046	0.481
676.000	419.813	80.004	19.995	103.886	20.036	-0.256	0.505
678.000	420.826	80.005	19.993	103.891	20.037	-0.373	0.496
680.000	421.819	80.005	19.994	103.889	20.034	-0.132	0.506
682.000	422.812	80.004	19.992	103.894	20.036	-0.262	0.488
684.000	423.823	80.005	19.993	103.896	20.037	-0.361	0.497
686.000	424.819	80.004	19.993	103.885	20.035	-0.220	0.499
688.000	425.826	80.005	19.994	103.894	20.037	-0.335	0.507
690.000	426.870	80.005	19.993	103.888	20.037	-0.335	0.523
692.000	427.840	80.005	19.992	103.890	20.034	-0.114	0.474
694.000	428.843	80.003	19.993	103.890	20.036	-0.272	0.496
696.000	429.855	80.004	19.993	103.883	20.035	-0.242	0.493
698.000	430.805	80.004	19.993	103.894	20.039	-0.499	0.474
700.000	431.842	80.004	19.994	103.881	20.034	-0.154	0.500
702.000	432.820	80.004	19.994	103.892	20.039	-0.481	0.503
704.000	433.819	80.005	19.993	103.892	20.035	-0.240	0.474
706.000	434.862	80.003	19.994	103.890	20.040	-0.559	0.529
708.000	435.825	80.006	19.993	103.882	20.039	-0.495	0.472
710.000	436.846	80.006	19.994	103.880	20.039	-0.545	0.492
712.000	437.854	80.006	19.993	103.880	20.039	-0.505	0.489
714.000	438.821	80.008	19.993	103.884	20.036	-0.272	0.490
716.000	439.841	80.007	19.994	103.892	20.036	-0.290	0.510
718.000	440.828	80.007	19.994	103.888	20.040	-0.605	0.504
720.000	441.805	80.007	19.993	103.892	20.034	-0.168	0.485
722.000	442.809	80.006	19.993	103.882	20.034	-0.130	0.498
724.000	443.781	80.006	19.993	103.878	20.034	-0.134	0.479
726.000	444.841	80.005	19.994	103.876	20.037	-0.383	0.524
728.000	445.843	80.006	19.994	103.884	20.036	-0.272	0.523
730.000	446.845	80.006	19.994	103.889	20.038	-0.467	0.496
732.000	447.907	80.007	19.994	103.875	20.036	-0.270	0.550
734.000	448.888	80.006	19.995	103.887	20.038	-0.405	0.476
736.000	449.902	80.008	19.995	103.883	20.037	-0.353	0.509
738.000	450.865	80.008	19.994	103.879	20.037	-0.349	0.499
740.000	451.901	80.007	19.994	103.877	20.034	-0.138	0.506
742.000	452.948	80.007	19.993	103.873	20.035	-0.240	0.515
744.000	453.966	80.007	19.994	103.877	20.038	-0.449	0.514
746.000	454.995	80.006	19.994	103.884	20.037	-0.387	0.502
748.000	456.006	80.004	19.994	103.885	20.040	-0.565	0.514
750.000	456.997	80.005	19.994	103.882	20.036	-0.313	0.508
752.000	458.027	80.004	19.994	103.876	20.035	-0.184	0.520
754.000	459.074	80.005	19.994	103.881	20.035	-0.204	0.520
756.000	460.083	80.004	19.994	103.875	20.036	-0.280	0.514
758.000	461.178	80.005	19.994	103.881	20.037	-0.343	0.541
760.000	462.170	80.004	19.995	103.881	20.037	-0.331	0.508
762.000	463.214	80.003	19.995	103.882	20.039	-0.495	0.511
764.000	464.228	80.004	19.994	103.880	20.033	-0.068	0.511
766.000	465.213	80.004	19.994	103.881	20.037	-0.355	0.496
768.000	466.264	80.004	19.994	103.879	20.036	-0.315	0.538
770.000	467.279	80.005	19.994	103.884	20.036	-0.274	0.512
772.000	468.293	80.004	19.993	103.881	20.038	-0.407	0.501
774.000	469.349	80.005	19.994	103.879	20.038	-0.439	0.513
776.000	470.388	80.005	19.994	103.886	20.040	-0.619	0.504
778.000	471.395	80.004	19.994	103.880	20.038	-0.463	0.490
780.000	472.491	80.003	19.993	103.877	20.039	-0.489	0.529
782.000	473.554	80.006	19.995	103.876	20.040	-0.621	0.554
784.000	474.606	80.005	19.993	103.878	20.040	-0.563	0.552
786.000	475.661	80.004	19.994	103.874	20.043	-0.805	0.531
788.000	476.737	80.007	19.995	103.877	20.041	-0.649	0.527
790.000	477.754	80.005	19.994	103.872	20.039	-0.513	0.513
792.000	478.804	80.006	19.993	103.872	20.043	-0.823	0.522
794.000	479.849	80.006	19.994	103.872	20.044	-0.861	0.535
796.000	480.907	80.006	19.994	103.887	20.043	-0.779	0.507
798.000	481.935	80.006	19.995	103.872	20.039	-0.509	0.510
800.000	482.996	80.006	19.993	103.874	20.042	-0.739	0.495
802.000	483.985	80.007	19.992	103.876	20.041	-0.693	0.502
804.000	485.045	80.006	19.993	103.875	20.048	-1.166	0.520
806.000	486.148	80.006	19.993	103.877	20.047	-1.078	0.578
808.000	487.169	80.007	19.993	103.873	20.044	-0.873	0.519
810.000	488.154	80.006	19.993	103.876	20.047	-1.102	0.508
812.000	489.204	80.006	19.993	103.876	20.045	-0.964	0.533
814.000	490.227	80.007	19.993	103.879	20.042	-0.751	0.526
816.000	491.269	80.007	19.994	103.876	20.043	-0.783	0.499
818.000	492.296	80.008	19.993	103.873	20.045	-0.946	0.504
820.000	493.365	80.006	19.994	103.873	20.042	-0.715	0.528
822.000	494.391	80.007	19.994	103.873	20.047	-1.134	0.536
824.000	495.411	80.007	19.994	103.876	20.046	-1.030	0.554
826.000	496.430	80.005	19.994	103.870	20.044	-0.865	0.514
828.000	497.477	80.004	19.994	103.873	20.048	-1.162	0.517
830.000	498.506	80.005	19.995	103.877	20.048	-1.150	0.510
832.000	499.533	80.003	19.994	103.875	20.047	-1.062	0.503
834.000	500.560	80.004	19.994	103.877	20.044	-0.891	0.527
836.000	501.591	80.004	19.995	103.880	20.046	-0.996	0.510
838.000	502.597	80.006	19.994	103.878	20.045	-0.962	0.516
840.000	503.622	80.006	19.994	103.874	20.043	-0.797	0.526
842.000	504.653	80.004	19.993	103.873	20.040	-0.569	0.519
844.000	505.716	80.005	19.993	103.873	20.050	-1.306	0.544
846.000	506.738	80.004	19.994	103.877	20.047	-1.122	0.527
848.000	507.693	80.006	19.994	103.876	20.047	-1.132	0.449
850.000	508.750	80.004	19.994	103.870	20.047	-1.120	0.491
852.000	509.795	80.004	19.993	103.872	20.049	-1.228	0.517
854.000	510.839	80.005	19.994	103.872	20.050	-1.284	0.485
856.000	511.830	80.005	19.994	103.874	20.046	-1.030	0.516
858.000	512.874	80.004	19.995	103.872	20.049	-1.232	0.533
860.000	513.868	80.004	19.995	103.872	20.048	-1.182	0.502
862.000	514.979	80.005	19.995	103.873	20.050	-1.340	0.527
864.000	516.012	80.004	19.995	103.872	20.053	-1.520	0.528
866.000	516.992	80.005	19.994	103.872	20.049	-1.272	0.528
868.000	518.037	80.006	19.995	103.871	20.049	-1.246	0.488
870.000	519.084	80.005	19.994	103.873	20.049	-1.268	0.500
872.000	520.128	80.005	19.995	103.874	20.049	-1.274	0.507
874.000	521.148	80.006	19.994	103.873	20.047	-1.128	0.512
876.000	522.148	80.006	19.993	103.874	20.050	-1.312	0.539
878.000	523.097	80.006	19.994	103.875	20.050	-1.306	0.475
880.000	524.085	80.005	19.993	103.881	20.052	-1.500	0.471
882.000	525.147	80.006	19.993	103.876	20.052	-1.428	0.506
884.000	526.119	80.006	19.994	103.873	20.055	-1.699	0.516
886.000	527.155	80.004	19.993	103.874	20.049	-1.278	0.521
888.000	528.150	80.005	19.993	103.874	20.052	-1.452	0.483
890.000	529.213	80.006	19.994	103.875	20.053	-1.555	0.519
892.000	530.206	80.005	19.994	103.875	20.052	-1.498	0.479
894.000	531.206	80.007	19.992	103.875	20.053	-1.558	0.546
896.000	532.226	80.008	19.994	103.875	20.054	-1.645	0.494
898.000	533.256	80.008	19.994	103.876	20.055	-1.649	0.498
900.000	534.265	80.008	19.993	103.873	20.054	-1.617	0.518
902.000	535.280	80.009	19.993	103.873	20.052	-1.456	0.526
904.000	536.319	80.008	19.993	103.871	20.050	-1.302	0.521
906.000	537.309	80.008	19.992	103.871	20.052	-1.478	0.513
908.000	538.354	80.006	19.993	103.871	20.052	-1.472	0.542
910.000	539.317	80.006	19.994	103.878	20.055	-1.677	0.511
912.000	540.366	80.006	19.994	103.870	20.051	-1.422	0.487
914.000	541.350	80.005	19.995	103.874	20.051	-1.420	0.525
916.000	542.372	80.005	19.994	103.872	20.049	-1.230	0.525
918.000	543.342	80.005	19.994	103.870	20.049	-1.248	0.507
920.000	544.368	80.003	19.994	103.871	20.050	-1.306	0.505
922.000	545.404	80.005	19.995	103.871	20.051	-1.370	0.513
924.000	546.431	80.005	19.994	103.870	20.050	-1.294	0.508
926.000	547.423	80.006	19.993	103.870	20.051	-1.426	0.480
928.000	548.430	80.007	19.994	103.869	20.051	-1.422	0.497
930.000	549.467	80.005	19.993	103.867	20.050	-1.342	0.487
932.000	550.507	80.006	19.994	103.870	20.051	-1.406	0.537
934.000	551.512	80.006	19.993	103.871	20.053	-1.506	0.525
936.000	552.520	80.004	19.994	103.871	20.053	-1.562	0.502
938.000	553.552	80.004	19.993	103.874	20.054	-1.605	0.501
940.000	554.617	80.004	19.994	103.871	20.051	-1.410	0.518
942.000	555.646	80.005	19.996	103.868	20.053	-1.563	0.505
944.000	556.646	80.005	19.993	103.873	20.052	-1.452	0.502
946.000	557.663	80.004	19.996	103.872	20.055	-1.653	0.473
948.000	558.752	80.004	19.995	103.866	20.057	-1.847	0.536
950.000	559.794	80.005	19.995	103.873	20.054	-1.595	0.522
952.000	560.835	80.005	19.996	103.875	20.056	-1.739	0.523
954.000	561.876	80.007	19.994	103.874	20.054	-1.585	0.510
956.000	562.926	80.007	19.995	103.873	20.054	-1.621	0.534
958.000	563.966	80.006	19.994	103.871	20.053	-1.554	0.525
960.000	565.009	80.006	19.993	103.874	20.054	-1.586	0.511
962.000	566.039	80.005	19.994	103.872	20.054	-1.578	0.544
964.000	567.095	80.006	19.993	103.875	20.056	-1.745	0.552
966.000	568.127	80.006	19.993	103.873	20.055	-1.665	0.530
968.000	569.169	80.006	19.993	103.872	20.054	-1.634	0.516
970.000	570.218	80.006	19.993	103.871	20.053	-1.556	0.519
972.000	571.283	80.007	19.993	103.861	20.056	-1.785	0.545
974.000	572.269	80.005	19.993	103.873	20.055	-1.667	0.510
976.000	573.328	80.007	19.993	103.870	20.054	-1.611	0.486
978.000	574.396	80.008	19.992	103.869	20.053	-1.566	0.529
980.000	575.471	80.009	19.994	103.864	20.055	-1.707	0.522
982.000	576.522	80.007	19.994	103.867	20.055	-1.661	0.492
984.000	577.563	80.007	19.993	103.870	20.052	-1.474	0.511
986.000	578.622	80.006	19.994	103.870	20.054	-1.623	0.523
988.000	579.636	80.007	19.993	103.870	20.056	-1.783	0.484
990.000	580.631	80.006	19.993	103.869	20.056	-1.737	0.515
992.000	581.675	80.006	19.994	103.869	20.058	-1.911	0.510
994.000	582.707	80.005	19.993	103.872	20.056	-1.725	0.540
996.000	583.757	80.006	19.993	103.876	20.057	-1.805	0.541
998.000	584.713	80.006	19.993	103.871	20.060	-2.037	0.494
1000.000	585.762	80.006	19.993	103.874	20.058	-1.891	0.515
1002.000	586.757	80.005	19.992	103.873	20.057	-1.833	0.535
1004.000	587.774	80.005	19.993	103.872	20.056	-1.751	0.514
1006.000	588.830	80.005	19.994	103.863	20.060	-2.053	0.555
1008.000	589.830	80.004	19.993	103.870	20.057	-1.817	0.526
1010.000	590.836	80.005	19.995	103.874	20.058	-1.875	0.475
1012.000	591.821	80.004	19.994	103.874	20.060	-2.053	0.499
1014.000	592.824	80.003	19.995	103.873	20.055	-1.661	0.487
1016.000	593.862	80.004	19.996	103.872	20.058	-1.883	0.549
1018.000	594.885	80.003	19.994	103.873	20.057	-1.811	0.497
1020.000	595.914	80.004	19.994	103.878	20.057	-1.865	0.544
1022.000	596.881	80.003	19.994	103.884	20.056	-1.771	0.522
1024.000	597.919	80.004	19.994	103.875	20.061	-2.157	0.527
1025.999	598.891	80.004	19.994	103.875	20.059	-1.951	0.502
1027.999	599.930	80.005	19.994	103.875	20.060	-2.081	0.525
1029.999	600.922	80.004	19.994	103.871	20.059	-1.993	0.514
1031.999	601.925	80.006	19.994	103.879	20.061	-2.126	0.502
1033.999	602.939	80.005	19.995	103.874	20.063	-2.250	0.520
1036.000	603.949	80.006	19.994	103.870	20.058	-1.935	0.496
1037.999	604.956	80.006	19.995	103.878	20.057	-1.829	0.541
1039.999	605.946	80.005	19.995	103.870	20.059	-1.975	0.518
1041.999	606.953	80.005	19.995	103.874	20.060	-2.021	0.487
1043.999	607.945	80.006	19.994	103.876	20.060	-2.085	0.450
1045.999	609.035	80.005	19.995	103.869	20.053	-1.562	0.496
1047.999	610.062	80.006	19.995	103.871	20.072	-2.949	0.506
1049.999	611.134	80.004	19.994	103.871	20.058	-1.869	0.499
1051.999	612.101	80.007	19.994	103.872	20.057	-1.829	0.548
1053.999	613.143	80.007	19.993	103.873	20.061	-2.119	0.476
1055.999	614.285	80.007	19.993	103.872	20.059	-1.955	0.479
1057.999	615.153	80.007	19.994	103.871	20.057	-1.855	0.600
1059.999	615.710	80.008	19.993	103.873	20.060	-2.041	0.770
1061.999	617.995	80.009	19.993	103.875	20.058	-1.903	1.126
1064.000	618.247	80.008	19.993	103.873	20.061	-2.099	0.971
1065.999	619.461	80.006	19.993	103.872	20.062	-2.228	0.451
1068.001	620.427	80.005	19.993	103.872	20.063	-2.240	0.567
1070.000	621.486	80.005	19.993	103.875	20.062	-2.218	0.510
1071.999	622.461	80.004	19.994	103.877	20.061	-2.156	0.483
1073.999	623.451	80.004	19.994	103.874	20.059	-1.995	0.496
1075.999	624.489	80.004	19.995	103.875	20.059	-1.987	0.507
1078.000	625.583	80.004	19.994	103.877	20.060	-2.023	0.515
1079.999	626.602	80.006	19.994	103.872	20.064	-2.332	0.529
1081.999	627.566	80.004	19.994	103.876	20.061	-2.160	0.501
1083.999	628.638	80.006	19.993	103.879	20.063	-2.270	0.497
1085.999	629.639	80.006	19.994	103.882	20.059	-1.981	0.477
1087.999	630.683	80.006	19.993	103.879	20.062	-2.184	0.542
1089.999	631.733	80.004	19.993	103.881	20.059	-1.947	0.534
1091.999	632.697	80.004	19.994	103.883	20.057	-1.825	0.507
1094.001	633.725	80.005	19.994	103.878	20.059	-1.976	0.498
1095.999	634.764	80.005	19.994	103.878	20.060	-2.078	0.530
1098.000	635.758	80.004	19.994	103.878	20.060	-2.020	0.486
1100.000	636.766	80.003	19.994	103.879	20.058	-1.899	0.496
1101.999	637.778	80.004	19.994	103.880	20.060	-2.017	0.502
1103.999	638.782	80.002	19.995	103.893	20.059	-1.993	0.509
1105.999	639.823	80.003	19.995	103.906	20.060	-2.064	0.533
1107.999	640.793	80.005	19.994	103.900	20.060	-2.084	0.491
1109.999	641.827	80.004	19.995	103.881	20.062	-2.174	0.495
1111.999	642.872	80.005	19.994	103.876	20.059	-1.992	0.528
1114.000	643.850	80.005	19.995	103.881	20.063	-2.240	0.514
1115.999	644.846	80.006	19.994	103.888	20.062	-2.196	0.509
1118.000	645.845	80.007	19.993	103.902	20.062	-2.210	0.512
1119.999	646.846	80.007	19.995	103.893	20.058	-1.936	0.481
1122.000	647.908	80.005	19.994	103.891	20.056	-1.794	0.504
1123.999	648.904	80.007	19.993	103.895	20.067	-2.543	0.486
1126.001	649.956	80.006	19.994	103.894	20.063	-2.269	0.536
1128.000	650.975	80.004	19.994	103.898	20.056	-1.772	0.537
1129.999	651.958	80.005	19.994	103.905	20.058	-1.908	0.524
1131.999	652.976	80.004	19.996	103.907	20.061	-2.132	0.514
1133.999	653.974	80.004	19.995	103.911	20.061	-2.156	0.501
1135.999	654.916	80.005	19.996	103.912	20.060	-2.064	0.502
1137.999	656.187	80.006	19.996	103.912	20.057	-1.852	0.612
1139.999	656.989	80.006	19.995	103.908	20.059	-1.996	0.883
1141.999	658.038	80.006	19.996	103.907	20.060	-2.040	0.548
1143.999	659.014	80.007	19.993	103.910	20.056	-1.734	0.521
1146.000	660.016	80.008	19.994	103.912	20.058	-1.904	0.502
1147.999	661.081	80.007	19.993	103.912	20.054	-1.599	0.517
1149.999	662.071	80.004	19.993	103.912	20.058	-1.872	0.527
1151.999	663.065	80.005	19.992	103.915	20.058	-1.924	0.484
1153.999	664.071	80.004	19.994	103.920	20.056	-1.780	0.502
1155.999	665.040	80.005	19.993	103.925	20.060	-2.027	0.491
1157.999	666.015	80.005	19.994	103.918	20.052	-1.445	0.484
1159.999	667.034	80.004	19.993	103.917	20.057	-1.846	0.486
1161.999	668.010	80.005	19.995	103.917	20.056	-1.738	0.513
1164.000	669.009	80.006	19.994	103.915	20.056	-1.776	0.486
1165.999	670.014	80.007	19.993	103.930	20.052	-1.471	0.519
1167.999	671.013	80.005	19.994	103.933	20.057	-1.828	0.486
1169.999	672.014	80.006	19.994	103.923	20.053	-1.529	0.493
1172.001	672.956	80.005	19.994	103.932	20.053	-1.503	0.504
1173.999	673.960	80.006	19.994	103.941	20.054	-1.626	0.470
1175.999	674.953	80.005	19.995	103.942	20.053	-1.510	0.498
1177.999	675.973	80.005	19.993	103.947	20.055	-1.656	0.499
1179.999	676.973	80.005	19.993	103.936	20.050	-1.305	0.493
1181.999	677.998	80.004	19.993	103.944	20.055	-1.714	0.463
1183.999	678.985	80.005	19.994	103.946	20.050	-1.333	0.500
1185.999	679.871	80.006	19.992	103.950	20.052	-1.429	0.451
1188.000	680.951	80.004	19.995	103.950	20.054	-1.618	0.520
1189.999	681.986	80.005	19.994	103.948	20.050	-1.347	0.492
1191.999	683.020	80.006	19.993	103.951	20.054	-1.594	0.490
1193.999	683.524	80.005	19.995	103.961	20.049	-1.251	0.116
1195.999	684.992	80.006	19.996	103.957	20.053	-1.516	0.537
1197.999	685.960	80.006	19.994	103.955	20.053	-1.504	0.484
1199.999	686.950	80.006	19.993	103.957	20.050	-1.346	0.499
1201.999	688.027	80.006	19.995	103.955	20.051	-1.374	0.511
1203.999	689.021	80.005	19.994	103.957	20.052	-1.500	0.519
1205.999	690.066	80.006	19.994	103.975	20.050	-1.340	0.553
1207.999	691.065	80.005	19.995	103.986	20.053	-1.536	0.524
1210.000	692.130	80.004	19.994	103.985	20.052	-1.490	0.489
1211.999	693.127	80.005	19.993	103.989	20.050	-1.328	0.469
1213.999	694.136	80.005	19.995	103.992	20.044	-0.911	0.505
1215.999	695.193	80.006	19.993	103.990	20.048	-1.145	0.517
1217.999	696.247	80.006	19.993	103.991	20.048	-1.203	0.519
1219.999	697.283	80.005	19.995	103.995	20.050	-1.354	0.516
1222.001	698.295	80.008	19.994	103.989	20.048	-1.166	0.536
1224.001	699.335	80.008	19.994	103.992	20.050	-1.302	0.528
1226.000	700.274	80.006	19.995	104.021	20.049	-1.238	0.479
1228.000	701.296	80.006	19.995	104.012	20.048	-1.194	0.515
1229.999	702.360	80.004	19.996	103.994	20.047	-1.103	0.508
1232.000	703.323	80.005	19.996	104.021	20.048	-1.202	0.504
1233.999	704.371	80.005	19.996	104.019	20.048	-1.152	0.535
1236.000	705.369	80.006	19.994	104.029	20.048	-1.152	0.508
1237.999	706.406	80.005	19.994	104.022	20.048	-1.182	0.536
1239.999	707.393	80.005	19.993	104.021	20.051	-1.408	0.481
1241.999	708.399	80.006	19.993	104.031	20.046	-1.058	0.492
1243.999	709.429	80.005	19.994	104.032	20.047	-1.116	0.502
1245.999	710.442	80.007	19.993	104.038	20.046	-1.038	0.484
1248.000	711.475	80.005	19.994	104.048	20.048	-1.158	0.501
1249.999	712.493	80.006	19.993	104.044	20.045	-0.981	0.491
1251.999	713.505	80.005	19.995	104.041	20.047	-1.086	0.503
1254.000	714.552	80.007	19.994	104.056	20.046	-0.992	0.535
1255.999	715.558	80.006	19.995	104.059	20.045	-0.923	0.520
1257.999	716.629	80.006	19.996	104.067	20.044	-0.903	0.536
1259.999	717.617	80.004	19.994	104.069	20.043	-0.843	0.527
1261.999	718.625	80.003	19.995	104.068	20.044	-0.861	0.484
1264.000	719.638	80.004	19.994	104.081	20.041	-0.630	0.479
1265.999	720.640	80.004	19.994	104.077	20.036	-0.261	0.475
1267.999	721.688	80.004	19.994	104.074	20.037	-0.381	0.536
1269.999	722.667	80.007	19.994	104.089	20.034	-0.165	0.508
1271.999	723.665	80.006	19.994	104.095	20.034	-0.116	0.507
1273.999	724.652	80.007	19.994	104.100	20.034	-0.167	0.514
1276.000	725.689	80.006	19.993	104.106	20.035	-0.217	0.496
1278.000	726.616	80.006	19.993	104.105	20.033	-0.046	0.451
1279.999	727.620	80.005	19.993	104.110	20.031	0.058	0.472
1281.999	728.625	80.006	19.993	104.109	20.032	-0.020	0.502
1283.999	729.631	80.005	19.994	104.112	20.029	0.259	0.519
1285.999	730.617	80.007	19.994	104.120	20.032	-0.008	0.502
1288.000	731.608	80.006	19.994	104.126	20.026	0.424	0.498
1290.000	732.640	80.006	19.994	104.140	20.026	0.450	0.509
1291.999	733.618	80.005	19.995	104.136	20.028	0.301	0.504
1293.999	734.613	80.006	19.995	104.145	20.025	0.494	0.509
1295.999	735.624	80.007	19.994	104.145	20.029	0.203	0.481
1297.999	736.600	80.007	19.994	104.146	20.025	0.484	0.499
1299.999	737.596	80.008	19.994	104.151	20.024	0.619	0.495
1301.999	738.619	80.007	19.993	104.146	20.023	0.643	0.506
1303.999	739.588	80.008	19.994	104.152	20.027	0.404	0.494
1305.999	740.594	80.007	19.993	104.159	20.023	0.679	0.533
1308.001	741.575	80.007	19.994	104.179	20.019	0.953	0.478
1309.999	742.579	80.005	19.994	104.182	20.020	0.906	0.492
1311.999	743.574	80.005	19.994	104.185	20.018	1.053	0.474