File: 01_Data/Concrete_Block/MCC/Concrete_Block_MCC_30K_min_220224_R1.txt
Sample ID:	C:\MCC\MCC Cal\Test\Concrete_Block_MCC_30K_min_220224_R1.txt
Sample Weight (mg):	4.83
Heating Rate (C/s):	0.5
Combustor Temp (C):	900
N2 Flow Rate (cc/min):	80
O2 Flow Rate (cc/min):	20
Calibration File:	C:\MCC\MCC Cal\Coeff1 JN10440_30_210304.txt.txt
T Correction Coefficients:	0	1.024463	0
Time Shift (s):	14
*
Time (s)	Temperature (C)	N2 flow rate (cc/min)	O2 flow rate (cc/min)	Flow Rate (cc/min)	Oxygen (%)	HRR (W/g)	Heating rate (C/s)
0.000	115.107	80.005	19.994	103.856	20.048	-0.033	0.002
2.000	115.076	80.003	19.994	103.864	20.049	-0.090	-0.025
4.000	115.097	80.006	19.993	103.854	20.047	0.029	0.027
6.000	115.072	80.005	19.993	103.856	20.048	-0.068	0.005
8.000	115.062	80.004	19.993	103.862	20.044	0.255	-0.001
10.000	115.061	80.004	19.994	103.867	20.045	0.189	-0.010
12.000	114.995	80.004	19.994	103.875	20.044	0.217	-0.002
14.001	115.043	80.004	19.994	103.878	20.043	0.318	0.019
16.000	115.059	80.002	19.996	103.896	20.041	0.441	0.035
18.000	115.067	80.003	19.994	103.915	20.036	0.760	0.039
20.000	115.028	80.002	19.995	103.934	20.033	1.001	-0.011
22.000	115.084	80.002	19.994	103.977	20.029	1.210	0.037
24.000	115.174	80.003	19.995	104.004	20.027	1.397	0.023
26.000	115.308	80.001	19.995	104.016	20.022	1.732	0.036
28.000	115.427	80.004	19.994	104.018	20.019	1.904	0.081
30.000	115.584	80.004	19.994	104.034	20.018	1.978	0.098
32.000	115.750	80.006	19.993	104.061	20.014	2.231	0.058
34.000	116.027	80.006	19.994	104.050	20.011	2.459	0.164
36.000	116.296	80.006	19.993	104.041	20.013	2.327	0.127
38.001	116.576	80.006	19.993	104.045	20.014	2.257	0.101
40.000	116.867	80.004	19.992	104.055	20.014	2.228	0.134
42.000	117.211	80.007	19.995	104.065	20.012	2.413	0.161
44.000	117.580	80.006	19.994	104.039	20.012	2.408	0.188
46.000	117.908	80.006	19.993	104.056	20.012	2.382	0.163
48.000	118.300	80.004	19.993	104.064	20.010	2.516	0.169
50.000	118.769	80.005	19.995	104.065	20.012	2.355	0.160
52.000	119.227	80.006	19.993	104.066	20.012	2.379	0.234
54.000	119.632	80.007	19.994	104.069	20.009	2.577	0.208
56.000	120.133	80.007	19.994	104.069	20.009	2.587	0.227
58.000	120.595	80.007	19.993	104.070	20.007	2.728	0.251
60.000	121.169	80.007	19.993	104.073	20.010	2.543	0.308
62.000	121.701	80.007	19.993	104.072	20.003	2.969	0.270
64.000	122.211	80.006	19.992	104.074	20.006	2.756	0.302
66.000	122.769	80.006	19.993	104.093	20.005	2.877	0.274
68.000	123.331	80.005	19.992	104.102	20.000	3.168	0.271
70.000	124.004	80.003	19.993	104.099	20.003	2.986	0.293
72.000	124.582	80.005	19.992	104.100	20.002	3.054	0.293
74.000	125.215	80.004	19.993	104.112	20.000	3.195	0.328
76.001	125.848	80.005	19.994	104.110	20.001	3.140	0.299
78.000	126.522	80.004	19.994	104.110	20.000	3.193	0.342
80.001	127.213	80.004	19.992	104.110	20.001	3.133	0.368
82.001	127.931	80.004	19.993	104.108	20.002	3.052	0.345
84.000	128.606	80.003	19.994	104.108	20.000	3.162	0.360
86.000	129.355	80.004	19.994	104.110	20.005	2.870	0.389
88.000	130.081	80.005	19.993	104.110	20.003	2.958	0.341
90.000	130.871	80.004	19.994	104.107	20.003	3.008	0.406
92.000	131.587	80.004	19.994	104.109	20.002	3.067	0.370
94.000	132.374	80.004	19.993	104.112	20.002	3.079	0.368
96.000	133.192	80.005	19.994	104.112	20.005	2.846	0.403
98.000	133.959	80.005	19.992	104.111	20.004	2.927	0.411
100.000	134.791	80.003	19.993	104.110	20.005	2.853	0.431
102.000	135.545	80.003	19.994	104.109	20.003	2.997	0.395
104.000	136.396	80.005	19.994	104.109	20.005	2.826	0.417
106.001	137.157	80.004	19.994	104.108	20.005	2.879	0.394
108.000	138.051	80.003	19.995	104.109	20.001	3.125	0.433
110.000	138.916	80.004	19.994	104.104	20.002	3.052	0.407
112.000	139.724	80.005	19.994	104.109	20.003	3.011	0.400
114.001	140.632	80.005	19.994	104.107	20.002	3.072	0.456
116.000	141.488	80.006	19.995	104.107	20.004	2.894	0.435
118.001	142.333	80.005	19.994	104.108	20.001	3.131	0.424
120.000	143.218	80.004	19.994	104.108	20.003	2.964	0.455
122.000	144.117	80.005	19.994	104.109	20.004	2.944	0.433
124.001	145.040	80.006	19.993	104.108	20.003	2.993	0.448
126.000	145.965	80.005	19.993	104.109	20.003	2.962	0.460
128.000	146.842	80.006	19.993	104.109	20.002	3.048	0.430
130.000	147.797	80.006	19.992	104.113	19.999	3.230	0.455
132.000	148.751	80.006	19.994	104.112	20.000	3.157	0.479
134.000	149.671	80.006	19.993	104.114	20.001	3.102	0.486
136.000	150.624	80.006	19.993	104.111	20.004	2.945	0.470
138.000	151.534	80.007	19.993	104.116	20.004	2.949	0.458
140.000	152.522	80.006	19.993	104.117	20.008	2.673	0.500
142.000	153.439	80.006	19.994	104.116	20.001	3.100	0.480
144.000	154.394	80.006	19.994	104.111	20.000	3.188	0.488
146.000	155.353	80.007	19.992	104.111	20.002	3.057	0.477
148.000	156.346	80.004	19.994	104.111	20.002	3.026	0.493
150.000	157.298	80.004	19.993	104.112	20.006	2.793	0.479
152.000	158.280	80.003	19.993	104.111	20.001	3.147	0.503
154.000	159.290	80.004	19.993	104.112	20.006	2.754	0.505
156.000	160.296	80.004	19.994	104.113	20.004	2.932	0.516
158.000	161.221	80.003	19.993	104.113	20.005	2.846	0.510
160.001	162.228	80.003	19.992	104.113	20.007	2.692	0.502
162.000	163.223	80.005	19.994	104.114	20.005	2.861	0.474
164.000	164.268	80.006	19.993	104.111	20.006	2.771	0.511
166.000	165.291	80.007	19.992	104.109	20.006	2.765	0.501
168.000	166.303	80.005	19.993	104.105	20.007	2.697	0.524
170.000	167.327	80.004	19.993	104.107	20.008	2.684	0.513
172.001	168.357	80.004	19.994	104.107	20.006	2.809	0.521
174.000	169.378	80.004	19.994	104.102	20.006	2.761	0.532
176.000	170.380	80.004	19.994	104.101	20.009	2.583	0.491
178.000	171.381	80.004	19.994	104.092	20.011	2.450	0.531
180.000	172.392	80.003	19.994	104.100	20.009	2.618	0.538
182.000	173.396	80.004	19.993	104.098	20.013	2.285	0.484
184.000	174.428	80.004	19.994	104.094	20.014	2.248	0.546
186.000	175.451	80.003	19.993	104.097	20.012	2.408	0.506
188.000	176.456	80.003	19.995	104.088	20.010	2.538	0.483
190.000	177.535	80.004	19.995	104.086	20.015	2.175	0.525
192.000	178.517	80.005	19.994	104.090	20.014	2.239	0.521
194.000	179.527	80.005	19.994	104.087	20.013	2.287	0.501
196.000	180.569	80.006	19.993	104.075	20.016	2.122	0.533
198.000	181.603	80.005	19.993	104.082	20.018	1.997	0.532
200.000	182.604	80.005	19.994	104.073	20.016	2.121	0.500
202.000	183.623	80.004	19.993	104.072	20.015	2.184	0.491
204.000	184.635	80.004	19.993	104.074	20.016	2.096	0.573
206.000	185.670	80.005	19.995	104.072	20.014	2.230	0.505
208.001	186.702	80.004	19.995	104.080	20.014	2.250	0.522
210.000	187.654	80.005	19.994	104.072	20.016	2.114	0.495
212.000	188.727	80.005	19.995	104.071	20.018	1.982	0.500
214.000	189.713	80.003	19.994	104.070	20.014	2.277	0.483
216.000	190.730	80.005	19.994	104.071	20.019	1.916	0.517
218.000	191.721	80.006	19.994	104.070	20.018	2.009	0.511
220.000	192.733	80.005	19.991	104.071	20.018	1.974	0.485
222.000	193.717	80.006	19.994	104.074	20.017	2.046	0.513
224.000	194.701	80.006	19.993	104.071	20.021	1.789	0.487
226.000	195.669	80.007	19.993	104.071	20.016	2.110	0.486
228.000	196.667	80.006	19.993	104.071	20.019	1.937	0.487
230.000	197.668	80.005	19.994	104.068	20.019	1.914	0.485
232.000	198.603	80.005	19.993	104.057	20.022	1.688	0.463
234.000	199.611	80.003	19.993	104.055	20.020	1.844	0.510
236.000	200.598	80.004	19.995	104.064	20.019	1.932	0.501
238.000	201.579	80.004	19.993	104.064	20.022	1.733	0.512
240.000	202.561	80.003	19.994	104.058	20.018	1.978	0.477
242.000	203.542	80.005	19.994	104.057	20.021	1.807	0.489
244.000	204.482	80.003	19.994	104.045	20.019	1.899	0.474
246.000	205.429	80.005	19.993	104.053	20.019	1.908	0.455
248.000	206.456	80.005	19.994	104.058	20.017	2.018	0.487
250.000	207.449	80.004	19.993	104.049	20.022	1.693	0.505
252.000	208.412	80.006	19.993	104.038	20.021	1.798	0.473
254.000	209.391	80.005	19.993	104.044	20.023	1.665	0.469
256.000	210.372	80.005	19.993	104.055	20.025	1.537	0.482
258.000	211.338	80.005	19.994	104.040	20.024	1.587	0.491
260.000	212.322	80.004	19.993	104.043	20.026	1.467	0.498
262.000	213.292	80.005	19.994	104.047	20.024	1.599	0.502
264.000	214.277	80.005	19.994	104.046	20.024	1.563	0.477
266.000	215.244	80.003	19.993	104.046	20.022	1.689	0.497
268.001	216.228	80.004	19.995	104.051	20.026	1.427	0.517
270.000	217.221	80.004	19.996	104.045	20.025	1.511	0.481
272.000	218.204	80.004	19.995	104.053	20.028	1.316	0.494
274.000	219.197	80.005	19.994	104.035	20.023	1.619	0.501
276.000	220.121	80.005	19.994	104.040	20.024	1.607	0.492
278.000	221.125	80.005	19.995	104.036	20.023	1.638	0.492
280.000	222.149	80.004	19.993	104.036	20.025	1.500	0.486
282.000	223.109	80.004	19.994	104.036	20.024	1.601	0.469
284.000	224.093	80.004	19.994	104.034	20.028	1.305	0.491
286.000	225.096	80.003	19.994	104.039	20.028	1.296	0.496
288.000	226.087	80.003	19.995	104.035	20.026	1.419	0.495
290.000	227.035	80.004	19.995	104.035	20.029	1.214	0.492
292.000	228.000	80.004	19.996	104.035	20.027	1.362	0.501
294.000	229.035	80.004	19.993	104.039	20.031	1.080	0.498
296.000	230.021	80.005	19.994	104.030	20.030	1.147	0.519
298.000	231.048	80.005	19.995	104.016	20.030	1.169	0.525
300.000	232.002	80.004	19.994	104.039	20.029	1.228	0.482
302.000	233.025	80.007	19.995	104.041	20.030	1.203	0.501
304.000	234.000	80.007	19.995	104.031	20.032	1.028	0.516
306.000	234.973	80.005	19.995	104.029	20.033	0.997	0.502
308.000	235.978	80.004	19.994	104.029	20.031	1.080	0.503
310.000	236.982	80.005	19.994	104.028	20.028	1.338	0.491
312.000	237.997	80.003	19.994	104.029	20.029	1.206	0.505
314.000	238.953	80.004	19.993	104.028	20.031	1.080	0.485
316.000	239.954	80.004	19.993	104.031	20.031	1.111	0.496
318.000	240.945	80.004	19.994	104.031	20.028	1.285	0.524
320.000	241.890	80.005	19.993	104.030	20.027	1.353	0.484
322.000	242.901	80.004	19.994	104.029	20.029	1.217	0.497
324.000	243.896	80.003	19.993	104.029	20.027	1.395	0.495
326.001	244.905	80.002	19.995	104.031	20.031	1.100	0.501
328.000	245.889	80.003	19.994	104.033	20.032	1.034	0.486
330.000	246.840	80.004	19.993	104.034	20.031	1.120	0.490
332.000	247.877	80.004	19.993	104.031	20.032	1.059	0.515
334.000	248.851	80.004	19.993	104.034	20.034	0.892	0.497
336.000	249.867	80.004	19.993	104.031	20.033	0.968	0.510
338.000	250.876	80.003	19.993	104.027	20.030	1.157	0.481
340.000	251.895	80.002	19.991	104.026	20.034	0.922	0.504
342.000	252.875	80.003	19.995	104.035	20.034	0.931	0.506
344.000	253.864	80.002	19.993	104.035	20.034	0.879	0.499
346.000	254.895	80.003	19.993	104.026	20.034	0.876	0.541
348.000	255.876	80.002	19.994	104.026	20.035	0.867	0.536
350.000	256.892	80.003	19.994	104.032	20.033	1.002	0.516
352.000	257.876	80.003	19.993	104.030	20.036	0.745	0.502
354.000	258.882	80.005	19.993	104.027	20.036	0.769	0.512
356.000	259.893	80.005	19.994	104.030	20.036	0.780	0.509
358.000	260.887	80.005	19.993	104.028	20.036	0.791	0.521
360.000	261.862	80.005	19.993	104.022	20.037	0.677	0.526
362.000	262.877	80.004	19.994	104.025	20.035	0.848	0.500
364.000	263.893	80.005	19.993	104.021	20.035	0.804	0.509
366.000	264.915	80.004	19.993	104.028	20.033	0.956	0.517
368.000	265.889	80.003	19.995	104.019	20.034	0.890	0.495
370.000	266.919	80.004	19.993	104.008	20.034	0.883	0.517
372.000	267.921	80.005	19.994	104.036	20.035	0.837	0.499
374.000	268.927	80.004	19.995	104.031	20.036	0.767	0.520
376.000	269.924	80.005	19.995	104.024	20.036	0.791	0.507
378.000	270.915	80.006	19.994	104.018	20.037	0.668	0.506
380.000	271.962	80.006	19.994	104.018	20.039	0.578	0.519
382.000	272.937	80.007	19.994	104.017	20.036	0.788	0.480
384.000	273.975	80.005	19.995	104.018	20.033	0.968	0.511
386.000	274.986	80.007	19.994	104.022	20.037	0.688	0.523
388.000	276.001	80.006	19.995	104.023	20.037	0.718	0.497
390.000	276.990	80.004	19.995	104.026	20.037	0.729	0.525
392.000	277.987	80.003	19.994	104.020	20.039	0.562	0.500
394.000	279.026	80.004	19.994	104.022	20.037	0.683	0.511
396.000	280.049	80.003	19.995	104.027	20.038	0.624	0.494
398.000	281.046	80.003	19.996	104.019	20.036	0.738	0.503
400.000	282.041	80.002	19.993	104.027	20.039	0.587	0.539
402.000	283.076	80.003	19.994	104.016	20.039	0.567	0.523
404.000	284.097	80.002	19.993	104.013	20.044	0.257	0.507
406.000	285.109	80.004	19.993	104.011	20.038	0.630	0.501
408.000	286.127	80.002	19.993	104.029	20.039	0.547	0.498
410.000	287.192	80.004	19.993	104.015	20.041	0.437	0.502
412.000	288.176	80.005	19.993	104.020	20.040	0.477	0.470
414.000	289.216	80.004	19.992	104.019	20.042	0.374	0.526
416.000	290.234	80.003	19.992	103.997	20.046	0.079	0.516
418.000	291.296	80.004	19.993	104.006	20.045	0.184	0.539
420.000	292.329	80.004	19.993	103.999	20.043	0.325	0.531
422.000	293.314	80.003	19.994	103.995	20.045	0.134	0.505
424.000	294.265	80.001	19.994	103.994	20.044	0.248	0.479
426.000	295.313	80.002	19.994	104.000	20.047	0.062	0.488
428.000	296.294	80.003	19.994	103.993	20.043	0.286	0.500
430.000	297.302	80.003	19.995	103.997	20.045	0.171	0.505
432.000	298.256	80.003	19.994	103.994	20.045	0.160	0.435
434.000	299.325	80.004	19.994	103.994	20.044	0.239	0.522
436.000	300.351	80.004	19.995	103.995	20.045	0.160	0.500
438.000	301.304	80.006	19.993	103.998	20.044	0.213	0.478
440.000	302.321	80.005	19.994	103.993	20.045	0.173	0.498
442.000	303.280	80.006	19.994	103.995	20.044	0.200	0.493
444.000	304.297	80.006	19.993	103.993	20.050	-0.165	0.522
446.000	305.268	80.005	19.993	103.993	20.047	0.031	0.507
448.000	306.250	80.004	19.993	103.992	20.051	-0.239	0.457
450.000	307.284	80.005	19.994	103.992	20.048	-0.051	0.493
452.000	308.261	80.005	19.993	103.995	20.048	-0.061	0.523
454.000	309.260	80.005	19.994	103.994	20.048	-0.035	0.521
456.000	310.266	80.004	19.994	104.003	20.046	0.073	0.541
458.000	311.317	80.006	19.994	103.997	20.050	-0.167	0.568
460.000	312.332	80.003	19.993	103.997	20.048	-0.028	0.533
462.000	313.343	80.005	19.994	104.002	20.044	0.242	0.530
464.000	314.356	80.006	19.993	103.994	20.048	-0.066	0.543
466.000	315.363	80.006	19.995	103.993	20.043	0.266	0.498
468.000	316.430	80.003	19.994	103.999	20.047	0.013	0.498
470.000	317.443	80.005	19.993	103.994	20.047	0.039	0.517
472.000	318.461	80.003	19.994	103.996	20.047	-0.002	0.534
474.000	319.460	80.002	19.995	103.996	20.050	-0.143	0.520
476.000	320.509	80.002	19.994	103.997	20.044	0.231	0.557
478.000	321.523	80.002	19.994	103.996	20.048	-0.062	0.535
480.000	322.533	80.001	19.994	103.996	20.053	-0.351	0.507
482.000	323.581	80.001	19.994	103.994	20.050	-0.165	0.493
484.000	324.601	80.003	19.994	103.992	20.049	-0.103	0.513
486.000	325.637	80.003	19.995	103.992	20.048	-0.024	0.531
488.000	326.674	80.003	19.995	103.984	20.048	-0.051	0.529
490.001	327.664	80.003	19.996	103.981	20.048	-0.064	0.497
492.000	328.678	80.004	19.995	103.991	20.053	-0.395	0.490
494.000	329.701	80.004	19.994	103.984	20.049	-0.105	0.521
496.000	330.736	80.003	19.993	103.981	20.051	-0.231	0.504
498.000	331.725	80.003	19.995	103.990	20.053	-0.343	0.510
500.000	332.714	80.004	19.994	103.968	20.051	-0.239	0.483
502.000	333.749	80.003	19.994	103.981	20.055	-0.481	0.507
504.000	334.787	80.004	19.993	103.981	20.054	-0.418	0.530
506.000	335.786	80.002	19.993	103.990	20.055	-0.532	0.516
508.000	336.799	80.004	19.994	103.979	20.048	-0.053	0.521
510.000	337.751	80.003	19.994	103.977	20.053	-0.384	0.483
512.000	338.773	80.004	19.993	103.977	20.050	-0.206	0.499
514.000	339.806	80.004	19.994	103.974	20.054	-0.466	0.524
516.000	340.789	80.006	19.993	103.969	20.052	-0.330	0.480
518.000	341.814	80.005	19.993	103.979	20.055	-0.512	0.484
520.000	342.748	80.004	19.993	103.980	20.053	-0.367	0.469
522.000	343.692	80.005	19.994	103.987	20.050	-0.182	0.445
524.000	344.731	80.004	19.995	103.974	20.052	-0.310	0.480
526.000	345.709	80.004	19.994	103.985	20.054	-0.462	0.523
528.000	346.714	80.004	19.994	103.977	20.053	-0.352	0.486
530.000	347.723	80.004	19.994	103.988	20.053	-0.402	0.517
532.000	348.713	80.004	19.993	103.981	20.054	-0.473	0.499
534.000	349.717	80.003	19.993	103.969	20.055	-0.530	0.487
536.000	350.683	80.005	19.993	103.977	20.057	-0.640	0.457
538.000	351.715	80.004	19.993	103.981	20.055	-0.541	0.496
540.000	352.746	80.003	19.993	103.978	20.056	-0.550	0.509
542.000	353.768	80.005	19.994	103.974	20.055	-0.481	0.498
544.000	354.803	80.004	19.994	103.971	20.057	-0.640	0.505
546.000	355.815	80.007	19.993	103.987	20.055	-0.508	0.504
548.000	356.787	80.004	19.994	103.970	20.058	-0.681	0.506
550.000	357.794	80.005	19.993	103.963	20.057	-0.629	0.507
552.000	358.774	80.002	19.994	103.970	20.056	-0.576	0.510
554.000	359.791	80.003	19.994	103.962	20.057	-0.613	0.505
556.000	360.782	80.003	19.995	103.962	20.059	-0.763	0.526
558.000	361.769	80.004	19.995	103.959	20.058	-0.684	0.510
560.000	362.751	80.002	19.994	103.966	20.059	-0.760	0.497
562.000	363.811	80.004	19.995	103.965	20.063	-1.018	0.512
564.000	364.785	80.003	19.993	103.968	20.063	-1.055	0.510
566.000	365.791	80.003	19.994	103.968	20.062	-0.974	0.509
568.000	366.799	80.003	19.994	103.963	20.063	-1.070	0.502
570.000	367.800	80.002	19.994	103.959	20.063	-1.018	0.522
572.000	368.808	80.004	19.995	103.957	20.065	-1.182	0.521
574.000	369.837	80.002	19.994	103.955	20.063	-1.037	0.516
576.000	370.847	80.003	19.995	103.956	20.059	-0.760	0.512
578.000	371.827	80.003	19.994	103.967	20.061	-0.892	0.474
580.000	372.855	80.004	19.994	103.966	20.059	-0.796	0.523
582.000	373.865	80.004	19.995	103.968	20.060	-0.872	0.513
584.000	374.882	80.002	19.995	103.963	20.063	-1.066	0.516
586.000	375.852	80.002	19.994	103.954	20.062	-1.007	0.471
588.000	376.839	80.003	19.994	103.956	20.063	-1.044	0.505
590.000	377.842	80.003	19.994	103.956	20.061	-0.905	0.505
592.000	378.855	80.003	19.993	103.964	20.063	-1.020	0.496
594.000	379.845	80.003	19.994	103.968	20.063	-1.070	0.496
596.000	380.866	80.005	19.994	103.961	20.064	-1.130	0.516
598.000	381.853	80.004	19.994	103.958	20.064	-1.092	0.494
600.000	382.860	80.005	19.994	103.966	20.063	-1.055	0.511
602.000	383.826	80.005	19.994	103.968	20.066	-1.268	0.476
604.000	384.888	80.005	19.994	103.970	20.065	-1.147	0.523
606.000	385.881	80.003	19.993	103.987	20.065	-1.184	0.488
608.000	386.916	80.005	19.993	103.975	20.064	-1.117	0.494
610.000	387.936	80.005	19.994	103.973	20.064	-1.081	0.538
612.000	388.893	80.003	19.993	103.966	20.066	-1.226	0.475
614.000	389.938	80.004	19.994	103.962	20.062	-0.963	0.560
616.000	390.948	80.004	19.995	103.975	20.064	-1.082	0.499
618.001	391.991	80.006	19.993	103.965	20.065	-1.150	0.520
620.000	392.958	80.005	19.994	103.957	20.063	-1.073	0.487
622.000	394.095	80.006	19.994	103.961	20.065	-1.147	0.522
624.000	395.106	80.006	19.994	103.961	20.064	-1.082	0.528
626.000	396.175	80.008	19.993	103.956	20.065	-1.185	0.527
628.000	397.180	80.007	19.993	103.956	20.066	-1.277	0.504
630.000	398.207	80.007	19.994	103.966	20.067	-1.295	0.525
632.000	399.251	80.006	19.994	103.959	20.065	-1.213	0.530
634.000	400.290	80.004	19.994	103.955	20.066	-1.275	0.515
636.000	401.377	80.004	19.994	103.954	20.067	-1.293	0.538
638.000	402.377	80.004	19.993	103.958	20.065	-1.187	0.501
640.000	403.380	80.002	19.993	103.953	20.068	-1.374	0.521
642.000	404.454	80.003	19.994	103.954	20.068	-1.396	0.530
644.000	405.472	80.004	19.994	103.955	20.070	-1.495	0.496
646.000	406.535	80.004	19.995	103.954	20.065	-1.209	0.538
648.000	407.552	80.004	19.994	103.954	20.067	-1.297	0.509
650.000	408.564	80.003	19.995	103.956	20.071	-1.561	0.483
652.000	409.611	80.004	19.994	103.956	20.072	-1.627	0.516
654.000	410.642	80.004	19.993	103.951	20.072	-1.618	0.534
656.000	411.688	80.004	19.995	103.957	20.073	-1.717	0.506
658.000	412.734	80.002	19.994	103.962	20.070	-1.506	0.542
660.000	413.677	80.002	19.995	103.956	20.070	-1.536	0.471
662.000	414.741	80.003	19.994	103.955	20.070	-1.495	0.506
664.000	415.767	80.003	19.995	103.958	20.068	-1.374	0.498
666.000	416.796	80.002	19.993	103.957	20.068	-1.370	0.491
668.000	417.847	80.001	19.995	103.958	20.071	-1.561	0.522
670.000	418.883	80.002	19.995	103.958	20.067	-1.328	0.503
672.000	419.880	80.002	19.994	103.958	20.072	-1.633	0.504
674.000	420.915	80.003	19.995	103.955	20.070	-1.503	0.524
676.000	421.937	80.004	19.994	103.952	20.072	-1.651	0.505
678.000	422.934	80.004	19.995	103.954	20.073	-1.712	0.496
680.000	423.959	80.004	19.995	103.950	20.074	-1.780	0.515
682.000	425.012	80.006	19.995	103.951	20.071	-1.614	0.521
684.000	426.035	80.005	19.994	103.951	20.071	-1.614	0.498
686.000	427.062	80.004	19.995	103.953	20.072	-1.627	0.532
688.000	428.041	80.004	19.993	103.951	20.076	-1.910	0.487
690.000	429.094	80.004	19.992	103.949	20.075	-1.835	0.512
692.000	430.095	80.005	19.994	103.953	20.071	-1.569	0.506
694.000	431.093	80.004	19.994	103.953	20.073	-1.704	0.502
696.000	432.126	80.005	19.994	103.954	20.071	-1.614	0.519
698.000	433.127	80.004	19.993	103.952	20.074	-1.798	0.492
700.000	434.191	80.005	19.992	103.952	20.072	-1.649	0.539
702.000	435.196	80.006	19.995	103.952	20.074	-1.758	0.497
704.000	436.214	80.006	19.994	103.953	20.076	-1.921	0.507
706.000	437.214	80.005	19.994	103.946	20.070	-1.508	0.499
708.000	438.261	80.007	19.993	103.950	20.073	-1.743	0.538
710.000	439.246	80.006	19.993	103.953	20.072	-1.636	0.517
712.000	440.265	80.004	19.992	103.950	20.071	-1.559	0.528
714.000	441.269	80.005	19.994	103.951	20.072	-1.647	0.496
716.000	442.284	80.003	19.994	103.953	20.073	-1.701	0.514
718.000	443.279	80.005	19.992	103.946	20.072	-1.668	0.505
720.000	444.249	80.005	19.994	103.954	20.071	-1.587	0.451
722.000	445.250	80.004	19.993	103.949	20.073	-1.748	0.490
724.000	446.240	80.004	19.994	103.952	20.072	-1.625	0.511
726.000	447.195	80.003	19.994	103.953	20.074	-1.780	0.481
728.000	448.229	80.003	19.993	103.953	20.074	-1.814	0.491
730.000	449.238	80.004	19.993	103.949	20.073	-1.713	0.482
732.000	450.245	80.003	19.994	103.955	20.073	-1.737	0.488
734.000	451.241	80.004	19.994	103.954	20.074	-1.792	0.508
736.000	452.226	80.003	19.994	103.950	20.071	-1.583	0.510
738.000	453.195	80.003	19.994	103.953	20.073	-1.734	0.490
740.000	454.220	80.003	19.993	103.952	20.073	-1.745	0.481
742.000	455.205	80.004	19.995	103.951	20.072	-1.649	0.475
744.000	456.226	80.003	19.993	103.947	20.074	-1.756	0.489
746.000	457.213	80.004	19.995	103.950	20.074	-1.759	0.489
748.000	458.168	80.003	19.994	103.944	20.075	-1.853	0.494
750.000	459.178	80.003	19.993	103.951	20.073	-1.750	0.496
752.000	460.219	80.003	19.994	103.951	20.076	-1.921	0.530
754.000	461.214	80.004	19.994	103.949	20.078	-2.060	0.506
756.000	462.212	80.003	19.994	103.944	20.076	-1.910	0.484
758.000	463.276	80.004	19.994	103.952	20.078	-2.043	0.505
760.000	464.300	80.003	19.993	103.948	20.073	-1.688	0.507
762.000	465.329	80.005	19.995	103.956	20.075	-1.853	0.495
764.000	466.366	80.004	19.995	103.937	20.076	-1.899	0.535
766.000	467.385	80.004	19.994	103.944	20.077	-2.005	0.513
768.000	468.471	80.004	19.995	103.947	20.075	-1.879	0.523
770.000	469.484	80.004	19.994	103.938	20.075	-1.877	0.531
772.000	470.517	80.004	19.994	103.947	20.078	-2.071	0.521
774.000	471.580	80.003	19.994	103.947	20.078	-2.082	0.480
776.000	472.641	80.005	19.994	103.951	20.077	-1.989	0.533
778.000	473.712	80.005	19.994	103.953	20.077	-2.002	0.556
780.000	474.803	80.006	19.993	103.954	20.080	-2.183	0.553
782.000	475.837	80.005	19.993	103.947	20.078	-2.077	0.522
784.000	476.872	80.007	19.993	103.953	20.077	-1.990	0.519
786.000	477.943	80.006	19.996	103.955	20.079	-2.122	0.535
788.000	478.992	80.006	19.993	103.955	20.077	-1.992	0.557
790.000	480.023	80.006	19.993	103.953	20.078	-2.079	0.504
792.000	481.089	80.005	19.994	103.949	20.082	-2.345	0.506
794.000	482.162	80.003	19.994	103.954	20.078	-2.029	0.556
796.000	483.213	80.004	19.993	103.947	20.080	-2.154	0.552
798.000	484.209	80.003	19.993	103.941	20.080	-2.198	0.507
800.000	485.252	80.003	19.994	103.936	20.077	-1.979	0.515
802.000	486.249	80.004	19.993	103.953	20.078	-2.025	0.499
804.000	487.292	80.004	19.993	103.951	20.079	-2.100	0.511
806.000	488.366	80.004	19.994	103.955	20.079	-2.115	0.534
808.000	489.404	80.004	19.994	103.943	20.079	-2.128	0.520
810.000	490.418	80.003	19.994	103.947	20.083	-2.361	0.517
812.000	491.453	80.004	19.993	103.953	20.079	-2.137	0.512
814.000	492.464	80.005	19.993	103.946	20.080	-2.203	0.500
816.000	493.488	80.003	19.994	103.948	20.083	-2.401	0.497
818.000	494.521	80.003	19.994	103.944	20.082	-2.295	0.516
820.000	495.581	80.003	19.992	103.945	20.085	-2.495	0.517
822.000	496.576	80.004	19.994	103.940	20.085	-2.533	0.505
824.000	497.567	80.003	19.995	103.944	20.083	-2.412	0.521
826.000	498.562	80.003	19.994	103.941	20.084	-2.445	0.520
828.000	499.618	80.004	19.995	103.936	20.084	-2.453	0.498
830.000	500.611	80.004	19.995	103.935	20.084	-2.487	0.488
832.000	501.616	80.005	19.994	103.947	20.084	-2.469	0.492
834.000	502.607	80.005	19.994	103.939	20.084	-2.451	0.501
836.000	503.628	80.005	19.995	103.933	20.083	-2.375	0.516
838.000	504.660	80.005	19.995	103.947	20.083	-2.410	0.503
840.000	505.643	80.006	19.994	103.940	20.082	-2.346	0.520
842.000	506.625	80.005	19.994	103.932	20.081	-2.256	0.489
844.000	507.641	80.005	19.994	103.929	20.082	-2.333	0.514
846.000	508.648	80.004	19.993	103.931	20.084	-2.443	0.521
848.000	509.654	80.004	19.995	103.933	20.085	-2.546	0.491
850.000	510.627	80.004	19.994	103.938	20.084	-2.469	0.504
852.001	511.629	80.004	19.994	103.919	20.083	-2.362	0.506
854.000	512.630	80.003	19.995	103.930	20.080	-2.194	0.488
856.000	513.637	80.004	19.994	103.940	20.080	-2.199	0.532
858.000	514.672	80.004	19.994	103.931	20.083	-2.366	0.539
860.000	515.682	80.005	19.995	103.932	20.083	-2.399	0.535
862.000	516.669	80.003	19.994	103.931	20.085	-2.504	0.511
864.000	517.691	80.005	19.994	103.934	20.083	-2.408	0.525
866.000	518.681	80.005	19.993	103.943	20.084	-2.476	0.483
868.000	519.686	80.006	19.994	103.933	20.082	-2.315	0.501
870.000	520.719	80.007	19.994	103.942	20.086	-2.595	0.511
872.000	521.718	80.005	19.993	103.938	20.087	-2.651	0.524
874.000	522.740	80.005	19.994	103.932	20.086	-2.568	0.488
876.000	523.791	80.004	19.994	103.927	20.087	-2.685	0.543
878.000	524.792	80.004	19.994	103.936	20.086	-2.590	0.491
880.000	525.830	80.002	19.992	103.920	20.082	-2.331	0.513
882.000	526.838	80.004	19.994	103.933	20.082	-2.346	0.511
884.001	527.876	80.003	19.995	103.939	20.086	-2.584	0.509
886.000	528.935	80.005	19.994	103.936	20.087	-2.632	0.533
888.000	529.966	80.004	19.994	103.934	20.091	-2.898	0.493
890.000	530.967	80.002	19.994	103.945	20.086	-2.564	0.514
892.000	532.027	80.003	19.994	103.931	20.088	-2.707	0.548
894.000	533.127	80.004	19.994	103.937	20.085	-2.529	0.563
896.000	534.141	80.005	19.994	103.927	20.086	-2.610	0.551
898.000	535.220	80.003	19.994	103.929	20.086	-2.617	0.553
900.000	536.272	80.005	19.994	103.931	20.084	-2.451	0.525
902.000	537.337	80.002	19.994	103.934	20.084	-2.431	0.535
904.000	538.380	80.003	19.994	103.934	20.085	-2.522	0.507
906.000	539.453	80.004	19.994	103.923	20.084	-2.476	0.555
908.000	540.505	80.003	19.993	103.936	20.085	-2.495	0.540
910.000	541.547	80.003	19.994	103.926	20.086	-2.612	0.522
912.000	542.588	80.003	19.994	103.945	20.087	-2.639	0.529
914.000	543.688	80.003	19.995	103.940	20.085	-2.494	0.535
916.000	544.687	80.004	19.993	103.920	20.085	-2.524	0.510
918.000	545.765	80.005	19.994	103.930	20.090	-2.833	0.511
920.000	546.811	80.004	19.993	103.929	20.085	-2.505	0.501
922.000	547.858	80.005	19.994	103.924	20.089	-2.773	0.535
924.000	548.957	80.004	19.994	103.919	20.089	-2.777	0.543
926.000	550.033	80.004	19.994	103.929	20.090	-2.888	0.535
928.000	551.064	80.004	19.994	103.919	20.086	-2.592	0.527
930.000	552.114	80.003	19.994	103.918	20.086	-2.617	0.539
932.000	553.171	80.004	19.993	103.920	20.087	-2.636	0.522
934.000	554.218	80.005	19.995	103.933	20.087	-2.652	0.545
936.000	555.283	80.004	19.994	103.921	20.085	-2.505	0.559
938.000	556.315	80.005	19.995	103.927	20.085	-2.507	0.518
940.000	557.364	80.003	19.993	103.922	20.088	-2.705	0.529
942.000	558.458	80.006	19.994	103.931	20.090	-2.850	0.562
944.000	559.467	80.005	19.994	103.914	20.087	-2.661	0.542
946.000	560.485	80.007	19.994	103.918	20.086	-2.621	0.505
948.000	561.583	80.006	19.994	103.920	20.086	-2.588	0.562
950.000	562.558	80.007	19.996	103.918	20.088	-2.734	0.522
952.000	563.642	80.004	19.994	103.921	20.090	-2.854	0.519
954.000	564.678	80.003	19.995	103.915	20.088	-2.705	0.529
956.000	565.709	80.004	19.994	103.919	20.087	-2.667	0.531
958.001	566.793	80.004	19.994	103.921	20.090	-2.877	0.509
960.000	567.791	80.003	19.994	103.918	20.087	-2.687	0.511
962.000	568.852	80.003	19.994	103.914	20.089	-2.788	0.496
964.000	569.894	80.003	19.993	103.916	20.087	-2.672	0.546
966.000	570.923	80.002	19.993	103.921	20.090	-2.870	0.530
968.000	571.930	80.003	19.993	103.918	20.091	-2.944	0.484
970.000	573.015	80.003	19.993	103.919	20.091	-2.900	0.537
972.000	574.073	80.004	19.995	103.923	20.089	-2.806	0.524
974.000	575.159	80.003	19.993	103.931	20.090	-2.828	0.557
976.000	576.148	80.004	19.993	103.921	20.092	-2.958	0.498
978.000	577.173	80.003	19.995	103.929	20.086	-2.612	0.512
980.000	578.228	80.003	19.993	103.923	20.090	-2.843	0.528
982.000	579.218	80.004	19.993	103.918	20.089	-2.777	0.491
984.000	580.229	80.003	19.994	103.921	20.091	-2.920	0.506
986.000	581.283	80.002	19.993	103.927	20.090	-2.841	0.508
988.000	582.280	80.004	19.993	103.921	20.090	-2.877	0.521
990.001	583.293	80.002	19.993	103.918	20.091	-2.922	0.497
992.000	584.330	80.002	19.993	103.919	20.091	-2.925	0.531
994.000	585.329	80.004	19.994	103.920	20.089	-2.797	0.503
996.000	586.341	80.003	19.993	103.919	20.092	-3.022	0.516
998.000	587.338	80.005	19.993	103.918	20.091	-2.916	0.501
1000.000	588.344	80.004	19.992	103.916	20.096	-3.277	0.479
1002.000	589.331	80.007	19.995	103.928	20.095	-3.195	0.509
1004.000	590.332	80.005	19.995	103.919	20.094	-3.114	0.468
1006.000	591.360	80.005	19.993	103.917	20.090	-2.888	0.468
1008.000	592.346	80.004	19.993	103.920	20.089	-2.780	0.501
1010.000	593.349	80.005	19.994	103.917	20.094	-3.138	0.512
1012.000	594.340	80.004	19.994	103.930	20.090	-2.832	0.507
1014.000	595.377	80.005	19.994	103.922	20.092	-3.009	0.520
1016.000	596.371	80.004	19.994	103.917	20.091	-2.942	0.531
1018.000	597.381	80.005	19.994	103.916	20.094	-3.100	0.520
1020.000	598.369	80.004	19.994	103.916	20.094	-3.109	0.524
1022.000	599.354	80.005	19.993	103.920	20.098	-3.369	0.526
1024.000	600.370	80.006	19.994	103.915	20.094	-3.103	0.512
1026.001	601.368	80.006	19.993	103.915	20.092	-2.987	0.497
1028.000	602.332	80.007	19.994	103.923	20.092	-3.010	0.478
1030.000	603.347	80.006	19.993	103.930	20.090	-2.865	0.483
1032.001	604.353	80.006	19.993	103.928	20.091	-2.911	0.466
1034.000	605.389	80.004	19.994	103.921	20.091	-2.905	0.520
1036.000	606.398	80.004	19.994	103.916	20.091	-2.918	0.495
1038.000	607.421	80.005	19.995	103.921	20.090	-2.888	0.519
1040.000	608.396	80.003	19.995	103.921	20.091	-2.901	0.528
1042.000	609.402	80.003	19.994	103.929	20.090	-2.839	0.503
1044.000	610.385	80.002	19.994	103.920	20.093	-3.059	0.508
1046.000	611.356	80.003	19.994	103.919	20.090	-2.866	0.475
1048.001	612.387	80.003	19.994	103.918	20.090	-2.879	0.487
1050.000	613.428	80.004	19.994	103.920	20.093	-3.059	0.493
1052.000	614.481	80.003	19.994	103.921	20.091	-2.931	0.528
1054.000	615.471	80.003	19.994	103.919	20.091	-2.942	0.535
1056.000	616.481	80.004	19.993	103.919	20.093	-3.070	0.522
1058.000	617.572	80.005	19.994	103.917	20.091	-2.900	0.521
1060.000	618.583	80.004	19.992	103.918	20.093	-3.065	0.539
1062.001	619.642	80.003	19.994	103.932	20.093	-3.085	0.535
1064.000	620.684	80.002	19.994	103.920	20.092	-3.001	0.528
1066.000	621.705	80.004	19.994	103.925	20.090	-2.885	0.527
1068.001	622.708	80.003	19.994	103.923	20.095	-3.195	0.511
1070.001	623.728	80.004	19.994	103.919	20.109	-4.139	0.526
1072.001	624.743	80.003	19.993	103.920	20.092	-3.021	0.486
1074.000	625.777	80.003	19.994	103.938	20.096	-3.283	0.533
1076.001	626.741	80.003	19.994	103.926	20.094	-3.122	0.482
1078.000	627.781	80.004	19.993	103.924	20.095	-3.175	0.598
1080.000	628.921	80.005	19.994	103.917	20.095	-3.170	0.631
1082.000	629.820	80.004	19.993	103.923	20.095	-3.221	0.471
1084.000	631.197	80.004	19.994	103.917	20.094	-3.109	0.649
1086.001	631.989	80.005	19.993	103.919	20.096	-3.268	-0.062
1088.001	633.018	80.005	19.993	103.931	20.095	-3.174	0.516
1090.001	634.057	80.005	19.993	103.926	20.092	-2.981	0.482
1092.001	634.957	80.005	19.993	103.930	20.095	-3.206	0.585
1094.000	636.123	80.003	19.993	103.922	20.095	-3.214	0.471
1096.000	637.165	80.005	19.993	103.918	20.093	-3.032	0.554
1098.000	638.201	80.005	19.994	103.937	20.093	-3.074	0.538
1100.000	639.243	80.005	19.993	103.946	20.095	-3.197	0.475
1102.000	640.330	80.005	19.993	103.923	20.091	-2.898	0.544
1104.000	641.294	80.006	19.994	103.935	20.093	-3.067	0.503
1106.000	642.343	80.005	19.993	103.932	20.093	-3.051	0.486
1108.001	643.382	80.004	19.995	103.941	20.095	-3.214	0.522
1110.000	644.386	80.003	19.994	103.945	20.086	-2.561	0.488
1112.000	645.446	80.005	19.994	103.940	20.091	-2.901	0.514
1114.000	646.453	80.002	19.993	103.940	20.093	-3.077	0.550
1116.000	647.479	80.004	19.994	103.940	20.092	-3.009	0.480
1118.000	648.601	80.003	19.994	103.948	20.090	-2.875	0.574
1120.001	649.592	80.001	19.992	103.957	20.088	-2.737	0.497
1122.000	650.892	80.002	19.995	103.955	20.093	-3.062	0.811
1124.000	651.302	80.003	19.993	103.956	20.092	-3.016	0.744
1126.000	652.616	80.003	19.995	103.952	20.092	-2.972	0.472
1128.000	653.728	80.003	19.993	103.949	20.091	-2.917	0.445
1130.000	654.723	80.003	19.993	103.951	20.093	-3.079	0.539
1132.000	655.725	80.004	19.995	103.953	20.092	-2.970	0.459
1134.000	656.783	80.004	19.995	103.952	20.088	-2.739	0.486
1136.001	657.761	80.004	19.995	103.952	20.089	-2.780	0.459
1138.000	658.780	80.002	19.996	103.950	20.089	-2.809	0.527
1140.000	659.748	80.003	19.993	103.957	20.086	-2.589	0.494
1142.000	660.799	80.001	19.995	103.953	20.089	-2.793	0.504
1144.000	661.781	80.002	19.994	103.959	20.089	-2.796	0.487
1146.001	662.809	80.004	19.994	103.963	20.087	-2.631	0.491
1148.000	663.769	80.003	19.993	103.961	20.088	-2.740	0.493
1150.000	664.790	80.003	19.993	103.961	20.086	-2.615	0.503
1152.000	665.772	80.004	19.995	103.969	20.085	-2.532	0.489
1154.000	666.806	80.004	19.994	103.972	20.087	-2.645	0.503
1156.000	667.750	80.005	19.994	103.969	20.085	-2.551	0.494
1158.000	668.761	80.005	19.994	103.967	20.086	-2.562	0.511
1160.001	669.762	80.005	19.993	103.978	20.089	-2.780	0.486
1162.001	670.752	80.005	19.994	103.973	20.086	-2.580	0.508
1164.000	671.731	80.004	19.994	103.983	20.087	-2.676	0.500
1166.000	672.770	80.004	19.994	103.993	20.085	-2.549	0.524
1168.000	673.747	80.005	19.993	103.982	20.087	-2.641	0.484
1170.000	674.795	80.005	19.993	103.986	20.087	-2.682	0.542
1172.000	675.818	80.004	19.994	103.995	20.084	-2.482	0.517
1174.000	676.829	80.004	19.993	103.995	20.082	-2.337	0.514
1176.000	677.843	80.004	19.993	103.994	20.085	-2.511	0.507
1178.001	678.897	80.005	19.993	103.997	20.087	-2.656	0.529
1180.001	679.810	80.005	19.991	104.000	20.088	-2.728	0.466
1182.000	680.898	80.007	19.994	104.006	20.087	-2.632	0.525
1184.001	681.925	80.006	19.993	104.008	20.086	-2.581	0.508
1186.000	682.907	80.008	19.993	104.007	20.088	-2.693	0.511
1188.000	683.908	80.009	19.994	104.016	20.087	-2.651	0.488
1190.000	684.941	80.006	19.994	104.010	20.085	-2.524	0.488
1192.000	685.992	80.005	19.993	104.009	20.088	-2.713	0.523
1194.001	686.727	80.003	19.994	104.021	20.085	-2.491	0.344
1196.000	687.985	80.005	19.993	104.018	20.087	-2.627	0.510
1198.001	689.002	80.004	19.994	104.017	20.089	-2.765	0.496
1200.000	689.965	80.003	19.995	104.031	20.088	-2.714	0.489
1202.000	690.980	80.004	19.993	104.026	20.089	-2.793	0.527
1204.000	691.954	80.005	19.993	104.029	20.084	-2.448	0.504
1206.000	692.950	80.005	19.995	104.034	20.082	-2.290	0.509
1208.000	693.951	80.003	19.994	104.036	20.085	-2.514	0.509
1210.000	694.960	80.004	19.994	104.033	20.084	-2.448	0.491
1212.000	695.974	80.003	19.994	104.038	20.086	-2.599	0.500
1214.000	696.948	80.005	19.994	104.045	20.083	-2.362	0.485
1216.000	697.940	80.004	19.993	104.058	20.085	-2.523	0.499
1218.000	698.879	80.004	19.994	104.055	20.084	-2.459	0.481
1220.000	699.907	80.003	19.996	104.063	20.081	-2.283	0.516
1222.000	700.869	80.004	19.995	104.055	20.082	-2.316	0.510
1224.000	701.852	80.002	19.994	104.067	20.082	-2.320	0.491
1226.000	702.848	80.003	19.994	104.069	20.081	-2.250	0.472
1228.000	703.801	80.002	19.995	104.062	20.081	-2.251	0.500
1230.000	704.781	80.004	19.995	104.070	20.082	-2.331	0.490
1232.000	705.773	80.003	19.995	104.074	20.079	-2.124	0.491
1234.000	706.764	80.004	19.995	104.078	20.083	-2.374	0.508
1236.000	707.710	80.004	19.994	104.076	20.082	-2.337	0.470
1238.000	708.704	80.004	19.994	104.096	20.081	-2.262	0.482
1240.000	709.693	80.004	19.992	104.098	20.079	-2.126	0.506
1242.000	710.679	80.005	19.993	104.105	20.080	-2.181	0.500
1244.000	711.678	80.005	19.994	104.105	20.081	-2.231	0.488
1246.001	712.656	80.004	19.994	104.111	20.075	-1.829	0.483
1248.001	713.663	80.004	19.994	104.111	20.078	-2.067	0.490
1250.000	714.633	80.005	19.994	104.111	20.073	-1.742	0.447
1252.000	715.643	80.005	19.993	104.114	20.073	-1.733	0.542
1254.000	716.673	80.005	19.994	104.112	20.070	-1.515	0.483
1256.000	717.686	80.005	19.994	104.128	20.070	-1.489	0.507
1258.000	718.632	80.006	19.994	104.138	20.076	-1.939	0.503
1260.000	719.699	80.006	19.993	104.138	20.068	-1.415	0.494
1262.000	720.740	80.006	19.994	104.137	20.069	-1.482	0.525
1264.000	721.750	80.007	19.993	104.147	20.069	-1.445	0.509
1266.001	722.814	80.006	19.993	104.148	20.069	-1.460	0.530
1268.001	723.844	80.007	19.994	104.153	20.069	-1.471	0.543
1270.000	724.915	80.005	19.994	104.150	20.067	-1.320	0.519
1272.000	725.947	80.005	19.994	104.160	20.064	-1.136	0.533
1274.000	726.961	80.004	19.992	104.168	20.066	-1.280	0.501
1276.001	728.024	80.003	19.994	104.186	20.062	-0.969	0.519
1278.000	729.090	80.005	19.994	104.187	20.066	-1.249	0.536
1280.001	730.129	80.004	19.994	104.189	20.062	-0.997	0.519
1282.000	731.154	80.003	19.994	104.195	20.064	-1.102	0.487
1284.000	732.235	80.005	19.994	104.196	20.063	-1.056	0.522
1286.000	733.246	80.002	19.995	104.202	20.064	-1.148	0.510
1288.000	734.257	80.003	19.995	104.208	20.062	-0.997	0.489
1290.000	735.316	80.004	19.995	104.224	20.060	-0.865	0.500
1292.000	736.383	80.004	19.994	104.226	20.058	-0.732	0.533
1294.000	737.406	80.003	19.994	104.229	20.056	-0.596	0.500
1296.001	738.463	80.004	19.994	104.225	20.056	-0.594	0.534
1298.000	739.483	80.003	19.994	104.233	20.056	-0.591	0.507
1300.000	740.549	80.002	19.992	104.237	20.057	-0.637	0.505
1302.000	741.607	80.003	19.995	104.239	20.056	-0.570	0.527
1304.000	742.632	80.003	19.994	104.251	20.055	-0.541	0.495
1305.500	743.384	80.004	19.994	104.255	20.054	-0.464	0.502