File: 01_Data/PUF_Mattress_Pad/MCC/PUF_Mattress_Pad_MCC_30K_min_220110_R2.txt
Sample ID:	C:\MCC\MCC Cal\Test\PUF_Mattress_Pad_MCC_30K_min_220110_R2.txt
Sample Weight (mg):	4.25
Heating Rate (C/s):	0.5
Combustor Temp (C):	900
N2 Flow Rate (cc/min):	80
O2 Flow Rate (cc/min):	20
Calibration File:	C:\MCC\MCC Cal\Coeff1 JN10440_30_210304.txt.txt
T Correction Coefficients:	0	1.024463	0
Time Shift (s):	14
*
Time (s)	Temperature (C)	N2 flow rate (cc/min)	O2 flow rate (cc/min)	Flow Rate (cc/min)	Oxygen (%)	HRR (W/g)	Heating rate (C/s)
0.000	110.936	80.011	19.990	104.074	20.052	-0.212	0.003
2.000	110.952	80.003	19.993	104.070	20.050	-0.059	0.007
4.001	110.936	80.011	19.992	104.071	20.048	0.098	0.005
6.000	110.979	80.029	19.987	104.069	20.049	0.063	0.001
8.000	110.931	79.997	19.993	104.074	20.051	-0.101	0.016
10.000	110.924	79.998	19.994	104.064	20.045	0.344	0.012
12.000	110.958	79.999	19.994	104.104	20.047	0.178	0.000
14.000	110.956	80.007	19.991	104.102	20.043	0.533	0.001
16.000	111.013	80.014	19.992	104.116	20.039	0.789	0.029
18.001	111.007	80.005	19.993	104.151	20.033	1.269	0.025
20.001	111.075	80.006	19.994	104.200	20.028	1.674	0.038
22.000	111.197	80.006	19.994	104.197	20.026	1.792	0.058
24.000	111.317	80.001	19.994	104.196	20.024	1.943	0.090
26.000	111.510	80.021	19.992	104.285	20.019	2.337	0.104
28.000	111.633	80.000	19.996	104.261	20.015	2.631	0.060
30.001	111.872	80.002	19.994	104.263	20.012	2.858	0.131
32.001	112.087	80.003	19.993	104.268	20.014	2.711	0.135
34.001	112.355	80.009	19.993	104.276	20.014	2.745	0.161
36.000	112.693	80.004	19.994	104.272	20.013	2.774	0.179
38.000	113.015	80.005	19.993	104.266	20.011	2.986	0.157
40.001	113.367	80.003	19.993	104.280	20.007	3.270	0.195
42.001	113.737	80.003	19.995	104.288	20.005	3.394	0.203
44.001	114.217	80.002	19.994	104.296	20.005	3.390	0.207
46.001	114.632	80.003	19.993	104.300	20.001	3.711	0.201
48.000	115.133	80.002	19.995	104.300	20.004	3.466	0.260
50.000	115.613	80.002	19.995	104.316	20.001	3.715	0.252
52.000	116.134	80.003	19.993	104.324	20.001	3.751	0.244
54.000	116.633	80.004	19.994	104.328	19.998	3.948	0.271
56.000	117.189	80.003	19.994	104.327	19.998	3.973	0.269
58.000	117.784	80.005	19.992	104.327	19.999	3.908	0.263
60.000	118.375	80.009	19.992	104.332	20.001	3.755	0.315
62.001	118.977	80.004	19.991	104.327	20.001	3.720	0.319
64.000	119.615	80.005	19.993	104.312	20.001	3.731	0.326
66.001	120.305	80.005	19.993	104.329	20.001	3.756	0.324
68.001	120.990	80.005	19.994	104.313	20.000	3.776	0.330
70.001	121.722	80.004	19.993	104.318	19.999	3.841	0.380
72.001	122.409	80.005	19.993	104.328	20.001	3.684	0.366
74.000	123.204	80.005	19.993	104.327	20.000	3.766	0.378
76.001	123.970	80.005	19.993	104.274	19.999	3.890	0.389
78.000	124.750	80.006	19.993	104.348	20.000	3.803	0.406
80.000	125.508	80.008	19.992	104.371	19.998	3.955	0.393
82.001	126.295	80.008	19.992	104.318	19.999	3.898	0.389
84.000	127.071	80.006	19.993	104.330	20.001	3.722	0.370
86.001	127.935	80.005	19.994	104.328	20.001	3.715	0.439
88.000	128.739	80.004	19.996	104.327	20.001	3.759	0.404
90.000	129.569	80.005	19.993	104.329	20.002	3.673	0.407
92.000	130.390	80.007	19.991	104.328	19.997	4.036	0.365
94.000	131.219	80.004	19.994	104.331	20.001	3.726	0.394
96.000	132.119	80.002	19.996	104.324	20.001	3.721	0.455
98.000	133.013	80.003	19.996	104.317	19.999	3.860	0.449
100.000	133.903	80.004	19.994	104.329	20.002	3.669	0.468
102.000	134.769	80.003	19.993	104.330	20.001	3.711	0.438
104.000	135.625	80.002	19.997	104.317	20.002	3.636	0.420
106.001	136.538	80.004	19.995	104.325	20.006	3.335	0.451
108.000	137.479	80.009	19.989	104.313	20.004	3.472	0.493
110.001	138.346	80.003	19.993	104.328	20.002	3.613	0.457
112.000	139.242	80.004	19.993	104.318	20.002	3.650	0.436
114.000	140.180	80.004	19.994	104.317	20.001	3.753	0.450
116.000	141.098	80.004	19.993	104.325	20.001	3.692	0.466
118.000	142.020	80.005	19.993	104.325	20.002	3.642	0.455
120.000	142.977	80.003	19.994	104.332	20.003	3.601	0.533
122.000	143.904	80.004	19.993	104.323	20.000	3.776	0.487
124.001	144.826	80.005	19.993	104.312	20.000	3.772	0.473
126.000	145.784	80.002	19.994	104.313	19.999	3.850	0.494
128.000	146.657	80.005	19.994	104.325	20.001	3.747	0.440
130.000	147.601	80.003	19.995	104.321	19.999	3.902	0.457
132.000	148.568	80.003	19.993	104.321	20.001	3.738	0.475
134.000	149.514	80.002	19.994	104.328	20.002	3.654	0.455
136.000	150.488	80.004	19.994	104.320	19.998	3.940	0.496
138.000	151.419	80.004	19.993	104.329	20.001	3.719	0.467
140.000	152.417	80.005	19.994	104.318	20.000	3.769	0.477
142.000	153.359	80.006	19.994	104.314	19.997	4.029	0.525
144.000	154.301	80.004	19.994	104.312	19.995	4.145	0.509
146.001	155.261	80.006	19.993	104.319	19.996	4.069	0.515
148.000	156.233	80.005	19.994	104.321	20.000	3.776	0.507
150.000	157.216	80.005	19.994	104.314	20.003	3.595	0.486
152.000	158.164	80.004	19.994	104.307	19.995	4.182	0.456
154.000	159.173	80.005	19.994	104.305	20.001	3.689	0.498
156.001	160.152	80.005	19.993	104.311	19.999	3.891	0.482
158.000	161.100	80.004	19.994	104.312	19.999	3.882	0.513
160.001	162.126	80.005	19.994	104.303	20.002	3.631	0.516
162.000	163.117	80.007	19.994	104.300	20.000	3.834	0.501
164.000	164.106	80.007	19.993	104.304	19.999	3.910	0.459
166.000	165.105	80.006	19.993	104.307	19.999	3.866	0.494
168.000	166.164	80.007	19.993	104.304	19.998	3.964	0.514
170.001	167.144	80.005	19.995	104.306	20.000	3.832	0.526
172.000	168.097	80.007	19.992	104.307	19.997	4.025	0.508
174.000	169.140	80.005	19.993	104.300	19.998	3.968	0.496
176.001	170.122	80.004	19.992	104.306	19.995	4.168	0.501
178.001	171.077	80.003	19.993	104.306	19.996	4.134	0.469
180.000	172.116	80.003	19.994	104.307	19.993	4.352	0.505
182.001	173.105	80.003	19.994	104.309	19.993	4.355	0.482
184.000	174.132	80.004	19.992	104.303	19.993	4.352	0.496
186.000	175.111	80.003	19.995	104.302	19.996	4.134	0.481
188.000	176.104	80.004	19.993	104.300	19.996	4.115	0.469
190.000	177.070	80.004	19.994	104.300	19.993	4.318	0.502
192.000	178.069	80.004	19.992	104.301	19.998	3.968	0.504
194.000	179.102	80.003	19.994	104.308	19.993	4.353	0.524
196.000	180.060	80.003	19.993	104.302	19.992	4.379	0.481
198.000	181.075	80.003	19.993	104.292	19.997	4.056	0.490
200.001	182.077	80.006	19.993	104.296	19.994	4.253	0.483
202.001	183.094	80.004	19.993	104.289	19.994	4.259	0.506
204.000	184.080	80.004	19.993	104.284	19.996	4.092	0.522
206.000	185.081	80.003	19.993	104.280	19.990	4.600	0.497
208.000	186.106	80.003	19.993	104.289	19.990	4.532	0.517
210.000	187.150	80.003	19.994	104.286	19.990	4.532	0.536
212.000	188.120	80.004	19.993	104.287	19.992	4.378	0.510
214.001	189.090	80.004	19.994	104.282	19.993	4.356	0.482
216.000	190.085	80.004	19.995	104.296	19.988	4.742	0.503
218.000	191.077	80.005	19.994	104.291	19.988	4.738	0.486
220.001	192.011	80.005	19.994	104.294	19.987	4.755	0.483
222.000	192.995	80.005	19.993	104.276	19.986	4.876	0.495
224.000	193.974	80.006	19.993	104.278	19.985	4.954	0.505
226.000	194.961	80.005	19.994	104.296	19.981	5.247	0.475
228.001	195.963	80.003	19.995	104.289	19.983	5.100	0.479
230.000	196.926	80.004	19.995	104.279	19.978	5.478	0.485
232.001	197.901	80.005	19.996	104.287	19.978	5.495	0.470
234.000	198.923	80.005	19.995	104.279	19.977	5.527	0.486
236.000	199.937	80.005	19.995	104.283	19.978	5.514	0.494
238.000	200.907	80.004	19.994	104.280	19.974	5.819	0.485
240.000	201.898	80.004	19.994	104.270	19.972	5.938	0.486
242.000	202.861	80.004	19.995	104.295	19.971	6.015	0.479
244.000	203.804	80.004	19.994	104.287	19.969	6.172	0.439
246.000	204.841	80.007	19.993	104.282	19.969	6.169	0.499
248.000	205.845	80.005	19.993	104.282	19.966	6.416	0.483
250.000	206.877	80.006	19.994	104.297	19.962	6.689	0.558
252.001	207.809	80.006	19.994	104.286	19.959	6.914	0.498
254.001	208.859	80.004	19.994	104.273	19.956	7.187	0.478
256.001	209.797	80.005	19.993	104.272	19.955	7.271	0.464
258.000	210.809	80.004	19.993	104.287	19.949	7.736	0.523
260.000	211.816	80.005	19.993	104.276	19.948	7.801	0.512
262.000	212.770	80.004	19.993	104.297	19.941	8.288	0.488
264.000	213.773	80.003	19.993	104.296	19.940	8.393	0.508
266.000	214.762	80.004	19.994	104.298	19.938	8.534	0.452
268.001	215.759	80.004	19.993	104.295	19.933	8.962	0.477
270.001	216.780	80.005	19.994	104.282	19.928	9.338	0.500
272.001	217.765	80.004	19.992	104.289	19.924	9.604	0.497
274.000	218.792	80.005	19.992	104.292	19.919	9.982	0.508
276.000	219.755	80.004	19.993	104.293	19.916	10.249	0.476
278.000	220.771	80.005	19.993	104.297	19.912	10.538	0.543
280.000	221.750	80.004	19.993	104.295	19.906	11.004	0.519
282.000	222.749	80.005	19.993	104.297	19.900	11.447	0.504
284.001	223.722	80.005	19.994	104.294	19.893	11.990	0.488
286.000	224.713	80.005	19.993	104.294	19.886	12.488	0.462
288.000	225.727	80.005	19.993	104.300	19.882	12.801	0.483
290.000	226.702	80.005	19.994	104.297	19.880	13.002	0.506
292.000	227.720	80.004	19.994	104.298	19.873	13.518	0.494
294.001	228.717	80.004	19.994	104.299	19.870	13.722	0.529
296.001	229.724	80.004	19.993	104.294	19.862	14.350	0.512
298.000	230.742	80.006	19.992	104.298	19.853	15.057	0.481
300.000	231.725	80.004	19.993	104.301	19.843	15.799	0.495
302.001	232.710	80.006	19.994	104.298	19.842	15.913	0.476
304.001	233.725	80.006	19.994	104.298	19.832	16.664	0.495
306.000	234.715	80.006	19.992	104.302	19.824	17.254	0.512
308.000	235.757	80.007	19.992	104.302	19.814	18.030	0.490
310.001	236.724	80.006	19.993	104.309	19.808	18.498	0.470
312.000	237.776	80.007	19.993	104.309	19.798	19.249	0.496
314.000	238.754	80.004	19.993	104.317	19.791	19.776	0.503
316.000	239.756	80.005	19.994	104.321	19.783	20.445	0.500
318.000	240.749	80.004	19.995	104.321	19.771	21.323	0.496
320.000	241.743	80.005	19.993	104.310	19.757	22.396	0.504
322.000	242.764	80.004	19.993	104.325	19.748	23.117	0.485
324.000	243.763	80.004	19.993	104.335	19.739	23.825	0.482
326.000	244.754	80.004	19.994	104.331	19.729	24.572	0.458
328.000	245.783	80.006	19.993	104.341	19.717	25.487	0.493
330.001	246.769	80.005	19.993	104.342	19.705	26.430	0.495
332.000	247.773	80.006	19.993	104.342	19.694	27.247	0.518
334.000	248.817	80.007	19.992	104.347	19.676	28.648	0.528
336.000	249.822	80.006	19.994	104.346	19.661	29.810	0.538
338.001	250.829	80.004	19.995	104.338	19.647	30.882	0.493
340.001	251.877	80.004	19.994	104.337	19.634	31.853	0.504
342.000	252.878	80.004	19.994	104.340	19.620	32.937	0.511
344.000	253.895	80.003	19.994	104.344	19.600	34.478	0.511
346.000	254.913	80.004	19.994	104.351	19.584	35.646	0.496
348.000	255.931	80.004	19.994	104.362	19.565	37.138	0.502
350.001	256.892	80.004	19.995	104.373	19.557	37.777	0.484
352.001	257.921	80.004	19.994	104.378	19.528	39.945	0.521
354.001	258.897	80.004	19.993	104.377	19.508	41.534	0.527
356.000	259.938	80.002	19.994	104.376	19.488	43.058	0.452
358.001	260.892	80.004	19.994	104.375	19.470	44.417	0.483
360.000	261.916	80.005	19.993	104.377	19.446	46.290	0.526
362.001	262.925	80.004	19.994	104.375	19.424	47.978	0.491
364.000	263.956	80.006	19.993	104.379	19.400	49.814	0.503
366.001	264.865	80.005	19.994	104.401	19.376	51.643	0.473
368.000	265.881	80.006	19.994	104.405	19.350	53.613	0.467
370.000	266.872	80.004	19.993	104.407	19.322	55.774	0.490
372.000	267.879	80.003	19.992	104.402	19.291	58.148	0.492
374.000	268.872	80.004	19.992	104.408	19.264	60.252	0.525
376.000	269.850	80.004	19.993	104.420	19.233	62.606	0.499
378.001	270.853	80.004	19.993	104.431	19.197	65.386	0.492
380.001	271.866	80.003	19.993	104.450	19.159	68.298	0.513
382.001	272.846	80.004	19.993	104.462	19.116	71.629	0.514
384.000	273.832	80.005	19.994	104.472	19.072	75.019	0.483
386.001	274.824	80.005	19.993	104.470	19.026	78.516	0.490
388.000	275.827	80.004	19.992	104.489	18.973	82.599	0.499
390.001	276.813	80.006	19.992	104.498	18.922	86.546	0.504
392.001	277.819	80.006	19.992	104.504	18.867	90.777	0.525
394.000	278.813	80.005	19.992	104.505	18.811	95.003	0.516
396.000	279.790	80.006	19.992	104.515	18.759	99.007	0.511
398.000	280.759	80.005	19.992	104.517	18.714	102.430	0.485
400.000	281.815	80.005	19.992	104.526	18.672	105.601	0.511
402.000	282.751	80.005	19.992	104.521	18.646	107.638	0.484
404.000	283.734	80.005	19.993	104.526	18.633	108.602	0.487
406.000	284.735	80.004	19.993	104.510	18.648	107.520	0.478
408.000	285.755	80.006	19.994	104.497	18.690	104.259	0.494
410.000	286.830	80.006	19.993	104.474	18.762	98.782	0.508
412.000	287.762	80.006	19.994	104.439	18.861	91.174	0.489
414.000	288.792	80.006	19.993	104.447	18.964	83.238	0.498
416.000	289.739	80.006	19.993	104.455	19.057	76.083	0.471
418.001	290.776	80.007	19.993	104.478	19.143	69.480	0.510
420.000	291.807	80.007	19.993	104.499	19.218	63.695	0.537
422.001	292.837	80.006	19.993	104.477	19.281	58.928	0.488
424.000	293.861	80.005	19.995	104.440	19.333	54.891	0.508
426.000	294.873	80.004	19.994	104.405	19.373	51.859	0.482
428.001	295.869	80.005	19.993	104.377	19.405	49.418	0.495
430.000	296.893	80.004	19.993	104.382	19.424	47.876	0.496
432.000	297.945	80.003	19.994	104.381	19.425	47.817	0.558
434.000	298.975	80.003	19.994	104.400	19.412	48.825	0.500
436.000	300.020	80.003	19.993	104.403	19.400	49.793	0.523
438.000	301.075	80.004	19.995	104.372	19.396	50.066	0.526
440.000	302.132	80.004	19.994	104.340	19.400	49.769	0.555
442.000	303.207	80.005	19.994	104.312	19.412	48.825	0.504
444.000	304.305	80.003	19.994	104.328	19.429	47.518	0.556
446.001	305.381	80.004	19.995	104.340	19.456	45.491	0.539
448.001	306.472	80.005	19.995	104.357	19.484	43.354	0.555
450.000	307.542	80.004	19.993	104.353	19.512	41.138	0.567
452.000	308.576	80.005	19.992	104.355	19.543	38.769	0.535
454.000	309.705	80.003	19.993	104.351	19.568	36.847	0.578
456.000	310.746	80.003	19.993	104.339	19.597	34.623	0.550
458.000	311.783	80.004	19.994	104.338	19.618	33.018	0.512
460.000	312.862	80.004	19.993	104.320	19.639	31.401	0.504
462.000	313.921	80.003	19.992	104.308	19.658	29.950	0.511
464.001	314.995	80.003	19.994	104.305	19.680	28.283	0.527
466.001	316.015	80.004	19.993	104.302	19.693	27.326	0.537
468.000	317.115	80.004	19.994	104.300	19.708	26.122	0.527
470.000	318.142	80.005	19.994	104.302	19.723	24.999	0.490
472.000	319.192	80.007	19.994	104.294	19.733	24.236	0.546
474.000	320.191	80.007	19.993	104.291	19.742	23.555	0.533
476.000	321.243	80.007	19.993	104.276	19.748	23.075	0.537
478.000	322.257	80.006	19.993	104.278	19.754	22.615	0.525
480.000	323.299	80.005	19.994	104.271	19.762	22.047	0.502
482.001	324.314	80.005	19.993	104.259	19.765	21.783	0.526
484.001	325.346	80.006	19.992	104.259	19.772	21.232	0.496
486.000	326.437	80.006	19.992	104.259	19.774	21.116	0.562
488.000	327.404	80.006	19.991	104.260	19.779	20.724	0.498
490.000	328.463	80.006	19.992	104.261	19.780	20.634	0.523
492.001	329.479	80.008	19.992	104.255	19.779	20.728	0.511
494.000	330.496	80.007	19.993	104.257	19.785	20.285	0.529
496.000	331.545	80.008	19.992	104.254	19.785	20.282	0.536
498.000	332.549	80.008	19.992	104.253	19.782	20.469	0.518
500.000	333.570	80.007	19.993	104.259	19.780	20.632	0.519
502.000	334.627	80.008	19.993	104.253	19.778	20.822	0.522
504.001	335.638	80.006	19.993	104.258	19.774	21.118	0.490
506.001	336.636	80.007	19.994	104.253	19.771	21.351	0.528
508.001	337.681	80.005	19.994	104.259	19.764	21.853	0.536
510.000	338.686	80.004	19.993	104.257	19.760	22.159	0.507
512.000	339.666	80.005	19.994	104.255	19.756	22.484	0.486
514.000	340.652	80.004	19.994	104.251	19.744	23.357	0.508
516.000	341.662	80.005	19.993	104.242	19.734	24.123	0.524
518.000	342.668	80.005	19.993	104.244	19.729	24.550	0.490
520.000	343.664	80.004	19.993	104.255	19.715	25.573	0.481
522.000	344.656	80.004	19.993	104.250	19.699	26.802	0.505
524.000	345.632	80.004	19.993	104.244	19.685	27.891	0.497
526.001	346.643	80.004	19.993	104.246	19.671	28.940	0.505
528.001	347.612	80.005	19.992	104.255	19.657	30.067	0.474
530.000	348.642	80.003	19.996	104.260	19.635	31.720	0.520
532.000	349.646	80.004	19.995	104.262	19.616	33.153	0.530
534.000	350.665	80.004	19.994	104.259	19.590	35.154	0.517
536.000	351.654	80.005	19.994	104.250	19.565	37.068	0.496
538.000	352.674	80.003	19.995	104.256	19.536	39.321	0.498
540.000	353.716	80.003	19.993	104.257	19.504	41.787	0.517
542.000	354.712	80.004	19.994	104.256	19.471	44.269	0.482
544.000	355.705	80.004	19.993	104.258	19.438	46.803	0.485
546.000	356.718	80.004	19.993	104.258	19.400	49.744	0.519
548.000	357.733	80.004	19.993	104.259	19.351	53.492	0.506
550.000	358.724	80.005	19.993	104.260	19.302	57.207	0.501
552.000	359.744	80.007	19.993	104.263	19.249	61.301	0.527
554.001	360.733	80.006	19.993	104.263	19.197	65.315	0.532
556.000	361.721	80.007	19.993	104.263	19.139	69.697	0.488
558.000	362.729	80.007	19.993	104.263	19.078	74.401	0.524
560.000	363.740	80.007	19.993	104.263	19.015	79.181	0.499
562.000	364.717	80.006	19.993	104.284	18.947	84.430	0.458
564.001	365.728	80.006	19.993	104.287	18.868	90.449	0.482
566.000	366.706	80.006	19.993	104.298	18.783	97.019	0.482
568.000	367.689	80.005	19.993	104.294	18.702	103.167	0.477
570.000	368.715	80.004	19.993	104.291	18.617	109.683	0.495
572.000	369.720	80.006	19.993	104.275	18.526	116.637	0.516
574.000	370.678	80.005	19.992	104.279	18.432	123.805	0.518
576.001	371.631	80.006	19.993	104.304	18.338	131.040	0.461
578.001	372.593	80.007	19.992	104.315	18.238	138.680	0.491
580.000	373.592	80.006	19.992	104.300	18.147	145.637	0.462
582.001	374.584	80.007	19.994	104.280	18.053	152.820	0.507
584.000	375.562	80.006	19.993	104.270	17.951	160.574	0.503
586.000	376.538	80.007	19.993	104.295	17.853	168.061	0.507
588.000	377.476	80.007	19.992	104.299	17.757	175.370	0.485
590.001	378.392	80.005	19.994	104.298	17.662	182.645	0.467
592.001	379.384	80.004	19.992	104.269	17.576	189.205	0.468
594.000	380.331	80.004	19.993	104.242	17.497	195.205	0.495
596.001	381.312	80.004	19.993	104.229	17.424	200.758	0.501
598.000	382.243	80.004	19.993	104.211	17.365	205.261	0.480
600.000	383.229	80.003	19.994	104.183	17.316	208.986	0.498
602.000	384.205	80.003	19.993	104.182	17.271	212.410	0.488
604.000	385.158	80.004	19.994	104.181	17.238	214.887	0.462
606.001	386.153	80.005	19.993	104.173	17.221	216.216	0.497
608.000	387.106	80.005	19.994	104.142	17.215	216.664	0.473
610.000	388.051	80.005	19.993	104.138	17.220	216.271	0.473
612.000	389.012	80.006	19.994	104.115	17.235	215.106	0.460
614.000	390.005	80.004	19.994	104.118	17.264	212.869	0.513
616.000	391.023	80.005	19.994	104.113	17.307	209.605	0.553
618.000	391.980	80.005	19.993	104.106	17.363	205.285	0.512
620.000	392.979	80.005	19.995	104.107	17.425	200.642	0.493
622.000	394.026	80.006	19.993	104.103	17.502	194.744	0.531
624.000	395.017	80.003	19.993	104.104	17.588	188.153	0.537
626.000	396.003	80.005	19.994	104.103	17.682	180.897	0.490
628.000	397.007	80.004	19.994	104.103	17.780	173.402	0.498
630.000	398.020	80.004	19.994	104.107	17.884	165.519	0.509
632.000	399.063	80.003	19.994	104.127	17.984	157.891	0.499
634.001	400.074	80.005	19.994	104.118	18.096	149.276	0.516
636.000	401.115	80.006	19.994	104.097	18.210	140.601	0.522
638.000	402.098	80.006	19.995	104.101	18.318	132.306	0.490
640.000	403.157	80.006	19.994	104.096	18.436	123.336	0.492
642.001	404.228	80.006	19.994	104.098	18.540	115.344	0.542
644.001	405.279	80.005	19.992	104.106	18.654	106.636	0.545
646.000	406.278	80.005	19.993	104.105	18.761	98.475	0.548
648.000	407.272	80.007	19.993	104.105	18.859	90.981	0.508
650.000	408.329	80.006	19.995	104.106	18.954	83.760	0.493
652.000	409.332	80.006	19.995	104.107	19.048	76.552	0.510
654.001	410.394	80.005	19.994	104.109	19.128	70.487	0.533
656.001	411.418	80.005	19.993	104.114	19.212	64.036	0.545
658.001	412.459	80.005	19.994	104.135	19.287	58.275	0.492
660.000	413.467	80.007	19.995	104.137	19.353	53.240	0.547
662.001	414.420	80.005	19.993	104.143	19.419	48.251	0.482
664.001	415.487	80.007	19.993	104.144	19.484	43.221	0.519
666.001	416.478	80.009	19.994	104.144	19.536	39.273	0.520
668.000	417.472	80.007	19.993	104.145	19.586	35.414	0.495
670.001	418.511	80.006	19.993	104.144	19.635	31.666	0.527
672.000	419.525	80.007	19.994	104.145	19.675	28.647	0.537
674.000	420.503	80.006	19.993	104.158	19.715	25.596	0.515
676.001	421.584	80.006	19.993	104.165	19.750	22.903	0.486
678.000	422.585	80.006	19.993	104.165	19.780	20.592	0.502
680.000	423.590	80.006	19.993	104.151	19.807	18.526	0.503
682.000	424.566	80.006	19.994	104.151	19.825	17.201	0.491
684.000	425.630	80.004	19.993	104.155	19.850	15.242	0.498
686.000	426.637	80.006	19.993	104.148	19.866	14.052	0.532
688.000	427.711	80.006	19.994	104.163	19.889	12.268	0.480
690.000	428.701	80.004	19.995	104.146	19.902	11.294	0.582
692.000	429.825	80.005	19.995	104.144	19.912	10.542	0.608
694.000	430.993	80.005	19.993	104.146	19.922	9.737	0.395
696.000	431.424	80.004	19.993	104.149	19.935	8.774	0.609
698.001	432.758	80.003	19.994	104.144	19.943	8.160	0.272
700.000	433.284	80.004	19.993	104.145	19.949	7.699	-0.027
702.001	435.116	80.005	19.995	104.158	19.953	7.351	1.092
704.001	435.735	80.005	19.994	104.181	19.959	6.959	0.703
706.000	436.697	80.005	19.994	104.167	19.966	6.389	0.547
708.001	437.671	80.004	19.992	104.174	19.965	6.479	0.432
710.000	438.719	80.003	19.994	104.179	19.972	5.898	0.513
712.001	439.665	80.003	19.994	104.182	19.978	5.477	0.476
714.000	440.610	80.004	19.994	104.184	19.976	5.609	0.440
716.000	441.618	80.004	19.993	104.184	19.979	5.393	0.501
718.000	442.605	80.005	19.994	104.179	19.980	5.315	0.506
720.000	443.583	80.005	19.993	104.183	19.985	4.945	0.511
722.001	444.581	80.005	19.993	104.183	19.986	4.836	0.477
724.001	445.584	80.006	19.994	104.185	19.986	4.861	0.493
726.001	446.541	80.006	19.994	104.185	19.991	4.513	0.520
728.000	447.543	80.005	19.994	104.177	19.992	4.381	0.497
730.001	448.507	80.004	19.994	104.177	19.991	4.467	0.463
732.001	449.508	80.006	19.995	104.181	19.994	4.249	0.492
734.000	450.537	80.005	19.994	104.182	19.994	4.261	0.531
736.000	451.549	80.004	19.994	104.180	19.992	4.417	0.498
738.000	452.530	80.005	19.994	104.182	19.992	4.368	0.497
740.000	453.537	80.005	19.994	104.181	19.995	4.205	0.512
742.000	454.513	80.006	19.993	104.179	19.992	4.431	0.505
744.000	455.549	80.007	19.995	104.181	19.996	4.092	0.501
746.001	456.592	80.008	19.992	104.182	19.999	3.876	0.508
748.000	457.561	80.008	19.993	104.182	19.995	4.201	0.520
750.000	458.614	80.007	19.994	104.182	19.995	4.145	0.528
752.000	459.597	80.007	19.992	104.186	19.994	4.285	0.486
754.001	460.691	80.008	19.993	104.189	19.996	4.134	0.553
756.000	461.728	80.007	19.994	104.191	19.995	4.149	0.534
758.000	462.761	80.005	19.993	104.186	19.995	4.146	0.525
760.001	463.817	80.004	19.993	104.191	19.996	4.122	0.502
762.000	464.867	80.005	19.994	104.192	19.993	4.341	0.506
764.001	465.908	80.005	19.994	104.186	19.997	3.998	0.510
766.000	466.980	80.004	19.994	104.187	19.997	4.039	0.515
768.000	468.051	80.005	19.993	104.189	20.001	3.716	0.537
770.001	469.117	80.005	19.994	104.195	19.998	3.958	0.506
772.001	470.179	80.004	19.994	104.192	19.999	3.844	0.531
774.000	471.229	80.004	19.992	104.186	19.995	4.190	0.490
776.000	472.281	80.005	19.993	104.189	20.000	3.819	0.514
778.001	473.333	80.005	19.993	104.184	19.997	3.987	0.541
780.001	474.393	80.007	19.993	104.184	19.999	3.903	0.517
782.001	475.468	80.005	19.993	104.184	19.998	3.922	0.529
784.001	476.450	80.005	19.993	104.185	19.996	4.100	0.515
786.001	477.458	80.003	19.993	104.183	19.997	4.056	0.491
788.000	478.431	80.004	19.993	104.184	19.997	4.060	0.486
790.000	479.468	80.003	19.994	104.179	19.997	4.004	0.523
792.001	480.430	80.004	19.994	104.180	20.000	3.811	0.496
794.000	481.403	80.003	19.995	104.187	19.997	4.043	0.508
796.000	482.416	80.005	19.995	104.180	19.998	3.920	0.493
798.000	483.335	80.006	19.994	104.182	19.998	3.976	0.464
800.000	484.365	80.007	19.994	104.182	19.996	4.127	0.529
802.000	485.324	80.005	19.995	104.181	19.997	3.995	0.500
804.001	486.317	80.006	19.994	104.182	19.996	4.083	0.498
806.000	487.294	80.007	19.992	104.184	19.994	4.245	0.501
808.000	488.322	80.007	19.994	104.183	19.995	4.142	0.484
810.001	489.345	80.007	19.994	104.181	19.995	4.175	0.517
812.000	490.331	80.006	19.995	104.181	19.996	4.073	0.488
814.000	491.348	80.004	19.994	104.181	19.998	3.915	0.509
816.001	492.381	80.006	19.993	104.182	19.994	4.225	0.523
818.000	493.386	80.006	19.995	104.178	19.992	4.389	0.496
820.001	494.423	80.005	19.995	104.180	19.993	4.322	0.488
822.000	495.477	80.004	19.994	104.184	19.996	4.119	0.535
824.001	496.508	80.005	19.995	104.180	19.995	4.173	0.521
826.000	497.510	80.006	19.994	104.173	19.997	4.020	0.526
828.000	498.584	80.006	19.995	104.170	19.995	4.171	0.508
830.001	499.573	80.006	19.996	104.184	19.999	3.890	0.497
832.000	500.579	80.007	19.993	104.184	19.997	4.046	0.487
834.001	501.664	80.006	19.994	104.181	20.000	3.781	0.522
836.001	502.683	80.008	19.994	104.175	19.998	3.981	0.528
838.000	503.697	80.007	19.994	104.173	19.997	3.985	0.510
840.001	504.697	80.006	19.993	104.187	19.998	3.970	0.491
842.001	505.739	80.005	19.992	104.184	19.999	3.861	0.505
844.000	506.747	80.005	19.992	104.184	19.999	3.899	0.494
846.000	507.722	80.004	19.993	104.185	19.999	3.905	0.511
848.000	508.825	80.005	19.994	104.185	20.003	3.584	0.523
850.000	509.762	80.005	19.993	104.181	20.002	3.637	0.506
852.001	510.785	80.003	19.994	104.173	20.002	3.637	0.509
854.000	511.768	80.003	19.993	104.179	20.003	3.588	0.480
856.000	512.787	80.005	19.993	104.188	20.000	3.811	0.509
858.001	513.751	80.005	19.993	104.174	19.998	3.955	0.495
860.000	514.785	80.006	19.994	104.181	19.995	4.154	0.502
862.000	515.802	80.006	19.993	104.182	19.999	3.865	0.518
864.000	516.826	80.005	19.994	104.179	19.995	4.178	0.520
866.000	517.846	80.003	19.994	104.182	19.992	4.427	0.506
868.000	518.842	80.004	19.993	104.181	19.993	4.299	0.499
870.000	519.865	80.005	19.993	104.175	19.996	4.100	0.503
872.000	520.876	80.004	19.994	104.174	19.997	4.050	0.486
874.000	521.914	80.005	19.994	104.184	19.995	4.180	0.520
876.000	522.927	80.006	19.994	104.188	19.995	4.150	0.518
878.000	523.892	80.004	19.993	104.187	20.000	3.804	0.488
880.000	524.921	80.006	19.995	104.183	19.997	4.046	0.527
882.000	525.935	80.005	19.992	104.181	20.003	3.581	0.514
884.000	526.889	80.004	19.994	104.182	20.001	3.740	0.493
886.000	527.900	80.005	19.994	104.182	19.998	3.931	0.494
888.000	528.929	80.005	19.994	104.184	19.997	4.044	0.508
890.001	529.939	80.006	19.995	104.182	19.998	3.931	0.519
892.000	530.999	80.006	19.994	104.197	19.995	4.163	0.499
894.001	532.057	80.005	19.996	104.197	19.996	4.069	0.532
896.001	533.108	80.007	19.994	104.198	19.999	3.895	0.524
898.000	534.215	80.006	19.994	104.194	19.994	4.220	0.507
900.000	535.321	80.005	19.994	104.194	19.997	4.012	0.537
902.000	536.379	80.006	19.995	104.187	19.997	4.004	0.520
904.001	537.479	80.005	19.994	104.190	19.997	3.996	0.571
906.000	538.532	80.006	19.993	104.189	19.996	4.136	0.563
908.001	539.624	80.006	19.995	104.187	19.996	4.132	0.545
910.001	540.753	80.007	19.994	104.185	19.998	3.964	0.553
912.000	541.872	80.007	19.994	104.191	19.997	3.998	0.545
914.001	542.987	80.006	19.992	104.192	19.995	4.172	0.584
916.001	544.058	80.007	19.994	104.195	19.996	4.119	0.564
918.000	545.174	80.004	19.995	104.190	20.000	3.819	0.572
920.000	546.285	80.005	19.994	104.191	19.997	4.050	0.554
922.001	547.409	80.005	19.993	104.196	19.998	3.981	0.562
924.000	548.490	80.004	19.993	104.185	19.998	3.962	0.525
926.001	549.599	80.003	19.994	104.194	19.998	3.933	0.535
928.001	550.704	80.004	19.995	104.187	19.997	4.021	0.528
930.000	551.786	80.005	19.994	104.190	19.999	3.872	0.529
932.000	552.893	80.004	19.993	104.186	19.997	4.048	0.550
934.000	553.973	80.003	19.994	104.197	19.996	4.064	0.553
936.000	555.051	80.002	19.994	104.191	19.999	3.878	0.561
938.001	556.149	80.003	19.994	104.194	19.998	3.955	0.546
940.001	557.159	80.005	19.994	104.190	20.001	3.754	0.528
942.000	558.203	80.005	19.995	104.186	19.997	3.999	0.544
944.000	559.280	80.004	19.995	104.184	20.001	3.744	0.525
946.001	560.303	80.005	19.994	104.184	19.998	3.962	0.518
948.000	561.353	80.005	19.993	104.183	20.001	3.754	0.551
950.000	562.409	80.007	19.995	104.187	19.996	4.106	0.567
952.000	563.427	80.004	19.994	104.185	19.998	3.922	0.490
954.001	564.429	80.006	19.995	104.189	19.997	4.018	0.508
956.001	565.458	80.003	19.994	104.186	19.999	3.888	0.506
958.001	566.474	80.004	19.994	104.186	19.996	4.127	0.520
960.000	567.507	80.003	19.994	104.182	19.994	4.251	0.524
962.000	568.504	80.005	19.993	104.185	19.995	4.180	0.509
964.001	569.490	80.004	19.994	104.184	19.998	3.945	0.500
966.000	570.460	80.005	19.993	104.184	19.997	4.004	0.494
968.000	571.467	80.006	19.994	104.180	20.001	3.689	0.504
970.000	572.470	80.004	19.993	104.180	19.998	3.916	0.479
972.000	573.436	80.007	19.993	104.181	19.998	3.909	0.464
974.000	574.442	80.006	19.994	104.181	19.997	4.050	0.519
976.000	575.444	80.005	19.994	104.183	19.997	4.040	0.499
978.000	576.441	80.005	19.993	104.183	19.993	4.291	0.500
980.001	577.405	80.006	19.995	104.185	19.995	4.188	0.479
982.001	578.374	80.005	19.995	104.184	19.997	3.993	0.487
984.000	579.383	80.005	19.995	104.185	19.999	3.865	0.506
986.000	580.366	80.006	19.994	104.186	19.996	4.092	0.489
988.001	581.311	80.005	19.994	104.195	19.995	4.171	0.467
990.000	582.308	80.006	19.994	104.186	19.995	4.146	0.484
992.000	583.286	80.007	19.995	104.185	19.994	4.259	0.482
994.001	584.260	80.007	19.995	104.183	19.997	4.012	0.499
996.000	585.239	80.007	19.994	104.181	19.996	4.096	0.503
998.000	586.206	80.007	19.993	104.179	19.994	4.223	0.503
1000.000	587.200	80.007	19.994	104.180	19.997	4.054	0.480
1002.000	588.198	80.007	19.994	104.178	19.994	4.289	0.457
1004.000	589.221	80.006	19.993	104.178	19.996	4.090	0.520
1006.000	590.217	80.006	19.994	104.180	19.993	4.354	0.514
1008.000	591.226	80.004	19.996	104.183	19.996	4.127	0.482
1010.000	592.227	80.003	19.995	104.176	19.996	4.092	0.512
1012.000	593.231	80.005	19.998	104.183	19.997	3.987	0.530
1014.001	594.257	80.005	19.997	104.180	19.994	4.274	0.538
1016.001	595.258	80.004	19.995	104.188	19.992	4.387	0.510
1018.000	596.252	80.004	19.995	104.186	19.993	4.354	0.481
1020.001	597.265	80.005	19.995	104.181	19.991	4.498	0.517
1022.000	598.278	80.005	19.995	104.179	19.991	4.461	0.505
1024.001	599.289	80.005	19.994	104.178	19.991	4.478	0.501
1026.000	600.295	80.005	19.994	104.186	19.987	4.792	0.484
1028.000	601.334	80.005	19.993	104.184	19.990	4.546	0.510
1030.001	602.314	80.006	19.993	104.183	19.991	4.450	0.497
1032.000	603.370	80.005	19.994	104.185	19.995	4.146	0.516
1034.000	604.368	80.005	19.994	104.190	19.993	4.312	0.509
1036.000	605.385	80.005	19.993	104.197	19.989	4.605	0.498
1038.001	606.421	80.005	19.993	104.186	19.990	4.557	0.525
1040.000	607.463	80.004	19.993	104.186	19.989	4.641	0.548
1042.000	608.473	80.005	19.993	104.185	19.988	4.716	0.514
1044.001	609.524	80.003	19.994	104.186	19.994	4.289	0.521
1046.001	610.584	80.004	19.994	104.184	19.993	4.314	0.539
1048.001	611.587	80.004	19.994	104.185	19.993	4.307	0.520
1050.001	612.636	80.006	19.993	104.186	19.994	4.270	0.518
1052.000	613.662	80.006	19.993	104.184	19.994	4.272	0.522
1054.000	614.705	80.005	19.992	104.190	19.995	4.213	0.517
1056.001	615.747	80.007	19.994	104.198	19.995	4.199	0.545
1058.001	616.837	80.007	19.993	104.184	19.995	4.171	0.548
1060.001	617.797	80.008	19.993	104.178	19.996	4.127	0.518
1062.000	618.892	80.007	19.994	104.180	19.993	4.331	0.525
1064.000	619.913	80.006	19.992	104.186	19.993	4.307	0.517
1066.000	620.931	80.005	19.993	104.184	19.995	4.171	0.505
1068.000	622.001	80.005	19.993	104.183	19.992	4.418	0.536
1070.000	622.985	80.005	19.994	104.182	19.993	4.328	0.505
1072.000	624.071	80.006	19.994	104.182	19.995	4.184	0.519
1074.001	625.103	80.006	19.993	104.181	19.993	4.299	0.513
1076.000	626.089	80.007	19.994	104.181	19.991	4.504	0.485
1078.000	627.165	80.008	19.995	104.179	19.988	4.678	0.538
1080.001	628.244	80.007	19.995	104.176	19.990	4.559	0.512
1082.000	629.227	80.008	19.994	104.177	19.991	4.477	0.524
1084.000	630.258	80.007	19.993	104.179	19.991	4.481	0.539
1086.000	631.313	80.007	19.993	104.178	19.989	4.641	0.543
1088.000	632.367	80.007	19.994	104.174	19.988	4.687	0.534
1090.000	633.394	80.005	19.994	104.175	19.989	4.628	0.527
1092.000	634.415	80.003	19.994	104.179	19.989	4.672	0.495
1094.000	635.523	80.004	19.994	104.181	19.991	4.475	0.562
1096.000	636.501	80.006	19.993	104.182	19.988	4.733	0.497
1098.000	637.540	80.005	19.993	104.183	19.990	4.595	0.485
1100.000	638.584	80.004	19.994	104.185	19.988	4.716	0.510
1102.000	639.609	80.004	19.994	104.176	19.989	4.624	0.509
1104.000	640.677	80.005	19.995	104.183	19.988	4.708	0.553
1106.000	641.717	80.005	19.994	104.189	19.990	4.592	0.542
1108.001	642.684	80.004	19.995	104.189	19.988	4.693	0.503
1110.000	643.722	80.004	19.993	104.175	19.991	4.486	0.472
1112.001	644.726	80.003	19.995	104.171	19.990	4.557	0.510
1114.000	645.741	80.004	19.994	104.181	19.988	4.710	0.496
1116.001	646.775	80.003	19.994	104.184	19.993	4.305	0.513
1118.000	647.744	80.005	19.993	104.173	19.990	4.542	0.458
1120.000	648.758	80.005	19.994	104.180	19.992	4.385	0.491
1122.000	649.799	80.005	19.993	104.187	19.991	4.515	0.541
1124.000	650.789	80.003	19.992	104.187	19.989	4.611	0.505
1126.000	651.804	80.004	19.992	104.184	19.990	4.538	0.514
1128.000	652.761	80.004	19.993	104.174	19.992	4.419	0.499
1130.000	653.765	80.006	19.996	104.171	19.995	4.198	0.510
1132.001	654.727	80.006	19.994	104.183	19.989	4.651	0.468
1134.001	655.809	80.006	19.994	104.181	19.992	4.368	0.521
1136.000	656.718	80.006	19.994	104.180	19.991	4.475	0.490
1138.000	657.736	80.006	19.992	104.182	19.991	4.479	0.503
1140.000	658.760	80.006	19.993	104.180	19.988	4.682	0.502
1142.001	659.771	80.007	19.993	104.173	19.990	4.553	0.516
1144.001	660.706	80.005	19.994	104.178	19.988	4.712	0.467
1146.000	661.729	80.005	19.994	104.180	19.987	4.750	0.472
1148.001	662.768	80.006	19.992	104.183	19.989	4.661	0.505
1150.001	663.711	80.006	19.993	104.178	19.992	4.403	0.509
1152.000	664.686	80.006	19.994	104.177	19.989	4.632	0.484
1154.000	665.685	80.006	19.993	104.182	19.991	4.501	0.474
1156.001	666.672	80.007	19.993	104.183	19.988	4.702	0.527
1158.000	667.647	80.008	19.992	104.176	19.990	4.577	0.497
1160.001	668.639	80.008	19.993	104.169	19.990	4.570	0.486
1162.000	669.645	80.007	19.993	104.159	19.990	4.594	0.495
1164.000	670.604	80.008	19.993	104.182	19.991	4.506	0.466
1166.000	671.588	80.007	19.993	104.196	19.989	4.626	0.505
1168.000	672.626	80.008	19.993	104.173	19.991	4.456	0.503
1170.001	673.636	80.006	19.992	104.173	19.991	4.452	0.501
1172.000	674.609	80.004	19.994	104.183	19.991	4.469	0.497
1174.001	675.675	80.005	19.994	104.164	19.990	4.580	0.546
1176.001	676.653	80.004	19.993	104.182	19.990	4.553	0.516
1178.001	677.676	80.005	19.994	104.181	19.991	4.479	0.483
1180.001	678.683	80.004	19.993	104.179	19.990	4.555	0.508
1182.000	679.672	80.005	19.994	104.181	19.991	4.461	0.496
1184.001	680.666	80.004	19.993	104.184	19.989	4.618	0.519
1186.001	681.675	80.005	19.994	104.185	19.991	4.444	0.496
1188.001	682.667	80.004	19.994	104.184	19.992	4.368	0.508
1190.001	683.614	80.006	19.994	104.184	19.991	4.452	0.474
1192.000	684.689	80.005	19.994	104.184	19.992	4.400	0.537
1194.000	685.683	80.005	19.994	104.182	19.991	4.454	0.503
1196.000	686.717	80.004	19.994	104.181	19.988	4.689	0.507
1198.000	687.758	80.006	19.994	104.181	19.989	4.632	0.498
1200.001	688.771	80.005	19.995	104.178	19.990	4.584	0.540
1202.000	689.739	80.004	19.994	104.181	19.991	4.504	0.494
1204.000	690.793	80.003	19.995	104.181	19.989	4.613	0.543
1206.000	691.803	80.003	19.994	104.180	19.986	4.852	0.483
1208.001	692.811	80.004	19.995	104.180	19.992	4.414	0.497
1210.000	693.834	80.004	19.994	104.178	19.989	4.649	0.509
1212.001	694.870	80.005	19.995	104.172	19.988	4.680	0.540
1214.000	695.927	80.005	19.994	104.169	19.987	4.794	0.495
1216.001	696.942	80.007	19.994	104.175	19.986	4.879	0.506
1218.000	697.955	80.007	19.993	104.180	19.990	4.580	0.499
1220.000	698.973	80.007	19.993	104.180	19.989	4.638	0.519
1222.001	699.984	80.007	19.993	104.175	19.989	4.666	0.492
1224.000	701.033	80.007	19.993	104.177	19.990	4.563	0.529
1226.001	702.030	80.007	19.993	104.182	19.986	4.861	0.500
1228.001	703.050	80.006	19.993	104.173	19.984	5.009	0.518
1230.000	704.060	80.006	19.994	104.179	19.986	4.829	0.486
1232.000	705.072	80.006	19.993	104.175	19.986	4.861	0.469
1234.000	706.076	80.007	19.995	104.182	19.987	4.791	0.508
1236.000	707.103	80.006	19.993	104.181	19.984	4.997	0.515
1238.000	708.084	80.005	19.993	104.176	19.984	5.010	0.512
1240.001	709.071	80.006	19.993	104.167	19.988	4.674	0.494
1242.001	710.044	80.006	19.992	104.176	19.987	4.751	0.497
1244.000	711.024	80.006	19.993	104.177	19.986	4.834	0.484
1246.001	712.002	80.007	19.994	104.179	19.986	4.888	0.496
1248.000	713.001	80.007	19.993	104.181	19.987	4.798	0.507
1250.000	713.950	80.007	19.993	104.182	19.983	5.081	0.460
1252.001	714.977	80.005	19.992	104.169	19.986	4.834	0.508
1254.000	716.009	80.006	19.993	104.174	19.984	4.993	0.535
1256.001	716.958	80.005	19.994	104.183	19.986	4.871	0.458
1258.000	717.958	80.004	19.993	104.175	19.984	5.009	0.493
1260.000	718.929	80.004	19.994	104.178	19.988	4.741	0.495
1262.000	719.930	80.006	19.993	104.182	19.986	4.873	0.483
1264.001	720.891	80.005	19.993	104.179	19.985	4.922	0.503
1266.000	721.896	80.005	19.994	104.181	19.986	4.873	0.530
1268.000	722.903	80.005	19.994	104.172	19.982	5.163	0.522
1270.001	723.891	80.005	19.994	104.179	19.984	5.014	0.531
1272.000	724.930	80.005	19.994	104.182	19.982	5.184	0.548
1274.000	725.992	80.005	19.993	104.182	19.982	5.179	0.532
1276.001	727.010	80.004	19.995	104.183	19.984	4.989	0.533
1278.000	728.068	80.005	19.993	104.178	19.981	5.209	0.535
1280.000	729.190	80.006	19.994	104.185	19.978	5.469	0.571
1282.001	730.286	80.005	19.993	104.182	19.981	5.278	0.544
1284.001	731.411	80.005	19.994	104.179	19.980	5.318	0.549
1286.001	732.521	80.005	19.994	104.185	19.980	5.335	0.579
1288.000	733.648	80.005	19.994	104.185	19.981	5.219	0.581
1290.000	734.717	80.004	19.993	104.181	19.982	5.141	0.553
1292.001	735.853	80.004	19.994	104.183	19.981	5.222	0.544
1294.001	736.918	80.005	19.994	104.177	19.984	5.049	0.531
1296.000	738.037	80.004	19.994	104.184	19.986	4.877	0.559
1298.000	739.082	80.004	19.995	104.183	19.982	5.150	0.536
1300.000	740.149	80.004	19.996	104.173	19.981	5.238	0.539
1302.000	741.234	80.005	19.994	104.161	19.986	4.897	0.551
1304.000	742.271	80.005	19.994	104.164	19.986	4.859	0.521
1306.000	743.305	80.006	19.995	104.176	19.985	4.909	0.528
1306.500	743.554	80.005	19.994	104.176	19.982	5.146	0.475