File: 01_Data/PUF_Mattress_Pad/MCC/PUF_Mattress_Pad_MCC_30K_min_210110_R1.txt
Sample ID:	C:\MCC\MCC Cal\Test\PUF_Mattress_Pad_MCC_30K_min_211219_R1.txt
Sample Weight (mg):	4.45
Heating Rate (C/s):	0.5
Combustor Temp (C):	900
N2 Flow Rate (cc/min):	80
O2 Flow Rate (cc/min):	20
Calibration File:	C:\MCC\MCC Cal\Coeff1 JN10440_30_210304.txt.txt
T Correction Coefficients:	0	1.024463	0
Time Shift (s):	14
*
Time (s)	Temperature (C)	N2 flow rate (cc/min)	O2 flow rate (cc/min)	Flow Rate (cc/min)	Oxygen (%)	HRR (W/g)	Heating rate (C/s)
0.000	110.619	80.003	19.992	104.030	19.980	-0.066	-0.012
2.000	110.639	80.002	19.995	104.025	19.983	-0.350	-0.005
4.000	110.648	80.000	19.995	104.012	19.978	0.024	0.022
6.000	110.621	80.002	19.995	103.965	19.980	-0.096	0.003
8.001	110.656	80.001	19.994	104.027	19.979	-0.042	0.024
10.001	110.647	80.001	19.994	104.082	19.978	0.076	-0.011
12.001	110.606	80.001	19.994	104.015	19.980	-0.082	-0.013
14.000	110.613	80.003	19.995	104.025	19.982	-0.276	0.003
16.000	110.651	80.001	19.995	104.037	19.976	0.170	-0.010
18.000	110.627	80.001	19.994	104.037	19.973	0.382	-0.004
20.000	110.661	80.002	19.996	104.067	19.971	0.585	0.019
22.001	110.669	80.003	19.995	104.179	19.960	1.331	0.027
24.000	110.740	80.002	19.993	104.145	19.961	1.294	0.027
26.000	110.847	80.002	19.995	104.177	19.953	1.850	0.060
28.000	110.997	80.004	19.993	104.196	19.952	1.943	0.083
30.000	111.148	80.005	19.994	104.215	19.949	2.143	0.106
32.000	111.316	80.004	19.994	104.189	19.946	2.413	0.125
34.001	111.538	80.004	19.994	104.198	19.948	2.235	0.110
36.001	111.791	80.004	19.993	104.200	19.945	2.448	0.131
38.001	112.022	80.003	19.993	104.203	19.945	2.434	0.144
40.001	112.289	80.002	19.993	104.228	19.947	2.345	0.162
42.001	112.625	80.003	19.993	104.230	19.939	2.898	0.178
44.001	112.931	80.002	19.995	104.231	19.937	3.054	0.186
46.001	113.364	80.003	19.996	104.250	19.944	2.554	0.217
48.001	113.775	80.002	19.995	104.246	19.936	3.089	0.216
50.001	114.115	80.003	19.995	104.225	19.935	3.206	0.203
52.001	114.616	80.004	19.995	104.224	19.943	2.637	0.217
54.001	115.092	80.004	19.994	104.232	19.936	3.120	0.252
56.001	115.486	80.003	19.993	104.231	19.932	3.371	0.254
58.001	116.002	80.001	19.994	104.244	19.933	3.315	0.256
60.001	116.478	80.004	19.994	104.261	19.934	3.298	0.224
62.001	117.014	80.001	19.994	104.265	19.934	3.276	0.242
64.001	117.612	80.001	19.994	104.266	19.939	2.928	0.305
66.000	118.172	80.000	19.994	104.278	19.933	3.333	0.281
68.001	118.740	80.000	19.994	104.205	19.932	3.401	0.304
70.000	119.328	80.000	19.995	104.315	19.929	3.627	0.316
72.001	119.975	79.999	19.994	104.284	19.931	3.483	0.318
74.000	120.623	80.000	19.994	104.284	19.924	4.000	0.350
76.001	121.264	80.000	19.994	104.279	19.928	3.694	0.314
78.000	121.976	80.002	19.994	104.301	19.925	3.920	0.356
80.000	122.662	80.001	19.995	104.289	19.926	3.866	0.371
82.000	123.406	80.003	19.994	104.297	19.925	3.932	0.344
84.001	124.132	80.002	19.993	104.306	19.923	4.085	0.353
86.000	124.887	80.002	19.993	104.303	19.926	3.880	0.363
88.000	125.609	80.001	19.994	104.303	19.920	4.317	0.370
90.000	126.391	80.002	19.994	104.304	19.923	4.085	0.401
92.000	127.197	80.002	19.994	104.303	19.924	3.963	0.387
94.001	127.930	80.002	19.994	104.301	19.922	4.149	0.367
96.000	128.838	80.000	19.994	104.304	19.923	4.103	0.428
98.001	129.635	80.000	19.994	104.307	19.922	4.125	0.432
100.000	130.511	80.002	19.994	104.258	19.926	3.880	0.427
102.001	131.312	80.001	19.992	104.321	19.922	4.133	0.423
104.001	132.173	80.001	19.994	104.375	19.926	3.824	0.431
106.001	133.053	80.002	19.993	104.316	19.924	3.997	0.455
108.001	133.968	80.004	19.994	104.320	19.927	3.760	0.464
110.001	134.852	80.004	19.994	104.303	19.925	3.912	0.452
112.000	135.762	80.004	19.994	104.305	19.925	3.884	0.461
114.001	136.690	80.003	19.994	104.310	19.925	3.888	0.457
116.000	137.633	80.004	19.993	104.308	19.920	4.300	0.472
118.001	138.553	80.004	19.992	104.312	19.923	4.035	0.444
120.000	139.536	80.003	19.993	104.304	19.918	4.461	0.487
122.000	140.494	80.004	19.993	104.308	19.926	3.812	0.491
124.001	141.474	80.004	19.993	104.307	19.923	4.068	0.459
126.001	142.412	80.004	19.993	104.312	19.923	4.050	0.470
128.001	143.419	80.002	19.994	104.312	19.917	4.481	0.497
130.001	144.389	80.003	19.992	104.303	19.921	4.191	0.473
132.001	145.397	80.003	19.994	104.303	19.925	3.904	0.505
134.001	146.406	80.004	19.994	104.301	19.923	4.097	0.485
136.001	147.350	80.002	19.994	104.296	19.926	3.865	0.483
138.001	148.385	80.004	19.994	104.299	19.919	4.335	0.524
140.001	149.419	80.002	19.993	104.301	19.923	4.037	0.522
142.001	150.462	80.002	19.993	104.295	19.925	3.896	0.521
144.001	151.433	80.001	19.993	104.276	19.918	4.403	0.519
146.001	152.468	80.001	19.994	104.258	19.920	4.293	0.527
148.001	153.430	80.001	19.994	104.328	19.924	3.990	0.503
150.001	154.430	80.001	19.994	104.284	19.919	4.326	0.490
152.001	155.427	79.999	19.993	104.278	19.925	3.883	0.484
154.001	156.396	80.000	19.994	104.300	19.932	3.418	0.485
156.000	157.447	80.002	19.995	104.302	19.921	4.222	0.497
158.001	158.474	80.001	19.994	104.297	19.924	3.983	0.499
160.000	159.499	80.001	19.995	104.275	19.929	3.597	0.506
162.001	160.511	80.001	19.994	104.264	19.925	3.911	0.512
164.001	161.543	80.000	19.994	104.279	19.923	4.051	0.498
166.001	162.528	80.002	19.996	104.280	19.925	3.911	0.506
168.001	163.628	80.002	19.995	104.271	19.921	4.191	0.502
170.001	164.605	80.002	19.994	104.271	19.924	3.989	0.535
172.001	165.621	80.002	19.994	104.277	19.924	3.977	0.484
174.001	166.643	80.001	19.995	104.264	19.925	3.929	0.495
176.001	167.645	80.001	19.993	104.262	19.923	4.077	0.522
178.000	168.604	80.001	19.993	104.263	19.917	4.502	0.470
180.001	169.625	80.001	19.995	104.264	19.924	4.019	0.500
182.001	170.592	80.001	19.993	104.267	19.918	4.460	0.521
184.001	171.583	80.001	19.993	104.265	19.918	4.398	0.450
186.001	172.608	80.003	19.994	104.266	19.921	4.195	0.503
188.001	173.607	80.002	19.994	104.267	19.920	4.292	0.472
190.000	174.564	80.003	19.994	104.270	19.920	4.304	0.511
192.000	175.595	80.002	19.992	104.270	19.918	4.402	0.492
194.001	176.584	80.004	19.994	104.267	19.921	4.237	0.527
196.001	177.565	80.002	19.993	104.264	19.918	4.414	0.499
198.001	178.555	80.002	19.993	104.262	19.922	4.133	0.494
200.001	179.557	80.002	19.993	104.267	19.916	4.578	0.519
202.001	180.525	80.002	19.994	104.264	19.920	4.251	0.486
204.000	181.554	80.001	19.993	104.265	19.917	4.468	0.506
206.000	182.527	80.002	19.994	104.267	19.914	4.730	0.488
208.001	183.545	80.001	19.993	104.266	19.916	4.585	0.499
210.000	184.563	80.003	19.994	104.266	19.920	4.279	0.547
212.000	185.576	80.001	19.993	104.264	19.913	4.782	0.497
214.001	186.564	80.003	19.993	104.261	19.915	4.650	0.451
216.001	187.519	80.004	19.993	104.259	19.920	4.263	0.482
218.001	188.552	80.004	19.993	104.250	19.909	5.118	0.494
220.001	189.519	80.005	19.993	104.252	19.913	4.824	0.498
222.001	190.532	80.004	19.993	104.254	19.911	4.960	0.501
224.000	191.509	80.003	19.995	104.259	19.913	4.811	0.495
226.000	192.489	80.003	19.996	104.253	19.908	5.166	0.487
228.000	193.482	80.000	19.995	104.253	19.907	5.257	0.475
230.000	194.460	80.003	19.996	104.255	19.908	5.194	0.506
232.000	195.433	80.001	19.993	104.250	19.906	5.337	0.452
234.001	196.443	80.002	19.995	104.249	19.907	5.237	0.491
236.001	197.425	80.001	19.994	104.247	19.897	5.932	0.508
238.000	198.427	80.001	19.995	104.262	19.897	5.940	0.478
240.000	199.403	80.003	19.993	104.248	19.901	5.680	0.496
242.000	200.411	80.000	19.994	104.247	19.898	5.895	0.506
244.001	201.386	80.002	19.995	104.254	19.893	6.272	0.518
246.000	202.395	80.001	19.995	104.260	19.892	6.306	0.488
248.001	203.379	80.002	19.994	104.242	19.892	6.329	0.503
250.000	204.384	80.002	19.994	104.236	19.889	6.581	0.500
252.001	205.382	80.003	19.993	104.238	19.887	6.679	0.481
254.001	206.349	80.001	19.995	104.250	19.882	7.038	0.489
256.000	207.384	80.000	19.995	104.249	19.885	6.833	0.522
258.001	208.365	80.000	19.994	104.243	19.876	7.524	0.524
260.000	209.320	80.001	19.996	104.248	19.873	7.718	0.501
262.000	210.364	80.000	19.995	104.257	19.872	7.786	0.508
264.000	211.305	80.001	19.994	104.254	19.868	8.097	0.487
266.000	212.316	80.001	19.994	104.263	19.862	8.559	0.495
268.000	213.293	80.001	19.995	104.241	19.860	8.634	0.498
270.001	214.319	80.000	19.994	104.249	19.860	8.690	0.511
272.001	215.333	80.001	19.993	104.250	19.857	8.921	0.518
274.001	216.290	80.003	19.993	104.247	19.855	9.015	0.485
276.000	217.265	80.003	19.993	104.260	19.846	9.671	0.517
278.001	218.274	80.002	19.993	104.253	19.843	9.927	0.514
280.000	219.244	80.002	19.993	104.251	19.840	10.129	0.505
282.001	220.281	80.002	19.994	104.247	19.836	10.434	0.506
284.001	221.211	80.000	19.993	104.255	19.827	11.061	0.458
286.000	222.221	80.000	19.994	104.258	19.825	11.213	0.511
288.000	223.260	80.003	19.995	104.265	19.823	11.358	0.511
290.000	224.230	80.002	19.993	104.259	19.815	11.924	0.495
292.001	225.243	80.003	19.994	104.258	19.807	12.512	0.522
294.000	226.250	80.002	19.994	104.261	19.808	12.455	0.563
296.000	227.204	80.003	19.994	104.263	19.795	13.403	0.498
298.001	228.204	80.004	19.993	104.262	19.797	13.247	0.515
300.001	229.196	80.003	19.993	104.260	19.785	14.132	0.501
302.000	230.208	80.004	19.993	104.261	19.774	14.932	0.505
304.000	231.200	80.002	19.994	104.266	19.771	15.169	0.500
306.001	232.190	80.004	19.993	104.261	19.766	15.550	0.505
308.001	233.208	80.002	19.994	104.262	19.762	15.858	0.516
310.001	234.186	80.004	19.994	104.263	19.751	16.672	0.508
312.001	235.189	80.002	19.993	104.265	19.742	17.323	0.473
314.001	236.161	80.002	19.993	104.269	19.733	17.930	0.469
316.001	237.124	80.001	19.993	104.276	19.726	18.465	0.471
318.000	238.119	80.001	19.993	104.274	19.716	19.238	0.474
320.001	239.093	80.002	19.994	104.284	19.708	19.779	0.497
322.000	240.052	80.001	19.994	104.280	19.701	20.287	0.488
324.001	241.040	80.001	19.994	104.292	19.689	21.207	0.471
326.000	242.009	80.002	19.995	104.290	19.677	22.057	0.513
328.001	243.002	80.001	19.995	104.302	19.664	23.005	0.480
330.000	243.934	80.000	19.995	104.294	19.656	23.586	0.505
332.000	244.949	80.001	19.994	104.295	19.647	24.272	0.487
334.001	245.910	80.001	19.993	104.299	19.632	25.375	0.489
336.001	246.925	80.001	19.994	104.303	19.623	26.013	0.513
338.001	247.866	80.001	19.994	104.305	19.608	27.119	0.478
340.001	248.844	80.001	19.994	104.306	19.600	27.709	0.469
342.001	249.879	79.999	19.992	104.305	19.585	28.770	0.504
344.001	250.869	80.000	19.993	104.306	19.569	29.935	0.469
346.000	251.869	80.002	19.995	104.305	19.552	31.182	0.480
348.001	252.852	80.001	19.993	104.306	19.537	32.331	0.505
350.000	253.833	80.000	19.994	104.318	19.524	33.271	0.475
352.000	254.830	80.000	19.995	104.308	19.509	34.356	0.517
354.000	255.794	80.002	19.995	104.318	19.488	35.911	0.496
356.000	256.814	80.002	19.995	104.329	19.470	37.195	0.512
358.000	257.799	80.002	19.993	104.335	19.450	38.670	0.501
360.000	258.774	80.002	19.995	104.336	19.429	40.185	0.489
362.000	259.739	80.002	19.994	104.338	19.408	41.733	0.459
364.000	260.766	80.003	19.995	104.340	19.388	43.208	0.498
366.001	261.754	80.003	19.995	104.344	19.364	44.988	0.504
368.001	262.750	80.003	19.994	104.362	19.344	46.434	0.503
370.000	263.752	80.004	19.994	104.369	19.323	47.984	0.511
372.000	264.729	80.002	19.994	104.377	19.286	50.733	0.471
374.000	265.752	80.002	19.993	104.381	19.256	52.872	0.509
376.000	266.786	80.002	19.995	104.381	19.223	55.323	0.509
378.001	267.750	80.002	19.994	104.393	19.190	57.750	0.503
380.000	268.770	80.004	19.992	104.395	19.153	60.494	0.461
382.000	269.788	80.003	19.994	104.413	19.109	63.654	0.510
384.001	270.793	80.005	19.993	104.420	19.064	67.002	0.505
386.001	271.823	80.004	19.994	104.424	19.011	70.878	0.529
388.000	272.826	80.004	19.992	104.426	18.956	74.909	0.590
390.000	273.872	80.005	19.995	104.448	18.896	79.324	0.517
392.000	274.854	80.003	19.993	104.458	18.839	83.526	0.523
394.000	275.860	80.003	19.993	104.462	18.779	87.883	0.496
396.000	276.820	80.001	19.993	104.468	18.718	92.354	0.485
398.001	277.827	80.002	19.994	104.475	18.658	96.761	0.512
400.001	278.827	80.002	19.993	104.490	18.606	100.590	0.491
402.000	279.826	80.002	19.993	104.502	18.557	104.166	0.481
404.000	280.808	80.001	19.994	104.503	18.515	107.172	0.532
406.001	281.788	80.002	19.993	104.502	18.486	109.315	0.488
408.001	282.822	80.002	19.997	104.506	18.470	110.488	0.493
410.001	283.819	80.001	19.994	104.502	18.466	110.712	0.517
412.000	284.805	80.002	19.993	104.497	18.485	109.399	0.470
414.000	285.814	80.002	19.993	104.477	18.531	106.013	0.487
416.000	286.828	80.002	19.992	104.449	18.607	100.496	0.501
418.000	287.792	80.002	19.994	104.430	18.701	93.586	0.462
420.001	288.848	80.002	19.994	104.428	18.813	85.305	0.510
422.001	289.799	80.002	19.994	104.426	18.907	78.437	0.474
424.001	290.848	80.000	19.994	104.465	18.991	72.224	0.487
426.001	291.864	80.002	19.994	104.481	19.067	66.685	0.506
428.001	292.840	80.001	19.994	104.460	19.130	62.089	0.470
430.000	293.817	80.002	19.994	104.428	19.177	58.634	0.478
432.000	294.828	80.002	19.994	104.389	19.225	55.122	0.485
434.000	295.862	80.001	19.995	104.357	19.256	52.857	0.502
436.000	296.831	80.002	19.994	104.357	19.274	51.519	0.491
438.000	297.868	80.003	19.996	104.378	19.274	51.511	0.503
440.001	298.932	80.004	19.995	104.386	19.269	51.915	0.529
442.000	299.959	80.003	19.995	104.376	19.261	52.480	0.521
444.000	301.009	80.002	19.993	104.318	19.267	52.040	0.533
446.000	302.032	80.004	19.994	104.286	19.278	51.237	0.547
448.000	303.064	80.002	19.995	104.276	19.300	49.630	0.524
450.001	304.098	80.002	19.993	104.295	19.323	47.981	0.502
452.001	305.153	80.003	19.994	104.319	19.349	46.068	0.519
454.001	306.237	80.001	19.994	104.317	19.375	44.147	0.525
456.000	307.263	80.002	19.997	104.306	19.406	41.858	0.522
458.000	308.344	80.003	19.995	104.309	19.441	39.332	0.547
460.000	309.375	80.003	19.994	104.308	19.461	37.864	0.501
462.000	310.375	80.004	19.993	104.304	19.488	35.872	0.496
464.000	311.478	80.002	19.993	104.300	19.507	34.474	0.528
466.001	312.509	80.004	19.994	104.304	19.523	33.274	0.533
468.001	313.573	80.005	19.994	104.285	19.545	31.715	0.542
470.000	314.607	80.004	19.992	104.259	19.562	30.478	0.538
472.000	315.642	80.004	19.992	104.257	19.576	29.451	0.521
474.000	316.662	80.004	19.993	104.256	19.594	28.099	0.508
476.000	317.638	80.003	19.992	104.267	19.607	27.150	0.499
478.000	318.684	80.004	19.994	104.264	19.619	26.314	0.529
480.001	319.737	80.003	19.993	104.253	19.636	25.014	0.527
482.000	320.721	80.002	19.995	104.237	19.647	24.259	0.498
484.000	321.770	80.002	19.994	104.233	19.656	23.584	0.516
486.000	322.724	80.003	19.993	104.243	19.662	23.149	0.501
488.000	323.715	80.002	19.995	104.238	19.673	22.296	0.508
490.000	324.676	80.003	19.994	104.232	19.676	22.107	0.466
492.001	325.706	80.002	19.992	104.226	19.684	21.552	0.482
494.000	326.695	80.001	19.995	104.225	19.683	21.569	0.505
496.000	327.678	80.003	19.993	104.221	19.684	21.554	0.467
498.000	328.665	80.003	19.994	104.224	19.692	20.962	0.486
500.000	329.681	80.002	19.993	104.225	19.695	20.709	0.488
502.000	330.692	80.002	19.993	104.218	19.691	21.010	0.539
504.000	331.675	80.001	19.993	104.220	19.695	20.731	0.499
506.000	332.635	80.003	19.994	104.205	19.693	20.876	0.497
508.000	333.635	80.002	19.994	104.210	19.688	21.261	0.467
510.000	334.629	80.003	19.993	104.219	19.684	21.562	0.499
512.001	335.623	80.002	19.994	104.220	19.682	21.674	0.502
514.000	336.620	80.001	19.996	104.218	19.680	21.826	0.494
516.001	337.589	80.001	19.994	104.204	19.671	22.464	0.514
518.000	338.620	80.001	19.995	104.221	19.668	22.697	0.500
520.000	339.574	80.002	19.994	104.224	19.662	23.115	0.480
522.001	340.560	80.003	19.994	104.213	19.657	23.528	0.493
524.001	341.555	80.003	19.994	104.214	19.648	24.123	0.522
526.000	342.497	80.003	19.995	104.214	19.642	24.598	0.487
528.000	343.467	80.004	19.993	104.215	19.633	25.258	0.470
530.000	344.489	80.004	19.993	104.214	19.615	26.565	0.513
532.000	345.473	80.003	19.993	104.223	19.605	27.314	0.525
534.000	346.448	80.002	19.993	104.225	19.589	28.506	0.489
536.000	347.421	80.003	19.993	104.225	19.577	29.353	0.472
538.001	348.420	80.002	19.993	104.220	19.556	30.850	0.490
540.001	349.394	80.001	19.995	104.226	19.534	32.497	0.495
542.000	350.411	80.001	19.994	104.228	19.511	34.187	0.487
544.001	351.376	80.003	19.994	104.223	19.488	35.876	0.504
546.000	352.419	80.003	19.994	104.224	19.460	37.933	0.522
548.000	353.413	80.002	19.995	104.223	19.431	40.038	0.500
550.000	354.421	80.003	19.994	104.223	19.404	42.023	0.532
552.001	355.454	80.003	19.995	104.222	19.366	44.798	0.492
554.001	356.405	80.005	19.994	104.223	19.325	47.787	0.489
556.000	357.418	80.005	19.992	104.223	19.284	50.756	0.468
558.001	358.432	80.003	19.992	104.229	19.240	53.973	0.525
560.000	359.403	80.004	19.992	104.223	19.190	57.686	0.506
562.000	360.420	80.004	19.993	104.224	19.143	61.092	0.481
564.000	361.397	80.004	19.993	104.233	19.085	65.286	0.485
566.000	362.468	80.004	19.994	104.245	19.023	69.855	0.486
568.001	363.451	80.002	19.993	104.245	18.955	74.804	0.519
570.001	364.418	80.000	19.994	104.265	18.883	80.065	0.477
572.000	365.432	80.002	19.994	104.266	18.810	85.427	0.508
574.001	366.454	80.001	19.993	104.259	18.732	91.166	0.507
576.001	367.454	80.003	19.993	104.249	18.655	96.804	0.475
578.001	368.508	80.003	19.993	104.257	18.564	103.400	0.519
580.001	369.458	80.003	19.994	104.265	18.474	109.968	0.499
582.000	370.496	80.002	19.995	104.278	18.369	117.638	0.539
584.001	371.452	80.001	19.994	104.302	18.263	125.449	0.476
586.001	372.494	80.002	19.994	104.306	18.150	133.624	0.518
588.000	373.497	80.002	19.994	104.279	18.047	141.183	0.519
590.000	374.513	80.003	19.993	104.257	17.940	149.042	0.461
592.000	375.518	80.001	19.993	104.258	17.840	156.330	0.522
594.001	376.532	80.003	19.992	104.264	17.735	163.923	0.477
596.000	377.549	80.002	19.992	104.260	17.633	171.349	0.509
598.000	378.542	80.003	19.994	104.253	17.529	178.811	0.492
600.000	379.543	80.002	19.992	104.266	17.424	186.452	0.494
602.000	380.582	80.002	19.993	104.251	17.322	193.945	0.549
604.000	381.529	80.001	19.992	104.228	17.230	200.712	0.458
606.001	382.506	80.002	19.993	104.195	17.149	206.605	0.476
608.001	383.519	80.003	19.993	104.145	17.088	210.930	0.486
610.000	384.504	80.003	19.994	104.102	17.041	214.310	0.492
612.000	385.480	80.004	19.994	104.107	16.985	218.471	0.453
614.000	386.460	80.005	19.994	104.157	16.935	222.119	0.467
616.000	387.484	80.004	19.994	104.164	16.911	223.851	0.509
618.001	388.479	80.005	19.994	104.123	16.902	224.456	0.496
620.001	389.470	80.005	19.994	104.066	16.903	224.318	0.495
622.000	390.479	80.004	19.994	104.069	16.913	223.686	0.496
624.001	391.429	80.004	19.993	104.105	16.944	221.420	0.491
626.000	392.469	80.004	19.994	104.087	16.988	218.164	0.506
628.000	393.452	80.003	19.994	104.055	17.055	213.260	0.483
630.000	394.478	80.004	19.994	104.032	17.127	208.078	0.499
632.000	395.451	80.004	19.993	104.048	17.212	201.908	0.498
634.000	396.479	80.004	19.993	104.065	17.305	195.093	0.513
636.001	397.492	80.005	19.993	104.058	17.417	186.876	0.516
638.000	398.480	80.005	19.994	104.041	17.535	178.278	0.463
640.000	399.485	80.005	19.995	104.060	17.654	169.626	0.480
642.000	400.480	80.005	19.994	104.071	17.772	161.031	0.506
644.000	401.445	80.003	19.994	104.076	17.893	152.168	0.496
646.000	402.444	80.001	19.995	104.071	18.020	142.948	0.504
648.000	403.435	80.000	19.995	104.072	18.142	134.008	0.508
650.000	404.422	80.002	19.994	104.071	18.267	124.875	0.506
652.001	405.448	80.001	19.994	104.070	18.396	115.504	0.516
654.000	406.460	80.003	19.993	104.069	18.510	107.178	0.510
656.000	407.481	80.002	19.994	104.071	18.625	98.779	0.524
658.001	408.479	80.002	19.993	104.074	18.736	90.700	0.499
660.000	409.462	80.001	19.993	104.078	18.838	83.225	0.475
662.000	410.477	80.003	19.993	104.088	18.933	76.353	0.534
664.000	411.493	80.004	19.993	104.100	19.023	69.726	0.506
666.000	412.510	80.003	19.993	104.103	19.104	63.827	0.503
668.000	413.518	80.001	19.993	104.111	19.182	58.196	0.525
670.001	414.507	80.001	19.992	104.114	19.253	52.988	0.485
672.001	415.498	80.002	19.993	104.113	19.321	48.009	0.477
674.000	416.518	80.001	19.992	104.114	19.382	43.592	0.506
676.000	417.515	80.001	19.993	104.124	19.437	39.511	0.508
678.000	418.511	80.002	19.993	104.125	19.491	35.593	0.478
680.000	419.515	80.002	19.995	104.130	19.536	32.287	0.490
682.000	420.537	80.002	19.994	104.119	19.576	29.370	0.517
684.000	421.526	80.003	19.993	104.132	19.613	26.696	0.512
686.000	422.517	80.002	19.993	104.119	19.649	24.073	0.502
688.000	423.549	80.004	19.995	104.138	19.674	22.256	0.523
690.000	424.552	80.004	19.994	104.138	19.700	20.372	0.513
692.000	425.618	80.002	19.993	104.138	19.726	18.440	0.533
694.000	426.609	80.002	19.993	104.122	19.744	17.122	0.512
696.000	427.661	80.005	19.993	104.136	19.763	15.757	0.515
698.001	428.725	80.005	19.992	104.147	19.779	14.577	0.520
700.001	429.736	80.004	19.994	104.147	19.792	13.602	0.495
702.001	430.738	80.005	19.993	104.139	19.802	12.860	0.473
704.000	431.800	80.002	19.993	104.137	19.812	12.142	0.532
706.000	432.871	80.004	19.995	104.140	19.821	11.501	0.534
708.001	433.904	80.003	19.993	104.142	19.827	11.085	0.521
710.000	435.007	80.003	19.995	104.142	19.835	10.461	0.563
712.000	436.016	80.002	19.993	104.118	19.839	10.181	0.523
714.001	437.099	80.004	19.993	104.118	19.843	9.898	0.545
716.000	438.110	80.004	19.993	104.124	19.852	9.251	0.496
718.001	439.155	80.004	19.995	104.123	19.857	8.895	0.506
720.000	440.216	80.003	19.992	104.133	19.859	8.712	0.566
722.000	441.252	80.004	19.993	104.132	19.865	8.332	0.510
724.000	442.307	80.004	19.993	104.144	19.864	8.336	0.518
726.000	443.355	80.003	19.993	104.145	19.869	8.026	0.526
728.000	444.403	80.003	19.993	104.144	19.866	8.244	0.523
730.000	445.464	80.004	19.994	104.145	19.871	7.845	0.551
732.000	446.483	80.003	19.993	104.155	19.873	7.711	0.516
734.000	447.506	80.001	19.994	104.152	19.874	7.664	0.533
736.000	448.551	80.001	19.994	104.164	19.876	7.478	0.516
738.000	449.566	80.001	19.993	104.155	19.876	7.463	0.491
740.000	450.622	80.002	19.995	104.157	19.877	7.398	0.568
742.000	451.600	80.000	19.995	104.150	19.881	7.133	0.499
744.001	452.663	80.002	19.993	104.147	19.880	7.175	0.511
746.000	453.709	80.003	19.995	104.147	19.881	7.102	0.504
748.000	454.721	80.003	19.994	104.170	19.884	6.898	0.504
750.000	455.753	80.002	19.994	104.151	19.881	7.143	0.518
752.001	456.835	80.003	19.994	104.165	19.883	6.969	0.546
754.001	457.843	80.004	19.993	104.151	19.881	7.145	0.527
756.000	458.917	80.005	19.993	104.158	19.880	7.237	0.528
758.001	459.941	80.004	19.992	104.146	19.880	7.181	0.524
760.000	460.956	80.002	19.993	104.150	19.879	7.264	0.483
762.000	461.968	80.003	19.993	104.156	19.887	6.693	0.509
764.000	463.015	80.002	19.994	104.165	19.886	6.784	0.513
766.000	464.017	80.002	19.994	104.158	19.881	7.163	0.510
768.000	465.029	80.002	19.994	104.153	19.880	7.237	0.515
770.000	466.030	80.003	19.993	104.154	19.884	6.917	0.508
772.000	467.046	80.001	19.993	104.162	19.885	6.819	0.510
774.000	468.083	80.004	19.993	104.148	19.884	6.939	0.504
776.001	469.131	80.005	19.993	104.153	19.886	6.749	0.497
778.001	470.153	80.004	19.994	104.150	19.886	6.789	0.475
780.001	471.117	80.005	19.993	104.150	19.883	6.955	0.514
782.000	472.130	80.005	19.993	104.161	19.888	6.619	0.504
784.000	473.190	80.005	19.994	104.150	19.885	6.837	0.520
786.000	474.200	80.005	19.993	104.156	19.886	6.781	0.524
788.001	475.235	80.004	19.993	104.156	19.887	6.657	0.540
790.000	476.261	80.003	19.994	104.152	19.886	6.728	0.500
792.001	477.285	80.004	19.993	104.161	19.883	6.990	0.522
794.000	478.246	80.003	19.994	104.159	19.885	6.811	0.511
796.001	479.247	80.005	19.992	104.151	19.885	6.834	0.508
798.000	480.297	80.003	19.992	104.153	19.886	6.764	0.519
800.000	481.306	80.004	19.992	104.154	19.885	6.808	0.521
802.000	482.319	80.005	19.993	104.156	19.882	7.040	0.516
804.000	483.350	80.003	19.994	104.168	19.882	7.080	0.511
806.000	484.321	80.005	19.994	104.153	19.882	7.090	0.467
808.000	485.343	80.005	19.994	104.149	19.884	6.872	0.529
810.000	486.381	80.005	19.994	104.150	19.887	6.711	0.521
812.000	487.383	80.006	19.992	104.149	19.885	6.844	0.503
814.000	488.383	80.002	19.995	104.148	19.884	6.872	0.493
816.001	489.386	80.002	19.994	104.141	19.882	7.045	0.517
818.000	490.411	80.003	19.995	104.139	19.883	6.997	0.509
820.000	491.417	80.002	19.995	104.145	19.883	6.996	0.510
822.000	492.441	80.002	19.994	104.171	19.882	7.037	0.486
824.000	493.431	80.001	19.994	104.158	19.882	7.087	0.471
826.000	494.424	80.002	19.997	104.149	19.880	7.229	0.489
828.000	495.494	80.001	19.994	104.149	19.879	7.262	0.531
830.000	496.447	80.004	19.995	104.174	19.880	7.185	0.456
832.000	497.494	80.000	19.995	104.168	19.881	7.156	0.490
834.001	498.489	80.003	19.994	104.154	19.884	6.933	0.500
836.001	499.501	80.003	19.995	104.148	19.880	7.207	0.480
838.000	500.518	80.002	19.994	104.164	19.883	6.981	0.510
840.001	501.457	80.002	19.993	104.165	19.881	7.127	0.476
842.000	502.462	80.003	19.996	104.146	19.880	7.177	0.517
844.000	503.468	80.002	19.995	104.154	19.880	7.230	0.461
846.001	504.483	80.003	19.994	104.158	19.890	6.439	0.520
848.000	505.535	80.002	19.996	104.154	19.878	7.333	0.544
850.000	506.521	80.003	19.993	104.154	19.878	7.317	0.518
852.000	507.481	80.001	19.993	104.157	19.877	7.449	0.489
854.000	508.516	80.004	19.994	104.152	19.872	7.786	0.477
856.000	509.609	80.002	19.993	104.166	19.877	7.388	0.570
858.001	510.616	80.003	19.993	104.156	19.877	7.450	0.543
860.000	511.987	80.004	19.993	104.151	19.878	7.364	1.005
862.001	512.381	80.004	19.992	104.151	19.878	7.377	0.077
864.001	513.638	80.006	19.994	104.158	19.877	7.428	0.607
866.001	514.627	80.005	19.994	104.158	19.875	7.549	0.511
868.001	515.704	80.004	19.993	104.162	19.876	7.491	0.514
870.000	516.694	80.005	19.993	104.159	19.874	7.637	0.531
872.001	517.820	80.003	19.993	104.159	19.876	7.487	0.514
874.001	518.936	80.005	19.994	104.157	19.879	7.277	0.536
876.000	519.982	80.004	19.993	104.157	19.875	7.537	0.544
878.000	521.038	80.005	19.994	104.155	19.879	7.285	0.553
880.000	522.040	80.003	19.993	104.147	19.877	7.425	0.513
882.000	523.123	80.005	19.994	104.147	19.877	7.431	0.562
884.000	524.142	80.004	19.993	104.151	19.877	7.439	0.507
886.001	525.215	80.006	19.993	104.154	19.875	7.535	0.491
888.000	526.324	80.006	19.995	104.157	19.875	7.597	0.552
890.000	527.330	80.007	19.993	104.147	19.874	7.667	0.537
892.000	528.389	80.006	19.993	104.147	19.873	7.685	0.531
894.001	529.417	80.008	19.992	104.148	19.876	7.477	0.507
896.000	530.467	80.005	19.994	104.151	19.873	7.681	0.503
898.000	531.509	80.003	19.993	104.146	19.875	7.562	0.510
900.000	532.537	80.002	19.994	104.155	19.874	7.625	0.512
902.000	533.581	80.004	19.994	104.150	19.873	7.728	0.536
904.000	534.637	80.002	19.994	104.152	19.875	7.553	0.535
906.000	535.615	80.004	19.994	104.150	19.875	7.597	0.487
908.001	536.728	80.003	19.995	104.145	19.875	7.599	0.532
910.001	537.673	80.000	19.996	104.146	19.877	7.417	0.503
912.000	538.711	80.000	19.994	104.142	19.876	7.497	0.521
914.000	539.765	80.003	19.993	104.148	19.877	7.437	0.518
916.000	540.769	80.002	19.994	104.149	19.879	7.283	0.504
918.000	541.793	80.004	19.993	104.150	19.877	7.441	0.496
920.001	542.805	80.003	19.995	104.150	19.876	7.483	0.517
922.001	543.831	80.001	19.994	104.150	19.876	7.503	0.520
924.000	544.853	80.003	19.994	104.151	19.878	7.350	0.504
926.000	545.853	80.002	19.994	104.157	19.876	7.473	0.493
928.001	546.897	80.002	19.995	104.156	19.877	7.413	0.517
930.000	547.946	80.001	19.994	104.149	19.876	7.495	0.556
932.000	548.956	80.005	19.994	104.167	19.874	7.621	0.520
934.001	550.012	80.001	19.994	104.175	19.877	7.399	0.511
936.000	551.063	79.999	19.994	104.163	19.875	7.589	0.554
938.000	552.050	80.002	19.995	104.150	19.878	7.360	0.502
940.000	553.108	80.002	19.995	104.152	19.877	7.419	0.499
942.000	554.149	80.002	19.993	104.158	19.874	7.653	0.522
944.000	555.211	80.001	19.993	104.148	19.876	7.496	0.500
946.000	556.243	80.006	19.996	104.158	19.875	7.584	0.491
948.001	557.228	80.004	19.995	104.143	19.876	7.515	0.519
950.001	558.269	80.007	19.993	104.147	19.871	7.845	0.512
952.000	559.259	80.005	19.993	104.146	19.873	7.695	0.504
954.000	560.239	80.007	19.992	104.146	19.871	7.879	0.505
956.000	561.268	80.006	19.993	104.140	19.873	7.737	0.478
958.000	562.273	80.004	19.993	104.145	19.870	7.933	0.482
960.000	563.313	80.005	19.993	104.147	19.873	7.693	0.547
962.000	564.268	80.002	19.993	104.146	19.870	7.923	0.493
964.000	565.280	80.002	19.994	104.146	19.871	7.867	0.511
966.000	566.263	80.003	19.993	104.147	19.871	7.871	0.478
968.001	567.284	80.005	19.993	104.144	19.871	7.839	0.519
970.000	568.300	80.003	19.994	104.143	19.868	8.043	0.545
972.001	569.267	80.006	19.994	104.144	19.871	7.878	0.503
974.001	570.324	80.006	19.995	104.145	19.870	7.951	0.537
976.000	571.298	80.004	19.994	104.145	19.871	7.863	0.484
978.000	572.264	80.003	19.993	104.144	19.872	7.758	0.469
980.000	573.288	80.003	19.993	104.147	19.870	7.944	0.529
982.000	574.297	80.003	19.994	104.157	19.870	7.963	0.488
984.000	575.296	80.004	19.993	104.155	19.869	8.018	0.484
986.000	576.342	80.007	19.994	104.155	19.870	7.913	0.539
988.001	577.325	80.000	19.993	104.148	19.869	8.006	0.493
990.000	578.286	80.004	19.993	104.145	19.867	8.122	0.487
992.000	579.343	79.997	19.995	104.170	19.866	8.226	0.532
994.001	580.353	80.003	19.994	104.163	19.868	8.058	0.481
996.000	581.446	80.007	19.993	104.157	19.868	8.099	0.537
998.001	582.384	80.002	19.994	104.151	19.866	8.220	0.505
1000.000	583.458	80.002	19.994	104.165	19.865	8.270	0.513
1002.000	584.480	80.006	19.994	104.153	19.866	8.239	0.519
1004.000	585.512	80.002	19.993	104.171	19.868	8.093	0.484
1006.000	586.523	80.003	19.995	104.174	19.867	8.131	0.506
1008.000	587.572	80.000	19.994	104.162	19.866	8.196	0.498
1010.000	588.653	80.010	19.992	104.153	19.866	8.209	0.517
1012.000	589.708	80.001	19.994	104.150	19.869	8.032	0.544
1014.001	590.725	80.004	19.993	104.150	19.867	8.134	0.522
1016.000	591.744	80.002	19.994	104.154	19.866	8.245	0.514
1018.000	592.798	80.010	19.993	104.150	19.866	8.203	0.522
1020.000	593.857	80.000	19.993	104.150	19.866	8.235	0.558
1022.000	594.924	79.991	19.995	104.145	19.862	8.501	0.531
1024.000	595.938	80.001	19.994	104.160	19.865	8.304	0.523
1026.000	596.996	80.006	19.995	104.148	19.863	8.421	0.504
1028.000	598.044	80.004	19.993	104.141	19.863	8.427	0.535
1030.000	599.088	80.000	19.995	104.144	19.866	8.218	0.514
1032.000	600.132	80.001	19.994	104.143	19.866	8.198	0.520
1034.001	601.181	80.010	19.994	104.149	19.865	8.281	0.534
1036.000	602.214	80.005	19.995	104.162	19.867	8.134	0.501
1038.000	603.266	80.006	19.993	104.162	19.863	8.462	0.526
1040.000	604.329	79.989	19.994	104.169	19.864	8.404	0.503
1042.000	605.374	80.012	19.992	104.166	19.867	8.131	0.529
1044.000	606.462	80.005	19.994	104.182	19.863	8.458	0.531
1046.000	607.514	79.998	19.992	104.154	19.863	8.439	0.498
1048.000	608.516	79.987	19.996	104.161	19.861	8.564	0.474
1050.001	609.611	80.008	19.993	104.151	19.864	8.382	0.530
1052.001	610.625	79.988	19.994	104.151	19.865	8.272	0.506
1054.000	611.719	79.985	19.994	104.147	19.863	8.411	0.558
1056.000	612.760	79.999	19.993	104.158	19.864	8.377	0.493
1058.000	613.793	80.007	19.992	104.158	19.864	8.401	0.516
1060.000	614.876	80.002	19.993	104.157	19.865	8.317	0.521
1062.000	615.923	80.000	19.993	104.160	19.866	8.245	0.546
1064.001	616.948	79.997	19.994	104.160	19.864	8.349	0.509
1066.000	617.980	79.997	19.995	104.145	19.865	8.272	0.491
1068.000	619.031	80.005	19.994	104.144	19.863	8.420	0.513
1070.000	620.058	79.991	19.994	104.144	19.867	8.139	0.512
1072.000	621.108	80.005	19.993	104.150	19.861	8.597	0.498
1074.001	622.122	80.002	19.992	104.146	19.860	8.688	0.489
1076.001	623.144	80.002	19.991	104.151	19.861	8.590	0.493
1078.000	624.168	80.002	19.993	104.150	19.858	8.831	0.504
1080.000	625.235	80.017	19.993	104.150	19.860	8.648	0.551
1082.001	626.223	79.993	19.993	104.149	19.860	8.664	0.499
1084.001	627.267	80.015	19.991	104.151	19.860	8.631	0.537
1086.000	628.275	79.999	19.995	104.159	19.858	8.818	0.506
1088.000	629.338	80.000	19.995	104.163	19.863	8.459	0.508
1090.000	630.434	79.994	19.995	104.157	19.863	8.447	0.529
1092.000	631.458	80.007	19.994	104.158	19.862	8.552	0.521
1094.000	632.564	80.013	19.994	104.147	19.863	8.450	0.540
1096.000	633.650	80.013	19.992	104.151	19.859	8.744	0.579
1098.000	634.716	80.006	19.995	104.147	19.857	8.906	0.576
1100.000	635.792	80.000	19.994	104.149	19.859	8.764	0.526
1102.000	636.909	80.005	19.993	104.150	19.859	8.740	0.548
1104.000	637.978	80.002	19.995	104.158	19.856	8.934	0.523
1106.000	639.091	80.011	19.994	104.150	19.861	8.614	0.586
1108.000	640.142	80.011	19.996	104.156	19.858	8.801	0.554
1110.000	641.202	80.014	19.992	104.148	19.859	8.742	0.530
1112.000	642.233	80.002	19.993	104.157	19.862	8.491	0.544
1114.000	643.285	80.003	19.993	104.151	19.859	8.758	0.513
1116.000	644.342	80.001	19.994	104.152	19.858	8.842	0.512
1118.000	645.449	80.002	19.994	104.149	19.856	8.920	0.506
1120.000	646.466	79.999	19.994	104.145	19.857	8.908	0.540
1122.000	647.547	80.006	19.994	104.163	19.859	8.754	0.491
1124.001	648.628	79.997	19.995	104.152	19.855	9.056	0.532
1126.001	649.701	80.017	19.994	104.157	19.856	8.978	0.577
1128.001	650.744	80.009	19.994	104.156	19.856	8.961	0.481
1130.000	651.825	80.008	19.994	104.158	19.856	8.942	0.523
1132.000	652.813	80.005	19.994	104.160	19.858	8.782	0.578
1134.000	653.891	80.006	19.994	104.153	19.857	8.908	0.540
1136.000	654.963	80.008	19.992	104.150	19.859	8.762	0.560
1138.000	655.985	80.005	19.994	104.162	19.855	8.995	0.535
1140.000	657.066	80.004	19.993	104.164	19.856	8.968	0.525
1142.000	658.084	80.006	19.993	104.165	19.858	8.822	0.502
1144.000	659.090	80.008	19.993	104.152	19.854	9.067	0.471
1146.000	660.183	80.006	19.993	104.152	19.858	8.838	0.547
1148.000	661.148	80.007	19.994	104.157	19.855	9.047	0.483
1150.000	662.238	80.004	19.994	104.153	19.854	9.105	0.530
1152.000	663.253	80.005	19.994	104.149	19.854	9.134	0.532
1154.000	664.253	80.003	19.994	104.150	19.854	9.137	0.515
1156.000	665.233	79.999	19.994	104.146	19.856	8.952	0.475
1158.001	666.283	80.006	19.994	104.159	19.853	9.138	0.501
1160.001	667.294	80.003	19.993	104.149	19.853	9.139	0.488
1162.000	668.295	80.004	19.993	104.150	19.851	9.310	0.478
1164.000	669.268	80.003	19.994	104.157	19.852	9.252	0.506
1166.001	670.240	80.004	19.994	104.153	19.851	9.350	0.475
1168.000	671.218	80.002	19.993	104.151	19.853	9.190	0.484
1170.000	672.190	80.005	19.994	104.149	19.852	9.276	0.478
1172.000	673.160	80.004	19.994	104.160	19.852	9.268	0.486
1174.000	674.141	80.005	19.994	104.156	19.854	9.066	0.458
1176.000	675.183	80.002	19.993	104.150	19.852	9.210	0.517
1178.000	676.128	80.006	19.992	104.153	19.852	9.240	0.511
1180.001	677.139	80.003	19.993	104.152	19.852	9.260	0.491
1182.001	678.044	80.002	19.992	104.148	19.852	9.240	0.443
1184.000	678.980	80.004	19.992	104.149	19.852	9.242	0.457
1186.000	679.953	80.003	19.994	104.150	19.848	9.533	0.437
1188.001	680.930	80.002	19.995	104.149	19.849	9.468	0.461
1190.000	681.909	80.003	19.995	104.152	19.848	9.527	0.486
1192.000	682.879	80.001	19.994	104.150	19.850	9.417	0.484
1194.001	683.836	80.003	19.994	104.146	19.848	9.554	0.486
1196.000	684.844	80.004	19.994	104.155	19.849	9.474	0.499
1198.000	685.815	80.003	19.995	104.155	19.850	9.384	0.486
1200.000	686.834	80.004	19.994	104.153	19.850	9.420	0.504
1202.000	687.827	80.004	19.994	104.168	19.852	9.250	0.510
1204.000	688.854	80.004	19.994	104.159	19.850	9.418	0.534
1206.001	689.865	80.004	19.993	104.178	19.851	9.331	0.500
1208.001	690.884	80.005	19.994	104.164	19.851	9.322	0.502
1210.000	691.904	80.004	19.994	104.152	19.847	9.604	0.480
1212.001	692.934	80.002	19.996	104.163	19.852	9.250	0.498
1214.001	693.975	80.004	19.995	104.163	19.852	9.248	0.515
1216.001	695.050	80.003	19.995	104.150	19.850	9.420	0.521
1218.000	696.106	80.003	19.995	104.171	19.848	9.546	0.558
1220.001	697.127	80.002	19.995	104.160	19.847	9.616	0.507
1222.000	698.192	80.003	19.994	104.148	19.850	9.425	0.530
1224.001	699.258	80.006	19.994	104.148	19.849	9.457	0.533
1226.000	700.312	80.006	19.993	104.144	19.848	9.554	0.541
1228.000	701.286	80.005	19.994	104.149	19.848	9.545	0.495
1230.000	702.308	80.006	19.994	104.151	19.849	9.494	0.507
1232.000	703.357	80.005	19.994	104.146	19.853	9.184	0.497
1234.000	704.330	80.006	19.993	104.141	19.850	9.411	0.480
1236.001	705.370	80.004	19.994	104.142	19.853	9.194	0.520
1238.000	706.406	80.003	19.994	104.167	19.853	9.167	0.540
1240.000	707.376	80.003	19.994	104.164	19.854	9.070	0.486
1242.000	708.380	80.003	19.994	104.151	19.854	9.074	0.486
1244.001	709.398	80.002	19.993	104.144	19.855	9.056	0.538
1246.000	710.350	80.003	19.994	104.145	19.851	9.330	0.488
1248.000	711.335	80.002	19.994	104.145	19.856	8.970	0.473
1250.001	712.276	80.003	19.995	104.144	19.850	9.376	0.484
1252.001	713.231	80.006	19.990	104.153	19.850	9.384	0.510
1254.000	714.155	80.002	19.992	104.149	19.855	9.032	0.472
1256.001	715.084	80.002	19.993	104.148	19.850	9.386	0.483
1258.000	716.068	80.003	19.995	104.147	19.853	9.172	0.512
1260.000	717.005	80.002	19.993	104.147	19.848	9.513	0.471
1262.000	717.960	80.009	19.990	104.148	19.850	9.415	0.481
1264.000	718.844	80.002	19.994	104.148	19.851	9.329	0.454
1266.000	719.755	80.007	19.993	104.150	19.850	9.363	0.448
1268.001	720.710	80.005	19.992	104.151	19.848	9.510	0.436
1270.001	721.602	80.003	19.994	104.151	19.848	9.505	0.423
1272.001	722.543	80.004	19.994	104.162	19.851	9.307	0.479
1274.000	723.487	80.002	19.991	104.155	19.845	9.731	0.454
1276.000	724.348	80.002	19.992	104.157	19.843	9.894	0.478
1278.000	725.325	80.006	19.991	104.158	19.848	9.538	0.491
1280.000	726.231	80.005	19.993	104.148	19.847	9.605	0.453
1282.000	727.247	80.005	19.994	104.158	19.851	9.326	0.490
1284.000	728.188	80.003	19.994	104.154	19.848	9.530	0.460
1286.000	729.174	80.006	19.989	104.148	19.848	9.564	0.501
1288.000	730.135	80.000	19.998	104.146	19.850	9.359	0.497
1290.000	731.100	80.005	19.992	104.149	19.851	9.345	0.499
1292.001	732.090	80.005	19.992	104.161	19.850	9.418	0.517
1294.000	733.092	80.004	19.994	104.148	19.848	9.507	0.505
1296.001	734.058	80.006	19.992	104.144	19.845	9.790	0.530
1298.001	735.041	80.006	19.990	104.152	19.843	9.884	0.483
1300.000	735.998	80.007	19.990	104.157	19.848	9.528	0.480
1302.000	736.940	80.003	19.999	104.155	19.846	9.692	0.481
1304.000	737.943	80.004	19.993	104.153	19.845	9.775	0.496
1306.001	738.891	80.009	19.993	104.165	19.847	9.600	0.478
1308.000	739.882	80.005	19.994	104.157	19.845	9.726	0.484
1310.000	740.878	80.005	19.994	104.144	19.849	9.484	0.511
1312.000	741.857	80.006	19.994	104.157	19.844	9.847	0.499
1314.000	742.822	80.008	19.994	104.163	19.844	9.823	0.499
1315.500	743.607	80.004	19.990	104.149	19.841	10.034	0.534