File: 01_Data/PUF_Mattress_Pad/MCC/PUF_Mattress_Pad_MCC_30K_min_220110_R3.txt
Sample ID:	C:\MCC\MCC Cal\Test\PUF_Mattress_Pad_MCC_30K_min_220110_R3.txt
Sample Weight (mg):	4.96
Heating Rate (C/s):	0.5
Combustor Temp (C):	900
N2 Flow Rate (cc/min):	80
O2 Flow Rate (cc/min):	20
Calibration File:	C:\MCC\MCC Cal\Coeff1 JN10440_30_210304.txt.txt
T Correction Coefficients:	0	1.024463	0
Time Shift (s):	14
*
Time (s)	Temperature (C)	N2 flow rate (cc/min)	O2 flow rate (cc/min)	Flow Rate (cc/min)	Oxygen (%)	HRR (W/g)	Heating rate (C/s)
0.000	110.552	80.004	19.994	104.064	20.137	-0.097	-0.021
2.000	110.537	80.003	19.997	104.063	20.134	0.077	0.002
4.000	110.538	80.006	19.995	104.066	20.135	0.016	-0.008
6.000	110.541	80.006	19.991	104.063	20.137	-0.095	0.005
8.000	110.567	80.003	19.994	104.063	20.134	0.045	0.030
10.000	110.546	80.005	19.994	104.059	20.135	0.023	-0.000
12.000	110.552	80.007	19.993	104.064	20.136	-0.027	0.014
13.999	110.561	80.001	19.994	104.065	20.132	0.212	-0.018
15.999	110.540	80.001	19.995	104.064	20.130	0.340	0.000
17.999	110.541	80.002	19.995	104.074	20.129	0.368	0.004
19.999	110.582	80.002	19.993	104.095	20.128	0.453	0.002
22.000	110.595	80.004	19.993	104.131	20.119	1.046	0.039
23.999	110.610	80.000	19.997	104.169	20.120	1.010	0.030
26.000	110.697	80.007	19.994	104.220	20.114	1.398	0.048
28.000	110.803	80.005	19.994	104.236	20.111	1.588	0.036
30.000	110.943	80.003	19.997	104.256	20.104	2.043	0.100
31.999	111.125	80.007	19.995	104.234	20.101	2.235	0.115
33.999	111.346	80.008	19.990	104.224	20.104	2.070	0.140
35.999	111.557	80.005	19.995	104.223	20.100	2.299	0.140
37.999	111.805	80.004	19.993	104.222	20.106	1.909	0.105
40.000	112.069	80.004	19.995	104.227	20.103	2.135	0.123
41.999	112.346	80.006	19.995	104.224	20.103	2.114	0.146
43.999	112.652	79.998	19.998	104.232	20.107	1.871	0.146
45.999	113.010	80.003	19.994	104.239	20.102	2.175	0.182
47.999	113.354	80.004	19.994	104.244	20.103	2.110	0.183
49.999	113.720	80.004	19.994	104.258	20.103	2.078	0.199
52.000	114.108	80.005	19.995	104.258	20.101	2.213	0.229
53.999	114.468	80.006	19.993	104.260	20.097	2.518	0.191
56.000	114.882	80.005	19.995	104.260	20.096	2.590	0.188
58.000	115.373	80.007	19.994	104.262	20.097	2.507	0.231
59.999	115.788	80.007	19.994	104.257	20.097	2.489	0.224
61.999	116.271	80.005	19.994	104.256	20.096	2.567	0.242
64.000	116.737	80.005	19.993	104.255	20.096	2.541	0.254
65.999	117.214	80.006	19.993	104.250	20.098	2.464	0.210
67.999	117.729	80.005	19.992	104.255	20.101	2.243	0.233
70.000	118.222	80.004	19.994	104.255	20.098	2.422	0.246
71.999	118.771	80.006	19.993	104.263	20.098	2.461	0.275
73.999	119.302	80.004	19.994	104.261	20.094	2.676	0.279
75.999	119.822	80.004	19.994	104.261	20.096	2.555	0.280
78.000	120.367	80.003	19.994	104.262	20.098	2.463	0.270
79.999	120.980	80.004	19.995	104.267	20.097	2.517	0.323
81.999	121.586	80.003	19.996	104.280	20.096	2.595	0.315
83.999	122.166	80.005	19.996	104.291	20.092	2.803	0.306
86.000	122.763	80.004	19.994	104.296	20.090	2.978	0.295
87.999	123.402	80.005	19.996	104.289	20.095	2.647	0.315
89.999	124.043	80.004	19.994	104.299	20.093	2.742	0.358
91.999	124.730	80.003	19.994	104.300	20.093	2.775	0.340
94.000	125.367	80.004	19.995	104.304	20.092	2.854	0.325
96.000	126.079	80.005	19.994	104.299	20.091	2.902	0.346
97.999	126.730	80.004	19.995	104.301	20.091	2.886	0.339
99.999	127.464	80.003	19.993	104.300	20.089	3.021	0.370
101.999	128.171	80.003	19.995	104.302	20.091	2.926	0.392
104.000	128.945	80.002	19.995	104.301	20.090	2.986	0.380
105.999	129.663	80.003	19.994	104.304	20.088	3.113	0.371
107.999	130.399	80.003	19.995	104.307	20.089	3.039	0.368
110.000	131.212	80.004	19.994	104.311	20.087	3.154	0.364
112.000	131.972	80.003	19.996	104.317	20.089	3.054	0.418
114.000	132.763	80.005	19.995	104.331	20.090	2.953	0.393
115.999	133.503	80.004	19.995	104.319	20.089	2.998	0.389
118.000	134.363	80.005	19.994	104.323	20.090	2.930	0.418
119.999	135.155	80.005	19.995	104.316	20.089	3.011	0.410
121.999	136.010	80.004	19.996	104.325	20.092	2.847	0.432
123.999	136.844	80.004	19.994	104.330	20.088	3.113	0.426
125.999	137.668	80.006	19.994	104.331	20.087	3.169	0.433
127.999	138.568	80.005	19.994	104.333	20.092	2.856	0.442
130.000	139.422	80.005	19.994	104.331	20.087	3.178	0.429
132.000	140.328	80.003	19.994	104.333	20.088	3.106	0.472
134.000	141.213	80.005	19.995	104.332	20.089	3.052	0.457
136.000	142.130	80.006	19.995	104.331	20.089	3.022	0.454
138.000	143.040	80.006	19.992	104.323	20.085	3.286	0.476
139.999	143.956	80.007	19.994	104.323	20.085	3.271	0.465
142.000	144.915	80.005	19.993	104.330	20.087	3.129	0.482
144.000	145.824	80.004	19.997	104.329	20.089	3.048	0.474
146.000	146.769	80.005	19.994	104.333	20.088	3.084	0.445
148.000	147.681	80.005	19.994	104.330	20.088	3.108	0.451
150.000	148.657	80.003	19.994	104.326	20.088	3.079	0.496
152.000	149.621	80.004	19.994	104.325	20.085	3.259	0.472
154.000	150.571	80.004	19.994	104.323	20.089	3.014	0.455
156.000	151.539	80.004	19.993	104.318	20.087	3.144	0.485
158.000	152.512	80.003	19.994	104.327	20.087	3.180	0.501
159.999	153.460	80.005	19.994	104.326	20.086	3.237	0.473
162.000	154.450	80.004	19.992	104.320	20.087	3.140	0.472
164.000	155.433	80.005	19.994	104.329	20.087	3.174	0.505
165.999	156.385	80.005	19.993	104.326	20.088	3.080	0.489
168.000	157.379	80.004	19.993	104.325	20.089	2.998	0.489
170.000	158.372	80.004	19.993	104.317	20.088	3.068	0.518
172.000	159.350	80.002	19.993	104.306	20.089	3.025	0.468
173.999	160.306	80.004	19.993	104.302	20.087	3.154	0.523
176.000	161.334	80.002	19.993	104.303	20.087	3.134	0.522
178.000	162.304	80.005	19.994	104.310	20.084	3.327	0.489
180.000	163.319	80.004	19.994	104.303	20.087	3.157	0.524
182.000	164.327	80.003	19.994	104.308	20.086	3.249	0.508
184.000	165.329	80.003	19.996	104.310	20.085	3.274	0.492
186.000	166.348	80.003	19.995	104.300	20.085	3.314	0.509
188.000	167.340	80.006	19.994	104.303	20.089	3.019	0.492
190.000	168.328	80.004	19.994	104.300	20.087	3.132	0.509
192.000	169.325	80.005	19.994	104.299	20.088	3.093	0.483
193.999	170.353	80.007	19.993	104.298	20.091	2.920	0.506
195.999	171.324	80.005	19.994	104.300	20.091	2.902	0.470
198.000	172.330	80.005	19.994	104.296	20.090	2.936	0.511
199.999	173.333	80.006	19.994	104.295	20.090	2.979	0.501
202.000	174.363	80.003	19.993	104.295	20.087	3.137	0.488
204.000	175.376	80.005	19.997	104.294	20.092	2.857	0.502
206.000	176.388	80.004	19.995	104.298	20.090	2.983	0.495
207.999	177.440	80.005	19.997	104.295	20.091	2.918	0.494
209.999	178.470	80.005	19.995	104.295	20.088	3.114	0.518
212.000	179.424	80.005	19.995	104.290	20.085	3.258	0.485
214.000	180.430	80.006	19.996	104.286	20.088	3.076	0.475
215.999	181.382	80.005	19.995	104.295	20.086	3.238	0.469
218.000	182.404	80.007	19.994	104.296	20.086	3.206	0.487
220.000	183.430	80.006	19.994	104.298	20.084	3.359	0.518
222.000	184.412	80.006	19.993	104.299	20.081	3.518	0.507
224.000	185.450	80.005	19.993	104.296	20.081	3.519	0.489
226.000	186.473	80.007	19.993	104.290	20.079	3.660	0.517
228.000	187.430	80.006	19.994	104.276	20.079	3.675	0.515
230.000	188.428	80.004	19.992	104.295	20.077	3.844	0.479
231.999	189.424	80.004	19.994	104.290	20.076	3.894	0.524
234.000	190.428	80.004	19.993	104.286	20.074	4.029	0.508
235.999	191.412	80.004	19.994	104.288	20.075	3.968	0.522
238.000	192.374	80.003	19.994	104.290	20.075	3.933	0.496
240.000	193.369	80.003	19.994	104.298	20.072	4.130	0.500
241.999	194.342	80.003	19.993	104.289	20.071	4.228	0.487
244.000	195.346	80.004	19.994	104.293	20.069	4.352	0.512
246.000	196.323	80.004	19.993	104.293	20.068	4.379	0.514
248.000	197.265	80.004	19.994	104.280	20.068	4.403	0.458
250.000	198.272	80.005	19.993	104.276	20.068	4.415	0.489
252.000	199.263	80.006	19.994	104.285	20.063	4.713	0.504
254.000	200.222	80.005	19.993	104.283	20.063	4.763	0.451
255.999	201.214	80.004	19.993	104.275	20.060	4.956	0.474
258.000	202.213	80.005	19.993	104.282	20.057	5.101	0.517
259.999	203.223	80.005	19.994	104.281	20.056	5.189	0.500
262.000	204.219	80.003	19.994	104.280	20.051	5.526	0.505
264.000	205.175	80.005	19.994	104.278	20.048	5.689	0.482
266.000	206.171	80.004	19.994	104.284	20.047	5.791	0.501
268.000	207.129	80.004	19.994	104.281	20.043	6.043	0.450
270.000	208.154	80.004	19.995	104.292	20.037	6.438	0.507
272.000	209.121	80.004	19.994	104.279	20.038	6.351	0.522
274.000	210.104	80.006	19.995	104.282	20.032	6.757	0.501
276.000	211.082	80.005	19.996	104.292	20.029	6.985	0.464
278.000	212.041	80.005	19.995	104.296	20.028	7.048	0.474
279.999	213.035	80.006	19.993	104.292	20.024	7.303	0.506
282.000	214.054	80.005	19.995	104.294	20.018	7.685	0.518
284.000	215.002	80.005	19.993	104.295	20.014	7.929	0.456
286.000	215.990	80.004	19.995	104.296	20.014	7.937	0.484
287.999	217.034	80.005	19.994	104.282	20.004	8.587	0.531
290.000	217.967	80.003	19.993	104.287	20.001	8.774	0.480
292.000	218.981	80.004	19.995	104.297	19.994	9.244	0.493
294.000	220.003	80.005	19.994	104.297	19.993	9.337	0.479
296.000	220.983	80.004	19.995	104.296	19.985	9.855	0.502
298.000	221.996	80.006	19.994	104.287	19.981	10.121	0.526
300.000	222.985	80.005	19.995	104.293	19.975	10.493	0.515
301.999	223.968	80.004	19.995	104.296	19.968	10.965	0.491
304.000	224.960	80.006	19.994	104.298	19.963	11.281	0.507
306.000	225.987	80.005	19.994	104.299	19.957	11.681	0.519
308.000	226.929	80.006	19.995	104.294	19.952	12.015	0.500
310.000	227.890	80.005	19.994	104.298	19.946	12.432	0.482
312.000	228.939	80.005	19.994	104.298	19.940	12.808	0.504
314.000	229.947	80.004	19.994	104.300	19.928	13.571	0.488
315.999	230.966	80.004	19.994	104.302	19.922	13.952	0.501
318.000	231.950	80.004	19.994	104.299	19.917	14.310	0.503
320.000	232.955	80.004	19.994	104.297	19.908	14.900	0.506
322.000	233.965	80.004	19.993	104.301	19.901	15.343	0.522
324.000	234.933	80.004	19.995	104.303	19.892	15.963	0.500
325.999	235.987	80.004	19.995	104.309	19.884	16.494	0.516
328.000	236.962	80.003	19.995	104.307	19.873	17.198	0.496
330.000	237.974	80.005	19.993	104.313	19.862	17.918	0.519
332.000	238.944	80.005	19.994	104.312	19.851	18.657	0.499
334.000	239.928	80.004	19.995	104.309	19.842	19.225	0.483
335.999	240.924	80.003	19.993	104.314	19.834	19.759	0.514
338.000	241.901	80.004	19.994	104.323	19.817	20.907	0.483
340.000	242.888	80.005	19.994	104.329	19.804	21.731	0.500
342.000	243.905	80.005	19.995	104.333	19.793	22.462	0.487
344.000	244.917	80.005	19.994	104.331	19.780	23.324	0.488
346.000	245.898	80.004	19.993	104.334	19.769	24.035	0.480
347.999	246.887	80.003	19.994	104.338	19.754	25.031	0.486
350.000	247.899	80.004	19.994	104.340	19.740	25.932	0.515
351.999	248.866	80.004	19.993	104.340	19.723	27.024	0.481
353.999	249.901	80.003	19.994	104.346	19.709	27.979	0.515
356.000	250.906	80.005	19.993	104.352	19.690	29.246	0.479
358.000	251.915	80.005	19.993	104.352	19.673	30.346	0.511
360.000	252.951	80.005	19.994	104.354	19.659	31.237	0.534
362.000	253.958	80.005	19.993	104.356	19.640	32.512	0.504
364.000	254.936	80.005	19.994	104.362	19.624	33.578	0.477
366.000	255.915	80.004	19.994	104.371	19.603	34.921	0.496
368.000	256.937	80.003	19.995	104.370	19.581	36.380	0.464
369.999	257.927	80.005	19.995	104.378	19.559	37.837	0.503
371.999	258.903	80.004	19.994	104.378	19.538	39.244	0.476
373.999	259.940	80.005	19.994	104.378	19.515	40.757	0.516
376.000	260.933	80.005	19.994	104.377	19.490	42.388	0.482
378.000	261.918	80.005	19.993	104.378	19.464	44.084	0.505
380.000	262.926	80.004	19.993	104.384	19.442	45.554	0.496
382.000	263.922	80.003	19.995	104.405	19.415	47.332	0.509
384.000	264.922	80.005	19.995	104.411	19.391	48.903	0.493
386.000	265.895	80.006	19.995	104.409	19.362	50.799	0.469
387.999	266.883	80.005	19.995	104.413	19.333	52.712	0.510
390.000	267.888	80.004	19.994	104.415	19.303	54.641	0.469
392.000	268.924	80.004	19.995	104.424	19.273	56.640	0.490
393.999	269.905	80.003	19.995	104.433	19.240	58.842	0.509
396.000	270.938	80.003	19.996	104.442	19.208	60.960	0.525
398.000	271.980	80.002	19.995	104.449	19.171	63.380	0.548
400.000	272.947	80.004	19.994	104.452	19.133	65.837	0.491
401.999	273.977	80.004	19.994	104.454	19.095	68.410	0.532
404.000	274.928	80.004	19.994	104.471	19.053	71.141	0.493
406.000	275.959	80.004	19.994	104.482	19.013	73.771	0.520
408.000	276.948	80.003	19.994	104.490	18.964	76.995	0.495
410.000	277.977	80.004	19.994	104.493	18.920	79.915	0.516
412.000	278.963	80.005	19.994	104.503	18.869	83.250	0.502
414.000	279.974	80.004	19.993	104.529	18.825	86.139	0.512
415.999	280.935	80.005	19.993	104.533	18.780	89.102	0.478
418.000	281.962	80.004	19.995	104.535	18.740	91.673	0.523
419.999	282.941	80.004	19.994	104.534	18.701	94.244	0.492
422.000	283.941	80.005	19.994	104.534	18.673	96.057	0.500
424.000	284.927	80.004	19.994	104.529	18.664	96.691	0.453
426.000	285.910	80.004	19.995	104.514	18.672	96.173	0.472
427.999	286.907	80.003	19.995	104.501	18.705	93.958	0.507
430.000	287.884	80.003	19.993	104.496	18.753	90.792	0.464
432.000	288.920	80.004	19.994	104.482	18.823	86.220	0.508
434.000	289.888	80.004	19.993	104.468	18.897	81.334	0.470
436.000	290.898	80.006	19.993	104.484	18.980	75.900	0.494
438.000	291.917	80.005	19.993	104.474	19.063	70.430	0.509
440.000	292.907	80.006	19.993	104.469	19.145	65.045	0.510
442.000	293.879	80.006	19.993	104.456	19.213	60.529	0.470
443.999	294.907	80.008	19.993	104.453	19.275	56.492	0.520
445.999	295.896	80.005	19.994	104.434	19.327	53.080	0.495
448.000	296.900	80.005	19.994	104.416	19.364	50.625	0.510
450.000	297.885	80.006	19.994	104.413	19.393	48.704	0.491
451.999	298.934	80.005	19.993	104.392	19.409	47.674	0.513
454.000	299.949	80.006	19.994	104.395	19.414	47.311	0.521
455.999	300.910	80.005	19.996	104.381	19.419	46.974	0.504
458.000	301.973	80.004	19.996	104.367	19.424	46.698	0.545
460.000	303.024	80.006	19.995	104.341	19.429	46.335	0.541
462.000	304.039	80.006	19.994	104.339	19.439	45.710	0.514
464.000	305.075	80.007	19.994	104.340	19.449	45.008	0.530
466.000	306.117	80.008	19.994	104.346	19.464	44.058	0.507
468.000	307.159	80.007	19.993	104.356	19.479	43.067	0.489
469.999	308.248	80.007	19.993	104.359	19.498	41.832	0.557
472.000	309.260	80.006	19.993	104.342	19.519	40.407	0.523
474.000	310.313	80.005	19.994	104.332	19.549	38.444	0.529
475.999	311.374	80.004	19.994	104.326	19.581	36.356	0.560
478.000	312.431	80.004	19.994	104.314	19.612	34.293	0.562
480.000	313.472	80.003	19.994	104.327	19.645	32.164	0.536
482.000	314.534	80.004	19.994	104.331	19.673	30.331	0.533
484.000	315.534	80.003	19.995	104.314	19.701	28.511	0.486
486.000	316.544	80.003	19.995	104.307	19.724	26.953	0.483
488.000	317.583	80.004	19.995	104.306	19.739	25.950	0.514
490.000	318.604	80.004	19.995	104.298	19.759	24.677	0.492
492.000	319.681	80.005	19.994	104.298	19.771	23.865	0.515
494.000	320.679	80.004	19.995	104.295	19.783	23.104	0.532
496.000	321.722	80.005	19.995	104.288	19.794	22.368	0.522
498.000	322.734	80.004	19.993	104.269	19.805	21.658	0.505
500.000	323.748	80.004	19.994	104.281	19.813	21.105	0.491
501.999	324.742	80.004	19.994	104.273	19.819	20.705	0.489
503.999	325.822	80.005	19.995	104.261	19.822	20.508	0.502
506.000	326.794	80.004	19.994	104.260	19.826	20.268	0.500
508.000	327.817	80.005	19.994	104.263	19.826	20.257	0.492
510.000	328.781	80.003	19.994	104.259	19.830	19.998	0.490
512.000	329.828	80.004	19.995	104.256	19.835	19.672	0.501
514.000	330.815	80.005	19.995	104.257	19.833	19.799	0.512
515.999	331.780	80.004	19.994	104.257	19.833	19.784	0.457
518.000	332.852	80.006	19.993	104.255	19.837	19.577	0.548
519.999	333.750	80.006	19.993	104.251	19.831	19.923	0.482
521.999	334.752	80.006	19.994	104.246	19.833	19.820	0.471
524.000	335.735	80.005	19.994	104.247	19.832	19.895	0.486
526.000	336.751	80.007	19.995	104.246	19.827	20.192	0.481
528.000	337.679	80.005	19.995	104.242	19.821	20.592	0.465
530.000	338.647	80.005	19.994	104.239	19.819	20.729	0.451
532.000	339.633	80.006	19.995	104.246	19.812	21.164	0.474
534.000	340.605	80.005	19.995	104.240	19.804	21.717	0.484
536.000	341.581	80.007	19.994	104.242	19.796	22.254	0.496
538.000	342.579	80.006	19.994	104.239	19.786	22.914	0.458
540.000	343.527	80.007	19.994	104.243	19.775	23.638	0.483
542.000	344.516	80.006	19.993	104.255	19.765	24.270	0.486
544.000	345.479	80.006	19.994	104.249	19.751	25.159	0.496
546.000	346.446	80.007	19.994	104.248	19.737	26.086	0.480
548.000	347.405	80.006	19.993	104.239	19.720	27.241	0.504
549.999	348.397	80.007	19.994	104.234	19.702	28.433	0.486
552.000	349.395	80.007	19.993	104.251	19.682	29.717	0.519
554.000	350.378	80.006	19.994	104.249	19.660	31.170	0.481
555.999	351.371	80.004	19.994	104.250	19.635	32.807	0.483
558.000	352.386	80.005	19.993	104.245	19.609	34.535	0.507
560.000	353.411	80.004	19.994	104.248	19.577	36.591	0.485
561.999	354.404	80.003	19.993	104.249	19.547	38.578	0.501
564.000	355.400	80.004	19.995	104.264	19.513	40.802	0.489
566.000	356.387	80.005	19.995	104.261	19.474	43.340	0.500
568.000	357.392	80.003	19.993	104.261	19.432	46.121	0.503
569.999	358.357	80.004	19.993	104.260	19.389	48.928	0.473
572.000	359.385	80.005	19.996	104.258	19.335	52.462	0.510
574.000	360.370	80.004	19.995	104.264	19.282	55.930	0.511
576.000	361.390	80.006	19.995	104.273	19.216	60.274	0.519
578.000	362.376	80.004	19.994	104.286	19.140	65.294	0.486
580.000	363.351	80.004	19.994	104.297	19.064	70.263	0.503
582.000	364.339	80.005	19.995	104.295	18.983	75.580	0.495
584.000	365.341	80.004	19.994	104.287	18.910	80.401	0.505
586.000	366.361	80.003	19.994	104.265	18.825	85.991	0.494
588.000	367.286	80.005	19.995	104.272	18.733	91.975	0.496
590.000	368.311	80.004	19.995	104.300	18.638	98.245	0.480
592.000	369.312	80.004	19.994	104.311	18.532	105.212	0.503
593.999	370.324	80.005	19.993	104.307	18.427	112.090	0.516
595.999	371.316	80.005	19.994	104.304	18.314	119.445	0.486
598.000	372.349	80.006	19.994	104.308	18.205	126.616	0.538
599.999	373.369	80.006	19.994	104.301	18.092	134.021	0.510
602.000	374.342	80.005	19.993	104.304	17.972	141.859	0.492
604.000	375.379	80.006	19.995	104.308	17.862	149.063	0.495
606.000	376.381	80.006	19.993	104.298	17.753	156.204	0.504
608.000	377.371	80.006	19.992	104.288	17.631	164.212	0.512
610.000	378.403	80.004	19.994	104.305	17.515	171.750	0.497
612.000	379.417	80.004	19.993	104.294	17.405	178.929	0.516
614.000	380.462	80.006	19.994	104.264	17.295	186.099	0.530
616.000	381.414	80.005	19.993	104.237	17.189	193.055	0.488
618.000	382.491	80.006	19.994	104.229	17.094	199.294	0.504
620.000	383.505	80.005	19.994	104.231	17.006	204.966	0.521
622.000	384.572	80.004	19.993	104.197	16.931	209.808	0.514
624.000	385.603	80.005	19.995	104.183	16.861	214.349	0.500
625.999	386.646	80.006	19.993	104.175	16.802	218.231	0.543
628.000	387.694	80.007	19.993	104.179	16.757	221.213	0.535
630.000	388.748	80.007	19.993	104.147	16.733	222.777	0.524
632.000	389.742	80.009	19.992	104.109	16.731	222.833	0.500
634.000	390.818	80.006	19.993	104.085	16.744	221.975	0.538
636.000	391.844	80.006	19.994	104.068	16.773	220.130	0.540
637.999	392.863	80.005	19.994	104.099	16.815	217.419	0.524
640.000	393.901	80.004	19.994	104.095	16.881	213.081	0.503
642.000	394.916	80.005	19.994	104.079	16.962	207.776	0.486
644.000	395.987	80.006	19.995	104.064	17.061	201.309	0.514
646.000	397.044	80.005	19.994	104.068	17.171	194.094	0.540
648.000	398.021	80.003	19.995	104.085	17.292	186.165	0.511
650.000	399.074	80.004	19.994	104.094	17.424	177.527	0.522
652.000	400.082	80.006	19.995	104.100	17.556	168.848	0.524
654.000	401.111	80.004	19.995	104.100	17.695	159.767	0.525
656.000	402.089	80.005	19.995	104.103	17.833	150.705	0.484
658.000	403.097	80.005	19.994	104.103	17.976	141.375	0.489
660.000	404.137	80.005	19.994	104.101	18.116	132.171	0.505
662.000	405.127	80.004	19.995	104.100	18.252	123.303	0.522
664.000	406.155	80.003	19.994	104.088	18.393	114.085	0.514
666.000	407.153	80.004	19.995	104.074	18.525	105.427	0.486
668.000	408.185	80.004	19.994	104.079	18.653	97.039	0.511
670.000	409.143	80.003	19.996	104.072	18.782	88.619	0.511
672.000	410.144	80.002	19.994	104.080	18.899	80.994	0.528
674.000	411.213	80.001	19.996	104.102	19.008	73.836	0.546
676.000	412.175	80.003	19.995	104.103	19.114	66.881	0.509
677.999	413.198	80.004	19.994	104.114	19.210	60.582	0.510
680.000	414.166	80.005	19.995	104.127	19.296	54.956	0.491
682.000	415.179	80.004	19.994	104.142	19.380	49.451	0.511
684.000	416.201	80.006	19.995	104.144	19.458	44.351	0.492
686.000	417.194	80.005	19.992	104.144	19.527	39.851	0.516
687.999	418.257	80.005	19.993	104.147	19.587	35.933	0.509
690.000	419.275	80.006	19.993	104.149	19.643	32.258	0.520
692.000	420.306	80.006	19.993	104.150	19.696	28.766	0.513
694.000	421.316	80.007	19.993	104.146	19.744	25.647	0.504
696.000	422.348	80.004	19.994	104.146	19.787	22.807	0.490
698.000	423.359	80.004	19.994	104.145	19.826	20.235	0.523
699.999	424.410	80.005	19.994	104.147	19.859	18.122	0.542
702.000	425.415	80.006	19.994	104.150	19.889	16.119	0.502
704.000	426.402	80.007	19.994	104.158	19.918	14.220	0.468
706.000	427.462	80.006	19.993	104.172	19.936	13.057	0.514
707.999	428.505	80.006	19.994	104.166	19.961	11.414	0.522
710.000	429.522	80.008	19.994	104.164	19.977	10.347	0.502
712.000	430.556	80.007	19.994	104.177	19.996	9.136	0.519
714.000	431.573	80.007	19.993	104.174	20.009	8.265	0.494
715.999	432.583	80.007	19.993	104.159	20.022	7.405	0.473
717.999	433.598	80.006	19.994	104.150	20.030	6.881	0.517
720.000	434.615	80.005	19.993	104.145	20.037	6.419	0.523
722.000	435.641	80.005	19.992	104.142	20.046	5.848	0.512
724.000	436.675	80.004	19.993	104.157	20.053	5.405	0.493
726.000	437.731	80.005	19.994	104.147	20.062	4.799	0.546
727.999	438.703	80.004	19.995	104.166	20.066	4.501	0.508
729.999	439.725	80.004	19.994	104.153	20.073	4.077	0.521
731.999	440.777	80.004	19.994	104.148	20.077	3.776	0.513
734.000	441.707	80.005	19.994	104.153	20.081	3.566	0.479
736.000	442.758	80.005	19.994	104.158	20.083	3.429	0.507
738.000	443.773	80.004	19.994	104.144	20.084	3.370	0.511
740.000	444.777	80.006	19.994	104.145	20.090	2.939	0.517
742.000	445.825	80.005	19.993	104.145	20.094	2.692	0.504
743.999	446.805	80.005	19.994	104.146	20.094	2.722	0.489
746.000	447.841	80.005	19.996	104.144	20.097	2.471	0.514
748.000	448.860	80.004	19.995	104.144	20.100	2.327	0.537
750.000	449.849	80.004	19.995	104.145	20.100	2.322	0.518
752.000	450.848	80.004	19.995	104.148	20.102	2.188	0.468
754.000	451.887	80.005	19.994	104.163	20.103	2.130	0.506
756.000	452.882	80.004	19.994	104.169	20.103	2.099	0.506
758.000	453.869	80.004	19.992	104.164	20.105	1.984	0.490
760.000	454.895	80.004	19.995	104.154	20.104	2.065	0.511
762.000	455.957	80.004	19.995	104.171	20.106	1.880	0.545
764.000	456.918	80.006	19.994	104.178	20.107	1.860	0.500
766.000	457.917	80.005	19.996	104.178	20.109	1.728	0.486
768.000	458.927	80.007	19.996	104.167	20.107	1.857	0.510
769.999	459.946	80.006	19.995	104.165	20.105	1.959	0.529
772.000	460.916	80.004	19.994	104.165	20.109	1.690	0.496
774.000	461.919	80.006	19.994	104.155	20.112	1.525	0.470
776.000	462.921	80.006	19.994	104.174	20.112	1.512	0.481
777.999	463.908	80.007	19.994	104.168	20.112	1.500	0.485
779.999	464.895	80.007	19.994	104.170	20.110	1.665	0.486
782.000	465.860	80.006	19.993	104.171	20.112	1.541	0.486
784.000	466.870	80.007	19.994	104.172	20.110	1.645	0.472
786.000	467.887	80.007	19.993	104.166	20.112	1.485	0.501
788.000	468.909	80.008	19.994	104.168	20.111	1.597	0.495
789.999	469.915	80.008	19.994	104.172	20.112	1.528	0.515
792.000	470.927	80.008	19.993	104.174	20.111	1.550	0.490
793.999	471.939	80.007	19.994	104.172	20.113	1.446	0.508
796.000	472.942	80.007	19.994	104.164	20.113	1.422	0.506
797.999	473.978	80.007	19.994	104.178	20.108	1.765	0.503
800.000	474.993	80.006	19.994	104.167	20.111	1.595	0.493
802.000	475.997	80.005	19.994	104.177	20.110	1.672	0.488
804.000	476.994	80.003	19.995	104.177	20.114	1.415	0.513
806.000	477.993	80.004	19.994	104.166	20.114	1.376	0.489
808.000	479.029	80.005	19.993	104.171	20.114	1.392	0.509
810.000	480.028	80.002	19.994	104.172	20.113	1.471	0.504
812.000	480.996	80.006	19.994	104.175	20.112	1.519	0.531
814.000	481.977	80.004	19.993	104.184	20.112	1.487	0.515
816.000	482.969	80.005	19.994	104.180	20.113	1.476	0.501
817.999	483.933	80.004	19.992	104.181	20.112	1.530	0.484
819.999	484.941	80.006	19.993	104.183	20.108	1.778	0.500
822.000	485.935	80.005	19.993	104.183	20.113	1.433	0.499
823.999	486.890	80.004	19.993	104.178	20.113	1.435	0.467
825.999	487.921	80.004	19.993	104.179	20.115	1.324	0.499
828.000	488.905	80.004	19.994	104.179	20.114	1.403	0.510
830.000	489.932	80.004	19.994	104.180	20.114	1.390	0.511
832.000	490.940	80.004	19.995	104.181	20.111	1.550	0.511
834.000	491.908	80.003	19.995	104.181	20.110	1.615	0.450
836.000	492.970	80.004	19.995	104.169	20.111	1.586	0.507
838.000	494.021	80.004	19.995	104.178	20.111	1.564	0.535
840.000	495.084	80.005	19.994	104.171	20.113	1.457	0.525
842.000	496.063	80.006	19.994	104.169	20.108	1.751	0.502
843.999	497.103	80.006	19.995	104.171	20.111	1.607	0.521
846.000	498.098	80.007	19.994	104.175	20.108	1.782	0.511
848.000	499.174	80.007	19.994	104.178	20.110	1.618	0.539
850.000	500.196	80.007	19.995	104.181	20.110	1.649	0.506
852.000	501.172	80.005	19.995	104.177	20.111	1.584	0.487
854.000	502.216	80.006	19.995	104.167	20.110	1.654	0.487
856.000	503.235	80.005	19.995	104.180	20.109	1.713	0.519
858.000	504.245	80.005	19.995	104.170	20.111	1.570	0.519
860.000	505.256	80.004	19.996	104.166	20.112	1.482	0.503
862.000	506.332	80.004	19.994	104.172	20.111	1.606	0.545
864.000	507.326	80.004	19.995	104.174	20.113	1.421	0.501
865.999	508.356	80.006	19.995	104.179	20.110	1.618	0.530
868.000	509.387	80.005	19.994	104.176	20.115	1.347	0.505
869.999	510.428	80.005	19.993	104.177	20.114	1.352	0.511
872.000	511.498	80.007	19.993	104.173	20.118	1.124	0.539
873.999	512.486	80.006	19.993	104.179	20.112	1.525	0.504
876.000	513.506	80.004	19.994	104.169	20.109	1.735	0.492
877.999	514.553	80.005	19.994	104.172	20.111	1.591	0.526
880.000	515.626	80.005	19.993	104.178	20.116	1.279	0.524
882.000	516.718	80.005	19.994	104.182	20.114	1.383	0.533
884.000	517.745	80.003	19.994	104.183	20.114	1.403	0.530
886.000	518.825	80.004	19.994	104.187	20.110	1.669	0.524
887.999	519.912	80.004	19.995	104.186	20.107	1.837	0.538
890.000	521.021	80.002	19.993	104.189	20.108	1.753	0.552
892.000	522.166	80.005	19.993	104.193	20.110	1.624	0.566
894.000	523.332	80.005	19.994	104.184	20.108	1.746	0.595
895.999	524.478	80.004	19.994	104.182	20.112	1.543	0.556
898.000	525.655	80.006	19.993	104.182	20.113	1.460	0.592
900.000	526.822	80.004	19.994	104.188	20.114	1.360	0.567
902.000	527.972	80.004	19.994	104.181	20.115	1.342	0.601
904.000	529.175	80.004	19.994	104.181	20.114	1.392	0.578
905.999	530.401	80.005	19.994	104.182	20.110	1.616	0.597
907.999	531.584	80.004	19.993	104.183	20.113	1.458	0.598
909.999	532.789	80.005	19.993	104.185	20.111	1.575	0.587
912.000	534.030	80.006	19.992	104.181	20.115	1.311	0.619
914.000	535.279	80.005	19.992	104.180	20.117	1.218	0.628
915.999	536.485	80.003	19.995	104.181	20.117	1.185	0.612
917.999	537.632	80.005	19.995	104.179	20.118	1.144	0.569
920.000	538.881	80.003	19.995	104.182	20.114	1.363	0.616
922.000	540.076	80.003	19.994	104.182	20.116	1.263	0.603
924.000	541.241	80.004	19.995	104.184	20.114	1.406	0.572
926.000	542.498	80.005	19.994	104.182	20.117	1.218	0.604
928.000	543.704	80.006	19.993	104.185	20.114	1.414	0.630
930.000	544.897	80.006	19.993	104.184	20.115	1.334	0.585
932.000	546.088	80.006	19.994	104.183	20.119	1.040	0.595
934.000	547.262	80.006	19.994	104.183	20.117	1.191	0.602
936.000	548.453	80.005	19.994	104.177	20.117	1.164	0.589
938.000	549.616	80.005	19.993	104.176	20.120	0.988	0.552
940.000	550.849	80.005	19.994	104.181	20.119	1.076	0.581
942.000	551.967	80.004	19.994	104.181	20.117	1.175	0.554
944.000	553.171	80.004	19.994	104.182	20.116	1.259	0.585
946.000	554.344	80.004	19.994	104.175	20.116	1.266	0.578
947.999	555.518	80.004	19.994	104.176	20.116	1.239	0.550
949.999	556.638	80.006	19.994	104.176	20.115	1.338	0.569
952.000	557.853	80.007	19.995	104.179	20.114	1.392	0.546
954.000	558.940	80.005	19.995	104.175	20.114	1.359	0.542
956.000	560.196	80.007	19.995	104.162	20.119	1.061	0.622
958.000	561.283	80.006	19.994	104.164	20.114	1.358	0.562
960.000	562.440	80.006	19.994	104.174	20.118	1.101	0.558
962.000	563.595	80.004	19.995	104.166	20.111	1.611	0.544
963.999	564.661	80.004	19.994	104.164	20.122	0.844	0.606
966.000	565.751	80.003	19.993	104.168	20.127	0.537	0.563
968.000	566.942	80.003	19.993	104.158	20.114	1.388	0.555
970.000	568.098	80.007	19.995	104.160	20.119	1.063	0.577
972.000	569.070	80.004	19.993	104.165	20.116	1.278	0.584
974.000	570.351	80.007	19.993	104.160	20.118	1.120	0.455
976.000	571.023	80.006	19.994	104.162	20.114	1.384	0.618
978.000	572.560	80.002	19.994	104.165	20.119	1.038	0.297
980.000	573.657	80.005	19.994	104.170	20.120	0.964	0.363
982.000	574.306	80.003	19.994	104.156	20.113	1.466	-0.324
984.000	576.094	80.005	19.994	104.160	20.112	1.483	0.268
986.000	576.912	80.003	19.994	104.145	20.110	1.618	0.524
988.000	578.066	80.004	19.995	104.154	20.113	1.428	0.521
990.000	579.230	80.005	19.994	104.172	20.114	1.363	0.475
991.999	580.367	80.005	19.994	104.180	20.114	1.365	0.603
994.000	581.450	80.005	19.994	104.180	20.113	1.449	0.546
996.000	582.537	80.006	19.995	104.164	20.112	1.508	0.484
998.000	583.674	80.005	19.993	104.175	20.112	1.501	0.551
1000.000	584.763	80.006	19.993	104.175	20.110	1.647	0.507
1002.000	585.934	80.006	19.993	104.161	20.114	1.401	0.603
1004.000	587.056	80.005	19.993	104.178	20.115	1.342	0.574
1006.000	588.180	80.005	19.993	104.172	20.111	1.588	0.558
1008.000	589.286	80.006	19.993	104.170	20.111	1.587	0.573
1009.999	590.450	80.006	19.994	104.179	20.111	1.571	0.598
1012.000	591.558	80.005	19.994	104.181	20.111	1.605	0.582
1014.000	592.686	80.005	19.994	104.176	20.113	1.426	0.559
1016.000	593.787	80.006	19.994	104.179	20.111	1.609	0.557
1018.000	594.943	80.004	19.994	104.174	20.111	1.564	0.578
1020.000	596.069	80.005	19.994	104.169	20.114	1.406	0.615
1021.999	597.168	80.005	19.995	104.177	20.112	1.509	0.543
1023.999	598.297	80.006	19.994	104.158	20.112	1.519	0.540
1026.000	599.352	80.006	19.994	104.173	20.112	1.542	0.548
1027.999	600.502	80.006	19.993	104.165	20.115	1.336	0.575
1030.000	601.589	80.007	19.993	104.152	20.111	1.597	0.560
1032.000	602.676	80.007	19.993	104.167	20.110	1.636	0.544
1033.999	603.771	80.008	19.994	104.175	20.115	1.345	0.514
1036.000	604.841	80.008	19.995	104.162	20.112	1.516	0.523
1038.000	605.912	80.005	19.996	104.151	20.115	1.349	0.495
1039.999	607.017	80.005	19.993	104.164	20.112	1.516	0.567
1042.000	608.092	80.005	19.994	104.164	20.117	1.191	0.531
1043.999	609.219	80.006	19.996	104.165	20.116	1.221	0.557
1046.000	610.277	80.004	19.996	104.167	20.114	1.359	0.508
1048.000	611.407	80.003	19.995	104.165	20.117	1.187	0.551
1050.000	612.424	80.005	19.995	104.173	20.115	1.331	0.532
1052.000	613.561	80.004	19.996	104.169	20.115	1.339	0.556
1054.000	614.590	80.003	19.995	104.159	20.115	1.295	0.552
1056.000	615.681	80.006	19.992	104.157	20.115	1.318	0.567
1058.000	616.778	80.004	19.993	104.168	20.116	1.277	0.538
1060.000	617.803	80.004	19.994	104.162	20.115	1.331	0.553
1062.000	618.832	80.003	19.994	104.147	20.113	1.429	0.510
1064.000	619.930	80.004	19.994	104.165	20.116	1.277	0.558
1066.000	620.926	80.005	19.993	104.173	20.113	1.463	0.507
1067.999	621.985	80.006	19.992	104.151	20.114	1.408	0.528
1070.000	623.071	80.004	19.994	104.165	20.118	1.153	0.533
1072.000	624.072	80.004	19.993	104.170	20.115	1.320	0.530
1074.000	625.123	80.005	19.992	104.164	20.115	1.343	0.548
1076.000	626.167	80.003	19.993	104.152	20.114	1.354	0.553
1078.000	627.186	80.003	19.994	104.154	20.114	1.415	0.508
1080.000	628.251	80.003	19.994	104.160	20.112	1.524	0.525
1081.999	629.262	80.005	19.993	104.148	20.112	1.532	0.514
1083.999	630.278	80.004	19.994	104.149	20.116	1.228	0.525
1086.000	631.310	80.005	19.994	104.151	20.114	1.390	0.513
1088.000	632.274	80.005	19.994	104.159	20.117	1.155	0.476
1090.000	633.271	80.006	19.993	104.155	20.115	1.318	0.466
1092.000	634.294	80.006	19.993	104.157	20.113	1.447	0.519
1094.000	635.306	80.005	19.993	104.156	20.117	1.208	0.514
1095.999	636.260	80.006	19.994	104.150	20.116	1.264	0.475
1097.999	637.306	80.007	19.994	104.157	20.114	1.368	0.541
1099.999	638.259	80.006	19.994	104.150	20.114	1.395	0.477
1101.999	639.210	80.005	19.992	104.153	20.114	1.350	0.487
1104.000	640.122	80.005	19.995	104.153	20.115	1.293	0.471
1106.000	641.158	80.006	19.994	104.154	20.115	1.345	0.497
1108.000	642.141	80.007	19.993	104.148	20.113	1.449	0.492
1110.000	643.055	80.005	19.996	104.148	20.114	1.413	0.477
1112.000	643.995	80.005	19.994	104.149	20.116	1.246	0.489
1114.000	644.962	80.007	19.995	104.156	20.115	1.343	0.488
1116.000	645.976	80.007	19.993	104.150	20.116	1.257	0.476
1117.999	646.915	80.007	19.994	104.156	20.116	1.275	0.449
1119.999	647.876	80.008	19.993	104.151	20.117	1.173	0.498
1122.000	648.854	80.006	19.993	104.150	20.116	1.226	0.483
1124.000	649.852	80.005	19.993	104.147	20.114	1.368	0.476
1126.000	650.825	80.005	19.993	104.151	20.115	1.336	0.488
1128.000	651.795	80.004	19.994	104.150	20.113	1.480	0.515
1130.000	652.786	80.003	19.993	104.155	20.112	1.490	0.485
1132.000	653.769	80.005	19.994	104.153	20.117	1.203	0.493
1134.000	654.768	80.004	19.995	104.149	20.106	1.877	0.508
1136.000	655.726	80.003	19.994	104.161	20.109	1.725	0.511
1137.999	656.698	80.004	19.994	104.159	20.112	1.539	0.489
1140.000	657.692	80.003	19.994	104.148	20.110	1.628	0.517
1142.000	658.705	80.005	19.994	104.156	20.115	1.329	0.520
1144.000	659.696	80.005	19.995	104.167	20.114	1.411	0.509
1145.999	660.739	80.006	19.994	104.153	20.114	1.399	0.553
1148.000	661.552	80.005	19.993	104.149	20.114	1.392	0.684
1150.000	662.820	80.003	19.993	104.144	20.113	1.455	0.552
1152.000	663.754	80.004	19.994	104.149	20.109	1.699	0.616
1154.000	664.705	80.005	19.993	104.151	20.113	1.424	0.476
1156.000	665.782	80.004	19.993	104.145	20.114	1.413	0.523
1158.000	666.768	80.004	19.994	104.149	20.113	1.470	0.526
1160.000	667.738	80.004	19.993	104.163	20.111	1.553	0.475
1162.000	668.790	80.004	19.993	104.160	20.109	1.727	0.487
1164.000	669.781	80.003	19.996	104.151	20.111	1.549	0.497
1166.000	670.771	80.006	19.994	104.150	20.113	1.424	0.496
1168.000	671.779	80.006	19.994	104.144	20.114	1.354	0.501
1170.000	672.809	80.006	19.995	104.158	20.115	1.327	0.511
1172.000	673.824	80.006	19.994	104.149	20.113	1.478	0.513
1174.000	674.822	80.006	19.993	104.143	20.113	1.444	0.497
1175.999	675.876	80.007	19.994	104.145	20.113	1.419	0.531
1178.000	676.840	80.005	19.994	104.157	20.113	1.480	0.474
1180.000	677.887	80.007	19.994	104.161	20.113	1.427	0.499
1182.000	678.872	80.007	19.993	104.164	20.110	1.670	0.490
1184.000	679.855	80.006	19.992	104.146	20.113	1.476	0.479
1186.000	680.884	80.006	19.993	104.154	20.113	1.453	0.524
1188.000	681.881	80.005	19.993	104.158	20.111	1.553	0.488
1189.999	682.920	80.007	19.992	104.155	20.112	1.535	0.528
1191.999	683.912	80.007	19.992	104.154	20.112	1.499	0.510
1194.000	684.989	80.007	19.993	104.157	20.108	1.745	0.576
1195.999	685.888	80.006	19.994	104.152	20.114	1.363	0.519
1198.000	686.870	80.009	19.993	104.163	20.109	1.682	0.514
1200.000	687.916	80.006	19.994	104.148	20.111	1.600	0.511
1202.000	688.887	80.005	19.994	104.148	20.109	1.692	0.485
1203.999	689.881	80.007	19.994	104.147	20.110	1.677	0.499
1206.000	690.860	80.005	19.994	104.154	20.112	1.485	0.497
1207.999	691.824	80.004	19.994	104.154	20.112	1.492	0.489
1209.999	692.925	80.005	19.994	104.158	20.112	1.532	0.512
1212.000	693.926	80.005	19.994	104.157	20.107	1.835	0.511
1214.000	695.000	80.005	19.995	104.158	20.112	1.539	0.573
1216.000	696.055	80.004	19.994	104.158	20.107	1.819	0.517
1218.000	697.073	80.005	19.994	104.150	20.111	1.553	0.519
1220.000	698.214	80.006	19.995	104.161	20.111	1.576	0.540
1221.999	699.249	80.004	19.994	104.165	20.109	1.704	0.532
1224.000	700.359	80.005	19.994	104.166	20.108	1.777	0.560
1226.000	701.408	80.005	19.994	104.158	20.113	1.454	0.527
1228.000	702.515	80.005	19.995	104.157	20.114	1.386	0.571
1230.000	703.536	80.003	19.994	104.154	20.113	1.463	0.510
1232.000	704.604	80.004	19.995	104.145	20.108	1.760	0.508
1234.000	705.641	80.005	19.995	104.148	20.109	1.708	0.531
1236.000	706.677	80.003	19.994	104.142	20.107	1.849	0.532
1238.000	707.690	80.003	19.995	104.141	20.112	1.492	0.499
1240.000	708.722	80.003	19.994	104.148	20.112	1.515	0.518
1242.000	709.757	80.005	19.994	104.156	20.110	1.620	0.534
1244.000	710.733	80.004	19.993	104.158	20.112	1.488	0.471
1246.000	711.707	80.005	19.994	104.147	20.109	1.720	0.495
1248.000	712.654	80.005	19.994	104.148	20.110	1.638	0.483
1250.000	713.624	80.005	19.992	104.149	20.109	1.742	0.481
1251.999	714.628	80.006	19.994	104.148	20.109	1.702	0.515
1253.999	715.612	80.008	19.993	104.149	20.111	1.596	0.494
1256.000	716.588	80.006	19.993	104.147	20.110	1.668	0.502
1258.000	717.549	80.005	19.995	104.150	20.107	1.819	0.490
1260.000	718.494	80.007	19.995	104.149	20.110	1.656	0.503
1261.999	719.421	80.006	19.994	104.150	20.108	1.751	0.496
1264.000	720.342	80.006	19.993	104.147	20.112	1.483	0.451
1265.999	721.298	80.005	19.993	104.146	20.108	1.761	0.452
1268.000	722.247	80.006	19.993	104.150	20.111	1.596	0.461
1270.000	723.196	80.006	19.994	104.158	20.110	1.627	0.480
1272.000	724.130	80.007	19.994	104.150	20.109	1.679	0.463
1273.999	725.091	80.008	19.994	104.150	20.113	1.420	0.484
1276.000	725.988	80.008	19.993	104.143	20.109	1.729	0.454
1278.000	726.933	80.007	19.993	104.142	20.115	1.343	0.478
1279.999	727.876	80.007	19.993	104.143	20.113	1.480	0.442
1282.000	728.797	80.007	19.992	104.152	20.111	1.562	0.457
1284.000	729.813	80.006	19.994	104.156	20.110	1.614	0.497
1286.000	730.743	80.006	19.993	104.159	20.110	1.612	0.493
1288.000	731.758	80.005	19.994	104.154	20.108	1.781	0.524
1290.000	732.762	80.005	19.994	104.162	20.109	1.738	0.482
1291.999	733.809	80.005	19.995	104.151	20.108	1.783	0.513
1294.000	734.835	80.006	19.994	104.169	20.111	1.582	0.550
1296.000	735.780	80.004	19.994	104.152	20.108	1.765	0.478
1298.000	736.827	80.006	19.995	104.155	20.108	1.758	0.513
1300.000	737.901	80.006	19.995	104.157	20.109	1.717	0.560
1301.999	738.951	80.005	19.994	104.149	20.105	1.995	0.512
1304.000	739.975	80.006	19.995	104.167	20.106	1.885	0.508
1306.000	741.020	80.004	19.995	104.161	20.108	1.790	0.502
1307.999	742.138	80.006	19.994	104.151	20.109	1.733	0.511
1310.000	743.158	80.006	19.994	104.145	20.108	1.770	0.524
1310.500	743.402	80.006	19.994	104.146	20.106	1.882	0.515