File: 01_Data/Roof_Felt/MCC/Roof_Felt_MCC_30K_min_210930_R3.txt
Sample ID:	C:\MCC\MCC Cal\Test\Roof_Felt_MCC_30K_min_210930_R3.txt
Sample Weight (mg):	4.89
Heating Rate (C/s):	0.5
Combustor Temp (C):	900
N2 Flow Rate (cc/min):	80
O2 Flow Rate (cc/min):	20
Calibration File:	C:\MCC\MCC Cal\Coeff1 JN10440_30_210304.txt.txt
T Correction Coefficients:	0	1.024463	0
Time Shift (s):	14
*
Time (s)	Temperature (C)	N2 flow rate (cc/min)	O2 flow rate (cc/min)	Flow Rate (cc/min)	Oxygen (%)	HRR (W/g)	Heating rate (C/s)
0.000	107.025	80.000	19.995	100.573	20.195	0.108	-0.010
2.000	107.050	80.000	19.997	100.586	20.193	0.240	-0.002
4.000	107.028	80.000	19.996	100.598	20.191	0.380	0.005
6.000	107.054	80.000	19.996	100.583	20.193	0.258	0.024
8.000	107.034	80.000	19.995	100.584	20.194	0.196	0.000
10.000	107.009	80.001	19.995	100.605	20.193	0.235	-0.001
12.000	107.045	80.000	19.996	100.614	20.192	0.307	0.016
14.001	107.031	80.001	19.995	100.615	20.193	0.265	-0.014
16.000	107.041	80.002	19.995	100.622	20.187	0.619	-0.010
18.000	107.059	80.001	19.996	100.633	20.185	0.750	0.025
20.000	107.103	80.001	19.996	100.653	20.182	0.921	0.014
22.000	107.131	80.001	19.996	100.672	20.178	1.173	0.006
24.000	107.224	80.002	19.996	100.698	20.176	1.357	0.000
26.000	107.321	79.999	19.996	100.729	20.172	1.617	0.044
28.000	107.449	80.000	19.996	100.760	20.166	1.949	0.063
30.000	107.603	80.000	19.996	100.770	20.165	2.037	0.100
32.000	107.844	80.000	19.997	100.793	20.161	2.303	0.112
34.000	108.041	80.001	19.996	100.790	20.158	2.497	0.111
36.001	108.317	80.001	19.997	100.801	20.155	2.668	0.136
38.000	108.582	80.002	19.995	100.783	20.156	2.650	0.146
40.001	108.886	80.001	19.996	100.788	20.154	2.775	0.151
42.000	109.229	80.001	19.996	100.774	20.156	2.649	0.153
44.001	109.651	80.001	19.995	100.782	20.155	2.711	0.196
46.000	110.000	80.001	19.995	100.789	20.153	2.789	0.191
48.000	110.389	80.001	19.996	100.802	20.154	2.750	0.215
50.001	110.820	80.000	19.996	100.786	20.156	2.599	0.261
52.000	111.267	80.002	19.998	100.773	20.155	2.677	0.196
54.000	111.658	80.002	19.997	100.766	20.159	2.433	0.208
56.001	112.136	80.002	19.996	100.765	20.154	2.731	0.236
58.000	112.607	80.001	19.997	100.768	20.156	2.612	0.244
60.000	113.061	80.002	19.996	100.793	20.157	2.580	0.234
62.000	113.621	80.000	19.997	100.806	20.153	2.830	0.271
64.001	114.154	80.002	19.997	100.815	20.151	2.962	0.249
66.001	114.657	80.003	19.996	100.819	20.151	2.957	0.240
68.001	115.259	80.002	19.995	100.819	20.150	3.024	0.292
70.000	115.815	80.004	19.995	100.840	20.148	3.113	0.289
72.001	116.440	80.002	19.995	100.843	20.150	3.016	0.290
74.000	117.052	80.003	19.994	100.838	20.145	3.341	0.281
76.001	117.680	80.001	19.995	100.840	20.146	3.253	0.306
78.001	118.336	80.002	19.996	100.839	20.146	3.283	0.304
80.000	118.975	80.001	19.994	100.837	20.142	3.524	0.357
82.000	119.670	79.999	19.996	100.846	20.145	3.338	0.338
84.000	120.409	80.000	19.995	100.848	20.144	3.396	0.355
86.000	121.119	80.000	19.996	100.844	20.143	3.474	0.354
88.000	121.864	79.999	19.995	100.848	20.143	3.463	0.369
90.000	122.585	80.000	19.995	100.847	20.143	3.451	0.377
92.000	123.346	80.001	19.995	100.846	20.143	3.462	0.370
94.000	124.114	80.000	19.996	100.848	20.142	3.538	0.409
96.000	124.893	80.001	19.996	100.849	20.143	3.483	0.402
98.000	125.696	80.001	19.997	100.847	20.143	3.446	0.432
100.000	126.483	80.001	19.995	100.846	20.141	3.566	0.386
102.000	127.296	80.000	19.995	100.850	20.139	3.688	0.374
104.000	128.148	80.000	19.996	100.853	20.141	3.559	0.433
106.000	128.981	80.001	19.996	100.847	20.143	3.454	0.407
108.000	129.829	80.001	19.997	100.847	20.140	3.654	0.409
110.000	130.649	80.000	19.997	100.849	20.137	3.874	0.419
112.000	131.503	79.999	19.997	100.854	20.144	3.384	0.440
114.000	132.387	79.999	19.997	100.847	20.140	3.647	0.439
116.000	133.244	79.999	19.996	100.847	20.141	3.614	0.414
118.001	134.184	80.000	19.996	100.842	20.142	3.546	0.440
120.000	135.055	80.000	19.998	100.841	20.142	3.500	0.436
122.000	135.943	80.001	19.997	100.846	20.141	3.607	0.450
124.000	136.792	80.002	19.997	100.840	20.143	3.430	0.439
126.001	137.749	80.003	19.996	100.844	20.143	3.430	0.485
128.000	138.697	80.002	19.996	100.844	20.142	3.527	0.449
130.000	139.563	80.002	19.995	100.845	20.143	3.462	0.443
132.000	140.513	80.003	19.995	100.845	20.139	3.683	0.443
134.000	141.487	80.000	19.996	100.847	20.141	3.600	0.459
136.000	142.406	80.000	19.996	100.845	20.144	3.393	0.452
138.000	143.349	80.000	19.996	100.848	20.145	3.306	0.500
140.000	144.311	80.000	19.996	100.850	20.146	3.233	0.487
142.000	145.252	80.001	19.996	100.847	20.141	3.570	0.483
144.000	146.234	80.001	19.997	100.846	20.142	3.495	0.493
146.000	147.161	80.001	19.996	100.846	20.143	3.440	0.471
148.000	148.138	80.001	19.997	100.847	20.144	3.389	0.493
150.000	149.075	80.000	19.996	100.846	20.144	3.375	0.468
152.000	150.100	80.001	19.996	100.846	20.145	3.332	0.520
154.000	151.059	80.003	19.996	100.846	20.141	3.564	0.471
156.000	152.069	80.003	19.996	100.846	20.144	3.406	0.503
158.000	153.036	80.003	19.995	100.847	20.144	3.376	0.488
160.000	154.007	80.002	19.996	100.846	20.142	3.534	0.496
162.000	154.962	80.002	19.996	100.845	20.140	3.617	0.506
164.000	155.935	80.001	19.996	100.842	20.143	3.468	0.488
166.001	156.897	80.001	19.995	100.842	20.142	3.516	0.458
168.000	157.929	80.001	19.996	100.835	20.141	3.557	0.506
170.000	158.900	80.001	19.995	100.839	20.139	3.728	0.479
172.000	159.853	80.001	19.996	100.837	20.140	3.631	0.481
174.000	160.821	79.999	19.996	100.835	20.143	3.445	0.496
176.000	161.844	79.999	19.997	100.834	20.145	3.358	0.481
178.000	162.872	80.000	19.996	100.836	20.142	3.533	0.506
180.000	163.827	79.999	19.997	100.832	20.144	3.365	0.502
182.000	164.846	80.000	19.996	100.823	20.145	3.296	0.515
184.000	165.833	80.000	19.995	100.831	20.145	3.301	0.480
186.000	166.815	80.001	19.995	100.823	20.142	3.514	0.529
188.000	167.834	80.002	19.996	100.821	20.141	3.615	0.500
190.000	168.818	80.002	19.995	100.819	20.145	3.321	0.484
192.000	169.775	80.001	19.996	100.818	20.144	3.370	0.488
194.000	170.765	80.000	19.996	100.821	20.145	3.303	0.488
196.000	171.797	80.001	19.997	100.816	20.141	3.604	0.495
198.000	172.759	79.999	19.996	100.816	20.146	3.291	0.480
200.000	173.765	80.000	19.996	100.823	20.144	3.372	0.451
202.000	174.771	80.001	19.995	100.818	20.147	3.204	0.512
204.000	175.720	80.001	19.995	100.814	20.146	3.292	0.494
206.000	176.780	80.002	19.996	100.817	20.146	3.237	0.533
208.000	177.764	80.000	19.995	100.821	20.145	3.299	0.507
210.000	178.695	80.002	19.997	100.822	20.149	3.059	0.492
212.000	179.702	80.001	19.995	100.820	20.148	3.158	0.480
214.000	180.710	80.002	19.996	100.811	20.147	3.206	0.508
216.000	181.725	80.001	19.995	100.811	20.143	3.474	0.507
218.000	182.691	80.002	19.996	100.810	20.142	3.542	0.491
220.000	183.677	80.002	19.996	100.810	20.144	3.389	0.477
222.000	184.729	80.000	19.997	100.814	20.142	3.545	0.533
224.000	185.710	80.000	19.996	100.811	20.142	3.526	0.511
226.000	186.745	80.001	19.997	100.809	20.140	3.656	0.512
228.000	187.728	80.000	19.995	100.809	20.142	3.545	0.493
230.000	188.734	80.002	19.996	100.807	20.136	3.908	0.481
232.000	189.698	80.002	19.997	100.806	20.136	3.886	0.484
234.000	190.703	80.003	19.996	100.805	20.137	3.837	0.469
236.000	191.652	80.003	19.995	100.804	20.140	3.623	0.477
238.000	192.678	80.003	19.997	100.804	20.138	3.803	0.509
240.000	193.692	80.002	19.997	100.804	20.139	3.706	0.509
242.000	194.649	80.002	19.996	100.804	20.137	3.854	0.468
244.000	195.690	80.000	19.996	100.801	20.137	3.851	0.512
246.000	196.649	80.000	19.998	100.801	20.139	3.715	0.510
248.000	197.663	80.000	19.997	100.799	20.136	3.918	0.524
250.000	198.673	79.998	19.996	100.800	20.139	3.709	0.543
252.000	199.643	80.001	19.996	100.802	20.137	3.847	0.520
254.000	200.634	80.002	19.997	100.803	20.138	3.760	0.494
256.000	201.600	80.000	19.996	100.798	20.136	3.925	0.480
258.000	202.642	79.999	19.994	100.795	20.135	3.971	0.509
260.000	203.629	80.002	19.996	100.786	20.137	3.840	0.507
262.000	204.587	80.001	19.995	100.785	20.134	4.001	0.463
264.000	205.605	80.000	19.996	100.795	20.135	3.946	0.479
266.000	206.580	80.000	19.996	100.786	20.137	3.849	0.499
268.000	207.608	80.000	19.995	100.784	20.135	3.967	0.520
270.000	208.590	80.000	19.996	100.789	20.133	4.100	0.500
272.000	209.564	80.000	19.998	100.781	20.131	4.206	0.503
274.000	210.541	80.000	19.996	100.793	20.132	4.169	0.476
276.000	211.539	80.000	19.994	100.789	20.131	4.239	0.488
278.000	212.536	79.999	19.996	100.779	20.129	4.351	0.481
280.000	213.532	79.998	19.996	100.779	20.127	4.480	0.518
282.000	214.491	80.000	19.995	100.792	20.128	4.430	0.469
284.000	215.489	79.999	19.995	100.788	20.125	4.643	0.486
286.000	216.451	80.001	19.996	100.782	20.127	4.498	0.490
288.000	217.435	80.001	19.995	100.789	20.127	4.494	0.485
290.000	218.403	80.001	19.994	100.790	20.125	4.630	0.475
292.000	219.415	80.003	19.995	100.788	20.124	4.661	0.510
294.000	220.356	80.002	19.996	100.780	20.120	4.918	0.480
296.000	221.368	80.002	19.997	100.789	20.119	5.001	0.503
298.000	222.342	80.002	19.996	100.788	20.120	4.943	0.485
300.000	223.359	80.002	19.996	100.790	20.121	4.899	0.495
302.000	224.326	80.003	19.997	100.778	20.118	5.042	0.461
304.000	225.334	80.000	19.995	100.773	20.114	5.289	0.525
306.000	226.371	80.000	19.996	100.783	20.112	5.421	0.527
308.000	227.304	80.001	19.996	100.775	20.114	5.330	0.451
310.000	228.303	80.002	19.996	100.769	20.116	5.217	0.488
312.000	229.307	80.003	19.996	100.780	20.112	5.451	0.528
314.000	230.302	80.003	19.995	100.774	20.113	5.366	0.491
316.000	231.321	80.002	19.995	100.774	20.111	5.507	0.512
318.000	232.297	80.003	19.995	100.777	20.110	5.579	0.510
320.000	233.282	80.001	19.995	100.766	20.105	5.923	0.489
322.000	234.302	80.003	19.996	100.780	20.103	6.003	0.497
324.000	235.284	80.002	19.995	100.775	20.103	6.037	0.483
326.000	236.254	80.001	19.997	100.781	20.100	6.240	0.505
328.000	237.295	80.000	19.996	100.771	20.098	6.356	0.539
330.000	238.295	80.000	19.997	100.776	20.097	6.442	0.544
332.000	239.288	80.000	19.995	100.779	20.095	6.546	0.488
334.000	240.233	79.998	19.996	100.787	20.096	6.474	0.483
336.000	241.241	79.999	19.997	100.788	20.090	6.857	0.517
338.000	242.265	79.999	19.996	100.776	20.088	6.976	0.512
340.000	243.259	80.000	19.997	100.772	20.090	6.830	0.519
342.000	244.219	80.002	19.997	100.785	20.085	7.202	0.499
344.000	245.224	80.001	19.996	100.775	20.082	7.399	0.473
346.000	246.204	79.999	19.994	100.778	20.082	7.377	0.509
348.000	247.210	80.001	19.995	100.793	20.081	7.433	0.487
350.000	248.202	79.999	19.996	100.779	20.076	7.726	0.460
352.000	249.246	80.000	19.996	100.778	20.076	7.779	0.521
354.000	250.279	80.000	19.996	100.785	20.070	8.167	0.531
356.000	251.262	79.998	19.996	100.790	20.066	8.384	0.498
358.000	252.237	80.000	19.996	100.772	20.062	8.637	0.472
360.000	253.251	80.000	19.995	100.771	20.061	8.744	0.463
362.000	254.276	79.999	19.996	100.707	20.058	8.917	0.501
364.000	255.306	80.000	19.995	100.836	20.057	8.980	0.497
366.000	256.268	80.001	19.996	100.777	20.054	9.162	0.474
368.000	257.247	80.000	19.996	100.768	20.050	9.422	0.473
370.000	258.281	80.002	19.996	100.778	20.047	9.635	0.475
372.000	259.310	80.002	19.995	100.774	20.045	9.747	0.524
374.000	260.318	80.005	19.996	100.769	20.039	10.130	0.505
376.000	261.313	80.004	19.995	100.767	20.037	10.300	0.499
378.000	262.296	80.001	19.994	100.770	20.032	10.618	0.539
380.000	263.297	80.005	19.995	100.773	20.029	10.803	0.499
382.000	264.286	80.001	19.994	100.776	20.023	11.173	0.514
384.000	265.352	80.003	19.996	100.773	20.020	11.376	0.535
386.000	266.264	80.002	19.997	100.775	20.015	11.665	0.478
388.000	267.274	80.002	19.994	100.778	20.012	11.877	0.493
390.000	268.282	80.001	19.997	100.777	20.006	12.248	0.502
392.000	269.268	80.002	19.996	100.787	20.006	12.293	0.484
394.000	270.269	80.002	19.994	100.770	19.999	12.727	0.501
396.000	271.317	80.002	19.996	100.772	19.994	13.031	0.500
398.000	272.340	80.003	19.996	100.776	19.985	13.637	0.513
400.001	273.335	80.004	19.997	100.779	19.983	13.732	0.515
402.000	274.318	80.002	19.996	100.782	19.980	13.958	0.489
404.000	275.326	80.000	19.995	100.773	19.975	14.245	0.501
406.000	276.333	80.002	19.995	100.788	19.968	14.704	0.490
408.000	277.307	80.000	19.995	100.773	19.963	15.024	0.488
410.000	278.307	80.001	19.996	100.785	19.958	15.364	0.474
412.000	279.289	80.000	19.996	100.787	19.950	15.849	0.474
414.000	280.304	79.999	19.997	100.800	19.944	16.257	0.506
416.000	281.324	80.000	19.996	100.789	19.937	16.721	0.525
418.000	282.286	80.001	19.997	100.776	19.936	16.773	0.480
420.000	283.297	80.000	19.997	100.791	19.925	17.484	0.485
422.000	284.303	80.002	19.997	100.795	19.925	17.503	0.496
424.000	285.280	80.001	19.997	100.799	19.919	17.884	0.502
426.000	286.261	80.001	19.997	100.799	19.913	18.274	0.487
428.000	287.270	80.002	19.999	100.795	19.903	18.897	0.518
430.000	288.243	80.002	19.996	100.801	19.893	19.543	0.528
432.000	289.232	80.003	19.998	100.795	19.889	19.776	0.505
434.000	290.231	80.003	19.998	100.801	19.880	20.395	0.514
436.000	291.261	80.002	19.997	100.797	19.877	20.584	0.486
438.000	292.267	79.999	19.996	100.803	19.867	21.197	0.493
440.000	293.283	80.000	19.995	100.805	19.861	21.597	0.513
442.000	294.250	79.999	19.996	100.800	19.852	22.146	0.511
444.000	295.231	80.000	19.995	100.801	19.843	22.719	0.482
446.000	296.252	79.998	19.996	100.803	19.837	23.113	0.498
448.000	297.251	80.002	19.996	100.802	19.830	23.557	0.497
450.000	298.257	80.002	19.995	100.792	19.824	23.942	0.483
452.000	299.252	80.001	19.995	100.804	19.815	24.529	0.488
454.000	300.247	80.003	19.996	100.805	19.804	25.279	0.495
456.000	301.250	80.003	19.996	100.807	19.800	25.520	0.513
458.000	302.236	80.002	19.995	100.808	19.793	25.957	0.486
460.000	303.244	80.002	19.996	100.811	19.786	26.406	0.502
462.000	304.204	80.001	19.995	100.812	19.777	27.000	0.472
464.000	305.224	80.001	19.996	100.811	19.774	27.163	0.510
466.000	306.229	80.000	19.996	100.818	19.764	27.814	0.484
468.000	307.245	80.001	19.995	100.812	19.755	28.399	0.508
470.000	308.247	80.003	19.996	100.814	19.746	28.996	0.496
472.000	309.237	80.002	19.997	100.815	19.737	29.586	0.503
474.000	310.200	80.000	19.995	100.813	19.734	29.787	0.506
476.000	311.259	80.004	19.995	100.817	19.725	30.365	0.487
478.000	312.272	80.003	19.995	100.813	19.716	30.940	0.522
480.000	313.294	80.004	19.996	100.814	19.707	31.475	0.533
482.000	314.281	80.002	19.995	100.813	19.697	32.162	0.484
484.000	315.307	80.002	19.995	100.827	19.692	32.496	0.486
486.000	316.289	80.003	19.995	100.831	19.679	33.329	0.522
488.000	317.260	80.001	19.996	100.822	19.669	33.961	0.505
490.000	318.286	80.001	19.997	100.834	19.662	34.392	0.512
492.000	319.307	80.001	19.998	100.836	19.654	34.918	0.474
494.000	320.316	80.002	19.996	100.838	19.641	35.750	0.522
496.000	321.310	79.998	19.996	100.836	19.634	36.233	0.523
498.000	322.311	80.001	19.997	100.844	19.625	36.814	0.503
500.000	323.308	80.001	19.995	100.845	19.613	37.531	0.525
502.000	324.268	80.002	19.996	100.841	19.604	38.129	0.491
504.000	325.348	80.004	19.996	100.844	19.590	39.069	0.544
506.000	326.370	80.000	19.997	100.846	19.582	39.552	0.527
508.000	327.341	80.002	19.996	100.845	19.567	40.545	0.500
510.000	328.373	80.000	19.996	100.847	19.562	40.842	0.551
512.000	329.383	80.001	19.996	100.846	19.548	41.732	0.514
514.000	330.414	80.001	19.997	100.846	19.532	42.803	0.491
516.000	331.435	80.000	19.997	100.848	19.518	43.666	0.510
518.000	332.428	79.999	19.996	100.847	19.503	44.649	0.438
520.000	333.533	79.998	19.997	100.853	19.492	45.350	0.535
522.000	334.597	80.000	19.997	100.855	19.478	46.279	0.296
524.000	335.662	79.998	19.998	100.853	19.461	47.346	0.215
526.000	336.573	79.999	19.996	100.875	19.448	48.199	0.498
528.000	337.530	79.999	19.996	100.870	19.430	49.350	0.476
530.000	338.584	79.997	19.996	100.879	19.415	50.311	0.464
532.000	339.576	79.999	19.995	100.880	19.400	51.290	0.510
534.000	340.616	80.002	19.996	100.886	19.385	52.286	0.468
536.000	341.672	80.002	19.997	100.887	19.368	53.354	0.547
538.000	342.643	80.003	19.995	100.888	19.350	54.515	0.498
540.000	343.655	80.002	19.994	100.892	19.334	55.529	0.512
542.000	344.674	80.003	19.995	100.893	19.314	56.842	0.542
544.000	345.678	79.999	19.994	100.898	19.297	57.950	0.517
546.000	346.698	80.003	19.996	100.893	19.279	59.106	0.501
548.000	347.729	80.003	19.996	100.894	19.261	60.271	0.479
550.000	348.781	80.000	19.996	100.901	19.240	61.577	0.505
552.000	349.783	80.001	19.996	100.905	19.223	62.674	0.509
554.000	350.842	80.002	19.995	100.903	19.208	63.633	0.529
556.000	351.831	80.002	19.995	100.897	19.189	64.869	0.500
558.000	352.846	80.003	19.997	100.901	19.175	65.750	0.506
560.000	353.911	80.006	19.997	100.910	19.158	66.890	0.523
562.000	354.893	80.003	19.995	100.905	19.141	67.934	0.520
564.000	355.855	80.004	19.995	100.893	19.133	68.457	0.464
566.000	356.877	80.005	19.994	100.889	19.124	69.012	0.479
568.000	357.911	80.005	19.995	100.885	19.117	69.451	0.537
570.000	358.889	80.004	19.995	100.886	19.111	69.843	0.494
572.000	359.917	80.002	19.994	100.885	19.107	70.140	0.532
574.000	360.872	80.003	19.995	100.882	19.108	70.001	0.489
576.000	361.894	80.003	19.994	100.873	19.110	69.927	0.498
578.000	362.894	80.002	19.996	100.850	19.117	69.410	0.527
580.000	363.910	80.001	19.997	100.848	19.127	68.798	0.510
582.000	364.909	80.001	19.995	100.844	19.138	68.088	0.513
584.000	365.926	80.001	19.996	100.828	19.150	67.282	0.525
586.000	366.920	80.001	19.996	100.809	19.171	65.965	0.482
588.000	367.922	80.004	19.997	100.810	19.190	64.692	0.489
590.000	368.900	80.000	19.996	100.789	19.215	63.097	0.482
592.000	369.915	80.004	19.996	100.777	19.239	61.521	0.498
594.001	370.941	80.001	19.996	100.769	19.267	59.730	0.519
596.000	371.975	80.000	19.996	100.769	19.291	58.215	0.499
598.000	373.014	80.003	19.995	100.766	19.322	56.223	0.512
600.000	374.056	80.002	19.997	100.739	19.347	54.559	0.518
602.000	375.090	80.000	19.996	100.730	19.372	53.001	0.517
604.000	376.115	79.998	19.996	100.718	19.402	51.073	0.504
606.000	377.133	80.002	19.998	100.704	19.429	49.350	0.524
608.000	378.140	80.003	19.998	100.703	19.448	48.071	0.507
610.000	379.159	80.001	19.997	100.694	19.471	46.645	0.525
612.000	380.213	80.001	19.998	100.691	19.492	45.255	0.510
614.000	381.240	80.000	19.997	100.693	19.510	44.138	0.516
616.000	382.293	80.001	19.997	100.694	19.522	43.354	0.534
618.000	383.314	80.002	19.997	100.694	19.534	42.561	0.515
620.000	384.346	80.007	19.997	100.689	19.546	41.773	0.526
622.000	385.350	80.001	19.997	100.686	19.551	41.452	0.512
624.000	386.417	80.002	19.996	100.687	19.562	40.780	0.530
626.000	387.412	80.002	19.995	100.688	19.564	40.648	0.511
628.000	388.461	80.006	19.996	100.689	19.561	40.856	0.524
630.000	389.452	80.004	19.996	100.690	19.566	40.510	0.501
632.001	390.522	80.002	19.995	100.689	19.566	40.542	0.512
634.000	391.536	80.001	19.995	100.689	19.564	40.632	0.506
636.000	392.563	80.001	19.996	100.690	19.559	40.957	0.520
638.000	393.606	80.003	19.996	100.689	19.553	41.388	0.510
640.000	394.663	80.004	19.995	100.690	19.551	41.500	0.524
642.000	395.694	80.003	19.995	100.688	19.554	41.320	0.544
644.000	396.705	80.006	19.996	100.689	19.543	41.990	0.534
646.000	397.682	80.004	19.996	100.689	19.538	42.325	0.523
648.000	398.717	80.005	19.995	100.687	19.533	42.642	0.490
650.000	399.758	80.003	19.995	100.696	19.530	42.803	0.512
652.000	400.775	80.003	19.995	100.689	19.520	43.488	0.534
654.000	401.777	80.001	19.996	100.689	19.514	43.847	0.503
656.000	402.792	80.002	19.996	100.690	19.509	44.211	0.488
658.000	403.837	80.001	19.995	100.692	19.497	44.924	0.522
660.000	404.829	80.001	19.996	100.693	19.494	45.139	0.531
662.000	405.851	80.001	19.995	100.693	19.483	45.826	0.503
664.000	406.853	80.003	19.995	100.692	19.480	46.058	0.492
666.000	407.887	80.002	19.996	100.693	19.469	46.774	0.507
668.000	408.850	80.002	19.996	100.685	19.460	47.296	0.486
670.000	409.878	80.000	19.996	100.683	19.454	47.710	0.522
672.000	410.884	80.001	19.995	100.688	19.444	48.350	0.514
674.000	411.878	80.002	19.996	100.692	19.438	48.713	0.498
676.000	412.895	80.003	19.996	100.688	19.429	49.327	0.501
678.000	413.919	80.001	19.997	100.676	19.419	49.974	0.527
680.000	414.879	80.001	19.996	100.677	19.405	50.833	0.487
682.000	415.857	80.001	19.996	100.673	19.405	50.855	0.479
684.000	416.862	80.000	19.998	100.676	19.395	51.491	0.499
686.000	417.887	80.002	19.996	100.677	19.377	52.667	0.497
688.000	418.819	80.001	19.996	100.683	19.378	52.565	0.487
690.000	419.854	80.002	19.997	100.679	19.364	53.474	0.536
692.000	420.807	80.001	19.996	100.671	19.357	53.921	0.505
694.000	421.836	80.001	19.995	100.674	19.347	54.565	0.508
696.000	422.795	80.002	19.996	100.664	19.339	55.098	0.512
698.000	423.732	80.001	19.997	100.656	19.328	55.815	0.504
700.000	424.677	80.002	19.996	100.663	19.321	56.208	0.484
702.000	425.705	80.003	19.998	100.655	19.308	57.085	0.507
704.000	426.680	80.003	19.996	100.654	19.300	57.598	0.465
706.000	427.664	80.003	19.998	100.675	19.295	57.935	0.529
708.000	428.647	80.003	19.998	100.664	19.282	58.755	0.487
710.000	429.642	80.004	19.998	100.657	19.273	59.311	0.483
712.000	430.636	80.002	19.997	100.664	19.267	59.687	0.506
714.000	431.644	80.000	19.996	100.659	19.255	60.473	0.471
716.000	432.634	80.001	19.998	100.667	19.245	61.116	0.508
718.000	433.643	80.001	19.995	100.651	19.236	61.686	0.503
720.000	434.666	80.003	19.997	100.654	19.225	62.427	0.512
722.000	435.634	80.002	19.996	100.653	19.223	62.555	0.483
724.000	436.664	80.003	19.994	100.655	19.213	63.147	0.540
726.000	437.662	80.004	19.996	100.653	19.208	63.485	0.504
728.000	438.694	80.005	19.996	100.655	19.200	64.005	0.529
730.000	439.691	80.005	19.995	100.652	19.191	64.615	0.517
732.000	440.704	80.004	19.996	100.658	19.182	65.182	0.525
734.000	441.718	80.002	19.995	100.652	19.178	65.436	0.497
736.000	442.711	80.000	19.996	100.651	19.176	65.581	0.510
738.000	443.761	79.999	19.996	100.650	19.170	65.940	0.502
740.000	444.795	80.000	19.996	100.653	19.169	65.995	0.500
742.000	445.818	80.001	19.996	100.654	19.160	66.541	0.501
744.000	446.827	80.001	19.995	100.648	19.164	66.337	0.496
746.000	447.824	80.002	19.995	100.651	19.161	66.481	0.505
748.000	448.847	80.002	19.996	100.649	19.162	66.413	0.487
750.000	449.879	80.002	19.997	100.646	19.164	66.315	0.525
752.000	450.889	80.001	19.994	100.637	19.165	66.270	0.495
754.000	451.928	80.004	19.996	100.643	19.169	66.012	0.529
756.000	452.920	80.000	19.995	100.649	19.169	65.990	0.512
758.000	453.930	80.002	19.994	100.643	19.179	65.320	0.508
760.000	454.957	80.002	19.995	100.643	19.183	65.079	0.495
762.000	455.976	80.001	19.996	100.641	19.192	64.494	0.510
764.000	456.972	80.001	19.997	100.633	19.204	63.737	0.531
766.000	457.950	80.001	19.996	100.637	19.218	62.850	0.507
768.000	458.958	80.000	19.997	100.631	19.231	62.044	0.482
770.000	459.932	79.999	19.996	100.636	19.248	60.906	0.489
772.000	460.937	80.000	19.998	100.641	19.262	60.027	0.476
774.000	461.896	80.000	19.997	100.648	19.286	58.510	0.467
776.000	462.914	80.000	19.995	100.650	19.306	57.189	0.493
778.000	463.923	80.001	19.997	100.649	19.322	56.165	0.492
780.000	464.886	80.001	19.997	100.650	19.341	54.929	0.496
782.000	465.931	80.003	19.995	100.654	19.362	53.599	0.511
784.000	466.949	80.002	19.996	100.649	19.390	51.820	0.494
786.000	467.979	80.003	19.995	100.651	19.411	50.467	0.497
788.000	468.950	80.001	19.997	100.652	19.436	48.886	0.510
790.000	470.018	80.002	19.997	100.654	19.461	47.250	0.506
792.000	470.999	80.002	19.997	100.663	19.485	45.699	0.495
794.000	471.995	80.001	19.997	100.660	19.518	43.629	0.489
796.000	472.999	80.001	19.997	100.671	19.549	41.608	0.500
798.000	473.986	80.000	19.997	100.681	19.576	39.878	0.506
800.000	475.077	80.002	19.997	100.664	19.598	38.493	0.522
802.000	476.042	80.001	19.997	100.656	19.624	36.774	0.507
804.000	477.025	80.002	19.996	100.676	19.651	35.072	0.503
806.000	478.040	80.003	19.995	100.684	19.675	33.507	0.507
808.000	479.052	80.004	19.996	100.671	19.698	32.035	0.507
810.000	480.086	80.003	19.995	100.681	19.728	30.121	0.487
812.000	481.128	80.004	19.996	100.687	19.751	28.640	0.537
814.000	482.116	80.002	19.995	100.677	19.776	27.056	0.480
816.000	483.171	80.002	19.996	100.671	19.800	25.476	0.492
818.000	484.173	80.001	19.995	100.687	19.819	24.249	0.517
820.000	485.209	80.001	19.996	100.689	19.841	22.859	0.518
822.000	486.241	80.001	19.995	100.687	19.865	21.311	0.527
824.001	487.297	80.001	19.997	100.687	19.881	20.288	0.533
826.000	488.292	80.001	19.995	100.689	19.902	18.961	0.506
828.000	489.343	80.001	19.996	100.687	19.916	18.003	0.524
830.000	490.406	80.001	19.996	100.688	19.936	16.757	0.542
832.000	491.467	80.001	19.996	100.688	19.953	15.671	0.530
834.000	492.487	79.999	19.996	100.690	19.962	15.056	0.530
836.000	493.567	80.001	19.997	100.689	19.983	13.746	0.520
838.000	494.631	80.001	19.997	100.687	19.988	13.433	0.523
840.000	495.686	80.001	19.997	100.686	20.005	12.349	0.523
842.000	496.750	80.003	19.996	100.688	20.016	11.639	0.521
844.000	497.782	80.000	19.995	100.689	20.027	10.907	0.527
846.000	498.820	80.002	19.996	100.690	20.035	10.399	0.524
848.000	499.883	80.001	19.995	100.691	20.044	9.790	0.534
850.000	500.870	80.001	19.997	100.698	20.052	9.270	0.511
852.000	501.917	80.001	19.996	100.705	20.066	8.413	0.481
854.000	502.943	80.001	19.996	100.704	20.071	8.069	0.498
856.000	503.955	80.002	19.996	100.703	20.079	7.583	0.528
858.000	504.983	80.002	19.996	100.711	20.081	7.415	0.492
860.000	505.979	80.003	19.996	100.693	20.088	7.016	0.484
862.000	506.997	80.001	19.997	100.697	20.097	6.402	0.530
864.000	507.995	80.003	19.996	100.696	20.098	6.355	0.497
866.000	508.975	80.003	19.995	100.698	20.100	6.220	0.509
868.000	509.949	80.001	19.996	100.696	20.105	5.865	0.494
870.000	510.954	80.004	19.996	100.699	20.110	5.571	0.502
872.000	511.929	80.003	19.995	100.716	20.115	5.252	0.481
874.000	512.926	80.001	19.995	100.709	20.122	4.787	0.539
876.000	513.943	80.003	19.997	100.696	20.123	4.739	0.524
878.000	514.972	80.002	19.996	100.697	20.122	4.785	0.532
880.000	516.012	80.001	19.995	100.695	20.127	4.453	0.492
882.000	517.056	80.002	19.996	100.690	20.131	4.229	0.507
884.000	518.055	80.003	19.997	100.702	20.136	3.886	0.498
886.000	519.100	80.003	19.995	100.689	20.136	3.895	0.504
888.000	520.171	80.004	19.996	100.687	20.139	3.738	0.513
890.000	521.215	80.003	19.996	100.688	20.140	3.624	0.504
892.000	522.251	80.003	19.997	100.708	20.142	3.490	0.534
894.000	523.267	80.004	19.997	100.700	20.142	3.499	0.493
896.000	524.345	80.002	19.996	100.692	20.148	3.130	0.507
898.000	525.399	80.003	19.996	100.705	20.149	3.039	0.515
900.000	526.450	80.001	19.995	100.692	20.144	3.361	0.517
902.000	527.529	80.003	19.996	100.701	20.149	3.069	0.537
904.000	528.591	80.002	19.996	100.700	20.149	3.040	0.557
906.000	529.626	80.001	19.996	100.695	20.150	2.971	0.515
908.000	530.706	80.001	19.996	100.702	20.151	2.953	0.546
910.000	531.737	80.002	19.997	100.691	20.152	2.889	0.539
912.000	532.790	80.002	19.995	100.690	20.152	2.870	0.535
914.000	533.845	80.001	19.995	100.700	20.155	2.683	0.526
916.000	534.927	80.003	19.996	100.701	20.156	2.629	0.556
918.000	535.994	80.002	19.996	100.718	20.155	2.683	0.542
920.000	537.040	80.004	19.996	100.706	20.158	2.517	0.526
922.000	538.117	80.001	19.996	100.701	20.157	2.531	0.553
924.000	539.144	80.003	19.995	100.703	20.156	2.591	0.521
926.000	540.219	80.001	19.996	100.699	20.159	2.435	0.537
928.000	541.287	80.002	19.997	100.695	20.155	2.693	0.529
930.000	542.359	80.001	19.995	100.703	20.155	2.658	0.512
932.000	543.386	80.000	19.996	100.704	20.155	2.661	0.524
934.001	544.428	80.000	19.995	100.717	20.160	2.340	0.531
936.000	545.450	80.001	19.995	100.709	20.161	2.269	0.518
938.000	546.470	80.001	19.996	100.694	20.161	2.304	0.498
940.000	547.534	80.002	19.995	100.701	20.158	2.502	0.500
942.001	548.558	80.004	19.997	100.700	20.160	2.368	0.502
944.000	549.591	80.004	19.996	100.698	20.165	2.043	0.507
946.000	550.688	80.003	19.996	100.694	20.160	2.348	0.536
948.001	551.705	80.004	19.996	100.701	20.161	2.269	0.515
950.000	552.745	80.003	19.996	100.695	20.159	2.421	0.522
952.000	553.757	80.002	19.997	100.697	20.160	2.338	0.515
954.000	554.807	80.003	19.996	100.697	20.164	2.075	0.524
956.000	555.855	80.002	19.997	100.691	20.159	2.431	0.534
958.000	556.860	80.004	19.997	100.692	20.161	2.273	0.522
960.000	557.902	80.002	19.996	100.690	20.166	1.944	0.521
962.000	558.923	80.002	19.996	100.693	20.161	2.324	0.544
964.000	559.893	80.003	19.998	100.694	20.160	2.340	0.503
966.000	560.935	80.003	19.996	100.697	20.167	1.884	0.518
968.000	561.944	80.004	19.998	100.696	20.164	2.119	0.531
970.000	562.951	80.003	19.996	100.697	20.158	2.463	0.505
972.000	563.953	80.005	19.996	100.691	20.164	2.106	0.488
974.000	564.998	80.004	19.995	100.695	20.165	2.011	0.535
976.000	566.033	80.005	19.996	100.691	20.165	2.037	0.524
978.000	566.944	80.001	19.995	100.687	20.165	2.009	0.540
980.000	568.003	80.003	19.997	100.688	20.164	2.087	0.493
982.000	569.026	80.000	19.996	100.691	20.166	1.972	0.475
984.000	570.024	80.000	19.997	100.691	20.162	2.253	0.470
986.000	571.029	80.000	19.996	100.693	20.168	1.820	0.500
988.000	572.047	80.000	19.996	100.692	20.168	1.870	0.498
990.000	573.080	80.002	19.997	100.690	20.164	2.101	0.528
992.000	574.095	80.001	19.997	100.700	20.164	2.075	0.506
994.000	575.128	80.000	19.996	100.698	20.162	2.209	0.509
996.000	576.078	80.003	19.997	100.696	20.168	1.875	0.467
998.000	577.130	80.002	19.996	100.699	20.167	1.923	0.489
1000.000	578.119	80.001	19.996	100.693	20.170	1.696	0.499
1002.001	579.084	80.000	19.996	100.694	20.173	1.551	0.481
1004.000	580.087	80.002	19.996	100.694	20.173	1.506	0.495
1006.000	581.081	80.003	19.996	100.693	20.171	1.635	0.508
1008.000	582.075	80.001	19.996	100.700	20.167	1.889	0.524
1010.000	583.085	80.001	19.997	100.694	20.170	1.728	0.498
1012.000	584.088	80.001	19.997	100.690	20.169	1.811	0.519
1014.000	585.069	80.001	19.998	100.690	20.169	1.787	0.504
1016.000	586.068	80.000	19.996	100.700	20.170	1.744	0.514
1018.000	587.059	80.003	19.998	100.691	20.166	2.002	0.510
1020.000	588.042	80.001	19.996	100.695	20.171	1.640	0.485
1022.000	589.019	80.002	19.996	100.695	20.170	1.695	0.508
1024.000	589.985	80.003	19.997	100.699	20.170	1.686	0.472
1026.001	591.002	80.003	19.996	100.690	20.171	1.661	0.477
1028.000	591.964	80.003	19.996	100.690	20.168	1.866	0.490
1030.001	592.960	80.003	19.997	100.691	20.166	1.951	0.478
1032.001	593.954	80.004	19.996	100.690	20.168	1.854	0.488
1034.000	594.959	80.004	19.996	100.691	20.168	1.875	0.528
1036.000	595.889	80.004	19.996	100.683	20.172	1.604	0.487
1038.000	596.915	80.003	19.995	100.687	20.170	1.730	0.488
1040.000	597.890	80.004	19.997	100.687	20.169	1.749	0.525
1042.000	598.876	80.003	19.996	100.691	20.171	1.672	0.464
1044.001	599.832	80.002	19.996	100.696	20.170	1.687	0.497
1046.000	600.839	80.004	19.996	100.694	20.168	1.827	0.486
1048.000	601.826	80.004	19.997	100.694	20.174	1.475	0.516
1050.000	602.809	80.003	19.997	100.691	20.172	1.611	0.460
1052.000	603.782	80.003	19.996	100.691	20.173	1.548	0.469
1054.001	604.774	80.005	19.995	100.690	20.167	1.930	0.513
1056.000	605.794	80.005	19.997	100.689	20.176	1.301	0.505
1058.000	606.761	80.003	19.995	100.688	20.173	1.507	0.465
1060.000	607.757	80.002	19.995	100.688	20.173	1.539	0.497
1062.000	608.741	80.000	19.995	100.688	20.171	1.661	0.516
1064.000	609.748	80.001	19.995	100.689	20.170	1.746	0.492
1066.001	610.745	80.000	19.996	100.696	20.169	1.785	0.502
1068.000	611.755	80.000	19.996	100.701	20.169	1.809	0.535
1070.000	612.753	80.001	19.997	100.695	20.169	1.749	0.517
1072.000	613.784	80.000	19.998	100.707	20.174	1.458	0.544
1074.000	614.795	79.999	19.997	100.692	20.171	1.654	0.496
1076.000	615.831	80.002	19.997	100.694	20.177	1.260	0.533
1078.001	616.873	80.001	19.997	100.692	20.171	1.666	0.508
1080.000	617.870	80.001	19.998	100.690	20.174	1.461	0.510
1082.000	618.918	80.001	19.997	100.696	20.173	1.495	0.530
1084.001	619.974	80.001	19.997	100.694	20.171	1.634	0.506
1086.001	621.012	80.002	19.996	100.687	20.176	1.316	0.495
1088.000	622.025	80.002	19.996	100.689	20.177	1.244	0.550
1090.001	623.045	80.002	19.997	100.688	20.173	1.502	0.518
1092.000	624.073	80.001	19.996	100.690	20.176	1.347	0.541
1094.000	625.064	80.000	19.994	100.691	20.179	1.170	0.496
1096.001	626.110	80.002	19.996	100.689	20.179	1.168	0.522
1098.000	627.151	80.000	19.997	100.690	20.173	1.545	0.520
1100.001	628.229	80.002	19.997	100.689	20.175	1.368	0.543
1102.001	629.317	80.002	19.997	100.700	20.173	1.537	0.543
1104.000	630.417	80.002	19.996	100.699	20.173	1.506	0.554
1106.000	631.476	80.001	19.997	100.693	20.173	1.543	0.514
1108.000	632.619	80.004	19.996	100.705	20.170	1.726	0.581
1110.000	633.732	80.004	19.996	100.699	20.174	1.440	0.529
1112.001	634.797	80.003	19.995	100.694	20.175	1.373	0.546
1114.000	636.017	80.004	19.996	100.702	20.173	1.555	0.579
1116.000	637.067	80.002	19.995	100.694	20.172	1.590	0.527
1118.000	638.247	80.003	19.995	100.692	20.175	1.392	0.573
1120.001	639.338	80.002	19.997	100.691	20.177	1.255	0.572
1122.001	640.437	80.003	19.996	100.694	20.174	1.428	0.549
1124.000	641.598	80.003	19.996	100.697	20.177	1.285	0.572
1126.000	642.725	80.002	19.996	100.694	20.176	1.348	0.560
1128.001	643.853	80.003	19.996	100.692	20.173	1.555	0.562
1130.000	644.946	80.003	19.996	100.693	20.178	1.203	0.546
1132.000	646.079	80.003	19.996	100.693	20.175	1.399	0.542
1134.000	647.178	80.002	19.995	100.698	20.178	1.180	0.551
1136.001	648.256	80.003	19.996	100.694	20.178	1.202	0.535
1138.000	649.395	80.004	19.996	100.691	20.177	1.244	0.559
1140.001	650.529	80.003	19.996	100.694	20.182	0.921	0.541
1142.000	651.655	80.002	19.995	100.689	20.177	1.240	0.560
1144.000	652.792	80.001	19.995	100.687	20.173	1.526	0.551
1146.000	653.873	80.002	19.997	100.688	20.179	1.147	0.529
1148.001	655.022	80.002	19.996	100.688	20.178	1.230	0.585
1150.000	656.114	80.001	19.996	100.686	20.176	1.329	0.553
1152.000	657.225	80.000	19.996	100.688	20.179	1.110	0.521
1154.000	658.318	80.001	19.996	100.678	20.177	1.285	0.561
1156.000	659.386	80.001	19.996	100.689	20.176	1.323	0.513
1158.000	660.425	80.002	19.997	100.692	20.174	1.433	0.524
1160.000	661.471	80.001	19.996	100.689	20.181	1.037	0.462
1162.000	662.521	80.003	19.996	100.685	20.180	1.074	0.509
1164.000	663.635	80.002	19.996	100.685	20.179	1.115	0.556
1166.000	664.652	80.002	19.997	100.688	20.178	1.219	0.509
1168.000	665.708	80.001	19.997	100.681	20.176	1.327	0.532
1170.001	666.723	80.001	19.996	100.676	20.178	1.232	0.504
1172.000	667.765	80.001	19.995	100.682	20.179	1.156	0.513
1174.000	668.794	80.001	19.997	100.677	20.177	1.267	0.533
1176.000	669.874	80.000	19.997	100.681	20.178	1.189	0.538
1178.000	670.874	80.000	19.997	100.684	20.182	0.936	0.538
1180.000	671.888	80.001	19.995	100.687	20.175	1.369	0.515
1182.001	672.914	80.001	19.994	100.689	20.181	0.991	0.501
1184.000	673.908	80.001	19.995	100.691	20.184	0.841	0.499
1186.001	674.978	80.003	19.997	100.690	20.179	1.152	0.506
1188.001	676.049	80.000	19.995	100.687	20.181	1.011	0.534
1190.000	677.062	80.002	19.994	100.687	20.176	1.338	0.524
1192.000	678.047	80.003	19.995	100.688	20.187	0.656	0.500
1194.000	679.117	80.003	19.995	100.686	20.179	1.120	0.520
1196.001	680.144	80.001	19.994	100.687	20.181	0.986	0.521
1198.000	681.157	80.001	19.995	100.693	20.174	1.458	0.532
1200.000	682.152	80.002	19.997	100.694	20.175	1.369	0.498
1202.000	683.147	80.002	19.995	100.689	20.179	1.147	0.534
1204.000	684.159	80.001	19.994	100.689	20.179	1.170	0.510
1206.000	685.184	80.003	19.995	100.685	20.182	0.929	0.507
1208.000	686.191	80.002	19.995	100.684	20.182	0.967	0.497
1210.000	687.195	80.003	19.996	100.685	20.180	1.087	0.512
1212.000	688.166	80.004	19.996	100.683	20.181	1.009	0.507
1214.000	689.211	80.004	19.993	100.684	20.182	0.924	0.561
1216.000	690.167	80.006	19.995	100.683	20.176	1.300	0.482
1218.000	691.169	80.006	19.994	100.688	20.184	0.800	0.484
1220.000	692.210	80.005	19.996	100.687	20.181	1.014	0.513
1222.000	693.219	80.004	19.995	100.687	20.178	1.196	0.499
1224.001	694.202	80.004	19.997	100.686	20.183	0.869	0.515
1226.000	695.200	80.003	19.997	100.687	20.182	0.933	0.486
1228.000	696.216	80.001	19.997	100.687	20.186	0.680	0.515
1230.000	697.173	80.002	19.997	100.689	20.187	0.652	0.496
1232.000	698.203	80.001	19.997	100.688	20.179	1.141	0.511
1234.000	699.169	80.001	19.996	100.686	20.181	0.991	0.473
1236.001	700.218	80.001	19.996	100.687	20.179	1.133	0.506
1238.001	701.192	80.002	19.995	100.688	20.179	1.157	0.482
1240.001	702.210	80.001	19.996	100.688	20.185	0.724	0.509
1242.000	703.205	80.001	19.996	100.689	20.181	0.990	0.489
1244.001	704.189	80.002	19.996	100.689	20.184	0.811	0.504
1246.000	705.263	80.002	19.996	100.692	20.185	0.783	0.528
1248.001	706.198	80.002	19.995	100.690	20.184	0.827	0.474
1250.000	707.223	80.000	19.996	100.689	20.180	1.050	0.524
1252.000	708.180	80.001	19.997	100.691	20.185	0.732	0.501
1254.000	709.216	80.001	19.996	100.688	20.179	1.108	0.498
1256.000	710.220	80.000	19.997	100.689	20.181	1.014	0.493
1258.000	711.248	80.002	19.996	100.686	20.183	0.891	0.502
1260.000	712.243	80.000	19.997	100.690	20.186	0.682	0.497
1262.000	713.278	80.000	19.996	100.690	20.182	0.972	0.516
1264.000	714.277	80.001	19.997	100.684	20.186	0.694	0.502
1266.000	715.267	80.001	19.997	100.689	20.179	1.164	0.465
1268.000	716.303	80.003	19.997	100.687	20.184	0.813	0.511
1270.000	717.318	80.002	19.996	100.688	20.182	0.926	0.514
1272.000	718.306	80.006	19.995	100.677	20.184	0.837	0.478
1274.001	719.284	80.002	19.995	100.679	20.182	0.963	0.493
1276.001	720.315	80.003	19.995	100.678	20.186	0.710	0.496
1278.001	721.313	80.004	19.995	100.682	20.185	0.767	0.509
1280.000	722.330	80.003	19.995	100.684	20.179	1.111	0.511
1282.001	723.327	80.001	19.995	100.675	20.181	0.982	0.496
1284.000	724.379	80.003	19.996	100.678	20.183	0.860	0.519
1286.000	725.355	80.003	19.996	100.672	20.177	1.288	0.496
1288.000	726.370	80.001	19.995	100.682	20.185	0.767	0.486
1290.000	727.385	80.003	19.995	100.669	20.176	1.346	0.512
1292.000	728.406	80.003	19.996	100.682	20.181	0.995	0.514
1294.001	729.409	80.003	19.995	100.681	20.182	0.935	0.519
1296.000	730.418	80.005	19.996	100.686	20.178	1.217	0.538
1298.000	731.453	80.005	19.996	100.685	20.182	0.956	0.557
1300.000	732.471	80.003	19.995	100.671	20.186	0.719	0.487
1302.000	733.497	80.004	19.994	100.678	20.184	0.843	0.514
1304.000	734.500	80.002	19.995	100.684	20.183	0.864	0.514
1306.000	735.532	80.001	19.995	100.687	20.185	0.724	0.500
1308.000	736.517	80.001	19.994	100.690	20.186	0.693	0.492
1310.000	737.546	80.001	19.996	100.690	20.176	1.314	0.535
1312.000	738.598	80.002	19.996	100.689	20.182	0.949	0.532
1314.000	739.616	80.003	19.996	100.680	20.182	0.965	0.516
1316.000	740.612	80.002	19.997	100.689	20.183	0.885	0.513
1318.001	741.666	80.004	19.996	100.677	20.178	1.196	0.540
1320.000	742.621	79.999	19.997	100.677	20.177	1.238	0.505
1322.000	743.598	80.001	19.996	100.672	20.178	1.189	0.496