File: 01_Data/Roof_Felt/MCC/Roof_Felt_MCC_30K_min_210929_R1.txt
Sample ID:	C:\MCC\MCC Cal\Test\Roof_Felt_MCC_30K_min_2109299_R1.txt
Sample Weight (mg):	4.68
Heating Rate (C/s):	0.5
Combustor Temp (C):	900
N2 Flow Rate (cc/min):	80
O2 Flow Rate (cc/min):	20
Calibration File:	C:\MCC\MCC Cal\Coeff1 JN10440_30_210304.txt.txt
T Correction Coefficients:	0	1.024463	0
Time Shift (s):	14
*
Time (s)	Temperature (C)	N2 flow rate (cc/min)	O2 flow rate (cc/min)	Flow Rate (cc/min)	Oxygen (%)	HRR (W/g)	Heating rate (C/s)
0.000	107.701	80.007	19.995	100.636	20.058	0.138	0.002
2.000	107.698	80.011	19.995	100.637	20.056	0.251	0.014
4.000	107.680	79.988	19.996	100.618	20.061	-0.076	-0.021
6.000	107.739	79.998	19.996	100.624	20.058	0.124	0.031
8.001	107.727	80.001	19.996	100.630	20.058	0.136	0.009
10.001	107.687	80.000	19.996	100.633	20.056	0.273	-0.010
12.001	107.659	80.010	19.995	100.637	20.057	0.167	0.002
14.000	107.671	80.005	19.995	100.653	20.056	0.264	-0.024
16.000	107.723	80.005	19.996	100.656	20.056	0.298	0.012
18.000	107.744	79.994	19.998	100.661	20.055	0.326	0.024
20.000	107.763	79.997	19.998	100.663	20.051	0.606	0.003
22.000	107.813	79.996	19.997	100.660	20.050	0.691	0.035
24.000	107.845	80.004	19.995	100.697	20.046	0.959	0.005
26.000	107.915	80.001	19.996	100.737	20.042	1.209	0.055
28.000	108.018	80.007	19.995	100.751	20.039	1.423	0.061
30.000	108.124	80.013	19.994	100.779	20.035	1.656	0.047
32.001	108.244	79.997	19.997	100.803	20.028	2.169	0.061
34.000	108.444	80.014	19.994	100.799	20.027	2.213	0.079
36.000	108.667	80.003	19.995	100.828	20.024	2.423	0.118
38.000	108.925	80.008	19.995	100.836	20.020	2.674	0.131
40.000	109.217	79.987	19.996	100.838	20.021	2.618	0.151
42.000	109.516	80.004	19.995	100.833	20.021	2.607	0.135
44.000	109.866	80.009	19.994	100.825	20.017	2.918	0.195
46.000	110.206	80.015	19.994	100.823	20.015	3.006	0.168
48.000	110.533	80.002	19.996	100.842	20.018	2.835	0.202
50.000	110.932	80.001	19.996	100.850	20.017	2.902	0.222
52.000	111.336	80.003	19.995	100.855	20.015	3.040	0.203
54.000	111.748	80.001	19.995	100.857	20.017	2.860	0.216
56.000	112.216	79.998	19.995	100.860	20.014	3.109	0.219
58.000	112.730	80.011	19.995	100.858	20.014	3.066	0.236
60.000	113.249	80.004	19.994	100.874	20.011	3.277	0.247
62.000	113.798	80.006	19.994	100.858	20.014	3.104	0.282
64.000	114.310	80.005	19.994	100.843	20.015	3.033	0.271
66.000	114.890	80.005	19.995	100.845	20.012	3.224	0.314
68.000	115.424	80.000	19.995	100.858	20.010	3.369	0.292
70.000	116.024	80.006	19.995	100.867	20.011	3.298	0.281
72.000	116.625	80.002	19.996	100.851	20.010	3.337	0.304
74.000	117.236	80.008	19.995	100.865	20.011	3.263	0.290
76.000	117.866	80.009	19.995	100.868	20.011	3.279	0.312
78.000	118.523	80.016	19.995	100.873	20.013	3.150	0.333
80.000	119.199	80.010	19.994	100.876	20.008	3.491	0.331
82.000	119.898	80.004	19.995	100.873	20.011	3.300	0.344
84.000	120.548	80.009	19.995	100.868	20.014	3.110	0.352
86.000	121.226	79.993	19.997	100.865	20.013	3.166	0.339
88.000	121.979	80.014	19.994	100.872	20.009	3.449	0.358
90.000	122.675	80.011	19.994	100.877	20.011	3.272	0.351
92.001	123.379	80.001	19.997	100.883	20.009	3.449	0.359
94.000	124.126	79.997	19.994	100.873	20.009	3.445	0.341
96.000	124.875	79.993	19.996	100.873	20.007	3.589	0.387
98.001	125.666	80.005	19.996	100.878	20.004	3.791	0.382
100.001	126.421	79.999	19.998	100.886	20.006	3.604	0.378
102.000	127.262	80.004	19.995	100.880	20.007	3.568	0.426
104.000	128.083	79.999	19.996	100.881	20.006	3.601	0.429
106.000	128.897	79.996	19.996	100.871	20.006	3.606	0.429
108.000	129.724	80.003	19.996	100.872	20.008	3.477	0.423
110.001	130.502	79.990	19.998	100.881	20.007	3.546	0.392
112.001	131.386	80.001	19.996	100.885	20.009	3.438	0.429
114.000	132.213	80.004	19.995	100.897	20.007	3.529	0.452
116.000	133.067	80.010	19.995	100.900	20.007	3.586	0.439
118.000	133.957	80.008	19.995	100.900	20.008	3.482	0.431
120.001	134.870	80.003	19.994	100.909	20.008	3.525	0.426
122.001	135.702	80.004	19.996	100.899	20.004	3.733	0.414
124.000	136.626	80.003	19.995	100.889	20.009	3.428	0.433
126.000	137.600	80.004	19.994	100.891	20.013	3.158	0.495
128.000	138.499	80.000	19.996	100.901	20.004	3.737	0.449
130.000	139.435	80.009	19.994	100.906	20.006	3.649	0.474
132.000	140.367	80.005	19.995	100.903	20.001	3.957	0.475
134.000	141.334	80.004	19.995	100.887	20.005	3.719	0.483
136.000	142.260	80.004	19.995	100.908	20.001	3.948	0.492
138.000	143.206	80.001	19.997	100.887	19.999	4.104	0.458
140.000	144.153	80.006	19.994	100.892	20.007	3.587	0.479
142.000	145.184	80.007	19.996	100.885	20.007	3.587	0.499
144.000	146.196	80.002	19.995	100.896	20.005	3.724	0.519
146.000	147.121	80.005	19.995	100.888	20.005	3.716	0.454
148.000	148.057	80.009	19.996	100.878	20.006	3.605	0.483
150.000	149.086	80.002	19.995	100.876	20.004	3.769	0.503
152.000	150.082	79.998	19.995	100.880	20.003	3.813	0.502
154.000	151.120	80.013	19.995	100.876	20.004	3.769	0.482
156.000	152.090	80.002	19.994	100.872	20.006	3.645	0.516
158.000	153.099	80.001	19.996	100.878	20.008	3.520	0.472
160.000	154.105	79.996	19.996	100.875	20.005	3.674	0.462
162.000	155.063	80.005	19.996	100.876	20.005	3.722	0.466
164.000	156.104	80.013	19.994	100.877	20.008	3.463	0.517
166.001	157.145	80.014	19.993	100.880	20.013	3.132	0.552
168.000	158.132	80.016	19.993	100.876	20.007	3.581	0.494
170.000	159.128	79.996	19.996	100.878	20.024	2.451	0.503
172.000	160.118	79.998	19.996	100.877	20.013	3.163	0.518
174.000	161.126	80.005	19.994	100.862	20.008	3.467	0.499
176.000	162.173	79.996	19.997	100.866	20.011	3.285	0.428
178.000	163.213	80.001	19.996	100.869	20.005	3.725	0.550
180.000	164.146	80.005	19.997	100.873	20.008	3.519	0.431
182.000	165.187	80.007	19.995	100.863	20.005	3.725	0.523
184.000	166.117	80.002	19.996	100.871	20.012	3.238	0.507
186.000	167.178	80.005	19.996	100.869	20.010	3.332	0.498
188.000	168.157	79.999	19.995	100.873	20.010	3.332	0.507
190.000	169.156	80.008	19.995	100.853	20.014	3.106	0.510
192.000	170.164	80.003	19.996	100.871	20.012	3.244	0.472
194.000	171.194	80.012	19.993	100.861	20.011	3.311	0.487
196.000	172.134	80.007	19.995	100.855	20.010	3.376	0.476
198.000	173.138	79.998	19.996	100.870	20.007	3.557	0.476
200.000	174.176	80.007	19.995	100.866	20.004	3.786	0.522
202.001	175.111	80.003	19.997	100.856	20.007	3.540	0.497
204.000	176.064	79.998	19.997	100.858	20.005	3.717	0.504
206.000	177.215	80.004	19.996	100.834	20.003	3.806	0.464
208.000	178.214	80.005	19.996	100.839	20.004	3.737	0.596
210.000	178.999	80.004	19.997	100.843	20.008	3.526	0.318
212.000	179.977	80.004	19.996	100.837	20.008	3.480	0.510
214.000	180.846	80.001	19.996	100.837	20.004	3.761	0.465
216.000	181.854	80.018	19.993	100.837	20.004	3.757	0.472
218.000	182.854	80.005	19.995	100.845	20.005	3.662	0.466
220.000	183.741	80.004	19.995	100.839	20.003	3.853	0.441
222.000	184.712	80.006	19.995	100.843	20.006	3.613	0.474
224.000	185.732	80.002	19.996	100.843	20.009	3.453	0.533
226.000	186.746	79.998	19.997	100.842	20.003	3.813	0.527
228.000	187.712	80.004	19.995	100.845	20.003	3.828	0.508
230.000	188.635	79.994	19.996	100.835	20.004	3.737	0.466
232.000	189.597	80.012	19.993	100.833	20.005	3.728	0.505
234.000	190.556	80.004	19.995	100.840	20.007	3.533	0.475
236.000	191.584	80.004	19.994	100.836	20.007	3.540	0.525
238.000	192.503	80.011	19.994	100.839	20.005	3.724	0.487
240.000	193.489	80.004	19.995	100.838	20.006	3.637	0.473
242.000	194.426	80.004	19.995	100.835	20.007	3.588	0.470
244.000	195.407	80.017	19.993	100.837	20.003	3.840	0.476
246.000	196.369	80.003	19.996	100.842	20.004	3.764	0.484
248.000	197.340	80.004	19.994	100.836	20.004	3.748	0.537
250.000	198.260	80.006	19.996	100.829	20.000	4.008	0.455
252.000	199.210	80.005	19.995	100.840	20.001	3.937	0.452
254.000	200.159	80.005	19.995	100.837	20.003	3.813	0.479
256.000	201.093	80.002	19.995	100.835	20.002	3.915	0.461
258.002	202.016	80.001	19.996	100.838	20.000	4.030	0.477
260.000	202.976	80.010	19.995	100.839	19.997	4.212	0.458
262.000	203.909	80.006	19.996	100.836	19.999	4.074	0.495
264.000	204.879	80.006	19.994	100.839	19.996	4.274	0.502
266.000	205.804	80.005	19.995	100.837	19.993	4.492	0.472
268.000	206.777	80.004	19.996	100.835	19.994	4.456	0.481
270.000	207.667	80.015	19.995	100.844	19.993	4.509	0.455
272.000	208.667	80.011	19.994	100.838	19.991	4.649	0.500
274.000	209.594	80.004	19.995	100.842	19.992	4.576	0.488
276.000	210.551	80.007	19.995	100.841	19.989	4.802	0.491
278.000	211.447	79.998	19.998	100.838	19.990	4.709	0.470
280.000	212.396	80.009	19.994	100.838	19.987	4.896	0.462
282.000	213.403	80.005	19.995	100.838	19.985	5.064	0.466
284.000	214.354	80.001	19.997	100.837	19.985	5.055	0.469
286.000	215.283	80.003	19.996	100.841	19.985	5.042	0.475
288.000	216.271	80.002	19.996	100.842	19.985	5.015	0.480
290.000	217.230	80.004	19.995	100.839	19.984	5.140	0.462
292.000	218.224	80.006	19.995	100.845	19.979	5.437	0.465
294.000	219.219	80.011	19.995	100.847	19.982	5.237	0.534
296.000	220.174	80.006	19.996	100.847	19.980	5.352	0.524
298.000	221.189	80.009	19.995	100.854	19.978	5.488	0.502
300.000	222.190	80.009	19.996	100.846	19.976	5.653	0.488
302.000	223.178	80.005	19.996	100.836	19.973	5.841	0.492
304.000	224.204	80.011	19.995	100.840	19.971	5.965	0.476
306.000	225.216	80.002	19.997	100.844	19.970	6.032	0.492
308.001	226.169	80.006	19.995	100.840	19.972	5.923	0.495
310.000	227.239	79.998	19.996	100.841	19.972	5.881	0.508
312.000	228.216	80.005	19.995	100.842	19.969	6.143	0.483
314.000	229.264	80.003	19.995	100.851	19.967	6.284	0.490
316.000	230.284	80.007	19.994	100.842	19.966	6.314	0.504
318.000	231.330	80.001	19.995	100.842	19.961	6.624	0.509
320.000	232.308	79.997	19.995	100.841	19.959	6.799	0.478
322.000	233.339	79.994	19.995	100.836	19.960	6.709	0.522
324.000	234.364	80.014	19.993	100.840	19.956	6.971	0.513
326.000	235.353	80.011	19.994	100.838	19.957	6.936	0.489
328.001	236.398	80.001	19.994	100.837	19.957	6.951	0.514
330.000	237.417	80.012	19.995	100.841	19.954	7.097	0.520
332.000	238.398	79.992	19.996	100.843	19.952	7.244	0.494
334.000	239.369	79.992	19.996	100.842	19.952	7.260	0.471
336.000	240.400	79.999	19.996	100.837	19.948	7.526	0.486
338.000	241.404	80.005	19.995	100.837	19.946	7.664	0.508
340.001	242.438	80.001	19.995	100.838	19.941	8.016	0.535
342.000	243.428	80.005	19.994	100.839	19.944	7.776	0.508
344.000	244.448	80.003	19.993	100.834	19.937	8.269	0.502
346.000	245.494	80.012	19.994	100.831	19.936	8.324	0.533
348.000	246.469	80.005	19.995	100.835	19.932	8.591	0.514
350.000	247.426	80.010	19.995	100.836	19.934	8.447	0.448
352.000	248.427	80.010	19.996	100.841	19.927	8.937	0.481
354.001	249.450	80.006	19.994	100.845	19.926	8.984	0.515
356.000	250.508	80.022	19.994	100.844	19.924	9.108	0.509
358.000	251.537	79.998	19.995	100.837	19.920	9.418	0.551
360.000	252.535	79.996	19.997	100.835	19.914	9.781	0.487
362.000	253.511	79.990	19.997	100.841	19.912	9.959	0.461
364.000	254.540	80.009	19.996	100.833	19.909	10.155	0.495
366.000	255.556	79.993	19.997	100.841	19.907	10.283	0.515
368.000	256.559	80.008	19.997	100.846	19.900	10.785	0.494
370.000	257.567	80.003	19.996	100.841	19.898	10.910	0.488
372.000	258.595	80.002	19.995	100.832	19.894	11.147	0.507
374.000	259.616	80.001	19.994	100.834	19.893	11.208	0.506
376.000	260.551	80.000	19.997	100.848	19.887	11.652	0.454
378.000	261.598	80.000	19.995	100.849	19.884	11.820	0.498
380.000	262.572	79.995	19.997	100.844	19.878	12.245	0.487
382.000	263.577	80.000	19.996	100.841	19.873	12.589	0.489
384.001	264.591	79.994	19.997	100.845	19.873	12.555	0.504
386.000	265.599	79.999	19.996	100.855	19.867	12.993	0.515
388.001	266.609	80.002	19.995	100.850	19.861	13.371	0.516
390.000	267.592	80.006	19.996	100.844	19.862	13.304	0.515
392.000	268.594	80.000	19.995	100.843	19.855	13.748	0.529
394.000	269.645	79.998	19.996	100.848	19.851	14.043	0.524
396.000	270.628	80.001	19.996	100.845	19.845	14.425	0.491
398.000	271.684	80.003	19.996	100.841	19.842	14.669	0.558
400.000	272.651	80.011	19.995	100.839	19.834	15.202	0.487
402.000	273.680	80.003	19.995	100.841	19.830	15.485	0.517
404.000	274.670	80.020	19.994	100.846	19.829	15.504	0.491
406.000	275.666	80.003	19.995	100.856	19.821	16.059	0.489
408.000	276.659	80.017	19.992	100.858	19.816	16.388	0.509
410.000	277.649	79.991	19.996	100.871	19.808	16.976	0.497
412.000	278.691	80.009	19.993	100.862	19.802	17.320	0.512
414.000	279.703	80.000	19.995	100.858	19.797	17.658	0.509
416.000	280.684	80.000	19.995	100.872	19.791	18.058	0.502
418.000	281.739	80.017	19.992	100.866	19.786	18.395	0.504
420.000	282.758	80.005	19.994	100.869	19.780	18.821	0.531
422.000	283.726	79.997	19.995	100.868	19.775	19.187	0.492
424.000	284.765	80.011	19.994	100.869	19.763	19.940	0.523
426.000	285.736	80.001	19.995	100.866	19.761	20.129	0.471
428.000	286.744	80.005	19.994	100.866	19.755	20.530	0.510
430.000	287.739	79.999	19.996	100.856	19.746	21.105	0.519
432.000	288.756	80.001	19.995	100.855	19.740	21.515	0.497
434.000	289.750	79.994	19.995	100.855	19.729	22.224	0.493
436.000	290.736	80.009	19.995	100.871	19.727	22.398	0.511
438.000	291.725	79.993	19.996	100.870	19.716	23.146	0.493
440.000	292.763	80.001	19.994	100.874	19.709	23.592	0.506
442.000	293.690	80.014	19.993	100.874	19.703	24.000	0.510
444.000	294.717	80.002	19.994	100.879	19.698	24.362	0.524
446.000	295.723	79.999	19.996	100.872	19.693	24.684	0.503
448.000	296.680	79.999	19.995	100.876	19.686	25.143	0.469
450.000	297.685	80.005	19.996	100.882	19.673	25.992	0.498
452.000	298.646	79.999	19.995	100.883	19.667	26.416	0.454
454.000	299.626	79.999	19.996	100.876	19.660	26.884	0.469
456.000	300.658	80.002	19.997	100.876	19.649	27.614	0.511
458.000	301.664	80.005	19.995	100.879	19.642	28.111	0.491
460.000	302.693	80.001	19.996	100.880	19.634	28.665	0.513
462.000	303.662	80.006	19.995	100.874	19.628	29.055	0.478
464.000	304.647	79.999	19.996	100.882	19.615	29.899	0.486
466.000	305.656	79.998	19.996	100.876	19.609	30.304	0.512
468.000	306.612	80.002	19.994	100.874	19.602	30.797	0.464
470.000	307.619	79.996	19.996	100.876	19.595	31.279	0.486
472.000	308.643	80.011	19.994	100.876	19.584	31.982	0.494
474.000	309.650	80.006	19.996	100.882	19.580	32.291	0.525
476.000	310.614	80.007	19.996	100.879	19.570	32.990	0.467
478.000	311.635	79.996	19.996	100.884	19.560	33.619	0.506
480.000	312.689	79.998	19.997	100.892	19.555	33.958	0.515
482.000	313.713	80.000	19.995	100.882	19.546	34.557	0.519
484.000	314.790	80.010	19.994	100.887	19.535	35.298	0.540
486.000	315.764	80.001	19.997	100.906	19.527	35.836	0.484
488.000	316.821	80.001	19.997	100.902	19.517	36.506	0.538
490.000	317.831	80.004	19.996	100.895	19.510	36.998	0.505
492.000	318.837	80.005	19.996	100.878	19.496	37.954	0.500
494.000	319.856	80.003	19.996	100.882	19.489	38.386	0.492
496.000	320.894	80.005	19.996	100.904	19.479	39.094	0.514
498.000	321.877	80.005	19.996	100.894	19.466	39.964	0.492
500.000	322.905	80.000	19.996	100.905	19.454	40.735	0.505
502.000	323.874	80.002	19.995	100.908	19.450	41.066	0.493
504.000	324.918	80.006	19.994	100.908	19.435	42.048	0.502
506.000	325.884	79.996	19.996	100.921	19.423	42.878	0.506
508.000	326.892	80.005	19.996	100.911	19.409	43.805	0.495
510.000	327.870	80.007	19.993	100.913	19.402	44.293	0.480
512.000	328.908	80.010	19.993	100.914	19.389	45.176	0.517
514.000	329.909	80.001	19.995	100.917	19.376	46.002	0.520
516.000	330.919	80.007	19.994	100.919	19.368	46.570	0.520
518.000	331.890	80.005	19.995	100.922	19.356	47.346	0.487
520.000	332.869	80.002	19.996	100.939	19.341	48.387	0.484
522.001	333.879	80.008	19.995	100.925	19.330	49.124	0.500
524.000	334.977	80.002	19.995	100.937	19.317	50.012	0.523
526.000	335.978	80.000	19.995	100.941	19.301	51.059	0.510
528.000	336.965	80.003	19.995	100.953	19.286	52.087	0.519
530.000	337.991	80.000	19.996	100.957	19.273	52.962	0.531
532.000	339.024	80.004	19.995	100.950	19.254	54.221	0.510
534.000	340.044	80.003	19.995	100.957	19.235	55.513	0.502
536.000	341.098	80.002	19.996	100.958	19.223	56.350	0.519
538.000	342.101	80.005	19.995	100.959	19.205	57.570	0.490
540.000	343.117	80.009	19.994	100.962	19.184	58.981	0.496
542.000	344.124	80.006	19.996	100.964	19.162	60.433	0.469
544.000	345.160	80.004	19.997	100.978	19.147	61.434	0.500
546.000	346.196	80.005	19.995	100.969	19.127	62.829	0.520
548.000	347.229	80.006	19.995	100.972	19.114	63.683	0.488
550.000	348.266	80.005	19.995	100.991	19.093	65.078	0.512
552.000	349.284	80.002	19.996	100.989	19.080	65.934	0.526
554.000	350.292	80.010	19.996	100.980	19.059	67.348	0.488
556.000	351.326	80.000	19.996	100.990	19.044	68.406	0.507
558.000	352.400	80.004	19.996	100.990	19.030	69.350	0.565
560.000	353.404	80.005	19.996	100.981	19.018	70.135	0.492
562.000	354.491	80.004	19.996	100.973	19.005	70.981	0.543
564.000	355.529	80.007	19.994	100.962	18.996	71.565	0.504
566.000	356.512	80.005	19.994	100.958	18.990	72.007	0.497
568.000	357.508	80.007	19.994	100.959	18.984	72.386	0.474
570.000	358.593	80.008	19.995	100.953	18.982	72.540	0.510
572.000	359.620	80.003	19.995	100.937	18.981	72.567	0.526
574.000	360.583	80.004	19.995	100.927	18.985	72.262	0.487
576.000	361.605	80.003	19.995	100.918	18.992	71.820	0.488
578.000	362.607	80.002	19.994	100.917	19.002	71.117	0.483
580.000	363.619	80.005	19.996	100.910	19.016	70.153	0.485
582.000	364.635	80.000	19.997	100.894	19.036	68.826	0.483
584.000	365.580	80.001	19.997	100.879	19.047	68.054	0.495
586.000	366.606	79.997	19.997	100.873	19.071	66.488	0.511
588.000	367.572	80.000	19.996	100.852	19.094	64.894	0.498
590.000	368.533	80.002	19.996	100.842	19.116	63.405	0.466
592.000	369.531	80.003	19.996	100.837	19.145	61.488	0.497
594.000	370.495	80.003	19.994	100.830	19.172	59.633	0.489
596.000	371.458	80.002	19.995	100.806	19.199	57.815	0.451
598.000	372.451	80.005	19.995	100.803	19.226	56.001	0.470
600.000	373.462	80.004	19.995	100.800	19.253	54.197	0.498
602.000	374.439	80.003	19.995	100.791	19.275	52.761	0.486
604.000	375.399	80.003	19.995	100.783	19.298	51.207	0.466
606.000	376.397	80.003	19.996	100.772	19.319	49.791	0.493
608.000	377.366	80.005	19.995	100.782	19.337	48.580	0.475
610.001	378.360	80.004	19.995	100.771	19.355	47.334	0.482
612.000	379.348	80.002	19.996	100.780	19.374	46.103	0.494
614.000	380.390	80.004	19.994	100.767	19.388	45.141	0.500
616.000	381.340	80.002	19.997	100.767	19.398	44.492	0.492
618.000	382.324	80.004	19.997	100.764	19.406	43.956	0.480
620.000	383.299	80.006	19.997	100.776	19.417	43.193	0.509
622.000	384.265	80.006	19.995	100.767	19.419	43.068	0.469
624.000	385.311	80.007	19.995	100.760	19.422	42.835	0.523
626.000	386.260	80.007	19.996	100.765	19.425	42.676	0.480
628.000	387.259	80.008	19.995	100.763	19.423	42.796	0.497
630.000	388.273	80.008	19.994	100.760	19.421	42.913	0.504
632.000	389.295	80.005	19.996	100.771	19.420	42.974	0.518
634.000	390.283	80.007	19.996	100.768	19.418	43.130	0.502
636.000	391.267	80.006	19.996	100.770	19.416	43.287	0.484
638.000	392.255	80.005	19.995	100.770	19.409	43.714	0.467
640.000	393.278	80.004	19.995	100.785	19.405	44.029	0.542
642.000	394.277	80.004	19.996	100.783	19.406	43.936	0.498
644.000	395.238	80.007	19.995	100.766	19.400	44.321	0.512
646.000	396.206	80.005	19.995	100.771	19.391	44.941	0.481
648.001	397.231	80.006	19.995	100.771	19.386	45.282	0.497
650.000	398.215	80.007	19.994	100.783	19.381	45.631	0.479
652.000	399.215	80.005	19.995	100.769	19.375	46.026	0.528
654.000	400.209	80.007	19.995	100.778	19.369	46.438	0.511
656.000	401.233	80.006	19.994	100.764	19.360	47.051	0.518
658.000	402.236	80.006	19.995	100.764	19.354	47.426	0.504
660.000	403.187	80.004	19.996	100.769	19.348	47.850	0.499
662.000	404.243	80.003	19.996	100.782	19.338	48.479	0.513
664.000	405.228	80.004	19.995	100.770	19.333	48.853	0.516
666.000	406.219	80.005	19.996	100.769	19.322	49.558	0.491
668.000	407.222	80.003	19.995	100.762	19.319	49.811	0.487
670.000	408.227	80.004	19.996	100.766	19.309	50.479	0.477
672.000	409.252	80.004	19.996	100.774	19.304	50.799	0.526
674.000	410.242	80.002	19.997	100.772	19.292	51.583	0.486
676.000	411.237	80.004	19.997	100.778	19.284	52.105	0.501
678.000	412.277	80.005	19.997	100.768	19.270	53.033	0.511
680.000	413.259	80.003	19.996	100.776	19.262	53.569	0.501
682.000	414.274	80.005	19.996	100.762	19.254	54.151	0.503
684.000	415.292	80.005	19.996	100.760	19.246	54.686	0.525
686.000	416.342	80.003	19.995	100.766	19.236	55.340	0.554
688.000	417.381	80.006	19.995	100.758	19.225	56.084	0.520
690.000	418.441	80.001	19.995	100.759	19.211	57.029	0.502
692.000	419.467	80.006	19.995	100.761	19.203	57.576	0.544
694.000	420.497	80.007	19.994	100.763	19.188	58.542	0.546
696.000	421.561	80.005	19.995	100.764	19.178	59.214	0.531
698.000	422.589	80.008	19.996	100.764	19.165	60.096	0.496
700.000	423.653	80.004	19.995	100.767	19.157	60.685	0.512
702.000	424.718	80.004	19.996	100.761	19.145	61.483	0.559
704.000	425.748	80.003	19.996	100.763	19.130	62.459	0.508
706.000	426.781	80.007	19.995	100.765	19.122	62.996	0.539
708.000	427.809	80.006	19.996	100.762	19.108	63.923	0.508
710.000	428.818	80.006	19.994	100.762	19.098	64.650	0.514
712.000	429.844	80.006	19.996	100.762	19.092	65.037	0.503
714.000	430.863	80.007	19.994	100.755	19.078	65.965	0.500
716.000	431.850	80.005	19.994	100.749	19.067	66.665	0.497
718.000	432.883	80.005	19.997	100.758	19.061	67.101	0.528
720.000	433.914	80.003	19.995	100.763	19.051	67.754	0.512
722.000	434.953	80.004	19.995	100.759	19.045	68.173	0.497
724.000	435.917	80.004	19.994	100.752	19.036	68.756	0.472
726.000	436.938	80.008	19.995	100.746	19.031	69.090	0.520
728.001	437.979	80.005	19.995	100.739	19.023	69.652	0.534
730.000	438.955	80.004	19.995	100.735	19.019	69.903	0.493
732.000	439.968	80.006	19.994	100.728	19.013	70.294	0.515
734.000	440.973	80.006	19.995	100.741	19.009	70.585	0.475
736.000	441.938	80.010	19.994	100.735	19.006	70.772	0.484
738.000	442.955	80.011	19.995	100.730	19.001	71.114	0.499
740.001	443.923	80.008	19.996	100.730	18.999	71.268	0.491
742.000	444.889	80.006	19.995	100.720	19.001	71.090	0.515
744.000	445.836	80.002	19.997	100.723	18.998	71.344	0.475
746.000	446.814	80.004	19.996	100.722	19.000	71.191	0.476
748.000	447.788	80.003	19.995	100.734	19.003	70.976	0.462
750.000	448.730	80.004	19.996	100.726	19.008	70.672	0.469
752.000	449.725	80.002	19.996	100.721	19.008	70.632	0.476
754.000	450.716	80.002	19.996	100.738	19.015	70.204	0.497
756.000	451.666	80.004	19.995	100.739	19.021	69.762	0.482
758.000	452.590	80.004	19.996	100.725	19.033	68.991	0.462
760.000	453.626	80.005	19.996	100.732	19.037	68.678	0.533
762.001	454.592	80.005	19.996	100.749	19.048	67.959	0.487
764.000	455.640	80.004	19.996	100.750	19.062	67.052	0.538
766.000	456.620	80.003	19.997	100.743	19.075	66.170	0.549
768.000	457.596	80.003	19.996	100.746	19.087	65.315	0.497
770.000	458.613	80.003	19.997	100.750	19.103	64.274	0.491
772.000	459.648	80.003	19.997	100.749	19.119	63.207	0.531
774.000	460.604	80.003	19.998	100.751	19.136	62.070	0.474
776.000	461.621	80.002	19.998	100.758	19.157	60.651	0.518
778.000	462.654	80.003	19.995	100.745	19.177	59.309	0.509
780.000	463.661	80.004	19.996	100.745	19.194	58.164	0.518
782.000	464.732	80.003	19.995	100.753	19.214	56.848	0.511
784.000	465.737	80.003	19.994	100.760	19.240	55.095	0.506
786.000	466.757	80.005	19.995	100.762	19.260	53.741	0.531
788.000	467.817	80.004	19.996	100.754	19.285	52.026	0.520
790.000	468.876	80.005	19.994	100.761	19.309	50.436	0.522
792.000	469.918	80.005	19.997	100.754	19.332	48.896	0.498
794.000	470.937	80.006	19.996	100.759	19.358	47.144	0.517
796.000	471.977	80.005	19.995	100.752	19.384	45.433	0.498
798.000	473.081	80.004	19.996	100.746	19.409	43.694	0.527
800.000	474.124	80.006	19.996	100.762	19.436	41.941	0.542
802.000	475.194	80.006	19.997	100.757	19.459	40.363	0.513
804.000	476.248	80.005	19.995	100.756	19.487	38.481	0.497
806.000	477.286	80.004	19.996	100.759	19.510	36.915	0.516
808.000	478.305	80.003	19.996	100.758	19.536	35.212	0.491
810.000	479.361	80.007	19.994	100.761	19.561	33.501	0.537
812.000	480.398	80.006	19.997	100.762	19.587	31.790	0.533
814.000	481.431	80.007	19.996	100.760	19.608	30.389	0.504
816.000	482.440	80.009	19.993	100.761	19.629	28.932	0.478
818.000	483.492	80.005	19.996	100.743	19.652	27.416	0.536
820.000	484.540	80.009	19.994	100.766	19.668	26.309	0.536
822.000	485.543	80.006	19.994	100.753	19.690	24.834	0.491
824.000	486.658	80.008	19.994	100.726	19.707	23.717	0.538
826.000	487.650	80.005	19.997	100.770	19.725	22.497	0.489
828.000	488.747	80.004	19.996	100.794	19.738	21.647	0.539
830.000	489.813	80.002	19.996	100.788	19.753	20.616	0.545
832.000	490.898	80.002	19.997	100.784	19.770	19.507	0.537
834.000	491.938	80.006	19.991	100.762	19.786	18.416	0.501
836.000	493.017	80.003	19.997	100.743	19.794	17.873	0.550
838.000	494.121	80.004	19.995	100.743	19.808	16.945	0.565
840.000	495.210	80.004	19.998	100.761	19.819	16.201	0.554
842.000	496.309	80.003	19.998	100.762	19.831	15.380	0.561
844.000	497.376	80.003	19.995	100.749	19.840	14.789	0.536
846.000	498.498	80.004	19.994	100.757	19.849	14.192	0.556
848.000	499.560	80.006	19.996	100.760	19.855	13.784	0.554
850.000	500.623	80.004	19.994	100.755	19.863	13.197	0.534
852.000	501.749	80.006	19.994	100.762	19.873	12.589	0.539
854.000	502.844	80.005	19.996	100.752	19.881	12.043	0.588
856.000	503.889	80.003	19.995	100.755	19.882	11.930	0.529
858.000	504.959	80.003	19.999	100.763	19.894	11.151	0.501
860.000	506.067	80.007	19.994	100.755	19.897	10.966	0.508
862.000	507.163	80.001	19.997	100.751	19.904	10.479	0.544
864.000	508.220	80.002	19.997	100.754	19.905	10.380	0.524
866.000	509.300	80.004	19.995	100.753	19.910	10.094	0.540
868.000	510.370	80.003	19.997	100.748	19.915	9.720	0.545
870.000	511.436	80.004	19.995	100.753	19.917	9.631	0.540
872.000	512.488	80.003	20.005	100.751	19.921	9.365	0.511
874.000	513.555	80.006	19.996	100.747	19.923	9.215	0.509
876.000	514.693	80.005	19.997	100.730	19.924	9.101	0.549
878.000	515.735	80.008	19.996	100.728	19.932	8.607	0.521
880.000	516.777	80.007	19.994	100.736	19.934	8.472	0.542
882.000	517.851	80.005	19.987	100.749	19.936	8.296	0.516
884.000	518.870	80.007	19.995	100.749	19.939	8.157	0.498
886.000	519.934	80.005	19.995	100.759	19.940	8.037	0.492
888.000	521.011	80.007	19.999	100.755	19.941	7.972	0.559
890.000	522.029	80.004	19.997	100.752	19.943	7.826	0.487
892.000	523.089	80.004	19.995	100.748	19.944	7.756	0.512
894.000	524.183	80.006	19.993	100.744	19.943	7.836	0.532
896.000	525.238	80.008	19.992	100.730	19.943	7.834	0.552
898.000	526.240	80.007	19.998	100.751	19.947	7.608	0.503
900.000	527.269	80.008	19.994	100.738	19.949	7.462	0.520
902.000	528.328	80.007	19.995	100.741	19.950	7.395	0.510
904.000	529.323	80.007	19.995	100.744	19.952	7.220	0.495
906.000	530.360	80.007	19.993	100.741	19.953	7.213	0.512
908.001	531.389	80.007	19.996	100.745	19.953	7.170	0.537
910.000	532.398	80.006	19.993	100.747	19.951	7.349	0.494
912.000	533.404	80.004	19.995	100.756	19.952	7.273	0.501
914.000	534.452	80.005	19.994	100.757	19.953	7.219	0.527
916.000	535.486	80.003	19.994	100.751	19.956	6.987	0.530
918.000	536.496	80.005	19.995	100.759	19.956	6.953	0.520
920.000	537.522	80.003	19.996	100.762	19.955	7.018	0.521
922.000	538.539	80.004	19.993	100.760	19.956	6.991	0.504
924.000	539.532	80.001	19.997	100.763	19.960	6.734	0.495
926.000	540.548	80.005	19.994	100.762	19.957	6.945	0.506
928.000	541.558	80.006	19.996	100.755	19.956	6.972	0.483
930.000	542.615	80.007	19.995	100.757	19.954	7.127	0.495
932.000	543.622	80.005	20.001	100.758	19.954	7.115	0.511
934.000	544.598	80.005	19.996	100.748	19.954	7.112	0.484
936.000	545.582	80.006	19.997	100.746	19.955	7.060	0.492
938.000	546.585	80.003	19.996	100.753	19.956	6.954	0.507
940.000	547.589	80.004	19.995	100.743	19.957	6.905	0.478
942.000	548.585	80.005	19.993	100.743	19.961	6.672	0.493
944.000	549.564	80.004	19.995	100.751	19.960	6.687	0.505
946.000	550.594	80.005	19.997	100.749	19.958	6.874	0.500
948.000	551.549	80.004	19.996	100.746	19.959	6.783	0.483
950.000	552.555	80.005	19.995	100.742	19.959	6.787	0.482
952.000	553.552	80.003	19.996	100.749	19.958	6.833	0.479
954.000	554.568	80.006	19.995	100.749	19.956	6.997	0.493
956.000	555.598	80.005	19.995	100.749	19.960	6.696	0.506
958.000	556.545	80.008	19.997	100.729	19.957	6.896	0.499
960.000	557.552	80.006	19.996	100.728	19.956	6.964	0.452
962.000	558.562	80.006	19.997	100.731	19.956	6.980	0.512
964.000	559.523	80.005	19.995	100.741	19.956	6.968	0.506
966.000	560.512	80.004	19.997	100.736	19.955	7.018	0.499
968.000	561.508	80.004	19.995	100.729	19.957	6.907	0.537
970.000	562.433	80.005	19.996	100.730	19.956	6.996	0.473
972.000	563.454	80.003	19.994	100.727	19.958	6.837	0.482
974.000	564.391	80.007	19.996	100.731	19.957	6.927	0.470
976.000	565.369	80.011	19.991	100.745	19.955	7.060	0.484
978.000	566.340	80.004	20.000	100.754	19.957	6.923	0.506
980.000	567.334	80.005	19.995	100.748	19.957	6.942	0.512
982.000	568.321	80.004	19.993	100.753	19.956	6.995	0.503
984.000	569.295	80.008	19.994	100.758	19.957	6.887	0.505
986.000	570.274	80.006	19.998	100.759	19.954	7.096	0.473
988.000	571.268	80.005	19.998	100.745	19.960	6.717	0.483
990.000	572.242	80.005	19.995	100.754	19.954	7.116	0.481
992.000	573.249	80.005	19.997	100.748	19.957	6.908	0.505
994.000	574.237	80.006	19.995	100.743	19.957	6.936	0.521
996.000	575.247	80.004	19.992	100.751	19.954	7.129	0.511
998.000	576.278	80.000	20.001	100.743	19.957	6.920	0.491
1000.000	577.229	80.005	19.992	100.735	19.957	6.913	0.481
1002.000	578.250	80.000	20.008	100.754	19.957	6.903	0.525
1004.000	579.210	80.005	19.991	100.743	19.951	7.307	0.477
1006.000	580.231	80.003	19.992	100.757	19.956	6.982	0.501
1008.000	581.241	80.008	19.993	100.757	19.956	6.964	0.479
1010.000	582.264	80.005	19.992	100.757	19.965	6.393	0.515
1012.000	583.265	80.007	19.996	100.756	19.958	6.835	0.535
1014.000	584.262	80.008	19.988	100.744	19.955	7.037	0.504
1016.000	585.262	80.012	19.993	100.746	19.956	6.971	0.490
1018.000	586.203	80.000	19.989	100.758	19.956	6.953	0.494
1020.000	587.254	80.010	19.993	100.760	19.958	6.855	0.494
1022.000	588.228	80.001	19.999	100.759	19.958	6.835	0.496
1024.000	589.278	80.009	19.996	100.759	19.954	7.100	0.510
1026.000	590.283	80.004	19.997	100.760	19.957	6.893	0.478
1028.000	591.320	80.008	19.994	100.760	19.958	6.858	0.513
1030.000	592.361	80.002	19.992	100.761	19.955	7.068	0.517
1032.001	593.386	80.003	19.998	100.760	19.954	7.111	0.526
1034.000	594.508	80.009	19.990	100.758	19.953	7.197	0.558
1036.000	595.553	80.007	19.995	100.763	19.956	6.985	0.548
1038.001	596.547	80.002	19.996	100.761	19.955	7.027	0.505
1040.000	597.633	80.006	19.997	100.758	19.958	6.837	0.543
1042.000	598.685	80.007	19.991	100.762	19.961	6.671	0.528
1044.000	599.728	80.002	20.000	100.760	19.957	6.918	0.550
1046.000	600.750	80.008	19.996	100.759	19.955	7.027	0.501
1048.000	601.839	80.012	19.993	100.750	19.958	6.840	0.549
1050.000	602.860	80.004	19.993	100.756	19.955	7.068	0.532
1052.000	603.932	80.005	19.992	100.758	19.954	7.087	0.511
1054.001	604.985	80.005	19.995	100.759	19.955	7.019	0.497
1056.000	606.045	79.999	20.007	100.756	19.952	7.243	0.508
1058.000	607.080	80.003	19.999	100.754	19.950	7.409	0.521
1060.000	608.082	80.006	19.992	100.747	19.954	7.102	0.493
1062.000	609.123	80.007	19.995	100.745	19.956	7.016	0.539
1064.001	610.066	80.007	19.995	100.748	19.954	7.088	0.475
1066.000	611.094	80.009	19.996	100.738	19.955	7.029	0.501
1068.000	612.143	80.007	19.996	100.748	19.957	6.885	0.535
1070.000	613.122	80.007	19.994	100.753	19.957	6.917	0.491
1072.000	614.154	80.002	19.992	100.757	19.959	6.774	0.500
1074.000	615.165	80.007	19.995	100.748	19.953	7.163	0.538
1076.001	616.179	80.008	19.994	100.746	19.958	6.824	0.513
1078.000	617.148	80.007	19.996	100.755	19.954	7.127	0.497
1080.000	618.163	80.005	19.992	100.750	19.953	7.177	0.488
1082.000	619.181	80.006	19.992	100.739	19.957	6.938	0.517
1084.000	620.165	80.002	19.994	100.751	19.956	7.013	0.503
1086.000	621.139	80.006	19.997	100.742	19.954	7.087	0.491
1088.000	622.080	80.002	19.993	100.742	19.957	6.902	0.493
1090.000	623.053	80.005	20.000	100.744	19.950	7.370	0.482
1092.000	624.040	80.003	19.993	100.748	19.957	6.946	0.478
1094.001	625.009	80.005	19.995	100.761	19.955	7.042	0.472
1096.000	626.041	80.005	19.998	100.759	19.954	7.119	0.538
1098.000	627.010	80.005	19.996	100.760	19.952	7.224	0.500
1100.000	628.024	80.007	19.991	100.760	19.958	6.870	0.494
1102.001	629.030	80.010	19.988	100.762	19.955	7.024	0.524
1104.000	630.077	80.004	19.994	100.761	19.957	6.944	0.531
1106.001	631.110	80.002	19.997	100.762	19.954	7.148	0.538
1108.001	632.128	80.004	19.989	100.764	19.953	7.219	0.497
1110.000	633.153	80.006	19.994	100.764	19.955	7.018	0.496
1112.000	634.231	80.006	19.995	100.767	19.954	7.107	0.536
1114.000	635.279	80.006	19.993	100.762	19.955	7.018	0.501
1116.000	636.327	80.004	19.997	100.763	19.953	7.215	0.532
1118.001	637.336	80.005	19.995	100.764	19.953	7.213	0.504
1120.001	638.357	80.003	19.999	100.758	19.954	7.142	0.501
1122.000	639.352	80.006	19.995	100.755	19.955	7.024	0.502
1124.001	640.384	80.004	19.992	100.758	19.956	6.973	0.504
1126.000	641.461	80.004	19.996	100.757	19.954	7.113	0.514
1128.000	642.455	80.009	19.997	100.758	19.954	7.122	0.491
1130.000	643.493	80.006	19.991	100.756	19.956	6.984	0.530
1132.001	644.502	79.999	19.991	100.759	19.954	7.111	0.517
1134.000	645.486	80.006	19.994	100.755	19.954	7.146	0.480
1136.001	646.556	80.005	19.996	100.759	19.954	7.093	0.509
1138.000	647.555	80.005	19.996	100.758	19.954	7.118	0.516
1140.000	648.560	80.005	19.995	100.759	19.956	6.965	0.525
1142.001	649.597	80.011	19.998	100.755	19.954	7.093	0.524
1144.000	650.646	80.005	19.995	100.756	19.950	7.409	0.554
1146.000	651.693	80.011	19.994	100.757	19.953	7.153	0.528
1148.000	652.684	80.007	19.994	100.760	19.950	7.371	0.526
1150.000	653.716	80.007	19.993	100.757	19.951	7.344	0.537
1152.000	654.780	80.009	19.996	100.757	19.951	7.299	0.581
1154.000	655.769	80.006	20.000	100.757	19.950	7.406	0.507
1156.000	656.799	80.007	19.995	100.756	19.950	7.368	0.515
1158.000	657.834	80.006	19.993	100.754	19.952	7.271	0.514
1160.000	658.852	80.003	19.997	100.758	19.950	7.393	0.525
1162.000	659.849	80.005	19.997	100.761	19.951	7.302	0.464
1164.000	660.911	80.004	19.995	100.762	19.949	7.482	0.530
1166.000	661.947	80.005	19.997	100.764	19.949	7.486	0.520
1168.000	662.960	80.005	19.994	100.759	19.950	7.370	0.520
1170.001	664.059	80.004	19.992	100.764	19.949	7.455	0.541
1172.000	665.097	80.005	19.995	100.763	19.948	7.488	0.549
1174.000	666.076	80.004	19.995	100.759	19.953	7.211	0.516
1176.001	667.228	80.008	19.994	100.757	19.951	7.322	0.552
1178.000	668.246	80.006	19.995	100.763	19.950	7.411	0.520
1180.000	669.355	80.004	19.992	100.759	19.951	7.291	0.557
1182.000	670.427	80.006	19.993	100.765	19.950	7.371	0.520
1184.000	671.504	80.003	19.998	100.758	19.949	7.442	0.545
1186.001	672.604	80.004	19.995	100.763	19.949	7.473	0.584
1188.000	673.634	80.003	19.994	100.757	19.947	7.597	0.543
1190.000	674.690	80.004	19.995	100.762	19.947	7.606	0.533
1192.001	675.775	80.005	19.995	100.761	19.948	7.545	0.539
1194.000	676.825	80.004	19.994	100.757	19.945	7.732	0.544
1196.001	677.845	80.005	19.995	100.758	19.941	7.980	0.507
1198.000	678.833	80.005	19.996	100.758	19.943	7.849	0.495
1200.001	679.869	80.005	19.995	100.757	19.944	7.786	0.471
1202.000	680.899	80.005	19.994	100.756	19.946	7.638	0.507
1204.001	681.935	80.005	19.995	100.732	19.944	7.796	0.515
1206.000	682.873	80.006	19.994	100.753	19.944	7.818	0.446
1208.000	683.876	80.008	19.994	100.753	19.942	7.904	0.495
1210.001	684.827	80.008	19.995	100.757	19.949	7.461	0.457
1212.000	685.825	80.008	19.996	100.759	19.947	7.569	0.474
1214.000	686.807	80.006	19.995	100.739	19.945	7.709	0.466
1216.000	687.769	80.007	19.995	100.758	19.947	7.610	0.476
1218.000	688.720	80.006	19.996	100.735	19.949	7.462	0.476
1220.001	689.669	80.005	19.997	100.730	19.946	7.684	0.458
1222.000	690.642	80.005	19.995	100.723	19.944	7.763	0.487
1224.000	691.598	80.005	19.997	100.733	19.945	7.744	0.473
1226.000	692.579	80.007	19.995	100.730	19.948	7.502	0.453
1228.000	693.539	80.007	19.996	100.746	19.947	7.566	0.507
1230.001	694.504	80.006	19.995	100.730	19.947	7.592	0.466
1232.000	695.487	80.005	19.994	100.748	19.949	7.419	0.472
1234.000	696.447	80.008	19.994	100.736	19.948	7.491	0.455
1236.001	697.464	80.007	19.995	100.727	19.947	7.616	0.486
1238.000	698.485	80.007	19.995	100.741	19.948	7.486	0.481
1240.000	699.505	80.006	19.995	100.736	19.949	7.438	0.541
1242.000	700.466	80.005	19.996	100.744	19.949	7.426	0.510
1244.000	701.496	80.004	19.996	100.741	19.948	7.527	0.503
1246.000	702.544	80.004	19.996	100.743	19.946	7.677	0.520
1248.000	703.583	80.004	19.996	100.732	19.946	7.681	0.504
1250.000	704.611	80.005	19.996	100.736	19.946	7.659	0.517
1252.001	705.622	80.003	19.996	100.732	19.948	7.511	0.485
1254.000	706.716	80.004	19.996	100.729	19.943	7.827	0.528
1256.001	707.744	80.005	19.995	100.729	19.945	7.720	0.490
1258.000	708.796	80.005	19.995	100.740	19.947	7.612	0.515
1260.000	709.812	80.005	19.996	100.744	19.943	7.840	0.507
1262.000	710.859	80.005	19.996	100.728	19.946	7.669	0.531
1264.001	711.869	80.005	19.995	100.739	19.941	8.000	0.503
1266.000	712.917	80.007	19.995	100.747	19.942	7.913	0.524
1268.000	713.920	80.005	19.995	100.725	19.943	7.878	0.532
1270.000	714.977	80.005	19.995	100.721	19.941	8.015	0.530
1272.001	716.023	80.005	19.996	100.724	19.943	7.829	0.547
1274.001	717.064	80.005	19.996	100.721	19.943	7.828	0.510
1276.001	718.040	80.004	19.995	100.733	19.943	7.885	0.512
1278.000	719.073	80.004	19.997	100.730	19.943	7.853	0.514
1280.000	720.068	80.003	19.997	100.737	19.945	7.709	0.533
1282.000	721.093	80.005	19.996	100.725	19.950	7.398	0.485
1284.000	722.140	80.005	19.995	100.732	19.943	7.830	0.507
1286.000	723.157	80.006	19.995	100.729	19.946	7.667	0.520
1288.000	724.172	80.005	19.996	100.729	19.943	7.869	0.493
1290.000	725.206	80.007	19.995	100.726	19.943	7.825	0.502
1292.000	726.173	80.008	19.994	100.729	19.943	7.874	0.505
1294.000	727.325	80.005	19.995	100.721	19.941	7.984	0.551
1296.000	728.279	80.008	19.994	100.724	19.941	7.978	0.506
1298.000	729.317	80.007	19.994	100.732	19.941	8.011	0.510
1300.000	730.324	80.006	19.994	100.727	19.942	7.909	0.510
1302.000	731.349	80.007	19.994	100.731	19.943	7.880	0.511
1304.001	732.339	80.007	19.994	100.727	19.940	8.069	0.488
1306.001	733.346	80.006	19.994	100.730	19.936	8.302	0.499
1308.000	734.350	80.006	19.994	100.727	19.939	8.146	0.499
1310.000	735.342	80.007	19.995	100.726	19.938	8.187	0.474
1312.000	736.313	80.006	19.993	100.725	19.943	7.887	0.488
1314.000	737.250	80.007	19.994	100.726	19.941	7.976	0.470
1316.000	738.258	80.006	19.995	100.729	19.944	7.805	0.492
1318.000	739.271	80.008	19.995	100.729	19.944	7.810	0.498
1320.001	740.285	80.009	19.995	100.728	19.943	7.824	0.518
1322.000	741.256	80.008	19.995	100.723	19.941	7.978	0.525
1324.000	742.257	80.005	19.995	100.726	19.941	7.985	0.488
1326.000	743.251	80.005	19.995	100.723	19.942	7.890	0.509
1327.000	743.783	80.006	19.995	100.724	19.944	7.778	0.485