File: 01_Data/Roof_Felt/MCC/Roof_Felt_MCC_30K_min_210929_R2.txt
Sample ID:	C:\MCC\MCC Cal\Test\Roof_Felt_MCC_30K_min_2109299_R2.txt
Sample Weight (mg):	5
Heating Rate (C/s):	0.5
Combustor Temp (C):	900
N2 Flow Rate (cc/min):	80
O2 Flow Rate (cc/min):	20
Calibration File:	C:\MCC\MCC Cal\Coeff1 JN10440_30_210304.txt.txt
T Correction Coefficients:	0	1.024463	0
Time Shift (s):	14
*
Time (s)	Temperature (C)	N2 flow rate (cc/min)	O2 flow rate (cc/min)	Flow Rate (cc/min)	Oxygen (%)	HRR (W/g)	Heating rate (C/s)
-0.001	106.539	80.002	19.995	100.682	19.972	0.121	0.004
2.000	106.490	80.003	19.995	100.682	19.978	-0.298	-0.038
4.000	106.531	80.003	19.996	100.682	19.974	-0.005	0.006
6.000	106.519	80.002	19.995	100.683	19.971	0.172	-0.029
8.000	106.528	80.003	19.995	100.688	19.966	0.488	-0.006
10.000	106.542	80.003	19.996	100.701	19.967	0.385	0.026
12.000	106.574	80.003	19.996	100.715	19.968	0.366	0.009
14.000	106.526	80.003	19.996	100.707	19.970	0.203	-0.009
16.000	106.535	80.004	19.997	100.708	19.971	0.175	-0.014
18.000	106.571	80.004	19.996	100.720	19.963	0.649	0.009
20.000	106.575	80.003	19.996	100.719	19.965	0.525	0.017
22.000	106.589	80.003	19.995	100.730	19.964	0.583	-0.029
24.000	106.667	80.003	19.996	100.754	19.964	0.622	0.041
26.000	106.668	80.004	19.996	100.787	19.954	1.210	0.028
28.000	106.769	80.003	19.996	100.825	19.951	1.400	0.061
30.000	106.892	80.004	19.998	100.853	19.944	1.836	0.057
32.000	107.013	80.003	19.997	100.859	19.946	1.717	0.084
33.999	107.198	80.005	19.996	100.868	19.940	2.109	0.070
35.999	107.398	80.001	19.996	100.882	19.933	2.526	0.121
37.999	107.662	80.004	19.997	100.895	19.932	2.605	0.100
39.999	107.934	80.002	19.994	100.911	19.929	2.782	0.157
42.001	108.205	80.004	19.994	100.909	19.923	3.213	0.163
44.000	108.512	80.004	19.995	100.912	19.928	2.898	0.127
45.999	108.893	80.005	19.995	100.912	19.929	2.806	0.186
47.999	109.280	80.004	19.994	100.902	19.927	2.958	0.181
50.000	109.672	80.005	19.995	100.896	19.930	2.739	0.194
51.999	110.109	80.007	19.995	100.893	19.923	3.176	0.236
53.999	110.503	80.005	19.995	100.899	19.927	2.961	0.209
55.999	110.940	80.005	19.994	100.898	19.927	2.956	0.224
57.999	111.426	80.005	19.995	100.906	19.929	2.816	0.223
59.999	111.913	80.007	19.994	100.890	19.932	2.646	0.242
61.999	112.401	80.005	19.995	100.895	19.933	2.545	0.268
63.999	112.900	80.004	19.996	100.891	19.930	2.762	0.267
65.999	113.419	80.004	19.994	100.895	19.928	2.861	0.252
67.999	114.015	80.006	19.997	100.899	19.926	3.008	0.316
69.999	114.553	80.004	19.997	100.908	19.926	2.965	0.272
71.999	115.129	80.003	19.995	100.914	19.929	2.817	0.290
73.999	115.671	80.005	19.995	100.915	19.931	2.704	0.286
75.999	116.283	80.003	19.995	100.915	19.922	3.236	0.302
77.999	116.898	80.003	19.996	100.915	19.926	3.001	0.294
80.000	117.469	80.005	19.996	100.915	19.924	3.107	0.293
82.000	118.119	80.003	19.995	100.916	19.925	3.047	0.313
83.999	118.774	80.004	19.997	100.916	19.923	3.202	0.303
85.999	119.406	80.006	19.995	100.913	19.922	3.221	0.339
87.999	120.074	80.004	19.994	100.914	19.923	3.204	0.338
90.000	120.716	80.004	19.995	100.918	19.927	2.905	0.331
91.999	121.419	80.004	19.996	100.918	19.925	3.061	0.334
93.999	122.158	80.003	19.996	100.920	19.928	2.897	0.319
96.000	122.851	80.002	19.996	100.925	19.927	2.920	0.339
98.000	123.544	80.003	19.996	100.919	19.922	3.247	0.333
99.999	124.248	80.003	19.996	100.924	19.925	3.037	0.340
102.000	125.003	80.003	19.997	100.921	19.923	3.165	0.361
103.999	125.753	80.002	19.996	100.924	19.924	3.090	0.382
105.999	126.476	80.003	19.995	100.934	19.920	3.389	0.354
107.999	127.245	80.003	19.996	100.941	19.923	3.184	0.376
109.999	128.009	80.005	19.996	100.938	19.918	3.477	0.401
111.999	128.776	80.005	19.996	100.953	19.922	3.244	0.378
113.999	129.613	80.005	19.995	100.935	19.921	3.293	0.413
116.000	130.341	80.006	19.995	100.943	19.920	3.343	0.411
117.999	131.170	80.005	19.995	100.950	19.918	3.498	0.424
119.999	131.954	80.003	19.995	100.938	19.919	3.433	0.374
122.001	132.732	80.003	19.995	100.941	19.917	3.592	0.383
123.999	133.561	80.004	19.996	100.946	19.917	3.585	0.400
126.000	134.388	80.004	19.997	100.948	19.918	3.510	0.386
128.000	135.222	80.002	19.997	100.951	19.921	3.310	0.415
130.000	136.051	80.003	19.996	100.947	19.916	3.605	0.401
132.000	136.861	80.003	19.997	100.945	19.918	3.503	0.409
134.000	137.729	80.004	19.996	100.945	19.915	3.694	0.433
136.000	138.531	80.004	19.995	100.948	19.911	3.909	0.415
138.000	139.367	80.004	19.995	100.943	19.909	4.047	0.414
140.000	140.275	80.007	19.995	100.950	19.913	3.810	0.444
142.000	141.134	80.006	19.996	100.947	19.911	3.955	0.441
144.000	142.014	80.005	19.997	100.951	19.913	3.803	0.450
146.000	142.860	80.005	19.995	100.952	19.914	3.733	0.440
148.000	143.758	80.005	19.996	100.952	19.912	3.849	0.426
150.000	144.662	80.004	19.996	100.951	19.918	3.523	0.427
152.000	145.572	80.003	19.996	100.944	19.911	3.936	0.482
154.000	146.459	80.005	19.994	100.944	19.911	3.909	0.424
156.000	147.342	80.006	19.996	100.951	19.911	3.948	0.417
158.000	148.269	80.000	19.996	100.950	19.915	3.711	0.444
160.000	149.221	80.003	19.996	100.951	19.918	3.469	0.488
162.000	150.104	80.003	19.996	100.937	19.917	3.534	0.447
164.000	151.039	80.003	19.995	100.934	19.917	3.563	0.446
166.000	151.954	80.002	19.995	100.945	19.917	3.579	0.453
168.000	152.892	80.002	19.995	100.946	19.918	3.491	0.473
170.000	153.844	80.005	19.995	100.922	19.913	3.831	0.470
172.000	154.686	80.002	19.995	100.954	19.914	3.761	0.427
174.000	155.652	80.004	19.995	100.952	19.912	3.861	0.446
176.000	156.609	80.005	19.994	100.956	19.914	3.759	0.486
178.000	157.556	80.004	19.995	100.957	19.912	3.870	0.496
180.000	158.505	80.003	19.994	100.957	19.914	3.739	0.468
182.000	159.458	80.007	19.995	100.956	19.912	3.887	0.514
184.000	160.349	80.002	19.995	100.959	19.913	3.826	0.498
186.000	161.341	80.002	19.996	100.949	19.910	4.028	0.479
188.001	162.268	80.002	19.996	100.954	19.909	4.065	0.480
190.000	163.254	80.003	19.996	100.954	19.905	4.287	0.465
192.000	164.221	80.002	19.996	100.952	19.906	4.246	0.477
194.000	165.197	80.006	19.995	100.939	19.912	3.861	0.471
196.000	166.149	80.005	19.996	100.930	19.909	4.035	0.466
198.000	167.165	80.004	19.995	100.934	19.908	4.119	0.490
200.000	168.139	80.003	19.996	100.931	19.905	4.304	0.477
202.000	169.124	80.003	19.996	100.932	19.905	4.292	0.485
204.000	170.138	80.007	19.995	100.940	19.905	4.307	0.503
206.000	171.053	80.005	19.997	100.941	19.904	4.351	0.471
208.000	172.121	80.003	19.996	100.922	19.905	4.286	0.510
210.000	173.098	80.004	19.997	100.933	19.904	4.375	0.503
212.000	174.086	80.004	19.996	100.929	19.906	4.224	0.470
214.000	175.089	80.006	19.996	100.927	19.905	4.338	0.497
216.000	176.077	80.007	19.997	100.929	19.908	4.130	0.504
218.000	177.087	80.009	19.995	100.914	19.905	4.339	0.471
220.000	178.101	80.002	19.997	100.926	19.900	4.604	0.501
222.000	179.096	80.005	19.995	100.927	19.904	4.389	0.490
224.000	180.108	79.997	19.996	100.921	19.904	4.392	0.510
226.000	181.135	80.007	19.996	100.924	19.904	4.378	0.513
228.000	182.172	80.005	19.995	100.915	19.909	4.090	0.479
230.000	183.172	80.011	19.995	100.924	19.904	4.356	0.490
232.000	184.191	80.002	19.995	100.915	19.900	4.602	0.497
234.000	185.202	80.004	19.996	100.916	19.904	4.349	0.522
236.000	186.243	80.003	19.996	100.917	19.896	4.898	0.482
238.000	187.269	80.003	19.996	100.917	19.896	4.858	0.512
240.000	188.258	79.986	19.999	100.918	19.902	4.503	0.504
242.000	189.271	80.003	19.995	100.912	19.905	4.348	0.516
244.000	190.269	80.003	19.995	100.915	19.903	4.455	0.508
246.000	191.310	80.009	19.994	100.916	19.901	4.593	0.489
248.001	192.227	79.998	19.997	100.919	19.903	4.463	0.474
250.000	193.196	80.005	19.995	100.920	19.900	4.641	0.385
252.000	194.326	80.003	19.995	100.918	19.902	4.506	0.469
254.000	195.336	80.003	19.995	100.917	19.897	4.790	0.509
256.000	196.255	80.002	19.995	100.916	19.898	4.755	0.509
258.000	197.239	80.004	19.996	100.912	19.900	4.641	0.465
260.001	198.301	80.002	19.994	100.912	19.903	4.438	0.506
262.000	199.305	80.008	19.994	100.907	19.901	4.579	0.516
264.000	200.274	80.006	19.996	100.908	19.902	4.506	0.500
266.000	201.257	80.006	19.994	100.906	19.899	4.679	0.476
268.000	202.205	79.997	19.995	100.915	19.899	4.668	0.478
270.000	203.218	80.002	19.995	100.914	19.898	4.739	0.518
272.000	204.191	80.004	19.994	100.914	19.894	5.007	0.504
274.000	205.174	80.004	19.996	100.909	19.891	5.199	0.493
276.000	206.168	80.008	19.995	100.904	19.888	5.357	0.507
278.000	207.172	80.004	19.994	100.896	19.889	5.325	0.524
280.000	208.164	80.004	19.996	100.906	19.888	5.391	0.500
282.000	209.136	80.005	19.996	100.908	19.890	5.285	0.490
284.000	210.094	80.002	19.996	100.905	19.889	5.340	0.450
286.001	211.054	80.005	19.995	100.887	19.890	5.261	0.487
288.000	211.989	80.003	19.997	100.894	19.888	5.380	0.464
290.000	212.977	80.010	19.995	100.891	19.886	5.511	0.508
292.000	213.983	80.006	19.995	100.898	19.879	5.961	0.465
294.000	214.964	79.994	19.997	100.909	19.882	5.748	0.508
296.000	215.901	79.998	19.998	100.921	19.880	5.903	0.461
298.000	216.879	80.005	19.994	100.905	19.882	5.789	0.521
300.000	217.868	80.006	19.996	100.894	19.880	5.869	0.496
302.000	218.825	80.003	19.995	100.904	19.880	5.905	0.483
304.000	219.792	80.005	19.996	100.890	19.879	5.943	0.492
306.000	220.755	80.006	19.995	100.890	19.877	6.107	0.457
308.000	221.728	80.006	19.995	100.895	19.874	6.247	0.462
310.000	222.693	80.005	19.995	100.896	19.870	6.512	0.490
312.000	223.695	80.003	19.996	100.891	19.870	6.511	0.504
314.000	224.677	80.004	19.995	100.898	19.870	6.507	0.494
316.000	225.666	80.005	19.995	100.899	19.869	6.561	0.503
318.000	226.619	80.002	19.996	100.886	19.869	6.561	0.507
320.000	227.595	80.003	19.996	100.903	19.866	6.773	0.484
322.000	228.630	80.000	19.996	100.890	19.865	6.843	0.508
324.000	229.609	80.004	19.997	100.891	19.866	6.772	0.502
326.000	230.606	80.007	19.996	100.902	19.860	7.170	0.499
328.000	231.590	80.006	19.994	100.896	19.860	7.148	0.511
330.000	232.593	80.009	19.996	100.892	19.856	7.388	0.491
332.000	233.588	79.999	19.995	100.903	19.855	7.473	0.509
334.000	234.532	80.005	19.996	100.893	19.853	7.559	0.474
336.000	235.525	80.005	19.996	100.880	19.852	7.667	0.498
338.000	236.517	80.004	19.994	100.893	19.849	7.839	0.491
340.000	237.519	80.008	19.994	100.904	19.849	7.829	0.501
342.000	238.474	80.008	19.994	100.890	19.847	7.968	0.475
344.000	239.465	80.007	19.994	100.893	19.844	8.142	0.498
346.000	240.442	80.006	19.995	100.897	19.842	8.277	0.490
348.000	241.415	80.000	19.996	100.883	19.840	8.384	0.496
350.001	242.432	80.010	19.995	100.888	19.836	8.637	0.505
352.000	243.413	80.008	19.994	100.901	19.833	8.822	0.489
354.000	244.370	80.012	19.996	100.905	19.828	9.146	0.485
356.000	245.362	80.003	19.996	100.908	19.828	9.179	0.482
358.000	246.357	80.008	19.995	100.910	19.820	9.647	0.493
360.000	247.332	80.000	19.995	100.901	19.822	9.541	0.467
362.000	248.343	80.004	19.994	100.887	19.818	9.822	0.531
364.000	249.317	80.002	19.995	100.901	19.814	10.064	0.476
366.000	250.364	80.005	19.994	100.911	19.813	10.132	0.510
368.000	251.361	80.010	19.993	100.910	19.809	10.381	0.529
370.000	252.344	80.005	19.997	100.900	19.806	10.551	0.488
372.000	253.310	80.001	19.996	100.894	19.804	10.683	0.493
374.000	254.311	80.005	19.995	100.895	19.803	10.712	0.512
376.000	255.333	80.005	19.994	100.898	19.798	11.073	0.463
378.000	256.280	80.004	19.995	100.907	19.795	11.212	0.495
380.000	257.269	80.008	19.994	100.901	19.792	11.458	0.495
382.000	258.313	80.000	19.996	100.891	19.788	11.684	0.521
384.000	259.337	80.002	19.996	100.902	19.786	11.799	0.539
386.000	260.297	80.006	19.995	100.900	19.780	12.192	0.489
388.000	261.253	80.005	19.996	100.903	19.777	12.344	0.454
390.000	262.229	80.006	19.995	100.899	19.775	12.503	0.465
392.000	263.241	80.013	19.995	100.903	19.767	12.990	0.504
394.000	264.226	80.018	19.993	100.900	19.762	13.327	0.509
396.000	265.194	80.010	19.995	100.899	19.759	13.503	0.481
398.000	266.218	80.000	19.995	100.900	19.755	13.790	0.524
400.000	267.225	80.006	19.996	100.902	19.750	14.105	0.516
402.000	268.161	80.003	19.995	100.902	19.745	14.390	0.506
404.000	269.123	80.008	19.994	100.905	19.742	14.571	0.442
406.000	270.156	80.009	19.997	100.912	19.738	14.848	0.536
408.000	271.167	80.010	19.997	100.910	19.733	15.163	0.516
410.000	272.144	79.993	19.997	100.907	19.723	15.755	0.511
412.000	273.103	80.008	19.996	100.905	19.723	15.781	0.456
414.000	274.085	80.003	19.996	100.909	19.715	16.252	0.506
416.000	275.101	80.006	19.994	100.912	19.712	16.459	0.508
418.000	276.085	80.004	19.995	100.916	19.706	16.826	0.506
420.000	277.055	80.000	19.996	100.902	19.701	17.171	0.504
422.000	278.030	80.001	19.996	100.909	19.695	17.545	0.480
424.000	279.047	80.009	19.994	100.913	19.688	17.995	0.498
426.000	280.003	80.015	19.995	100.911	19.682	18.376	0.464
428.000	281.010	79.997	19.997	100.917	19.675	18.827	0.478
430.000	281.998	80.006	19.995	100.917	19.665	19.456	0.480
432.000	283.001	80.002	19.996	100.918	19.659	19.837	0.510
434.000	283.970	80.002	19.996	100.921	19.656	19.985	0.467
436.000	285.011	80.003	19.995	100.922	19.648	20.506	0.499
438.000	285.994	79.994	19.997	100.924	19.640	20.991	0.492
440.000	287.003	80.007	19.994	100.917	19.635	21.304	0.488
442.000	287.962	80.002	19.995	100.926	19.627	21.813	0.454
444.000	288.994	79.998	19.996	100.921	19.619	22.340	0.468
446.000	289.978	79.995	19.996	100.920	19.609	22.938	0.484
448.000	291.019	80.014	19.994	100.920	19.607	23.087	0.538
450.000	292.019	80.002	19.996	100.922	19.600	23.496	0.489
452.000	293.009	80.014	19.993	100.919	19.590	24.164	0.505
454.000	293.970	80.006	19.996	100.927	19.582	24.627	0.477
456.001	294.989	80.005	19.994	100.925	19.576	25.013	0.501
458.000	295.941	80.006	19.996	100.923	19.567	25.615	0.490
460.000	296.883	80.007	19.995	100.921	19.558	26.181	0.480
462.000	297.899	80.007	19.995	100.920	19.550	26.660	0.512
464.000	298.878	80.008	19.995	100.923	19.543	27.089	0.473
466.000	299.853	80.015	19.993	100.914	19.534	27.688	0.486
468.000	300.805	79.987	19.997	100.920	19.523	28.351	0.480
470.000	301.810	80.009	19.996	100.932	19.521	28.478	0.494
472.000	302.757	80.007	19.996	100.942	19.513	28.979	0.503
474.000	303.756	80.010	19.994	100.934	19.503	29.670	0.486
476.001	304.731	80.006	19.996	100.933	19.497	29.998	0.466
478.000	305.713	80.008	19.996	100.929	19.488	30.596	0.503
480.000	306.720	80.004	19.996	100.941	19.476	31.336	0.499
482.000	307.717	80.004	19.996	100.936	19.471	31.644	0.495
484.000	308.717	79.994	19.998	100.948	19.454	32.743	0.514
486.001	309.717	80.002	19.997	100.944	19.453	32.807	0.468
488.000	310.775	79.998	19.997	100.949	19.442	33.463	0.528
490.000	311.765	80.007	19.996	100.947	19.432	34.136	0.545
492.000	312.842	80.011	19.995	100.953	19.424	34.641	0.540
494.000	313.813	79.999	19.995	100.951	19.418	35.024	0.474
496.000	314.867	80.005	19.995	100.950	19.404	35.850	0.512
498.000	315.847	80.005	19.996	100.956	19.395	36.424	0.498
500.000	316.884	80.013	19.994	100.956	19.385	37.059	0.522
502.000	317.870	80.004	19.998	100.954	19.379	37.484	0.519
504.000	318.929	80.002	19.996	100.948	19.364	38.378	0.517
506.000	319.904	80.010	19.995	100.951	19.357	38.870	0.490
508.000	320.941	80.007	19.996	100.955	19.344	39.669	0.543
510.000	321.907	80.001	19.995	100.956	19.335	40.206	0.505
512.000	322.885	80.000	19.996	100.956	19.325	40.853	0.459
514.000	323.948	79.998	19.995	100.955	19.315	41.507	0.491
516.000	324.982	80.002	19.995	100.965	19.298	42.554	0.512
518.000	325.975	80.002	19.995	100.963	19.290	43.095	0.507
520.000	326.964	80.004	19.998	100.967	19.277	43.920	0.493
522.000	327.986	80.004	19.994	100.970	19.271	44.281	0.529
524.000	328.989	80.008	19.995	100.972	19.251	45.534	0.512
526.000	329.976	80.004	19.995	100.964	19.239	46.315	0.509
528.000	330.959	80.011	19.993	100.975	19.225	47.141	0.492
530.000	331.964	79.998	19.996	100.989	19.217	47.673	0.511
532.000	332.981	80.008	19.993	100.986	19.199	48.816	0.512
534.000	334.001	80.000	19.993	100.991	19.183	49.847	0.501
536.000	335.030	80.006	19.995	100.991	19.170	50.671	0.522
538.000	336.047	80.003	19.996	100.988	19.149	52.005	0.510
540.000	337.044	80.007	19.996	100.990	19.135	52.858	0.520
542.000	338.066	80.004	19.994	100.992	19.117	53.988	0.520
544.000	339.039	80.010	19.996	100.999	19.102	54.933	0.495
546.000	340.020	80.007	19.996	101.004	19.085	56.022	0.486
548.000	341.051	80.007	19.996	101.021	19.068	57.071	0.461
550.000	342.057	80.008	19.995	101.014	19.053	58.066	0.524
552.000	343.004	80.003	19.995	101.028	19.031	59.428	0.472
554.000	344.031	80.007	19.996	101.027	19.012	60.625	0.497
556.000	344.986	80.007	19.993	101.032	18.997	61.558	0.490
558.000	346.000	80.007	19.994	101.032	18.983	62.456	0.529
560.000	346.991	80.004	19.996	101.038	18.961	63.854	0.505
562.000	347.998	80.012	19.993	101.030	18.945	64.817	0.507
564.000	348.974	80.005	19.996	101.036	18.930	65.778	0.498
566.000	350.011	80.014	19.993	101.035	18.912	66.902	0.520
568.000	350.927	79.999	19.994	101.036	18.899	67.733	0.465
570.000	351.943	80.004	19.995	101.033	18.884	68.660	0.487
572.000	352.994	80.009	19.996	101.032	18.875	69.258	0.547
574.000	353.950	80.000	19.997	101.033	18.863	69.982	0.484
576.000	355.017	80.001	19.996	101.034	18.854	70.542	0.515
578.000	356.018	80.003	19.996	101.033	18.849	70.888	0.499
580.000	356.969	80.008	19.995	101.036	18.844	71.166	0.498
582.000	357.986	80.006	19.996	101.031	18.841	71.379	0.488
584.000	358.973	80.003	19.995	101.010	18.841	71.357	0.505
586.000	360.035	80.005	19.999	101.001	18.846	70.998	0.513
588.000	361.021	80.004	19.997	100.990	18.854	70.477	0.493
590.000	362.048	80.009	19.997	100.984	18.860	70.120	0.512
592.000	363.063	80.007	19.996	100.971	18.875	69.172	0.519
594.001	364.082	80.000	20.000	100.951	18.888	68.361	0.522
596.000	365.078	80.002	19.999	100.952	18.907	67.151	0.517
598.000	366.126	80.003	19.996	100.933	18.928	65.808	0.529
600.000	367.159	80.002	19.995	100.915	18.950	64.410	0.493
602.000	368.197	80.004	19.997	100.912	18.974	62.917	0.521
604.000	369.238	80.005	19.998	100.897	19.001	61.213	0.517
606.000	370.266	80.002	19.995	100.878	19.025	59.705	0.547
608.000	371.282	80.000	19.998	100.873	19.052	57.961	0.512
610.000	372.351	80.003	19.997	100.870	19.081	56.133	0.511
612.000	373.387	80.015	19.992	100.845	19.106	54.597	0.502
614.000	374.387	80.004	19.999	100.837	19.134	52.846	0.516
616.000	375.486	80.006	19.994	100.831	19.156	51.412	0.548
618.000	376.487	80.008	20.000	100.836	19.181	49.851	0.524
620.000	377.572	80.004	19.992	100.834	19.200	48.685	0.547
622.000	378.583	80.007	19.994	100.829	19.217	47.573	0.528
624.000	379.658	80.006	19.999	100.829	19.235	46.445	0.538
626.000	380.652	79.999	19.995	100.829	19.243	45.946	0.503
628.000	381.692	80.003	19.996	100.832	19.257	45.085	0.471
630.000	382.751	80.003	20.000	100.833	19.264	44.671	0.528
632.000	383.771	80.000	19.993	100.832	19.271	44.179	0.473
634.000	384.820	80.006	19.993	100.819	19.279	43.669	0.544
636.000	385.839	80.003	19.994	100.826	19.278	43.773	0.533
638.000	386.845	80.005	19.993	100.827	19.282	43.534	0.490
640.000	387.846	80.003	19.996	100.832	19.280	43.640	0.477
642.000	388.918	80.006	19.997	100.827	19.279	43.687	0.557
644.000	389.899	80.003	19.995	100.824	19.278	43.783	0.477
646.000	390.922	79.999	19.994	100.818	19.273	44.056	0.505
648.000	391.951	80.007	19.998	100.816	19.269	44.313	0.522
650.001	392.961	80.002	19.994	100.829	19.267	44.454	0.517
652.000	393.955	80.004	19.992	100.822	19.261	44.828	0.503
654.000	394.974	80.004	19.995	100.811	19.256	45.120	0.485
656.000	395.967	80.005	20.002	100.827	19.251	45.466	0.507
658.000	396.996	80.002	19.993	100.818	19.246	45.741	0.498
660.000	397.954	79.994	19.998	100.809	19.238	46.254	0.483
662.000	398.948	80.009	19.996	100.807	19.231	46.741	0.514
664.000	399.916	80.002	19.998	100.812	19.225	47.070	0.472
666.000	400.905	80.007	19.995	100.817	19.216	47.639	0.486
668.000	401.879	80.008	19.995	100.815	19.209	48.090	0.474
670.000	402.858	80.000	20.005	100.821	19.206	48.309	0.504
672.000	403.841	79.999	20.003	100.823	19.198	48.759	0.500
674.000	404.783	80.003	19.998	100.817	19.188	49.430	0.474
676.000	405.771	80.006	19.996	100.825	19.178	50.060	0.475
678.000	406.788	80.002	19.997	100.825	19.174	50.301	0.489
680.001	407.783	80.004	19.995	100.817	19.166	50.818	0.518
682.000	408.759	80.003	19.997	100.821	19.156	51.413	0.480
684.000	409.707	80.004	19.997	100.806	19.148	51.954	0.469
686.001	410.721	80.004	19.999	100.805	19.142	52.300	0.509
688.000	411.682	80.001	19.997	100.812	19.132	52.910	0.485
690.000	412.671	80.004	19.996	100.814	19.128	53.213	0.499
692.000	413.648	80.003	19.995	100.798	19.117	53.880	0.500
694.000	414.571	80.007	19.994	100.808	19.108	54.424	0.471
696.000	415.563	80.009	19.996	100.810	19.100	54.965	0.447
698.000	416.552	80.010	19.997	100.814	19.090	55.567	0.486
700.000	417.573	80.006	19.998	100.811	19.085	55.926	0.523
702.000	418.590	80.004	19.992	100.817	19.074	56.560	0.510
704.000	419.593	80.000	19.993	100.814	19.062	57.348	0.516
706.000	420.580	80.006	19.989	100.823	19.048	58.201	0.509
708.000	421.650	80.002	19.996	100.827	19.042	58.613	0.518
710.000	422.666	80.005	19.998	100.820	19.028	59.478	0.482
712.000	423.722	80.010	19.993	100.824	19.020	60.006	0.499
714.000	424.782	80.004	19.994	100.815	19.009	60.654	0.504
716.000	425.753	80.007	19.995	100.815	18.996	61.456	0.494
718.000	426.881	80.009	19.994	100.810	18.988	62.008	0.556
720.000	427.866	80.001	19.997	100.812	18.975	62.830	0.484
722.000	428.971	80.001	19.998	100.805	18.964	63.507	0.518
724.000	430.060	80.009	19.993	100.804	18.954	64.153	0.541
726.000	431.100	80.010	19.994	100.797	18.945	64.723	0.493
728.000	432.203	80.006	19.995	100.798	18.930	65.627	0.548
730.000	433.225	80.003	19.995	100.797	18.919	66.315	0.462
732.000	434.288	80.004	19.992	100.795	18.911	66.812	0.504
734.000	435.354	80.001	19.997	100.798	18.897	67.707	0.560
736.000	436.402	80.007	19.994	100.796	18.888	68.291	0.550
738.000	437.402	80.002	20.000	100.796	18.881	68.703	0.553
740.000	438.447	80.007	19.996	100.795	18.869	69.451	0.500
742.000	439.508	80.005	19.995	100.796	18.864	69.766	0.526
744.000	440.545	80.007	19.993	100.795	18.857	70.201	0.520
746.000	441.587	80.008	19.996	100.794	18.851	70.582	0.534
748.000	442.592	80.007	19.996	100.788	18.844	71.024	0.494
750.000	443.620	80.004	19.994	100.793	18.841	71.258	0.521
752.000	444.647	80.003	19.992	100.789	18.835	71.589	0.539
754.000	445.639	80.004	19.995	100.798	18.835	71.583	0.524
756.000	446.649	80.003	19.997	100.795	18.837	71.473	0.496
758.000	447.649	80.006	19.995	100.796	18.836	71.540	0.511
760.000	448.678	80.005	19.997	100.796	18.839	71.345	0.504
762.000	449.645	80.003	19.996	100.795	18.843	71.122	0.478
764.001	450.665	80.006	19.995	100.798	18.849	70.707	0.502
766.000	451.651	80.005	19.996	100.790	18.853	70.469	0.513
768.000	452.633	80.004	19.993	100.779	18.858	70.190	0.476
770.000	453.643	80.005	19.997	100.793	18.868	69.504	0.481
772.000	454.649	80.005	19.997	100.791	18.879	68.822	0.479
774.000	455.624	80.004	19.996	100.787	18.894	67.917	0.503
776.000	456.618	80.004	19.994	100.790	18.903	67.314	0.481
778.000	457.587	80.004	19.997	100.792	18.922	66.092	0.472
780.000	458.543	80.006	19.997	100.792	18.937	65.174	0.494
782.000	459.517	80.004	19.995	100.790	18.957	63.911	0.519
784.000	460.496	80.006	19.993	100.795	18.976	62.766	0.486
786.000	461.521	80.008	20.000	100.798	18.998	61.362	0.527
788.000	462.468	80.002	20.003	100.783	19.016	60.212	0.463
790.000	463.473	80.009	19.995	100.777	19.039	58.771	0.498
792.001	464.458	80.006	19.996	100.797	19.062	57.358	0.468
794.001	465.431	80.005	19.997	100.793	19.087	55.781	0.468
796.000	466.451	80.010	19.995	100.795	19.115	54.002	0.490
798.000	467.427	80.009	19.994	100.796	19.143	52.219	0.509
800.000	468.485	80.005	19.992	100.793	19.170	50.572	0.515
802.000	469.450	80.007	19.995	100.796	19.195	48.981	0.506
804.000	470.499	80.002	19.993	100.797	19.222	47.259	0.541
806.000	471.487	80.009	19.994	100.795	19.251	45.460	0.575
808.000	472.505	80.010	19.995	100.800	19.280	43.626	0.522
810.000	473.529	80.005	19.999	100.800	19.310	41.768	0.506
812.000	474.552	80.006	19.994	100.819	19.330	40.468	0.554
814.000	475.635	80.005	19.996	100.824	19.361	38.510	0.534
816.000	476.677	80.005	19.994	100.812	19.384	37.082	0.537
818.000	477.676	80.006	19.997	100.808	19.412	35.296	0.501
820.000	478.677	80.004	19.996	100.814	19.437	33.732	0.517
822.000	479.710	80.005	19.996	100.822	19.461	32.276	0.493
824.000	480.714	80.006	19.993	100.811	19.489	30.474	0.489
826.000	481.738	80.005	19.995	100.820	19.514	28.943	0.517
828.000	482.752	80.004	19.999	100.816	19.532	27.787	0.529
830.000	483.818	80.006	19.994	100.828	19.551	26.576	0.587
832.000	484.744	80.004	19.996	100.831	19.576	24.985	0.459
834.000	485.762	80.006	19.993	100.831	19.594	23.911	0.529
836.000	486.770	80.004	19.993	100.836	19.614	22.620	0.519
838.000	487.794	80.005	19.988	100.839	19.628	21.753	0.484
840.000	488.832	80.007	19.992	100.841	19.645	20.697	0.530
842.000	489.860	80.007	19.993	100.842	19.659	19.786	0.518
844.000	490.907	80.002	19.997	100.838	19.673	18.896	0.524
846.000	491.912	80.003	19.995	100.840	19.687	18.019	0.523
848.000	492.980	80.004	19.998	100.837	19.698	17.317	0.574
850.000	494.060	80.002	19.997	100.836	19.711	16.533	0.561
852.000	495.083	80.005	19.997	100.836	19.719	16.027	0.504
854.000	496.125	80.005	19.995	100.835	19.729	15.382	0.494
856.000	497.159	80.006	19.998	100.835	19.741	14.608	0.506
858.000	498.202	80.005	19.997	100.834	19.752	13.911	0.524
860.000	499.261	80.008	19.996	100.832	19.761	13.359	0.503
862.000	500.271	80.006	19.995	100.830	19.767	12.996	0.511
864.000	501.320	80.005	19.997	100.834	19.779	12.228	0.554
866.001	502.329	80.005	19.996	100.833	19.780	12.187	0.511
868.000	503.340	80.006	19.996	100.833	19.789	11.630	0.517
870.000	504.419	80.005	19.996	100.830	19.796	11.148	0.555
872.000	505.434	80.009	19.998	100.826	19.801	10.834	0.512
874.000	506.425	80.006	19.998	100.829	19.807	10.484	0.524
876.000	507.439	80.005	19.994	100.829	19.808	10.420	0.518
878.000	508.444	80.005	19.997	100.833	19.815	9.989	0.487
880.000	509.494	80.006	19.996	100.832	19.821	9.617	0.521
882.000	510.484	80.005	19.995	100.826	19.824	9.416	0.504
884.000	511.451	80.007	19.996	100.829	19.831	8.973	0.502
886.000	512.439	80.008	19.993	100.831	19.835	8.712	0.507
888.000	513.392	80.006	19.997	100.825	19.842	8.261	0.479
890.000	514.445	80.002	19.998	100.824	19.837	8.562	0.530
892.000	515.402	80.008	19.990	100.836	19.845	8.088	0.467
894.000	516.428	80.002	20.001	100.837	19.848	7.890	0.499
896.000	517.476	80.006	19.994	100.832	19.846	8.010	0.520
898.000	518.500	80.006	19.996	100.833	19.853	7.583	0.516
900.000	519.540	80.004	19.995	100.832	19.850	7.775	0.494
902.000	520.516	80.005	19.997	100.834	19.852	7.629	0.497
904.000	521.523	80.005	19.994	100.825	19.854	7.512	0.485
906.000	522.524	80.002	19.998	100.830	19.856	7.373	0.516
908.000	523.576	80.003	19.998	100.821	19.857	7.343	0.501
910.000	524.628	80.005	19.996	100.834	19.861	7.067	0.506
912.000	525.641	80.003	19.997	100.827	19.860	7.145	0.526
914.000	526.642	80.005	19.997	100.807	19.864	6.887	0.498
916.000	527.692	80.008	19.990	100.791	19.866	6.795	0.551
918.000	528.714	80.005	19.996	100.811	19.870	6.533	0.495
920.000	529.738	80.008	19.997	100.796	19.871	6.476	0.498
922.001	530.791	80.004	19.994	100.795	19.871	6.419	0.524
924.000	531.835	80.007	19.994	100.799	19.872	6.366	0.556
926.000	532.881	80.005	19.994	100.802	19.870	6.502	0.534
928.000	533.935	80.004	19.995	100.800	19.870	6.530	0.535
930.000	535.000	80.007	19.996	100.816	19.869	6.562	0.537
932.000	536.118	80.007	19.995	100.808	19.873	6.318	0.522
934.000	537.287	80.005	19.996	100.806	19.871	6.424	0.570
936.000	538.345	80.005	19.996	100.800	19.873	6.344	0.533
938.000	539.471	80.007	19.996	100.803	19.870	6.543	0.550
940.000	540.565	80.010	19.992	100.799	19.869	6.574	0.534
942.000	541.695	80.006	19.995	100.802	19.873	6.347	0.562
944.000	542.843	80.007	19.994	100.800	19.872	6.400	0.536
946.000	543.992	80.007	19.996	100.799	19.876	6.105	0.586
948.000	545.108	80.007	19.995	100.799	19.875	6.168	0.573
950.000	546.252	80.005	19.995	100.798	19.875	6.218	0.537
952.000	547.385	80.007	19.995	100.800	19.874	6.259	0.567
954.000	548.541	80.007	19.995	100.800	19.876	6.158	0.553
956.000	549.701	80.007	19.996	100.802	19.879	5.933	0.597
958.000	550.871	80.006	19.994	100.800	19.879	5.925	0.558
960.000	552.024	80.005	19.995	100.800	19.878	6.024	0.583
962.000	553.153	80.007	19.997	100.800	19.881	5.811	0.577
964.000	554.359	80.007	19.996	100.802	19.877	6.078	0.567
966.000	555.486	80.008	19.995	100.799	19.880	5.884	0.577
968.000	556.627	80.007	19.994	100.801	19.884	5.645	0.580
970.000	557.753	80.006	19.995	100.799	19.881	5.824	0.554
972.000	558.914	80.006	19.995	100.805	19.882	5.770	0.580
974.000	560.028	80.005	19.996	100.799	19.882	5.768	0.561
976.000	561.214	80.005	19.996	100.799	19.881	5.807	0.580
978.000	562.315	80.005	19.996	100.798	19.883	5.705	0.567
980.000	563.424	80.005	19.997	100.800	19.881	5.807	0.576
982.000	564.500	80.006	19.996	100.795	19.882	5.741	0.542
984.000	565.623	80.006	19.996	100.796	19.882	5.747	0.542
986.000	566.738	80.005	19.996	100.798	19.881	5.836	0.554
988.000	567.846	80.006	19.996	100.799	19.878	6.005	0.545
990.000	568.996	80.005	19.996	100.798	19.881	5.845	0.537
992.000	570.049	80.006	19.995	100.799	19.881	5.814	0.559
994.000	571.117	80.007	19.995	100.796	19.882	5.739	0.536
996.000	572.199	80.007	19.997	100.796	19.882	5.768	0.551
998.000	573.227	80.005	19.995	100.796	19.883	5.708	0.546
1000.000	574.335	80.007	19.995	100.798	19.882	5.732	0.537
1002.000	575.409	80.006	19.996	100.797	19.882	5.773	0.559
1004.000	576.449	80.005	19.996	100.797	19.882	5.729	0.498
1006.000	577.478	80.005	19.996	100.798	19.884	5.633	0.524
1008.000	578.513	80.007	19.995	100.796	19.881	5.790	0.500
1010.000	579.553	80.006	19.995	100.797	19.881	5.817	0.511
1012.000	580.568	80.004	19.995	100.798	19.881	5.811	0.529
1014.000	581.540	80.005	19.996	100.801	19.882	5.788	0.504
1016.000	582.586	80.005	19.995	100.799	19.882	5.739	0.493
1018.000	583.563	80.005	19.996	100.798	19.881	5.809	0.484
1020.000	584.579	80.006	19.995	100.798	19.879	5.950	0.539
1022.000	585.585	80.006	19.995	100.799	19.883	5.709	0.465
1024.000	586.613	80.007	19.995	100.799	19.884	5.647	0.522
1025.999	587.554	80.007	19.994	100.799	19.886	5.526	0.471
1027.999	588.556	80.007	19.994	100.798	19.883	5.681	0.471
1029.999	589.586	80.006	19.996	100.796	19.884	5.647	0.501
1031.999	590.559	80.007	19.995	100.799	19.885	5.582	0.487
1034.000	591.514	80.005	19.995	100.801	19.884	5.637	0.465
1035.999	592.525	80.007	19.995	100.800	19.881	5.797	0.497
1038.000	593.528	80.005	19.995	100.802	19.884	5.660	0.520
1039.999	594.561	80.006	19.996	100.802	19.886	5.492	0.496
1042.000	595.556	80.006	19.996	100.800	19.883	5.676	0.491
1043.999	596.525	80.005	19.997	100.799	19.886	5.533	0.485
1045.999	597.523	80.008	19.996	100.800	19.884	5.647	0.492
1047.999	598.550	80.009	19.996	100.797	19.885	5.545	0.513
1050.000	599.501	80.009	19.996	100.794	19.883	5.722	0.487
1051.999	600.524	80.007	19.996	100.795	19.882	5.734	0.514
1053.999	601.503	80.007	19.996	100.795	19.884	5.611	0.536
1056.000	602.454	80.007	19.994	100.794	19.885	5.591	0.481
1057.999	603.454	80.007	19.996	100.795	19.884	5.660	0.486
1060.000	604.436	80.005	19.995	100.795	19.884	5.657	0.489
1061.999	605.429	80.007	19.997	100.796	19.883	5.681	0.505
1064.000	606.427	80.005	19.995	100.796	19.883	5.681	0.504
1066.000	607.410	80.005	19.996	100.795	19.884	5.654	0.476
1068.000	608.426	80.006	19.997	100.795	19.882	5.764	0.493
1069.999	609.445	80.005	19.996	100.796	19.880	5.894	0.525
1071.999	610.479	80.005	19.996	100.796	19.880	5.872	0.495
1073.999	611.477	80.005	19.996	100.799	19.878	6.008	0.519
1075.999	612.512	80.006	19.996	100.793	19.881	5.841	0.511
1077.999	613.557	80.006	19.996	100.794	19.881	5.848	0.511
1079.999	614.615	80.006	19.995	100.795	19.881	5.821	0.546
1082.000	615.626	80.007	19.995	100.795	19.883	5.702	0.525
1083.999	616.631	80.006	19.995	100.797	19.883	5.712	0.484
1085.999	617.684	80.004	19.995	100.800	19.881	5.819	0.551
1087.999	618.706	80.005	19.995	100.800	19.881	5.797	0.500
1089.999	619.710	80.005	19.994	100.800	19.883	5.702	0.504
1091.999	620.730	80.005	19.995	100.801	19.883	5.681	0.517
1093.999	621.753	80.004	19.995	100.804	19.882	5.763	0.523
1095.999	622.788	80.005	19.995	100.801	19.884	5.634	0.527
1097.999	623.806	80.005	19.994	100.801	19.887	5.472	0.485
1100.000	624.870	80.006	19.996	100.804	19.882	5.735	0.521
1102.001	625.900	80.006	19.995	100.803	19.882	5.761	0.505
1104.000	626.934	80.006	19.994	100.803	19.882	5.729	0.495
1105.999	627.948	80.007	19.996	100.802	19.882	5.749	0.512
1107.999	628.990	80.008	19.995	100.803	19.885	5.574	0.514
1109.999	630.044	80.008	19.996	100.809	19.880	5.863	0.521
1111.999	631.066	80.008	19.995	100.813	19.885	5.548	0.530
1113.999	632.086	80.006	19.994	100.800	19.885	5.538	0.507
1115.999	633.123	80.006	19.995	100.795	19.886	5.499	0.520
1117.999	634.194	80.007	19.995	100.796	19.887	5.433	0.552
1120.000	635.220	80.006	19.995	100.796	19.883	5.705	0.519
1121.999	636.280	80.007	19.995	100.797	19.884	5.603	0.533
1123.999	637.317	80.006	19.995	100.797	19.886	5.495	0.518
1126.000	638.403	80.007	19.995	100.800	19.882	5.771	0.557
1128.000	639.415	80.007	19.994	100.800	19.883	5.705	0.507
1129.999	640.471	80.007	19.995	100.800	19.883	5.667	0.541
1131.999	641.481	80.009	19.995	100.802	19.886	5.495	0.520
1133.999	642.492	80.008	19.995	100.796	19.884	5.623	0.506
1136.000	643.549	80.008	19.995	100.796	19.883	5.684	0.530
1137.999	644.518	80.008	19.995	100.794	19.885	5.550	0.499
1139.999	645.474	80.006	19.996	100.797	19.885	5.574	0.457
1141.999	646.483	80.007	19.996	100.795	19.884	5.659	0.470
1144.000	647.531	80.005	19.995	100.796	19.885	5.576	0.521
1145.999	648.572	80.006	19.995	100.796	19.884	5.629	0.502
1147.999	649.549	80.006	19.994	100.798	19.884	5.620	0.469
1149.999	650.555	80.005	19.996	100.799	19.884	5.617	0.508
1151.999	651.560	80.007	19.995	100.800	19.884	5.612	0.513
1154.000	652.566	80.004	19.995	100.801	19.886	5.520	0.486
1156.000	653.561	80.004	19.995	100.801	19.886	5.475	0.503
1157.999	654.600	80.005	19.996	100.807	19.884	5.613	0.505
1159.999	655.603	80.005	19.996	100.808	19.887	5.474	0.512
1161.999	656.575	80.005	19.996	100.815	19.885	5.589	0.485
1164.000	657.602	80.005	19.995	100.806	19.889	5.322	0.513
1166.000	658.631	80.006	19.996	100.803	19.890	5.242	0.539
1167.999	659.572	80.004	19.996	100.802	19.883	5.676	0.489
1169.999	660.610	80.005	19.997	100.808	19.886	5.490	0.510
1172.000	661.596	80.007	19.996	100.811	19.883	5.672	0.533
1173.999	662.499	80.005	19.996	100.801	19.886	5.530	0.455
1175.999	663.527	80.005	19.995	100.801	19.884	5.652	0.478
1177.999	664.461	80.005	19.996	100.799	19.885	5.542	0.462
1180.001	665.431	80.005	19.996	100.801	19.886	5.491	0.471
1181.999	666.316	80.006	19.995	100.796	19.887	5.412	0.440
1183.999	667.298	80.006	19.995	100.798	19.890	5.286	0.456
1186.000	668.244	80.007	19.995	100.800	19.890	5.264	0.491
1188.000	669.207	80.006	19.995	100.800	19.891	5.220	0.506
1189.999	670.078	80.008	19.996	100.800	19.887	5.470	0.469
1191.999	671.005	80.007	19.995	100.798	19.886	5.533	0.446
1193.999	671.955	80.007	19.995	100.800	19.886	5.494	0.456
1195.999	672.908	80.007	19.995	100.802	19.884	5.642	0.465
1197.999	673.837	80.006	19.994	100.800	19.885	5.572	0.473
1199.999	674.789	80.006	19.994	100.801	19.884	5.603	0.487
1201.999	675.716	80.007	19.995	100.796	19.886	5.524	0.484
1203.999	676.670	80.005	19.996	100.808	19.884	5.634	0.466
1206.000	677.621	80.007	19.995	100.809	19.884	5.661	0.481
1208.001	678.595	80.006	19.995	100.815	19.883	5.724	0.514
1209.999	679.568	80.007	19.995	100.831	19.883	5.683	0.504
1211.999	680.557	80.007	19.995	100.826	19.885	5.587	0.471
1214.001	681.606	80.008	19.995	100.804	19.884	5.637	0.507
1215.999	682.681	80.007	19.995	100.820	19.883	5.693	0.530
1218.000	683.771	80.007	19.994	100.830	19.882	5.764	0.533
1219.999	684.857	80.008	19.994	100.821	19.886	5.504	0.548
1221.999	685.940	80.006	19.995	100.826	19.882	5.773	0.564
1224.000	687.051	80.005	19.994	100.823	19.884	5.654	0.560
1225.999	688.164	80.005	19.995	100.827	19.881	5.834	0.556
1228.000	689.315	80.004	19.996	100.824	19.879	5.919	0.576
1230.000	690.459	80.004	19.995	100.823	19.878	6.013	0.568
1231.999	691.618	80.005	19.995	100.821	19.880	5.883	0.563
1233.999	692.769	80.006	19.995	100.831	19.881	5.805	0.602
1235.999	693.890	80.005	19.995	100.827	19.879	5.931	0.563
1237.999	695.068	80.004	19.995	100.822	19.878	5.994	0.580
1239.999	696.217	80.005	19.996	100.831	19.882	5.774	0.561
1241.999	697.370	80.006	19.995	100.812	19.880	5.903	0.568
1244.000	698.465	80.007	19.995	100.822	19.874	6.288	0.528
1245.999	699.620	80.005	19.995	100.816	19.876	6.118	0.543
1247.999	700.787	80.006	19.995	100.827	19.878	6.003	0.559
1249.999	701.918	80.005	19.996	100.811	19.881	5.849	0.572
1252.000	703.066	80.005	19.996	100.809	19.882	5.770	0.591
1253.999	704.186	80.006	19.996	100.812	19.877	6.069	0.574
1255.999	705.324	80.004	19.997	100.793	19.881	5.809	0.598
1257.999	706.480	80.004	19.997	100.798	19.882	5.758	0.541
1259.999	707.571	80.005	19.996	100.796	19.880	5.853	0.575
1261.999	708.678	80.004	19.997	100.794	19.883	5.695	0.561
1263.999	709.821	80.005	19.997	100.796	19.882	5.746	0.557
1265.999	710.947	80.005	19.996	100.799	19.881	5.836	0.563
1267.999	711.993	80.006	19.996	100.808	19.877	6.057	0.519
1269.999	713.114	80.007	19.996	100.798	19.881	5.819	0.528
1271.999	714.211	80.007	19.995	100.808	19.877	6.073	0.515
1273.999	715.269	80.006	19.995	100.786	19.879	5.957	0.498
1275.999	716.418	80.007	19.997	100.797	19.881	5.799	0.563
1277.999	717.492	80.007	19.994	100.796	19.880	5.885	0.530
1279.999	718.533	80.007	19.994	100.796	19.879	5.938	0.515
1282.000	719.609	80.007	19.996	100.800	19.881	5.831	0.503
1283.999	720.663	80.006	19.995	100.799	19.882	5.787	0.506
1286.000	721.690	80.005	19.996	100.797	19.881	5.807	0.510
1287.999	722.739	80.007	19.995	100.798	19.885	5.543	0.510
1289.999	723.838	80.006	19.995	100.796	19.884	5.613	0.548
1291.999	724.830	80.009	19.995	100.799	19.881	5.834	0.500
1293.999	725.870	80.009	19.995	100.798	19.881	5.831	0.521
1295.999	726.878	80.008	19.994	100.796	19.884	5.637	0.495
1297.999	727.899	80.008	19.993	100.794	19.882	5.766	0.522
1299.999	728.993	80.007	19.995	100.791	19.883	5.684	0.524
1301.999	729.965	80.008	19.995	100.797	19.883	5.710	0.533
1303.999	731.003	80.007	19.994	100.798	19.882	5.728	0.540
1305.999	732.006	80.006	19.996	100.797	19.884	5.653	0.482
1307.999	733.012	80.005	19.995	100.797	19.883	5.681	0.501
1309.999	734.021	80.005	19.994	100.797	19.882	5.758	0.506
1311.999	735.071	80.005	19.995	100.793	19.882	5.757	0.513
1313.999	736.072	80.006	19.995	100.791	19.880	5.906	0.488
1316.000	737.083	80.006	19.995	100.789	19.885	5.599	0.510
1317.999	738.129	80.006	19.996	100.790	19.880	5.889	0.537
1319.999	739.135	80.007	19.995	100.795	19.883	5.700	0.501
1322.000	740.162	80.007	19.996	100.795	19.879	5.931	0.524
1323.999	741.168	80.006	19.996	100.791	19.877	6.049	0.536
1325.999	742.209	80.005	19.996	100.795	19.881	5.846	0.523
1327.999	743.204	80.006	19.995	100.796	19.882	5.780	0.499
1328.499	743.445	80.006	19.995	100.795	19.881	5.798	0.498