File: 01_Data/Fiberglass_Insulation_R30_Paper_Faced_Paper/MCC/Fiberglass_Insulation_R30_Paper_Faced_Paper_MCC_30K_min_220217_R1.txt
Sample ID:	C:\MCC\MCC Cal\Test\Fiberglas_Insulation3A_MCC_30K_min_220217_R1.txt
Sample Weight (mg):	4.8
Heating Rate (C/s):	0.5
Combustor Temp (C):	900
N2 Flow Rate (cc/min):	80
O2 Flow Rate (cc/min):	20
Calibration File:	C:\MCC\MCC Cal\Coeff1 JN10440_30_210304.txt.txt
T Correction Coefficients:	0	1.024463	0
Time Shift (s):	14
*
Time (s)	Temperature (C)	N2 flow rate (cc/min)	O2 flow rate (cc/min)	Flow Rate (cc/min)	Oxygen (%)	HRR (W/g)	Heating rate (C/s)
0.000	116.726	80.006	19.995	103.704	19.928	-0.065	0.005
1.500	116.733	80.001	19.995	103.710	19.927	0.022	0.018
3.000	116.683	80.003	19.996	103.655	19.930	-0.170	-0.024
4.500	116.665	80.004	19.995	103.659	19.930	-0.203	0.006
6.000	116.696	80.002	19.995	103.703	19.930	-0.177	0.014
7.500	116.666	80.003	19.996	103.699	19.925	0.158	-0.002
9.000	116.665	80.005	19.994	103.690	19.929	-0.157	0.033
10.500	116.664	80.006	19.994	103.704	19.928	-0.035	-0.014
12.000	116.639	80.005	19.995	103.715	19.927	-0.013	0.006
13.500	116.681	80.006	19.994	103.726	19.923	0.254	0.043
15.000	116.658	80.006	19.994	103.751	19.924	0.229	-0.019
16.500	116.672	80.009	19.993	103.760	19.920	0.494	0.021
18.000	116.725	80.005	19.993	103.778	19.915	0.800	0.019
19.500	116.788	80.006	19.994	103.806	19.913	0.976	0.039
21.000	116.810	80.005	19.994	103.825	19.911	1.103	0.028
22.500	116.881	80.005	19.993	103.853	19.908	1.260	0.018
24.000	116.976	80.007	19.993	103.887	19.899	1.913	0.076
25.500	117.110	80.008	19.993	103.894	19.898	1.968	0.099
27.000	117.236	80.004	19.993	103.888	19.897	2.024	0.082
28.500	117.375	79.990	19.995	103.900	19.893	2.308	0.100
30.000	117.576	80.009	19.993	103.911	19.893	2.327	0.132
31.500	117.755	80.007	19.992	103.931	19.891	2.460	0.146
33.000	117.972	80.009	19.993	103.943	19.886	2.790	0.159
34.500	118.171	80.001	19.993	103.948	19.888	2.652	0.149
36.000	118.474	80.006	19.993	103.956	19.887	2.739	0.205
37.500	118.709	80.008	19.993	103.963	19.883	2.993	0.155
39.000	119.007	80.008	19.993	103.978	19.882	3.079	0.203
40.500	119.312	80.009	19.992	103.987	19.882	3.072	0.195
42.000	119.697	80.006	19.994	104.003	19.878	3.343	0.258
43.500	120.029	80.005	19.993	104.007	19.879	3.270	0.223
45.000	120.424	80.005	19.993	103.993	19.881	3.134	0.260
46.500	120.788	80.002	19.994	103.991	19.878	3.348	0.251
48.000	121.230	80.008	19.992	103.987	19.873	3.673	0.272
49.500	121.628	80.002	19.994	103.990	19.875	3.531	0.261
51.000	122.116	80.002	19.993	103.998	19.880	3.158	0.312
52.500	122.585	80.007	19.991	103.997	19.873	3.632	0.327
54.000	123.092	80.003	19.993	103.998	19.874	3.579	0.318
55.500	123.576	80.005	19.993	103.995	19.875	3.534	0.326
57.000	124.051	80.001	19.993	103.994	19.879	3.254	0.335
58.500	124.588	80.006	19.993	103.988	19.878	3.297	0.362
60.000	125.104	79.997	19.993	103.981	19.878	3.297	0.362
61.500	125.658	80.007	19.994	103.989	19.876	3.448	0.383
63.000	126.234	80.001	19.994	103.988	19.878	3.313	0.382
64.500	126.805	80.005	19.994	103.970	19.875	3.505	0.387
66.000	127.328	79.990	19.996	103.968	19.876	3.449	0.354
67.501	127.976	80.005	19.993	103.966	19.879	3.235	0.436
69.000	128.578	80.008	19.993	103.967	19.880	3.158	0.386
70.500	129.176	80.005	19.993	103.961	19.879	3.215	0.407
72.000	129.816	79.996	19.994	103.958	19.876	3.440	0.429
73.500	130.452	79.996	19.995	103.958	19.876	3.445	0.407
75.000	131.078	80.015	19.994	103.951	19.874	3.589	0.408
76.500	131.758	80.003	19.995	103.945	19.873	3.639	0.469
78.000	132.376	80.002	19.995	103.948	19.871	3.762	0.423
79.500	133.027	80.006	19.994	103.947	19.873	3.661	0.446
81.000	133.711	79.999	19.994	103.923	19.873	3.669	0.472
82.500	134.417	80.004	19.995	103.895	19.873	3.682	0.455
84.000	135.081	79.996	19.993	103.898	19.875	3.497	0.446
85.500	135.756	80.001	19.994	103.964	19.878	3.348	0.446
87.000	136.457	80.001	19.995	103.984	19.880	3.207	0.467
88.500	137.155	80.006	19.994	103.972	19.877	3.404	0.480
90.000	137.846	80.006	19.994	103.964	19.874	3.596	0.476
91.500	138.570	80.003	19.993	103.972	19.877	3.400	0.454
93.000	139.325	80.003	19.995	103.982	19.877	3.365	0.488
94.500	140.071	80.008	19.994	103.969	19.882	3.038	0.516
96.000	140.822	80.006	19.995	103.970	19.876	3.437	0.523
97.500	141.516	80.000	19.995	103.966	19.879	3.256	0.482
99.000	142.280	80.007	19.994	103.966	19.882	3.060	0.500
100.501	143.023	80.004	19.994	103.970	19.879	3.265	0.505
102.000	143.760	80.005	19.996	103.960	19.876	3.466	0.498
103.500	144.505	80.004	19.997	103.978	19.880	3.196	0.527
105.001	145.303	80.004	19.995	103.987	19.884	2.933	0.519
106.500	146.022	80.004	19.996	103.975	19.884	2.923	0.504
108.000	146.838	80.004	19.995	103.960	19.877	3.383	0.526
109.500	147.546	80.001	19.995	103.956	19.882	3.071	0.471
111.000	148.328	79.978	19.997	103.951	19.884	2.912	0.514
112.500	149.096	80.010	19.993	103.943	19.882	3.076	0.520
114.000	149.882	79.999	19.994	103.954	19.883	3.011	0.510
115.500	150.645	80.009	19.995	103.956	19.881	3.110	0.518
117.000	151.385	80.009	19.994	103.956	19.882	3.037	0.498
118.500	152.186	80.005	19.995	103.957	19.883	3.003	0.531
120.000	152.939	79.987	19.996	103.952	19.883	2.988	0.498
121.500	153.711	80.018	19.992	103.948	19.882	3.058	0.496
123.001	154.463	80.004	19.993	103.951	19.884	2.895	0.520
124.500	155.259	80.007	19.992	103.952	19.886	2.781	0.523
126.000	155.999	80.008	19.994	103.952	19.884	2.906	0.487
127.500	156.801	80.006	19.993	103.948	19.881	3.102	0.537
129.000	157.558	79.998	19.993	103.945	19.882	3.046	0.499
130.500	158.318	80.008	19.993	103.945	19.879	3.224	0.500
132.000	159.084	79.997	19.995	103.948	19.887	2.718	0.489
133.500	159.846	79.989	19.995	103.948	19.886	2.786	0.518
135.000	160.621	80.016	19.993	103.949	19.882	3.028	0.506
136.500	161.399	80.002	19.995	103.943	19.885	2.812	0.541
138.000	162.159	79.991	19.995	103.929	19.884	2.916	0.527
139.500	162.968	80.013	19.993	103.937	19.887	2.736	0.528
141.000	163.672	79.996	19.995	103.951	19.883	2.950	0.496
142.500	164.479	80.004	19.994	103.945	19.887	2.709	0.537
144.000	165.255	80.005	19.994	103.935	19.885	2.819	0.515
145.500	166.017	79.994	19.994	103.916	19.883	2.963	0.526
147.000	166.770	80.002	19.995	103.904	19.886	2.784	0.479
148.500	167.560	80.012	19.991	103.907	19.886	2.751	0.524
150.000	168.266	79.977	19.995	103.917	19.884	2.926	0.478
151.500	169.034	79.994	19.994	103.910	19.884	2.915	0.504
153.000	169.769	80.025	19.992	103.906	19.885	2.818	0.475
154.500	170.561	80.007	19.992	103.906	19.887	2.685	0.517
156.000	171.305	80.003	19.994	103.911	19.886	2.752	0.514
157.500	172.042	80.005	19.994	103.912	19.886	2.762	0.475
159.000	172.772	80.010	19.995	103.916	19.888	2.662	0.501
160.500	173.567	80.002	19.994	103.923	19.885	2.813	0.557
162.000	174.328	80.010	19.997	103.926	19.884	2.883	0.517
163.500	175.072	79.996	19.996	103.917	19.889	2.560	0.489
165.000	175.846	80.004	19.995	103.913	19.886	2.802	0.479
166.500	176.535	80.011	19.994	103.908	19.886	2.754	0.464
168.000	177.317	80.004	19.995	103.910	19.882	3.075	0.512
169.500	178.064	79.999	19.996	103.902	19.883	2.974	0.494
171.000	178.801	80.014	19.995	103.895	19.885	2.820	0.480
172.500	179.519	80.000	19.996	103.903	19.888	2.642	0.477
174.000	180.294	80.001	19.997	103.906	19.880	3.157	0.511
175.500	181.006	79.997	19.995	103.906	19.886	2.763	0.480
177.000	181.736	79.997	19.996	103.905	19.888	2.640	0.478
178.500	182.506	80.003	19.996	103.909	19.885	2.832	0.503
180.000	183.209	80.001	19.996	103.912	19.883	2.974	0.465
181.500	183.987	80.017	19.993	103.912	19.887	2.717	0.504
183.000	184.685	80.004	19.994	103.917	19.884	2.875	0.477
184.500	185.465	80.003	19.995	103.912	19.883	2.955	0.530
186.000	186.229	80.014	19.994	103.910	19.886	2.795	0.507
187.500	187.001	79.997	19.997	103.914	19.885	2.810	0.508
189.000	187.686	80.014	19.994	103.905	19.881	3.142	0.467
190.500	188.433	80.010	19.996	103.905	19.884	2.907	0.493
192.000	189.183	79.990	19.996	103.902	19.881	3.103	0.457
193.500	189.927	80.020	19.997	103.903	19.883	2.986	0.518
195.000	190.669	79.993	19.995	103.898	19.878	3.299	0.507
196.500	191.397	80.005	19.995	103.894	19.884	2.931	0.487
198.000	192.102	80.005	19.996	103.890	19.880	3.200	0.468
199.500	192.850	80.002	19.995	103.898	19.880	3.207	0.508
201.000	193.590	80.024	19.992	103.905	19.880	3.159	0.489
202.500	194.320	80.010	19.994	103.918	19.877	3.381	0.473
204.000	195.094	80.016	19.993	103.913	19.881	3.136	0.485
205.500	195.769	80.017	19.992	103.907	19.877	3.389	0.430
207.000	196.523	80.005	19.994	103.911	19.880	3.203	0.489
208.500	197.247	80.006	19.994	103.905	19.878	3.343	0.483
210.000	197.976	79.998	19.994	103.897	19.879	3.244	0.477
211.500	198.745	80.007	19.993	103.899	19.876	3.466	0.476
213.000	199.469	79.995	19.993	103.893	19.878	3.291	0.522
214.500	200.169	80.020	19.992	103.885	19.875	3.522	0.458
216.000	200.890	80.013	19.993	103.883	19.874	3.567	0.432
217.500	201.649	80.007	19.992	103.878	19.873	3.651	0.509
219.000	202.356	79.993	19.994	103.879	19.874	3.613	0.489
220.500	203.146	80.004	19.993	103.876	19.872	3.693	0.528
222.000	203.836	79.999	19.996	103.885	19.872	3.686	0.470
223.500	204.578	79.995	19.996	103.888	19.870	3.839	0.508
225.000	205.323	80.006	19.994	103.875	19.872	3.720	0.506
226.500	206.077	80.014	19.993	103.883	19.875	3.490	0.513
228.000	206.804	79.988	19.995	103.891	19.874	3.563	0.495
229.500	207.589	79.998	19.994	103.886	19.872	3.723	0.510
231.000	208.346	80.000	19.993	103.880	19.870	3.850	0.525
232.500	209.036	80.007	19.994	103.876	19.869	3.903	0.462
234.000	209.823	80.012	19.993	103.873	19.872	3.715	0.537
235.500	210.616	80.018	19.991	103.884	19.870	3.868	0.539
237.000	211.317	79.990	19.993	103.881	19.871	3.780	0.458
238.500	212.072	80.007	19.993	103.876	19.869	3.925	0.510
240.000	212.844	79.994	19.996	103.874	19.869	3.927	0.505
241.500	213.591	80.011	19.995	103.877	19.869	3.929	0.498
243.000	214.378	80.000	19.992	103.887	19.870	3.863	0.521
244.500	215.058	79.995	19.995	103.902	19.872	3.715	0.454
246.000	215.805	80.006	19.993	103.896	19.869	3.896	0.509
247.500	216.600	79.992	19.994	103.892	19.871	3.800	0.533
249.000	217.345	79.994	19.995	103.885	19.868	4.022	0.529
250.500	218.094	80.010	19.992	103.879	19.870	3.860	0.491
252.000	218.885	80.023	19.991	103.878	19.866	4.115	0.511
253.500	219.636	80.008	19.993	103.868	19.864	4.229	0.531
255.000	220.364	79.983	19.997	103.870	19.864	4.238	0.500
256.500	221.149	80.005	19.994	103.869	19.866	4.131	0.522
258.000	221.869	79.998	19.997	103.877	19.863	4.310	0.497
259.500	222.675	80.002	19.995	103.875	19.862	4.404	0.539
261.000	223.425	80.000	19.995	103.884	19.861	4.441	0.500
262.500	224.199	80.015	19.993	103.877	19.862	4.378	0.523
264.000	224.939	80.008	19.993	103.874	19.858	4.672	0.467
265.500	225.653	79.988	19.997	103.877	19.855	4.842	0.467
267.000	226.419	79.997	19.996	103.874	19.859	4.570	0.493
268.500	227.217	80.019	19.995	103.868	19.860	4.520	0.551
270.000	227.957	80.004	19.993	103.871	19.860	4.540	0.479
271.500	228.723	80.006	19.995	103.874	19.853	4.995	0.505
273.000	229.558	80.018	19.993	103.869	19.855	4.882	0.546
274.500	230.203	79.995	19.994	103.869	19.854	4.958	0.445
276.000	231.007	80.007	19.994	103.869	19.851	5.109	0.533
277.500	231.762	80.007	19.993	103.872	19.854	4.910	0.494
279.000	232.476	80.022	19.993	103.871	19.849	5.299	0.483
280.500	233.257	80.004	19.993	103.872	19.847	5.402	0.505
282.000	234.048	80.017	19.993	103.873	19.849	5.249	0.513
283.500	234.775	79.998	19.997	103.877	19.848	5.364	0.496
285.000	235.489	80.004	19.996	103.870	19.846	5.448	0.488
286.500	236.269	80.003	19.994	103.868	19.846	5.467	0.509
288.000	237.061	80.002	19.993	103.873	19.845	5.508	0.487
289.500	237.726	80.007	19.995	103.874	19.840	5.875	0.453
291.000	238.490	79.992	19.998	103.869	19.840	5.885	0.522
292.500	239.223	80.007	19.995	103.872	19.840	5.906	0.491
294.000	239.982	80.005	19.995	103.873	19.843	5.673	0.485
295.500	240.713	80.014	19.994	103.867	19.842	5.766	0.485
297.000	241.437	80.000	19.995	103.873	19.840	5.872	0.466
298.500	242.154	80.010	19.993	103.873	19.840	5.866	0.506
300.000	242.904	80.008	19.993	103.869	19.834	6.288	0.490
301.500	243.661	80.022	19.992	103.865	19.840	5.851	0.513
303.000	244.400	79.997	19.994	103.875	19.834	6.317	0.505
304.500	245.166	80.012	19.994	103.881	19.832	6.396	0.494
306.000	245.871	80.003	19.994	103.887	19.834	6.299	0.479
307.500	246.657	79.997	19.995	103.876	19.833	6.376	0.519
309.000	247.412	80.004	19.995	103.875	19.828	6.721	0.497
310.500	248.113	79.999	19.997	103.878	19.829	6.635	0.469
312.000	248.897	80.005	19.996	103.871	19.829	6.633	0.513
313.500	249.633	79.983	19.995	103.870	19.826	6.796	0.485
315.000	250.439	80.021	19.992	103.873	19.823	7.026	0.512
316.500	251.191	80.002	19.994	103.881	19.821	7.193	0.483
318.000	251.911	80.009	19.993	103.879	19.823	7.040	0.478
319.500	252.674	80.016	19.992	103.876	19.818	7.387	0.519
321.000	253.392	80.006	19.994	103.878	19.818	7.384	0.473
322.500	254.150	80.006	19.994	103.880	19.816	7.523	0.502
324.000	254.936	80.011	19.992	103.879	19.813	7.700	0.513
325.500	255.636	80.009	19.993	103.883	19.818	7.385	0.485
327.000	256.376	80.015	19.993	103.881	19.816	7.531	0.470
328.500	257.119	79.995	19.993	103.878	19.814	7.646	0.510
330.000	257.851	80.006	19.994	103.878	19.810	7.892	0.468
331.500	258.650	79.993	19.996	103.875	19.806	8.196	0.530
333.000	259.402	80.006	19.993	103.872	19.806	8.154	0.511
334.500	260.098	80.000	19.993	103.871	19.806	8.196	0.456
336.000	260.888	80.000	19.993	103.873	19.799	8.650	0.504
337.500	261.572	80.007	19.992	103.880	19.798	8.710	0.462
339.000	262.333	79.997	19.994	103.882	19.797	8.791	0.466
340.500	263.049	80.008	19.992	103.876	19.797	8.783	0.489
342.000	263.803	79.994	19.996	103.874	19.795	8.935	0.511
343.500	264.580	80.009	19.993	103.875	19.794	8.983	0.534
345.000	265.293	80.004	19.994	103.889	19.791	9.158	0.485
346.500	266.009	80.016	19.993	103.898	19.788	9.415	0.472
348.000	266.755	80.018	19.993	103.907	19.787	9.472	0.483
349.500	267.509	80.007	19.993	103.913	19.785	9.621	0.510
351.000	268.271	80.000	19.994	103.912	19.781	9.849	0.504
352.500	268.997	80.007	19.995	103.899	19.779	10.004	0.510
354.000	269.759	79.998	19.994	103.891	19.778	10.076	0.486
355.500	270.523	80.001	19.995	103.891	19.772	10.501	0.502
357.000	271.293	80.001	19.994	103.881	19.773	10.423	0.515
358.500	272.034	80.007	19.994	103.893	19.774	10.359	0.505
360.000	272.763	80.004	19.995	103.900	19.767	10.792	0.459
361.500	273.486	80.010	19.994	103.884	19.767	10.776	0.482
363.000	274.266	80.008	19.995	103.880	19.762	11.131	0.532
364.500	275.010	80.004	19.993	103.889	19.760	11.272	0.478
366.000	275.727	80.007	19.994	103.886	19.761	11.209	0.471
367.500	276.504	80.006	19.994	103.882	19.760	11.261	0.518
369.000	277.230	80.005	19.995	103.897	19.754	11.666	0.491
370.500	277.972	80.009	19.994	103.891	19.756	11.555	0.489
372.000	278.737	80.007	19.995	103.886	19.751	11.895	0.510
373.500	279.452	80.000	19.994	103.897	19.747	12.153	0.463
375.000	280.194	79.997	19.995	103.904	19.744	12.351	0.515
376.500	280.960	80.005	19.995	103.901	19.742	12.486	0.503
378.000	281.712	80.001	19.994	103.902	19.740	12.655	0.519
379.500	282.458	79.994	19.995	103.909	19.734	13.028	0.500
381.000	283.199	79.996	19.997	103.902	19.734	13.032	0.469
382.500	283.974	79.992	19.996	103.909	19.729	13.369	0.518
384.000	284.698	79.997	19.997	103.913	19.724	13.694	0.477
385.500	285.493	80.004	19.993	103.910	19.721	13.909	0.525
387.000	286.203	80.005	19.994	103.916	19.720	14.001	0.483
388.500	286.980	80.004	19.995	103.915	19.718	14.119	0.513
390.000	287.761	80.001	19.994	103.912	19.712	14.543	0.529
391.500	288.492	80.009	19.994	103.913	19.710	14.695	0.487
393.000	289.251	80.006	19.994	103.919	19.704	15.038	0.503
394.500	289.968	80.005	19.993	103.922	19.700	15.325	0.490
396.000	290.728	80.008	19.994	103.915	19.699	15.432	0.499
397.500	291.509	80.008	19.993	103.916	19.693	15.842	0.525
399.000	292.236	80.007	19.993	103.920	19.690	16.048	0.501
400.500	293.007	80.016	19.992	103.914	19.684	16.437	0.506
402.000	293.766	80.004	19.994	103.925	19.677	16.902	0.510
403.500	294.528	80.005	19.994	103.929	19.679	16.770	0.498
405.000	295.252	80.004	19.995	103.932	19.670	17.401	0.488
406.500	296.063	80.009	19.994	103.948	19.665	17.707	0.541
408.000	296.787	80.002	19.995	103.944	19.661	18.003	0.485
409.500	297.567	80.003	19.995	103.931	19.658	18.155	0.515
411.000	298.321	80.007	19.994	103.916	19.653	18.531	0.496
412.500	299.042	80.003	19.994	103.915	19.647	18.898	0.485
414.000	299.813	80.007	19.993	103.925	19.638	19.506	0.531
415.500	300.561	80.004	19.994	103.937	19.637	19.573	0.489
417.000	301.293	80.003	19.992	103.938	19.632	19.917	0.505
418.500	302.073	80.000	19.995	103.941	19.628	20.203	0.513
420.000	302.822	79.998	19.997	103.950	19.625	20.386	0.515
421.500	303.611	80.007	19.990	103.946	19.621	20.683	0.516
423.000	304.346	80.004	19.994	103.944	19.612	21.265	0.483
424.500	305.072	80.005	19.993	103.935	19.605	21.792	0.497
426.000	305.845	80.010	19.993	103.947	19.599	22.188	0.514
427.500	306.609	80.008	19.994	103.949	19.593	22.567	0.464
429.000	307.373	80.005	19.993	103.949	19.592	22.663	0.499
430.500	308.095	80.005	19.994	103.952	19.582	23.316	0.479
432.000	308.858	80.007	19.992	103.954	19.580	23.424	0.523
433.500	309.661	80.003	19.994	103.952	19.571	24.055	0.530
435.000	310.391	80.009	19.993	103.951	19.566	24.392	0.509
436.500	311.175	80.004	19.992	103.951	19.560	24.786	0.531
438.001	311.915	80.006	19.995	103.955	19.550	25.466	0.515
439.500	312.695	80.006	19.993	103.957	19.543	25.988	0.525
441.000	313.475	80.008	19.991	103.957	19.538	26.305	0.522
442.500	314.215	80.007	19.993	103.962	19.528	26.988	0.505
444.000	314.993	80.002	19.994	103.962	19.518	27.628	0.527
445.500	315.754	80.007	19.994	103.968	19.510	28.159	0.526
447.000	316.457	80.008	19.993	103.967	19.504	28.611	0.498
448.500	317.251	80.009	19.993	103.967	19.498	29.009	0.552
450.000	317.980	80.003	19.996	103.970	19.490	29.549	0.486
451.500	318.743	80.011	19.993	103.985	19.478	30.385	0.497
453.000	319.469	80.008	19.992	103.990	19.471	30.840	0.491
454.500	320.259	80.008	19.995	103.991	19.462	31.469	0.532
456.000	320.970	80.006	19.993	103.990	19.453	32.056	0.484
457.500	321.727	80.005	19.994	103.991	19.450	32.245	0.497
459.000	322.485	80.001	19.996	103.992	19.442	32.825	0.494
460.500	323.232	80.004	19.993	103.996	19.428	33.760	0.476
462.000	324.002	80.006	19.994	103.998	19.421	34.244	0.513
463.500	324.759	80.006	19.993	104.010	19.413	34.770	0.513
465.000	325.500	80.007	19.993	104.023	19.404	35.402	0.478
466.500	326.255	80.004	19.995	104.012	19.393	36.127	0.529
468.000	326.967	80.006	19.993	104.010	19.383	36.810	0.501
469.500	327.765	80.004	19.995	104.017	19.373	37.446	0.524
471.000	328.517	80.004	19.994	104.026	19.363	38.173	0.498
472.500	329.294	80.002	19.995	104.028	19.351	38.942	0.507
474.000	330.092	80.003	19.991	104.032	19.344	39.408	0.543
475.500	330.800	80.005	19.995	104.031	19.331	40.308	0.475
477.000	331.581	80.005	19.994	104.029	19.319	41.135	0.525
478.500	332.372	80.000	19.996	104.031	19.310	41.763	0.544
480.000	333.105	80.004	19.995	104.041	19.301	42.375	0.497
481.500	333.872	80.003	19.995	104.044	19.287	43.294	0.489
483.000	334.660	79.998	20.001	104.046	19.277	43.985	0.528
484.500	335.413	80.003	19.998	104.042	19.264	44.861	0.497
486.000	336.159	80.003	19.996	104.053	19.249	45.851	0.506
487.500	336.949	80.008	19.992	104.061	19.239	46.536	0.528
489.000	337.665	80.012	19.996	104.066	19.227	47.383	0.452
490.500	338.492	80.005	19.996	104.070	19.212	48.378	0.564
492.000	339.200	80.006	19.995	104.073	19.196	49.454	0.481
493.500	340.000	80.005	19.995	104.075	19.188	50.029	0.537
495.000	340.744	80.006	19.994	104.086	19.172	51.116	0.507
496.500	341.487	80.010	19.995	104.084	19.159	51.957	0.491
498.000	342.293	80.003	19.995	104.074	19.142	53.115	0.514
499.500	343.044	80.005	19.994	104.077	19.131	53.883	0.489
501.000	343.815	80.009	19.995	104.092	19.113	55.080	0.498
502.500	344.538	80.004	19.995	104.106	19.103	55.780	0.475
504.000	345.294	80.008	19.993	104.109	19.090	56.669	0.491
505.500	346.068	80.012	19.994	104.112	19.076	57.571	0.513
507.000	346.809	80.005	19.994	104.113	19.067	58.229	0.491
508.500	347.550	79.999	19.995	104.114	19.049	59.433	0.505
510.000	348.351	80.005	19.994	104.114	19.035	60.377	0.525
511.500	349.101	80.007	19.993	104.109	19.023	61.190	0.512
513.000	349.867	80.008	19.993	104.113	19.003	62.523	0.532
514.500	350.612	80.005	19.994	104.117	18.997	62.981	0.501
516.000	351.323	80.002	19.994	104.120	18.981	64.064	0.463
517.500	352.150	80.005	19.994	104.121	18.972	64.649	0.549
519.000	352.932	80.006	19.992	104.120	18.957	65.655	0.515
520.500	353.719	80.007	19.993	104.133	18.950	66.156	0.518
522.000	354.473	79.998	19.994	104.147	18.938	66.913	0.493
523.500	355.253	80.005	19.993	104.150	18.928	67.602	0.501
525.000	355.986	80.012	19.993	104.148	18.920	68.131	0.484
526.500	356.763	80.008	19.993	104.147	18.910	68.796	0.538
528.000	357.497	80.005	19.992	104.135	18.904	69.252	0.497
529.500	358.289	80.007	19.994	104.134	18.898	69.661	0.498
531.000	359.026	80.012	19.992	104.123	18.894	69.886	0.476
532.500	359.798	80.006	19.992	104.119	18.891	70.081	0.535
534.000	360.539	80.006	19.992	104.111	18.892	70.015	0.512
535.500	361.321	80.008	19.992	104.109	18.889	70.226	0.511
537.000	362.047	80.002	19.993	104.111	18.890	70.102	0.502
538.500	362.806	80.019	19.992	104.108	18.896	69.727	0.507
540.000	363.534	80.003	19.993	104.099	18.902	69.286	0.492
541.500	364.310	80.000	19.999	104.095	18.908	68.868	0.521
543.000	365.063	80.003	19.996	104.077	18.916	68.350	0.507
544.500	365.861	80.001	19.997	104.063	18.928	67.516	0.526
546.000	366.644	80.006	19.994	104.055	18.945	66.380	0.520
547.500	367.356	79.996	20.000	104.041	18.959	65.421	0.485
549.000	368.147	80.013	19.991	104.026	18.977	64.157	0.512
550.500	368.939	80.004	19.994	104.023	19.001	62.584	0.519
552.000	369.693	80.007	19.993	103.998	19.018	61.407	0.500
553.501	370.451	80.008	19.993	103.988	19.043	59.729	0.524
555.000	371.229	80.004	19.994	103.971	19.068	57.990	0.494
556.500	372.002	80.004	19.993	103.953	19.097	56.039	0.529
558.000	372.813	80.005	19.994	103.943	19.126	54.064	0.561
559.500	373.511	80.007	19.993	103.937	19.159	51.887	0.472
561.000	374.334	80.008	19.995	103.926	19.189	49.858	0.550
562.500	375.048	80.005	19.995	103.912	19.224	47.481	0.474
564.000	375.849	80.004	19.995	103.909	19.256	45.281	0.537
565.500	376.636	80.003	19.994	103.888	19.290	43.013	0.512
567.000	377.381	80.003	19.994	103.876	19.326	40.599	0.515
568.500	378.127	80.006	19.993	103.884	19.358	38.401	0.504
570.000	378.903	80.007	19.994	103.878	19.394	35.977	0.514
571.500	379.677	80.004	19.996	103.872	19.424	33.932	0.503
573.000	380.424	80.002	19.995	103.856	19.458	31.665	0.503
574.500	381.224	80.000	19.993	103.840	19.488	29.593	0.544
576.000	381.980	80.003	19.996	103.843	19.511	28.077	0.524
577.500	382.763	80.023	19.989	103.839	19.537	26.307	0.521
579.000	383.514	80.002	19.995	103.844	19.562	24.628	0.496
580.500	384.270	80.001	19.996	103.835	19.580	23.449	0.510
582.000	385.023	80.008	19.995	103.835	19.603	21.899	0.500
583.500	385.802	80.004	19.994	103.833	19.619	20.791	0.508
585.000	386.577	80.005	19.994	103.816	19.631	19.984	0.497
586.500	387.312	79.997	19.993	103.801	19.645	19.004	0.492
588.000	388.087	80.007	19.993	103.800	19.657	18.204	0.525
589.500	388.881	80.004	19.992	103.805	19.663	17.844	0.526
591.000	389.624	80.005	19.995	103.802	19.670	17.367	0.516
592.500	390.378	80.002	19.993	103.802	19.674	17.087	0.494
594.000	391.148	80.005	19.999	103.802	19.679	16.763	0.512
595.500	391.919	79.997	19.995	103.803	19.682	16.542	0.536
597.000	392.666	80.014	19.993	103.806	19.685	16.362	0.501
598.500	393.441	80.000	19.997	103.804	19.687	16.187	0.537
600.000	394.248	80.007	19.993	103.810	19.687	16.196	0.528
601.500	395.016	80.006	19.996	103.816	19.685	16.348	0.526
603.000	395.774	80.008	19.991	103.813	19.687	16.173	0.501
604.500	396.549	80.000	19.988	103.830	19.686	16.303	0.507
606.000	397.314	80.006	19.998	103.834	19.686	16.248	0.515
607.500	398.045	80.009	19.989	103.825	19.683	16.495	0.490
609.000	398.837	80.003	19.993	103.833	19.682	16.537	0.528
610.500	399.623	80.006	19.996	103.837	19.682	16.516	0.524
612.000	400.378	80.008	19.992	103.833	19.681	16.628	0.517
613.500	401.114	80.008	19.996	103.834	19.677	16.871	0.473
615.000	401.873	80.007	19.993	103.835	19.678	16.830	0.513
616.500	402.596	80.002	19.996	103.825	19.676	16.977	0.488
618.000	403.386	80.007	19.993	103.815	19.671	17.300	0.512
619.500	404.134	80.003	19.995	103.816	19.671	17.271	0.527
621.000	404.864	80.009	19.998	103.824	19.667	17.574	0.501
622.500	405.616	79.996	20.001	103.812	19.662	17.889	0.511
624.000	406.405	80.000	19.995	103.801	19.662	17.885	0.532
625.500	407.179	80.004	19.992	103.804	19.657	18.226	0.512
627.000	407.905	80.006	19.994	103.826	19.656	18.315	0.495
628.500	408.680	80.008	19.995	103.833	19.653	18.483	0.536
630.000	409.471	79.995	19.992	103.836	19.649	18.788	0.533
631.500	410.224	80.003	19.992	103.837	19.650	18.715	0.501
633.000	410.973	80.005	19.996	103.831	19.643	19.160	0.507
634.500	411.749	79.990	19.996	103.823	19.643	19.176	0.503
636.000	412.513	79.999	20.001	103.829	19.638	19.513	0.518
637.501	413.274	80.009	19.993	103.838	19.636	19.613	0.519
639.000	414.004	79.992	19.994	103.836	19.631	19.966	0.487
640.500	414.763	80.011	19.992	103.834	19.625	20.403	0.519
642.000	415.522	80.002	19.997	103.846	19.623	20.543	0.515
643.500	416.244	80.007	19.994	103.835	19.618	20.864	0.480
645.000	417.029	80.004	19.992	103.816	19.613	21.192	0.519
646.500	417.786	80.005	19.998	103.822	19.609	21.435	0.505
648.000	418.581	80.002	19.995	103.825	19.607	21.563	0.523
649.500	419.305	80.000	20.000	103.826	19.600	22.039	0.487
651.000	420.049	80.001	19.996	103.813	19.599	22.128	0.502
652.500	420.832	80.007	19.993	103.809	19.596	22.352	0.508
654.000	421.594	80.004	19.995	103.804	19.593	22.558	0.504
655.500	422.358	80.006	19.993	103.802	19.588	22.858	0.515
657.000	423.090	80.005	19.992	103.806	19.584	23.123	0.468
658.501	423.846	79.995	19.990	103.805	19.577	23.644	0.496
660.000	424.612	80.023	19.989	103.810	19.574	23.831	0.510
661.500	425.338	79.995	19.992	103.814	19.567	24.314	0.496
663.000	426.149	80.002	19.998	103.802	19.563	24.532	0.521
664.500	426.870	79.999	19.997	103.792	19.559	24.812	0.492
666.000	427.618	80.002	19.992	103.792	19.551	25.362	0.479
667.500	428.399	80.011	19.995	103.792	19.550	25.421	0.516
669.000	429.135	80.007	19.995	103.791	19.548	25.568	0.485
670.500	429.913	80.008	19.992	103.792	19.540	26.129	0.518
672.000	430.638	80.012	19.992	103.792	19.538	26.251	0.511
673.500	431.416	80.007	19.994	103.794	19.535	26.459	0.516
675.000	432.159	80.003	19.993	103.794	19.529	26.854	0.496
676.500	432.949	80.006	19.995	103.794	19.525	27.155	0.520
678.000	433.719	80.005	19.994	103.795	19.521	27.388	0.521
679.500	434.464	80.003	19.997	103.794	19.518	27.628	0.513
681.000	435.224	79.995	19.995	103.795	19.512	28.016	0.502
682.500	435.987	80.007	19.995	103.794	19.510	28.105	0.511
684.000	436.764	80.007	19.995	103.793	19.511	28.104	0.520
685.500	437.526	80.007	19.994	103.792	19.503	28.620	0.508
687.000	438.269	80.006	19.987	103.795	19.503	28.636	0.515
688.500	439.029	80.013	19.992	103.794	19.495	29.125	0.507
690.000	439.793	80.008	19.993	103.794	19.492	29.344	0.526
691.500	440.513	80.007	19.993	103.793	19.489	29.560	0.496
693.000	441.261	80.008	19.993	103.793	19.485	29.822	0.512
694.500	442.057	80.008	19.991	103.795	19.482	30.009	0.522
696.000	442.817	80.010	19.992	103.795	19.480	30.133	0.519
697.500	443.605	80.001	19.993	103.796	19.476	30.422	0.515
699.000	444.349	80.010	19.990	103.794	19.474	30.542	0.483
700.500	445.100	80.003	19.989	103.797	19.474	30.568	0.507
702.000	445.805	80.006	19.995	103.795	19.471	30.762	0.451
703.500	446.608	80.007	19.988	103.794	19.464	31.232	0.524
705.000	447.339	79.988	20.001	103.794	19.464	31.249	0.520
706.500	448.123	80.005	19.994	103.794	19.464	31.269	0.526
708.000	448.923	80.005	19.994	103.790	19.461	31.431	0.527
709.500	449.632	80.004	19.993	103.789	19.460	31.529	0.480
711.000	450.377	80.004	19.993	103.796	19.464	31.230	0.498
712.500	451.152	80.004	19.994	103.798	19.463	31.278	0.526
714.000	451.957	79.996	19.998	103.795	19.460	31.510	0.530
715.500	452.668	79.997	19.994	103.787	19.458	31.653	0.481
717.000	453.443	79.994	19.992	103.786	19.460	31.526	0.521
718.500	454.179	80.001	19.993	103.791	19.464	31.267	0.474
720.000	454.960	80.004	19.994	103.790	19.461	31.460	0.500
721.500	455.700	79.999	19.997	103.792	19.463	31.282	0.504
723.000	456.504	80.026	19.990	103.792	19.462	31.380	0.535
724.500	457.239	79.993	19.998	103.784	19.464	31.225	0.495
726.000	458.019	80.010	19.991	103.771	19.463	31.309	0.514
727.500	458.804	80.003	19.996	103.774	19.472	30.707	0.525
729.000	459.547	80.000	19.996	103.776	19.474	30.594	0.491
730.500	460.293	80.004	19.992	103.777	19.474	30.538	0.475
732.000	461.081	80.006	19.995	103.774	19.481	30.094	0.541
733.500	461.832	79.998	19.996	103.767	19.484	29.882	0.494
735.000	462.610	80.000	19.998	103.778	19.492	29.374	0.519
736.500	463.341	80.018	19.992	103.785	19.495	29.180	0.475
738.000	464.099	80.002	19.995	103.786	19.500	28.834	0.508
739.500	464.836	80.004	19.993	103.793	19.506	28.411	0.512
741.000	465.630	80.005	19.996	103.796	19.514	27.873	0.537
742.500	466.405	80.004	19.997	103.796	19.520	27.468	0.496
744.000	467.139	80.009	19.992	103.796	19.527	27.003	0.486
745.500	467.956	80.007	19.997	103.800	19.533	26.576	0.534
747.000	468.717	80.006	19.995	103.799	19.538	26.275	0.510
748.500	469.469	80.011	19.993	103.795	19.546	25.732	0.519
750.000	470.247	80.008	19.995	103.788	19.555	25.098	0.511
751.500	471.002	80.002	19.996	103.791	19.560	24.733	0.503
753.000	471.735	80.006	19.994	103.787	19.571	23.992	0.511
754.500	472.519	80.008	19.994	103.789	19.583	23.231	0.535
756.000	473.299	80.003	19.993	103.794	19.593	22.517	0.513
757.500	474.093	80.005	19.994	103.796	19.598	22.202	0.539
759.000	474.878	80.011	19.994	103.795	19.610	21.419	0.522
760.500	475.670	80.005	19.993	103.804	19.617	20.884	0.529
762.000	476.438	80.008	19.994	103.801	19.628	20.149	0.507
763.500	477.230	80.010	19.994	103.800	19.635	19.703	0.550
765.000	477.991	80.009	19.996	103.800	19.646	18.974	0.492
766.500	478.752	80.001	19.996	103.793	19.655	18.335	0.518
768.000	479.569	80.006	19.995	103.792	19.659	18.059	0.522
769.500	480.326	80.005	19.996	103.796	19.670	17.345	0.500
771.000	481.099	80.012	19.993	103.785	19.677	16.859	0.486
772.500	481.876	80.013	19.993	103.786	19.685	16.347	0.505
774.000	482.673	80.009	19.993	103.792	19.693	15.799	0.527
775.500	483.439	80.004	19.992	103.794	19.704	15.060	0.505
777.000	484.238	80.013	19.988	103.790	19.711	14.572	0.536
778.500	484.972	80.009	20.000	103.796	19.717	14.175	0.509
780.000	485.744	80.005	19.993	103.794	19.725	13.646	0.537
781.500	486.548	80.009	19.992	103.795	19.730	13.321	0.503
783.000	487.341	80.003	19.995	103.797	19.741	12.583	0.525
784.500	488.082	79.997	19.995	103.807	19.745	12.292	0.500
786.000	488.868	80.001	19.994	103.810	19.753	11.757	0.520
787.500	489.672	80.007	19.994	103.811	19.758	11.396	0.538
789.000	490.488	80.002	19.993	103.804	19.760	11.249	0.525
790.500	491.228	80.006	19.993	103.798	19.768	10.699	0.522
792.000	491.997	80.003	19.994	103.797	19.776	10.222	0.514
793.500	492.764	80.013	19.996	103.794	19.779	9.968	0.518
795.000	493.511	79.999	19.996	103.793	19.787	9.463	0.510
796.500	494.321	80.004	19.996	103.794	19.791	9.195	0.553
798.000	495.122	80.006	19.994	103.795	19.797	8.775	0.527
799.500	495.913	80.004	19.994	103.803	19.800	8.584	0.502
801.000	496.655	80.005	19.994	103.803	19.804	8.319	0.488
802.500	497.409	80.006	19.992	103.798	19.809	7.979	0.509
804.000	498.142	80.006	19.994	103.797	19.812	7.771	0.499
805.500	498.973	80.005	19.995	103.796	19.816	7.517	0.565
807.000	499.665	80.006	19.993	103.797	19.817	7.404	0.474
808.500	500.451	80.008	19.994	103.799	19.823	7.035	0.531
810.000	501.242	80.007	19.993	103.798	19.822	7.081	0.533
811.500	501.954	80.003	19.997	103.800	19.828	6.656	0.482
813.000	502.716	80.003	19.993	103.796	19.831	6.492	0.505
814.500	503.463	80.004	19.993	103.796	19.835	6.235	0.491
816.000	504.193	80.004	19.995	103.798	19.835	6.225	0.485
817.500	504.955	80.006	19.994	103.801	19.841	5.793	0.488
819.000	505.685	80.003	19.995	103.800	19.841	5.776	0.482
820.500	506.433	80.004	19.994	103.801	19.844	5.601	0.508
822.000	507.178	80.006	19.996	103.805	19.847	5.418	0.500
823.500	507.921	80.005	19.995	103.800	19.848	5.363	0.480
825.000	508.655	80.004	19.996	103.804	19.847	5.413	0.507
826.500	509.458	80.006	19.995	103.801	19.849	5.262	0.530
828.000	510.187	80.006	19.996	103.797	19.852	5.057	0.472
829.500	510.922	80.006	19.995	103.795	19.852	5.077	0.493
831.000	511.645	80.006	19.995	103.795	19.855	4.878	0.493
832.500	512.425	80.007	19.996	103.797	19.856	4.790	0.522
834.000	513.173	80.007	19.996	103.797	19.857	4.725	0.502
835.500	513.952	80.007	19.994	103.799	19.858	4.669	0.524
837.000	514.728	80.005	19.993	103.800	19.859	4.602	0.512
838.500	515.476	80.007	19.995	103.802	19.864	4.282	0.491
840.000	516.247	80.006	19.993	103.798	19.864	4.242	0.512
841.500	517.021	80.004	19.994	103.797	19.864	4.259	0.524
843.000	517.811	80.006	19.994	103.796	19.865	4.197	0.496
844.500	518.528	80.006	19.995	103.796	19.866	4.110	0.482
846.000	519.271	80.006	19.993	103.796	19.863	4.292	0.479
847.500	520.051	80.004	19.995	103.797	19.868	4.002	0.507
849.000	520.835	80.005	19.994	103.800	19.866	4.151	0.527
850.500	521.641	80.007	19.994	103.798	19.870	3.821	0.553
852.000	522.355	80.007	19.995	103.796	19.871	3.804	0.481
853.500	523.127	80.005	19.996	103.796	19.871	3.774	0.526
855.000	523.874	80.005	19.995	103.795	19.873	3.664	0.507
856.500	524.624	80.007	19.994	103.794	19.875	3.538	0.488
858.000	525.369	80.010	19.992	103.792	19.873	3.629	0.491
859.500	526.118	80.006	19.994	103.793	19.874	3.603	0.509
861.000	526.917	80.006	19.995	103.795	19.873	3.635	0.532
862.500	527.617	80.006	19.996	103.796	19.877	3.355	0.467
864.000	528.392	80.005	19.994	103.796	19.877	3.357	0.531
865.500	529.190	80.004	19.995	103.794	19.876	3.469	0.548
867.000	529.996	80.005	19.993	103.792	19.878	3.295	0.533
868.500	530.761	80.005	19.993	103.794	19.880	3.163	0.538
870.000	531.563	80.005	19.994	103.794	19.876	3.413	0.545
871.500	532.322	80.006	19.995	103.795	19.878	3.342	0.501
873.000	533.101	80.005	19.995	103.795	19.879	3.277	0.542
874.500	533.880	80.005	19.994	103.794	19.881	3.135	0.518
876.000	534.646	80.005	19.994	103.795	19.877	3.363	0.515
877.500	535.460	80.005	19.994	103.798	19.880	3.180	0.528
879.000	536.205	80.007	19.994	103.798	19.881	3.122	0.501
880.500	536.997	80.005	19.994	103.800	19.882	3.010	0.524
882.000	537.811	80.003	19.995	103.808	19.881	3.094	0.532
883.500	538.570	80.006	19.995	103.809	19.881	3.118	0.514
885.000	539.381	80.008	19.994	103.805	19.881	3.081	0.526
886.500	540.122	80.005	19.994	103.804	19.884	2.908	0.495
888.000	540.912	80.006	19.994	103.800	19.883	2.941	0.535
889.500	541.663	80.006	19.994	103.798	19.883	2.977	0.513
891.000	542.462	80.006	19.995	103.797	19.887	2.703	0.512
892.500	543.250	80.003	19.994	103.797	19.885	2.815	0.520
894.000	543.977	80.006	19.994	103.791	19.882	3.014	0.498
895.500	544.738	80.005	19.995	103.792	19.883	2.968	0.487
897.000	545.501	80.006	19.993	103.797	19.882	3.064	0.515
898.500	546.252	80.005	19.995	103.798	19.882	3.014	0.477
900.000	547.032	80.005	19.994	103.799	19.884	2.924	0.520
901.500	547.832	80.005	19.995	103.798	19.884	2.922	0.535
903.000	548.588	80.007	19.993	103.799	19.883	2.965	0.519
904.500	549.405	80.004	19.995	103.807	19.887	2.699	0.541
906.000	550.203	80.006	19.994	103.807	19.886	2.762	0.537
907.500	550.980	80.006	19.994	103.800	19.886	2.757	0.503
909.000	551.728	80.007	19.995	103.800	19.886	2.794	0.496
910.500	552.500	80.005	19.994	103.798	19.890	2.507	0.525
912.000	553.279	80.004	19.993	103.794	19.887	2.675	0.515
913.500	554.068	80.006	19.993	103.792	19.887	2.718	0.490
915.000	554.821	80.006	19.994	103.796	19.889	2.559	0.509
916.500	555.688	80.005	19.995	103.799	19.888	2.637	0.572
918.000	556.438	80.006	19.994	103.798	19.888	2.665	0.492
919.500	557.231	80.007	19.995	103.796	19.888	2.667	0.524
921.000	557.996	80.004	19.994	103.796	19.886	2.755	0.526
922.500	558.786	80.006	19.995	103.795	19.890	2.486	0.520
924.000	559.565	80.006	19.995	103.794	19.886	2.759	0.504
925.500	560.351	80.004	19.994	103.794	19.885	2.863	0.513
927.000	561.108	80.005	19.995	103.794	19.889	2.565	0.534
928.500	561.858	80.006	19.996	103.794	19.888	2.650	0.526
930.000	562.643	80.005	19.995	103.793	19.889	2.600	0.516
931.500	563.384	80.007	19.994	103.795	19.890	2.470	0.509
933.000	564.174	80.006	19.994	103.796	19.889	2.574	0.541
934.500	564.999	80.007	19.994	103.793	19.889	2.546	0.516
936.000	565.717	80.007	19.995	103.794	19.886	2.744	0.508
937.500	566.479	80.007	19.995	103.791	19.890	2.490	0.527
939.000	567.280	80.007	19.995	103.793	19.891	2.414	0.508
940.500	568.031	80.004	19.995	103.792	19.890	2.524	0.509
942.000	568.852	80.006	19.997	103.791	19.894	2.264	0.499
943.500	569.606	80.007	19.996	103.792	19.888	2.611	0.537
945.000	570.437	80.006	19.996	103.793	19.885	2.826	0.611
946.500	571.194	80.004	19.992	103.794	19.880	3.148	0.491
948.000	571.983	80.004	19.995	103.794	19.891	2.406	0.549
949.500	572.744	80.003	19.995	103.792	19.888	2.609	0.581
951.000	573.428	80.004	19.996	103.793	19.893	2.298	0.529
952.500	574.403	80.005	19.996	103.791	19.884	2.902	0.513
954.000	575.196	80.005	19.997	103.789	19.889	2.589	0.469
955.500	575.961	80.003	19.995	103.793	19.887	2.677	0.598
957.000	576.937	80.004	19.995	103.794	19.890	2.507	0.459
958.500	577.478	80.008	19.993	103.795	19.890	2.472	0.505
960.000	578.728	80.004	19.993	103.797	19.890	2.501	1.029
961.500	579.136	80.003	19.994	103.797	19.890	2.492	0.120
963.000	579.888	80.007	19.993	103.801	19.890	2.529	0.454
964.500	580.940	80.007	19.993	103.801	19.891	2.423	0.628
966.000	581.478	80.007	19.994	103.798	19.888	2.654	0.355
967.500	582.231	80.005	19.994	103.797	19.888	2.613	0.599
969.000	583.010	80.005	19.996	103.797	19.890	2.471	0.519
970.500	583.857	80.004	19.996	103.796	19.891	2.416	0.528
972.000	584.571	80.004	19.995	103.796	19.890	2.520	0.524
973.500	585.288	80.005	19.994	103.794	19.891	2.447	0.534
975.000	586.174	80.005	19.994	103.797	19.886	2.755	0.580
976.500	586.885	80.005	19.995	103.798	19.888	2.636	0.519
978.000	587.656	80.005	19.995	103.796	19.889	2.567	0.543
979.500	588.492	80.006	19.994	103.792	19.887	2.690	0.539
981.000	589.238	80.006	19.995	103.796	19.886	2.771	0.510
982.500	590.029	80.005	19.994	103.800	19.886	2.770	0.486
984.000	590.771	80.005	19.992	103.799	19.888	2.645	0.515
985.500	591.577	80.004	19.995	103.797	19.888	2.654	0.512
987.000	592.305	80.005	19.994	103.796	19.887	2.699	0.500
988.500	593.053	80.006	19.994	103.796	19.889	2.561	0.513
990.000	593.827	80.008	19.993	103.794	19.890	2.516	0.502
991.500	594.655	80.006	19.996	103.791	19.893	2.305	0.520
993.000	595.359	80.007	19.993	103.794	19.892	2.362	0.485
994.500	596.146	80.008	19.994	103.794	19.894	2.211	0.513
996.000	596.863	80.006	19.996	103.794	19.892	2.386	0.480
997.500	597.610	80.006	19.994	103.792	19.891	2.434	0.496
999.000	598.413	80.008	19.994	103.794	19.896	2.093	0.506
1000.500	599.114	80.004	19.994	103.795	19.892	2.399	0.474
1002.000	599.873	80.004	19.998	103.788	19.893	2.298	0.500
1003.500	600.631	80.005	19.995	103.794	19.893	2.309	0.483
1005.000	601.391	80.007	19.995	103.794	19.895	2.168	0.514
1006.500	602.127	80.006	19.994	103.794	19.891	2.412	0.519
1008.000	602.895	80.006	19.995	103.795	19.892	2.333	0.482
1009.500	603.581	80.006	19.995	103.795	19.893	2.280	0.479
1011.000	604.340	80.006	19.994	103.795	19.893	2.302	0.486
1012.500	605.092	80.006	19.994	103.795	19.895	2.189	0.504
1014.000	605.863	80.006	19.995	103.795	19.893	2.328	0.500
1015.500	606.602	80.008	19.994	103.806	19.892	2.341	0.474
1017.000	607.306	80.008	19.993	103.804	19.893	2.304	0.468
1018.500	608.032	80.009	19.995	103.790	19.894	2.250	0.479
1020.000	608.829	80.008	19.995	103.794	19.892	2.345	0.523
1021.500	609.550	80.009	19.993	103.797	19.891	2.421	0.461
1023.000	610.269	80.006	19.994	103.804	19.892	2.373	0.475
1024.500	611.019	80.008	19.992	103.815	19.893	2.311	0.512
1026.000	611.808	80.005	19.998	103.801	19.890	2.483	0.522
1027.500	612.553	80.006	19.995	103.796	19.889	2.567	0.510
1029.000	613.269	80.003	19.994	103.797	19.885	2.821	0.500
1030.500	614.076	80.006	19.996	103.796	19.886	2.796	0.521
1032.000	614.835	80.006	19.995	103.795	19.890	2.528	0.517
1033.500	615.585	80.003	19.996	103.795	19.888	2.608	0.512
1035.000	616.350	80.006	19.996	103.794	19.887	2.681	0.524
1036.500	617.094	80.004	19.993	103.796	19.888	2.612	0.493
1038.000	617.846	80.004	19.995	103.798	19.892	2.371	0.503
1039.500	618.636	80.004	19.994	103.810	19.889	2.563	0.519
1041.001	619.391	80.003	19.996	103.816	19.891	2.434	0.515
1042.500	620.163	80.004	19.994	103.804	19.891	2.429	0.523
1044.000	620.977	80.005	19.996	103.799	19.889	2.568	0.525
1045.500	621.739	80.004	19.995	103.807	19.890	2.503	0.505
1047.000	622.537	80.004	19.996	103.811	19.888	2.624	0.529
1048.500	623.360	80.004	19.995	103.809	19.891	2.419	0.541
1050.000	624.113	80.006	19.997	103.807	19.892	2.350	0.489
1051.500	624.885	80.004	19.994	103.802	19.890	2.475	0.491
1053.000	625.683	80.005	19.995	103.796	19.890	2.518	0.532
1054.500	626.432	80.004	19.994	103.795	19.885	2.817	0.502
1056.000	627.194	80.005	19.994	103.795	19.890	2.533	0.517
1057.500	627.993	80.005	19.994	103.796	19.888	2.645	0.513
1059.000	628.781	80.005	19.995	103.796	19.886	2.794	0.517
1060.500	629.526	80.005	19.994	103.798	19.884	2.898	0.488
1062.000	630.365	80.004	19.995	103.798	19.882	3.042	0.553
1063.501	631.111	80.006	19.991	103.802	19.885	2.818	0.480
1065.000	631.875	80.004	19.996	103.801	19.885	2.814	0.519
1066.500	632.662	80.005	19.994	103.800	19.886	2.759	0.529
1068.000	633.412	80.006	19.995	103.809	19.886	2.773	0.506
1069.500	634.159	80.007	19.995	103.803	19.885	2.839	0.499
1071.000	634.922	80.004	19.994	103.799	19.885	2.811	0.504
1072.500	635.722	80.006	19.995	103.803	19.885	2.850	0.527
1074.001	636.494	80.007	19.994	103.798	19.885	2.850	0.500
1075.501	637.228	80.007	19.994	103.796	19.885	2.841	0.490
1077.000	637.997	80.006	19.993	103.796	19.885	2.841	0.516
1078.500	638.749	80.007	19.993	103.796	19.888	2.656	0.497
1080.000	639.506	80.007	19.993	103.796	19.883	2.992	0.503
1081.500	640.301	80.007	19.994	103.804	19.883	2.977	0.525
1083.000	641.054	80.006	19.995	103.808	19.885	2.843	0.487
1084.500	641.822	80.006	19.994	103.807	19.882	3.053	0.509
1086.000	642.621	80.007	19.994	103.818	19.884	2.884	0.545
1087.500	643.373	80.006	19.994	103.811	19.883	2.992	0.489
1089.000	644.139	80.006	19.994	103.800	19.880	3.153	0.522
1090.500	644.851	80.006	19.994	103.799	19.885	2.851	0.493
1092.000	645.650	80.007	19.994	103.804	19.883	2.981	0.521
1093.500	646.382	80.007	19.993	103.805	19.887	2.735	0.483
1095.000	647.151	80.005	19.995	103.805	19.884	2.907	0.512
1096.500	647.905	80.005	19.993	103.816	19.882	3.066	0.507
1098.000	648.635	80.006	19.994	103.830	19.881	3.095	0.481
1099.500	649.462	80.009	19.995	103.829	19.879	3.229	0.549
1101.001	650.207	80.007	19.993	103.822	19.879	3.214	0.495
1102.500	650.955	80.007	19.993	103.822	19.881	3.132	0.498
1104.000	651.738	80.007	19.993	103.832	19.881	3.090	0.515
1105.501	652.513	80.007	19.993	103.828	19.878	3.326	0.517
1107.000	653.272	80.005	19.995	103.812	19.876	3.468	0.501
1108.500	654.017	80.003	19.995	103.812	19.879	3.276	0.484
1110.000	654.815	80.005	19.995	103.813	19.877	3.384	0.512
1111.500	655.606	80.003	19.995	103.806	19.873	3.629	0.532
1113.000	656.364	80.005	19.993	103.813	19.874	3.556	0.495
1114.500	657.095	80.006	19.994	103.831	19.880	3.162	0.504
1116.000	657.876	80.004	19.995	103.836	19.878	3.312	0.504
1117.501	658.636	80.005	19.995	103.836	19.878	3.291	0.509
1119.000	659.411	80.005	19.995	103.835	19.877	3.399	0.525
1120.500	660.129	80.004	19.994	103.837	19.879	3.270	0.469
1122.000	660.875	80.006	19.997	103.837	19.880	3.188	0.510
1123.500	661.671	80.005	19.995	103.835	19.880	3.159	0.519
1125.000	662.416	80.006	19.994	103.834	19.881	3.127	0.484
1126.500	663.158	80.006	19.994	103.835	19.877	3.367	0.554
1128.000	663.942	80.005	19.995	103.829	19.877	3.369	0.532
1129.500	664.883	80.004	19.994	103.827	19.879	3.275	0.199
1131.000	665.444	80.006	19.994	103.834	19.878	3.325	0.321
1132.500	666.240	80.006	19.993	103.833	19.876	3.478	0.515
1134.000	667.045	80.004	19.995	103.835	19.879	3.237	0.558
1135.500	667.864	80.005	19.995	103.840	19.878	3.327	0.532
1137.000	668.605	80.005	19.996	103.836	19.880	3.195	0.511
1138.501	669.394	80.005	19.995	103.838	19.876	3.443	0.553
1140.000	670.211	80.005	19.995	103.845	19.875	3.508	0.569
1141.500	670.956	80.003	19.996	103.846	19.877	3.387	0.483
1143.000	671.784	80.006	19.994	103.849	19.873	3.641	0.561
1144.500	672.582	80.004	19.995	103.848	19.880	3.206	0.538
1146.000	673.370	80.007	19.994	103.859	19.876	3.445	0.558
1147.500	674.198	80.005	19.994	103.861	19.887	2.736	0.509
1149.000	675.034	80.006	19.993	103.855	19.874	3.557	0.521
1150.500	675.849	80.005	19.994	103.863	19.871	3.788	0.539
1152.000	676.605	80.005	19.994	103.871	19.874	3.572	0.491
1153.500	677.431	80.006	19.994	103.865	19.868	3.964	0.559
1155.000	678.202	80.005	19.994	103.852	19.873	3.678	0.509
1156.500	678.978	80.008	19.994	103.850	19.870	3.870	0.490
1158.000	679.795	80.006	19.993	103.861	19.873	3.639	0.545
1159.500	680.670	80.007	19.994	103.869	19.875	3.529	0.535
1161.000	681.452	80.006	19.994	103.873	19.869	3.913	0.436
1162.500	682.163	80.008	19.994	103.874	19.876	3.466	0.235
1164.000	682.973	80.006	19.993	103.873	19.873	3.645	0.552
1165.501	683.738	80.007	19.994	103.865	19.873	3.649	0.547
1167.000	684.528	80.005	19.993	103.865	19.869	3.932	0.500
1168.500	685.330	80.007	19.993	103.880	19.869	3.919	0.545
1170.000	686.076	80.006	19.993	103.880	19.871	3.811	0.558
1171.500	686.872	80.006	19.994	103.874	19.871	3.760	0.534
1173.000	687.653	80.006	19.993	103.880	19.870	3.848	0.520
1174.500	688.444	80.006	19.993	103.885	19.873	3.665	0.516
1176.000	689.210	80.007	19.994	103.879	19.872	3.697	0.508
1177.500	690.015	80.007	19.994	103.878	19.872	3.746	0.546
1179.000	690.779	80.007	19.993	103.878	19.869	3.913	0.525
1180.500	691.588	80.008	19.993	103.876	19.869	3.926	0.527
1182.000	692.371	80.007	19.996	103.874	19.872	3.697	0.538
1183.500	693.150	80.008	19.995	103.874	19.870	3.850	0.549
1185.000	693.917	80.008	19.993	103.872	19.867	4.037	0.520
1186.500	694.734	80.008	19.993	103.879	19.866	4.106	0.532
1188.000	695.509	80.007	19.993	103.883	19.868	4.023	0.520
1189.500	696.257	80.007	19.993	103.874	19.867	4.060	0.495
1191.000	697.048	80.005	19.994	103.872	19.866	4.117	0.527
1192.500	697.792	80.004	19.994	103.875	19.863	4.317	0.502
1194.000	698.547	80.006	19.993	103.877	19.864	4.268	0.510
1195.500	699.276	80.006	19.994	103.880	19.865	4.214	0.495
1197.000	700.088	80.005	19.994	103.891	19.863	4.296	0.526
1198.500	700.845	80.006	19.995	103.901	19.868	4.015	0.507
1200.000	701.580	80.004	19.994	103.906	19.864	4.259	0.500
1201.500	702.337	80.003	19.995	103.899	19.866	4.142	0.493
1203.000	703.090	80.005	19.994	103.881	19.865	4.184	0.503
1204.500	703.878	80.006	19.994	103.883	19.864	4.233	0.515
1206.000	704.581	80.005	19.995	103.885	19.866	4.117	0.477
1207.501	705.364	80.006	19.994	103.885	19.863	4.354	0.519
1209.000	706.085	80.008	19.994	103.887	19.865	4.204	0.485
1210.500	706.849	80.004	19.995	103.892	19.864	4.290	0.517
1212.000	707.626	80.004	19.995	103.891	19.863	4.300	0.508
1213.500	708.355	80.007	19.995	103.893	19.863	4.315	0.497
1215.000	709.098	80.005	19.995	103.885	19.863	4.298	0.477
1216.500	709.882	80.004	19.994	103.878	19.863	4.342	0.510
1218.000	710.634	80.006	19.994	103.876	19.863	4.311	0.509
1219.500	711.419	80.005	19.995	103.876	19.864	4.236	0.523
1221.000	712.169	80.005	19.994	103.876	19.865	4.219	0.495
1222.500	712.953	80.005	19.995	103.877	19.862	4.419	0.527
1224.000	713.673	80.004	19.995	103.879	19.864	4.233	0.503
1225.500	714.450	80.004	19.995	103.876	19.865	4.166	0.512
1227.000	715.262	80.005	19.995	103.873	19.869	3.929	0.533
1228.500	716.001	80.006	19.995	103.874	19.866	4.110	0.484
1230.000	716.780	80.004	19.996	103.876	19.867	4.037	0.522
1231.500	717.517	80.005	19.996	103.874	19.867	4.026	0.487
1233.000	718.267	80.005	19.995	103.866	19.869	3.923	0.507
1234.500	719.072	80.005	19.995	103.857	19.868	3.982	0.545
1236.000	719.812	80.006	19.995	103.844	19.872	3.699	0.482
1237.501	720.557	80.006	19.995	103.838	19.872	3.711	0.507
1239.000	721.324	80.006	19.994	103.840	19.874	3.614	0.516
1240.500	722.107	80.006	19.993	103.841	19.873	3.646	0.501
1242.000	722.835	80.006	19.994	103.840	19.873	3.631	0.469
1243.500	723.604	80.006	19.994	103.838	19.878	3.316	0.505
1245.000	724.369	80.006	19.993	103.828	19.878	3.299	0.514
1246.500	725.097	80.007	19.993	103.817	19.876	3.437	0.504
1248.000	725.839	80.006	19.995	103.806	19.882	3.031	0.489
1249.500	726.598	80.005	19.995	103.795	19.881	3.141	0.519
1251.000	727.335	80.007	19.993	103.793	19.888	2.669	0.507
1252.500	728.087	80.006	19.995	103.791	19.887	2.700	0.509
1254.000	728.858	80.007	19.994	103.789	19.885	2.825	0.516
1255.500	729.618	80.006	19.994	103.791	19.885	2.868	0.511
1257.000	730.332	80.006	19.994	103.793	19.883	2.978	0.470
1258.500	731.100	80.007	19.995	103.795	19.884	2.883	0.502
1260.000	731.825	80.008	19.993	103.795	19.886	2.745	0.472
1261.500	732.574	80.008	19.994	103.787	19.885	2.823	0.505
1263.000	733.294	80.008	19.994	103.782	19.882	3.026	0.482
1264.500	734.046	80.009	19.994	103.776	19.882	3.050	0.486
1266.000	734.830	80.009	19.993	103.765	19.882	3.043	0.531
1267.500	735.515	80.008	19.994	103.777	19.885	2.806	0.465
1269.000	736.249	80.008	19.994	103.787	19.883	2.976	0.494
1270.500	736.978	80.009	19.993	103.777	19.884	2.883	0.474
1272.000	737.701	80.007	19.993	103.777	19.882	3.032	0.487
1273.500	738.452	80.006	19.995	103.780	19.884	2.886	0.506
1275.000	739.243	80.005	19.994	103.773	19.884	2.913	0.524
1276.500	739.936	80.006	19.993	103.775	19.879	3.233	0.469
1278.000	740.724	80.007	19.994	103.770	19.879	3.209	0.505
1279.500	741.431	80.006	19.993	103.765	19.884	2.889	0.492
1281.000	742.222	80.008	19.993	103.767	19.879	3.252	0.519
1282.500	742.965	80.006	19.993	103.773	19.881	3.099	0.486
1284.000	743.702	80.006	19.994	103.766	19.879	3.211	0.493