File: 01_Data/PC/MCC/PC_MCC_30K_min_210921_R1.txt
Sample ID:	C:\MCC\MCC Cal\Test\PC_MCC_30K_min_210921_R1.txt
Sample Weight (mg):	4.34
Heating Rate (C/s):	0.5
Combustor Temp (C):	900
N2 Flow Rate (cc/min):	80
O2 Flow Rate (cc/min):	20
Calibration File:	C:\MCC\MCC Cal\Coeff1 JN10440_30_210304.txt.txt
T Correction Coefficients:	0	1.024463	0
Time Shift (s):	14
*
Time (s)	Temperature (C)	N2 flow rate (cc/min)	O2 flow rate (cc/min)	Flow Rate (cc/min)	Oxygen (%)	HRR (W/g)	Heating rate (C/s)
0.000	106.785	79.994	19.995	99.866	20.008	0.008	0.020
2.000	106.763	79.996	19.995	99.862	20.011	-0.250	0.007
4.001	106.752	79.995	19.995	99.875	20.005	0.163	-0.004
6.000	106.771	79.995	19.995	99.867	20.008	-0.008	-0.011
8.000	106.787	79.994	19.994	99.864	20.007	0.017	0.018
10.000	106.742	79.994	19.995	99.876	20.004	0.271	-0.000
12.000	106.768	79.996	19.995	99.879	20.001	0.471	0.025
14.000	106.726	79.995	19.995	99.889	20.003	0.327	0.005
16.000	106.814	79.996	19.994	99.892	20.000	0.521	0.057
18.000	106.780	79.997	19.994	99.921	20.001	0.449	-0.011
20.000	106.803	79.994	19.995	99.920	19.994	0.959	0.011
22.000	106.837	79.996	19.994	99.939	19.996	0.810	0.028
24.000	106.890	79.996	19.996	99.949	19.991	1.227	0.032
26.000	106.942	79.995	19.995	99.956	19.990	1.250	0.009
28.000	107.056	79.995	19.995	99.964	19.984	1.710	0.043
30.000	107.183	79.995	19.995	100.002	19.980	1.963	0.052
32.000	107.288	79.995	19.995	100.041	19.978	2.108	0.082
34.000	107.475	79.996	19.998	100.075	19.973	2.507	0.136
36.000	107.693	79.996	19.996	100.079	19.970	2.723	0.134
38.000	107.955	79.995	19.996	100.088	19.965	3.059	0.158
40.000	108.184	79.996	19.994	100.112	19.964	3.146	0.129
42.000	108.501	79.997	19.994	100.109	19.957	3.652	0.166
44.000	108.860	79.997	19.994	100.105	19.958	3.545	0.177
46.000	109.273	79.998	19.994	100.113	19.959	3.535	0.199
48.000	109.640	79.997	19.995	100.120	19.956	3.756	0.189
50.000	110.077	79.996	19.995	100.122	19.955	3.774	0.229
52.000	110.548	79.996	19.994	100.121	19.949	4.257	0.246
54.001	111.042	79.995	19.995	100.121	19.950	4.160	0.244
56.001	111.548	79.996	19.996	100.129	19.949	4.241	0.253
58.000	112.099	79.995	19.996	100.150	19.947	4.355	0.264
60.000	112.686	79.995	19.997	100.151	19.945	4.504	0.311
62.000	113.273	79.995	19.996	100.158	19.949	4.246	0.289
64.000	113.869	79.996	19.996	100.157	19.949	4.204	0.303
66.000	114.540	79.996	19.995	100.150	19.949	4.204	0.336
68.001	115.161	79.998	19.996	100.151	19.950	4.144	0.325
70.000	115.834	79.998	19.995	100.144	19.952	4.033	0.348
72.000	116.512	79.997	19.995	100.146	19.949	4.217	0.311
74.000	117.239	79.999	19.993	100.152	19.950	4.158	0.375
76.000	117.999	79.998	19.995	100.137	19.949	4.224	0.363
78.000	118.762	79.997	19.994	100.150	19.953	3.919	0.356
80.000	119.541	79.996	19.996	100.144	19.949	4.253	0.375
82.000	120.313	79.998	19.994	100.144	19.950	4.148	0.421
84.000	121.082	79.996	19.995	100.153	19.946	4.425	0.413
86.001	121.901	79.996	19.995	100.152	19.946	4.435	0.400
88.000	122.743	79.995	19.995	100.153	19.945	4.497	0.397
90.001	123.585	79.996	19.994	100.155	19.948	4.305	0.445
92.000	124.396	79.995	19.996	100.156	19.952	4.018	0.432
94.000	125.269	79.995	19.995	100.148	19.948	4.295	0.433
96.000	126.106	79.996	19.995	100.155	19.952	3.992	0.439
98.000	127.010	79.997	19.995	100.155	19.950	4.126	0.439
100.000	127.909	79.995	19.995	100.156	19.950	4.160	0.451
102.000	128.728	79.997	19.994	100.151	19.950	4.135	0.402
104.000	129.664	79.996	19.995	100.151	19.951	4.086	0.448
106.000	130.594	79.995	19.995	100.140	19.948	4.328	0.434
108.000	131.484	79.996	19.995	100.146	19.953	3.938	0.510
110.000	132.405	79.995	19.995	100.156	19.949	4.217	0.475
112.000	133.333	79.996	19.994	100.162	19.953	3.942	0.495
114.000	134.242	79.995	19.996	100.153	19.948	4.271	0.468
116.001	135.168	79.996	19.995	100.142	19.953	3.940	0.450
118.000	136.095	79.995	19.994	100.157	19.953	3.940	0.467
120.000	137.009	79.996	19.995	100.147	19.951	4.095	0.469
122.000	137.973	79.996	19.995	100.143	19.952	4.002	0.476
124.000	138.905	79.996	19.996	100.142	19.949	4.201	0.458
126.000	139.878	79.997	19.996	100.138	19.951	4.097	0.475
128.000	140.828	79.997	19.995	100.152	19.948	4.283	0.477
130.000	141.791	79.996	19.994	100.148	19.947	4.392	0.486
132.000	142.758	79.995	19.995	100.142	19.953	3.922	0.466
134.000	143.734	79.996	19.994	100.136	19.949	4.217	0.486
136.000	144.691	79.997	19.995	100.129	19.950	4.118	0.476
138.000	145.663	79.996	19.996	100.142	19.951	4.085	0.479
140.000	146.598	79.995	19.996	100.148	19.950	4.120	0.447
142.000	147.552	79.996	19.996	100.133	19.948	4.260	0.458
144.000	148.531	79.997	19.996	100.140	19.951	4.108	0.489
146.000	149.511	79.997	19.996	100.143	19.949	4.240	0.475
148.000	150.455	79.998	19.996	100.140	19.949	4.240	0.475
150.000	151.417	80.000	19.996	100.132	19.949	4.226	0.495
152.000	152.407	79.997	19.996	100.133	19.949	4.222	0.478
154.000	153.404	79.997	19.996	100.139	19.950	4.180	0.493
156.000	154.331	79.998	19.996	100.130	19.952	4.001	0.470
158.000	155.296	79.997	19.996	100.128	19.951	4.071	0.471
160.000	156.269	79.998	19.995	100.126	19.952	4.036	0.497
162.000	157.268	79.996	19.995	100.126	19.952	4.011	0.481
164.000	158.240	79.995	19.994	100.124	19.951	4.077	0.480
166.000	159.249	79.995	19.995	100.122	19.951	4.052	0.513
168.000	160.229	79.995	19.994	100.120	19.952	4.011	0.515
170.000	161.223	79.995	19.994	100.125	19.954	3.836	0.482
172.000	162.223	79.995	19.995	100.124	19.953	3.951	0.493
174.000	163.251	79.997	19.995	100.125	19.953	3.904	0.531
176.000	164.246	79.996	19.996	100.135	19.953	3.935	0.522
178.000	165.246	79.997	19.996	100.123	19.951	4.114	0.526
180.000	166.261	79.996	19.995	100.118	19.951	4.065	0.509
182.000	167.264	79.996	19.995	100.122	19.950	4.145	0.512
184.000	168.259	79.996	19.995	100.125	19.954	3.898	0.504
186.000	169.241	79.996	19.995	100.121	19.953	3.949	0.510
188.000	170.262	79.995	19.994	100.127	19.951	4.081	0.500
190.000	171.268	79.995	19.994	100.127	19.953	3.939	0.516
192.000	172.252	79.995	19.994	100.124	19.953	3.947	0.487
194.000	173.229	79.996	19.995	100.122	19.953	3.925	0.469
196.000	174.213	79.996	19.994	100.121	19.953	3.931	0.462
198.000	175.274	79.996	19.994	100.120	19.956	3.727	0.529
200.000	176.214	79.996	19.995	100.120	19.954	3.873	0.485
202.000	177.202	79.997	19.995	100.119	19.957	3.671	0.452
204.000	178.221	79.997	19.995	100.115	19.953	3.954	0.495
206.000	179.200	79.997	19.996	100.116	19.955	3.811	0.485
208.000	180.190	79.998	19.996	100.118	19.954	3.883	0.499
210.000	181.168	79.997	19.995	100.111	19.955	3.813	0.505
212.000	182.160	79.997	19.994	100.117	19.954	3.875	0.493
214.000	183.162	79.996	19.996	100.115	19.955	3.813	0.461
216.000	184.146	79.996	19.996	100.116	19.955	3.782	0.458
218.000	185.103	79.996	19.996	100.114	19.957	3.673	0.481
220.000	186.134	79.997	19.996	100.116	19.953	3.904	0.480
222.000	187.145	79.995	19.996	100.113	19.958	3.557	0.529
224.000	188.117	79.996	19.995	100.114	19.957	3.617	0.507
226.000	189.119	79.998	19.995	100.113	19.958	3.584	0.543
228.000	190.111	79.997	19.995	100.116	19.960	3.456	0.494
230.000	191.105	79.997	19.995	100.116	19.958	3.555	0.496
232.000	192.085	79.998	19.996	100.116	19.957	3.677	0.486
234.000	193.071	79.998	19.996	100.119	19.956	3.722	0.492
236.000	194.105	79.998	19.997	100.118	19.957	3.665	0.522
238.000	195.066	79.997	19.996	100.113	19.957	3.625	0.490
240.000	196.061	79.997	19.996	100.116	19.959	3.504	0.508
242.000	197.018	79.995	19.996	100.119	19.957	3.633	0.479
244.000	198.005	79.993	19.996	100.115	19.959	3.470	0.482
246.000	198.992	79.995	19.995	100.116	19.961	3.353	0.516
248.000	199.976	79.995	19.996	100.118	19.959	3.503	0.474
250.000	200.940	79.995	19.995	100.117	19.956	3.753	0.477
252.000	201.951	79.995	19.995	100.120	19.961	3.351	0.526
254.000	202.917	79.996	19.995	100.123	19.959	3.479	0.506
256.000	203.885	79.995	19.994	100.120	19.956	3.720	0.461
258.000	204.897	79.995	19.995	100.118	19.959	3.470	0.502
260.000	205.936	79.995	19.995	100.116	19.961	3.384	0.526
262.000	206.879	79.995	19.995	100.115	19.958	3.551	0.481
264.000	207.892	79.997	19.995	100.120	19.956	3.693	0.495
266.000	208.847	79.996	19.994	100.116	19.958	3.574	0.518
268.000	209.866	79.995	19.995	100.117	19.961	3.357	0.501
270.000	210.827	79.996	19.997	100.117	19.956	3.687	0.462
272.000	211.837	79.996	19.995	100.115	19.958	3.555	0.501
274.000	212.885	79.996	19.995	100.116	19.959	3.497	0.547
276.000	213.800	79.995	19.995	100.118	19.959	3.503	0.459
278.000	214.830	79.996	19.996	100.115	19.961	3.392	0.484
280.000	215.822	79.996	19.996	100.118	19.960	3.452	0.484
282.000	216.833	79.997	19.994	100.115	19.959	3.530	0.492
284.000	217.804	79.997	19.995	100.115	19.959	3.528	0.479
286.000	218.819	79.999	19.995	100.116	19.962	3.320	0.497
288.000	219.785	79.998	19.994	100.115	19.958	3.598	0.499
290.000	220.789	79.999	19.995	100.112	19.960	3.419	0.490
292.000	221.802	79.998	19.995	100.117	19.957	3.665	0.503
294.000	222.787	79.998	19.994	100.115	19.958	3.557	0.501
296.000	223.772	79.997	19.996	100.117	19.957	3.673	0.494
298.000	224.758	79.996	19.995	100.119	19.957	3.646	0.501
300.000	225.772	79.998	19.996	100.119	19.957	3.656	0.530
302.000	226.751	79.996	19.996	100.116	19.957	3.679	0.519
304.000	227.703	79.997	19.994	100.115	19.956	3.690	0.478
306.000	228.752	79.996	19.995	100.120	19.959	3.530	0.526
308.000	229.776	79.997	19.995	100.119	19.958	3.566	0.508
310.000	230.754	79.998	19.996	100.116	19.959	3.503	0.494
312.000	231.738	79.997	19.995	100.118	19.959	3.530	0.508
314.000	232.703	79.999	19.995	100.116	19.960	3.433	0.502
316.000	233.708	79.998	19.996	100.113	19.958	3.590	0.515
318.000	234.660	79.996	19.996	100.111	19.957	3.630	0.478
320.000	235.675	79.996	19.995	100.114	19.956	3.704	0.505
322.000	236.667	79.995	19.996	100.119	19.956	3.753	0.502
324.000	237.698	79.996	19.996	100.118	19.954	3.880	0.497
326.000	238.687	79.996	19.996	100.113	19.953	3.927	0.484
328.000	239.650	79.996	19.995	100.107	19.956	3.698	0.470
330.000	240.629	79.994	19.997	100.112	19.952	4.018	0.497
332.000	241.573	79.995	19.996	100.110	19.958	3.609	0.470
334.000	242.610	79.995	19.996	100.114	19.952	4.028	0.496
336.000	243.611	79.995	19.997	100.111	19.955	3.758	0.480
338.000	244.610	79.996	19.995	100.108	19.956	3.723	0.531
340.000	245.592	79.995	19.996	100.106	19.954	3.881	0.514
342.000	246.573	79.995	19.995	100.111	19.951	4.055	0.495
344.000	247.539	79.996	19.995	100.110	19.952	4.042	0.486
346.000	248.554	79.997	19.995	100.115	19.952	4.018	0.489
348.000	249.547	79.996	19.995	100.109	19.956	3.745	0.504
350.000	250.580	79.996	19.994	100.115	19.953	3.964	0.509
352.000	251.604	79.997	19.995	100.116	19.952	4.007	0.507
354.000	252.588	79.997	19.995	100.115	19.952	4.041	0.502
356.000	253.591	79.996	19.996	100.117	19.955	3.782	0.517
358.000	254.534	79.995	19.995	100.113	19.954	3.855	0.477
360.000	255.526	79.996	19.995	100.113	19.957	3.665	0.514
362.000	256.548	79.996	19.995	100.113	19.957	3.654	0.493
364.000	257.550	79.998	19.996	100.112	19.957	3.681	0.512
366.000	258.523	79.999	19.995	100.111	19.956	3.753	0.522
368.000	259.529	79.997	19.995	100.114	19.957	3.654	0.497
370.000	260.517	79.998	19.995	100.102	19.956	3.749	0.507
372.000	261.522	79.998	19.995	100.100	19.956	3.743	0.534
374.000	262.497	79.998	19.995	100.118	19.954	3.873	0.518
376.000	263.531	79.996	19.994	100.114	19.954	3.830	0.516
378.000	264.502	79.997	19.995	100.116	19.953	3.927	0.515
380.000	265.461	79.997	19.995	100.120	19.955	3.760	0.479
382.000	266.477	79.997	19.995	100.116	19.952	4.026	0.486
384.000	267.493	79.997	19.995	100.116	19.950	4.125	0.517
386.000	268.488	79.998	19.995	100.112	19.953	3.962	0.531
388.000	269.452	79.998	19.995	100.118	19.951	4.056	0.497
390.000	270.454	79.997	19.996	100.114	19.951	4.086	0.528
392.000	271.497	79.997	19.994	100.108	19.950	4.169	0.521
394.000	272.503	79.999	19.995	100.105	19.950	4.120	0.500
396.000	273.497	79.999	19.995	100.113	19.952	3.997	0.502
398.000	274.478	80.000	19.995	100.101	19.950	4.154	0.496
400.000	275.487	79.998	19.995	100.102	19.954	3.882	0.520
402.000	276.503	79.997	19.996	100.104	19.949	4.191	0.493
404.000	277.448	79.996	19.996	100.096	19.952	4.029	0.491
406.000	278.470	79.997	19.997	100.104	19.952	4.020	0.472
408.000	279.475	79.996	19.995	100.114	19.949	4.214	0.485
410.000	280.465	79.994	19.996	100.109	19.950	4.152	0.504
412.000	281.451	79.996	19.996	100.104	19.949	4.233	0.500
414.000	282.469	79.995	19.996	100.107	19.951	4.053	0.520
416.000	283.514	79.996	19.996	100.104	19.948	4.270	0.551
418.000	284.517	79.996	19.996	100.096	19.950	4.138	0.512
420.000	285.509	79.996	19.996	100.108	19.951	4.073	0.510
422.000	286.506	79.995	19.996	100.113	19.950	4.115	0.496
424.000	287.540	79.995	19.997	100.113	19.951	4.069	0.515
426.000	288.514	79.996	19.997	100.117	19.951	4.067	0.509
428.000	289.527	79.996	19.995	100.107	19.951	4.065	0.499
430.000	290.554	79.996	19.995	100.115	19.951	4.063	0.509
432.000	291.569	79.995	19.996	100.116	19.951	4.051	0.510
434.000	292.591	79.995	19.996	100.118	19.952	4.007	0.542
436.000	293.582	79.994	19.995	100.119	19.948	4.273	0.478
438.000	294.617	79.994	19.995	100.118	19.949	4.218	0.556
440.000	295.590	79.994	19.995	100.118	19.951	4.076	0.515
442.000	296.636	79.994	19.995	100.114	19.950	4.137	0.508
444.000	297.638	79.997	19.995	100.111	19.951	4.100	0.513
446.000	298.642	79.996	19.996	100.118	19.948	4.276	0.498
448.000	299.617	79.997	19.995	100.118	19.951	4.094	0.459
450.000	300.646	79.997	19.996	100.109	19.953	3.964	0.533
452.000	301.653	79.998	19.995	100.119	19.950	4.134	0.543
454.000	302.653	79.998	19.995	100.112	19.950	4.179	0.488
456.000	303.663	79.998	19.996	100.110	19.948	4.309	0.460
458.000	304.673	79.997	19.995	100.113	19.949	4.216	0.479
460.000	305.675	79.997	19.994	100.117	19.950	4.148	0.504
462.000	306.718	79.998	19.996	100.112	19.947	4.356	0.493
464.000	307.680	79.997	19.995	100.112	19.948	4.292	0.483
466.000	308.690	79.997	19.995	100.115	19.949	4.231	0.539
468.000	309.672	79.998	19.995	100.117	19.947	4.362	0.491
470.000	310.656	79.999	19.995	100.113	19.947	4.334	0.490
472.000	311.675	79.999	19.995	100.108	19.947	4.395	0.492
474.000	312.749	79.999	19.995	100.113	19.949	4.195	0.515
476.000	313.776	80.000	19.995	100.106	19.946	4.412	0.529
478.000	314.767	79.998	19.995	100.115	19.947	4.334	0.518
480.000	315.749	79.997	19.996	100.116	19.948	4.284	0.487
482.000	316.743	79.998	19.995	100.114	19.950	4.139	0.500
484.000	317.730	79.997	19.995	100.116	19.946	4.459	0.482
486.000	318.769	79.995	19.994	100.116	19.948	4.300	0.482
488.000	319.747	79.995	19.995	100.115	19.946	4.412	0.469
490.000	320.753	79.995	19.996	100.110	19.947	4.369	0.509
492.000	321.680	79.995	19.996	100.116	19.948	4.284	0.460
494.000	322.580	79.995	19.995	100.120	19.944	4.575	0.335
496.000	324.065	79.997	19.995	100.120	19.949	4.237	0.677
498.000	324.734	79.996	19.995	100.120	19.951	4.102	0.380
500.000	325.754	79.996	19.994	100.118	19.949	4.228	0.496
502.000	326.769	79.995	19.995	100.117	19.952	4.024	0.521
504.000	327.783	79.996	19.998	100.118	19.950	4.154	0.475
506.000	328.812	79.995	19.996	100.114	19.948	4.309	0.485
508.000	329.750	79.996	19.995	100.114	19.950	4.146	0.490
510.000	330.784	79.996	19.996	100.112	19.951	4.065	0.478
512.000	331.797	79.995	19.997	100.113	19.946	4.445	0.503
514.000	332.791	79.995	19.997	100.121	19.949	4.251	0.520
516.000	333.766	79.995	19.996	100.111	19.948	4.329	0.475
518.000	334.759	79.995	19.997	100.111	19.948	4.276	0.475
520.000	335.732	79.994	19.996	100.112	19.951	4.076	0.466
522.000	336.714	79.996	19.997	100.112	19.947	4.377	0.500
524.000	337.676	79.995	19.996	100.115	19.946	4.437	0.472
526.000	338.650	79.996	19.997	100.115	19.948	4.288	0.480
528.000	339.630	79.998	19.995	100.114	19.947	4.393	0.479
530.000	340.622	79.997	19.995	100.115	19.944	4.596	0.508
532.000	341.580	79.999	19.995	100.116	19.943	4.641	0.461
534.000	342.571	79.998	19.996	100.118	19.945	4.501	0.478
536.000	343.457	79.998	19.995	100.117	19.946	4.418	0.464
538.000	344.485	79.998	19.995	100.118	19.948	4.286	0.482
540.000	345.516	79.998	19.995	100.117	19.948	4.296	0.511
542.000	346.480	79.997	19.995	100.116	19.947	4.362	0.479
544.000	347.451	79.997	19.995	100.116	19.946	4.430	0.494
546.000	348.422	79.998	19.995	100.117	19.948	4.315	0.492
548.000	349.448	79.998	19.997	100.116	19.949	4.187	0.532
550.000	350.442	79.997	19.995	100.117	19.951	4.054	0.447
552.000	351.476	79.999	19.995	100.119	19.950	4.123	0.561
554.000	352.465	80.000	19.995	100.119	19.946	4.449	0.492
556.000	353.460	79.998	19.994	100.119	19.946	4.472	0.483
558.000	354.520	80.000	19.994	100.118	19.943	4.630	0.533
560.000	355.488	79.999	19.995	100.120	19.946	4.422	0.468
562.000	356.521	79.999	19.995	100.087	19.943	4.665	0.529
564.000	357.525	79.997	19.995	100.078	19.948	4.317	0.520
566.000	358.461	79.997	19.995	100.185	19.944	4.550	0.452
568.000	359.521	79.996	19.995	100.124	19.946	4.465	0.518
570.000	360.510	79.996	19.995	100.123	19.946	4.455	0.475
572.000	361.492	79.995	19.995	100.128	19.945	4.538	0.473
574.000	362.490	79.995	19.995	100.128	19.944	4.561	0.463
576.000	363.538	79.995	19.995	100.125	19.942	4.734	0.528
578.000	364.478	79.995	19.996	100.121	19.943	4.688	0.473
580.000	365.542	79.997	19.996	100.120	19.943	4.674	0.510
582.000	366.524	79.996	19.997	100.124	19.943	4.672	0.511
584.000	367.531	79.997	19.996	100.118	19.943	4.633	0.482
586.000	368.535	79.996	19.996	100.117	19.943	4.664	0.516
588.000	369.526	79.998	19.996	100.123	19.941	4.783	0.514
590.000	370.525	79.996	19.996	100.123	19.942	4.736	0.493
592.000	371.523	79.997	19.995	100.119	19.942	4.744	0.503
594.000	372.534	79.995	19.997	100.120	19.942	4.715	0.501
596.000	373.585	79.995	19.995	100.121	19.940	4.878	0.517
598.000	374.566	79.996	19.997	100.118	19.940	4.835	0.495
600.000	375.581	79.995	19.996	100.118	19.939	4.946	0.489
602.000	376.594	79.996	19.996	100.118	19.943	4.625	0.493
604.000	377.623	79.995	19.997	100.118	19.940	4.895	0.499
606.000	378.613	79.996	19.998	100.121	19.937	5.084	0.510
608.000	379.638	79.997	19.996	100.120	19.935	5.202	0.505
610.000	380.652	79.998	19.997	100.122	19.935	5.211	0.511
612.000	381.652	79.997	19.997	100.117	19.935	5.255	0.504
614.000	382.682	79.998	19.996	100.117	19.936	5.188	0.523
616.000	383.714	79.998	19.995	100.127	19.939	4.973	0.522
618.000	384.690	79.997	19.996	100.126	19.937	5.070	0.486
620.000	385.679	79.997	19.996	100.121	19.943	4.663	0.489
622.000	386.688	79.996	19.996	100.124	19.939	4.954	0.500
624.000	387.712	79.996	19.994	100.133	19.939	4.917	0.498
626.000	388.761	79.998	19.995	100.128	19.938	5.016	0.539
628.000	389.766	79.996	19.995	100.122	19.937	5.056	0.538
630.000	390.768	79.996	19.995	100.138	19.936	5.130	0.517
632.000	391.802	79.998	19.996	100.128	19.935	5.206	0.495
634.000	392.821	79.998	19.994	100.124	19.935	5.228	0.511
636.000	393.866	79.998	19.995	100.122	19.938	5.000	0.482
638.000	394.856	79.998	19.994	100.126	19.933	5.353	0.466
640.000	395.961	79.999	19.995	100.080	19.930	5.574	0.544
642.000	396.902	79.996	19.995	100.097	19.933	5.403	0.527
644.000	397.908	79.998	19.995	100.189	19.930	5.601	0.508
646.000	398.907	79.997	19.996	100.119	19.931	5.510	0.512
648.000	399.969	79.996	19.996	100.120	19.930	5.613	0.512
650.000	400.976	79.997	19.994	100.119	19.931	5.536	0.504
652.000	401.925	79.996	19.996	100.119	19.932	5.471	0.489
654.000	402.999	79.998	19.996	100.122	19.930	5.592	0.536
656.000	403.976	79.997	19.996	100.119	19.927	5.836	0.502
658.000	405.006	79.996	19.995	100.128	19.927	5.776	0.499
660.000	405.974	79.996	19.994	100.131	19.929	5.688	0.509
662.000	406.984	79.997	19.996	100.125	19.929	5.635	0.508
664.000	408.025	79.996	19.995	100.122	19.929	5.650	0.513
666.000	409.030	79.998	19.997	100.124	19.924	6.003	0.509
668.000	410.038	79.997	19.995	100.124	19.927	5.811	0.484
670.000	410.987	79.996	19.997	100.126	19.923	6.069	0.466
672.000	412.032	79.997	19.996	100.128	19.924	6.026	0.490
674.000	413.029	79.997	19.995	100.126	19.922	6.172	0.489
676.000	414.044	79.996	19.996	100.124	19.923	6.101	0.522
678.000	415.013	79.996	19.996	100.137	19.923	6.110	0.476
680.000	416.035	79.996	19.995	100.125	19.921	6.209	0.496
682.000	417.047	79.996	19.997	100.127	19.918	6.444	0.505
684.000	418.043	79.996	19.995	100.126	19.916	6.590	0.516
686.000	419.019	79.996	19.996	100.134	19.915	6.664	0.489
688.000	420.003	79.997	19.996	100.135	19.909	7.081	0.486
690.000	421.065	79.997	19.996	100.133	19.905	7.370	0.522
692.000	422.045	79.997	19.995	100.131	19.900	7.725	0.521
694.000	422.998	79.997	19.996	100.147	19.897	7.939	0.473
696.000	424.026	79.998	19.996	100.149	19.894	8.199	0.527
698.000	424.963	79.998	19.996	100.152	19.892	8.339	0.474
700.000	426.042	79.997	19.997	100.153	19.891	8.383	0.503
702.000	427.047	79.997	19.997	100.153	19.883	8.957	0.524
704.000	428.035	79.996	19.997	100.156	19.881	9.121	0.493
706.000	429.042	79.997	19.996	100.151	19.877	9.423	0.524
708.000	430.054	79.997	19.996	100.155	19.869	9.967	0.519
710.000	431.057	79.999	19.995	100.159	19.865	10.244	0.508
712.000	432.032	80.000	19.996	100.155	19.862	10.456	0.493
714.000	433.080	79.999	19.996	100.156	19.855	10.966	0.544
716.000	434.101	79.999	19.995	100.156	19.851	11.256	0.538
718.000	435.097	79.999	19.995	100.160	19.841	12.036	0.521
720.000	436.151	80.000	19.994	100.160	19.832	12.621	0.523
722.000	437.133	79.999	19.995	100.157	19.820	13.501	0.482
724.000	438.142	80.000	19.996	100.158	19.805	14.611	0.510
726.000	439.202	79.998	19.996	100.157	19.795	15.344	0.551
728.000	440.159	79.997	19.994	100.166	19.781	16.349	0.482
730.000	441.198	79.996	19.995	100.162	19.770	17.102	0.493
732.000	442.200	79.996	19.996	100.164	19.755	18.187	0.515
734.000	443.203	79.996	19.997	100.170	19.738	19.429	0.492
736.000	444.257	79.998	19.996	100.182	19.720	20.710	0.505
738.000	445.272	79.997	19.996	100.177	19.717	20.940	0.511
740.000	446.267	79.996	19.997	100.163	19.729	20.071	0.497
742.000	447.293	79.998	19.995	100.156	19.725	20.345	0.502
744.000	448.335	79.997	19.995	100.165	19.713	21.202	0.522
746.000	449.333	79.998	19.995	100.198	19.713	21.251	0.491
748.000	450.332	79.996	19.995	100.182	19.730	20.038	0.545
750.000	451.339	79.996	19.995	100.160	19.735	19.629	0.521
752.000	452.422	79.996	19.995	100.163	19.726	20.310	0.547
754.000	453.433	79.997	19.994	100.206	19.695	22.536	0.517
756.000	454.419	79.997	19.995	100.254	19.652	25.639	0.489
758.000	455.469	79.994	19.998	100.250	19.606	28.933	0.526
760.000	456.507	79.995	19.997	100.219	19.550	32.930	0.487
762.000	457.511	79.995	19.996	100.215	19.496	36.867	0.517
764.000	458.540	79.997	19.997	100.218	19.446	40.527	0.505
766.000	459.591	79.995	19.996	100.222	19.426	41.983	0.506
768.000	460.611	79.997	19.995	100.182	19.450	40.179	0.532
770.000	461.623	79.997	19.996	100.137	19.465	39.077	0.511
772.000	462.668	79.997	19.996	100.185	19.444	40.546	0.527
774.000	463.726	79.998	19.996	100.272	19.392	44.367	0.511
776.000	464.733	79.998	19.996	100.346	19.324	49.255	0.502
778.000	465.730	79.997	19.996	100.324	19.261	53.806	0.513
780.000	466.782	79.996	19.995	100.259	19.262	53.812	0.507
782.000	467.840	79.998	19.996	100.146	19.293	51.524	0.511
784.000	468.821	79.998	19.996	100.124	19.289	51.908	0.505
786.000	469.846	79.998	19.996	100.230	19.293	51.612	0.516
788.000	470.869	79.998	19.996	100.282	19.288	51.799	0.502
790.000	471.862	79.997	19.997	100.321	19.221	56.606	0.513
792.000	472.928	79.998	19.997	100.340	19.090	66.116	0.518
794.000	473.962	79.997	19.996	100.392	18.931	77.740	0.534
796.000	475.003	79.997	19.997	100.448	18.822	85.717	0.526
798.000	476.030	79.999	19.997	100.324	18.834	84.746	0.530
800.000	477.057	79.999	19.997	100.056	18.872	81.845	0.501
802.000	478.088	79.999	19.995	100.104	18.847	83.606	0.496
804.000	479.127	79.999	19.995	100.304	18.772	89.036	0.529
806.000	480.149	79.998	19.996	100.504	18.669	96.427	0.522
808.000	481.197	79.997	19.997	100.538	18.582	102.745	0.547
810.000	482.241	79.996	19.996	100.354	18.527	106.799	0.536
812.000	483.276	79.996	19.995	100.249	18.517	107.641	0.516
814.000	484.299	79.996	19.996	100.227	18.583	102.907	0.554
816.000	485.340	79.996	19.995	100.174	18.672	96.477	0.520
818.000	486.358	79.996	19.995	100.227	18.735	91.854	0.564
820.000	487.392	79.995	19.996	100.304	18.788	87.831	0.514
822.000	488.387	79.996	19.995	100.389	18.786	88.048	0.479
824.000	489.400	79.996	19.995	100.466	18.716	93.176	0.504
826.000	490.431	79.997	19.994	100.474	18.615	100.565	0.520
828.000	491.447	79.996	19.996	100.472	18.596	102.002	0.500
830.000	492.476	79.996	19.995	100.287	18.613	100.587	0.501
832.000	493.493	79.996	19.995	100.209	18.562	104.305	0.508
834.000	494.548	79.996	19.995	100.325	18.534	106.232	0.541
836.000	495.572	79.997	19.996	100.395	18.483	109.962	0.508
838.000	496.592	79.997	19.996	100.501	18.396	116.446	0.490
840.000	497.637	79.997	19.995	100.418	18.361	119.012	0.517
842.000	498.680	79.996	19.996	100.333	18.357	119.306	0.503
844.000	499.739	79.997	19.996	100.340	18.363	118.779	0.540
846.000	500.713	79.996	19.996	100.291	18.323	121.515	0.500
848.000	501.757	79.996	19.996	100.448	18.262	125.934	0.498
850.000	502.756	79.997	19.996	100.502	18.138	134.933	0.526
852.000	503.746	79.999	19.997	100.581	18.015	143.983	0.473
854.000	504.719	79.998	19.996	100.487	17.945	149.074	0.512
856.000	505.756	79.997	19.996	100.391	17.903	152.047	0.517
858.000	506.787	79.998	19.996	100.351	17.866	154.735	0.537
860.000	507.775	79.998	19.997	100.367	17.831	157.293	0.507
862.000	508.775	79.998	19.997	100.465	17.792	160.085	0.485
864.000	509.818	79.997	19.996	100.508	17.745	163.442	0.530
866.000	510.792	79.997	19.996	100.507	17.694	167.132	0.493
868.000	511.798	79.999	19.996	100.505	17.641	170.994	0.522
870.000	512.807	79.998	19.996	100.502	17.596	174.279	0.506
872.000	513.792	79.998	19.997	100.497	17.552	177.422	0.503
874.000	514.794	79.998	19.996	100.490	17.514	180.175	0.518
876.000	515.835	79.997	19.997	100.483	17.486	182.161	0.492
878.000	516.877	79.998	19.996	100.491	17.460	184.057	0.538
880.000	517.898	79.998	19.995	100.511	17.438	185.601	0.504
882.000	518.886	79.999	19.996	100.511	17.423	186.718	0.476
884.000	519.930	79.997	19.998	100.510	17.417	187.125	0.506
886.000	520.935	79.999	19.997	100.508	17.419	186.962	0.497
888.000	521.930	79.999	19.996	100.490	17.429	186.207	0.497
890.000	522.969	79.997	19.996	100.480	17.453	184.480	0.510
892.000	523.979	79.997	19.995	100.477	17.481	182.403	0.527
894.000	525.017	79.996	19.997	100.474	17.524	179.242	0.531
896.000	526.038	79.997	19.995	100.467	17.585	174.864	0.551
898.000	527.065	79.996	19.995	100.442	17.652	169.976	0.535
900.000	528.089	79.997	19.995	100.437	17.733	164.070	0.542
902.000	529.086	79.997	19.995	100.427	17.825	157.464	0.510
904.000	530.118	79.998	19.996	100.398	17.928	149.987	0.537
906.000	531.103	79.997	19.995	100.393	18.037	142.132	0.471
908.000	532.111	79.997	19.996	100.386	18.154	133.658	0.485
910.000	533.155	79.997	19.996	100.357	18.271	125.178	0.516
912.000	534.184	79.997	19.996	100.351	18.395	116.234	0.511
914.000	535.223	79.997	19.996	100.325	18.515	107.582	0.518
916.000	536.218	79.998	19.996	100.314	18.630	99.291	0.526
918.000	537.275	79.998	19.995	100.297	18.740	91.343	0.537
920.000	538.282	79.997	19.996	100.278	18.847	83.594	0.513
922.000	539.323	79.997	19.995	100.274	18.945	76.552	0.502
924.000	540.320	79.997	19.996	100.247	19.038	69.864	0.493
926.000	541.363	79.996	19.996	100.238	19.121	63.886	0.531
928.000	542.384	79.998	19.995	100.230	19.194	58.627	0.508
930.000	543.387	79.998	19.995	100.211	19.262	53.691	0.507
932.000	544.427	79.997	19.995	100.200	19.321	49.448	0.540
934.000	545.452	79.998	19.996	100.196	19.375	45.573	0.529
936.000	546.440	79.999	19.995	100.185	19.427	41.824	0.524
938.000	547.485	79.998	19.995	100.176	19.468	38.874	0.540
940.000	548.482	79.999	19.996	100.169	19.511	35.769	0.487
942.000	549.468	79.999	19.995	100.164	19.544	33.399	0.487
944.000	550.485	79.997	19.996	100.159	19.575	31.129	0.528
946.000	551.530	79.996	19.996	100.160	19.605	28.990	0.503
948.000	552.576	79.997	19.996	100.161	19.630	27.192	0.513
950.000	553.586	79.998	19.996	100.155	19.648	25.866	0.517
952.000	554.618	79.997	19.995	100.155	19.666	24.587	0.490
954.000	555.675	79.996	19.997	100.151	19.683	23.339	0.514
956.000	556.710	79.998	19.996	100.155	19.701	22.047	0.499
958.000	557.715	79.998	19.995	100.155	19.714	21.151	0.528
960.000	558.773	79.998	19.995	100.153	19.724	20.397	0.507
962.000	559.806	80.000	19.995	100.154	19.738	19.425	0.507
964.000	560.844	79.998	19.995	100.154	19.746	18.867	0.501
966.000	561.897	79.998	19.994	100.130	19.753	18.331	0.524
968.000	562.926	79.998	19.995	100.131	19.760	17.858	0.506
970.000	563.966	79.997	19.997	100.133	19.768	17.233	0.521
972.000	564.965	79.997	19.997	100.126	19.773	16.865	0.509
974.000	566.032	79.997	19.996	100.132	19.783	16.189	0.514
976.000	567.081	79.996	19.997	100.127	19.790	15.694	0.488
978.000	568.061	79.996	19.997	100.121	19.793	15.431	0.488
980.000	569.135	79.996	19.997	100.124	19.797	15.153	0.522
982.000	570.166	79.997	19.997	100.131	19.800	14.914	0.541
984.000	571.235	79.997	19.996	100.122	19.803	14.706	0.523
986.000	572.249	79.997	19.996	100.129	19.805	14.599	0.500
988.000	573.281	79.997	19.996	100.127	19.810	14.227	0.530
990.000	574.346	79.997	19.996	100.130	19.810	14.207	0.518
992.000	575.390	79.996	19.995	100.134	19.814	13.926	0.515
994.000	576.378	79.997	19.996	100.132	19.818	13.625	0.502
996.000	577.378	79.995	19.995	100.123	19.817	13.712	0.521
998.000	578.359	79.998	19.996	100.133	19.822	13.383	0.466
1000.000	579.372	79.997	19.996	100.122	19.823	13.309	0.483
1002.000	580.392	79.996	19.996	100.129	19.825	13.117	0.500
1004.000	581.393	79.996	19.995	100.140	19.824	13.217	0.504
1006.000	582.427	79.995	19.996	100.131	19.828	12.906	0.553
1008.000	583.423	79.995	19.995	100.141	19.831	12.725	0.510
1010.000	584.428	79.996	19.996	100.146	19.834	12.478	0.502
1012.000	585.439	79.997	19.995	100.150	19.834	12.477	0.485
1014.000	586.404	79.996	19.997	100.148	19.836	12.363	0.479
1016.000	587.441	79.999	19.997	100.147	19.838	12.199	0.500
1018.000	588.464	79.997	19.996	100.154	19.839	12.169	0.557
1020.000	589.504	79.998	19.995	100.158	19.842	11.946	0.516
1022.000	590.490	79.998	19.994	100.135	19.843	11.852	0.508
1024.000	591.514	79.999	19.995	100.128	19.842	11.920	0.502
1026.000	592.505	79.998	19.994	100.134	19.843	11.830	0.479
1028.000	593.535	79.997	19.995	100.132	19.848	11.529	0.531
1030.000	594.551	79.997	19.996	100.128	19.841	11.967	0.534
1032.000	595.614	79.998	19.996	100.137	19.845	11.729	0.537
1034.000	596.565	79.998	19.995	100.127	19.842	11.906	0.453
1036.000	597.619	79.998	19.996	100.119	19.847	11.542	0.496
1038.001	598.664	79.998	19.997	100.134	19.849	11.423	0.519
1040.000	599.661	79.999	19.996	100.122	19.851	11.275	0.534
1042.000	600.652	79.999	19.996	100.137	19.853	11.150	0.481
1044.000	601.626	79.998	19.995	100.143	19.851	11.275	0.498
1046.000	602.663	80.000	19.995	100.134	19.854	11.069	0.537
1048.000	603.677	80.000	19.996	100.123	19.860	10.634	0.491
1050.000	604.720	79.997	19.995	100.120	19.861	10.526	0.506
1052.000	605.724	79.998	19.996	100.143	19.865	10.297	0.474
1054.000	606.753	79.997	19.995	100.141	19.861	10.563	0.518
1056.000	607.773	79.997	19.997	100.130	19.860	10.645	0.523
1058.000	608.800	79.997	19.997	100.137	19.864	10.360	0.508
1060.000	609.815	79.997	19.996	100.139	19.864	10.353	0.486
1062.000	610.890	79.995	19.998	100.145	19.863	10.394	0.539
1064.000	611.873	79.996	19.998	100.148	19.867	10.154	0.547
1066.000	612.884	79.995	19.997	100.132	19.868	10.068	0.518
1068.000	613.909	79.995	19.997	100.134	19.868	10.026	0.527
1070.000	614.906	79.996	19.997	100.133	19.869	9.999	0.499
1072.000	615.907	79.996	19.997	100.143	19.868	10.032	0.506
1074.000	616.884	79.997	19.996	100.130	19.871	9.811	0.506
1076.000	617.876	79.995	19.996	100.127	19.871	9.855	0.513
1078.000	618.871	79.997	19.995	100.133	19.874	9.615	0.470
1080.000	619.844	79.996	19.996	100.141	19.874	9.595	0.502
1082.000	620.859	79.995	19.996	100.136	19.874	9.615	0.495
1084.000	621.832	79.995	19.995	100.141	19.876	9.484	0.500
1086.000	622.853	79.995	19.996	100.145	19.873	9.717	0.499
1088.000	623.839	79.996	19.996	100.143	19.874	9.638	0.514
1090.000	624.887	79.995	19.995	100.153	19.874	9.590	0.497
1092.000	625.876	79.997	19.995	100.151	19.878	9.307	0.524
1094.001	626.868	79.996	19.995	100.160	19.879	9.291	0.497
1096.000	627.854	79.997	19.996	100.151	19.880	9.180	0.481
1098.000	628.853	79.997	19.996	100.148	19.876	9.479	0.510
1100.000	629.825	79.997	19.996	100.150	19.881	9.103	0.518
1102.000	630.831	79.998	19.996	100.153	19.878	9.335	0.502
1104.000	631.826	79.998	19.996	100.155	19.877	9.417	0.499
1106.000	632.846	79.997	19.996	100.156	19.880	9.198	0.519
1108.000	633.880	79.996	19.995	100.145	19.881	9.151	0.513
1110.000	634.988	79.997	19.996	100.156	19.883	8.963	0.537
1112.000	635.983	79.997	19.996	100.147	19.882	9.019	0.508
1114.000	637.028	79.998	19.995	100.143	19.885	8.837	0.552
1116.000	638.060	79.997	19.996	100.152	19.885	8.796	0.496
1118.000	639.121	79.998	19.995	100.146	19.889	8.536	0.546
1120.000	640.131	79.999	19.996	100.147	19.891	8.427	0.527
1122.000	641.185	79.999	19.995	100.156	19.893	8.230	0.522
1124.000	642.162	80.000	19.996	100.141	19.893	8.269	0.494
1126.000	643.251	79.999	19.995	100.140	19.892	8.360	0.516
1128.000	644.256	80.000	19.995	100.152	19.898	7.886	0.531
1130.000	645.272	79.997	19.995	100.145	19.898	7.921	0.484
1132.000	646.325	79.998	19.997	100.147	19.893	8.242	0.533
1134.000	647.408	79.995	19.995	100.155	19.892	8.306	0.533
1136.000	648.435	79.994	19.996	100.156	19.893	8.228	0.526
1138.000	649.473	79.995	19.995	100.152	19.894	8.180	0.524
1140.000	650.569	79.996	19.996	100.150	19.892	8.327	0.567
1142.000	651.580	79.996	19.996	100.157	19.894	8.166	0.535
1144.000	652.635	79.996	19.996	100.156	19.900	7.728	0.513
1146.000	653.729	79.996	19.996	100.157	19.895	8.077	0.586
1148.000	654.696	79.994	19.995	100.159	19.896	8.046	0.499
1150.000	655.724	79.997	19.995	100.159	19.898	7.891	0.479
1152.000	656.760	79.998	19.995	100.156	19.896	8.005	0.505
1154.000	657.730	79.994	19.996	100.155	19.895	8.092	0.461
1156.000	658.789	79.996	19.996	100.156	19.897	7.945	0.506
1158.000	659.758	79.994	19.996	100.157	19.898	7.883	0.514
1160.000	660.825	79.995	19.997	100.158	19.898	7.902	0.472
1162.000	661.804	79.994	19.996	100.154	19.899	7.790	0.520
1164.000	662.789	79.995	19.997	100.156	19.899	7.809	0.486
1166.001	663.798	79.996	19.996	100.158	19.900	7.747	0.498
1168.000	664.759	79.994	19.995	100.157	19.898	7.873	0.499
1170.000	665.729	79.997	19.996	100.157	19.901	7.666	0.484
1172.000	666.741	79.996	19.995	100.156	19.898	7.885	0.508
1174.000	667.758	79.996	19.996	100.156	19.898	7.869	0.484
1176.000	668.736	79.998	19.994	100.157	19.897	7.939	0.497
1178.000	669.755	79.997	19.994	100.157	19.898	7.915	0.484
1180.000	670.719	79.999	19.996	100.158	19.900	7.743	0.494
1182.000	671.709	79.997	19.994	100.158	19.901	7.660	0.474
1184.000	672.701	79.998	19.995	100.155	19.897	7.955	0.507
1186.000	673.657	79.998	19.996	100.152	19.902	7.588	0.496
1188.000	674.669	79.996	19.996	100.152	19.898	7.904	0.427
1190.000	675.646	80.000	19.995	100.153	19.898	7.866	0.491
1192.000	676.675	79.997	19.996	100.156	19.897	7.968	0.492
1194.000	677.653	79.997	19.995	100.157	19.899	7.797	0.514
1196.000	678.636	79.997	19.994	100.163	19.897	7.976	0.503
1198.000	679.595	79.997	19.995	100.155	19.901	7.664	0.471
1200.000	680.590	79.999	19.995	100.161	19.901	7.681	0.503
1202.001	681.526	79.999	19.996	100.158	19.894	8.203	0.494
1204.000	682.514	79.998	19.994	100.159	19.897	7.998	0.483
1206.000	683.501	79.998	19.993	100.154	19.895	8.097	0.486
1208.000	684.472	79.998	19.995	100.161	19.895	8.118	0.512
1210.000	685.463	79.998	19.994	100.160	19.893	8.273	0.496
1212.000	686.482	79.998	19.995	100.158	19.894	8.169	0.514
1214.001	687.444	79.997	19.994	100.160	19.895	8.114	0.475
1216.000	688.446	79.994	19.996	100.161	19.897	7.937	0.538
1218.000	689.449	79.996	19.996	100.162	19.899	7.837	0.510
1220.000	690.468	79.995	19.995	100.162	19.895	8.085	0.503
1222.000	691.424	79.995	19.996	100.161	19.890	8.479	0.492
1224.000	692.460	79.994	19.994	100.166	19.897	7.978	0.521
1226.000	693.484	79.996	19.995	100.164	19.894	8.197	0.516
1228.000	694.477	79.996	19.995	100.167	19.891	8.369	0.514
1230.000	695.472	79.997	19.997	100.166	19.895	8.122	0.504
1232.000	696.496	79.996	19.994	100.158	19.899	7.848	0.526
1234.000	697.493	79.995	19.995	100.159	19.892	8.363	0.505
1236.000	698.510	79.997	19.996	100.160	19.895	8.136	0.529
1238.001	699.567	79.998	19.996	100.161	19.889	8.522	0.533
1240.000	700.546	79.996	19.995	100.166	19.893	8.262	0.483
1242.000	701.557	79.996	19.996	100.161	19.890	8.481	0.483
1244.000	702.595	79.997	19.996	100.164	19.892	8.319	0.496
1246.001	703.607	79.996	19.996	100.168	19.894	8.165	0.492
1248.000	704.631	79.998	19.996	100.166	19.895	8.081	0.518
1250.000	705.656	79.996	19.997	100.169	19.893	8.239	0.514
1252.000	706.654	79.994	19.996	100.164	19.892	8.309	0.491
1254.000	707.695	79.997	19.998	100.170	19.889	8.575	0.520
1256.000	708.701	79.994	19.996	100.160	19.894	8.164	0.497
1258.000	709.727	79.996	19.995	100.164	19.893	8.251	0.484
1260.000	710.788	79.998	19.995	100.166	19.894	8.214	0.503
1262.000	711.821	79.998	19.994	100.162	19.888	8.597	0.536
1264.000	712.880	79.998	19.996	100.179	19.890	8.492	0.554
1266.000	713.904	79.999	19.995	100.174	19.888	8.611	0.512
1268.000	714.948	79.999	19.994	100.178	19.890	8.507	0.536
1270.000	715.983	79.996	19.995	100.170	19.894	8.151	0.548
1272.000	717.020	79.997	19.995	100.177	19.892	8.320	0.546
1274.000	717.985	79.998	19.995	100.175	19.894	8.202	0.486
1276.000	719.039	79.995	19.995	100.182	19.894	8.208	0.542
1278.000	720.014	79.998	19.996	100.189	19.892	8.319	0.485
1280.000	721.030	79.995	19.994	100.167	19.894	8.205	0.516
1282.000	722.113	79.996	19.995	100.160	19.891	8.413	0.546
1284.000	723.112	79.998	19.995	100.173	19.891	8.374	0.488
1286.000	724.142	80.001	19.994	100.166	19.889	8.527	0.537
1288.000	725.170	80.000	19.995	100.172	19.890	8.497	0.528
1290.000	726.185	80.000	19.995	100.172	19.893	8.263	0.507
1292.000	727.155	79.998	19.994	100.162	19.888	8.589	0.466
1294.000	728.169	79.997	19.994	100.174	19.892	8.342	0.506
1296.000	729.156	79.997	19.994	100.177	19.889	8.567	0.482
1298.001	730.192	80.000	19.995	100.170	19.886	8.781	0.506
1300.000	731.196	79.996	19.995	100.174	19.889	8.532	0.481
1302.000	732.208	79.996	19.995	100.176	19.888	8.592	0.526
1304.000	733.215	79.996	19.995	100.176	19.889	8.577	0.506
1306.000	734.227	79.995	19.995	100.173	19.892	8.332	0.495
1308.000	735.230	79.998	19.995	100.172	19.887	8.668	0.487
1310.000	736.191	79.995	19.995	100.188	19.889	8.539	0.490
1312.000	737.222	79.996	19.995	100.184	19.885	8.853	0.504
1314.000	738.231	79.997	19.996	100.181	19.885	8.809	0.491
1316.001	739.259	79.998	19.996	100.167	19.891	8.374	0.494
1318.000	740.282	79.998	19.996	100.177	19.887	8.680	0.517
1320.000	741.282	79.997	19.996	100.174	19.888	8.595	0.514
1322.000	742.219	79.996	19.997	100.179	19.889	8.530	0.475
1324.000	743.289	79.998	19.997	100.168	19.887	8.689	0.532
1326.001	744.267	79.996	19.995	100.166	19.888	8.604	0.472
1328.000	745.293	79.994	19.995	100.169	19.888	8.614	0.485