File: 01_Data/PC/MCC/PC_MCC_30K_min_210921_R2.txt
Sample ID:	C:\MCC\MCC Cal\Test\PC_MCC_30K_min_210921_R2.txt
Sample Weight (mg):	4.36
Heating Rate (C/s):	0.5
Combustor Temp (C):	900
N2 Flow Rate (cc/min):	80
O2 Flow Rate (cc/min):	20
Calibration File:	C:\MCC\MCC Cal\Coeff1 JN10440_30_210304.txt.txt
T Correction Coefficients:	0	1.024463	0
Time Shift (s):	14
*
Time (s)	Temperature (C)	N2 flow rate (cc/min)	O2 flow rate (cc/min)	Flow Rate (cc/min)	Oxygen (%)	HRR (W/g)	Heating rate (C/s)
0.000	107.454	79.997	19.996	100.111	19.986	-0.098	0.001
2.000	107.440	79.999	19.994	100.114	19.987	-0.181	-0.030
4.000	107.462	80.001	19.994	100.107	19.985	0.008	-0.003
6.000	107.466	79.997	19.995	100.111	19.989	-0.276	-0.004
8.001	107.459	80.000	19.994	100.110	19.985	-0.025	-0.005
10.001	107.436	79.997	19.995	100.113	19.983	0.112	-0.006
12.000	107.440	79.998	19.995	100.113	19.980	0.313	-0.004
14.000	107.437	79.997	19.994	100.119	19.982	0.207	-0.021
16.000	107.461	79.995	19.996	100.146	19.979	0.379	-0.009
18.000	107.486	79.996	19.996	100.177	19.973	0.865	0.038
20.000	107.513	79.995	19.996	100.202	19.972	0.897	-0.002
22.000	107.597	79.996	19.997	100.222	19.970	1.037	-0.014
24.000	107.659	79.996	19.997	100.251	19.958	1.902	0.051
26.000	107.786	79.996	19.997	100.278	19.956	2.055	0.071
28.000	107.968	79.995	19.995	100.287	19.950	2.461	0.099
30.000	108.153	79.997	19.995	100.309	19.951	2.411	0.120
32.001	108.362	79.997	19.994	100.315	19.947	2.711	0.093
34.000	108.626	79.997	19.996	100.332	19.945	2.829	0.127
36.001	108.931	79.997	19.995	100.345	19.941	3.145	0.149
38.000	109.262	79.997	19.995	100.335	19.938	3.388	0.170
40.000	109.572	79.996	19.995	100.340	19.937	3.448	0.164
42.000	109.986	79.994	19.994	100.351	19.938	3.351	0.165
44.000	110.426	79.997	19.996	100.350	19.936	3.499	0.231
46.000	110.872	79.996	19.995	100.356	19.934	3.613	0.241
48.001	111.372	79.995	19.994	100.355	19.939	3.257	0.220
50.000	111.869	79.995	19.996	100.338	19.940	3.230	0.267
52.000	112.376	79.995	19.996	100.350	19.939	3.268	0.277
54.000	112.889	79.997	19.994	100.349	19.938	3.325	0.263
56.000	113.492	79.996	19.996	100.357	19.936	3.494	0.287
58.000	114.047	80.000	19.994	100.356	19.938	3.337	0.302
60.000	114.675	79.996	19.995	100.355	19.933	3.746	0.327
62.000	115.334	79.999	19.993	100.356	19.935	3.583	0.323
64.001	115.967	79.998	19.994	100.362	19.930	3.953	0.317
66.000	116.593	79.999	19.994	100.373	19.932	3.802	0.321
68.000	117.280	79.998	19.995	100.384	19.932	3.753	0.333
70.000	118.001	79.998	19.994	100.389	19.931	3.835	0.364
72.000	118.709	79.998	19.995	100.389	19.933	3.717	0.355
74.000	119.421	79.996	19.994	100.385	19.931	3.866	0.356
76.000	120.164	79.998	19.994	100.387	19.929	4.024	0.378
78.000	120.935	79.999	19.994	100.386	19.929	3.978	0.384
80.000	121.752	79.998	19.995	100.385	19.929	3.970	0.375
82.000	122.565	80.000	19.994	100.390	19.933	3.744	0.437
84.000	123.353	80.000	19.995	100.388	19.928	4.075	0.420
86.000	124.193	79.999	19.996	100.388	19.929	3.980	0.403
88.000	125.012	80.001	19.994	100.389	19.927	4.129	0.401
90.000	125.857	80.000	19.995	100.389	19.931	3.839	0.427
92.000	126.706	79.998	19.995	100.390	19.928	4.061	0.396
94.000	127.567	79.999	19.994	100.391	19.928	4.069	0.395
96.000	128.465	79.998	19.995	100.391	19.932	3.792	0.437
98.000	129.363	79.996	19.996	100.388	19.931	3.848	0.468
100.001	130.257	79.997	19.995	100.387	19.929	3.991	0.448
102.000	131.128	79.997	19.996	100.390	19.926	4.206	0.470
104.000	132.054	79.997	19.996	100.389	19.929	3.984	0.474
106.000	132.963	79.996	19.996	100.391	19.928	4.053	0.449
108.000	133.893	79.996	19.995	100.384	19.929	4.030	0.483
110.000	134.818	79.997	19.995	100.385	19.930	3.914	0.459
112.000	135.750	79.996	19.995	100.389	19.927	4.165	0.467
114.000	136.693	79.995	19.995	100.391	19.929	3.976	0.464
116.000	137.635	79.996	19.996	100.389	19.932	3.811	0.471
118.000	138.592	79.996	19.996	100.388	19.930	3.945	0.480
120.000	139.495	79.998	19.995	100.392	19.931	3.836	0.467
122.000	140.483	79.996	19.995	100.378	19.930	3.925	0.513
124.000	141.427	79.996	19.994	100.380	19.932	3.801	0.497
126.000	142.399	79.994	19.994	100.379	19.932	3.802	0.490
128.000	143.357	79.996	19.994	100.379	19.927	4.111	0.489
130.000	144.315	79.996	19.993	100.378	19.935	3.602	0.473
132.000	145.362	79.996	19.995	100.378	19.931	3.840	0.517
134.000	146.295	79.997	19.994	100.380	19.930	3.927	0.499
136.000	147.297	79.999	19.994	100.387	19.930	3.936	0.477
138.000	148.282	79.999	19.993	100.373	19.935	3.567	0.480
140.000	149.262	79.998	19.996	100.374	19.933	3.683	0.478
142.000	150.235	80.000	19.994	100.363	19.933	3.708	0.475
144.000	151.276	79.999	19.994	100.382	19.931	3.863	0.498
146.000	152.254	79.998	19.996	100.371	19.930	3.930	0.486
148.000	153.232	79.997	19.996	100.368	19.933	3.704	0.479
150.000	154.202	79.998	19.994	100.376	19.934	3.613	0.488
152.000	155.185	79.997	19.995	100.362	19.936	3.464	0.497
154.000	156.196	79.999	19.994	100.362	19.934	3.654	0.489
156.000	157.148	79.999	19.995	100.355	19.936	3.522	0.484
158.000	158.107	79.999	19.995	100.359	19.934	3.673	0.466
160.000	159.121	79.998	19.994	100.362	19.938	3.375	0.515
162.000	160.117	79.999	19.994	100.357	19.937	3.446	0.509
164.000	161.081	79.999	19.995	100.355	19.939	3.282	0.515
166.000	162.069	80.000	19.994	100.359	19.938	3.386	0.498
168.000	163.013	79.999	19.995	100.357	19.933	3.721	0.465
170.000	164.011	79.999	19.995	100.355	19.935	3.539	0.481
172.000	165.012	79.998	19.996	100.353	19.937	3.427	0.508
174.000	166.058	79.999	19.995	100.353	19.932	3.810	0.523
176.000	167.008	79.997	19.996	100.353	19.935	3.557	0.499
178.000	167.998	79.997	19.995	100.352	19.935	3.591	0.494
180.000	168.937	79.997	19.995	100.354	19.937	3.460	0.495
182.000	169.911	79.996	19.996	100.354	19.936	3.470	0.488
184.000	170.877	79.997	19.995	100.351	19.933	3.744	0.506
186.000	171.848	79.996	19.995	100.354	19.934	3.611	0.478
188.000	172.827	79.994	19.994	100.352	19.934	3.677	0.485
190.000	173.828	79.997	20.000	100.359	19.936	3.506	0.521
192.000	174.768	79.998	19.997	100.362	19.935	3.576	0.504
194.000	175.717	79.994	19.996	100.359	19.936	3.463	0.463
196.000	176.673	79.996	19.997	100.354	19.935	3.581	0.463
198.000	177.640	79.997	19.995	100.356	19.935	3.601	0.461
200.000	178.626	79.996	19.995	100.351	19.935	3.543	0.500
202.000	179.588	79.997	19.997	100.349	19.938	3.382	0.482
204.000	180.559	79.997	19.997	100.349	19.938	3.341	0.459
206.000	181.523	79.997	19.997	100.340	19.936	3.496	0.473
208.000	182.496	79.997	19.995	100.348	19.937	3.416	0.505
210.000	183.436	79.996	19.996	100.348	19.940	3.237	0.468
212.000	184.398	79.996	19.995	100.339	19.937	3.436	0.444
214.000	185.381	79.997	19.995	100.327	19.939	3.306	0.495
216.000	186.393	79.997	19.996	100.339	19.938	3.378	0.505
218.000	187.339	79.997	19.995	100.333	19.941	3.105	0.453
220.000	188.274	79.998	19.995	100.330	19.939	3.246	0.477
222.000	189.236	79.999	19.995	100.342	19.943	3.003	0.457
224.000	190.215	79.998	19.996	100.341	19.941	3.142	0.482
226.000	191.186	79.998	19.995	100.335	19.943	2.976	0.477
228.000	192.116	79.999	19.995	100.343	19.942	3.073	0.469
230.000	193.075	79.997	19.995	100.338	19.945	2.832	0.454
232.000	194.050	79.998	19.996	100.322	19.942	3.082	0.505
234.000	194.981	79.999	19.996	100.332	19.942	3.061	0.503
236.000	195.946	79.998	19.995	100.330	19.945	2.836	0.467
238.000	196.877	79.997	19.996	100.334	19.943	2.978	0.472
240.000	197.821	79.998	19.995	100.343	19.946	2.770	0.488
242.000	198.770	79.999	19.995	100.329	19.944	2.943	0.466
244.000	199.707	79.999	19.994	100.340	19.942	3.098	0.431
246.000	200.637	79.999	19.994	100.340	19.946	2.778	0.459
248.000	201.594	80.000	19.994	100.336	19.943	2.977	0.479
250.000	202.597	79.999	19.995	100.329	19.946	2.770	0.489
252.000	203.524	80.000	19.994	100.339	19.943	2.967	0.457
254.000	204.480	79.997	19.995	100.343	19.946	2.790	0.476
256.000	205.431	79.998	19.994	100.337	19.945	2.881	0.479
258.000	206.402	79.997	19.995	100.320	19.944	2.896	0.473
260.000	207.332	79.996	19.995	100.320	19.941	3.165	0.466
262.000	208.326	79.996	19.995	100.321	19.943	2.975	0.463
264.000	209.314	79.995	19.997	100.327	19.942	3.037	0.502
266.000	210.237	79.997	19.996	100.343	19.945	2.874	0.464
268.000	211.244	79.997	19.995	100.322	19.944	2.930	0.513
270.000	212.174	79.997	19.996	100.322	19.946	2.782	0.484
272.000	213.149	79.996	19.996	100.322	19.944	2.905	0.493
274.000	214.073	79.996	19.996	100.314	19.946	2.785	0.468
276.000	215.066	79.998	19.995	100.321	19.944	2.952	0.490
278.000	216.015	79.997	19.996	100.314	19.943	3.004	0.471
280.000	217.008	79.997	19.995	100.317	19.944	2.931	0.493
282.000	217.912	79.998	19.995	100.321	19.942	3.091	0.463
284.000	218.948	79.996	19.997	100.314	19.942	3.087	0.511
286.000	219.845	79.997	19.996	100.318	19.941	3.141	0.480
288.000	220.809	79.996	19.997	100.330	19.939	3.298	0.460
290.000	221.779	79.996	19.996	100.321	19.940	3.215	0.473
292.000	222.748	79.996	19.997	100.319	19.944	2.917	0.484
294.000	223.736	79.996	19.995	100.319	19.941	3.163	0.465
296.000	224.660	79.996	19.997	100.321	19.943	2.985	0.452
298.000	225.681	79.997	19.996	100.313	19.941	3.103	0.480
300.000	226.624	79.997	19.996	100.324	19.943	3.006	0.492
302.000	227.554	79.997	19.995	100.328	19.944	2.958	0.469
304.000	228.591	79.996	19.995	100.315	19.945	2.816	0.511
306.000	229.563	79.998	19.994	100.322	19.944	2.938	0.490
308.000	230.574	79.997	19.996	100.319	19.946	2.807	0.525
310.000	231.548	79.998	19.994	100.330	19.941	3.130	0.467
312.000	232.514	79.997	19.995	100.324	19.946	2.772	0.493
314.000	233.494	79.997	19.994	100.320	19.943	3.012	0.508
316.000	234.499	79.997	19.994	100.319	19.947	2.683	0.505
318.000	235.474	79.997	19.995	100.317	19.944	2.925	0.502
320.000	236.474	79.997	19.994	100.318	19.945	2.865	0.469
322.000	237.500	79.997	19.995	100.318	19.949	2.563	0.513
324.000	238.421	79.998	19.995	100.317	19.946	2.747	0.477
326.000	239.436	79.998	19.995	100.318	19.947	2.671	0.501
328.000	240.420	79.999	19.995	100.315	19.948	2.665	0.483
330.000	241.360	79.999	19.995	100.309	19.947	2.698	0.493
332.000	242.370	80.000	19.994	100.310	19.942	3.050	0.469
334.000	243.398	79.999	19.995	100.310	19.945	2.822	0.519
336.000	244.355	79.999	19.994	100.313	19.947	2.696	0.492
338.000	245.327	79.997	19.996	100.309	19.947	2.710	0.473
340.000	246.341	79.997	19.995	100.311	19.945	2.816	0.486
342.000	247.329	79.998	19.995	100.312	19.946	2.747	0.462
344.000	248.305	79.998	19.995	100.312	19.946	2.810	0.499
346.000	249.274	79.995	19.996	100.309	19.947	2.743	0.506
348.000	250.292	79.996	19.995	100.311	19.950	2.522	0.501
350.000	251.280	79.997	19.995	100.314	19.949	2.569	0.477
352.000	252.269	79.995	19.996	100.310	19.946	2.758	0.477
354.000	253.238	79.997	19.996	100.310	19.948	2.636	0.505
356.000	254.190	79.994	19.997	100.310	19.947	2.698	0.456
358.000	255.207	79.997	19.995	100.312	19.949	2.571	0.501
360.000	256.222	79.996	19.997	100.312	19.948	2.665	0.529
362.000	257.208	79.997	19.995	100.313	19.951	2.393	0.488
364.000	258.207	79.995	19.996	100.313	19.949	2.547	0.484
366.000	259.183	79.997	19.995	100.313	19.946	2.772	0.522
368.000	260.165	79.996	19.995	100.314	19.949	2.553	0.484
370.000	261.164	79.995	19.994	100.314	19.945	2.836	0.487
372.000	262.142	79.996	19.995	100.316	19.946	2.780	0.499
374.000	263.206	79.996	19.996	100.314	19.947	2.737	0.493
376.000	264.181	79.997	19.996	100.313	19.952	2.381	0.497
378.000	265.210	79.995	19.997	100.313	19.948	2.669	0.505
380.000	266.233	79.997	19.996	100.314	19.949	2.582	0.519
382.000	267.284	79.996	19.996	100.314	19.945	2.880	0.526
384.000	268.258	79.997	19.997	100.314	19.947	2.696	0.474
386.000	269.271	79.997	19.998	100.315	19.944	2.888	0.517
388.000	270.295	79.997	19.996	100.314	19.945	2.820	0.507
390.000	271.407	79.996	19.996	100.308	19.943	2.979	0.530
392.000	272.376	79.996	19.995	100.312	19.945	2.822	0.489
394.000	273.442	79.998	19.996	100.312	19.947	2.692	0.547
396.000	274.427	79.998	19.995	100.310	19.946	2.805	0.497
398.000	275.452	79.997	19.994	100.309	19.950	2.520	0.522
400.000	276.479	79.998	19.994	100.307	19.945	2.874	0.482
402.000	277.504	79.997	19.995	100.311	19.951	2.447	0.511
404.000	278.548	79.997	19.994	100.308	19.951	2.437	0.514
406.000	279.576	79.999	19.994	100.310	19.947	2.686	0.525
408.000	280.608	79.999	19.994	100.309	19.946	2.764	0.532
410.000	281.599	79.999	19.994	100.310	19.949	2.563	0.508
412.000	282.627	79.999	19.995	100.306	19.949	2.567	0.481
414.000	283.653	80.000	19.994	100.303	19.949	2.541	0.494
416.000	284.686	79.998	19.995	100.305	19.949	2.597	0.499
418.000	285.707	80.000	19.994	100.304	19.947	2.713	0.517
420.000	286.677	79.996	19.995	100.306	19.946	2.764	0.479
422.000	287.714	79.997	19.995	100.301	19.948	2.657	0.506
424.000	288.764	79.997	19.995	100.302	19.947	2.690	0.520
426.000	289.754	79.998	19.995	100.304	19.946	2.808	0.494
428.000	290.792	79.998	19.995	100.294	19.946	2.814	0.496
430.000	291.808	79.996	19.993	100.294	19.947	2.679	0.484
432.000	292.861	79.997	19.994	100.302	19.948	2.653	0.528
434.000	293.851	79.997	19.994	100.304	19.947	2.675	0.506
436.000	294.921	79.998	19.995	100.309	19.946	2.744	0.522
438.000	295.922	79.996	19.994	100.309	19.947	2.737	0.515
440.000	296.931	79.997	19.994	100.299	19.948	2.636	0.485
442.000	297.959	79.998	19.996	100.298	19.948	2.623	0.541
444.000	298.947	79.996	19.996	100.296	19.949	2.551	0.503
446.000	299.974	79.996	19.995	100.302	19.949	2.595	0.527
448.000	301.012	79.995	19.996	100.308	19.950	2.462	0.518
450.000	302.013	79.995	19.996	100.300	19.951	2.398	0.462
452.000	303.034	79.995	19.996	100.305	19.951	2.446	0.523
454.000	304.043	79.996	19.995	100.303	19.949	2.547	0.492
456.000	305.104	79.996	19.996	100.290	19.951	2.396	0.520
458.000	306.041	79.996	19.996	100.294	19.948	2.635	0.507
460.000	307.113	79.996	19.995	100.302	19.949	2.583	0.499
462.000	308.115	79.996	19.995	100.285	19.943	2.962	0.532
464.000	309.130	79.997	19.995	100.293	19.945	2.835	0.496
466.000	310.310	79.997	19.995	100.282	19.948	2.651	0.568
468.000	311.012	79.997	19.995	100.281	19.946	2.752	0.504
470.000	312.218	79.998	19.995	100.272	19.946	2.752	0.530
472.000	313.271	79.998	19.995	100.276	19.948	2.632	0.512
474.000	314.246	79.997	19.995	100.278	19.951	2.434	0.533
476.000	315.236	79.997	19.996	100.276	19.946	2.755	0.459
478.000	316.239	79.996	19.997	100.281	19.946	2.813	0.467
480.000	317.315	79.997	19.996	100.294	19.949	2.529	0.495
482.000	318.350	79.996	19.996	100.282	19.948	2.634	0.479
484.000	319.355	79.996	19.996	100.277	19.948	2.632	0.533
486.000	320.407	79.999	19.995	100.282	19.949	2.564	0.512
488.000	321.447	79.998	19.995	100.280	19.953	2.307	0.534
490.000	322.453	80.000	19.995	100.281	19.952	2.332	0.536
492.000	323.454	79.999	19.995	100.294	19.950	2.507	0.511
494.000	324.477	80.000	19.994	100.302	19.949	2.588	0.514
496.000	325.511	79.998	19.995	100.286	19.949	2.588	0.535
498.000	326.553	79.999	19.994	100.279	19.949	2.547	0.506
500.000	327.623	79.996	19.994	100.293	19.951	2.421	0.525
502.000	328.683	79.997	19.995	100.300	19.951	2.454	0.521
504.000	329.737	79.996	19.996	100.302	19.949	2.543	0.517
506.000	330.791	79.997	19.996	100.304	19.948	2.629	0.560
508.000	331.820	79.996	19.995	100.288	19.948	2.610	0.525
510.000	332.894	79.996	19.995	100.287	19.948	2.634	0.544
512.000	333.962	79.996	19.995	100.298	19.949	2.537	0.527
514.000	335.038	79.996	19.995	100.257	19.949	2.558	0.533
516.000	336.117	79.996	19.995	100.241	19.950	2.523	0.548
518.000	337.147	79.997	19.996	100.353	19.948	2.609	0.545
520.000	338.196	79.998	19.995	100.299	19.949	2.583	0.505
522.000	339.239	79.996	19.995	100.287	19.947	2.676	0.513
524.000	340.311	79.998	19.994	100.281	19.950	2.485	0.529
526.000	341.387	79.997	19.994	100.280	19.948	2.647	0.536
528.000	342.458	79.996	19.995	100.289	19.950	2.487	0.543
530.000	343.469	79.997	19.995	100.289	19.953	2.293	0.536
532.000	344.514	79.997	19.995	100.276	19.950	2.487	0.539
534.000	345.536	79.996	19.996	100.278	19.953	2.247	0.551
536.000	346.556	79.996	19.996	100.277	19.951	2.425	0.532
538.000	347.598	79.996	19.996	100.272	19.949	2.554	0.512
540.000	348.631	79.995	19.996	100.275	19.953	2.287	0.500
542.000	349.666	79.996	19.996	100.273	19.951	2.388	0.515
544.000	350.750	79.998	19.996	100.277	19.949	2.579	0.534
546.000	351.737	79.999	19.995	100.278	19.954	2.224	0.525
548.000	352.788	79.999	19.996	100.281	19.955	2.148	0.514
550.000	353.827	79.999	19.996	100.272	19.951	2.398	0.538
552.000	354.853	79.998	19.995	100.271	19.954	2.173	0.516
554.000	355.895	79.998	19.996	100.273	19.951	2.425	0.533
556.000	356.888	79.998	19.995	100.275	19.953	2.291	0.497
558.000	357.905	79.996	19.996	100.274	19.953	2.289	0.497
560.000	358.929	79.996	19.997	100.275	19.955	2.140	0.533
562.000	359.905	79.997	19.997	100.275	19.952	2.312	0.498
564.000	360.941	79.997	19.997	100.275	19.954	2.185	0.508
566.000	361.958	79.997	19.996	100.274	19.952	2.365	0.514
568.000	362.935	79.997	19.996	100.273	19.952	2.314	0.507
570.000	363.909	79.998	19.995	100.273	19.954	2.233	0.477
572.000	364.926	79.998	19.996	100.271	19.950	2.521	0.483
574.000	365.954	79.998	19.997	100.273	19.949	2.544	0.513
576.000	366.938	79.997	19.996	100.274	19.950	2.502	0.452
578.000	367.883	79.997	19.995	100.269	19.952	2.353	0.480
580.000	368.860	79.997	19.995	100.273	19.949	2.564	0.467
582.000	369.853	79.997	19.994	100.275	19.950	2.467	0.492
584.000	370.881	79.997	19.996	100.273	19.949	2.560	0.528
586.000	371.817	79.997	19.995	100.271	19.948	2.629	0.466
588.000	372.820	79.997	19.994	100.271	19.949	2.556	0.508
590.000	373.829	79.996	19.995	100.272	19.951	2.401	0.495
592.000	374.844	79.996	19.996	100.272	19.953	2.293	0.495
594.000	375.825	79.995	19.994	100.272	19.951	2.434	0.497
596.000	376.810	79.995	19.995	100.269	19.948	2.620	0.489
598.000	377.792	79.995	19.996	100.272	19.951	2.415	0.483
600.000	378.796	79.995	19.994	100.272	19.948	2.628	0.517
602.000	379.770	79.996	19.995	100.273	19.948	2.608	0.498
604.000	380.772	79.996	19.995	100.273	19.949	2.543	0.507
606.000	381.787	79.998	19.995	100.273	19.948	2.655	0.532
608.000	382.771	79.996	19.995	100.271	19.945	2.883	0.496
610.000	383.713	79.996	19.994	100.271	19.948	2.659	0.472
612.000	384.773	79.996	19.994	100.272	19.947	2.707	0.496
614.000	385.749	79.996	19.995	100.271	19.945	2.844	0.500
616.000	386.742	79.996	19.995	100.271	19.944	2.941	0.517
618.000	387.779	79.997	19.995	100.274	19.945	2.875	0.520
620.000	388.778	79.995	19.995	100.273	19.941	3.103	0.488
622.000	389.798	79.996	19.995	100.273	19.941	3.159	0.507
624.000	390.799	79.997	19.995	100.275	19.946	2.782	0.521
626.000	391.798	79.996	19.997	100.275	19.946	2.767	0.500
628.000	392.835	79.997	19.995	100.270	19.949	2.546	0.513
630.000	393.868	79.998	19.995	100.273	19.947	2.709	0.534
632.000	394.910	79.996	19.996	100.273	19.945	2.825	0.510
634.000	395.936	79.996	19.996	100.273	19.945	2.860	0.523
636.000	396.928	79.998	19.995	100.268	19.946	2.804	0.475
638.000	397.994	79.996	19.995	100.272	19.945	2.871	0.525
640.000	399.002	79.997	19.995	100.274	19.946	2.761	0.487
642.000	400.030	79.996	19.996	100.273	19.947	2.740	0.517
644.000	401.075	79.997	19.995	100.274	19.945	2.842	0.517
646.000	402.121	79.997	19.995	100.275	19.945	2.846	0.510
648.000	403.098	79.999	19.996	100.273	19.946	2.800	0.505
650.000	404.127	79.998	19.996	100.270	19.947	2.734	0.509
652.000	405.136	79.998	19.997	100.270	19.946	2.757	0.511
654.000	406.167	79.999	19.996	100.268	19.948	2.658	0.500
656.000	407.193	79.998	19.996	100.270	19.943	2.964	0.502
658.000	408.243	79.998	19.996	100.269	19.944	2.914	0.501
660.000	409.245	79.998	19.995	100.268	19.942	3.078	0.485
662.000	410.275	79.996	19.997	100.265	19.942	3.099	0.534
664.000	411.300	79.998	19.996	100.265	19.939	3.256	0.531
666.000	412.311	79.995	19.997	100.272	19.938	3.376	0.503
668.000	413.300	79.997	19.996	100.270	19.939	3.266	0.506
670.000	414.308	79.998	19.996	100.270	19.936	3.509	0.482
672.000	415.285	79.997	19.996	100.273	19.939	3.299	0.484
674.000	416.288	79.997	19.995	100.272	19.934	3.674	0.520
676.000	417.314	79.997	19.995	100.269	19.933	3.724	0.511
678.000	418.318	79.998	19.995	100.273	19.931	3.886	0.496
680.000	419.376	79.997	19.995	100.267	19.929	3.971	0.513
682.000	420.342	79.997	19.995	100.267	19.930	3.904	0.510
684.000	421.372	79.998	19.996	100.275	19.927	4.161	0.500
686.000	422.373	79.998	19.996	100.275	19.923	4.420	0.541
688.000	423.349	79.995	19.995	100.273	19.920	4.652	0.476
690.000	424.386	79.995	19.994	100.271	19.920	4.662	0.519
692.000	425.397	79.996	19.996	100.271	19.917	4.871	0.510
694.000	426.365	79.996	19.996	100.275	19.913	5.114	0.495
696.000	427.383	79.996	19.995	100.272	19.908	5.532	0.498
698.000	428.367	79.997	19.995	100.277	19.903	5.840	0.494
700.000	429.365	79.997	19.996	100.278	19.895	6.456	0.492
702.000	430.372	79.996	19.995	100.277	19.894	6.505	0.486
704.000	431.372	79.997	19.995	100.278	19.885	7.172	0.489
706.000	432.399	79.998	19.995	100.280	19.879	7.551	0.524
708.000	433.393	79.999	19.994	100.286	19.872	8.077	0.497
710.000	434.415	79.999	19.995	100.286	19.865	8.613	0.493
712.000	435.427	80.000	19.994	100.280	19.859	9.052	0.544
714.000	436.400	79.998	19.995	100.276	19.850	9.641	0.477
716.000	437.441	79.998	19.994	100.285	19.841	10.284	0.531
718.000	438.420	79.998	19.996	100.284	19.829	11.156	0.509
720.000	439.410	79.997	19.997	100.283	19.820	11.803	0.496
722.000	440.467	79.998	19.996	100.301	19.807	12.791	0.513
724.000	441.439	79.997	19.996	100.304	19.793	13.763	0.507
726.000	442.463	79.998	19.997	100.301	19.780	14.725	0.501
728.000	443.497	79.998	19.995	100.304	19.766	15.734	0.518
730.000	444.539	80.000	19.996	100.310	19.751	16.796	0.514
732.000	445.535	80.000	19.995	100.311	19.737	17.782	0.507
734.000	446.550	79.999	19.995	100.307	19.722	18.869	0.521
736.000	447.593	80.000	19.995	100.310	19.703	20.199	0.503
738.000	448.618	80.000	19.995	100.314	19.682	21.740	0.520
740.000	449.644	79.999	19.996	100.319	19.663	23.106	0.497
742.000	450.654	79.998	19.995	100.322	19.643	24.548	0.497
744.000	451.664	79.997	19.996	100.320	19.624	25.849	0.510
746.000	452.721	79.996	19.996	100.317	19.605	27.241	0.550
748.000	453.741	79.996	19.997	100.332	19.591	28.296	0.505
750.000	454.703	79.996	19.996	100.338	19.590	28.364	0.468
752.000	455.743	79.996	19.997	100.300	19.625	25.855	0.516
754.000	456.787	79.997	19.997	100.274	19.659	23.431	0.490
756.000	457.797	79.998	19.995	100.285	19.675	22.251	0.515
758.000	458.825	79.996	19.995	100.338	19.666	22.860	0.520
760.000	459.882	79.997	19.994	100.398	19.633	25.256	0.497
762.000	460.882	79.998	19.994	100.408	19.580	29.003	0.502
764.000	461.905	79.997	19.995	100.396	19.508	34.204	0.518
766.000	462.959	79.998	19.995	100.389	19.438	39.264	0.507
768.000	463.981	79.997	19.994	100.377	19.364	44.658	0.511
770.000	464.983	79.996	19.995	100.378	19.355	45.297	0.528
772.000	466.001	79.996	19.996	100.283	19.391	42.688	0.499
774.000	467.099	79.996	19.996	100.257	19.404	41.716	0.565
776.000	468.141	79.998	19.995	100.323	19.359	44.931	0.554
778.000	469.136	79.997	19.995	100.458	19.280	50.525	0.525
780.000	470.207	79.997	19.995	100.552	19.182	57.619	0.527
782.000	471.243	79.997	19.996	100.495	19.087	64.554	0.500
784.000	472.273	80.000	19.996	100.407	19.034	68.438	0.533
786.000	473.274	79.998	19.995	100.339	19.071	65.768	0.532
788.000	474.348	79.998	19.994	100.234	19.112	62.677	0.548
790.000	475.385	79.999	19.994	100.291	19.088	64.341	0.526
792.000	476.420	79.998	19.995	100.443	19.005	70.278	0.532
794.000	477.476	79.998	19.995	100.593	18.900	77.845	0.548
796.000	478.503	79.999	19.995	100.598	18.805	84.854	0.517
798.000	479.538	79.999	19.995	100.459	18.745	89.333	0.539
800.000	480.508	79.999	19.996	100.363	18.780	86.796	0.489
802.000	481.536	79.999	19.994	100.255	18.865	80.473	0.515
804.000	482.507	79.998	19.995	100.266	18.903	77.699	0.471
806.000	483.510	79.998	19.995	100.391	18.857	80.934	0.488
808.000	484.547	80.000	19.995	100.596	18.745	88.984	0.486
810.000	485.583	79.998	19.996	100.702	18.625	97.706	0.515
812.000	486.598	79.999	19.996	100.556	18.544	103.699	0.510
814.000	487.564	79.998	19.995	100.354	18.567	102.042	0.496
816.000	488.586	79.999	19.995	100.307	18.643	96.620	0.514
818.000	489.602	79.998	19.996	100.268	18.709	91.763	0.513
820.000	490.610	79.998	19.995	100.363	18.732	90.068	0.533
822.000	491.600	79.997	19.994	100.529	18.721	90.854	0.483
824.000	492.597	79.996	19.994	100.612	18.668	94.663	0.484
826.000	493.630	79.996	19.995	100.589	18.571	101.674	0.522
828.000	494.627	79.996	19.996	100.568	18.523	105.012	0.496
830.000	495.635	79.995	19.995	100.434	18.449	110.410	0.489
832.000	496.681	79.996	19.996	100.489	18.387	114.929	0.527
834.000	497.778	79.996	19.996	100.439	18.351	117.578	0.537
836.000	498.788	79.998	19.995	100.473	18.356	117.191	0.530
838.000	499.805	79.996	19.996	100.447	18.362	116.871	0.502
840.000	500.833	79.996	19.995	100.427	18.345	118.170	0.503
842.000	501.863	79.997	19.997	100.537	18.330	119.202	0.497
844.000	502.904	79.996	19.997	100.550	18.311	120.457	0.517
846.000	503.923	79.997	19.997	100.547	18.248	124.882	0.522
848.000	504.941	79.997	19.995	100.585	18.129	133.543	0.522
850.000	506.004	79.997	19.994	100.652	17.984	144.054	0.522
852.000	506.946	79.996	19.995	100.686	17.866	152.538	0.483
854.000	507.965	79.996	19.995	100.603	17.777	158.946	0.520
856.000	508.960	79.996	19.995	100.521	17.697	164.759	0.528
858.000	509.936	79.996	19.994	100.528	17.626	169.868	0.464
860.000	510.978	79.996	19.995	100.594	17.572	173.754	0.509
862.000	511.989	79.997	19.996	100.628	17.523	177.262	0.506
864.000	512.946	79.997	19.995	100.627	17.481	180.340	0.484
866.000	513.985	79.998	19.996	100.629	17.441	183.181	0.518
868.000	515.013	79.998	19.995	100.632	17.406	185.721	0.519
870.000	516.044	79.997	19.994	100.658	17.377	187.816	0.498
872.000	517.022	79.999	19.995	100.639	17.352	189.611	0.508
874.000	518.063	79.998	19.995	100.650	17.335	190.801	0.519
876.000	519.087	79.998	19.995	100.650	17.323	191.645	0.510
878.000	520.097	79.997	19.995	100.630	17.322	191.661	0.516
880.000	521.146	79.997	19.995	100.637	17.327	191.246	0.501
882.000	522.154	79.998	19.995	100.629	17.348	189.691	0.533
884.000	523.202	79.997	19.994	100.625	17.379	187.484	0.513
886.000	524.266	79.998	19.995	100.614	17.425	184.108	0.534
888.000	525.330	79.999	19.993	100.593	17.479	180.225	0.559
890.000	526.325	79.999	19.994	100.583	17.547	175.296	0.530
892.000	527.398	79.999	19.994	100.563	17.629	169.343	0.541
894.000	528.423	79.999	19.996	100.551	17.721	162.725	0.515
896.000	529.518	79.999	19.995	100.539	17.827	155.061	0.538
898.000	530.522	79.999	19.996	100.511	17.933	147.441	0.507
900.000	531.587	79.997	19.995	100.496	18.055	138.624	0.514
902.000	532.663	79.997	19.995	100.473	18.175	130.017	0.548
904.000	533.720	79.997	19.995	100.460	18.298	121.116	0.535
906.000	534.790	79.997	19.996	100.431	18.432	111.525	0.554
908.000	535.845	79.997	19.996	100.418	18.559	102.347	0.530
910.000	536.929	79.996	19.996	100.395	18.676	93.967	0.528
912.000	537.933	79.997	19.995	100.385	18.790	85.766	0.514
914.000	539.022	79.998	19.996	100.369	18.894	78.280	0.536
916.000	540.076	79.996	19.995	100.362	18.991	71.329	0.541
918.000	541.106	79.996	19.995	100.336	19.086	64.495	0.523
920.000	542.155	79.996	19.996	100.316	19.168	58.579	0.567
922.000	543.214	79.997	19.996	100.313	19.242	53.280	0.518
924.000	544.179	79.995	19.997	100.311	19.310	48.445	0.485
926.000	545.177	79.996	19.996	100.295	19.370	44.083	0.504
928.000	546.199	79.997	19.996	100.278	19.423	40.258	0.502
930.000	547.252	79.996	19.997	100.273	19.470	36.891	0.530
932.000	548.247	79.995	19.996	100.272	19.515	33.727	0.498
934.000	549.257	79.996	19.996	100.270	19.553	30.950	0.492
936.000	550.271	79.996	19.996	100.261	19.588	28.488	0.512
938.000	551.302	79.995	19.996	100.246	19.613	26.684	0.500
940.000	552.294	79.998	19.995	100.237	19.638	24.867	0.502
942.000	553.298	79.997	19.996	100.237	19.663	23.041	0.473
944.000	554.341	79.997	19.995	100.238	19.682	21.682	0.530
946.000	555.335	79.997	19.995	100.239	19.701	20.347	0.511
948.000	556.357	79.997	19.995	100.238	19.716	19.303	0.507
950.000	557.378	79.999	19.995	100.237	19.734	18.011	0.504
952.000	558.388	79.999	19.994	100.237	19.749	16.900	0.542
954.000	559.385	79.998	19.994	100.237	19.759	16.209	0.491
956.000	560.429	79.998	19.995	100.238	19.770	15.386	0.525
958.000	561.439	79.998	19.997	100.237	19.778	14.828	0.530
960.000	562.459	79.998	19.994	100.237	19.787	14.206	0.491
962.000	563.461	79.997	19.995	100.233	19.793	13.734	0.489
964.000	564.525	79.996	19.995	100.230	19.797	13.437	0.521
966.000	565.505	79.999	19.995	100.231	19.803	13.002	0.507
968.000	566.549	79.999	19.995	100.232	19.811	12.446	0.506
970.000	567.534	79.999	19.995	100.232	19.816	12.135	0.485
972.000	568.556	80.000	19.996	100.223	19.821	11.771	0.509
974.000	569.628	80.000	19.994	100.221	19.824	11.500	0.538
976.000	570.625	80.001	19.994	100.222	19.825	11.466	0.559
978.000	571.611	80.000	19.995	100.226	19.832	10.966	0.479
980.000	572.615	79.998	19.996	100.229	19.836	10.666	0.520
982.000	573.698	79.997	19.996	100.230	19.837	10.576	0.543
984.000	574.750	79.997	19.997	100.216	19.839	10.485	0.571
986.000	575.738	79.998	19.995	100.229	19.843	10.147	0.506
988.000	576.726	79.997	19.995	100.219	19.844	10.071	0.488
990.000	577.738	79.996	19.996	100.206	19.851	9.595	0.474
992.000	578.753	79.998	19.996	100.215	19.848	9.780	0.521
994.000	579.743	79.998	19.997	100.218	19.854	9.405	0.478
996.000	580.705	79.999	19.995	100.214	19.855	9.322	0.493
998.000	581.694	79.998	19.996	100.211	19.857	9.132	0.475
1000.000	582.663	79.998	19.996	100.208	19.858	9.053	0.463
1002.000	583.641	79.997	19.995	100.209	19.860	8.978	0.497
1004.000	584.635	79.998	19.995	100.211	19.863	8.761	0.485
1006.000	585.590	79.997	19.996	100.218	19.864	8.638	0.472
1008.000	586.574	79.997	19.996	100.220	19.867	8.465	0.487
1010.000	587.520	79.997	19.995	100.223	19.866	8.532	0.474
1012.000	588.449	79.998	19.996	100.218	19.868	8.388	0.449
1014.000	589.483	79.995	19.996	100.218	19.866	8.478	0.481
1016.000	590.423	79.996	19.996	100.223	19.869	8.300	0.476
1018.000	591.323	79.995	19.997	100.218	19.868	8.350	0.446
1020.000	592.309	79.994	19.997	100.210	19.871	8.140	0.471
1022.000	593.288	79.997	19.997	100.228	19.872	8.089	0.473
1024.000	594.266	79.996	19.995	100.220	19.875	7.840	0.527
1026.000	595.284	79.996	19.997	100.223	19.876	7.802	0.502
1028.000	596.253	79.998	19.996	100.220	19.876	7.773	0.487
1030.000	597.233	79.998	19.995	100.223	19.878	7.674	0.473
1032.001	598.244	79.998	19.996	100.221	19.882	7.345	0.525
1034.000	599.212	79.998	19.994	100.215	19.880	7.491	0.498
1036.000	600.193	79.999	19.995	100.209	19.880	7.503	0.475
1038.000	601.211	79.999	19.995	100.203	19.884	7.209	0.473
1040.000	602.224	79.997	19.994	100.204	19.889	6.847	0.511
1042.000	603.255	79.998	19.995	100.223	19.884	7.256	0.525
1044.000	604.256	79.998	19.995	100.197	19.883	7.285	0.518
1046.000	605.296	79.999	19.996	100.149	19.888	6.948	0.547
1048.000	606.315	79.998	19.995	100.278	19.890	6.808	0.520
1050.000	607.368	79.999	19.994	100.233	19.893	6.541	0.555
1052.000	608.438	79.999	19.994	100.222	19.891	6.748	0.505
1054.000	609.535	80.000	19.996	100.218	19.895	6.458	0.527
1056.000	610.608	80.001	19.994	100.210	19.892	6.676	0.551
1058.000	611.662	80.000	19.994	100.213	19.893	6.579	0.534
1060.000	612.742	79.999	19.995	100.210	19.893	6.559	0.515
1062.000	613.818	79.998	19.994	100.223	19.891	6.729	0.541
1064.000	614.948	79.997	19.995	100.214	19.898	6.238	0.567
1066.000	616.018	79.998	19.996	100.214	19.892	6.622	0.521
1068.000	617.087	79.997	19.996	100.222	19.896	6.344	0.519
1070.000	618.174	79.998	19.995	100.228	19.896	6.344	0.512
1072.000	619.289	79.999	19.995	100.220	19.894	6.525	0.527
1074.000	620.358	79.997	19.996	100.222	19.901	6.001	0.533
1076.000	621.424	79.998	19.995	100.218	19.902	5.907	0.524
1078.000	622.507	79.997	19.995	100.211	19.901	6.013	0.531
1080.000	623.597	79.997	19.996	100.224	19.906	5.621	0.539
1082.001	624.658	79.997	19.996	100.204	19.905	5.699	0.537
1084.000	625.685	79.997	19.997	100.219	19.906	5.645	0.525
1086.000	626.746	79.996	19.996	100.224	19.901	6.003	0.528
1088.000	627.813	79.998	19.995	100.203	19.904	5.780	0.542
1090.000	628.884	79.996	19.996	100.209	19.903	5.894	0.521
1092.000	629.939	79.997	19.995	100.209	19.907	5.569	0.535
1094.000	631.004	79.997	19.996	100.155	19.904	5.816	0.506
1096.000	632.028	79.997	19.995	100.266	19.909	5.448	0.500
1098.000	633.071	79.996	19.996	100.230	19.908	5.492	0.525
1100.000	634.087	79.998	19.996	100.212	19.909	5.395	0.547
1102.000	635.162	79.996	19.996	100.216	19.909	5.451	0.540
1104.000	636.179	79.999	19.997	100.203	19.909	5.459	0.524
1106.000	637.179	79.999	19.998	100.221	19.912	5.202	0.501
1108.000	638.189	79.998	19.996	100.215	19.910	5.349	0.486
1110.000	639.221	79.999	19.995	100.215	19.909	5.410	0.504
1112.000	640.219	80.000	19.996	100.212	19.912	5.184	0.488
1114.000	641.262	79.998	19.996	100.208	19.909	5.431	0.534
1116.000	642.254	79.999	19.996	100.213	19.912	5.184	0.526
1118.000	643.255	79.999	19.995	100.212	19.913	5.171	0.493
1120.000	644.245	79.997	19.995	100.205	19.917	4.878	0.514
1122.000	645.239	79.998	19.995	100.207	19.917	4.854	0.496
1124.000	646.277	79.999	19.995	100.200	19.918	4.794	0.538
1126.001	647.217	79.999	19.995	100.209	19.919	4.690	0.496
1128.000	648.225	79.999	19.994	100.212	19.919	4.746	0.493
1130.000	649.252	80.000	19.994	100.227	19.921	4.580	0.539
1132.001	650.241	79.999	19.994	100.220	19.922	4.462	0.483
1134.000	651.267	80.000	19.995	100.205	19.919	4.737	0.492
1136.000	652.242	80.001	19.995	100.213	19.926	4.230	0.495
1138.001	653.241	80.000	19.995	100.219	19.928	4.083	0.467
1140.000	654.231	79.999	19.995	100.232	19.925	4.299	0.472
1142.000	655.266	79.999	19.996	100.225	19.928	4.057	0.494
1144.000	656.259	79.997	19.994	100.215	19.928	4.039	0.524
1146.000	657.274	79.996	19.994	100.226	19.931	3.873	0.544
1148.000	658.245	79.999	19.994	100.205	19.929	3.992	0.481
1150.000	659.240	79.997	19.995	100.201	19.928	4.061	0.482
1152.000	660.278	79.999	19.996	100.198	19.929	4.004	0.495
1154.000	661.246	79.997	19.994	100.215	19.931	3.863	0.503
1156.000	662.263	79.998	19.995	100.232	19.930	3.948	0.490
1158.000	663.246	79.998	19.995	100.225	19.931	3.861	0.491
1160.000	664.282	79.998	19.994	100.216	19.931	3.849	0.527
1162.000	665.241	79.998	19.994	100.209	19.929	3.979	0.488
1164.000	666.263	79.998	19.995	100.205	19.930	3.948	0.525
1166.000	667.257	79.999	19.996	100.215	19.931	3.865	0.505
1168.000	668.266	79.997	19.996	100.225	19.926	4.186	0.511
1170.000	669.288	79.998	19.995	100.213	19.934	3.610	0.510
1172.000	670.239	79.998	19.995	100.216	19.932	3.758	0.462
1174.000	671.291	79.997	19.996	100.210	19.929	3.987	0.495
1176.000	672.259	79.998	19.996	100.214	19.929	3.964	0.492
1178.000	673.285	79.997	19.996	100.211	19.929	3.981	0.508
1180.000	674.330	79.997	19.995	100.223	19.931	3.861	0.540
1182.001	675.368	79.997	19.995	100.220	19.930	3.898	0.518
1184.000	676.387	79.999	19.995	100.214	19.932	3.801	0.498
1186.000	677.391	80.000	19.995	100.227	19.931	3.887	0.520
1188.000	678.385	79.998	19.995	100.217	19.933	3.724	0.501
1190.000	679.367	80.000	19.994	100.215	19.935	3.572	0.502
1192.000	680.397	79.999	19.996	100.214	19.932	3.803	0.482
1194.000	681.405	80.000	19.996	100.211	19.930	3.953	0.505
1196.000	682.403	79.998	19.995	100.220	19.934	3.657	0.510
1198.000	683.360	79.998	19.995	100.230	19.934	3.632	0.495
1200.000	684.340	79.997	19.997	100.229	19.929	3.972	0.507
1202.001	685.376	79.998	19.996	100.231	19.932	3.809	0.531
1204.000	686.311	79.999	19.996	100.231	19.932	3.815	0.475
1206.000	687.399	79.998	19.996	100.231	19.934	3.634	0.543
1208.000	688.338	79.998	19.995	100.230	19.932	3.757	0.509
1210.000	689.394	79.999	19.995	100.232	19.927	4.120	0.516
1212.000	690.413	79.999	19.995	100.232	19.930	3.912	0.510
1214.000	691.392	80.000	19.995	100.233	19.932	3.815	0.478
1216.000	692.408	80.000	19.995	100.236	19.930	3.945	0.521
1218.000	693.418	80.000	19.995	100.225	19.925	4.254	0.466
1220.000	694.463	80.000	19.995	100.218	19.930	3.937	0.543
1222.000	695.478	79.998	19.995	100.232	19.930	3.922	0.540
1224.000	696.447	79.998	19.995	100.223	19.931	3.877	0.496
1226.000	697.434	79.998	19.995	100.228	19.931	3.881	0.463
1228.000	698.417	79.998	19.996	100.235	19.929	4.020	0.466
1230.001	699.465	79.998	19.995	100.228	19.932	3.757	0.474
1232.000	700.493	79.996	19.994	100.228	19.930	3.918	0.510
1234.001	701.524	79.998	19.995	100.234	19.930	3.939	0.528
1236.000	702.522	79.999	19.994	100.234	19.932	3.759	0.498
1238.000	703.572	79.999	19.995	100.233	19.931	3.838	0.528
1240.001	704.612	79.999	19.996	100.230	19.927	4.134	0.529
1242.000	705.641	79.999	19.995	100.227	19.928	4.037	0.528
1244.000	706.669	79.998	19.996	100.236	19.928	4.051	0.536
1246.001	707.717	79.999	19.996	100.234	19.932	3.773	0.528
1248.000	708.758	79.996	19.995	100.233	19.924	4.351	0.495
1250.000	709.780	79.997	19.994	100.234	19.931	3.871	0.524
1252.000	710.822	79.997	19.995	100.234	19.930	3.954	0.508
1254.000	711.887	79.996	19.996	100.234	19.926	4.200	0.524
1256.000	712.913	79.996	19.995	100.235	19.931	3.881	0.535
1258.001	713.919	79.996	19.995	100.236	19.930	3.935	0.499
1260.001	714.916	79.998	19.996	100.232	19.928	4.099	0.502
1262.000	715.968	79.996	19.995	100.231	19.926	4.192	0.525
1264.000	716.954	79.998	19.997	100.235	19.929	3.999	0.499
1266.000	717.968	79.999	19.995	100.234	19.925	4.289	0.478
1268.000	718.984	79.999	19.995	100.233	19.924	4.345	0.518
1270.000	720.006	79.999	19.994	100.233	19.926	4.233	0.546
1272.000	721.024	79.999	19.995	100.232	19.923	4.412	0.530
1274.000	721.985	79.998	19.995	100.230	19.922	4.470	0.486
1276.000	722.997	79.997	19.994	100.236	19.926	4.223	0.475
1278.000	724.000	79.998	19.995	100.237	19.924	4.362	0.500
1280.000	725.006	79.999	19.994	100.240	19.926	4.227	0.490
1282.000	726.027	79.998	19.994	100.235	19.927	4.167	0.493
1284.000	727.049	79.998	19.997	100.233	19.930	3.891	0.516
1286.000	728.005	79.999	19.997	100.232	19.924	4.351	0.461
1288.000	728.971	79.999	19.995	100.231	19.923	4.391	0.500
1290.000	730.011	79.999	19.996	100.231	19.925	4.304	0.515
1292.000	731.002	79.998	19.997	100.231	19.926	4.233	0.477
1294.000	732.013	79.999	19.995	100.232	19.927	4.173	0.544
1296.000	733.015	80.001	19.994	100.232	19.926	4.210	0.519
1298.000	733.970	79.999	19.995	100.236	19.926	4.182	0.484
1300.000	735.011	80.000	19.994	100.231	19.924	4.366	0.503
1302.000	736.052	79.999	19.994	100.231	19.925	4.310	0.538
1304.000	737.039	79.998	19.994	100.235	19.926	4.241	0.484
1306.001	738.133	79.997	19.995	100.240	19.921	4.598	0.514
1308.000	739.151	79.998	19.994	100.233	19.923	4.412	0.533
1310.000	740.170	79.998	19.995	100.235	19.925	4.281	0.525
1312.001	741.191	79.999	19.995	100.236	19.922	4.508	0.522
1314.000	742.228	79.999	19.996	100.234	19.922	4.484	0.505
1316.000	743.254	79.998	19.994	100.237	19.922	4.519	0.508
1316.500	743.503	79.999	19.995	100.237	19.917	4.828	0.504