File: 01_Data/PC/MCC/PC_MCC_30K_min_211018_R6.txt
Sample ID:	C:\MCC\MCC Cal\Test\PC\PC_MCC_30K_min_211018_R6.txt
Sample Weight (mg):	4.81
Heating Rate (C/s):	0.5
Combustor Temp (C):	900
N2 Flow Rate (cc/min):	80
O2 Flow Rate (cc/min):	20
Calibration File:	C:\MCC\MCC Cal\Coeff1 JN10440_30_210304.txt.txt
T Correction Coefficients:	0	1.024463	0
Time Shift (s):	14
*
Time (s)	Temperature (C)	N2 flow rate (cc/min)	O2 flow rate (cc/min)	Flow Rate (cc/min)	Oxygen (%)	HRR (W/g)	Heating rate (C/s)
0.000	108.932	79.999	19.995	102.924	20.105	0.189	-0.020
2.000	108.966	79.999	19.995	102.950	20.107	0.022	-0.014
4.000	108.948	80.000	19.995	102.962	20.108	-0.007	-0.013
6.000	108.918	79.999	19.995	102.936	20.109	-0.084	-0.032
8.001	108.913	79.999	19.994	103.006	20.103	0.330	-0.032
10.000	108.913	79.999	19.995	103.028	20.107	0.051	0.009
12.000	108.942	79.998	19.995	102.971	20.101	0.449	-0.004
14.000	108.958	79.998	19.995	102.984	20.101	0.462	-0.012
16.000	108.984	79.997	19.995	102.999	20.096	0.764	0.018
18.000	108.993	79.998	19.995	103.039	20.092	1.077	0.014
20.000	109.059	79.996	19.995	103.067	20.090	1.213	0.041
22.000	109.105	79.997	19.995	103.117	20.085	1.494	0.033
24.000	109.240	79.997	19.996	103.107	20.082	1.726	0.027
26.000	109.375	80.000	19.995	103.112	20.083	1.684	0.058
28.000	109.547	79.999	19.994	103.117	20.077	2.033	0.076
30.000	109.720	79.999	19.995	103.130	20.076	2.103	0.069
32.001	109.920	80.000	19.994	103.130	20.073	2.312	0.071
34.000	110.152	80.000	19.994	103.138	20.069	2.576	0.118
36.000	110.386	80.001	19.995	103.132	20.073	2.299	0.115
38.000	110.683	80.000	19.995	103.145	20.074	2.273	0.144
40.000	110.999	80.000	19.995	103.164	20.071	2.438	0.156
42.000	111.309	79.996	19.995	103.165	20.071	2.442	0.118
44.000	111.632	79.997	19.996	103.180	20.071	2.492	0.138
46.000	112.019	79.999	19.994	103.187	20.067	2.739	0.195
48.000	112.404	79.999	19.995	103.174	20.067	2.737	0.195
50.000	112.834	79.998	19.995	103.164	20.066	2.795	0.234
52.000	113.286	80.001	19.995	103.178	20.064	2.952	0.215
54.000	113.743	79.998	19.995	103.193	20.063	2.973	0.236
56.000	114.261	80.000	19.995	103.184	20.062	3.063	0.268
58.000	114.751	80.000	19.995	103.172	20.061	3.098	0.244
60.000	115.275	80.000	19.995	103.191	20.060	3.182	0.266
62.000	115.822	80.000	19.995	103.198	20.058	3.349	0.273
64.000	116.424	79.999	19.995	103.206	20.060	3.208	0.268
66.000	116.992	79.999	19.994	103.210	20.060	3.195	0.282
68.000	117.625	79.999	19.994	103.218	20.057	3.403	0.309
70.000	118.243	79.998	19.994	103.219	20.060	3.223	0.307
72.000	118.879	79.999	19.995	103.224	20.056	3.461	0.307
74.000	119.539	80.000	19.995	103.233	20.055	3.518	0.323
76.000	120.222	79.995	19.995	103.220	20.053	3.652	0.334
78.000	120.938	80.000	19.996	103.234	20.055	3.524	0.359
80.000	121.649	79.998	19.995	103.240	20.053	3.665	0.354
82.000	122.423	79.999	19.995	103.237	20.054	3.610	0.374
84.000	123.141	79.998	19.996	103.227	20.050	3.880	0.343
86.000	123.932	79.999	19.996	103.229	20.050	3.843	0.378
88.000	124.713	79.998	19.995	103.234	20.055	3.531	0.393
90.000	125.540	80.000	19.996	103.247	20.051	3.825	0.392
92.000	126.344	79.999	19.995	103.238	20.048	4.007	0.422
94.000	127.222	79.999	19.996	103.242	20.050	3.897	0.458
96.000	128.078	79.997	19.996	103.237	20.049	3.920	0.438
98.001	128.893	79.999	19.995	103.235	20.051	3.789	0.412
100.000	129.832	80.000	19.995	103.238	20.052	3.751	0.473
102.000	130.648	79.999	19.995	103.239	20.051	3.817	0.443
104.000	131.533	79.998	19.994	103.241	20.054	3.568	0.436
106.000	132.478	79.996	19.995	103.241	20.051	3.812	0.492
108.000	133.436	79.999	19.996	103.234	20.052	3.739	0.467
110.000	134.384	79.999	19.996	103.230	20.051	3.804	0.481
112.000	135.295	80.000	19.995	103.197	20.050	3.884	0.472
114.000	136.232	80.001	19.996	103.212	20.050	3.900	0.452
116.001	137.241	79.999	19.996	103.278	20.050	3.838	0.491
118.000	138.247	79.999	19.995	103.270	20.054	3.590	0.499
120.000	139.192	79.999	19.995	103.235	20.051	3.784	0.499
122.001	140.190	79.998	19.995	103.206	20.052	3.758	0.486
124.000	141.207	79.997	19.995	103.223	20.051	3.813	0.519
126.000	142.160	79.996	19.995	103.236	20.050	3.874	0.496
128.000	143.211	80.000	19.995	103.238	20.052	3.740	0.524
130.000	144.227	79.997	19.994	103.235	20.052	3.728	0.493
132.000	145.224	79.998	19.995	103.219	20.052	3.741	0.505
134.000	146.241	79.999	19.994	103.226	20.054	3.620	0.490
136.000	147.267	79.999	19.994	103.212	20.053	3.686	0.514
138.000	148.267	79.997	19.995	103.229	20.056	3.468	0.474
140.000	149.324	79.999	19.994	103.213	20.056	3.479	0.539
142.000	150.387	79.999	19.995	103.209	20.058	3.321	0.526
144.000	151.418	79.999	19.994	103.209	20.054	3.624	0.526
146.000	152.400	80.000	19.997	103.203	20.056	3.446	0.498
148.000	153.470	79.998	19.994	103.210	20.054	3.591	0.543
150.000	154.473	79.999	19.994	103.206	20.059	3.271	0.508
152.000	155.529	79.998	19.995	103.202	20.059	3.295	0.507
154.000	156.515	79.997	19.995	103.203	20.059	3.240	0.511
156.000	157.579	79.997	19.995	103.196	20.058	3.313	0.517
158.000	158.605	79.997	19.994	103.202	20.057	3.389	0.538
160.000	159.635	79.998	19.994	103.202	20.057	3.372	0.567
162.000	160.683	79.998	19.994	103.195	20.058	3.346	0.530
164.000	161.725	80.000	19.995	103.201	20.061	3.136	0.532
166.000	162.723	80.000	19.994	103.193	20.059	3.244	0.482
168.000	163.733	79.999	19.995	103.190	20.064	2.943	0.521
170.000	164.803	79.999	19.994	103.205	20.062	3.094	0.512
172.000	165.892	80.000	19.994	103.193	20.062	3.087	0.547
174.000	166.843	80.000	19.993	103.193	20.067	2.713	0.500
176.000	167.910	80.001	19.995	103.193	20.063	3.015	0.520
178.000	168.890	80.000	19.996	103.187	20.059	3.274	0.505
180.000	169.962	79.999	19.995	103.167	20.063	3.021	0.561
182.000	170.947	79.999	19.996	103.165	20.068	2.637	0.525
184.000	171.938	80.000	19.996	103.157	20.064	2.956	0.506
186.000	172.943	79.999	19.995	103.158	20.064	2.961	0.508
188.000	173.972	80.001	19.995	103.163	20.065	2.881	0.505
190.000	174.963	80.000	19.994	103.166	20.065	2.848	0.465
192.000	175.943	79.998	19.994	103.194	20.066	2.819	0.511
194.000	176.990	80.001	19.996	103.204	20.066	2.808	0.495
196.000	177.996	80.003	19.995	103.192	20.067	2.731	0.516
198.000	179.004	80.000	19.995	103.160	20.062	3.032	0.494
200.000	179.996	80.002	19.995	103.147	20.065	2.838	0.515
202.000	180.936	80.000	19.994	103.140	20.062	3.080	0.499
204.000	181.951	79.999	19.995	103.148	20.065	2.885	0.472
206.000	182.925	79.996	19.996	103.152	20.061	3.098	0.484
208.000	183.884	79.998	19.996	103.154	20.065	2.886	0.487
210.000	184.901	79.997	19.996	103.161	20.068	2.686	0.513
212.000	185.929	79.998	19.995	103.160	20.064	2.937	0.510
214.000	186.917	79.997	19.996	103.146	20.064	2.932	0.502
216.000	187.877	79.998	19.996	103.146	20.062	3.041	0.495
218.000	188.872	79.997	19.995	103.183	20.067	2.754	0.507
220.000	189.870	79.998	19.996	103.186	20.067	2.752	0.508
222.000	190.861	79.998	19.995	103.169	20.065	2.849	0.537
224.000	191.790	79.998	19.994	103.154	20.062	3.063	0.499
226.000	192.746	79.999	19.994	103.135	20.064	2.930	0.469
228.000	193.748	79.999	19.994	103.162	20.066	2.772	0.484
230.000	194.724	79.999	19.994	103.175	20.067	2.730	0.495
232.000	195.711	79.999	19.995	103.164	20.070	2.559	0.505
234.000	196.704	79.999	19.994	103.163	20.071	2.476	0.472
236.000	197.645	79.998	19.995	103.169	20.069	2.603	0.480
238.000	198.662	79.998	19.994	103.172	20.069	2.564	0.500
240.000	199.630	79.997	19.995	103.164	20.070	2.555	0.512
242.000	200.598	79.999	19.995	103.162	20.072	2.388	0.483
244.000	201.558	79.997	19.996	103.149	20.067	2.724	0.450
246.000	202.563	79.997	19.995	103.151	20.070	2.502	0.523
248.000	203.508	79.999	19.995	103.154	20.068	2.689	0.466
250.000	204.514	80.000	19.994	103.143	20.069	2.613	0.493
252.000	205.514	79.999	19.994	103.152	20.069	2.562	0.476
254.000	206.482	80.001	19.995	103.150	20.068	2.680	0.494
256.000	207.471	79.999	19.995	103.139	20.068	2.630	0.454
258.000	208.450	80.001	19.994	103.159	20.070	2.498	0.480
260.000	209.488	80.001	19.995	103.148	20.070	2.548	0.499
262.000	210.435	80.000	19.995	103.140	20.069	2.616	0.507
264.000	211.405	80.000	19.994	103.144	20.074	2.279	0.484
266.000	212.382	79.999	19.995	103.162	20.070	2.542	0.461
268.000	213.380	80.000	19.995	103.158	20.070	2.493	0.481
270.000	214.388	80.001	19.995	103.157	20.071	2.478	0.492
272.000	215.340	80.000	19.995	103.153	20.069	2.564	0.465
274.000	216.340	80.000	19.996	103.159	20.071	2.450	0.484
276.000	217.391	80.000	19.996	103.158	20.072	2.373	0.549
278.000	218.334	80.001	19.996	103.146	20.073	2.336	0.484
280.000	219.337	80.002	19.995	103.156	20.073	2.311	0.488
282.000	220.305	80.003	19.995	103.142	20.072	2.395	0.524
284.000	221.295	80.002	19.995	103.127	20.068	2.661	0.489
286.000	222.272	79.999	19.995	103.124	20.068	2.674	0.508
288.000	223.282	80.000	19.994	103.130	20.072	2.368	0.492
290.000	224.264	79.998	19.995	103.135	20.073	2.329	0.516
292.000	225.280	79.997	19.996	103.129	20.069	2.571	0.488
294.000	226.277	79.997	19.995	103.130	20.072	2.406	0.480
296.000	227.232	79.997	19.996	103.146	20.075	2.216	0.482
298.000	228.227	79.998	19.996	103.143	20.070	2.505	0.470
300.000	229.259	79.998	19.996	103.136	20.070	2.518	0.494
302.000	230.331	79.997	19.995	103.127	20.072	2.384	0.512
304.000	231.265	79.996	19.997	103.128	20.073	2.338	0.513
306.000	232.282	79.998	19.997	103.128	20.071	2.426	0.536
308.000	233.354	79.998	19.998	103.130	20.069	2.577	0.519
310.000	234.488	79.998	19.997	103.145	20.075	2.188	0.667
312.000	235.338	79.997	19.996	103.144	20.072	2.358	0.554
314.000	236.194	79.998	19.995	103.132	20.076	2.108	0.515
316.000	237.188	79.998	19.995	103.127	20.078	1.981	0.490
318.000	238.182	79.998	19.994	103.140	20.078	1.959	0.522
320.000	239.172	79.998	19.996	103.150	20.075	2.208	0.447
322.000	240.155	79.998	19.995	103.133	20.075	2.195	0.439
324.000	241.154	79.999	19.996	103.131	20.079	1.922	0.515
326.000	242.189	79.998	19.995	103.133	20.075	2.205	0.523
328.000	243.166	79.999	19.995	103.125	20.077	2.051	0.500
330.000	244.194	80.000	19.995	103.120	20.078	1.986	0.535
332.000	245.137	80.000	19.996	103.121	20.076	2.127	0.495
334.000	246.141	80.000	19.995	103.121	20.078	1.983	0.488
336.000	247.129	80.001	19.995	103.128	20.076	2.102	0.489
338.000	248.110	80.000	19.996	103.129	20.081	1.779	0.504
340.000	249.082	80.000	19.994	103.125	20.078	1.972	0.499
342.000	250.112	79.999	19.994	103.119	20.079	1.904	0.520
344.000	251.122	79.999	19.995	103.119	20.075	2.212	0.483
346.000	252.136	79.999	19.994	103.120	20.076	2.113	0.508
348.000	253.110	80.000	19.995	103.123	20.078	2.008	0.518
350.000	254.105	80.000	19.996	103.124	20.080	1.832	0.521
352.000	255.061	80.000	19.994	103.125	20.076	2.111	0.471
354.000	256.098	80.000	19.995	103.144	20.080	1.833	0.513
356.000	257.037	80.001	19.995	103.141	20.080	1.865	0.495
358.000	258.099	80.001	19.993	103.125	20.077	2.065	0.544
360.000	259.040	80.000	19.994	103.128	20.078	2.014	0.491
362.000	260.077	80.001	19.994	103.122	20.079	1.928	0.512
364.000	261.028	80.002	19.994	103.126	20.078	1.957	0.503
366.000	262.033	80.000	19.995	103.128	20.079	1.933	0.523
368.000	263.006	80.000	19.994	103.123	20.074	2.225	0.489
370.000	264.007	79.998	19.994	103.124	20.078	2.010	0.470
372.000	265.000	79.997	19.995	103.118	20.075	2.215	0.499
374.000	265.968	79.998	19.997	103.120	20.079	1.908	0.485
376.000	266.947	79.997	19.996	103.120	20.076	2.140	0.483
378.000	267.969	79.998	19.995	103.133	20.075	2.190	0.540
380.000	268.905	79.999	19.995	103.123	20.077	2.025	0.467
382.000	269.939	79.998	19.994	103.109	20.077	2.047	0.535
384.000	271.003	79.999	19.994	103.119	20.074	2.228	0.528
386.000	271.974	80.000	19.995	103.121	20.079	1.907	0.492
388.000	272.992	79.999	19.995	103.118	20.074	2.267	0.485
390.000	273.989	79.999	19.995	103.121	20.078	1.981	0.497
392.000	274.945	79.999	19.996	103.120	20.078	1.962	0.479
394.000	275.968	79.999	19.995	103.117	20.079	1.955	0.534
396.000	276.944	79.999	19.996	103.120	20.079	1.913	0.470
398.000	277.926	79.999	19.995	103.118	20.074	2.261	0.502
400.000	278.956	79.999	19.996	103.115	20.078	1.972	0.519
402.000	279.942	79.996	19.995	103.117	20.080	1.831	0.472
404.000	280.937	79.999	19.996	103.121	20.079	1.931	0.457
406.001	281.967	79.997	19.995	103.121	20.080	1.865	0.524
408.000	282.934	79.998	19.996	103.119	20.081	1.807	0.506
410.000	283.953	79.999	19.994	103.123	20.077	2.063	0.485
412.000	284.962	79.999	19.995	103.122	20.075	2.208	0.491
414.000	285.961	79.999	19.995	103.121	20.078	2.021	0.475
416.000	286.970	80.000	19.995	103.115	20.077	2.063	0.490
418.000	288.021	80.001	19.994	103.117	20.078	2.008	0.524
420.000	288.983	80.001	19.996	103.117	20.082	1.691	0.499
422.000	289.982	80.003	19.995	103.125	20.078	1.961	0.518
424.000	291.037	80.001	19.995	103.121	20.079	1.939	0.521
426.000	292.029	79.998	19.994	103.118	20.077	2.071	0.508
428.000	293.057	79.999	19.994	103.112	20.079	1.906	0.506
430.000	294.055	79.997	19.995	103.109	20.076	2.144	0.490
432.000	295.039	80.000	19.995	103.114	20.079	1.938	0.467
434.000	296.080	79.999	19.996	103.121	20.076	2.142	0.509
436.000	297.057	79.999	19.995	103.123	20.082	1.744	0.518
438.000	298.077	80.000	19.994	103.121	20.084	1.568	0.488
440.000	299.075	80.001	19.994	103.116	20.081	1.790	0.493
442.000	300.059	80.001	19.994	103.112	20.082	1.738	0.501
444.000	301.065	80.002	19.993	103.108	20.082	1.698	0.493
446.000	302.089	80.002	19.995	103.115	20.079	1.936	0.498
448.000	303.106	80.001	19.993	103.114	20.081	1.818	0.491
450.000	304.111	80.002	19.995	103.116	20.081	1.762	0.495
452.000	305.119	80.001	19.995	103.104	20.080	1.858	0.473
454.000	306.135	80.001	19.994	103.096	20.080	1.885	0.503
456.000	307.162	80.000	19.996	103.101	20.083	1.676	0.508
458.000	308.156	79.999	19.995	103.106	20.077	2.089	0.504
460.000	309.181	80.001	19.994	103.107	20.082	1.693	0.495
462.000	310.171	80.000	19.996	103.090	20.083	1.658	0.498
464.000	311.220	79.999	19.995	103.104	20.083	1.633	0.529
466.000	312.250	80.001	19.995	103.110	20.086	1.466	0.498
468.000	313.267	80.000	19.995	103.106	20.078	2.023	0.492
470.000	314.299	80.000	19.996	103.115	20.084	1.618	0.545
472.000	315.297	80.000	19.995	103.119	20.084	1.585	0.499
474.000	316.312	79.999	19.995	103.121	20.082	1.724	0.542
476.000	317.294	80.000	19.996	103.113	20.080	1.878	0.514
478.000	318.377	80.000	19.995	103.099	20.081	1.771	0.530
480.000	319.317	79.999	19.996	103.112	20.079	1.935	0.511
482.000	320.333	79.999	19.995	103.112	20.082	1.746	0.508
484.000	321.350	80.000	19.996	103.108	20.085	1.513	0.523
486.000	322.364	79.999	19.996	103.095	20.080	1.876	0.517
488.000	323.310	79.999	19.997	103.091	20.080	1.836	0.500
490.000	324.311	79.998	19.996	103.099	20.080	1.887	0.505
492.000	325.314	79.996	19.996	103.112	20.083	1.662	0.501
494.000	326.345	79.997	19.995	103.115	20.083	1.662	0.480
496.000	327.347	79.997	19.996	103.096	20.081	1.808	0.482
498.000	328.372	80.001	19.996	103.096	20.080	1.824	0.507
500.000	329.329	80.002	19.994	103.109	20.081	1.808	0.524
502.000	330.321	80.001	19.995	103.092	20.079	1.949	0.486
504.000	331.382	80.001	19.995	103.107	20.081	1.784	0.498
506.000	332.406	80.000	19.995	103.109	20.082	1.716	0.516
508.000	333.366	80.002	19.995	103.085	20.087	1.387	0.494
510.000	334.427	80.002	19.994	103.085	20.081	1.794	0.493
512.000	335.436	80.001	19.994	103.082	20.086	1.453	0.521
514.000	336.416	80.000	19.995	103.095	20.081	1.786	0.486
516.000	337.384	79.999	19.994	103.082	20.080	1.878	0.504
518.000	338.442	80.001	19.995	103.094	20.084	1.594	0.509
520.000	339.471	80.000	19.995	103.103	20.083	1.678	0.513
522.000	340.440	80.000	19.995	103.110	20.081	1.808	0.520
524.000	341.411	80.002	19.995	103.098	20.081	1.814	0.465
526.000	342.413	80.003	19.995	103.102	20.083	1.685	0.466
528.000	343.448	80.003	19.994	103.089	20.081	1.810	0.502
530.000	344.411	80.001	19.994	103.085	20.082	1.700	0.485
532.000	345.433	80.001	19.994	103.096	20.083	1.643	0.494
534.000	346.409	80.001	19.996	103.113	20.082	1.696	0.468
536.000	347.405	79.999	19.995	103.103	20.082	1.702	0.497
538.000	348.433	79.999	19.996	103.085	20.076	2.124	0.513
540.000	349.478	80.000	19.995	103.090	20.080	1.841	0.494
542.000	350.469	79.998	19.995	103.108	20.081	1.773	0.464
544.001	351.471	80.002	19.995	103.090	20.080	1.832	0.505
546.000	352.455	80.000	19.995	103.098	20.082	1.735	0.495
548.000	353.532	79.998	19.995	103.108	20.077	2.031	0.542
550.000	354.553	79.999	19.995	103.103	20.077	2.068	0.522
552.000	355.562	79.999	19.994	103.095	20.077	2.055	0.477
554.000	356.541	79.998	19.995	103.111	20.081	1.793	0.490
556.000	357.568	80.000	19.995	103.110	20.080	1.839	0.515
558.000	358.600	79.998	19.996	103.095	20.078	1.971	0.505
560.000	359.617	80.001	19.995	103.084	20.075	2.202	0.506
562.000	360.624	79.998	19.995	103.093	20.077	2.081	0.492
564.001	361.645	79.999	19.994	103.094	20.077	2.042	0.495
566.000	362.661	79.998	19.995	103.086	20.084	1.617	0.510
568.000	363.664	80.000	19.995	103.085	20.082	1.716	0.513
570.000	364.678	80.000	19.995	103.086	20.076	2.094	0.499
572.000	365.683	80.000	19.995	103.084	20.080	1.823	0.508
574.000	366.707	79.998	19.995	103.083	20.085	1.537	0.486
576.000	367.721	80.000	19.995	103.083	20.082	1.711	0.539
578.000	368.720	80.000	19.994	103.080	20.083	1.632	0.527
580.000	369.746	80.000	19.996	103.080	20.080	1.854	0.490
582.000	370.770	80.001	19.996	103.080	20.083	1.663	0.523
584.000	371.798	80.000	19.995	103.080	20.084	1.579	0.519
586.000	372.795	80.002	19.996	103.083	20.081	1.799	0.529
588.000	373.840	80.002	19.996	103.082	20.083	1.687	0.523
590.000	374.883	80.002	19.996	103.085	20.079	1.899	0.516
592.000	375.891	79.999	19.995	103.081	20.081	1.758	0.490
594.000	376.879	80.001	19.994	103.086	20.081	1.797	0.541
596.000	377.896	80.002	19.994	103.078	20.078	1.975	0.522
598.000	378.894	79.999	19.994	103.081	20.081	1.757	0.499
600.000	379.934	80.003	19.995	103.083	20.082	1.691	0.491
602.000	380.906	80.004	19.995	103.082	20.082	1.698	0.451
604.000	381.910	80.000	19.994	103.084	20.082	1.729	0.478
606.000	382.938	80.000	19.994	103.094	20.078	1.984	0.510
608.000	383.897	80.003	19.995	103.097	20.077	2.033	0.468
610.000	384.956	80.000	19.993	103.083	20.074	2.235	0.523
612.000	385.910	80.001	19.993	103.094	20.074	2.228	0.498
614.000	386.900	80.002	19.995	103.101	20.076	2.107	0.479
616.000	387.964	80.002	19.995	103.085	20.078	1.995	0.514
618.000	388.986	79.998	19.994	103.086	20.077	2.066	0.526
620.000	389.974	79.998	19.994	103.093	20.076	2.109	0.494
622.000	390.967	80.000	19.994	103.092	20.075	2.160	0.471
624.000	392.018	80.001	19.994	103.105	20.074	2.238	0.492
626.000	393.053	80.000	19.995	103.097	20.071	2.428	0.498
628.000	394.102	79.998	19.994	103.093	20.071	2.431	0.515
630.000	395.142	79.999	19.993	103.089	20.072	2.390	0.524
632.000	396.106	79.999	19.996	103.095	20.073	2.337	0.467
634.000	397.181	79.997	19.994	103.085	20.075	2.205	0.520
636.000	398.196	80.002	19.994	103.096	20.076	2.110	0.520
638.000	399.215	80.000	19.995	103.101	20.070	2.544	0.514
640.000	400.184	79.997	19.995	103.065	20.073	2.302	0.485
642.000	401.260	79.997	19.995	103.077	20.075	2.183	0.512
644.000	402.253	80.000	19.994	103.081	20.067	2.711	0.508
646.000	403.305	80.000	19.996	103.075	20.067	2.754	0.516
648.000	404.250	80.000	19.997	103.080	20.072	2.396	0.478
650.000	405.311	79.999	19.996	103.082	20.066	2.764	0.487
652.000	406.301	79.998	19.995	103.082	20.071	2.478	0.500
654.000	407.325	80.001	19.997	103.082	20.069	2.619	0.507
656.000	408.356	80.000	19.996	103.089	20.072	2.423	0.517
658.000	409.361	80.000	19.995	103.105	20.067	2.738	0.496
660.000	410.378	79.999	19.996	103.082	20.064	2.940	0.511
662.000	411.457	80.001	19.996	103.080	20.068	2.652	0.539
664.000	412.441	80.001	19.995	103.078	20.060	3.174	0.490
666.000	413.497	80.003	19.994	103.080	20.056	3.484	0.522
668.000	414.507	80.001	19.995	103.079	20.056	3.451	0.533
670.000	415.478	79.998	19.996	103.078	20.057	3.403	0.499
672.000	416.545	79.998	19.993	103.081	20.049	3.918	0.518
674.000	417.532	79.999	19.995	103.083	20.049	3.909	0.484
676.000	418.581	80.000	19.996	103.084	20.054	3.608	0.508
678.000	419.599	79.998	19.995	103.087	20.046	4.135	0.513
680.000	420.638	80.000	19.995	103.084	20.038	4.674	0.557
682.000	421.649	79.998	19.995	103.086	20.039	4.595	0.502
684.000	422.633	79.997	19.996	103.090	20.043	4.326	0.510
686.000	423.637	80.001	19.997	103.107	20.037	4.736	0.494
688.000	424.643	80.001	19.995	103.106	20.033	5.027	0.505
690.000	425.678	80.005	19.996	103.101	20.027	5.407	0.517
692.000	426.672	80.001	19.994	103.121	20.027	5.385	0.522
694.000	427.685	80.001	19.992	103.112	20.027	5.413	0.509
696.000	428.697	79.999	19.994	103.115	20.023	5.690	0.490
698.000	429.687	80.001	19.995	103.105	20.011	6.468	0.453
700.000	430.699	80.000	19.992	103.094	20.010	6.512	0.485
702.000	431.729	79.995	19.994	103.085	20.011	6.481	0.512
704.000	432.747	80.003	19.995	103.083	20.000	7.207	0.531
706.000	433.747	79.999	19.995	103.086	19.998	7.347	0.497
708.001	434.828	79.999	19.995	103.100	19.990	7.850	0.537
710.000	435.844	79.998	19.995	103.096	19.977	8.715	0.546
712.000	436.860	79.999	19.996	103.094	19.973	9.004	0.515
714.000	437.847	80.001	19.994	103.091	19.966	9.495	0.497
716.000	438.857	79.999	19.996	103.118	19.959	9.920	0.518
718.000	439.914	79.999	19.993	103.102	19.950	10.560	0.518
720.000	440.867	80.000	19.995	103.104	19.939	11.319	0.493
722.000	441.888	80.000	19.994	103.110	19.927	12.117	0.501
724.000	442.906	79.999	19.993	103.107	19.912	13.117	0.495
726.000	443.925	80.000	19.994	103.105	19.900	13.924	0.526
728.000	444.912	80.001	19.996	103.116	19.889	14.645	0.509
730.000	445.921	80.000	19.995	103.102	19.876	15.506	0.523
732.000	446.948	80.000	19.994	103.117	19.866	16.181	0.512
734.000	447.979	80.001	19.995	103.121	19.856	16.843	0.506
736.000	448.991	79.999	19.996	103.155	19.838	18.026	0.523
738.000	450.025	79.998	19.995	103.164	19.820	19.247	0.537
740.000	451.021	79.998	19.995	103.163	19.800	20.582	0.501
742.000	451.990	80.002	19.995	103.162	19.779	22.021	0.487
744.000	453.032	79.998	19.995	103.163	19.766	22.861	0.490
746.000	454.063	80.000	19.996	103.163	19.738	24.775	0.531
748.000	455.096	80.001	19.996	103.170	19.711	26.569	0.529
750.000	456.121	80.001	19.996	103.167	19.676	28.858	0.525
752.000	457.106	80.001	19.995	103.161	19.646	30.889	0.483
754.000	458.150	80.001	19.997	103.163	19.616	32.904	0.534
756.000	459.191	80.000	19.995	103.161	19.581	35.277	0.526
758.000	460.145	80.001	19.995	103.167	19.572	35.897	0.474
760.000	461.210	80.002	19.995	103.133	19.607	33.534	0.511
762.000	462.170	80.001	19.994	103.073	19.662	29.858	0.519
764.000	463.215	80.000	19.995	103.106	19.700	27.268	0.502
766.000	464.232	79.996	19.995	103.204	19.703	27.059	0.528
768.000	465.285	80.002	19.994	103.320	19.672	29.135	0.518
770.000	466.260	80.003	19.995	103.342	19.600	33.994	0.486
772.000	467.265	80.002	19.996	103.285	19.526	38.988	0.499
774.000	468.264	80.002	19.995	103.181	19.524	39.081	0.475
776.000	469.323	80.001	19.996	103.014	19.523	39.120	0.549
778.000	470.398	80.002	19.993	103.036	19.479	42.116	0.534
780.000	471.401	80.001	19.996	103.205	19.389	48.151	0.514
782.001	472.365	79.999	19.995	103.410	19.350	50.750	0.468
784.000	473.427	79.999	19.995	103.297	19.324	52.487	0.520
786.000	474.533	79.998	19.993	103.128	19.232	58.748	0.551
788.000	475.546	80.001	19.996	103.212	19.144	64.683	0.488
790.000	476.571	80.000	19.993	103.288	19.097	67.700	0.516
792.000	477.622	79.997	19.994	103.284	19.023	72.551	0.523
794.000	478.680	79.999	19.995	103.231	18.887	81.537	0.516
796.000	479.743	79.999	19.995	103.295	18.711	93.444	0.548
798.000	480.798	79.999	19.996	103.484	18.548	104.507	0.532
800.000	481.794	79.998	19.997	103.381	18.446	111.588	0.510
802.000	482.801	79.999	19.995	103.177	18.453	111.334	0.470
804.000	483.843	80.000	19.996	103.010	18.551	104.723	0.501
806.000	484.859	79.999	19.996	103.012	18.668	96.612	0.513
808.000	485.916	80.001	19.995	103.219	18.770	89.398	0.511
810.000	486.928	80.000	19.997	103.435	18.758	90.121	0.508
812.000	487.969	79.999	19.996	103.668	18.614	100.091	0.491
814.000	488.990	79.999	19.995	103.748	18.410	114.134	0.503
816.000	490.056	80.000	19.996	103.642	18.336	119.362	0.497
818.000	491.081	80.000	19.994	103.227	18.405	114.210	0.497
820.000	492.135	80.000	19.994	102.885	18.396	114.602	0.539
822.000	493.154	79.999	19.994	103.118	18.383	115.400	0.474
824.000	494.206	80.000	19.994	103.429	18.277	122.596	0.522
826.000	495.214	80.001	19.995	103.796	18.117	133.677	0.480
828.000	496.283	80.000	19.996	103.667	18.037	139.100	0.510
830.000	497.367	80.003	19.994	103.239	18.020	140.169	0.505
832.000	498.408	80.001	19.995	103.181	18.015	140.399	0.512
834.000	499.468	80.002	19.994	103.143	17.997	141.531	0.519
836.000	500.513	80.000	19.996	103.392	17.966	143.651	0.511
838.000	501.555	79.999	19.993	103.586	17.922	146.706	0.527
840.000	502.650	80.000	19.996	103.541	17.886	149.190	0.519
842.000	503.668	80.000	19.997	103.444	17.865	150.557	0.510
844.000	504.709	80.001	19.995	103.393	17.828	152.983	0.533
846.000	505.747	80.001	19.996	103.399	17.782	156.016	0.524
848.000	506.771	80.001	19.995	103.453	17.717	160.449	0.502
850.000	507.856	80.002	19.996	103.523	17.635	165.934	0.536
852.000	508.897	80.002	19.994	103.525	17.564	170.767	0.550
854.000	509.928	80.002	19.996	103.465	17.509	174.474	0.523
856.000	510.970	80.001	19.996	103.442	17.455	178.078	0.522
858.000	511.993	80.003	19.995	103.431	17.412	180.983	0.493
860.000	513.020	80.001	19.995	103.457	17.381	183.067	0.479
862.000	514.093	80.000	19.995	103.479	17.344	185.537	0.516
864.000	515.097	80.000	19.998	103.504	17.321	187.105	0.497
866.000	516.140	79.998	19.995	103.495	17.295	188.838	0.500
868.000	517.190	79.997	19.995	103.506	17.277	190.002	0.511
870.000	518.221	79.998	19.995	103.511	17.269	190.518	0.532
872.000	519.208	79.999	19.994	103.488	17.274	190.208	0.503
874.000	520.263	79.999	19.995	103.504	17.291	188.991	0.501
876.000	521.299	79.999	19.996	103.510	17.306	188.031	0.500
878.000	522.303	79.999	19.996	103.488	17.338	185.864	0.488
880.000	523.352	80.001	19.997	103.476	17.386	182.592	0.509
882.000	524.348	79.999	19.996	103.479	17.444	178.773	0.502
884.000	525.401	79.999	19.997	103.463	17.515	173.935	0.506
886.000	526.385	79.998	19.995	103.454	17.598	168.315	0.503
888.000	527.404	80.000	19.996	103.450	17.700	161.422	0.477
890.000	528.439	79.998	19.993	103.436	17.811	153.981	0.518
892.000	529.466	79.999	19.996	103.450	17.924	146.363	0.500
894.000	530.501	79.999	19.996	103.440	18.061	137.160	0.516
896.001	531.493	79.997	19.995	103.428	18.188	128.584	0.524
898.000	532.522	80.001	19.995	103.381	18.322	119.655	0.525
900.000	533.520	79.999	19.994	103.348	18.460	110.386	0.511
902.000	534.562	80.001	19.996	103.351	18.592	101.517	0.524
904.000	535.601	79.997	19.996	103.322	18.718	93.034	0.507
906.000	536.591	80.001	19.995	103.291	18.845	84.555	0.488
908.000	537.652	80.001	19.995	103.287	18.959	76.871	0.513
910.000	538.610	80.002	19.994	103.272	19.069	69.496	0.501
912.000	539.688	80.002	19.995	103.263	19.165	63.069	0.527
914.000	540.687	80.001	19.995	103.253	19.250	57.401	0.516
916.000	541.748	80.004	19.995	103.219	19.335	51.717	0.521
918.000	542.745	80.001	19.994	103.199	19.399	47.380	0.492
920.000	543.768	80.000	19.995	103.181	19.465	42.970	0.530
922.000	544.756	80.001	19.995	103.164	19.520	39.318	0.492
924.000	545.772	80.001	19.995	103.158	19.567	36.202	0.508
926.000	546.780	80.000	19.993	103.138	19.618	32.768	0.491
928.000	547.805	80.001	19.996	103.128	19.652	30.501	0.547
930.000	548.816	80.000	19.997	103.119	19.689	27.990	0.520
932.000	549.830	79.999	19.995	103.120	19.720	25.919	0.510
934.000	550.877	80.000	19.994	103.121	19.746	24.194	0.515
936.000	551.893	80.002	19.995	103.120	19.771	22.486	0.491
938.000	552.904	80.003	19.996	103.111	19.786	21.515	0.518
940.000	553.946	80.003	19.995	103.092	19.808	20.069	0.527
942.000	554.985	80.001	19.995	103.090	19.832	18.422	0.516
944.000	556.002	80.002	19.995	103.092	19.843	17.680	0.532
946.000	557.032	79.999	19.994	103.088	19.857	16.792	0.502
948.000	558.047	80.000	19.996	103.074	19.866	16.148	0.504
950.000	559.085	79.998	19.995	103.074	19.879	15.308	0.537
952.000	560.102	80.000	19.996	103.081	19.887	14.728	0.519
954.000	561.129	79.999	19.996	103.082	19.895	14.254	0.513
956.000	562.206	79.998	19.994	103.089	19.906	13.504	0.528
958.000	563.230	79.998	19.996	103.105	19.914	12.953	0.554
960.000	564.220	79.999	19.997	103.085	19.917	12.728	0.502
962.000	565.266	79.997	19.996	103.060	19.922	12.401	0.510
964.000	566.321	79.997	19.997	103.049	19.926	12.178	0.545
966.000	567.267	79.998	19.997	103.071	19.930	11.881	0.505
968.000	568.360	79.998	19.996	103.064	19.938	11.332	0.519
970.000	569.368	79.999	19.996	103.072	19.943	11.001	0.497
972.000	570.400	79.999	19.994	103.064	19.946	10.802	0.517
974.000	571.385	80.001	19.996	103.073	19.947	10.753	0.476
976.000	572.400	80.001	19.995	103.046	19.949	10.624	0.507
978.000	573.456	80.000	19.994	103.045	19.958	10.036	0.493
980.000	574.502	79.999	19.995	103.045	19.953	10.314	0.556
982.000	575.543	79.998	19.994	103.055	19.957	10.089	0.503
984.000	576.554	79.998	19.994	103.072	19.961	9.781	0.505
986.000	577.574	80.000	19.995	103.055	19.959	9.920	0.514
988.000	578.613	79.999	19.995	103.067	19.964	9.587	0.513
990.000	579.666	80.000	19.997	103.060	19.968	9.371	0.534
992.001	580.672	79.998	19.994	103.061	19.968	9.335	0.495
994.000	581.729	80.002	19.995	103.075	19.968	9.318	0.503
996.000	582.735	80.001	19.994	103.077	19.970	9.217	0.518
998.000	583.727	80.001	19.994	103.075	19.972	9.097	0.484
1000.000	584.733	79.999	19.994	103.063	19.976	8.833	0.480
1002.000	585.792	80.000	19.995	103.055	19.976	8.796	0.506
1004.000	586.836	80.000	19.994	103.047	19.982	8.391	0.504
1006.000	587.851	80.000	19.995	103.046	19.980	8.567	0.515
1008.000	588.873	80.001	19.994	103.047	19.978	8.671	0.541
1010.000	589.878	80.002	19.994	103.048	19.981	8.467	0.502
1012.001	590.883	80.002	19.995	103.041	19.983	8.359	0.459
1014.000	591.952	80.000	19.994	103.052	19.983	8.360	0.514
1016.000	592.932	80.001	19.995	103.077	19.989	7.912	0.481
1018.001	594.029	80.001	19.994	103.089	19.991	7.806	0.528
1020.000	595.052	80.002	19.995	103.111	19.993	7.698	0.498
1022.000	596.094	80.001	19.994	103.076	19.991	7.787	0.529
1024.000	597.083	80.003	19.995	103.068	19.994	7.578	0.515
1026.000	598.117	80.001	19.995	103.056	19.993	7.662	0.518
1028.000	599.149	80.000	19.995	103.075	19.995	7.546	0.526
1030.000	600.201	80.000	19.996	103.025	19.989	7.951	0.493
1032.000	601.257	79.998	19.995	103.035	19.995	7.521	0.538
1034.000	602.257	80.001	19.996	103.056	19.999	7.278	0.503
1036.000	603.258	80.001	19.995	103.057	20.000	7.230	0.496
1038.000	604.292	80.001	19.995	103.067	20.001	7.155	0.507
1040.000	605.316	79.998	19.994	103.078	20.003	6.971	0.495
1042.001	606.323	80.001	19.996	103.061	20.000	7.194	0.501
1044.000	607.349	80.000	19.996	103.053	20.002	7.067	0.519
1046.001	608.388	80.000	19.996	103.046	20.004	6.954	0.496
1048.000	609.426	80.000	19.994	103.040	20.007	6.754	0.492
1050.000	610.432	80.000	19.997	103.042	20.008	6.651	0.496
1052.000	611.428	80.000	19.996	103.046	20.008	6.667	0.517
1054.001	612.457	80.000	19.996	103.032	20.010	6.559	0.518
1056.000	613.464	80.000	19.997	103.041	20.012	6.392	0.501
1058.000	614.462	79.998	19.996	103.040	20.012	6.382	0.476
1060.000	615.500	79.998	19.996	103.049	20.012	6.413	0.516
1062.000	616.544	80.000	19.997	103.045	20.018	6.012	0.514
1064.001	617.585	80.000	19.995	103.046	20.017	6.041	0.518
1066.000	618.567	79.999	19.995	103.044	20.020	5.870	0.499
1068.001	619.591	79.999	19.996	103.050	20.019	5.911	0.510
1070.001	620.630	79.999	19.994	103.056	20.025	5.550	0.494
1072.000	621.658	80.001	19.995	103.052	20.021	5.788	0.506
1074.000	622.625	80.001	19.995	103.047	20.025	5.508	0.482
1076.001	623.703	80.001	19.996	103.046	20.026	5.435	0.511
1078.000	624.715	80.001	19.995	103.046	20.030	5.208	0.522
1080.000	625.748	80.003	19.995	103.046	20.029	5.272	0.520
1082.000	626.719	80.001	19.995	103.046	20.029	5.290	0.490
1084.000	627.768	80.001	19.994	103.045	20.032	5.048	0.513
1086.001	628.756	80.002	19.994	103.046	20.034	4.920	0.503
1088.000	629.749	80.001	19.994	103.047	20.029	5.248	0.488
1090.000	630.806	80.001	19.994	103.048	20.031	5.154	0.510
1092.000	631.813	80.000	19.995	103.046	20.035	4.878	0.524
1094.000	632.832	80.001	19.994	103.044	20.035	4.874	0.492
1096.000	633.900	80.002	19.995	103.044	20.037	4.753	0.536
1098.001	634.939	80.001	19.995	103.044	20.036	4.773	0.553
1100.000	636.022	80.001	19.994	103.043	20.037	4.725	0.526
1102.000	637.009	80.003	19.995	103.042	20.035	4.832	0.513
1104.000	638.045	80.003	19.994	103.041	20.039	4.616	0.482
1106.000	639.114	80.003	19.993	103.041	20.040	4.546	0.525
1108.000	640.108	80.002	19.994	103.037	20.044	4.275	0.519
1110.000	641.163	80.001	19.995	103.034	20.042	4.405	0.526
1112.000	642.183	79.999	19.994	103.035	20.042	4.405	0.513
1114.001	643.236	79.999	19.994	103.040	20.040	4.499	0.515
1116.000	644.324	80.000	19.995	103.037	20.042	4.373	0.528
1118.000	645.275	79.999	19.995	103.039	20.043	4.328	0.486
1120.000	646.304	79.999	19.996	103.037	20.039	4.625	0.486
1122.001	647.350	79.999	19.995	103.028	20.042	4.372	0.520
1124.001	648.377	79.999	19.995	103.040	20.047	4.064	0.528
1126.000	649.415	80.000	19.997	103.047	20.041	4.459	0.538
1128.001	650.476	80.000	19.995	103.045	20.043	4.321	0.525
1130.000	651.499	80.000	19.995	103.040	20.042	4.383	0.518
1132.000	652.502	80.000	19.995	103.044	20.042	4.415	0.475
1134.000	653.531	80.000	19.995	103.040	20.040	4.497	0.514
1136.000	654.556	79.999	19.995	103.024	20.040	4.539	0.513
1138.000	655.598	80.000	19.994	103.031	20.043	4.312	0.483
1140.000	656.625	79.999	19.996	103.045	20.048	4.024	0.515
1142.001	657.646	79.999	19.995	103.044	20.046	4.134	0.506
1144.000	658.683	79.999	19.995	103.043	20.043	4.310	0.534
1146.000	659.659	79.999	19.995	103.040	20.048	4.001	0.497
1148.000	660.704	79.999	19.995	103.043	20.043	4.327	0.538
1150.000	661.712	79.998	19.996	103.044	20.045	4.177	0.510
1152.001	662.763	79.997	19.994	103.040	20.046	4.114	0.514
1154.000	663.782	79.999	19.997	103.046	20.047	4.078	0.499
1156.000	664.776	80.001	19.994	103.046	20.049	3.916	0.504
1158.000	665.810	80.001	19.997	103.045	20.049	3.938	0.506
1160.000	666.832	80.001	19.996	103.027	20.053	3.678	0.509
1162.000	667.860	80.001	19.995	103.028	20.048	4.015	0.518
1164.000	668.849	80.000	19.995	103.020	20.049	3.901	0.477
1166.000	669.900	80.002	19.995	103.029	20.050	3.874	0.528
1168.000	670.909	80.000	19.995	103.040	20.051	3.783	0.492
1170.000	671.927	80.002	19.995	103.041	20.049	3.896	0.540
1172.001	672.960	80.002	19.994	103.034	20.050	3.865	0.515
1174.000	674.014	80.001	19.995	103.031	20.049	3.944	0.493
1176.000	675.032	80.002	19.996	103.034	20.047	4.030	0.497
1178.000	676.074	80.003	19.995	103.039	20.047	4.046	0.524
1180.000	677.107	80.003	19.995	103.044	20.049	3.938	0.494
1182.001	678.083	80.002	19.995	103.043	20.050	3.832	0.507
1184.000	679.091	80.003	19.994	103.039	20.049	3.920	0.493
1186.000	680.119	80.003	19.994	103.039	20.052	3.742	0.497
1188.001	681.085	80.002	19.995	103.036	20.046	4.117	0.534
1190.001	682.093	80.003	19.995	103.035	20.049	3.923	0.493
1192.000	683.118	80.002	19.995	103.040	20.049	3.916	0.503
1194.000	684.115	80.001	19.995	103.043	20.052	3.697	0.470
1196.000	685.140	80.001	19.995	103.042	20.048	4.011	0.490
1198.001	686.155	80.000	19.994	103.033	20.049	3.959	0.514
1200.000	687.201	79.999	19.994	103.025	20.046	4.101	0.516
1202.001	688.165	80.001	19.994	103.038	20.052	3.741	0.503
1204.000	689.156	79.999	19.994	103.042	20.048	3.988	0.481
1206.000	690.141	79.998	19.994	103.036	20.046	4.131	0.484
1208.001	691.213	80.001	19.995	103.038	20.049	3.911	0.546
1210.000	692.161	80.000	19.994	103.036	20.046	4.105	0.488
1212.000	693.177	80.000	19.995	103.034	20.047	4.083	0.514
1214.000	694.181	80.000	19.995	103.043	20.047	4.077	0.520
1216.000	695.204	80.001	19.996	103.045	20.049	3.949	0.495
1218.000	696.211	80.000	19.995	103.048	20.046	4.105	0.474
1220.001	697.228	79.999	19.995	103.045	20.047	4.074	0.495
1222.000	698.222	80.001	19.996	103.044	20.048	3.980	0.515
1224.000	699.172	80.000	19.996	103.033	20.046	4.121	0.477
1226.000	700.184	79.998	19.995	103.036	20.046	4.125	0.486
1228.000	701.210	79.999	19.995	103.040	20.047	4.029	0.500
1230.001	702.256	79.998	19.995	103.041	20.047	4.086	0.506
1232.000	703.256	79.998	19.995	103.038	20.046	4.123	0.504
1234.000	704.270	80.000	19.996	103.034	20.048	4.001	0.513
1236.000	705.244	79.998	19.995	103.026	20.046	4.136	0.516
1238.000	706.243	80.000	19.996	103.022	20.045	4.174	0.490
1240.000	707.317	80.000	19.995	103.017	20.050	3.828	0.530
1242.000	708.292	80.000	19.996	103.026	20.049	3.914	0.497
1244.001	709.324	80.001	19.996	103.039	20.047	4.041	0.497
1246.000	710.353	80.001	19.997	103.033	20.045	4.200	0.514
1248.000	711.372	80.000	19.996	103.031	20.047	4.046	0.532
1250.001	712.404	79.999	19.995	103.028	20.047	4.027	0.513
1252.000	713.389	80.000	19.996	103.025	20.045	4.179	0.492
1254.000	714.417	80.001	19.996	103.026	20.049	3.957	0.498
1256.000	715.474	80.000	19.996	103.028	20.050	3.885	0.544
1258.000	716.501	80.002	19.994	103.038	20.047	4.079	0.525
1260.000	717.515	80.001	19.995	103.031	20.046	4.101	0.526
1262.000	718.538	80.002	19.994	103.012	20.048	3.996	0.515
1264.000	719.554	80.002	19.994	103.025	20.046	4.121	0.503
1266.001	720.555	80.003	19.994	103.040	20.050	3.829	0.501
1268.001	721.570	80.002	19.994	103.042	20.046	4.152	0.510
1270.001	722.554	80.003	19.994	103.040	20.046	4.156	0.474
1272.001	723.567	80.002	19.995	103.025	20.049	3.933	0.498
1274.000	724.575	80.002	19.995	103.036	20.047	4.068	0.463
1276.001	725.628	79.999	19.994	103.042	20.048	4.015	0.510
1278.001	726.642	79.999	19.995	103.038	20.046	4.114	0.506
1280.000	727.636	79.999	19.994	103.034	20.049	3.898	0.494
1282.000	728.629	80.000	19.995	103.040	20.048	3.997	0.489
1284.000	729.683	80.000	19.994	103.036	20.046	4.136	0.493
1286.001	730.677	79.999	19.996	103.023	20.044	4.242	0.502
1288.000	731.742	79.999	19.994	103.039	20.047	4.056	0.543
1290.000	732.739	80.001	19.995	103.033	20.048	4.003	0.515
1292.001	733.722	80.000	19.995	103.033	20.044	4.239	0.465
1294.000	734.778	80.002	19.995	103.033	20.046	4.094	0.502
1296.001	735.727	80.001	19.994	103.038	20.047	4.083	0.497
1298.001	736.789	80.001	19.995	103.016	20.046	4.110	0.484
1300.000	737.816	80.002	19.994	103.004	20.046	4.098	0.503
1302.000	738.806	80.000	19.995	103.036	20.049	3.953	0.508
1304.000	739.804	80.001	19.995	103.036	20.047	4.044	0.525
1306.001	740.840	80.001	19.995	103.028	20.050	3.878	0.475
1308.000	741.863	79.999	19.995	103.039	20.050	3.885	0.510
1310.000	742.885	79.998	19.996	103.020	20.047	4.049	0.494
1311.500	743.657	80.000	19.996	103.013	20.051	3.786	0.528