File: 01_Data/PC/MCC/PC_MCC_30K_min_210921_R3.txt
Sample ID:	C:\MCC\MCC Cal\Test\PC_MCC_30K_min_210921_R3.txt
Sample Weight (mg):	4.83
Heating Rate (C/s):	0.5
Combustor Temp (C):	900
N2 Flow Rate (cc/min):	80
O2 Flow Rate (cc/min):	20
Calibration File:	C:\MCC\MCC Cal\Coeff1 JN10440_30_210304.txt.txt
T Correction Coefficients:	0	1.024463	0
Time Shift (s):	14
*
Time (s)	Temperature (C)	N2 flow rate (cc/min)	O2 flow rate (cc/min)	Flow Rate (cc/min)	Oxygen (%)	HRR (W/g)	Heating rate (C/s)
0.000	109.475	79.996	19.995	100.139	19.973	0.103	-0.002
2.000	109.472	79.997	19.995	100.133	19.974	0.058	0.031
4.000	109.420	79.995	19.995	100.144	19.973	0.105	-0.012
6.000	109.454	79.997	19.994	100.140	19.976	-0.051	-0.006
8.000	109.438	79.995	19.994	100.148	19.974	0.059	-0.030
10.001	109.445	79.996	19.995	100.139	19.973	0.106	0.019
12.000	109.410	79.996	19.995	100.138	19.973	0.143	-0.008
14.001	109.408	79.997	19.995	100.141	19.972	0.181	0.018
16.000	109.445	79.997	19.995	100.160	19.973	0.122	0.008
18.000	109.422	80.000	19.996	100.179	19.968	0.440	0.009
20.000	109.416	79.999	19.994	100.183	19.966	0.550	0.002
22.000	109.431	79.999	19.996	100.231	19.964	0.712	0.047
24.000	109.503	80.000	19.996	100.256	19.958	1.110	0.030
26.000	109.580	79.997	19.995	100.259	19.955	1.282	0.044
28.000	109.675	79.997	19.995	100.283	19.949	1.657	0.058
30.000	109.820	79.998	19.994	100.302	19.950	1.584	0.078
32.000	109.992	79.999	19.996	100.310	19.948	1.710	0.078
34.000	110.228	79.997	19.996	100.309	19.946	1.844	0.082
36.000	110.405	79.997	19.996	100.308	19.948	1.717	0.062
38.000	110.669	79.999	19.996	100.309	19.944	1.979	0.127
40.000	110.959	79.999	19.996	100.315	19.941	2.196	0.147
42.000	111.221	79.999	19.994	100.341	19.942	2.114	0.149
44.000	111.590	79.999	19.994	100.336	19.943	2.058	0.168
46.000	111.929	80.000	19.995	100.340	19.940	2.285	0.204
48.000	112.354	80.000	19.995	100.348	19.938	2.377	0.198
50.000	112.755	79.998	19.994	100.350	19.934	2.639	0.234
52.000	113.174	79.998	19.996	100.350	19.933	2.697	0.231
54.001	113.658	79.996	19.996	100.355	19.935	2.614	0.250
56.000	114.123	79.996	19.995	100.351	19.933	2.729	0.225
58.000	114.675	79.996	19.996	100.354	19.934	2.622	0.254
60.000	115.176	79.997	19.996	100.353	19.932	2.782	0.259
62.000	115.667	79.997	19.996	100.354	19.935	2.591	0.245
64.000	116.258	79.995	19.996	100.368	19.934	2.681	0.291
66.000	116.819	79.996	19.995	100.376	19.928	3.067	0.307
68.001	117.449	79.997	19.995	100.371	19.934	2.661	0.306
70.000	118.031	79.997	19.996	100.381	19.931	2.859	0.310
72.001	118.680	79.996	19.996	100.369	19.933	2.725	0.334
74.001	119.334	79.997	19.995	100.385	19.929	2.947	0.323
76.000	120.002	79.997	19.995	100.395	19.926	3.169	0.336
78.000	120.682	79.996	19.995	100.394	19.925	3.233	0.344
80.000	121.404	79.996	19.995	100.398	19.929	2.999	0.363
82.000	122.165	79.995	19.996	100.399	19.927	3.093	0.391
84.001	122.926	79.996	19.995	100.417	19.925	3.237	0.399
86.000	123.693	79.996	19.994	100.422	19.928	3.051	0.409
88.000	124.525	79.995	19.995	100.404	19.924	3.308	0.407
90.000	125.343	79.996	19.994	100.399	19.927	3.133	0.411
92.000	126.154	79.997	19.996	100.400	19.921	3.486	0.408
94.000	126.992	79.997	19.996	100.400	19.923	3.362	0.417
96.000	127.882	79.997	19.996	100.407	19.921	3.502	0.434
98.001	128.764	79.997	19.994	100.393	19.919	3.619	0.460
100.000	129.680	79.997	19.996	100.401	19.920	3.526	0.473
102.000	130.582	79.998	19.995	100.405	19.924	3.331	0.443
104.000	131.518	79.999	19.994	100.394	19.926	3.146	0.480
106.000	132.378	79.998	19.994	100.407	19.928	3.034	0.458
108.001	133.289	79.997	19.995	100.395	19.927	3.121	0.470
110.000	134.221	79.998	19.995	100.392	19.925	3.212	0.444
112.000	135.209	79.999	19.995	100.403	19.926	3.182	0.505
114.000	136.128	79.999	19.995	100.404	19.922	3.455	0.485
116.000	137.114	79.998	19.994	100.398	19.925	3.255	0.484
118.000	138.140	80.000	19.995	100.395	19.926	3.138	0.513
120.000	139.116	79.998	19.994	100.393	19.925	3.222	0.497
122.000	140.107	79.999	19.995	100.396	19.926	3.150	0.461
124.000	141.053	79.998	19.995	100.395	19.925	3.210	0.469
126.000	142.098	79.998	19.995	100.393	19.930	2.941	0.511
128.000	143.083	79.998	19.994	100.391	19.928	3.021	0.518
130.000	144.139	79.998	19.997	100.390	19.931	2.826	0.506
132.000	145.157	79.996	19.995	100.388	19.933	2.733	0.530
134.000	146.197	79.997	19.995	100.390	19.930	2.906	0.505
136.000	147.213	79.996	19.995	100.390	19.933	2.703	0.502
138.000	148.218	79.996	19.995	100.390	19.930	2.907	0.488
140.000	149.309	79.995	19.996	100.392	19.933	2.727	0.547
142.000	150.360	79.996	19.995	100.388	19.933	2.722	0.535
144.000	151.391	79.996	19.995	100.391	19.931	2.854	0.517
146.000	152.471	79.997	19.995	100.390	19.932	2.807	0.530
148.000	153.534	79.996	19.995	100.390	19.931	2.866	0.536
150.000	154.494	79.995	19.996	100.372	19.935	2.599	0.524
152.000	155.591	79.997	19.996	100.363	19.934	2.673	0.537
154.000	156.557	79.997	19.997	100.359	19.934	2.625	0.515
156.000	157.590	79.997	19.997	100.369	19.930	2.886	0.507
158.000	158.638	79.997	19.995	100.356	19.931	2.821	0.496
160.000	159.679	79.997	19.997	100.351	19.931	2.861	0.526
162.000	160.685	79.996	19.995	100.361	19.931	2.814	0.507
164.000	161.746	79.995	19.996	100.357	19.938	2.400	0.511
166.000	162.705	79.996	19.995	100.357	19.935	2.615	0.480
168.000	163.728	79.997	19.996	100.357	19.936	2.550	0.497
170.000	164.766	79.997	19.995	100.362	19.934	2.639	0.500
172.000	165.808	79.997	19.995	100.349	19.937	2.485	0.518
174.000	166.777	79.997	19.996	100.348	19.938	2.421	0.512
176.000	167.795	79.998	19.996	100.351	19.936	2.533	0.473
178.000	168.825	79.998	19.996	100.349	19.937	2.433	0.513
180.000	169.796	79.999	19.996	100.349	19.938	2.419	0.469
182.000	170.830	79.998	19.996	100.349	19.940	2.246	0.507
184.000	171.784	79.998	19.996	100.348	19.942	2.145	0.485
186.000	172.797	79.997	19.996	100.342	19.940	2.262	0.514
188.000	173.799	79.998	19.995	100.348	19.943	2.057	0.496
190.000	174.815	79.998	19.995	100.349	19.944	2.012	0.503
192.000	175.770	79.999	19.995	100.340	19.939	2.345	0.492
194.000	176.748	79.998	19.995	100.345	19.942	2.103	0.490
196.000	177.739	79.998	19.994	100.340	19.944	2.012	0.488
198.000	178.734	79.999	19.995	100.327	19.940	2.242	0.502
200.000	179.707	80.000	19.994	100.337	19.942	2.111	0.460
202.000	180.696	80.000	19.996	100.328	19.941	2.172	0.501
204.000	181.617	80.001	19.995	100.338	19.942	2.102	0.484
206.000	182.657	79.999	19.995	100.327	19.944	2.020	0.507
208.000	183.634	79.999	19.994	100.332	19.946	1.865	0.477
210.000	184.532	79.998	19.994	100.325	19.942	2.160	0.469
212.000	185.512	79.998	19.996	100.317	19.942	2.132	0.490
214.000	186.497	79.997	19.996	100.320	19.945	1.940	0.483
216.000	187.474	79.996	19.996	100.317	19.947	1.797	0.462
218.000	188.442	79.997	19.996	100.314	19.945	1.928	0.480
220.000	189.392	79.997	19.995	100.327	19.942	2.130	0.447
222.000	190.356	79.996	19.996	100.318	19.939	2.298	0.469
224.000	191.374	79.996	19.996	100.312	19.942	2.111	0.499
226.000	192.278	79.997	19.997	100.317	19.944	2.003	0.465
228.000	193.273	79.998	19.995	100.311	19.941	2.172	0.493
230.000	194.223	79.998	19.996	100.311	19.944	2.025	0.478
232.000	195.156	79.996	19.995	100.311	19.940	2.235	0.466
234.000	196.077	79.997	19.996	100.312	19.941	2.214	0.433
236.000	197.042	79.995	19.996	100.310	19.941	2.184	0.481
238.000	197.988	79.996	19.996	100.311	19.945	1.910	0.490
240.000	198.952	79.996	19.996	100.311	19.943	2.064	0.467
242.000	199.930	79.996	19.996	100.310	19.945	1.956	0.501
244.000	200.865	79.996	19.997	100.312	19.942	2.106	0.499
246.000	201.832	79.996	19.996	100.311	19.943	2.066	0.482
248.000	202.779	79.995	19.997	100.313	19.943	2.092	0.462
250.000	203.778	79.997	19.996	100.312	19.945	1.929	0.479
252.000	204.734	79.996	19.995	100.319	19.944	1.992	0.474
254.000	205.688	79.997	19.996	100.325	19.945	1.929	0.493
256.000	206.642	79.998	19.996	100.314	19.948	1.715	0.506
258.000	207.646	79.998	19.996	100.313	19.947	1.811	0.497
260.000	208.605	79.999	19.996	100.314	19.949	1.661	0.476
262.000	209.579	79.999	19.995	100.313	19.950	1.608	0.481
264.000	210.617	79.999	19.994	100.315	19.952	1.468	0.529
266.000	211.596	79.999	19.994	100.312	19.949	1.669	0.501
268.000	212.517	79.997	19.995	100.319	19.953	1.395	0.479
270.000	213.502	79.997	19.994	100.314	19.953	1.400	0.491
272.000	214.513	79.997	19.996	100.315	19.951	1.528	0.508
274.000	215.486	79.997	19.994	100.314	19.950	1.610	0.471
276.000	216.495	79.997	19.995	100.315	19.949	1.685	0.501
278.000	217.486	79.997	19.995	100.313	19.951	1.578	0.492
280.000	218.443	79.999	19.996	100.310	19.950	1.596	0.477
282.000	219.419	80.000	19.995	100.308	19.949	1.702	0.528
284.000	220.424	79.999	19.995	100.311	19.951	1.557	0.513
286.000	221.367	80.000	19.994	100.311	19.951	1.563	0.433
288.000	222.374	79.999	19.996	100.310	19.952	1.502	0.499
290.000	223.317	79.998	19.995	100.309	19.950	1.594	0.458
292.000	224.271	79.999	19.995	100.311	19.947	1.777	0.453
294.000	225.314	79.998	19.995	100.310	19.948	1.742	0.518
296.000	226.182	79.995	19.995	100.312	19.955	1.313	0.429
298.000	227.255	79.998	19.995	100.311	19.955	1.280	0.497
300.000	228.230	79.997	19.996	100.304	19.953	1.391	0.516
302.000	229.232	79.997	19.996	100.308	19.953	1.421	0.493
304.000	230.220	79.997	19.996	100.307	19.955	1.257	0.505
306.000	231.189	79.997	19.996	100.305	19.955	1.269	0.488
308.000	232.180	79.996	19.996	100.305	19.952	1.487	0.487
310.000	233.179	79.997	19.996	100.305	19.952	1.487	0.494
312.000	234.206	79.997	19.996	100.300	19.954	1.357	0.522
314.000	235.132	79.996	19.995	100.298	19.958	1.084	0.499
316.000	236.114	79.997	19.996	100.298	19.955	1.304	0.487
318.000	237.073	79.997	19.996	100.287	19.957	1.136	0.466
320.000	238.070	79.996	19.996	100.295	19.954	1.323	0.484
322.000	239.044	79.997	19.996	100.297	19.953	1.404	0.469
324.000	239.977	79.995	19.995	100.307	19.953	1.395	0.473
326.000	240.975	79.996	19.996	100.310	19.956	1.232	0.482
328.000	241.941	79.994	19.996	100.295	19.956	1.248	0.485
330.000	242.929	79.995	19.996	100.296	19.954	1.334	0.465
332.000	243.917	79.996	19.996	100.302	19.953	1.402	0.509
334.000	244.868	79.997	19.997	100.292	19.953	1.395	0.457
336.000	245.864	79.996	19.996	100.285	19.951	1.533	0.507
338.000	246.848	79.997	19.996	100.280	19.955	1.299	0.474
340.000	247.812	79.997	19.997	100.277	19.954	1.349	0.520
342.000	248.828	79.999	19.996	100.291	19.952	1.477	0.488
344.000	249.847	79.999	19.996	100.285	19.955	1.313	0.506
346.000	250.824	79.998	19.995	100.279	19.954	1.330	0.502
348.000	251.783	79.998	19.996	100.285	19.952	1.477	0.505
350.000	252.814	79.998	19.996	100.278	19.955	1.264	0.525
352.000	253.765	79.998	19.994	100.280	19.954	1.358	0.507
354.000	254.735	79.999	19.995	100.273	19.953	1.440	0.471
356.000	255.710	79.997	19.996	100.274	19.956	1.250	0.485
358.000	256.761	79.997	19.994	100.276	19.956	1.225	0.510
360.000	257.710	79.999	19.995	100.277	19.954	1.340	0.510
362.000	258.701	80.000	19.995	100.274	19.956	1.194	0.476
364.000	259.723	79.998	19.995	100.271	19.954	1.353	0.489
366.000	260.699	79.999	19.996	100.270	19.956	1.210	0.511
368.000	261.674	79.999	19.995	100.271	19.957	1.140	0.480
370.000	262.656	80.001	19.995	100.272	19.957	1.157	0.481
372.000	263.638	79.998	19.994	100.269	19.958	1.077	0.487
374.000	264.652	79.998	19.994	100.270	19.956	1.203	0.497
376.000	265.628	79.997	19.995	100.271	19.957	1.138	0.500
378.000	266.649	79.996	19.996	100.275	19.957	1.178	0.481
380.000	267.634	79.997	19.995	100.281	19.960	0.937	0.492
382.000	268.633	79.998	19.994	100.280	19.957	1.134	0.503
384.000	269.598	79.997	19.995	100.276	19.958	1.063	0.473
386.000	270.679	79.998	19.995	100.275	19.961	0.916	0.514
388.000	271.669	79.997	19.994	100.274	19.957	1.185	0.494
390.000	272.681	79.996	19.994	100.275	19.961	0.871	0.488
392.000	273.638	79.996	19.995	100.274	19.964	0.730	0.503
394.000	274.648	79.997	19.995	100.274	19.961	0.899	0.513
396.000	275.685	79.998	19.994	100.275	19.959	1.005	0.498
398.000	276.692	79.996	19.996	100.273	19.962	0.850	0.512
400.000	277.617	79.996	19.996	100.274	19.961	0.902	0.481
402.000	278.662	79.996	19.995	100.274	19.963	0.770	0.518
404.000	279.656	79.997	19.995	100.275	19.958	1.073	0.486
406.000	280.643	79.997	19.996	100.274	19.960	0.993	0.484
408.000	281.602	79.996	19.996	100.276	19.962	0.855	0.485
410.000	282.642	79.997	19.996	100.256	19.962	0.826	0.509
412.000	283.624	79.997	19.996	100.266	19.963	0.799	0.497
414.000	284.669	79.998	19.995	100.270	19.963	0.773	0.511
416.000	285.665	79.999	19.996	100.269	19.963	0.759	0.490
418.000	286.664	79.999	19.997	100.270	19.961	0.874	0.542
420.000	287.646	79.997	19.996	100.269	19.966	0.599	0.485
422.000	288.661	79.997	19.996	100.272	19.966	0.564	0.493
424.000	289.661	79.998	19.996	100.261	19.964	0.707	0.496
426.000	290.711	79.997	19.996	100.265	19.968	0.457	0.488
428.000	291.735	79.996	19.997	100.261	19.967	0.520	0.520
430.000	292.728	79.998	19.996	100.265	19.967	0.489	0.517
432.000	293.740	79.999	19.996	100.265	19.969	0.412	0.494
434.000	294.759	79.998	19.995	100.269	19.967	0.541	0.511
436.000	295.700	79.997	19.996	100.269	19.969	0.403	0.504
438.000	296.662	79.999	19.994	100.267	19.968	0.448	0.468
440.000	297.647	80.000	19.996	100.263	19.969	0.360	0.493
442.000	298.685	79.998	19.995	100.268	19.969	0.401	0.498
444.000	299.699	79.998	19.996	100.263	19.968	0.454	0.480
446.000	300.662	80.000	19.995	100.269	19.964	0.694	0.484
448.000	301.678	80.000	19.994	100.258	19.967	0.527	0.484
450.000	302.692	79.998	19.995	100.263	19.966	0.557	0.496
452.000	303.677	79.997	19.995	100.264	19.963	0.756	0.502
454.000	304.696	79.997	19.996	100.258	19.968	0.440	0.509
456.000	305.640	79.998	19.996	100.252	19.967	0.527	0.503
458.000	306.670	79.996	19.995	100.192	19.965	0.623	0.495
460.000	307.653	79.997	19.994	100.306	19.966	0.599	0.511
462.000	308.632	79.997	19.995	100.278	19.968	0.434	0.506
464.000	309.670	79.996	19.994	100.260	19.967	0.532	0.492
466.000	310.614	79.997	19.995	100.272	19.967	0.480	0.515
468.000	311.668	79.996	19.994	100.268	19.965	0.667	0.518
470.000	312.680	79.997	19.995	100.269	19.974	0.068	0.517
472.000	313.678	79.997	19.994	100.248	19.968	0.464	0.529
474.000	314.696	79.996	19.995	100.238	19.970	0.333	0.470
476.000	315.666	79.998	19.994	100.251	19.965	0.614	0.475
478.000	316.643	79.996	19.995	100.246	19.966	0.550	0.441
480.000	317.588	79.997	19.996	100.246	19.966	0.604	0.484
482.000	318.448	79.995	19.995	100.247	19.965	0.649	0.090
484.000	319.705	79.997	19.995	100.243	19.967	0.492	0.407
486.000	320.621	79.996	19.996	100.248	19.972	0.209	0.387
488.000	321.736	79.996	19.996	100.236	19.972	0.183	0.496
490.000	322.699	79.996	19.995	100.241	19.968	0.441	0.489
492.000	323.694	79.997	19.996	100.247	19.974	0.054	0.496
494.000	324.644	79.997	19.997	100.234	19.971	0.263	0.450
496.000	325.673	79.999	19.996	100.240	19.968	0.443	0.468
498.000	326.732	79.999	19.995	100.247	19.972	0.187	0.518
500.000	327.710	79.999	19.995	100.242	19.971	0.229	0.515
502.000	328.746	79.999	19.995	100.244	19.970	0.304	0.508
504.000	329.732	79.999	19.996	100.247	19.976	-0.049	0.498
506.000	330.761	79.999	19.995	100.242	19.971	0.243	0.524
508.000	331.741	79.998	19.995	100.249	19.977	-0.106	0.498
510.000	332.751	79.998	19.995	100.242	19.972	0.176	0.509
512.000	333.787	79.997	19.996	100.247	19.971	0.220	0.515
514.000	334.854	79.997	19.996	100.258	19.971	0.220	0.532
516.000	335.850	79.998	19.995	100.242	19.971	0.260	0.508
518.000	336.844	79.998	19.997	100.246	19.970	0.291	0.509
520.000	337.876	80.000	19.995	100.246	19.970	0.307	0.541
522.000	338.901	79.999	19.996	100.241	19.970	0.330	0.524
524.000	339.902	79.999	19.996	100.232	19.973	0.099	0.488
526.000	340.909	79.998	19.995	100.238	19.973	0.143	0.508
528.000	341.925	80.000	19.994	100.240	19.973	0.154	0.513
530.000	342.948	79.997	19.995	100.237	19.975	-0.010	0.506
532.000	343.912	79.997	19.995	100.246	19.977	-0.113	0.508
534.000	344.982	79.997	19.995	100.249	19.968	0.419	0.513
536.000	346.013	79.996	19.995	100.233	19.972	0.185	0.530
538.000	347.016	79.998	19.995	100.232	19.971	0.220	0.527
540.000	348.012	79.998	19.996	100.237	19.972	0.201	0.495
542.000	349.061	79.997	19.996	100.232	19.967	0.523	0.515
544.000	350.056	79.998	19.994	100.235	19.971	0.249	0.500
546.000	351.090	79.997	19.996	100.229	19.969	0.358	0.512
548.000	352.016	79.998	19.996	100.229	19.970	0.295	0.453
550.000	353.118	79.998	19.995	100.231	19.965	0.635	0.536
552.000	354.103	79.997	19.994	100.230	19.969	0.391	0.482
554.000	355.104	79.997	19.997	100.233	19.968	0.436	0.483
556.000	356.167	79.998	19.995	100.232	19.970	0.347	0.534
558.000	357.130	79.997	19.995	100.233	19.971	0.267	0.484
560.000	358.131	79.999	19.994	100.233	19.973	0.091	0.471
562.000	359.136	79.997	19.995	100.231	19.970	0.344	0.476
564.000	360.173	79.998	19.995	100.230	19.967	0.482	0.515
566.000	361.144	79.996	19.996	100.229	19.968	0.419	0.486
568.000	362.153	79.997	19.996	100.233	19.970	0.305	0.499
570.000	363.195	79.996	19.995	100.239	19.966	0.544	0.526
572.000	364.186	79.996	19.995	100.235	19.966	0.576	0.508
574.000	365.206	79.997	19.995	100.236	19.969	0.349	0.508
576.000	366.217	79.998	19.995	100.235	19.970	0.344	0.521
578.000	367.210	79.999	19.995	100.239	19.971	0.239	0.484
580.000	368.221	79.998	19.996	100.226	19.968	0.452	0.504
582.000	369.209	79.999	19.996	100.225	19.970	0.330	0.496
584.000	370.196	80.000	19.995	100.230	19.966	0.567	0.509
586.000	371.213	79.997	19.996	100.231	19.970	0.338	0.504
588.000	372.270	79.997	19.995	100.226	19.971	0.249	0.540
590.000	373.272	79.998	19.996	100.229	19.970	0.324	0.514
592.000	374.305	79.998	19.994	100.231	19.971	0.260	0.514
594.000	375.333	79.997	19.995	100.228	19.973	0.127	0.505
596.001	376.322	79.997	19.996	100.227	19.973	0.106	0.543
598.000	377.304	79.997	19.995	100.231	19.974	0.082	0.483
600.001	378.312	79.999	19.995	100.232	19.973	0.103	0.488
602.000	379.339	79.999	19.995	100.228	19.975	0.021	0.531
604.000	380.322	80.000	19.996	100.228	19.974	0.078	0.536
606.000	381.333	79.998	19.996	100.228	19.970	0.321	0.489
608.000	382.367	80.000	19.996	100.221	19.971	0.230	0.498
610.000	383.342	79.999	19.996	100.221	19.970	0.324	0.507
612.000	384.396	79.997	19.995	100.221	19.971	0.256	0.514
614.000	385.393	79.996	19.996	100.204	19.971	0.267	0.512
616.000	386.387	79.996	19.995	100.221	19.970	0.330	0.504
618.000	387.363	79.996	19.996	100.223	19.969	0.394	0.510
620.000	388.366	79.999	19.997	100.227	19.965	0.651	0.513
622.000	389.388	79.997	19.996	100.230	19.973	0.152	0.489
624.000	390.337	79.997	19.995	100.232	19.968	0.415	0.465
626.000	391.345	79.996	19.996	100.231	19.968	0.457	0.478
628.000	392.324	79.996	19.995	100.230	19.968	0.443	0.474
630.000	393.366	79.998	19.995	100.225	19.969	0.408	0.515
632.000	394.359	79.996	19.994	100.223	19.968	0.424	0.487
634.000	395.389	79.996	19.995	100.221	19.968	0.438	0.516
636.000	396.397	79.996	19.995	100.227	19.969	0.391	0.498
638.000	397.413	79.997	19.995	100.229	19.969	0.410	0.502
640.000	398.372	79.998	19.995	100.226	19.969	0.396	0.521
642.000	399.401	79.997	19.995	100.229	19.969	0.399	0.529
644.000	400.391	79.997	19.995	100.218	19.971	0.258	0.491
646.000	401.417	79.997	19.997	100.229	19.971	0.256	0.520
648.000	402.420	79.996	19.995	100.233	19.974	0.063	0.478
650.000	403.476	79.997	19.996	100.232	19.969	0.368	0.534
652.000	404.482	79.997	19.995	100.224	19.970	0.323	0.520
654.000	405.466	79.997	19.994	100.230	19.971	0.220	0.512
656.000	406.455	79.996	19.995	100.230	19.970	0.295	0.476
658.000	407.513	79.997	19.994	100.224	19.971	0.255	0.520
660.000	408.505	79.998	19.995	100.231	19.968	0.422	0.507
662.000	409.512	79.998	19.995	100.229	19.968	0.452	0.516
664.000	410.505	79.998	19.995	100.230	19.968	0.445	0.501
666.000	411.570	79.998	19.996	100.222	19.966	0.546	0.517
668.000	412.553	79.998	19.995	100.168	19.968	0.447	0.523
670.000	413.586	79.998	19.997	100.244	19.966	0.570	0.528
672.000	414.541	79.999	19.996	100.276	19.968	0.413	0.484
674.000	415.568	79.997	19.996	100.213	19.967	0.492	0.517
676.000	416.548	79.998	19.996	100.228	19.961	0.886	0.492
678.000	417.577	80.000	19.996	100.226	19.963	0.745	0.508
680.000	418.595	79.999	19.996	100.226	19.963	0.799	0.502
682.000	419.599	80.000	19.996	100.230	19.964	0.705	0.534
684.000	420.658	80.000	19.995	100.216	19.962	0.841	0.515
686.000	421.697	79.999	19.996	100.205	19.961	0.916	0.537
688.000	422.689	79.999	19.995	100.211	19.956	1.202	0.500
690.000	423.661	80.000	19.996	100.220	19.954	1.327	0.492
692.000	424.706	79.998	19.996	100.226	19.954	1.378	0.494
694.000	425.737	79.997	19.997	100.225	19.952	1.486	0.501
696.000	426.760	79.997	19.997	100.218	19.949	1.668	0.514
698.000	427.786	79.996	19.998	100.211	19.948	1.710	0.521
700.000	428.795	79.995	19.997	100.218	19.945	1.907	0.498
702.000	429.756	79.995	19.995	100.215	19.941	2.214	0.457
704.000	430.842	79.996	19.995	100.228	19.935	2.605	0.516
706.000	431.848	79.995	19.996	100.232	19.935	2.589	0.498
708.000	432.851	79.996	19.995	100.233	19.930	2.931	0.494
710.000	433.869	79.997	19.994	100.225	19.924	3.318	0.500
712.000	434.919	79.997	19.995	100.232	19.917	3.779	0.526
714.000	435.939	79.996	19.996	100.231	19.911	4.124	0.511
716.000	436.944	79.996	19.995	100.233	19.906	4.458	0.498
718.000	437.962	79.996	19.994	100.234	19.899	4.892	0.507
720.000	438.971	79.995	19.995	100.235	19.892	5.366	0.496
722.000	439.980	79.996	19.996	100.234	19.883	5.931	0.513
724.000	440.998	79.996	19.995	100.234	19.871	6.757	0.460
726.000	442.009	79.995	19.995	100.241	19.859	7.505	0.480
728.000	443.000	79.995	19.997	100.257	19.850	8.082	0.504
730.000	444.028	79.997	19.995	100.254	19.835	9.086	0.511
732.000	445.018	79.994	19.996	100.245	19.817	10.207	0.493
734.000	446.065	79.998	19.995	100.260	19.806	10.966	0.514
736.000	447.092	79.997	19.995	100.248	19.789	12.058	0.514
738.000	448.104	79.999	19.995	100.255	19.773	13.084	0.521
740.000	449.122	79.998	19.995	100.267	19.751	14.510	0.512
742.000	450.123	79.998	19.995	100.269	19.731	15.791	0.457
744.000	451.146	79.998	19.996	100.272	19.705	17.485	0.499
746.000	452.148	79.998	19.995	100.267	19.683	18.923	0.485
748.000	453.193	79.997	19.996	100.266	19.660	20.379	0.526
750.000	454.179	79.999	19.996	100.272	19.635	22.019	0.518
752.000	455.201	79.998	19.995	100.284	19.600	24.242	0.531
754.000	456.231	79.996	19.996	100.287	19.568	26.352	0.535
756.000	457.237	79.999	19.996	100.296	19.528	28.921	0.486
758.000	458.250	79.998	19.996	100.304	19.503	30.553	0.536
760.000	459.250	79.997	19.996	100.299	19.493	31.258	0.504
762.000	460.239	79.999	19.996	100.265	19.534	28.598	0.525
764.000	461.254	79.998	19.997	100.199	19.588	25.052	0.510
766.000	462.275	79.998	19.996	100.217	19.626	22.583	0.496
768.000	463.284	79.999	19.997	100.284	19.624	22.742	0.495
770.000	464.276	79.999	19.995	100.377	19.571	26.201	0.486
772.000	465.304	79.998	19.995	100.431	19.536	28.472	0.480
774.000	466.297	79.995	19.995	100.332	19.541	28.089	0.511
776.000	467.311	79.996	19.995	100.236	19.534	28.536	0.499
778.000	468.371	79.996	19.995	100.226	19.478	32.230	0.527
780.000	469.383	79.996	19.996	100.346	19.396	37.583	0.508
782.000	470.404	79.996	19.996	100.448	19.371	39.208	0.529
784.000	471.456	79.995	19.996	100.339	19.355	40.137	0.551
786.000	472.489	79.995	19.997	100.255	19.273	45.408	0.514
788.000	473.475	79.994	19.997	100.362	19.137	54.296	0.525
790.000	474.544	79.995	19.996	100.509	18.986	64.249	0.520
792.000	475.566	79.996	19.996	100.546	18.913	69.021	0.488
794.000	476.568	79.997	19.996	100.334	18.955	66.189	0.502
796.000	477.588	79.997	19.996	100.108	18.984	64.105	0.513
798.000	478.617	79.997	19.995	100.223	18.930	67.626	0.499
800.000	479.636	79.998	19.995	100.461	18.818	75.054	0.498
802.000	480.630	79.998	19.996	100.635	18.703	82.725	0.516
804.000	481.608	79.996	19.995	100.582	18.691	83.398	0.497
806.000	482.645	79.997	19.995	100.281	18.747	79.592	0.514
808.000	483.617	79.996	19.996	100.160	18.768	78.212	0.492
810.000	484.635	79.997	19.996	100.291	18.687	83.488	0.503
812.000	485.645	79.996	19.996	100.563	18.589	89.925	0.507
814.000	486.622	79.998	19.996	100.653	18.576	90.884	0.495
816.000	487.671	79.997	19.995	100.429	18.562	91.880	0.515
818.000	488.688	79.999	19.995	100.298	18.536	93.569	0.528
820.000	489.725	79.999	19.995	100.341	18.552	92.290	0.517
822.000	490.755	79.999	19.994	100.431	18.537	93.097	0.515
824.000	491.748	79.999	19.996	100.522	18.407	101.571	0.504
826.000	492.757	79.998	19.995	100.601	18.223	113.737	0.506
828.000	493.772	79.998	19.995	100.705	18.099	121.912	0.515
830.000	494.819	79.998	19.996	100.554	18.075	123.412	0.532
832.000	495.825	79.998	19.995	100.290	18.094	122.105	0.493
834.000	496.833	79.998	19.995	100.237	18.092	122.242	0.519
836.000	497.889	79.998	19.995	100.412	18.086	122.706	0.499
838.000	498.893	79.997	19.995	100.574	18.081	123.016	0.497
840.000	499.950	79.999	19.994	100.583	18.078	123.208	0.519
842.000	500.969	79.999	19.995	100.505	18.066	124.015	0.499
844.000	501.991	79.999	19.993	100.491	18.041	125.706	0.537
846.000	503.001	79.999	19.996	100.530	18.010	127.706	0.527
848.000	504.026	79.999	19.996	100.545	17.967	130.443	0.511
850.000	505.010	79.999	19.996	100.541	17.919	133.528	0.492
852.000	505.978	80.000	19.995	100.549	17.838	138.851	0.474
854.000	506.970	79.996	19.995	100.585	17.747	144.771	0.507
856.000	508.015	79.998	19.997	100.613	17.666	150.045	0.521
858.000	509.060	79.995	19.996	100.580	17.602	154.201	0.538
860.000	510.044	79.997	19.997	100.541	17.544	157.954	0.503
862.000	511.044	79.997	19.996	100.552	17.479	162.246	0.483
864.000	512.054	79.997	19.995	100.602	17.416	166.328	0.510
866.000	513.055	79.996	19.996	100.621	17.368	169.468	0.503
868.000	514.056	79.995	19.995	100.616	17.324	172.298	0.509
870.000	515.097	79.997	19.998	100.588	17.287	174.681	0.499
872.000	516.108	79.997	19.996	100.605	17.249	177.179	0.517
874.000	517.163	79.996	19.996	100.623	17.218	179.216	0.502
876.000	518.201	79.997	19.996	100.624	17.188	181.130	0.519
878.000	519.178	79.996	19.996	100.623	17.165	182.552	0.538
880.000	520.200	79.997	19.997	100.621	17.142	184.041	0.540
882.000	521.275	79.996	19.997	100.625	17.131	184.750	0.524
884.000	522.285	79.996	19.997	100.621	17.131	184.770	0.516
886.000	523.297	79.997	19.997	100.621	17.140	184.146	0.509
888.000	524.298	79.996	19.997	100.604	17.169	182.215	0.473
890.000	525.384	79.997	19.996	100.590	17.211	179.447	0.518
892.000	526.353	79.996	19.996	100.586	17.265	175.864	0.515
894.000	527.385	79.995	19.996	100.584	17.332	171.545	0.507
896.000	528.423	79.997	19.996	100.560	17.417	166.002	0.525
898.000	529.416	79.997	19.995	100.532	17.506	160.175	0.502
900.000	530.415	79.997	19.995	100.509	17.615	153.055	0.489
902.000	531.485	79.998	19.994	100.494	17.738	145.071	0.516
904.000	532.494	79.997	19.994	100.474	17.865	136.808	0.466
906.000	533.498	79.998	19.994	100.473	18.003	127.846	0.527
908.000	534.534	79.997	19.994	100.441	18.147	118.512	0.503
910.000	535.615	79.997	19.996	100.426	18.287	109.370	0.520
912.000	536.604	79.998	19.995	100.400	18.432	99.964	0.524
914.000	537.595	79.997	19.995	100.391	18.565	91.325	0.507
916.000	538.643	79.998	19.995	100.364	18.691	83.186	0.481
918.000	539.655	80.000	19.995	100.350	18.814	75.161	0.501
920.000	540.717	79.999	19.995	100.345	18.925	67.995	0.535
922.000	541.742	79.998	19.996	100.320	19.028	61.288	0.522
924.000	542.772	80.000	19.995	100.308	19.117	55.538	0.534
926.000	543.811	80.001	19.995	100.302	19.204	49.887	0.518
928.000	544.794	80.000	19.995	100.275	19.276	45.262	0.498
930.000	545.807	79.999	19.995	100.269	19.343	40.917	0.501
932.000	546.837	79.998	19.996	100.240	19.403	37.041	0.509
934.000	547.915	80.000	19.995	100.234	19.458	33.448	0.510
936.000	548.946	79.998	19.995	100.236	19.500	30.711	0.510
938.000	549.982	79.997	19.995	100.230	19.545	27.840	0.514
940.000	551.052	79.997	19.996	100.225	19.581	25.486	0.557
942.000	552.085	79.998	19.995	100.213	19.612	23.481	0.533
944.000	553.088	79.997	19.996	100.215	19.634	22.088	0.493
946.000	554.194	79.998	19.997	100.192	19.661	20.310	0.522
948.000	555.241	79.996	19.997	100.192	19.683	18.862	0.511
950.000	556.269	79.996	19.996	100.195	19.707	17.324	0.504
952.000	557.313	79.997	19.995	100.194	19.723	16.275	0.541
954.000	558.314	79.997	19.996	100.196	19.736	15.444	0.514
956.000	559.349	79.997	19.997	100.197	19.753	14.364	0.517
958.000	560.379	79.997	19.997	100.189	19.768	13.360	0.504
960.000	561.420	79.996	19.996	100.190	19.775	12.911	0.529
962.000	562.459	79.997	19.997	100.193	19.782	12.451	0.506
964.000	563.474	79.996	19.997	100.194	19.795	11.608	0.503
966.000	564.479	79.996	19.997	100.182	19.802	11.170	0.494
968.000	565.491	79.995	19.996	100.180	19.808	10.812	0.513
970.000	566.537	79.996	19.996	100.175	19.816	10.250	0.542
972.000	567.512	79.995	19.995	100.189	19.821	9.989	0.502
974.000	568.550	79.996	19.996	100.184	19.825	9.693	0.525
976.000	569.538	79.997	19.995	100.190	19.832	9.272	0.495
978.000	570.544	79.998	19.995	100.181	19.837	8.946	0.471
980.000	571.582	79.997	19.997	100.188	19.834	9.121	0.483
982.000	572.597	80.000	19.995	100.185	19.838	8.864	0.513
984.000	573.614	79.998	19.995	100.182	19.840	8.742	0.506
986.000	574.634	79.999	19.995	100.177	19.846	8.361	0.505
988.000	575.636	79.998	19.996	100.167	19.845	8.417	0.519
990.000	576.680	79.997	19.994	100.171	19.848	8.222	0.524
992.000	577.675	79.998	19.996	100.177	19.854	7.802	0.488
994.000	578.680	79.998	19.996	100.180	19.855	7.781	0.519
996.000	579.685	79.999	19.996	100.183	19.852	7.942	0.503
998.000	580.707	79.997	19.995	100.166	19.851	8.028	0.503
1000.000	581.718	79.998	19.995	100.155	19.855	7.746	0.475
1002.000	582.719	79.998	19.994	100.159	19.859	7.485	0.509
1004.000	583.749	80.000	19.994	100.162	19.863	7.253	0.498
1006.000	584.754	79.999	19.996	100.154	19.861	7.348	0.508
1008.000	585.786	80.000	19.996	100.153	19.867	6.952	0.524
1010.000	586.772	80.000	19.995	100.159	19.866	7.038	0.507
1012.000	587.822	79.999	19.994	100.162	19.870	6.815	0.503
1014.000	588.817	79.998	19.995	100.181	19.871	6.753	0.513
1016.000	589.883	79.995	19.995	100.161	19.872	6.682	0.521
1018.000	590.849	79.995	19.994	100.174	19.872	6.669	0.495
1020.000	591.884	79.997	19.995	100.168	19.873	6.592	0.503
1022.000	592.911	79.997	19.995	100.156	19.879	6.215	0.543
1024.000	593.949	79.996	19.994	100.161	19.879	6.203	0.528
1026.000	594.951	79.997	19.996	100.181	19.880	6.123	0.512
1028.000	595.926	79.999	19.995	100.171	19.882	6.010	0.500
1030.000	596.934	79.997	19.996	100.158	19.881	6.049	0.478
1032.000	598.002	79.996	19.995	100.159	19.880	6.111	0.562
1034.000	599.001	79.998	19.996	100.162	19.885	5.784	0.535
1036.000	599.977	79.997	19.995	100.162	19.883	5.965	0.484
1038.000	600.968	79.996	19.996	100.155	19.883	5.967	0.503
1040.000	601.959	79.998	19.996	100.177	19.886	5.739	0.530
1042.000	602.972	79.998	19.996	100.173	19.890	5.497	0.491
1044.000	603.968	79.996	19.996	100.171	19.889	5.553	0.488
1046.001	604.931	79.999	19.995	100.177	19.896	5.127	0.488
1048.000	605.957	79.996	19.996	100.181	19.893	5.308	0.499
1050.001	606.920	79.996	19.997	100.170	19.893	5.324	0.466
1052.000	607.926	79.997	19.995	100.161	19.896	5.101	0.486
1054.000	608.927	79.998	19.996	100.169	19.897	5.057	0.515
1056.000	609.929	79.996	19.997	100.162	19.894	5.230	0.481
1058.000	610.950	79.999	19.996	100.154	19.897	5.047	0.528
1060.000	611.960	79.999	19.998	100.158	19.899	4.904	0.527
1062.000	612.963	79.999	19.997	100.153	19.903	4.679	0.513
1064.000	613.945	80.000	19.996	100.155	19.905	4.514	0.502
1066.000	615.010	79.998	19.997	100.164	19.904	4.583	0.539
1068.000	616.025	80.000	19.997	100.154	19.909	4.291	0.530
1070.001	616.998	80.000	19.995	100.153	19.906	4.475	0.465
1072.000	618.016	79.997	19.994	100.155	19.905	4.547	0.497
1074.000	619.045	79.998	19.994	100.161	19.907	4.386	0.513
1076.000	620.078	79.999	19.995	100.161	19.911	4.112	0.498
1078.000	621.107	79.996	19.996	100.158	19.913	4.022	0.523
1080.000	622.085	79.999	19.996	100.168	19.914	3.959	0.509
1082.000	623.119	79.999	19.995	100.157	19.912	4.097	0.490
1084.000	624.153	80.000	19.995	100.156	19.916	3.800	0.525
1086.000	625.158	80.001	19.994	100.156	19.917	3.748	0.511
1088.000	626.244	80.000	19.994	100.159	19.920	3.544	0.533
1090.000	627.260	79.999	19.995	100.155	19.917	3.738	0.541
1092.000	628.272	79.999	19.996	100.154	19.916	3.825	0.494
1094.000	629.327	79.998	19.995	100.154	19.917	3.750	0.554
1096.000	630.338	79.998	19.995	100.155	19.922	3.434	0.542
1098.000	631.391	79.998	19.994	100.154	19.919	3.628	0.546
1100.000	632.354	79.997	19.996	100.159	19.925	3.230	0.518
1102.000	633.376	79.995	19.995	100.158	19.921	3.478	0.507
1104.000	634.404	79.997	19.996	100.158	19.922	3.412	0.529
1106.000	635.410	79.999	19.996	100.159	19.924	3.265	0.519
1108.000	636.435	80.001	19.995	100.157	19.924	3.281	0.534
1110.000	637.434	79.999	19.995	100.149	19.927	3.073	0.505
1112.001	638.436	79.997	19.995	100.153	19.929	2.990	0.489
1114.000	639.462	79.998	19.994	100.154	19.927	3.070	0.515
1116.000	640.468	80.001	19.996	100.151	19.928	3.032	0.500
1118.000	641.459	79.998	19.996	100.157	19.930	2.913	0.512
1120.001	642.422	79.998	19.995	100.152	19.934	2.639	0.501
1122.000	643.436	79.996	19.996	100.152	19.931	2.863	0.480
1124.000	644.493	79.999	19.995	100.153	19.930	2.871	0.511
1126.000	645.455	79.998	19.997	100.156	19.929	2.972	0.493
1128.000	646.462	79.996	19.997	100.154	19.934	2.624	0.503
1130.000	647.443	79.997	19.996	100.153	19.935	2.590	0.480
1132.000	648.460	79.999	19.997	100.156	19.932	2.762	0.485
1134.000	649.446	79.997	19.996	100.154	19.934	2.631	0.521
1136.000	650.493	79.996	19.995	100.154	19.937	2.481	0.539
1138.000	651.512	80.001	19.995	100.154	19.939	2.340	0.502
1140.000	652.514	79.998	19.995	100.154	19.934	2.648	0.480
1142.000	653.516	80.000	19.997	100.152	19.933	2.692	0.493
1144.000	654.582	80.000	19.996	100.164	19.936	2.498	0.540
1146.000	655.582	79.997	19.996	100.165	19.939	2.333	0.481
1148.000	656.604	79.996	19.996	100.155	19.936	2.509	0.524
1150.000	657.670	79.997	19.998	100.160	19.937	2.472	0.521
1152.000	658.647	79.995	19.997	100.155	19.939	2.289	0.499
1154.000	659.717	80.000	19.996	100.159	19.940	2.225	0.526
1156.000	660.715	79.997	19.994	100.164	19.936	2.502	0.502
1158.000	661.732	79.999	19.995	100.159	19.941	2.209	0.540
1160.000	662.777	80.000	19.995	100.155	19.938	2.362	0.499
1162.000	663.794	80.000	19.994	100.156	19.945	1.947	0.509
1164.000	664.804	79.999	19.993	100.158	19.940	2.247	0.542
1166.000	665.771	79.999	19.995	100.166	19.948	1.726	0.504
1168.000	666.810	80.001	19.994	100.161	19.946	1.874	0.508
1170.000	667.804	80.000	19.996	100.159	19.948	1.712	0.497
1172.000	668.838	79.999	19.994	100.155	19.946	1.883	0.541
1174.000	669.833	79.999	19.996	100.152	19.944	1.977	0.500
1176.000	670.850	79.996	19.996	100.152	19.946	1.888	0.487
1178.000	671.876	79.997	19.994	100.154	19.943	2.048	0.510
1180.000	672.925	79.997	19.995	100.152	19.949	1.679	0.542
1182.000	673.897	79.997	19.993	100.158	19.946	1.864	0.516
1184.001	674.959	79.997	19.995	100.160	19.946	1.848	0.539
1186.000	675.967	79.997	19.996	100.154	19.948	1.747	0.508
1188.000	676.982	79.998	19.996	100.156	19.947	1.794	0.528
1190.000	677.965	79.995	19.994	100.157	19.945	1.916	0.508
1192.001	678.956	79.998	19.994	100.153	19.949	1.689	0.517
1194.000	679.963	80.000	19.995	100.155	19.948	1.729	0.522
1196.000	680.946	79.999	19.994	100.154	19.947	1.799	0.504
1198.000	681.907	79.999	19.995	100.153	19.947	1.822	0.499
1200.000	682.892	79.999	19.997	100.155	19.943	2.050	0.494
1202.000	683.896	79.999	19.995	100.151	19.948	1.721	0.475
1204.000	684.896	79.995	19.995	100.155	19.945	1.939	0.497
1206.000	685.904	79.995	19.995	100.152	19.939	2.294	0.493
1208.000	686.873	79.995	19.997	100.154	19.948	1.735	0.478
1210.001	687.879	79.996	19.996	100.165	19.945	1.952	0.507
1212.000	688.874	79.997	19.997	100.180	19.944	1.970	0.518
1214.001	689.912	79.998	19.996	100.169	19.950	1.592	0.485
1216.000	690.924	79.998	19.996	100.159	19.948	1.768	0.523
1218.000	691.897	79.999	19.996	100.158	19.948	1.710	0.503
1220.000	692.938	79.998	19.994	100.155	19.946	1.853	0.504
1222.000	693.941	79.999	19.995	100.158	19.949	1.653	0.485
1224.000	694.934	79.998	19.994	100.163	19.946	1.857	0.464
1226.001	695.968	79.999	19.995	100.168	19.944	2.019	0.499
1228.000	697.030	79.998	19.996	100.162	19.947	1.787	0.518
1230.000	697.985	79.998	19.996	100.175	19.941	2.174	0.513
1232.000	699.011	79.997	19.996	100.178	19.944	1.986	0.496
1234.000	700.043	79.999	19.995	100.173	19.941	2.197	0.502
1236.000	701.107	79.999	19.998	100.156	19.947	1.803	0.509
1238.000	702.160	79.998	19.996	100.164	19.943	2.092	0.542
1240.000	703.201	79.999	19.996	100.169	19.947	1.777	0.533
1242.000	704.242	79.997	19.996	100.177	19.937	2.464	0.523
1244.000	705.289	80.000	19.997	100.168	19.944	1.972	0.490
1246.000	706.375	80.002	19.995	100.176	19.940	2.274	0.521
1248.000	707.440	79.998	19.995	100.172	19.937	2.471	0.535
1250.000	708.517	80.000	19.994	100.178	19.939	2.298	0.516
1252.000	709.568	80.000	19.996	100.167	19.937	2.455	0.545
1254.000	710.650	80.000	19.995	100.167	19.940	2.260	0.546
1256.000	711.712	79.998	19.995	100.158	19.943	2.064	0.527
1258.001	712.745	79.998	19.996	100.175	19.942	2.111	0.529
1260.000	713.762	79.997	19.996	100.164	19.939	2.336	0.506
1262.000	714.777	79.998	19.995	100.167	19.936	2.536	0.490
1264.000	715.858	79.998	19.996	100.163	19.941	2.198	0.527
1266.001	716.850	79.997	19.995	100.162	19.943	2.047	0.508
1268.001	717.863	79.997	19.994	100.153	19.934	2.674	0.496
1270.000	718.855	79.999	19.996	100.153	19.939	2.317	0.485
1272.000	719.828	79.998	19.995	100.155	19.942	2.101	0.483
1274.000	720.825	80.000	19.995	100.158	19.937	2.427	0.486
1276.000	721.721	79.998	19.995	100.157	19.938	2.385	0.462
1278.000	722.738	79.997	19.995	100.161	19.933	2.683	0.477
1280.000	723.687	79.998	19.994	100.165	19.941	2.167	0.483
1282.000	724.677	79.997	19.994	100.161	19.937	2.447	0.520
1284.001	725.607	80.000	19.995	100.174	19.939	2.317	0.465
1286.000	726.571	80.000	19.996	100.169	19.937	2.453	0.473
1288.001	727.549	79.999	19.993	100.170	19.938	2.417	0.493
1290.000	728.533	79.998	19.994	100.165	19.934	2.647	0.491
1292.000	729.494	79.997	19.994	100.181	19.929	2.989	0.475
1294.000	730.475	79.998	19.997	100.176	19.934	2.621	0.500
1296.000	731.511	79.996	19.995	100.174	19.932	2.792	0.519
1298.000	732.521	80.000	19.997	100.183	19.932	2.753	0.513
1300.000	733.507	80.000	19.997	100.183	19.934	2.661	0.484
1302.000	734.590	80.001	19.996	100.188	19.934	2.665	0.529
1304.000	735.566	79.999	19.994	100.187	19.934	2.633	0.517
1306.000	736.565	79.999	19.997	100.184	19.933	2.699	0.484
1308.000	737.602	79.999	19.996	100.181	19.935	2.584	0.507
1310.000	738.637	79.999	19.995	100.181	19.932	2.788	0.537
1312.000	739.692	79.999	19.995	100.192	19.926	3.190	0.510
1314.000	740.701	80.000	19.995	100.185	19.931	2.851	0.525
1316.000	741.787	79.999	19.996	100.188	19.928	3.020	0.512
1318.000	742.808	79.999	19.996	100.189	19.932	2.760	0.524
1319.500	743.590	80.001	19.997	100.183	19.936	2.546	0.521