File: 01_Data/PC/MCC/PC_MCC_30K_min_210924_O4.txt
Sample ID:	C:\MCC\MCC Cal\Test\PC_MCC_30K_min_210924_R4.txt
Sample Weight (mg):	4.81
Heating Rate (C/s):	0.5
Combustor Temp (C):	900
N2 Flow Rate (cc/min):	80
O2 Flow Rate (cc/min):	20
Calibration File:	C:\MCC\MCC Cal\Coeff1 JN10440_30_210304.txt.txt
T Correction Coefficients:	0	1.024463	0
Time Shift (s):	14
*
Time (s)	Temperature (C)	N2 flow rate (cc/min)	O2 flow rate (cc/min)	Flow Rate (cc/min)	Oxygen (%)	HRR (W/g)	Heating rate (C/s)
0.000	108.660	80.008	19.996	100.060	20.387	0.097	-0.011
2.000	108.639	80.008	19.995	100.060	20.384	0.279	-0.013
3.999	108.645	80.008	19.995	100.062	20.388	0.060	-0.016
5.999	108.655	80.007	19.996	100.060	20.384	0.310	-0.007
7.999	108.635	80.007	19.995	100.061	20.387	0.115	-0.016
9.999	108.614	80.007	19.995	100.062	20.389	-0.007	-0.026
11.999	108.626	80.006	19.995	100.070	20.386	0.156	-0.006
13.999	108.636	80.007	19.995	100.096	20.382	0.439	-0.000
16.000	108.614	80.009	19.996	100.107	20.378	0.682	0.011
18.000	108.660	80.008	19.995	100.116	20.376	0.840	0.038
20.000	108.694	80.008	19.996	100.148	20.374	0.973	0.011
22.000	108.726	80.008	19.995	100.164	20.373	0.999	0.021
24.000	108.804	80.008	19.995	100.179	20.367	1.391	0.036
26.000	108.910	80.008	19.995	100.189	20.369	1.253	0.053
28.000	109.043	80.008	19.995	100.221	20.364	1.580	0.067
30.000	109.164	80.009	19.995	100.225	20.360	1.839	0.078
32.000	109.366	80.010	19.994	100.237	20.358	1.974	0.083
33.999	109.578	80.008	19.994	100.249	20.361	1.793	0.107
36.000	109.851	80.008	19.996	100.241	20.358	1.974	0.105
38.000	110.125	80.009	19.995	100.234	20.356	2.144	0.139
40.000	110.422	80.010	19.996	100.249	20.357	2.071	0.162
41.999	110.764	80.009	19.995	100.252	20.354	2.238	0.186
44.000	111.079	80.009	19.995	100.254	20.355	2.176	0.175
45.999	111.443	80.009	19.995	100.259	20.354	2.226	0.189
47.999	111.837	80.009	19.994	100.258	20.352	2.356	0.208
49.999	112.200	80.009	19.995	100.262	20.355	2.210	0.183
51.999	112.643	80.010	19.994	100.260	20.350	2.491	0.221
53.999	113.086	80.010	19.994	100.281	20.349	2.544	0.231
55.999	113.557	80.009	19.995	100.283	20.349	2.579	0.275
58.000	114.016	80.009	19.995	100.291	20.344	2.893	0.264
59.999	114.584	80.009	19.996	100.293	20.342	3.012	0.279
62.000	115.078	80.008	19.996	100.292	20.342	3.007	0.270
63.999	115.632	80.008	19.996	100.303	20.345	2.814	0.250
65.999	116.214	80.008	19.996	100.297	20.344	2.922	0.293
68.000	116.819	80.008	19.995	100.297	20.345	2.842	0.300
70.000	117.410	80.006	19.995	100.306	20.345	2.804	0.305
71.999	118.061	80.007	19.995	100.308	20.345	2.850	0.304
73.999	118.740	80.006	19.995	100.306	20.343	2.945	0.329
75.999	119.393	80.006	19.995	100.326	20.342	3.061	0.338
77.999	120.135	80.007	19.995	100.320	20.343	2.981	0.362
80.000	120.780	80.007	19.995	100.330	20.342	3.057	0.334
81.999	121.542	80.006	19.996	100.333	20.343	2.945	0.385
83.999	122.323	80.007	19.996	100.327	20.345	2.848	0.402
85.999	123.117	80.006	19.996	100.326	20.342	3.000	0.396
87.999	123.839	80.006	19.996	100.331	20.342	3.050	0.368
89.999	124.601	80.006	19.996	100.332	20.339	3.219	0.405
92.000	125.390	80.007	19.996	100.328	20.345	2.834	0.399
93.999	126.220	80.006	19.996	100.331	20.343	2.992	0.392
95.999	127.032	80.007	19.996	100.331	20.338	3.266	0.442
97.999	127.889	80.007	19.996	100.330	20.343	2.972	0.417
99.999	128.717	80.007	19.995	100.327	20.341	3.119	0.395
101.999	129.551	80.008	19.995	100.329	20.337	3.350	0.410
103.999	130.440	80.008	19.995	100.329	20.341	3.110	0.443
105.999	131.316	80.009	19.994	100.332	20.341	3.091	0.439
107.999	132.223	80.009	19.995	100.331	20.338	3.266	0.483
109.999	133.097	80.010	19.996	100.330	20.339	3.238	0.439
112.000	133.997	80.009	19.996	100.329	20.342	3.027	0.458
114.000	134.911	80.010	19.995	100.329	20.343	2.991	0.453
115.999	135.851	80.009	19.995	100.329	20.339	3.249	0.470
118.000	136.766	80.009	19.995	100.331	20.340	3.183	0.484
119.999	137.711	80.008	19.995	100.322	20.340	3.158	0.498
121.999	138.664	80.008	19.995	100.327	20.337	3.328	0.486
123.999	139.593	80.009	19.995	100.327	20.340	3.181	0.462
125.999	140.547	80.008	19.994	100.330	20.337	3.358	0.496
127.999	141.523	80.009	19.996	100.331	20.340	3.151	0.438
130.000	142.480	80.010	19.995	100.328	20.339	3.250	0.495
132.000	143.469	80.011	19.995	100.323	20.342	3.057	0.489
134.000	144.464	80.011	19.994	100.320	20.340	3.142	0.485
136.000	145.423	80.010	19.994	100.327	20.343	2.934	0.517
138.000	146.459	80.011	19.995	100.326	20.341	3.092	0.490
140.000	147.418	80.010	19.995	100.325	20.344	2.913	0.503
142.000	148.438	80.009	19.994	100.319	20.341	3.064	0.502
144.000	149.445	80.008	19.994	100.326	20.345	2.837	0.492
146.000	150.526	80.008	19.996	100.322	20.345	2.812	0.511
148.000	151.507	80.006	19.995	100.305	20.347	2.686	0.503
150.000	152.545	80.006	19.995	100.316	20.345	2.812	0.505
152.000	153.568	80.007	19.996	100.310	20.345	2.831	0.518
154.000	154.594	80.005	19.996	100.308	20.347	2.732	0.503
156.000	155.634	80.006	19.995	100.302	20.344	2.911	0.520
158.000	156.688	80.008	19.996	100.299	20.342	3.037	0.521
160.000	157.737	80.009	19.995	100.300	20.347	2.680	0.562
162.000	158.755	80.007	19.996	100.301	20.346	2.769	0.558
164.000	159.808	80.007	19.996	100.301	20.351	2.434	0.534
166.000	160.817	80.008	19.995	100.298	20.349	2.551	0.517
168.000	161.831	80.007	19.995	100.296	20.351	2.418	0.469
170.000	162.886	80.007	19.995	100.294	20.348	2.615	0.524
172.000	163.917	80.009	19.996	100.292	20.351	2.455	0.496
174.000	165.027	80.008	19.995	100.292	20.351	2.420	0.538
176.000	166.036	80.006	19.996	100.291	20.353	2.283	0.531
178.000	167.079	80.005	19.996	100.291	20.352	2.396	0.528
180.000	168.120	80.007	19.996	100.292	20.357	2.081	0.507
182.000	169.134	80.008	19.996	100.291	20.354	2.230	0.509
184.000	170.162	80.007	19.996	100.290	20.356	2.090	0.524
186.000	171.184	80.008	19.995	100.290	20.357	2.029	0.506
188.000	172.207	80.007	19.996	100.288	20.356	2.118	0.500
190.000	173.228	80.007	19.996	100.290	20.359	1.948	0.500
192.000	174.239	80.008	19.996	100.287	20.358	2.013	0.493
194.000	175.270	80.009	19.996	100.284	20.357	2.068	0.532
196.000	176.260	80.008	19.996	100.278	20.361	1.780	0.477
198.000	177.293	80.009	19.996	100.284	20.358	1.958	0.525
200.000	178.314	80.009	19.995	100.279	20.357	2.024	0.529
202.000	179.277	80.008	19.995	100.272	20.361	1.811	0.452
204.000	180.314	80.007	19.996	100.279	20.361	1.763	0.517
206.000	181.318	80.006	19.995	100.282	20.361	1.811	0.505
208.000	182.300	80.008	19.995	100.281	20.360	1.852	0.501
210.000	183.302	80.008	19.995	100.271	20.361	1.775	0.505
212.000	184.267	80.008	19.996	100.265	20.356	2.118	0.520
214.000	185.247	80.009	19.995	100.259	20.362	1.703	0.472
216.000	186.308	80.012	19.994	100.257	20.363	1.669	0.545
218.000	187.309	80.010	19.996	100.258	20.363	1.678	0.504
220.000	188.300	80.006	19.996	100.257	20.361	1.811	0.529
222.000	189.216	80.009	19.995	100.258	20.361	1.800	0.472
224.000	190.200	80.007	19.994	100.256	20.361	1.788	0.489
226.000	191.199	80.007	19.995	100.256	20.365	1.527	0.488
228.000	192.183	80.009	19.994	100.260	20.364	1.607	0.523
230.000	193.190	80.007	19.995	100.257	20.366	1.476	0.493
232.000	194.205	80.006	19.994	100.262	20.366	1.460	0.507
234.000	195.126	80.007	19.995	100.259	20.365	1.558	0.465
236.000	196.097	80.007	19.994	100.257	20.364	1.595	0.503
238.000	197.074	80.008	19.996	100.255	20.364	1.581	0.502
240.000	198.073	80.006	19.995	100.255	20.365	1.559	0.492
242.000	199.078	80.005	19.995	100.254	20.366	1.442	0.504
244.000	200.008	80.009	19.995	100.254	20.367	1.419	0.479
246.000	200.980	80.005	19.997	100.258	20.367	1.395	0.465
248.000	202.000	80.007	19.995	100.255	20.365	1.501	0.505
250.000	202.934	80.008	19.995	100.255	20.369	1.283	0.499
252.000	203.898	80.008	19.996	100.256	20.370	1.201	0.493
254.000	204.869	80.010	19.995	100.254	20.367	1.391	0.470
256.000	205.832	80.005	19.996	100.255	20.369	1.249	0.504
258.000	206.864	80.008	19.996	100.256	20.370	1.232	0.504
260.000	207.859	80.006	19.996	100.252	20.369	1.253	0.508
262.000	208.799	80.006	19.995	100.253	20.367	1.423	0.475
264.000	209.773	80.005	19.996	100.252	20.366	1.457	0.490
266.000	210.768	80.008	19.996	100.254	20.365	1.524	0.475
268.000	211.760	80.004	19.995	100.255	20.371	1.161	0.481
270.000	212.743	80.009	19.994	100.256	20.366	1.474	0.463
272.000	213.720	80.007	19.995	100.255	20.368	1.341	0.478
274.000	214.692	80.009	19.995	100.254	20.366	1.456	0.464
276.000	215.635	80.008	19.996	100.254	20.370	1.178	0.465
278.000	216.609	80.008	19.996	100.254	20.368	1.308	0.496
280.000	217.606	80.010	19.996	100.254	20.374	0.953	0.487
282.000	218.548	80.007	19.995	100.254	20.369	1.304	0.469
284.000	219.547	80.008	19.995	100.253	20.374	0.975	0.498
286.000	220.516	80.007	19.996	100.251	20.370	1.175	0.488
288.000	221.482	80.005	19.995	100.251	20.373	0.982	0.450
290.000	222.493	80.006	19.996	100.251	20.371	1.152	0.489
292.000	223.471	80.007	19.995	100.253	20.374	0.957	0.490
294.000	224.485	80.007	19.995	100.253	20.374	0.927	0.485
296.000	225.474	80.007	19.995	100.254	20.376	0.829	0.515
298.000	226.464	80.010	19.995	100.255	20.374	0.932	0.498
300.000	227.467	80.010	19.994	100.253	20.372	1.072	0.514
302.000	228.471	80.010	19.995	100.253	20.372	1.104	0.496
304.000	229.481	80.009	19.995	100.250	20.372	1.084	0.488
306.000	230.532	80.008	19.995	100.250	20.373	1.005	0.534
308.000	231.472	80.005	19.995	100.250	20.375	0.897	0.502
310.000	232.458	80.009	19.994	100.246	20.375	0.913	0.485
312.000	233.462	80.011	19.996	100.248	20.369	1.297	0.485
314.000	234.389	80.008	19.996	100.248	20.372	1.088	0.456
316.000	235.389	80.006	19.995	100.252	20.373	0.987	0.487
318.000	236.416	80.008	19.995	100.251	20.375	0.893	0.493
320.000	237.394	80.008	19.996	100.251	20.372	1.088	0.486
322.000	238.415	80.006	19.996	100.248	20.375	0.914	0.492
324.000	239.422	80.007	19.996	100.249	20.372	1.097	0.482
326.000	240.385	80.009	19.996	100.249	20.375	0.875	0.479
328.000	241.362	80.009	19.996	100.248	20.372	1.072	0.509
330.000	242.397	80.006	19.995	100.248	20.375	0.854	0.511
332.000	243.385	80.006	19.996	100.250	20.377	0.746	0.503
334.000	244.377	80.010	19.996	100.245	20.373	0.998	0.513
336.000	245.415	80.009	19.995	100.248	20.375	0.881	0.519
338.000	246.406	80.014	19.994	100.251	20.376	0.806	0.517
340.000	247.371	80.004	19.995	100.253	20.374	0.941	0.476
342.000	248.392	80.008	19.995	100.250	20.379	0.620	0.474
344.000	249.373	80.006	19.996	100.254	20.377	0.760	0.509
346.000	250.433	80.008	19.994	100.249	20.374	0.928	0.499
348.000	251.421	80.006	19.997	100.233	20.376	0.817	0.530
350.000	252.419	80.005	19.995	100.249	20.378	0.707	0.499
352.000	253.429	80.009	19.996	100.239	20.378	0.693	0.494
354.000	254.422	80.009	19.995	100.248	20.378	0.671	0.503
356.000	255.457	80.009	19.996	100.248	20.379	0.590	0.524
358.000	256.415	80.008	19.996	100.229	20.376	0.788	0.468
360.000	257.393	80.012	19.995	100.234	20.381	0.517	0.485
362.000	258.457	80.011	19.994	100.240	20.377	0.778	0.541
364.000	259.467	80.007	19.996	100.226	20.383	0.367	0.521
366.000	260.443	80.010	19.996	100.226	20.383	0.365	0.513
368.000	261.417	80.008	19.995	100.227	20.383	0.329	0.515
370.000	262.438	80.010	19.995	100.241	20.379	0.613	0.507
372.000	263.400	80.010	19.996	100.230	20.379	0.618	0.524
374.000	264.401	80.009	19.995	100.217	20.378	0.682	0.484
376.000	265.445	80.009	19.996	100.220	20.383	0.381	0.524
378.000	266.461	80.008	19.996	100.218	20.378	0.673	0.516
380.000	267.448	80.004	19.996	100.219	20.381	0.484	0.509
382.000	268.447	80.010	19.996	100.219	20.378	0.698	0.503
384.000	269.451	80.010	19.995	100.222	20.380	0.581	0.496
386.000	270.465	80.009	19.996	100.218	20.383	0.386	0.552
388.000	271.484	80.010	19.995	100.213	20.380	0.562	0.527
390.000	272.532	80.012	19.995	100.217	20.383	0.329	0.551
392.000	273.452	80.006	19.996	100.222	20.383	0.333	0.491
394.000	274.479	80.010	19.996	100.220	20.381	0.492	0.529
396.000	275.505	80.009	19.995	100.215	20.385	0.211	0.538
398.000	276.474	80.008	19.995	100.217	20.381	0.471	0.502
400.000	277.490	80.009	19.995	100.220	20.382	0.443	0.532
402.000	278.477	80.006	19.996	100.222	20.384	0.292	0.480
404.000	279.533	80.007	19.995	100.226	20.385	0.253	0.517
406.000	280.515	80.005	19.996	100.224	20.383	0.333	0.484
408.000	281.516	80.005	19.996	100.220	20.384	0.298	0.500
410.000	282.483	80.007	19.995	100.220	20.383	0.367	0.505
412.000	283.495	80.008	19.995	100.241	20.382	0.443	0.516
414.000	284.542	80.008	19.996	100.225	20.388	0.057	0.519
416.000	285.527	80.008	19.995	100.218	20.381	0.480	0.504
418.000	286.558	80.006	19.995	100.225	20.388	0.007	0.514
420.000	287.568	80.008	19.995	100.216	20.390	-0.066	0.529
422.000	288.535	80.007	19.995	100.220	20.385	0.229	0.468
424.000	289.567	80.010	19.995	100.220	20.387	0.076	0.529
426.000	290.545	80.009	19.995	100.217	20.388	0.027	0.516
428.000	291.546	80.009	19.995	100.220	20.387	0.069	0.509
430.000	292.531	80.011	19.994	100.223	20.389	-0.041	0.486
432.000	293.607	80.004	19.995	100.219	20.387	0.073	0.522
434.000	294.589	80.009	19.994	100.224	20.386	0.166	0.471
436.000	295.588	80.013	19.994	100.218	20.389	0.002	0.505
438.000	296.569	80.011	19.995	100.216	20.384	0.308	0.501
440.000	297.616	80.009	19.995	100.214	20.389	-0.035	0.522
442.000	298.604	80.007	19.996	100.214	20.385	0.221	0.523
444.000	299.605	80.009	19.995	100.214	20.390	-0.115	0.485
446.000	300.616	80.009	19.995	100.213	20.387	0.101	0.518
448.000	301.612	80.009	19.995	100.213	20.386	0.143	0.512
450.000	302.574	80.006	19.996	100.212	20.388	0.012	0.482
452.000	303.626	80.008	19.996	100.213	20.391	-0.161	0.521
454.000	304.601	80.009	19.996	100.214	20.391	-0.179	0.479
456.000	305.578	80.005	19.996	100.213	20.388	0.030	0.517
458.000	306.612	80.011	19.996	100.213	20.391	-0.184	0.501
460.000	307.636	80.007	19.997	100.214	20.388	0.032	0.485
462.000	308.674	80.010	19.995	100.212	20.388	0.067	0.520
464.000	309.640	80.010	19.995	100.212	20.386	0.138	0.528
466.000	310.664	80.010	19.995	100.213	20.388	0.019	0.506
468.000	311.709	80.009	19.996	100.210	20.388	0.058	0.518
470.000	312.737	80.008	19.995	100.211	20.387	0.083	0.505
472.000	313.710	80.008	19.995	100.213	20.388	0.039	0.502
474.000	314.719	80.007	19.995	100.213	20.387	0.126	0.470
476.000	315.713	80.003	19.996	100.214	20.387	0.089	0.489
478.000	316.689	80.005	19.996	100.214	20.388	0.051	0.476
480.000	317.713	80.006	19.996	100.213	20.389	-0.019	0.477
482.000	318.743	80.007	19.996	100.215	20.387	0.097	0.506
484.000	319.741	80.006	19.996	100.213	20.390	-0.074	0.513
486.000	320.743	80.004	19.996	100.212	20.388	0.053	0.494
488.000	321.716	80.008	19.996	100.213	20.387	0.087	0.509
490.000	322.738	80.007	19.996	100.215	20.389	-0.037	0.517
492.000	323.717	80.008	19.996	100.216	20.390	-0.122	0.505
494.000	324.712	80.008	19.995	100.216	20.390	-0.071	0.485
496.000	325.726	80.011	19.996	100.217	20.389	-0.060	0.494
498.000	326.752	80.006	19.995	100.217	20.389	-0.002	0.520
500.000	327.700	80.011	19.995	100.217	20.390	-0.062	0.505
502.000	328.698	80.006	19.996	100.214	20.389	-0.041	0.514
504.000	329.737	80.008	19.994	100.213	20.393	-0.266	0.530
506.000	330.751	80.007	19.995	100.213	20.390	-0.090	0.501
508.000	331.741	80.006	19.995	100.214	20.391	-0.181	0.503
510.000	332.793	80.010	19.995	100.211	20.392	-0.246	0.492
512.000	333.806	80.005	19.995	100.211	20.393	-0.262	0.523
514.000	334.834	80.011	19.995	100.212	20.392	-0.191	0.498
516.000	335.849	80.007	19.995	100.211	20.392	-0.236	0.495
518.000	336.822	80.010	19.996	100.212	20.394	-0.363	0.492
520.000	337.847	80.011	19.995	100.208	20.393	-0.305	0.528
522.000	338.879	80.008	19.995	100.207	20.390	-0.103	0.524
524.000	339.846	80.007	19.995	100.213	20.392	-0.209	0.493
526.000	340.861	80.011	19.996	100.211	20.393	-0.278	0.506
528.000	341.848	80.010	19.995	100.210	20.391	-0.182	0.469
530.000	342.847	80.009	19.994	100.210	20.391	-0.128	0.508
532.000	343.858	80.008	19.995	100.212	20.392	-0.248	0.496
534.000	344.852	80.011	19.995	100.213	20.393	-0.303	0.497
536.000	345.861	80.007	19.994	100.213	20.394	-0.340	0.498
538.000	346.861	80.008	19.994	100.211	20.394	-0.358	0.493
540.000	347.854	80.012	19.995	100.199	20.393	-0.264	0.499
542.000	348.849	80.010	19.995	100.210	20.396	-0.487	0.480
544.000	349.886	80.009	19.994	100.207	20.393	-0.259	0.495
546.000	350.894	80.010	19.994	100.209	20.394	-0.328	0.511
548.000	351.898	80.010	19.995	100.213	20.391	-0.140	0.514
550.000	352.952	80.013	19.995	100.206	20.388	0.057	0.520
552.000	353.966	80.010	19.995	100.203	20.390	-0.120	0.554
554.000	354.928	80.009	19.995	100.201	20.392	-0.248	0.514
556.000	355.964	80.009	19.995	100.205	20.392	-0.228	0.497
558.000	356.918	80.008	19.995	100.202	20.392	-0.198	0.490
560.000	357.973	80.006	19.995	100.207	20.392	-0.255	0.507
562.000	358.936	80.005	19.995	100.209	20.395	-0.425	0.522
564.000	359.975	80.007	19.995	100.205	20.393	-0.315	0.499
566.000	360.951	80.008	19.995	100.206	20.393	-0.278	0.499
568.000	361.955	80.005	19.995	100.206	20.394	-0.352	0.484
570.000	362.979	80.006	19.996	100.212	20.391	-0.161	0.476
572.000	363.994	80.008	19.995	100.207	20.392	-0.250	0.519
574.000	364.987	80.007	19.997	100.203	20.392	-0.243	0.477
576.000	366.020	80.009	19.995	100.208	20.392	-0.213	0.556
578.000	366.996	80.006	19.996	100.202	20.390	-0.092	0.510
580.000	367.991	80.008	19.996	100.207	20.390	-0.087	0.509
582.000	368.995	80.006	19.995	100.202	20.390	-0.108	0.503
584.000	370.019	80.006	19.997	100.209	20.394	-0.344	0.520
586.000	371.008	80.008	19.996	100.204	20.392	-0.218	0.486
588.000	372.039	80.008	19.996	100.201	20.392	-0.204	0.499
590.000	373.053	80.005	19.996	100.207	20.391	-0.175	0.509
592.000	374.018	80.004	19.996	100.208	20.392	-0.223	0.515
594.000	375.055	80.008	19.995	100.209	20.397	-0.531	0.509
596.000	376.077	80.006	19.995	100.205	20.393	-0.282	0.520
598.000	377.091	80.005	19.995	100.209	20.394	-0.367	0.524
600.000	378.068	80.008	19.995	100.212	20.394	-0.384	0.512
602.000	379.073	80.011	19.995	100.211	20.395	-0.416	0.509
604.000	380.095	80.006	19.995	100.210	20.395	-0.416	0.512
606.000	381.111	80.011	19.994	100.210	20.395	-0.397	0.534
608.000	382.123	80.009	19.995	100.205	20.399	-0.671	0.533
610.000	383.152	80.009	19.995	100.210	20.396	-0.453	0.534
612.000	384.152	80.009	19.995	100.206	20.395	-0.406	0.482
614.000	385.186	80.007	19.995	100.208	20.395	-0.420	0.506
616.000	386.173	80.008	19.995	100.215	20.394	-0.349	0.532
618.000	387.161	80.007	19.996	100.215	20.394	-0.360	0.505
620.000	388.198	80.009	19.995	100.212	20.395	-0.393	0.492
622.000	389.227	80.006	19.995	100.207	20.394	-0.358	0.516
624.000	390.229	80.009	19.995	100.198	20.397	-0.528	0.519
626.000	391.207	80.009	19.994	100.198	20.392	-0.230	0.498
628.000	392.241	80.010	19.994	100.215	20.395	-0.386	0.511
630.000	393.259	80.011	19.994	100.210	20.391	-0.135	0.513
632.000	394.283	80.011	19.994	100.210	20.393	-0.294	0.514
634.000	395.283	80.012	19.994	100.213	20.389	-0.060	0.504
636.000	396.330	80.010	19.994	100.202	20.388	0.005	0.540
638.000	397.299	80.008	19.995	100.209	20.391	-0.140	0.498
640.000	398.299	80.008	19.995	100.212	20.385	0.227	0.499
642.000	399.321	80.007	19.994	100.204	20.388	0.051	0.511
644.000	400.319	80.007	19.995	100.209	20.383	0.338	0.502
646.000	401.313	80.007	19.995	100.211	20.381	0.510	0.494
648.000	402.342	80.007	19.997	100.209	20.381	0.503	0.513
650.000	403.353	80.009	19.997	100.206	20.379	0.650	0.517
652.000	404.335	80.008	19.996	100.209	20.378	0.661	0.492
654.000	405.301	80.009	19.996	100.206	20.379	0.613	0.473
656.000	406.320	80.008	19.996	100.209	20.375	0.855	0.504
658.000	407.314	80.009	19.996	100.211	20.375	0.887	0.485
660.000	408.324	80.009	19.995	100.209	20.372	1.061	0.483
662.000	409.288	80.010	19.995	100.211	20.370	1.219	0.479
664.000	410.334	80.009	19.995	100.209	20.370	1.176	0.494
666.000	411.319	80.006	19.995	100.207	20.369	1.298	0.478
668.000	412.281	80.007	19.996	100.211	20.367	1.399	0.484
670.000	413.320	80.008	19.995	100.212	20.362	1.718	0.515
672.000	414.257	80.007	19.996	100.214	20.359	1.915	0.453
674.000	415.257	80.008	19.997	100.215	20.353	2.283	0.507
676.000	416.245	80.007	19.996	100.217	20.353	2.320	0.488
678.000	417.279	80.004	19.996	100.216	20.349	2.597	0.482
680.000	418.305	80.006	19.996	100.216	20.345	2.800	0.524
682.000	419.304	80.007	19.996	100.215	20.341	3.112	0.485
684.000	420.296	80.008	19.997	100.214	20.331	3.732	0.498
686.000	421.295	80.008	19.996	100.215	20.326	4.062	0.502
688.000	422.244	80.007	19.995	100.216	20.316	4.727	0.500
690.000	423.306	80.010	19.995	100.215	20.304	5.517	0.519
692.000	424.260	80.009	19.996	100.220	20.293	6.242	0.488
694.000	425.322	80.009	19.994	100.230	20.284	6.812	0.513
696.000	426.315	80.008	19.996	100.227	20.274	7.477	0.541
698.000	427.335	80.008	19.995	100.232	20.266	7.984	0.517
700.000	428.356	80.008	19.995	100.233	20.252	8.912	0.523
702.000	429.348	80.007	19.995	100.246	20.242	9.520	0.502
704.000	430.334	80.008	19.995	100.246	20.226	10.559	0.514
706.000	431.315	80.009	19.995	100.248	20.217	11.168	0.505
708.000	432.370	80.009	19.996	100.251	20.199	12.308	0.539
710.000	433.324	80.011	19.995	100.251	20.181	13.507	0.485
712.000	434.321	80.010	19.995	100.252	20.168	14.352	0.515
714.000	435.331	80.012	19.995	100.251	20.153	15.308	0.524
716.000	436.303	80.011	19.995	100.252	20.133	16.592	0.469
718.000	437.303	80.008	19.995	100.256	20.117	17.672	0.473
720.000	438.312	80.009	19.995	100.254	20.098	18.921	0.486
722.000	439.300	80.008	19.995	100.267	20.085	19.728	0.476
724.000	440.280	80.006	19.996	100.269	20.082	19.912	0.494
726.000	441.303	80.008	19.995	100.252	20.075	20.424	0.494
728.000	442.282	80.009	19.995	100.255	20.079	20.148	0.493
730.000	443.292	80.007	19.995	100.243	20.112	18.018	0.491
732.000	444.320	80.009	19.995	100.235	20.139	16.246	0.499
734.000	445.269	80.008	19.994	100.247	20.148	15.613	0.451
736.000	446.279	80.007	19.996	100.277	20.132	16.669	0.511
738.000	447.293	80.006	19.994	100.342	20.093	19.235	0.491
740.000	448.297	80.009	19.995	100.366	20.077	20.266	0.519
742.000	449.329	80.008	19.996	100.283	20.074	20.467	0.507
744.000	450.282	80.006	19.995	100.249	20.039	22.742	0.470
746.000	451.328	80.008	19.995	100.274	19.980	26.545	0.492
748.000	452.344	80.008	19.996	100.336	19.912	31.034	0.525
750.000	453.320	80.005	19.995	100.404	19.832	36.282	0.506
752.000	454.325	80.005	19.996	100.384	19.804	38.141	0.480
754.000	455.311	80.007	19.996	100.282	19.821	36.881	0.503
756.000	456.388	80.004	19.996	100.221	19.804	37.978	0.527
758.000	457.373	80.006	19.995	100.297	19.727	43.068	0.491
760.000	458.326	80.007	19.995	100.425	19.627	49.700	0.485
762.000	459.378	80.029	19.996	100.538	19.599	51.438	0.515
764.000	460.375	80.025	19.995	100.388	19.602	51.165	0.510
766.000	461.408	80.028	19.995	100.215	19.553	54.436	0.517
768.000	462.441	80.023	19.995	100.310	19.437	62.108	0.498
770.000	463.398	80.016	19.996	100.510	19.372	66.399	0.506
772.000	464.414	80.019	19.997	100.530	19.375	66.021	0.508
774.000	465.456	80.015	19.997	100.296	19.322	69.353	0.503
776.000	466.418	80.016	19.996	100.304	19.187	78.216	0.490
778.000	467.477	80.008	19.996	100.498	19.023	88.912	0.505
780.000	468.453	80.009	19.997	100.680	18.879	98.233	0.513
782.000	469.504	80.008	19.997	100.559	18.797	103.585	0.511
784.000	470.515	80.008	19.997	100.330	18.760	106.069	0.490
786.000	471.500	80.005	19.997	100.298	18.759	106.209	0.495
788.000	472.617	80.010	19.996	100.351	18.832	101.577	0.545
790.000	473.663	80.011	19.995	100.350	18.955	93.594	0.571
792.000	474.682	80.011	19.996	100.324	19.080	85.350	0.523
794.000	475.705	80.011	19.995	100.351	19.173	79.082	0.502
796.000	476.752	80.012	19.995	100.423	19.188	78.039	0.523
798.000	477.752	80.010	19.994	100.571	19.084	85.017	0.508
800.000	478.788	80.010	19.995	100.649	18.963	93.173	0.498
802.000	479.810	80.009	19.995	100.623	18.941	94.537	0.540
804.000	480.846	80.007	19.994	100.405	18.966	92.673	0.538
806.000	481.892	80.008	19.995	100.242	18.958	93.103	0.537
808.000	482.807	80.007	19.995	100.297	18.841	100.797	0.478
810.000	483.876	80.008	19.996	100.607	18.682	111.357	0.516
812.000	484.871	80.006	19.995	100.782	18.588	117.470	0.479
814.000	485.936	80.007	19.995	100.538	18.529	121.256	0.528
816.000	486.959	80.008	19.995	100.394	18.479	124.491	0.503
818.000	487.966	80.008	19.995	100.341	18.437	127.257	0.492
820.000	488.983	80.008	19.995	100.479	18.394	130.095	0.513
822.000	490.023	80.007	19.995	100.616	18.352	132.843	0.470
824.000	491.047	80.008	19.996	100.560	18.333	134.107	0.494
826.000	492.073	80.008	19.995	100.528	18.321	134.851	0.519
828.000	493.063	80.009	19.995	100.506	18.306	135.827	0.488
830.000	494.074	80.007	19.994	100.517	18.291	136.840	0.492
832.000	495.153	80.008	19.995	100.555	18.277	137.732	0.536
834.000	496.199	80.009	19.995	100.568	18.254	139.229	0.540
836.000	497.218	80.006	19.995	100.568	18.224	141.234	0.515
838.000	498.242	80.008	19.995	100.569	18.188	143.560	0.517
840.000	499.275	80.007	19.995	100.573	18.159	145.499	0.543
842.000	500.263	80.007	19.996	100.569	18.123	147.874	0.498
844.000	501.288	80.008	19.996	100.566	18.087	150.172	0.535
846.000	502.312	80.009	19.996	100.579	18.047	152.816	0.505
848.000	503.302	80.007	19.996	100.593	18.007	155.430	0.493
850.000	504.299	80.011	19.997	100.604	17.961	158.445	0.479
852.000	505.317	80.010	19.996	100.604	17.914	161.498	0.507
854.000	506.381	80.011	19.995	100.615	17.870	164.346	0.524
856.000	507.417	80.007	19.995	100.605	17.833	166.797	0.512
858.000	508.447	80.009	19.996	100.605	17.799	169.053	0.540
860.000	509.468	80.010	19.995	100.605	17.773	170.705	0.513
862.000	510.480	80.009	19.996	100.606	17.751	172.113	0.482
864.000	511.490	80.009	19.996	100.610	17.737	173.014	0.473
866.000	512.484	80.009	19.997	100.622	17.720	174.083	0.502
868.000	513.531	80.008	19.996	100.626	17.713	174.509	0.549
870.000	514.580	80.007	19.995	100.624	17.718	174.206	0.522
872.000	515.629	80.010	19.996	100.607	17.733	173.201	0.535
874.000	516.665	80.009	19.996	100.600	17.760	171.435	0.527
876.000	517.688	80.009	19.996	100.590	17.802	168.619	0.522
878.000	518.714	80.010	19.996	100.575	17.859	164.913	0.516
880.000	519.750	80.010	19.996	100.565	17.928	160.348	0.517
882.000	520.725	80.009	19.995	100.559	18.000	155.658	0.524
884.000	521.752	80.008	19.995	100.543	18.092	149.622	0.488
886.000	522.776	80.007	19.996	100.527	18.189	143.284	0.492
888.000	523.796	80.007	19.995	100.506	18.293	136.493	0.508
890.000	524.848	80.008	19.995	100.485	18.403	129.307	0.538
892.000	525.852	80.007	19.995	100.467	18.532	120.879	0.512
894.000	526.903	80.008	19.995	100.453	18.649	113.257	0.513
896.000	527.900	80.006	19.995	100.430	18.776	104.942	0.514
898.000	528.975	80.007	19.995	100.416	18.891	97.456	0.533
900.000	529.965	80.007	19.995	100.406	19.013	89.491	0.496
902.000	530.993	80.008	19.995	100.384	19.128	82.003	0.513
904.000	531.995	80.009	19.996	100.364	19.238	74.820	0.521
906.000	533.055	80.009	19.996	100.339	19.343	68.016	0.515
908.000	534.061	80.009	19.995	100.331	19.438	61.824	0.499
910.000	535.119	80.011	19.995	100.320	19.522	56.329	0.506
912.000	536.153	80.007	19.996	100.302	19.602	51.146	0.514
914.000	537.190	80.009	19.994	100.292	19.672	46.573	0.531
916.000	538.193	80.009	19.996	100.285	19.736	42.451	0.519
918.000	539.236	80.009	19.995	100.271	19.797	38.472	0.529
920.000	540.261	80.008	19.995	100.253	19.847	35.212	0.547
922.000	541.230	80.008	19.995	100.254	19.894	32.126	0.522
924.000	542.292	80.008	19.995	100.252	19.936	29.393	0.492
926.000	543.292	80.008	19.995	100.235	19.976	26.825	0.520
928.000	544.296	80.010	19.996	100.221	20.011	24.531	0.511
930.000	545.323	80.009	19.995	100.214	20.040	22.685	0.523
932.000	546.363	80.010	19.995	100.214	20.067	20.876	0.513
934.000	547.365	80.010	19.995	100.213	20.089	19.456	0.488
936.000	548.400	80.010	19.996	100.215	20.108	18.254	0.537
938.000	549.421	80.010	19.995	100.212	20.123	17.277	0.527
940.000	550.419	80.008	19.996	100.212	20.141	16.102	0.482
942.000	551.421	80.009	19.995	100.209	20.156	15.083	0.491
944.000	552.488	80.009	19.996	100.211	20.171	14.149	0.519
946.000	553.518	80.006	19.996	100.213	20.183	13.328	0.527
948.000	554.504	80.009	19.996	100.211	20.196	12.542	0.495
950.000	555.556	80.009	19.996	100.203	20.205	11.937	0.552
952.000	556.534	80.009	19.995	100.200	20.213	11.380	0.477
954.000	557.569	80.010	19.996	100.193	20.219	11.041	0.527
956.000	558.573	80.011	19.996	100.195	20.228	10.419	0.512
958.000	559.559	80.008	19.995	100.201	20.235	9.980	0.494
960.000	560.576	80.011	19.995	100.204	20.243	9.464	0.489
962.000	561.614	80.011	19.994	100.200	20.246	9.290	0.497
964.000	562.640	80.010	19.995	100.190	20.249	9.089	0.476
966.000	563.582	80.010	19.995	100.194	20.257	8.570	0.466
968.000	564.615	80.008	19.996	100.183	20.263	8.160	0.493
970.000	565.608	80.007	19.996	100.194	20.268	7.851	0.496
972.000	566.659	80.006	19.997	100.196	20.270	7.729	0.516
974.000	567.631	80.007	19.996	100.192	20.271	7.615	0.495
976.000	568.650	80.008	19.996	100.175	20.275	7.393	0.487
978.000	569.654	80.009	19.998	100.194	20.279	7.113	0.507
980.000	570.681	80.008	19.996	100.189	20.278	7.177	0.515
982.000	571.701	80.008	19.996	100.176	20.282	6.936	0.505
984.000	572.732	80.008	19.995	100.191	20.286	6.694	0.513
986.000	573.764	80.007	19.995	100.192	20.287	6.591	0.510
988.000	574.814	80.009	19.995	100.194	20.290	6.394	0.538
990.000	575.843	80.008	19.996	100.192	20.293	6.183	0.506
992.000	576.836	80.008	19.996	100.193	20.295	6.113	0.492
994.000	577.830	80.009	19.996	100.191	20.292	6.274	0.501
996.000	578.850	80.009	19.997	100.190	20.293	6.192	0.505
998.000	579.905	80.008	19.996	100.191	20.299	5.828	0.508
1000.000	580.925	80.008	19.996	100.178	20.297	5.964	0.528
1002.000	581.896	80.009	19.996	100.182	20.299	5.834	0.479
1004.000	582.920	80.008	19.996	100.194	20.302	5.600	0.504
1006.000	583.938	80.009	19.995	100.193	20.306	5.382	0.515
1008.000	584.916	80.009	19.995	100.185	20.303	5.592	0.492
1010.000	585.952	80.008	19.995	100.195	20.304	5.477	0.532
1012.000	586.956	80.010	19.996	100.187	20.308	5.244	0.492
1014.000	587.986	80.010	19.995	100.196	20.312	4.955	0.480
1016.000	588.946	80.011	19.996	100.197	20.311	5.014	0.497
1018.000	590.007	80.010	19.996	100.188	20.313	4.924	0.531
1020.000	590.982	80.010	19.996	100.186	20.315	4.770	0.507
1022.000	592.022	80.010	19.996	100.202	20.316	4.737	0.491
1024.000	593.020	80.009	19.995	100.188	20.315	4.802	0.519
1026.000	594.031	80.010	19.995	100.196	20.320	4.466	0.492
1028.000	595.095	80.008	19.996	100.192	20.321	4.393	0.499
1029.999	596.124	80.009	19.994	100.181	20.321	4.398	0.534
1031.999	597.111	80.010	19.995	100.183	20.325	4.108	0.509
1033.999	598.146	80.011	19.996	100.183	20.327	3.978	0.518
1036.000	599.160	80.012	19.996	100.186	20.331	3.764	0.513
1037.999	600.162	80.011	19.997	100.181	20.328	3.908	0.509
1039.999	601.183	80.012	19.995	100.187	20.331	3.717	0.504
1041.999	602.188	80.011	19.995	100.181	20.332	3.685	0.502
1043.999	603.226	80.010	19.996	100.177	20.330	3.832	0.486
1045.999	604.290	80.012	19.996	100.176	20.331	3.736	0.522
1047.999	605.279	80.009	19.996	100.173	20.331	3.729	0.514
1049.999	606.324	80.009	19.995	100.175	20.332	3.651	0.528
1051.999	607.331	80.008	19.996	100.183	20.335	3.465	0.514
1053.999	608.335	80.008	19.996	100.178	20.338	3.267	0.510
1055.999	609.326	80.009	19.996	100.178	20.339	3.208	0.478
1058.000	610.366	80.007	19.996	100.177	20.339	3.217	0.531
1059.999	611.342	80.009	19.996	100.177	20.342	3.049	0.488
1061.999	612.420	80.008	19.996	100.175	20.341	3.086	0.562
1063.999	613.396	80.008	19.996	100.174	20.344	2.927	0.505
1065.999	614.439	80.009	19.996	100.177	20.347	2.727	0.533
1067.999	615.525	80.008	19.996	100.177	20.347	2.730	0.521
1070.000	616.524	80.006	19.997	100.175	20.352	2.385	0.467
1071.999	617.548	80.008	19.997	100.176	20.351	2.438	0.509
1074.001	618.564	80.008	19.996	100.174	20.351	2.447	0.495
1075.999	619.611	80.008	19.998	100.174	20.351	2.449	0.521
1077.999	620.621	80.008	19.997	100.174	20.351	2.465	0.527
1080.000	621.614	80.007	19.998	100.175	20.358	2.013	0.510
1082.000	622.645	80.008	19.997	100.175	20.355	2.181	0.518
1083.999	623.660	80.006	19.997	100.176	20.355	2.162	0.488
1085.999	624.647	80.007	19.997	100.183	20.357	2.038	0.520
1087.999	625.636	80.006	19.996	100.176	20.359	1.937	0.492
1090.000	626.653	80.007	19.996	100.177	20.358	1.964	0.497
1092.000	627.620	80.007	19.994	100.178	20.360	1.868	0.478
1093.999	628.698	80.009	19.995	100.178	20.362	1.701	0.506
1096.000	629.658	80.010	19.995	100.176	20.363	1.641	0.487
1097.999	630.712	80.010	19.996	100.178	20.361	1.792	0.510
1099.999	631.693	80.009	19.996	100.176	20.362	1.739	0.507
1101.999	632.696	80.011	19.996	100.176	20.362	1.707	0.501
1103.999	633.639	80.009	19.996	100.175	20.363	1.675	0.495
1105.999	634.718	80.011	19.996	100.173	20.365	1.554	0.532
1107.999	635.724	80.008	19.995	100.175	20.365	1.554	0.499
1110.000	636.732	80.008	19.996	100.176	20.365	1.519	0.506
1112.000	637.752	80.008	19.995	100.172	20.367	1.413	0.518
1113.999	638.727	80.009	19.996	100.171	20.368	1.354	0.477
1115.999	639.710	80.009	19.995	100.167	20.369	1.269	0.497
1117.999	640.723	80.011	19.996	100.170	20.368	1.307	0.495
1119.999	641.752	80.011	19.995	100.173	20.371	1.170	0.482
1121.999	642.740	80.011	19.995	100.179	20.371	1.169	0.504
1123.999	643.726	80.012	19.995	100.177	20.372	1.085	0.495
1126.000	644.726	80.011	19.995	100.173	20.374	0.938	0.500
1128.000	645.714	80.011	19.995	100.172	20.376	0.829	0.494
1130.000	646.715	80.012	19.995	100.173	20.378	0.664	0.484
1131.999	647.788	80.009	19.995	100.173	20.380	0.586	0.518
1133.999	648.737	80.007	19.995	100.175	20.378	0.712	0.494
1136.000	649.782	80.008	19.996	100.178	20.374	0.931	0.504
1137.999	650.835	80.008	19.996	100.176	20.380	0.563	0.529
1139.999	651.840	80.008	19.996	100.176	20.380	0.540	0.528
1142.000	652.856	80.008	19.996	100.177	20.379	0.637	0.521
1143.999	653.883	80.009	19.996	100.183	20.381	0.489	0.520
1145.999	654.882	80.007	19.995	100.178	20.380	0.583	0.496
1147.999	655.894	80.007	19.996	100.176	20.381	0.521	0.479
1149.999	656.937	80.008	19.996	100.177	20.382	0.446	0.520
1152.000	657.907	80.009	19.995	100.175	20.382	0.432	0.483
1153.999	658.978	80.008	19.995	100.176	20.380	0.533	0.509
1155.999	660.004	80.008	19.996	100.176	20.383	0.365	0.527
1157.999	661.029	80.007	19.996	100.178	20.384	0.282	0.531
1159.999	662.043	80.007	19.996	100.177	20.386	0.191	0.515
1161.999	663.039	80.007	19.995	100.178	20.383	0.333	0.504
1163.999	664.076	80.006	19.995	100.177	20.383	0.374	0.515
1166.000	665.080	80.007	19.996	100.177	20.384	0.296	0.463
1168.000	666.104	80.009	19.996	100.173	20.384	0.319	0.487
1169.999	667.188	80.007	19.997	100.175	20.384	0.322	0.529
1172.000	668.155	80.007	19.996	100.174	20.383	0.375	0.448
1173.999	669.218	80.007	19.997	100.169	20.386	0.195	0.530
1175.999	670.211	80.010	19.997	100.170	20.384	0.294	0.527
1177.999	671.254	80.008	19.996	100.171	20.387	0.115	0.504
1179.999	672.271	80.011	19.997	100.172	20.389	-0.028	0.517
1181.999	673.288	80.010	19.996	100.171	20.386	0.197	0.489
1184.000	674.317	80.009	19.996	100.171	20.387	0.108	0.524
1185.999	675.312	80.009	19.996	100.172	20.386	0.165	0.510
1188.000	676.364	80.009	19.995	100.174	20.390	-0.062	0.573
1189.999	677.387	80.009	19.996	100.173	20.387	0.083	0.489
1191.999	678.393	80.009	19.995	100.172	20.386	0.152	0.500
1193.999	679.434	80.009	19.995	100.173	20.387	0.110	0.514
1195.999	680.417	80.009	19.996	100.173	20.386	0.193	0.515
1198.000	681.470	80.010	19.996	100.172	20.390	-0.087	0.510
1199.999	682.452	80.011	19.995	100.172	20.388	0.016	0.461
1201.999	683.472	80.010	19.996	100.169	20.390	-0.078	0.478
1203.999	684.482	80.011	19.995	100.171	20.391	-0.149	0.458
1205.999	685.389	80.011	19.995	100.173	20.390	-0.064	0.554
1207.999	686.546	80.011	19.995	100.174	20.389	-0.012	0.174
1209.999	687.498	80.010	19.995	100.174	20.388	0.064	0.504
1211.999	688.502	80.011	19.995	100.173	20.386	0.136	0.361
1213.999	689.500	80.010	19.995	100.174	20.386	0.165	0.482
1216.000	690.460	80.008	19.996	100.175	20.387	0.073	0.501
1217.999	691.481	80.008	19.995	100.177	20.391	-0.184	0.457
1219.999	692.499	80.008	19.995	100.176	20.391	-0.142	0.503
1222.000	693.466	80.008	19.995	100.173	20.391	-0.127	0.498
1223.999	694.452	80.009	19.995	100.170	20.386	0.145	0.496
1225.999	695.412	80.008	19.994	100.176	20.388	0.023	0.486
1227.999	696.384	80.009	19.995	100.168	20.392	-0.198	0.440
1229.999	697.412	80.011	19.996	100.176	20.386	0.159	0.503
1231.999	698.327	80.009	19.995	100.177	20.389	0.002	0.461
1234.000	699.347	80.009	19.995	100.176	20.391	-0.189	0.477
1235.999	700.306	80.009	19.996	100.176	20.387	0.096	0.454
1238.000	701.284	80.009	19.997	100.171	20.388	0.032	0.483
1239.999	702.246	80.008	19.996	100.172	20.391	-0.168	0.500
1241.999	703.239	80.008	19.996	100.172	20.389	0.002	0.486
1244.000	704.207	80.009	19.996	100.173	20.391	-0.138	0.504
1245.999	705.111	80.008	19.996	100.173	20.386	0.147	0.454
1247.999	706.121	80.008	19.997	100.173	20.390	-0.119	0.486
1250.000	707.101	80.006	19.996	100.173	20.388	0.014	0.482
1252.000	708.071	80.007	19.997	100.170	20.390	-0.062	0.477
1253.999	709.107	80.010	19.996	100.170	20.389	-0.041	0.495
1255.999	710.012	80.008	19.995	100.172	20.389	-0.050	0.487
1257.999	711.033	80.010	19.997	100.165	20.387	0.099	0.508
1260.000	711.985	80.011	19.997	100.168	20.388	0.062	0.441
1261.999	712.969	80.011	19.996	100.170	20.388	0.053	0.488
1263.999	713.976	80.010	19.997	100.172	20.385	0.207	0.500
1265.999	714.973	80.011	19.996	100.171	20.388	0.058	0.480
1267.999	715.960	80.009	19.996	100.172	20.389	-0.012	0.509
1269.999	716.955	80.008	19.996	100.167	20.387	0.087	0.478
1271.999	717.955	80.008	19.997	100.170	20.389	-0.016	0.484
1273.999	718.931	80.009	19.996	100.174	20.389	-0.025	0.464
1275.999	719.949	80.009	19.996	100.175	20.385	0.228	0.490
1277.999	720.960	80.009	19.997	100.175	20.390	-0.089	0.485
1279.999	721.954	80.009	19.996	100.175	20.391	-0.163	0.517
1281.999	722.988	80.010	19.996	100.175	20.389	-0.011	0.534
1283.999	723.969	80.011	19.995	100.174	20.390	-0.067	0.511
1285.999	725.011	80.012	19.994	100.175	20.389	-0.002	0.512
1288.000	725.988	80.009	19.996	100.176	20.385	0.212	0.490
1290.000	727.011	80.012	19.995	100.175	20.388	0.016	0.515
1291.999	728.026	80.010	19.995	100.175	20.386	0.154	0.505
1293.999	729.066	80.009	19.996	100.176	20.385	0.218	0.487
1296.000	730.043	80.008	19.995	100.175	20.385	0.228	0.496
1297.999	731.106	80.008	19.995	100.175	20.383	0.366	0.507
1299.999	732.090	80.009	19.995	100.173	20.384	0.322	0.513
1301.999	733.117	80.009	19.995	100.172	20.387	0.069	0.525
1303.999	734.131	80.009	19.995	100.175	20.383	0.366	0.519
1305.999	735.079	80.009	19.996	100.172	20.389	-0.007	0.493
1307.999	736.086	80.009	19.995	100.173	20.387	0.124	0.523
1309.999	737.099	80.007	19.996	100.170	20.387	0.117	0.517
1311.999	738.065	80.009	19.996	100.173	20.384	0.289	0.484
1313.999	739.073	80.009	19.996	100.171	20.389	-0.019	0.512
1316.000	740.102	80.010	19.995	100.172	20.389	-0.014	0.526
1317.999	741.109	80.008	19.996	100.169	20.384	0.299	0.513
1319.999	742.077	80.010	19.995	100.173	20.389	0.002	0.504
1321.999	743.110	80.010	19.996	100.173	20.387	0.074	0.523
1322.999	743.614	80.011	19.995	100.174	20.385	0.239	0.501