File: 01_Data/PC/MCC/PC_MCC_30K_min_211013_O5.txt
Sample ID:	C:\MCC\MCC Cal\Test\PC\PC_MCC_30K_min_211013_R5.txt
Sample Weight (mg):	4.29
Heating Rate (C/s):	0.5
Combustor Temp (C):	900
N2 Flow Rate (cc/min):	80
O2 Flow Rate (cc/min):	20
Calibration File:	C:\MCC\MCC Cal\Coeff1 JN10440_30_210304.txt.txt
T Correction Coefficients:	0	1.024463	0
Time Shift (s):	14
*
Time (s)	Temperature (C)	N2 flow rate (cc/min)	O2 flow rate (cc/min)	Flow Rate (cc/min)	Oxygen (%)	HRR (W/g)	Heating rate (C/s)
-0.001	107.857	79.988	19.996	103.152	20.215	0.068	-0.021
2.000	107.851	79.987	19.996	103.154	20.219	-0.233	0.013
4.000	107.859	79.988	19.996	103.151	20.216	0.019	-0.017
6.000	107.851	79.988	19.997	103.152	20.215	0.109	-0.011
8.000	107.864	79.988	19.997	103.165	20.211	0.365	0.004
10.000	107.822	79.990	19.997	103.186	20.208	0.578	0.002
12.000	107.834	79.989	19.997	103.193	20.208	0.613	-0.002
14.000	107.908	79.990	19.997	103.222	20.203	1.017	0.023
16.000	107.926	79.990	19.997	103.231	20.199	1.260	0.040
18.000	108.006	79.991	19.997	103.254	20.200	1.226	0.030
20.000	108.090	79.989	19.995	103.254	20.197	1.413	0.042
22.000	108.217	79.988	19.995	103.265	20.196	1.501	0.068
24.000	108.357	79.990	19.995	103.271	20.190	1.945	0.085
26.000	108.492	79.990	19.995	103.246	20.194	1.681	0.096
28.000	108.645	79.990	19.995	103.219	20.188	2.127	0.082
30.000	108.829	79.986	19.995	103.341	20.189	2.027	0.090
32.000	109.078	79.989	19.996	103.308	20.182	2.538	0.129
34.000	109.325	79.990	19.995	103.321	20.184	2.427	0.121
35.999	109.561	79.991	19.996	103.313	20.182	2.596	0.113
37.999	109.843	79.989	19.995	103.317	20.179	2.761	0.144
39.999	110.136	79.990	19.996	103.319	20.182	2.559	0.149
42.000	110.422	79.989	19.994	103.332	20.177	2.974	0.148
44.000	110.797	79.990	19.996	103.349	20.180	2.708	0.165
45.999	111.156	79.989	19.995	103.353	20.172	3.315	0.182
47.999	111.564	79.990	19.996	103.355	20.175	3.067	0.184
49.999	111.927	79.987	19.995	103.354	20.171	3.381	0.191
51.999	112.415	79.987	19.996	103.355	20.172	3.297	0.258
53.999	112.856	79.988	19.994	103.351	20.175	3.090	0.229
55.999	113.324	79.987	19.993	103.350	20.174	3.175	0.235
57.999	113.824	79.989	19.996	103.351	20.174	3.200	0.253
59.999	114.276	79.988	19.994	103.353	20.171	3.363	0.230
62.001	114.802	79.989	19.995	103.363	20.174	3.175	0.258
64.000	115.336	79.987	19.995	103.363	20.173	3.268	0.256
65.999	115.852	79.988	19.995	103.357	20.172	3.345	0.304
67.999	116.413	79.988	19.996	103.372	20.170	3.475	0.290
69.999	116.950	79.988	19.995	103.383	20.172	3.353	0.245
71.999	117.578	79.989	19.995	103.380	20.169	3.556	0.291
73.999	118.147	79.988	19.996	103.371	20.170	3.502	0.301
75.999	118.747	79.987	19.997	103.386	20.171	3.391	0.278
77.999	119.380	79.987	19.996	103.389	20.169	3.510	0.314
79.999	120.042	79.988	19.997	103.390	20.166	3.796	0.336
81.999	120.682	79.988	19.996	103.390	20.171	3.362	0.345
83.999	121.372	79.988	19.996	103.387	20.162	4.073	0.367
86.000	122.074	79.988	19.997	103.393	20.166	3.784	0.340
87.999	122.799	79.989	19.996	103.391	20.169	3.554	0.351
89.999	123.530	79.989	19.996	103.396	20.168	3.608	0.381
91.999	124.236	79.989	19.995	103.396	20.165	3.827	0.342
94.000	125.012	79.989	19.996	103.396	20.168	3.660	0.399
95.999	125.754	79.991	19.996	103.414	20.169	3.550	0.384
97.999	126.552	79.989	19.996	103.410	20.169	3.548	0.383
100.000	127.310	79.990	19.996	103.415	20.163	4.006	0.415
101.999	128.118	79.989	19.996	103.414	20.163	4.009	0.396
103.999	128.960	79.987	19.996	103.414	20.169	3.513	0.427
106.000	129.739	79.989	19.996	103.401	20.167	3.722	0.394
107.999	130.601	79.988	19.996	103.419	20.167	3.689	0.410
109.999	131.388	79.991	19.997	103.406	20.168	3.611	0.429
111.999	132.266	79.990	19.996	103.410	20.165	3.875	0.428
114.000	133.085	79.990	19.995	103.416	20.165	3.862	0.434
115.999	133.975	79.990	19.995	103.417	20.164	3.953	0.454
117.999	134.852	79.991	19.995	103.426	20.165	3.863	0.439
119.999	135.719	79.990	19.995	103.425	20.165	3.827	0.439
121.999	136.582	79.990	19.995	103.420	20.166	3.797	0.434
123.999	137.507	79.992	19.995	103.409	20.166	3.740	0.459
125.999	138.375	79.990	19.996	103.410	20.169	3.579	0.446
127.999	139.303	79.989	19.995	103.415	20.167	3.676	0.448
130.000	140.206	79.989	19.995	103.412	20.170	3.500	0.450
132.000	141.149	79.989	19.996	103.414	20.166	3.786	0.474
134.000	142.079	79.988	19.997	103.413	20.167	3.703	0.480
136.000	142.973	79.989	19.996	103.411	20.167	3.678	0.441
138.000	143.938	79.989	19.996	103.407	20.172	3.321	0.491
140.000	144.928	79.989	19.996	103.397	20.169	3.539	0.523
142.000	145.867	79.987	19.995	103.401	20.167	3.663	0.474
144.000	146.786	79.990	19.996	103.406	20.168	3.614	0.453
146.000	147.717	79.989	19.995	103.393	20.167	3.719	0.453
148.000	148.673	79.989	19.996	103.395	20.169	3.572	0.471
150.000	149.718	79.989	19.995	103.398	20.166	3.777	0.529
152.000	150.647	79.991	19.995	103.394	20.166	3.785	0.464
154.000	151.601	79.991	19.996	103.396	20.169	3.544	0.497
156.000	152.568	79.989	19.996	103.398	20.172	3.343	0.477
158.000	153.524	79.988	19.996	103.389	20.168	3.632	0.450
160.000	154.447	79.989	19.996	103.388	20.168	3.601	0.501
162.000	155.465	79.988	19.996	103.388	20.171	3.395	0.504
164.000	156.413	79.986	19.996	103.399	20.170	3.483	0.512
166.000	157.378	79.988	19.997	103.389	20.173	3.236	0.501
168.000	158.344	79.988	19.996	103.389	20.171	3.370	0.516
170.000	159.314	79.988	19.995	103.391	20.168	3.645	0.469
172.000	160.232	79.989	19.996	103.391	20.168	3.659	0.477
174.000	161.273	79.990	19.996	103.390	20.168	3.607	0.498
176.000	162.268	79.989	19.995	103.395	20.172	3.322	0.483
178.000	163.246	79.991	19.996	103.394	20.171	3.361	0.479
180.000	164.260	79.989	19.996	103.391	20.177	2.950	0.506
182.000	165.251	79.989	19.995	103.395	20.169	3.529	0.510
184.000	166.244	79.988	19.995	103.391	20.173	3.237	0.503
186.000	167.217	79.987	19.996	103.389	20.175	3.130	0.488
188.000	168.195	79.987	19.996	103.389	20.176	3.014	0.487
190.000	169.167	79.988	19.996	103.390	20.172	3.357	0.475
192.000	170.138	79.988	19.996	103.386	20.173	3.237	0.479
194.000	171.166	79.989	19.997	103.384	20.173	3.221	0.512
196.000	172.100	79.991	19.996	103.378	20.175	3.082	0.489
198.000	173.079	79.991	19.995	103.384	20.176	3.035	0.493
200.000	174.035	79.992	19.997	103.376	20.175	3.130	0.521
202.000	175.063	79.992	19.995	103.384	20.178	2.880	0.469
204.000	176.037	79.991	19.995	103.373	20.175	3.105	0.521
206.000	177.018	79.990	19.996	103.381	20.178	2.905	0.465
208.000	177.971	79.990	19.996	103.372	20.178	2.832	0.486
210.000	178.961	79.988	19.995	103.369	20.176	2.999	0.480
212.000	179.963	79.988	19.996	103.379	20.180	2.719	0.494
214.000	180.950	79.989	19.996	103.372	20.179	2.781	0.503
216.000	181.967	79.990	19.996	103.375	20.177	2.931	0.487
218.000	182.890	79.989	19.996	103.372	20.184	2.384	0.487
220.000	183.896	79.988	19.996	103.373	20.177	2.944	0.502
222.000	184.902	79.988	19.995	103.372	20.179	2.797	0.509
224.000	185.888	79.988	19.996	103.376	20.178	2.848	0.510
226.000	186.906	79.991	19.997	103.383	20.177	2.923	0.501
228.000	187.897	79.988	19.997	103.366	20.180	2.696	0.495
230.000	188.849	79.989	19.995	103.373	20.179	2.782	0.494
232.000	189.860	79.989	19.996	103.373	20.183	2.474	0.440
234.000	190.820	79.989	19.995	103.364	20.181	2.640	0.473
236.000	191.790	79.989	19.996	103.370	20.178	2.850	0.458
238.000	192.767	79.988	19.995	103.376	20.181	2.658	0.465
240.000	193.780	79.989	19.994	103.369	20.182	2.584	0.490
242.000	194.781	79.987	19.994	103.359	20.182	2.559	0.494
244.000	195.745	79.989	19.996	103.357	20.181	2.611	0.474
246.000	196.738	79.988	19.996	103.358	20.182	2.602	0.509
248.000	197.727	79.986	19.995	103.362	20.177	2.979	0.508
250.000	198.721	79.989	19.995	103.359	20.182	2.575	0.535
252.000	199.696	79.989	19.995	103.370	20.185	2.371	0.509
254.000	200.688	79.990	19.995	103.362	20.180	2.741	0.500
256.000	201.649	79.990	19.996	103.353	20.180	2.718	0.488
258.000	202.650	79.991	19.995	103.360	20.186	2.258	0.508
260.000	203.646	79.991	19.996	103.357	20.181	2.681	0.482
262.000	204.629	79.989	19.996	103.350	20.181	2.650	0.515
264.000	205.632	79.991	19.997	103.347	20.183	2.489	0.519
266.000	206.634	79.990	19.997	103.347	20.182	2.546	0.515
268.000	207.623	79.989	19.996	103.355	20.189	2.016	0.507
270.000	208.606	79.991	19.996	103.356	20.187	2.181	0.491
272.000	209.613	79.991	19.996	103.349	20.184	2.396	0.459
274.000	210.619	79.991	19.995	103.348	20.187	2.204	0.503
276.000	211.591	79.989	19.995	103.346	20.187	2.201	0.508
278.000	212.581	79.989	19.995	103.346	20.187	2.197	0.505
280.000	213.558	79.992	19.997	103.348	20.189	2.047	0.492
282.000	214.569	79.992	19.997	103.346	20.184	2.398	0.512
284.000	215.568	79.991	19.997	103.346	20.186	2.235	0.500
286.000	216.518	79.990	19.997	103.345	20.188	2.135	0.462
288.000	217.544	79.990	19.997	103.345	20.183	2.464	0.506
290.000	218.523	79.988	19.997	103.345	20.187	2.179	0.491
292.000	219.489	79.988	19.997	103.345	20.188	2.102	0.453
294.000	220.494	79.988	19.996	103.348	20.187	2.166	0.474
296.000	221.451	79.988	19.995	103.348	20.188	2.131	0.469
298.000	222.451	79.988	19.995	103.349	20.185	2.350	0.496
300.000	223.448	79.987	19.995	103.350	20.192	1.789	0.490
302.000	224.434	79.987	19.995	103.345	20.185	2.321	0.514
304.000	225.407	79.988	19.996	103.344	20.187	2.226	0.481
306.000	226.419	79.988	19.995	103.346	20.183	2.509	0.509
308.000	227.411	79.987	19.995	103.345	20.186	2.303	0.479
310.000	228.404	79.989	19.996	103.349	20.182	2.563	0.510
312.000	229.417	79.986	19.995	103.345	20.186	2.269	0.486
314.000	230.459	79.987	19.996	103.342	20.185	2.311	0.512
316.000	231.422	79.987	19.996	103.341	20.188	2.086	0.485
318.000	232.384	79.987	19.996	103.339	20.192	1.809	0.454
320.000	233.376	79.988	19.996	103.348	20.182	2.542	0.504
322.000	234.368	79.988	19.995	103.340	20.186	2.305	0.511
324.000	235.329	79.988	19.996	103.336	20.187	2.203	0.468
326.000	236.347	79.987	19.995	103.340	20.191	1.879	0.496
328.000	237.384	79.988	19.995	103.331	20.189	2.079	0.528
330.000	238.339	79.989	19.996	103.325	20.186	2.232	0.500
332.000	239.354	79.990	19.997	103.341	20.193	1.726	0.483
334.000	240.289	79.989	19.995	103.332	20.192	1.829	0.480
336.000	241.334	79.990	19.996	103.330	20.198	1.367	0.492
338.000	242.300	79.991	19.996	103.330	20.192	1.823	0.521
340.000	243.349	79.989	19.996	103.324	20.195	1.617	0.511
342.000	244.309	79.990	19.995	103.319	20.202	1.090	0.522
344.000	245.348	79.990	19.996	103.326	20.195	1.590	0.493
346.000	246.320	79.988	19.997	103.312	20.196	1.491	0.512
348.000	247.316	79.989	19.997	103.319	20.193	1.761	0.484
350.000	248.301	79.990	19.997	103.309	20.195	1.563	0.519
352.000	249.311	79.988	19.997	103.314	20.193	1.743	0.487
354.000	250.419	79.991	19.997	103.311	20.188	2.081	0.537
356.000	251.346	79.988	19.996	103.315	20.190	1.974	0.501
358.000	252.336	79.991	19.996	103.313	20.195	1.627	0.472
360.000	253.328	79.993	19.996	103.310	20.196	1.530	0.495
362.000	254.302	79.990	19.995	103.319	20.196	1.550	0.508
364.000	255.304	79.991	19.996	103.318	20.192	1.800	0.500
366.000	256.270	79.990	19.995	103.310	20.196	1.505	0.479
368.000	257.272	79.987	19.994	103.311	20.200	1.243	0.490
370.000	258.223	79.987	19.996	103.308	20.194	1.668	0.490
372.000	259.245	79.986	19.996	103.309	20.197	1.406	0.510
374.000	260.246	79.988	19.997	103.310	20.197	1.439	0.504
376.000	261.241	79.988	19.998	103.309	20.197	1.420	0.501
378.000	262.170	79.986	19.997	103.314	20.199	1.309	0.460
380.000	263.158	79.987	19.996	103.313	20.200	1.251	0.478
382.000	264.149	79.989	19.997	103.314	20.196	1.493	0.493
384.000	265.132	79.989	19.995	103.314	20.199	1.292	0.487
386.000	266.109	79.990	19.997	103.314	20.196	1.538	0.486
388.000	267.062	79.989	19.997	103.311	20.193	1.726	0.455
390.000	268.061	79.989	19.996	103.309	20.200	1.179	0.487
392.000	269.090	79.990	19.996	103.310	20.202	1.096	0.477
394.000	270.090	79.991	19.997	103.310	20.201	1.144	0.493
396.000	271.127	79.988	19.996	103.310	20.202	1.040	0.536
398.000	272.121	79.990	19.996	103.308	20.199	1.286	0.515
400.000	273.118	79.988	19.995	103.309	20.197	1.420	0.472
402.000	274.095	79.989	19.997	103.304	20.197	1.476	0.464
404.000	275.111	79.988	19.996	103.310	20.198	1.393	0.514
406.000	276.125	79.988	19.995	103.311	20.198	1.383	0.489
408.000	277.156	79.990	19.997	103.307	20.203	1.012	0.547
410.000	278.152	79.989	19.996	103.308	20.199	1.294	0.506
412.000	279.141	79.991	19.997	103.308	20.206	0.795	0.482
414.000	280.180	79.990	19.996	103.305	20.205	0.826	0.496
416.000	281.155	79.989	19.995	103.305	20.205	0.809	0.493
418.000	282.181	79.992	19.995	103.306	20.206	0.772	0.532
420.000	283.186	79.992	19.997	103.306	20.202	1.073	0.490
422.000	284.196	79.992	19.996	103.311	20.203	0.999	0.526
424.000	285.240	79.991	19.994	103.311	20.206	0.741	0.542
426.000	286.262	79.992	19.996	103.304	20.205	0.865	0.525
428.000	287.281	79.992	19.995	103.303	20.209	0.506	0.526
430.000	288.292	79.992	19.996	103.308	20.201	1.156	0.495
432.000	289.305	79.990	19.996	103.305	20.209	0.514	0.489
434.000	290.345	79.992	19.996	103.307	20.201	1.113	0.509
436.000	291.354	79.991	19.996	103.302	20.197	1.447	0.545
438.000	292.373	79.991	19.996	103.307	20.202	1.094	0.475
440.000	293.395	79.991	19.996	103.306	20.198	1.348	0.505
442.000	294.455	79.991	19.996	103.309	20.197	1.451	0.442
444.000	295.580	79.993	19.997	103.293	20.203	1.009	0.550
446.000	296.564	79.993	19.997	103.298	20.200	1.203	0.750
448.000	297.584	79.991	19.995	103.295	20.197	1.439	0.800
450.000	298.459	79.988	19.995	103.286	20.207	0.671	0.454
452.000	299.430	79.990	19.996	103.290	20.203	0.972	0.415
454.000	300.527	79.989	19.995	103.281	20.204	0.929	0.523
456.000	301.530	79.988	19.995	103.279	20.206	0.793	0.535
458.000	302.547	79.988	19.997	103.289	20.208	0.588	0.548
460.000	303.580	79.990	19.996	103.279	20.209	0.528	0.514
462.000	304.548	79.991	19.997	103.280	20.210	0.499	0.524
464.000	305.623	79.988	19.997	103.290	20.204	0.881	0.518
466.000	306.636	79.990	19.997	103.282	20.206	0.731	0.486
468.000	307.633	79.988	19.997	103.288	20.209	0.526	0.501
470.000	308.620	79.992	19.998	103.283	20.207	0.667	0.483
472.000	309.667	79.990	19.997	103.281	20.207	0.658	0.501
474.000	310.690	79.990	19.997	103.281	20.210	0.435	0.504
476.000	311.696	79.990	19.997	103.277	20.206	0.801	0.469
478.000	312.750	79.990	19.995	103.291	20.213	0.213	0.529
480.000	313.740	79.989	19.995	103.272	20.207	0.667	0.504
482.000	314.775	79.989	19.995	103.278	20.210	0.487	0.522
484.000	315.795	79.988	19.994	103.279	20.208	0.590	0.501
486.000	316.780	79.989	19.996	103.279	20.208	0.615	0.506
488.000	317.794	79.990	19.996	103.275	20.212	0.334	0.487
490.000	318.795	79.989	19.995	103.273	20.210	0.491	0.470
492.000	319.818	79.991	19.995	103.273	20.211	0.384	0.501
494.000	320.778	79.991	19.996	103.272	20.209	0.501	0.480
496.000	321.833	79.993	19.997	103.273	20.213	0.206	0.511
498.000	322.836	79.990	19.996	103.275	20.213	0.268	0.484
500.000	323.865	79.990	19.995	103.277	20.212	0.345	0.513
502.000	324.873	79.991	19.996	103.282	20.208	0.592	0.502
504.000	325.855	79.991	19.995	103.276	20.216	0.031	0.508
506.000	326.884	79.991	19.995	103.275	20.209	0.563	0.502
508.000	327.878	79.990	19.994	103.275	20.211	0.367	0.499
510.000	328.882	79.990	19.996	103.272	20.209	0.514	0.485
512.000	329.872	79.991	19.995	103.273	20.210	0.460	0.499
514.000	330.894	79.991	19.996	103.272	20.208	0.590	0.515
516.000	331.910	79.992	19.995	103.269	20.208	0.613	0.512
518.000	332.952	79.992	19.996	103.278	20.207	0.708	0.553
520.000	333.982	79.993	19.994	103.270	20.213	0.266	0.531
522.000	334.973	79.992	19.996	103.269	20.207	0.660	0.501
524.000	335.954	79.993	19.996	103.270	20.208	0.636	0.478
526.000	336.926	79.993	19.997	103.269	20.208	0.646	0.501
528.000	337.972	79.992	19.997	103.271	20.209	0.514	0.553
530.000	338.966	79.990	19.996	103.268	20.205	0.803	0.504
532.000	339.967	79.990	19.997	103.267	20.207	0.714	0.508
534.000	340.989	79.989	19.996	103.268	20.206	0.743	0.493
536.000	341.981	79.991	19.996	103.268	20.207	0.691	0.470
538.000	342.977	79.990	19.996	103.270	20.210	0.499	0.493
540.000	344.011	79.991	19.996	103.267	20.211	0.421	0.499
542.000	345.000	79.990	19.997	103.269	20.213	0.266	0.491
544.000	346.028	79.991	19.996	103.268	20.210	0.479	0.503
546.000	347.010	79.989	19.996	103.269	20.210	0.466	0.516
548.000	348.063	79.990	19.997	103.271	20.210	0.499	0.519
550.000	349.083	79.991	19.997	103.228	20.210	0.483	0.509
552.000	350.151	79.989	19.997	103.292	20.211	0.415	0.534
554.000	351.121	79.988	19.997	103.307	20.212	0.283	0.493
556.000	352.172	79.989	19.996	103.266	20.207	0.681	0.545
558.000	353.197	79.990	19.997	103.270	20.207	0.652	0.498
560.000	354.250	79.988	19.998	103.270	20.210	0.479	0.518
562.000	355.246	79.990	19.997	103.270	20.212	0.295	0.542
564.000	356.233	79.989	19.996	103.270	20.209	0.504	0.505
566.000	357.234	79.990	19.996	103.272	20.213	0.248	0.474
568.000	358.288	79.990	19.996	103.273	20.214	0.200	0.504
570.000	359.305	79.990	19.995	103.270	20.212	0.322	0.515
572.000	360.285	79.990	19.995	103.269	20.211	0.367	0.535
574.000	361.280	79.991	19.996	103.263	20.207	0.722	0.498
576.000	362.316	79.990	19.995	103.268	20.212	0.334	0.485
578.000	363.328	79.991	19.996	103.251	20.209	0.536	0.518
580.000	364.336	79.993	19.996	103.263	20.213	0.229	0.513
582.000	365.338	79.992	19.996	103.258	20.209	0.506	0.490
584.000	366.337	79.990	19.996	103.262	20.206	0.794	0.484
586.000	367.378	79.990	19.995	103.266	20.212	0.310	0.522
588.000	368.346	79.991	19.996	103.263	20.207	0.693	0.498
590.000	369.334	79.992	19.996	103.259	20.210	0.450	0.486
592.000	370.382	79.991	19.997	103.267	20.206	0.772	0.479
594.000	371.381	79.992	19.996	103.264	20.210	0.435	0.478
596.000	372.370	79.993	19.996	103.265	20.217	-0.097	0.490
598.000	373.414	79.993	19.995	103.266	20.210	0.495	0.540
600.000	374.420	79.993	19.996	103.265	20.205	0.807	0.501
602.000	375.425	79.993	19.996	103.263	20.210	0.466	0.494
604.000	376.471	79.993	19.995	103.264	20.208	0.611	0.531
606.000	377.482	79.992	19.995	103.257	20.212	0.316	0.478
608.000	378.522	79.991	19.996	103.262	20.210	0.448	0.516
610.000	379.534	79.991	19.996	103.259	20.207	0.679	0.529
612.000	380.524	79.989	19.996	103.258	20.211	0.396	0.498
614.000	381.500	79.988	19.995	103.259	20.210	0.433	0.509
616.000	382.524	79.990	19.996	103.262	20.209	0.557	0.462
618.000	383.564	79.988	19.996	103.269	20.209	0.501	0.514
620.000	384.601	79.988	19.996	103.267	20.208	0.617	0.501
622.000	385.655	79.990	19.997	103.258	20.207	0.671	0.514
624.000	386.618	79.989	19.996	103.266	20.208	0.584	0.498
626.000	387.668	79.991	19.996	103.259	20.208	0.646	0.537
628.000	388.679	79.991	19.996	103.263	20.205	0.825	0.538
630.000	389.709	79.991	19.996	103.261	20.207	0.681	0.513
632.000	390.724	79.989	19.996	103.261	20.200	1.246	0.517
634.000	391.714	79.991	19.996	103.257	20.204	0.883	0.499
636.000	392.765	79.990	19.997	103.258	20.202	1.073	0.512
638.000	393.795	79.991	19.995	103.253	20.203	0.976	0.538
640.000	394.870	79.989	19.997	103.257	20.200	1.230	0.551
642.000	395.864	79.989	19.997	103.259	20.196	1.490	0.508
644.000	396.869	79.989	19.998	103.248	20.201	1.120	0.511
646.000	397.853	79.989	19.997	103.239	20.199	1.269	0.480
648.000	398.937	79.988	19.997	103.247	20.199	1.294	0.520
650.000	399.914	79.989	19.997	103.261	20.201	1.158	0.505
652.000	400.928	79.990	19.997	103.264	20.195	1.562	0.510
654.000	401.927	79.991	19.996	103.249	20.198	1.378	0.488
656.000	402.963	79.992	19.995	103.249	20.196	1.517	0.506
658.000	403.955	79.991	19.996	103.256	20.198	1.366	0.494
660.000	404.974	79.990	19.996	103.262	20.191	1.863	0.493
662.000	405.994	79.991	19.996	103.264	20.187	2.191	0.519
664.000	406.985	79.991	19.995	103.266	20.189	2.074	0.484
666.000	408.064	79.990	19.995	103.262	20.186	2.282	0.541
668.000	409.045	79.991	19.995	103.263	20.186	2.280	0.539
670.000	410.053	79.990	19.996	103.255	20.181	2.670	0.529
672.000	411.070	79.991	19.996	103.261	20.182	2.596	0.505
674.000	412.081	79.990	19.995	103.265	20.185	2.357	0.487
676.000	413.106	79.991	19.994	103.266	20.184	2.435	0.514
678.000	414.090	79.992	19.995	103.268	20.174	3.139	0.521
680.000	415.088	79.993	19.995	103.268	20.174	3.201	0.487
682.000	416.084	79.993	19.995	103.268	20.173	3.232	0.505
684.000	417.145	79.989	19.995	103.268	20.171	3.376	0.556
686.000	418.180	79.991	19.995	103.265	20.167	3.708	0.514
688.000	419.170	79.990	19.995	103.269	20.160	4.208	0.526
690.000	420.196	79.989	19.995	103.270	20.160	4.231	0.502
692.000	421.249	79.990	19.995	103.270	20.146	5.240	0.505
694.000	422.232	79.990	19.995	103.270	20.143	5.518	0.511
696.000	423.236	79.990	19.996	103.270	20.137	5.947	0.481
698.000	424.289	79.990	19.996	103.274	20.128	6.619	0.512
700.000	425.315	79.990	19.996	103.273	20.123	6.999	0.528
702.000	426.282	79.991	19.996	103.276	20.113	7.746	0.485
704.000	427.330	79.989	19.996	103.254	20.103	8.520	0.503
706.000	428.334	79.990	19.996	103.232	20.091	9.434	0.502
708.000	429.362	79.989	19.996	103.331	20.078	10.371	0.517
710.000	430.325	79.990	19.996	103.278	20.066	11.249	0.506
712.000	431.364	79.989	19.996	103.284	20.051	12.384	0.522
714.000	432.345	79.990	19.997	103.280	20.041	13.174	0.498
716.000	433.412	79.991	19.997	103.295	20.029	14.065	0.558
718.000	434.443	79.990	19.998	103.302	20.014	15.180	0.551
720.000	435.433	79.990	19.997	103.306	19.995	16.620	0.500
722.000	436.478	79.991	19.997	103.306	19.985	17.351	0.513
724.000	437.488	79.991	19.997	103.296	19.976	18.032	0.535
726.000	438.526	79.989	19.997	103.301	19.966	18.819	0.533
728.000	439.541	79.990	19.997	103.315	19.947	20.244	0.510
730.000	440.565	79.991	19.997	103.320	19.940	20.793	0.536
732.000	441.609	79.990	19.997	103.305	19.929	21.599	0.521
734.000	442.683	79.991	19.998	103.311	19.912	22.862	0.518
736.000	443.658	79.991	19.998	103.341	19.882	25.081	0.490
738.000	444.729	79.991	19.997	103.376	19.843	28.047	0.543
740.000	445.763	79.991	19.996	103.375	19.807	30.823	0.517
742.000	446.715	79.991	19.998	103.334	19.813	30.279	0.455
744.000	447.771	79.992	19.997	103.261	19.838	28.406	0.513
746.000	448.811	79.990	19.996	103.259	19.842	28.119	0.529
748.000	449.832	79.991	19.995	103.348	19.806	30.836	0.525
750.000	450.855	79.991	19.996	103.469	19.763	34.093	0.512
752.000	451.835	79.990	19.995	103.461	19.748	35.261	0.464
754.000	452.906	79.992	19.996	103.314	19.727	36.807	0.534
756.000	453.921	79.992	19.995	103.279	19.702	38.622	0.495
758.000	454.997	79.992	19.996	103.350	19.679	40.314	0.519
760.000	456.014	79.992	19.995	103.405	19.611	45.454	0.515
762.000	457.075	79.993	19.996	103.472	19.496	54.197	0.541
764.000	458.107	79.991	19.995	103.497	19.409	60.794	0.525
766.000	459.119	79.991	19.996	103.440	19.374	63.381	0.531
768.000	460.159	79.990	19.997	103.291	19.354	64.884	0.514
770.000	461.150	79.988	19.996	103.286	19.315	67.846	0.480
772.000	462.234	79.989	19.997	103.431	19.212	75.664	0.530
774.000	463.216	79.990	19.996	103.626	19.125	82.074	0.487
776.000	464.265	79.989	19.997	103.548	19.042	88.269	0.508
778.000	465.288	79.989	19.996	103.441	18.926	97.118	0.501
780.000	466.292	79.991	19.995	103.473	18.778	108.419	0.510
782.000	467.256	79.992	19.996	103.572	18.687	115.124	0.468
784.000	468.336	79.991	19.995	103.522	18.644	118.144	0.493
786.000	469.357	79.990	19.996	103.392	18.572	123.584	0.517
788.000	470.394	79.991	19.995	103.471	18.481	130.751	0.510
790.000	471.393	79.990	19.996	103.595	18.408	136.573	0.503
792.000	472.393	79.990	19.996	103.625	18.412	136.118	0.505
794.000	473.448	79.989	19.995	103.444	18.507	128.634	0.533
796.000	474.512	79.988	19.998	103.309	18.564	124.154	0.531
798.000	475.523	79.989	19.996	103.454	18.501	128.920	0.492
800.000	476.590	79.989	19.996	103.741	18.377	138.494	0.557
802.000	477.587	79.988	19.997	103.849	18.299	144.563	0.511
804.000	478.622	79.988	19.996	103.594	18.288	145.381	0.516
806.000	479.664	79.989	19.995	103.352	18.323	142.643	0.537
808.000	480.685	79.988	19.996	103.307	18.389	137.499	0.522
810.000	481.741	79.990	19.996	103.440	18.398	136.743	0.555
812.000	482.730	79.990	19.996	103.638	18.350	140.483	0.506
814.000	483.735	79.990	19.996	103.718	18.292	144.906	0.524
816.000	484.789	79.990	19.996	103.658	18.257	147.515	0.523
818.000	485.785	79.990	19.995	103.523	18.261	147.275	0.484
820.000	486.823	79.990	19.996	103.415	18.259	147.407	0.511
822.000	487.841	79.990	19.996	103.483	18.269	146.650	0.516
824.000	488.877	79.989	19.996	103.542	18.297	144.504	0.510
826.000	489.935	79.988	19.997	103.529	18.317	142.982	0.518
828.000	490.930	79.989	19.997	103.550	18.322	142.626	0.502
830.000	491.970	79.990	19.998	103.554	18.338	141.384	0.519
832.000	493.025	79.990	19.997	103.538	18.347	140.721	0.523
834.000	494.027	79.992	19.998	103.523	18.355	140.157	0.502
836.000	495.062	79.992	19.996	103.522	18.346	140.829	0.497
838.000	496.096	79.992	19.996	103.537	18.356	140.057	0.529
840.000	497.152	79.992	19.995	103.528	18.362	139.579	0.543
842.000	498.197	79.991	19.996	103.502	18.358	139.913	0.529
844.000	499.154	79.993	19.995	103.525	18.348	140.654	0.522
846.000	500.197	79.991	19.995	103.539	18.337	141.515	0.509
848.000	501.260	79.990	19.996	103.539	18.327	142.253	0.524
850.000	502.273	79.989	19.995	103.539	18.317	142.994	0.528
852.000	503.277	79.989	19.997	103.529	18.311	143.418	0.523
854.000	504.304	79.989	19.996	103.535	18.298	144.395	0.502
856.000	505.330	79.990	19.997	103.541	18.284	145.528	0.528
858.000	506.346	79.990	19.996	103.540	18.272	146.363	0.509
860.000	507.363	79.988	19.996	103.535	18.265	146.846	0.508
862.000	508.343	79.990	19.996	103.524	18.268	146.688	0.523
864.000	509.339	79.989	19.997	103.527	18.266	146.776	0.527
866.000	510.379	79.989	19.996	103.533	18.268	146.627	0.506
868.000	511.358	79.991	19.995	103.542	18.277	145.998	0.488
870.000	512.350	79.990	19.995	103.523	18.294	144.709	0.490
872.000	513.348	79.989	19.996	103.507	18.313	143.251	0.500
874.000	514.382	79.990	19.995	103.506	18.340	141.156	0.503
876.000	515.444	79.991	19.995	103.504	18.371	138.816	0.519
878.000	516.433	79.989	19.996	103.505	18.406	136.189	0.507
880.000	517.529	79.988	19.996	103.503	18.445	133.237	0.536
882.000	518.501	79.990	19.996	103.502	18.493	129.633	0.512
884.000	519.552	79.987	19.996	103.484	18.540	126.071	0.529
886.000	520.534	79.988	19.996	103.471	18.596	121.852	0.488
888.000	521.594	79.990	19.995	103.470	18.651	117.666	0.503
890.000	522.585	79.989	19.997	103.465	18.717	112.693	0.514
892.000	523.611	79.991	19.996	103.456	18.785	107.645	0.493
894.000	524.635	79.992	19.996	103.427	18.853	102.465	0.505
896.000	525.662	79.990	19.996	103.423	18.923	97.225	0.510
898.000	526.653	79.991	19.996	103.411	18.991	92.096	0.490
900.000	527.712	79.991	19.996	103.389	19.063	86.655	0.539
902.000	528.745	79.990	19.996	103.387	19.136	81.143	0.513
904.000	529.820	79.990	19.995	103.384	19.210	75.605	0.560
906.000	530.792	79.990	19.997	103.372	19.279	70.440	0.505
908.000	531.807	79.992	19.997	103.351	19.350	65.074	0.495
910.000	532.827	79.989	19.996	103.344	19.412	60.405	0.471
912.000	533.832	79.990	19.997	103.337	19.475	55.646	0.507
914.000	534.869	79.992	19.996	103.329	19.534	51.239	0.522
916.000	535.866	79.991	19.997	103.313	19.587	47.220	0.489
918.000	536.897	79.993	19.997	103.305	19.641	43.202	0.494
920.000	537.918	79.991	19.997	103.296	19.687	39.757	0.527
922.000	538.960	79.993	19.996	103.284	19.724	36.974	0.520
924.000	539.938	79.991	19.997	103.268	19.761	34.156	0.471
926.000	540.954	79.991	19.996	103.266	19.797	31.467	0.470
928.000	541.981	79.991	19.995	103.266	19.830	29.012	0.513
930.000	543.001	79.989	19.995	103.266	19.857	26.968	0.534
932.000	544.019	79.989	19.996	103.268	19.881	25.181	0.499
934.000	545.031	79.990	19.994	103.264	19.904	23.429	0.507
936.000	546.007	79.989	19.994	103.260	19.927	21.677	0.483
938.000	547.018	79.989	19.995	103.259	19.946	20.254	0.517
940.000	548.067	79.988	19.996	103.245	19.960	19.224	0.517
942.000	549.034	79.990	19.995	103.240	19.977	17.927	0.506
944.000	550.049	79.988	19.996	103.232	19.993	16.740	0.496
946.000	551.089	79.989	19.996	103.232	20.002	16.043	0.519
948.000	552.043	79.991	19.996	103.232	20.013	15.288	0.478
950.000	553.062	79.990	19.995	103.236	20.025	14.382	0.504
952.000	554.086	79.990	19.996	103.234	20.036	13.489	0.508
954.000	555.110	79.991	19.996	103.232	20.042	13.077	0.493
956.000	556.137	79.989	19.996	103.230	20.046	12.786	0.537
958.000	557.137	79.991	19.997	103.230	20.057	11.948	0.490
960.000	558.156	79.989	19.996	103.228	20.065	11.360	0.515
962.000	559.180	79.989	19.996	103.227	20.070	10.977	0.539
964.000	560.159	79.991	19.995	103.234	20.073	10.735	0.501
966.000	561.206	79.990	19.996	103.231	20.082	10.102	0.518
968.000	562.220	79.989	19.996	103.228	20.088	9.601	0.519
970.000	563.198	79.990	19.996	103.228	20.092	9.293	0.493
972.000	564.233	79.990	19.996	103.232	20.092	9.359	0.494
974.000	565.224	79.990	19.995	103.235	20.096	9.043	0.485
976.000	566.305	79.992	19.995	103.227	20.102	8.590	0.516
978.000	567.303	79.990	19.996	103.234	20.105	8.365	0.512
980.000	568.357	79.991	19.996	103.228	20.108	8.099	0.519
982.000	569.418	79.991	19.996	103.226	20.110	7.946	0.495
984.000	570.442	79.989	19.997	103.225	20.113	7.746	0.502
986.000	571.415	79.989	19.997	103.227	20.113	7.732	0.489
988.000	572.448	79.990	19.996	103.228	20.116	7.530	0.514
990.000	573.541	79.991	19.996	103.230	20.118	7.340	0.509
992.000	574.619	79.990	19.996	103.229	20.115	7.568	0.547
994.000	575.655	79.991	19.996	103.230	20.119	7.321	0.511
996.000	576.724	79.991	19.996	103.229	20.122	7.061	0.525
998.000	577.725	79.990	19.995	103.229	20.119	7.321	0.527
1000.000	578.759	79.992	19.996	103.233	20.121	7.127	0.528
1002.000	579.751	79.992	19.995	103.230	20.122	7.034	0.518
1004.000	580.795	79.992	19.998	103.224	20.125	6.822	0.552
1006.000	581.765	79.990	19.996	103.227	20.128	6.634	0.499
1008.000	582.792	79.989	19.997	103.224	20.129	6.570	0.529
1010.000	583.812	79.989	19.997	103.228	20.131	6.409	0.517
1012.000	584.823	79.989	19.997	103.227	20.135	6.091	0.491
1014.000	585.838	79.989	19.997	103.226	20.132	6.316	0.518
1016.000	586.872	79.989	19.995	103.230	20.133	6.213	0.539
1018.000	587.885	79.991	19.996	103.227	20.137	5.974	0.514
1020.000	588.891	79.990	19.997	103.228	20.139	5.827	0.489
1022.000	589.933	79.990	19.996	103.221	20.139	5.794	0.518
1024.000	590.925	79.990	19.996	103.226	20.138	5.897	0.510
1025.999	591.966	79.989	19.995	103.223	20.143	5.456	0.520
1027.999	592.952	79.989	19.996	103.222	20.141	5.675	0.482
1029.999	593.967	79.990	19.996	103.228	20.147	5.165	0.508
1031.999	595.028	79.990	19.996	103.223	20.142	5.549	0.480
1033.999	596.075	79.991	19.995	103.220	20.143	5.464	0.497
1035.999	597.101	79.990	19.996	103.220	20.146	5.240	0.501
1037.999	598.100	79.989	19.996	103.225	20.144	5.448	0.507
1039.999	599.156	79.991	19.996	103.225	20.148	5.150	0.499
1041.999	600.192	79.990	19.996	103.227	20.147	5.209	0.516
1043.999	601.200	79.989	19.997	103.224	20.150	4.984	0.524
1045.999	602.232	79.990	19.996	103.223	20.152	4.808	0.521
1048.000	603.238	79.991	19.996	103.227	20.150	4.943	0.518
1049.999	604.256	79.991	19.996	103.218	20.151	4.874	0.500
1051.999	605.262	79.992	19.995	103.225	20.151	4.899	0.518
1054.000	606.262	79.992	19.996	103.230	20.154	4.650	0.491
1055.999	607.318	79.992	19.996	103.226	20.153	4.761	0.531
1058.000	608.305	79.992	19.995	103.230	20.154	4.650	0.504
1059.999	609.377	79.992	19.995	103.217	20.157	4.441	0.526
1061.999	610.408	79.991	19.995	103.209	20.158	4.394	0.548
1064.000	611.388	79.990	19.996	103.228	20.156	4.529	0.503
1065.999	612.399	79.990	19.996	103.230	20.160	4.243	0.537
1068.000	613.440	79.990	19.996	103.225	20.155	4.571	0.532
1069.999	614.467	79.990	19.996	103.227	20.159	4.284	0.501
1072.000	615.497	79.991	19.995	103.228	20.161	4.115	0.504
1073.999	616.540	79.993	19.996	103.221	20.162	4.046	0.491
1075.999	617.600	79.993	19.995	103.215	20.159	4.321	0.542
1078.000	618.609	79.993	19.996	103.229	20.161	4.175	0.535
1080.000	619.597	79.994	19.995	103.221	20.165	3.845	0.508
1082.001	620.641	79.993	19.996	103.227	20.160	4.183	0.499
1083.999	621.664	79.993	19.996	103.220	20.159	4.288	0.507
1085.999	622.652	79.992	19.997	103.205	20.160	4.198	0.524
1088.000	623.666	79.990	19.997	103.220	20.164	3.919	0.514
1089.999	624.669	79.990	19.996	103.218	20.167	3.723	0.483
1091.999	625.692	79.990	19.997	103.207	20.170	3.463	0.508
1093.999	626.675	79.990	19.996	103.216	20.167	3.692	0.515
1095.999	627.651	79.989	19.998	103.216	20.166	3.739	0.510
1097.999	628.656	79.990	19.998	103.221	20.166	3.756	0.485
1099.999	629.718	79.988	19.997	103.215	20.167	3.702	0.513
1101.999	630.715	79.989	19.997	103.213	20.168	3.652	0.526
1104.001	631.739	79.991	19.997	103.207	20.167	3.698	0.495
1105.999	632.724	79.990	19.997	103.208	20.170	3.432	0.486
1107.999	633.751	79.990	19.997	103.202	20.169	3.506	0.513
1109.999	634.768	79.991	19.996	103.220	20.171	3.376	0.513
1111.999	635.827	79.989	19.996	103.202	20.170	3.488	0.542
1113.999	636.846	79.989	19.996	103.212	20.170	3.490	0.486
1115.999	637.840	79.989	19.996	103.202	20.170	3.449	0.510
1117.999	638.894	79.990	19.996	103.201	20.170	3.453	0.525
1119.999	639.901	79.991	19.997	103.210	20.171	3.385	0.498
1121.999	640.971	79.990	19.996	103.203	20.173	3.228	0.531
1123.999	641.992	79.989	19.996	103.213	20.174	3.133	0.526
1125.999	642.996	79.990	19.996	103.209	20.171	3.372	0.495
1127.999	644.021	79.991	19.996	103.229	20.174	3.170	0.500
1129.999	644.991	79.991	19.995	103.216	20.174	3.199	0.478
1131.999	646.011	79.992	19.996	103.218	20.175	3.085	0.529
1134.000	647.044	79.991	19.997	103.212	20.173	3.205	0.531
1135.999	648.053	79.992	19.996	103.209	20.177	2.976	0.517
1137.999	649.043	79.991	19.995	103.195	20.174	3.167	0.469
1140.001	650.084	79.991	19.995	103.200	20.175	3.058	0.490
1141.999	651.064	79.990	19.995	103.215	20.175	3.056	0.487
1143.999	652.117	79.991	19.996	103.207	20.172	3.320	0.490
1145.999	653.122	79.992	19.995	103.209	20.175	3.104	0.496
1147.999	654.139	79.991	19.995	103.192	20.174	3.141	0.528
1150.000	655.119	79.993	19.997	103.199	20.176	3.027	0.494
1151.999	656.109	79.991	19.996	103.191	20.173	3.271	0.503
1153.999	657.086	79.991	19.996	103.191	20.175	3.102	0.528
1155.999	658.032	79.993	19.997	103.198	20.176	2.984	0.501
1157.999	659.042	79.993	19.996	103.213	20.180	2.693	0.511
1160.000	659.998	79.992	19.997	103.193	20.178	2.848	0.473
1161.999	661.014	79.993	19.997	103.202	20.175	3.106	0.512
1163.999	661.977	79.992	19.997	103.206	20.177	2.920	0.481
1166.000	662.917	79.990	19.997	103.189	20.178	2.854	0.478
1167.999	663.936	79.991	19.996	103.191	20.178	2.852	0.497
1169.999	664.940	79.990	19.996	103.204	20.173	3.225	0.487
1171.999	665.900	79.990	19.997	103.200	20.178	2.867	0.458
1174.000	666.922	79.991	19.996	103.211	20.175	3.098	0.462
1175.999	667.832	79.990	19.995	103.203	20.173	3.225	0.468
1178.000	668.782	79.990	19.997	103.198	20.178	2.865	0.463
1179.999	669.802	79.990	19.996	103.193	20.181	2.611	0.464
1182.000	670.755	79.989	19.997	103.196	20.180	2.690	0.491
1183.999	671.720	79.990	19.998	103.209	20.181	2.669	0.469
1185.999	672.672	79.990	19.997	103.196	20.182	2.568	0.456
1187.999	673.645	79.989	19.997	103.198	20.183	2.479	0.469
1189.999	674.675	79.992	19.997	103.220	20.182	2.590	0.483
1192.000	675.718	79.991	19.997	103.206	20.181	2.607	0.526
1193.999	676.719	79.990	19.998	103.220	20.182	2.533	0.469
1195.999	677.759	79.989	19.997	103.201	20.181	2.628	0.521
1198.000	678.790	79.990	19.996	103.212	20.178	2.879	0.525
1200.000	679.820	79.989	19.996	103.199	20.181	2.650	0.508
1201.999	680.860	79.989	19.996	103.207	20.181	2.660	0.507
1203.999	681.925	79.989	19.996	103.199	20.182	2.555	0.541
1205.999	682.974	79.990	19.996	103.211	20.182	2.566	0.527
1207.999	684.016	79.990	19.995	103.207	20.182	2.561	0.530
1209.999	685.092	79.990	19.996	103.210	20.178	2.864	0.546
1211.999	686.141	79.990	19.997	103.203	20.183	2.520	0.533
1213.999	687.173	79.992	19.996	103.191	20.179	2.811	0.542
1215.999	688.225	79.992	19.996	103.197	20.182	2.564	0.507
1217.999	689.279	79.992	19.997	103.206	20.182	2.533	0.502
1220.000	690.334	79.991	19.996	103.193	20.179	2.786	0.546
1221.999	691.395	79.990	19.996	103.206	20.180	2.687	0.544
1223.999	692.408	79.990	19.997	103.207	20.182	2.584	0.540
1225.999	693.484	79.994	19.996	103.213	20.184	2.442	0.519
1227.999	694.499	79.991	19.996	103.205	20.180	2.714	0.519
1230.000	695.599	79.992	19.995	103.200	20.183	2.516	0.545
1231.999	696.614	79.990	19.996	103.194	20.183	2.454	0.515
1234.000	697.684	79.991	19.996	103.195	20.181	2.609	0.539
1235.999	698.700	79.995	19.995	103.201	20.184	2.446	0.526
1237.999	699.719	79.994	19.995	103.198	20.179	2.757	0.519
1240.000	700.762	79.993	19.996	103.196	20.182	2.547	0.524
1241.999	701.783	79.993	19.996	103.200	20.180	2.722	0.485
1244.000	702.809	79.991	19.996	103.200	20.182	2.584	0.500
1245.999	703.830	79.990	19.996	103.199	20.181	2.638	0.483
1248.000	704.852	79.991	19.996	103.196	20.181	2.609	0.467
1249.999	705.888	79.989	19.996	103.208	20.183	2.518	0.511
1251.999	706.907	79.990	19.996	103.207	20.181	2.662	0.516
1253.999	707.914	79.988	19.996	103.205	20.183	2.477	0.513
1256.000	708.866	79.992	19.996	103.208	20.180	2.691	0.476
1258.000	709.949	79.990	19.996	103.194	20.178	2.881	0.537
1259.999	710.919	79.989	19.996	103.195	20.179	2.817	0.508
1261.999	711.897	79.989	19.996	103.198	20.176	2.990	0.479
1263.999	712.898	79.987	19.996	103.197	20.178	2.840	0.470
1265.999	713.943	79.990	19.996	103.194	20.180	2.741	0.512
1268.000	714.957	79.990	19.997	103.205	20.183	2.476	0.507
1269.999	715.970	79.989	19.996	103.207	20.179	2.799	0.535
1271.999	716.919	79.989	19.996	103.193	20.176	3.020	0.486
1273.999	717.880	79.988	19.996	103.193	20.178	2.890	0.501
1276.001	718.872	79.986	19.997	103.192	20.178	2.850	0.475
1278.000	719.775	79.987	19.997	103.194	20.177	2.914	0.500
1279.999	720.806	79.988	19.996	103.145	20.179	2.761	0.475
1281.999	721.738	79.988	19.996	103.176	20.177	2.923	0.503
1283.999	722.695	79.987	19.997	103.242	20.176	3.013	0.491
1286.000	723.615	79.989	19.997	103.200	20.180	2.718	0.490
1288.000	724.587	79.987	19.997	103.190	20.181	2.623	0.483
1289.999	725.526	79.992	19.996	103.192	20.177	2.908	0.507
1291.999	726.405	79.993	19.996	103.204	20.180	2.743	0.455
1293.999	727.372	79.992	19.996	103.210	20.178	2.864	0.474
1295.999	728.338	79.992	19.995	103.212	20.180	2.683	0.499
1297.999	729.206	79.990	19.995	103.192	20.179	2.790	0.459
1300.000	730.185	79.996	19.995	103.194	20.184	2.450	0.477
1301.999	731.146	79.991	19.996	103.199	20.177	2.962	0.454
1304.000	732.087	79.990	19.996	103.194	20.180	2.708	0.478
1306.000	733.030	79.992	19.995	103.197	20.185	2.374	0.474
1307.999	734.015	79.991	19.996	103.207	20.176	3.029	0.474
1309.999	735.004	79.991	19.995	103.196	20.183	2.471	0.433
1311.999	735.883	79.990	19.996	103.208	20.180	2.708	0.409
1313.999	736.835	79.991	19.997	103.215	20.181	2.633	0.498
1315.999	737.847	79.992	19.995	103.196	20.181	2.611	0.497
1317.999	738.841	79.992	19.996	103.195	20.181	2.617	0.489
1320.000	739.860	79.992	19.995	103.201	20.178	2.854	0.476
1321.999	740.827	79.991	19.994	103.213	20.181	2.617	0.538
1323.999	741.836	79.994	19.995	103.194	20.174	3.170	0.538
1325.999	742.834	79.990	19.996	103.196	20.173	3.209	0.459
1326.999	743.369	79.991	19.994	103.198	20.174	3.134	0.504