File: 01_Data/Polyester_Batting/Cone/Polyester_Batting_Cone_HF25Scan_210324_R1.csv
Names,Time,Stack TC,Smoke TC,Exh Press,Smoke Comp,Smoke Meas,CO Meter,CO2 Meter,O2 Meter,Sample Mass,Ext Coeff,Start Test,Flame Verif
Chan Gain,,500,500,1,1,1,1,1,1,1,1,1.0,1.0
Offset,,0,0,0.194005,0,0,0,0,0,0,0,0.0,0.0
Gain,,1,1,25.011,13.5067,16.616,1,1,1,1.00091,1.04608,1.0,1.0
Units,sec,C,C,Pa,%,%,%,%,%,g,/m,,
Baseline,,19.0703,20.3065,168.456,100.997,100.271,0.000346696,0.0624977,20.9179,-1.20551,0.0661557,,
7,1.5,17.4004,17.9087,169.092,100.698,100.106,0.00060034,0.0697442,20.9096,474.072,0.0541336,0.0,0.0
14,3.25,16.9195,18.5083,171.162,100.645,99.8956,0.000525375,0.0698669,20.9077,474.072,0.0685581,0.0,0.0
21,5,16.87,17.8244,168.402,100.581,99.9042,0.000533234,0.0707005,20.9042,474.072,0.0619772,0.0,0.0
28,6.75,17.0592,18.2615,165.959,100.51,99.8347,0.000551496,0.0719646,20.9024,474.062,0.0618534,0.0,0.0
35,8.5,17.0621,18.4469,172.915,100.439,99.6441,0.000571286,0.0729667,20.9005,474.042,0.0729564,0.0,0.0
42,10.25,17.6354,18.9359,167.816,100.382,99.7627,0.00057979,0.073708,20.8998,474.052,0.0567626,0.0,0.0
49,12,17.0868,18.6175,170.213,100.32,99.5589,0.000593497,0.074076,20.9006,474.032,0.0698391,0.0,0.0
56,13.75,17.4194,18.5134,166.369,100.261,99.5427,0.000634331,0.0742394,20.901,474.001,0.0660182,0.0,0.0
63,15.5,17.4679,19.1031,167.972,100.219,99.6471,0.000680914,0.0742594,20.9023,474.032,0.0525458,0.0,0.0
70,17.25,17.7401,18.9692,164.545,100.174,99.4113,0.000671813,0.0739865,20.9039,474.021,0.0700942,0.0,0.0
77,19,17.8686,19.2237,163.901,100.138,99.4453,0.000622827,0.0735467,20.9063,474.001,0.0636731,0.0,0.0
84,20.75,17.7298,19.2401,170.249,100.095,99.2988,0.000590087,0.072439,20.9081,474.011,0.0733134,0.0,0.0
91,22.5,17.8024,19.565,166.669,100.073,99.3109,0.000612799,0.0712376,20.9095,474.052,0.0701865,0.0,0.0
98,24.25,18.0093,19.5299,164.039,100.045,99.3023,0.000642236,0.0700705,20.9111,474.011,0.0683746,0.0,0.0
105,26,17.8525,19.2243,163.213,100.035,99.3637,0.00057073,0.0687981,20.9121,474.021,0.0617621,0.0,0.0
112,27.75,17.8236,19.4037,164.256,100.029,99.2475,0.000447336,0.0680226,20.9117,474.032,0.0719243,0.0,0.0
119,29.5,17.7298,19.0729,166.189,100.028,99.386,0.000331852,0.0680464,20.9083,474.011,0.0590953,0.0,0.0
126,31.25,17.9025,19.3655,161.558,100.038,99.3261,0.000303306,0.0687721,20.906,474.001,0.0654925,0.0,0.0
133,33,17.9121,19.2474,163.627,100.048,99.3814,0.000327555,0.0695011,20.9059,474.001,0.0613709,0.0,0.0
140,34.75,17.7711,19.8041,164.068,100.105,99.3099,0.000313137,0.0699035,20.907,474.021,0.0731517,0.0,0.0
147,36.5,17.7615,20.027,167.021,100.133,99.3642,0.000312812,0.0698243,20.9085,474.011,0.0707086,0.0,0.0
154,38.25,17.7176,19.8889,167.799,100.164,99.4605,0.000372756,0.0696117,20.9095,474.021,0.0646866,0.0,0.0
161,40,17.9903,19.5215,166.998,100.195,99.5345,0.000395974,0.0696578,20.9074,473.991,0.0606907,0.0,0.0
168,41.75,17.5822,19.6656,168.421,100.279,99.6258,0.000365178,0.0700782,20.9053,474.011,0.0599398,0.0,0.0
175,43.5,17.6404,19.593,167.938,100.348,99.5163,0.000351152,0.0706939,20.904,474.001,0.0763297,0.0,0.0
182,45.25,17.817,19.8514,168.781,100.414,99.6436,0.000354896,0.0713222,20.9023,474.011,0.0707054,0.0,0.0
189,47,18.2456,19.6641,172.553,100.479,99.8363,0.000351163,0.072328,20.9005,473.991,0.058891,0.0,0.0
196,48.75,17.9623,19.2898,168.128,100.574,99.6669,0.000369123,0.0734389,20.8996,474.011,0.0831236,0.0,0.0
203,50.5,17.8359,19.8779,168.137,100.647,99.8571,0.000365962,0.0746987,20.8992,474.021,0.0723248,0.0,0.0
210,52.25,17.9696,19.747,165.971,100.732,100.058,0.000365135,0.0756349,20.899,474.011,0.0616295,0.0,0.0
217,54,18.007,19.9865,173.567,100.821,100.008,0.000393733,0.0760573,20.8989,473.981,0.0742944,0.0,0.0
224,55.75,18.041,19.4855,166.141,100.897,100.127,0.000408005,0.0761622,20.8991,473.991,0.0703515,0.0,0.0
231,57.5,18.0732,19.8809,169.759,101.01,100.248,0.000394123,0.0761784,20.9004,473.991,0.0694798,0.0,0.0
238,59.25,18.4447,19.86,169.235,101.078,100.278,0.000383673,0.0762586,20.9011,473.991,0.0728718,0.0,0.0
245,61,17.7097,19.7717,169.887,101.155,100.308,0.000413838,0.0762354,20.9025,474.011,0.0771379,0.0,0.0
252,62.75,18.4294,19.8523,169.627,101.227,100.456,0.000468499,0.0758675,20.9034,474.011,0.0701355,0.0,0.0
259,64.5,17.8691,19.7105,172.46,101.32,100.584,0.000556345,0.0755144,20.9048,473.991,0.0668728,0.0,0.0
266,66.25,17.6211,19.8868,166.523,101.399,100.666,0.00062932,0.075211,20.9057,473.991,0.066509,0.0,0.0
273,68,18.0094,20.2167,168.172,101.479,100.757,0.000657995,0.0744112,20.9079,473.991,0.065511,0.0,0.0
280,69.75,17.9783,20.1127,166.138,101.53,100.746,0.000619648,0.0734203,20.9095,473.991,0.0711103,0.0,0.0
287,71.5,18.2299,20.01,171.472,101.597,100.804,0.00050441,0.0722478,20.9114,473.981,0.0719167,0.0,0.0
294,73.25,17.7112,20.3201,166.873,101.655,100.867,0.000351704,0.071031,20.9124,473.981,0.0713957,0.0,0.0
301,75,18.3073,20.429,165.451,101.716,100.925,0.000280153,0.069937,20.9129,473.971,0.0715607,0.0,0.0
308,76.75,18.1669,20.3831,170.496,101.764,100.947,0.000298812,0.0693064,20.9131,473.971,0.0740112,0.0,0.0
315,78.5,18.3099,19.6098,169.158,101.799,100.91,0.000338529,0.0688356,20.9132,473.981,0.0804522,0.0,0.0
322,80.25,17.9777,19.9511,166.083,101.855,101.087,0.000408917,0.0683812,20.9142,474.001,0.0694722,0.0,0.0
329,82,18.3917,19.7919,170.856,101.878,100.931,0.000490215,0.068138,20.9146,473.991,0.0857303,0.0,0.0
336,83.75,17.7217,20.0571,167.808,101.907,101.071,0.000521834,0.0678943,20.9148,473.981,0.0755757,0.0,0.0
343,85.5,18.2738,20.1026,166.411,101.926,100.933,0.000437195,0.0677138,20.9149,473.991,0.0898138,0.0,0.0
350,87.25,18.4311,19.3829,161.723,101.934,101.039,0.000340626,0.0673846,20.9158,473.961,0.0809726,0.0,0.0
357,89,18.3203,20.0502,170.914,101.944,100.997,0.000373898,0.0669122,20.9172,473.961,0.0856403,0.0,0.0
364,90.75,18.8464,20.5072,169.294,101.941,101.063,0.000478379,0.0664207,20.9185,473.981,0.0793559,0.0,0.0
371,92.5,18.4855,19.8734,165.17,101.94,100.98,0.000548739,0.0658914,20.9191,473.941,0.0868258,0.0,0.0
378,94.25,18.3067,19.7555,169.544,101.93,101.073,0.00054551,0.0655204,20.9184,473.971,0.0774709,0.0,0.0
385,96,18.238,19.9178,169.157,101.921,100.964,0.000523835,0.0650367,20.9178,473.941,0.0865571,0.0,0.0
392,97.75,18.304,19.9154,163.242,101.902,101.026,0.00052945,0.0646975,20.9176,473.951,0.0792658,0.0,0.0
399,99.5,18.4982,20.1822,167.179,101.885,101.036,0.000560666,0.0646821,20.917,473.941,0.0767951,0.0,0.0
406,101.25,18.1359,19.7278,162.606,101.851,100.921,0.000599805,0.0650577,20.916,473.921,0.0841187,0.0,0.0
413,103,18.5014,20.2173,168.796,101.836,100.923,0.00059582,0.0661641,20.9125,473.961,0.0825967,0.0,0.0
420,104.75,18.6813,20.394,167.289,101.796,100.895,0.000543136,0.0675618,20.9087,473.961,0.0816123,0.0,0.0
427,106.5,18.3929,19.9875,168.585,101.759,100.754,0.000417915,0.0691421,20.9068,473.951,0.0911071,0.0,0.0
434,108.25,18.3316,20.0174,165.72,101.716,100.813,0.000332707,0.0701648,20.9059,473.951,0.0818303,0.0,0.0
441,110,18.8099,20.0105,173.172,101.671,100.743,0.000331262,0.0705091,20.9067,473.971,0.0841566,0.0,0.0
448,111.75,18.0485,20.4805,167.385,101.639,100.803,0.000391552,0.0707042,20.9071,473.961,0.0757971,0.0,0.0
455,113.5,18.836,20.3496,168.684,101.588,100.666,0.000434655,0.070813,20.9068,473.941,0.0836623,0.0,0.0
462,115.25,18.8612,20.1165,168.337,101.546,100.649,0.000393312,0.0708933,20.9067,473.961,0.0814714,0.0,0.0
469,117,18.3337,19.9011,168.164,101.482,100.575,0.000280648,0.0707708,20.9066,473.951,0.0824114,0.0,0.0
476,118.75,18.4797,19.9724,165.167,101.44,100.349,0.000167362,0.0706873,20.9066,473.961,0.0991735,0.0,0.0
483,120.5,18.7783,19.8757,164.457,101.4,100.565,0.000137703,0.0705597,20.9066,473.941,0.0758708,0.0,0.0
490,122.25,18.0325,20.012,164.449,101.348,100.202,0.000181015,0.0703872,20.9066,473.951,0.104274,0.0,0.0
497,124,18.8443,19.7989,166.668,101.304,100.255,0.000293958,0.070419,20.9066,473.931,0.0955261,0.0,0.0
504,125.75,19.0527,20.083,168.886,101.262,100.184,0.000434245,0.0704946,20.907,473.971,0.0981801,0.0,0.0
511,127.5,18.8692,20.0167,167.486,101.231,100.36,0.000508099,0.0707246,20.9075,473.941,0.0792756,0.0,0.0
518,129.25,18.4829,20.3235,168.081,101.189,100.192,0.000467237,0.0707791,20.9084,473.941,0.0909078,0.0,0.0
525,131,18.0794,19.7062,164.876,101.167,99.963,0.000346861,0.0706983,20.9095,473.981,0.109821,0.0,0.0
532,132.75,18.4944,19.6681,168.978,101.136,100.009,0.000202563,0.0703044,20.9102,473.901,0.102855,0.0,0.0
539,134.5,18.8866,19.8366,165.368,101.175,100.177,0.000128446,0.0698527,20.9108,473.941,0.0909923,0.0,0.0
546,136.25,18.2958,19.8996,164.033,101.251,100.198,0.000156572,0.0695908,20.911,473.931,0.0959926,0.0,0.0
553,138,18.2473,19.8755,168.426,101.334,100.323,0.000258061,0.0698703,20.9087,473.941,0.0920439,0.0,0.0
560,139.75,18.8267,20.1702,168.028,101.391,100.304,0.000364023,0.0710711,20.9045,473.921,0.0989095,0.0,0.0
567,141.5,18.4444,20.3199,170.106,101.456,100.434,0.00043193,0.0729107,20.9008,473.911,0.0929709,0.0,0.0
574,143.25,18.4453,20.6823,165.843,101.516,100.276,0.000443689,0.074616,20.899,473.921,0.112712,0.0,0.0
581,145,18.9299,20.3766,167.072,101.561,100.384,0.000383346,0.0757228,20.8998,473.961,0.107014,0.0,0.0
588,146.75,18.6684,20.3721,168.829,101.605,100.348,0.00029222,0.0760346,20.9009,473.931,0.114206,0.0,0.0
595,148.5,18.3077,20.4128,170.927,101.633,100.37,0.000281776,0.0761058,20.9015,473.921,0.114706,0.0,0.0
602,150.25,18.3416,19.994,166.983,101.655,100.545,0.000312552,0.0761982,20.901,473.931,0.100819,0.0,0.0
609,152,19.2783,20.2265,164.457,101.681,100.143,0.000283211,0.0761849,20.9009,473.911,0.139861,0.0,0.0
616,153.75,18.6884,20.8475,167.536,101.683,100.536,0.000175472,0.0759507,20.9024,473.911,0.104146,0.0,0.0
623,155.5,18.2845,20.3137,168.891,101.674,100.412,0.000117385,0.0753354,20.9034,473.911,0.114543,0.0,0.0
630,157.25,18.8776,19.9567,161.53,101.667,100.327,0.000139583,0.0745973,20.9038,473.901,0.121736,0.0,0.0
637,159,18.722,20.2706,163.023,101.645,100.39,0.000235284,0.0738347,20.904,473.901,0.113968,0.0,0.0
644,160.75,18.7508,20.5408,166.608,101.623,100.195,0.00034153,0.0732106,20.9042,473.911,0.129821,0.0,0.0
651,162.5,18.8145,20.4905,169.387,101.568,100.352,0.000355559,0.0727133,20.9042,473.901,0.110531,0.0,0.0
658,164.25,18.8179,20.216,164.517,101.529,100.092,0.000326488,0.072451,20.9042,473.881,0.130847,0.0,0.0
665,166,19.0415,20.3726,168.174,101.479,99.994,0.000327244,0.072393,20.903,473.871,0.135278,0.0,0.0
672,167.75,18.8616,20.4966,170.516,101.4,100.099,0.000371766,0.0726058,20.9025,473.891,0.118481,0.0,0.0
679,169.5,18.9267,19.8949,167.228,101.333,100.064,0.000448093,0.0730363,20.9022,473.881,0.115653,0.0,0.0
686,171.25,19.1519,20.5815,169.606,101.231,100.103,0.000530836,0.0732601,20.9021,473.881,0.10285,0.0,0.0
693,173,19.2538,20.5619,163.23,101.148,99.8596,0.000546551,0.0729852,20.9032,473.881,0.117675,0.0,0.0
700,174.75,18.5375,20.2853,166.669,101.046,99.7049,0.000515244,0.0725049,20.906,473.871,0.122582,0.0,0.0
707,176.5,18.829,20.2119,167.163,100.944,99.2891,0.000468849,0.0716663,20.9086,473.881,0.15168,0.0,0.0
714,178.25,18.7501,20.1483,168.979,100.814,99.6628,0.000462002,0.0708671,20.91,473.861,0.105358,0.0,0.0
721,180,18.8833,20.5381,169.681,100.719,99.1573,0.000443889,0.069974,20.9106,473.881,0.143429,0.0,0.0
728,181.75,19.0201,20.6352,169.078,100.738,99.6395,0.000372904,0.0692426,20.911,473.841,0.100638,0.0,0.0
735,183.5,18.7134,20.1922,169.405,100.758,99.1705,0.000338177,0.0685946,20.9123,473.851,0.145701,0.0,0.0
742,185.25,18.9442,20.3892,166.499,100.777,99.313,0.000375858,0.0681162,20.9117,473.841,0.134327,0.0,0.0
749,187,18.986,20.8213,166.137,100.803,99.2866,0.000396137,0.0677876,20.9111,473.841,0.139054,0.0,0.0
756,188.75,18.7073,20.3349,165.95,100.838,99.1892,0.000364216,0.0678962,20.9098,473.861,0.15132,0.0,0.0
763,190.5,18.6165,20.1547,165.599,100.879,99.3662,0.000314363,0.0682172,20.9084,473.851,0.138676,0.0,0.0
770,192.25,18.8392,20.2799,169.244,100.903,99.3926,0.000297659,0.0688962,20.9061,473.831,0.138377,0.0,0.0
777,194,18.7322,20.4433,168.637,100.928,99.4808,0.000322124,0.0698569,20.9047,473.851,0.132559,0.0,0.0
784,195.75,19.1078,20.5132,164.797,100.982,99.3581,0.000375678,0.0705519,20.9041,473.851,0.148755,0.0,0.0
791,197.5,18.7788,20.9256,162.634,101.036,99.4803,0.000416097,0.0709038,20.9037,473.841,0.142419,0.0,0.0
798,199.25,18.727,20.3698,163.736,101.064,99.7779,0.000499427,0.0709961,20.9036,473.821,0.117549,0.0,0.0
805,201,19.0002,20.4543,166.686,101.104,99.528,0.000627912,0.0710783,20.9035,473.841,0.14416,0.0,0.0
812,202.75,18.5644,20.622,171.621,101.142,99.6674,0.000685226,0.0713997,20.9035,473.841,0.134755,0.0,0.0
819,204.5,18.5114,19.919,170.759,101.198,99.7232,0.000631473,0.071721,20.9035,473.821,0.134704,0.0,0.0
826,206.25,18.6859,20.192,165.836,101.221,99.5361,0.000549775,0.0719267,20.9027,473.821,0.154068,0.0,0.0
833,208,18.5705,20.3259,167.104,101.251,99.6121,0.000482373,0.0722311,20.9031,473.801,0.149712,0.0,0.0
840,209.75,19.0236,20.1679,164.402,101.268,99.8185,0.000478406,0.0723144,20.9044,473.811,0.132252,0.0,0.0
847,211.5,19.1154,20.2323,167.982,101.296,99.5969,0.000482823,0.0720885,20.9051,473.791,0.155221,0.0,0.0
854,213.25,18.9873,20.5326,170.364,101.317,99.8626,0.000521331,0.0715561,20.9065,473.791,0.132714,0.0,0.0
861,215,18.4229,20.3411,168.146,101.326,99.3784,0.000574145,0.0710953,20.9073,473.811,0.178105,0.0,0.0
868,216.75,18.6685,20.3509,166.771,101.331,99.6938,0.000622005,0.0704736,20.9077,473.791,0.149439,0.0,0.0
875,218.5,18.9845,20.7241,166.819,101.338,99.8297,0.000660142,0.0699758,20.9083,473.801,0.137648,0.0,0.0
882,220.25,18.651,20.6843,164.88,101.349,99.6263,0.000684061,0.0696497,20.9097,473.831,0.157328,0.0,0.0
889,222,18.8948,19.2171,167.877,101.357,99.8712,0.000638649,0.0692312,20.9107,473.801,0.13547,0.0,0.0
896,223.75,18.4403,20.2885,167.723,101.345,100.039,0.000496129,0.0688629,20.9112,473.781,0.118978,0.0,0.0
903,225.5,18.8811,20.2185,163.077,101.322,100.04,0.000333803,0.0683937,20.9115,473.791,0.116878,0.0,0.0
910,227.25,18.6009,20.6114,165.547,101.326,99.7987,0.000246566,0.0680828,20.911,473.791,0.139372,0.0,0.0
917,229,18.9621,20.2933,164.803,101.312,99.7744,0.000229118,0.0678596,20.9084,473.701,0.140304,0.0,0.0
924,230.75,19.5411,21.0782,169.561,101.287,99.4149,0.000238988,0.0683439,20.9061,473.771,0.171187,0.0,0.0
931,232.5,18.9293,20.7996,165.524,101.249,99.567,0.000275018,0.0689234,20.9049,473.781,0.153721,0.0,0.0
938,234.25,19.1542,20.8481,164.319,101.244,99.5919,0.000301026,0.0691781,20.9055,473.781,0.150982,0.0,0.0
945,236,18.0014,20.8466,169.848,101.214,99.6319,0.000322634,0.0692957,20.9059,473.771,0.144527,0.0,0.0
952,237.75,19.1118,21.3005,166.541,101.166,99.7323,0.000364257,0.0693595,20.9048,473.751,0.130949,0.0,0.0
959,239.5,18.8676,20.9324,164.737,101.123,99.3921,0.000400268,0.0695062,20.9043,473.741,0.158456,0.0,0.0
966,241.25,18.5065,20.8709,166.461,101.074,99.3388,0.000422374,0.0697015,20.9044,473.771,0.158922,0.0,0.0
973,243,19.0511,20.8469,169.948,101.033,99.3733,0.000465156,0.0700161,20.905,473.751,0.151957,0.0,0.0
980,244.75,19.3319,20.5154,168.541,100.993,99.4844,0.000566909,0.0704471,20.9047,473.741,0.138113,0.0,0.0
987,246.5,19.0627,20.6899,166.479,100.947,99.3236,0.000634855,0.0709209,20.9045,473.741,0.148756,0.0,0.0
994,248.25,19.2069,20.4802,167.606,100.878,99.3266,0.0006299,0.0713033,20.9045,473.741,0.142179,0.0,0.0
1001,250,18.6642,20.9797,166.022,100.842,99.353,0.000609665,0.0715061,20.9044,473.721,0.136517,0.0,0.0
1008,251.75,18.8246,20.2,169.742,100.813,99.4058,0.000636887,0.0716151,20.9042,473.701,0.128946,0.0,0.0
1015,253.5,19.0487,20.7458,167.339,100.745,99.2587,0.000730485,0.0722144,20.9023,473.711,0.136377,0.0,0.0
1022,255.25,18.7814,20.9556,171.706,100.692,98.8566,0.000865002,0.0735899,20.901,473.681,0.168781,0.0,0.0
1029,257,18.8783,21.1252,166.163,100.657,98.632,0.000967939,0.0745397,20.9004,473.701,0.1865,0.0,0.0
1036,258.75,18.89,20.8834,168.219,100.599,98.8419,0.000956222,0.0746245,20.9013,473.711,0.161728,0.0,0.0
1043,260.5,18.8867,20.8329,164.325,100.552,98.6527,0.000820014,0.0744013,20.9017,473.691,0.174942,0.0,0.0
1050,262.25,18.7718,20.8882,168.233,100.491,99.031,0.000755331,0.0739736,20.9023,473.691,0.134292,0.0,0.0
1057,264,19.0342,20.9651,169.374,100.445,98.5219,0.000839502,0.0736965,20.9034,473.661,0.177409,0.0,0.0
1064,265.75,18.7258,21.0321,166.915,100.412,97.9018,0.000917231,0.0733736,20.9024,473.671,0.232301,0.0,0.0
1071,267.5,19.0193,20.721,166.131,100.36,98.4743,0.000828654,0.0731056,20.902,473.671,0.174089,0.0,0.0
1078,269.25,19.0785,20.8044,167.585,100.315,98.8566,0.000633333,0.0727172,20.9026,473.651,0.134347,0.0,0.0
1085,271,18.5883,20.9329,165.646,100.271,98.5883,0.000457206,0.0721752,20.9036,473.641,0.155319,0.0,0.0
1092,272.75,19.4536,20.8753,164.664,100.237,98.4453,0.000381935,0.0715927,20.9046,473.641,0.16547,0.0,0.0
1099,274.5,19.3951,20.8078,170.888,100.232,98.0797,0.000420688,0.0710744,20.905,473.631,0.199196,0.0,0.0
1106,276.25,19.1124,20.8261,161.117,100.17,98.5726,0.000494836,0.0705391,20.9063,473.651,0.147537,0.0,0.0
1113,278,18.6004,20.4879,168.952,100.133,98.5057,0.000580603,0.0698936,20.907,473.631,0.150333,0.0,0.0
1120,279.75,18.8876,20.4953,169.01,100.111,98.6259,0.000692568,0.0693871,20.9072,473.631,0.137106,0.0,0.0
1127,281.5,19.3272,20.6049,167.404,100.081,97.6644,0.000804647,0.0690833,20.9062,473.621,0.224312,0.0,0.0
1134,283.25,18.9962,20.5445,167.468,100.071,98.2699,0.000843653,0.0692108,20.9058,473.621,0.166618,0.0,0.0
1141,285,19.2093,20.317,165.774,100.047,98.3282,0.000838502,0.0693921,20.9056,473.621,0.15902,0.0,0.0
1148,286.75,18.9913,20.2284,168.297,100.027,98.2258,0.000846932,0.0695103,20.9055,473.611,0.16677,0.0,0.0
1155,288.5,19.0716,20.9418,165.704,100.017,98.1391,0.000824668,0.0696392,20.9052,473.601,0.173966,0.0,0.0
1162,290.25,19.081,20.368,169.974,100.022,98.2334,0.000739678,0.0695608,20.9054,473.611,0.165568,0.0,0.0
1169,292,18.6828,20.2695,169.508,100.017,98.4621,0.000617083,0.0690354,20.9066,473.561,0.143738,0.0,0.0
1176,293.75,19.2767,20.7336,169.976,100.022,98.0316,0.000499165,0.0684545,20.9077,473.591,0.1844,0.0,0.0
1183,295.5,19.3016,20.4867,168.336,100.031,98.5234,0.000484473,0.0679473,20.9082,473.561,0.139308,0.0,0.0
1190,297.25,19.1095,20.4709,167.954,100.046,98.4306,0.000591504,0.0675546,20.9085,473.561,0.149354,0.0,0.0
1197,299,19.17,20.8577,168.855,100.079,96.3024,0.000767839,0.0672489,20.9086,473.581,0.352954,0.0,0.0
1204,300.75,18.8207,20.6563,166.076,100.074,98.2151,0.000924428,0.0672689,20.9087,473.571,0.172073,0.0,0.0
1211,302.5,19.191,20.6176,167.868,100.108,98.6228,0.000997417,0.0673158,20.9087,473.571,0.137124,0.0,0.0
1218,304.25,19.2395,21.0881,166.028,100.16,98.1411,0.000938624,0.0672446,20.9087,473.551,0.186813,0.0,0.0
1225,306,19.2201,20.7985,170.543,100.189,98.6132,0.000849494,0.0671015,20.9087,473.511,0.145498,0.0,0.0
1232,307.75,18.951,20.1075,168.103,100.238,98.173,0.000809215,0.0670797,20.9087,473.551,0.191,0.0,0.0
1239,309.5,19.2203,20.495,166.429,100.274,98.5965,0.000761887,0.0673242,20.9081,473.551,0.154791,0.0,0.0
1246,311.25,19.2087,20.7036,168.353,100.324,98.2623,0.000768243,0.0675603,20.9072,473.551,0.190507,0.0,0.0
1253,313,19.0475,20.491,167.459,100.379,98.5199,0.000835098,0.0678456,20.9061,473.531,0.171571,0.0,0.0
1260,314.75,18.9904,20.9821,167.553,100.438,98.0579,0.0008618,0.0681218,20.9055,473.511,0.220047,0.0,0.0
1267,316.5,18.9603,20.8867,169.822,100.502,98.8145,0.000821816,0.0685418,20.9056,473.531,0.155356,0.0,0.0
1274,318.25,18.9945,20.59,170.329,100.559,98.2187,0.000778208,0.0687651,20.9057,473.521,0.216082,0.0,0.0
1281,320,19.3978,20.8029,166.276,100.631,98.9844,0.00076637,0.0687667,20.9057,473.501,0.151405,0.0,0.0
1288,321.75,19.396,20.8588,169.627,100.692,99.0102,0.000796005,0.0687506,20.9058,473.501,0.154531,0.0,0.0
1295,323.5,18.7163,20.5491,171.745,100.76,99.1405,0.000844866,0.0688604,20.9058,473.531,0.148695,0.0,0.0
1302,325.25,19.0507,20.2831,163.896,100.838,99.0249,0.000893296,0.0689662,20.906,473.491,0.166531,0.0,0.0
1309,327,19.0485,20.8367,171.538,100.908,98.7004,0.000925291,0.0691086,20.9071,473.481,0.20299,0.0,0.0
1316,328.75,19.1742,20.8028,165.924,100.977,99.3981,0.000897348,0.0689977,20.9076,473.471,0.144607,0.0,0.0
1323,330.5,19.2116,20.5334,168.055,101.068,99.2475,0.000832792,0.0687808,20.9078,473.461,0.166795,0.0,0.0
1330,332.25,18.8752,20.6622,169.766,101.12,99.2871,0.000756385,0.0684303,20.9084,473.481,0.16789,0.0,0.0
1337,334,19.2507,20.4328,166.244,101.192,99.5244,0.000729878,0.068176,20.9094,473.461,0.152453,0.0,0.0
1344,335.75,19.0875,20.3624,168.538,101.259,98.8145,0.000797776,0.0677173,20.9099,473.461,0.224231,0.0,0.0
1351,337.5,18.9004,20.3532,166.922,101.327,99.206,0.000882695,0.0674207,20.9102,473.491,0.194149,0.0,0.0
1358,339.25,19.0516,20.861,166.159,101.393,99.5031,0.000878132,0.0671628,20.9103,473.451,0.172638,0.0,0.0
1365,341,19.1854,20.3812,164.09,101.444,99.7927,0.000803927,0.0669841,20.9103,473.471,0.150563,0.0,0.0
1372,342.75,18.9537,20.4854,165.713,101.499,99.8758,0.000780854,0.0668854,20.9104,473.431,0.147915,0.0,0.0
1379,344.5,18.9459,20.8981,167.246,101.545,99.6639,0.000766721,0.0669311,20.9104,473.441,0.171582,0.0,0.0
1386,346.25,19.007,20.4931,169.426,101.597,99.6877,0.000682806,0.0668837,20.9094,473.441,0.17408,0.0,0.0
1393,348,19.2096,20.5649,167.431,101.63,100.106,0.000526375,0.0669481,20.9095,473.431,0.138668,0.0,0.0
1400,349.75,19.4234,21.0228,165.693,101.669,99.0117,0.000408982,0.0670582,20.91,473.431,0.242986,0.0,0.0
1407,351.5,19.0805,20.5422,161.513,101.728,99.8155,0.000396684,0.0672164,20.9102,473.441,0.174119,0.0,0.0
1414,353.25,19.2888,20.5802,165.77,101.755,99.9696,0.000453108,0.0672708,20.9103,473.411,0.162449,0.0,0.0
1421,355,19.2768,20.3799,166.482,101.794,100.264,0.000541502,0.067189,20.9096,473.401,0.139024,0.0,0.0
1428,356.75,18.7645,20.8887,168.249,101.815,99.9138,0.000669363,0.0671724,20.9103,473.421,0.172922,0.0,0.0
1435,358.5,19.3288,20.2982,170.311,101.846,99.6923,0.000808565,0.0671251,20.9107,473.411,0.196118,0.0,0.0
1442,360.25,19.247,21.1351,166.115,101.88,100.229,0.000787616,0.0670692,20.9104,473.411,0.149952,0.0,0.0
1449,362,19.073,20.6698,164.427,101.9,100.106,0.000704706,0.0670575,20.9102,473.381,0.163059,0.0,0.0
1456,363.75,18.9441,20.8448,167.733,101.912,100.039,0.000684958,0.066842,20.9098,473.391,0.170235,0.0,0.0
1463,365.5,19.5321,20.8962,166.401,101.933,99.9275,0.000676825,0.0667087,20.9095,473.381,0.182357,0.0,0.0
1470,367.25,19.4376,20.6013,167.614,101.959,100.082,0.000608173,0.0667375,20.9094,473.351,0.170466,0.0,0.0
1477,369,19.2344,20.541,168.401,101.952,100.401,0.000549311,0.066748,20.9081,473.361,0.140685,0.0,0.0
1484,370.75,18.7318,20.6693,166.262,101.955,99.9701,0.000562874,0.0667353,20.9075,473.341,0.180376,0.0,0.0
1491,372.5,19.0198,21.1617,165.525,101.95,100.454,0.000619125,0.0667048,20.9072,473.361,0.135588,0.0,0.0
1498,374.25,18.975,20.4535,166.53,101.962,100.49,0.000711904,0.066571,20.9075,473.361,0.133376,0.0,0.0
1505,376,18.4345,21.0845,165.527,101.964,100.219,0.000867318,0.0665234,20.9074,473.351,0.158367,0.0,0.0
1512,377.75,19.5071,20.2228,168.43,101.963,99.2704,0.000929715,0.0666742,20.9079,473.341,0.245575,0.0,0.0
1519,379.5,19.4427,20.4925,164.639,101.943,100.324,0.000849485,0.0669349,20.9074,473.331,0.146916,0.0,0.0
1526,381.25,19.1978,21.2802,165.714,101.934,99.9661,0.000738418,0.0670331,20.9071,473.341,0.178893,0.0,0.0
1533,383,19.161,20.7957,163.175,101.932,99.887,0.000657487,0.0672597,20.9069,473.321,0.186008,0.0,0.0
1540,384.75,19.2833,20.8313,168.531,101.915,100.174,0.000623432,0.0676302,20.9068,473.321,0.158085,0.0,0.0
1547,386.5,19.478,20.9165,166.062,101.895,100.055,0.000603789,0.0678725,20.9062,473.331,0.167226,0.0,0.0
1554,388.25,19.2612,20.6574,166.3,101.878,100.009,0.00054749,0.0680302,20.9053,473.321,0.16989,0.0,0.0
1561,390,19.357,20.7638,166.469,101.863,100.358,0.000484106,0.0682396,20.9049,473.291,0.136561,0.0,0.0
1568,391.75,19.33,20.7429,173.655,101.853,100.12,0.00048079,0.0685244,20.9034,473.271,0.157525,0.0,0.0
1575,393.5,19.5753,20.8709,168.681,101.811,99.9757,0.000557298,0.0688346,20.9028,473.251,0.166945,0.0,0.0
1582,395.25,19.4888,20.4915,166.326,101.786,98.5067,0.00059054,0.069291,20.9028,473.271,0.300509,0.0,0.0
1589,397,19.3258,20.6399,163.866,101.768,99.8535,0.000526176,0.070035,20.9029,473.251,0.174229,0.0,0.0
1596,398.75,19.1303,20.4492,169.932,101.748,99.8657,0.000507182,0.0705296,20.903,473.301,0.171327,0.0,0.0
1603,400.5,18.9372,20.9942,168.358,101.722,99.3839,0.000561593,0.0706996,20.903,473.241,0.213392,0.0,0.0
1610,402.25,19.3382,20.3486,168.886,101.69,99.8844,0.000660018,0.0705073,20.9038,473.241,0.16436,0.0,0.0
1617,404,19.2464,20.5622,167.606,101.661,100.159,0.000786693,0.0700068,20.9046,473.231,0.136542,0.0,0.0
1624,405.75,18.5094,20.8556,168.083,101.636,99.4793,0.0010053,0.0693693,20.9043,473.241,0.19682,0.0,0.0
1631,407.5,19.1406,20.9545,167.446,101.609,99.4544,0.000999889,0.0689534,20.9046,473.231,0.196692,0.0,0.0
1638,409.25,18.8919,21.034,165.83,101.583,100.037,0.000787606,0.0684889,20.9054,473.231,0.140711,0.0,0.0
1645,411,19.2806,21.1792,169.545,101.527,100.056,0.000629149,0.0680758,20.9066,473.221,0.133925,0.0,0.0
1652,412.75,19.5174,20.9345,166.556,101.521,100.054,0.000614785,0.0677814,20.9073,473.201,0.133579,0.0,0.0
1659,414.5,18.853,21.0818,167.172,101.491,99.4316,0.000649445,0.0674793,20.9067,473.191,0.188072,0.0,0.0
1666,416.25,19.5596,20.784,171.417,101.47,99.6755,0.000672566,0.0672593,20.9064,473.221,0.163764,0.0,0.0
1673,418,19.5109,20.711,172.694,101.446,99.1269,0.000647966,0.0672406,20.9062,473.181,0.212213,0.0,0.0
1680,419.75,19.1295,21.0907,167.099,101.445,99.8063,0.000568242,0.0674603,20.905,473.171,0.149416,0.0,0.0
1687,421.5,19.4842,20.7951,169.487,101.395,99.6081,0.000533479,0.0678227,20.9044,473.181,0.163188,0.0,0.0
1694,423.25,19.1677,20.6383,171.196,101.384,99.3667,0.000647009,0.0680752,20.903,473.171,0.184406,0.0,0.0
1701,425,19.5175,21.1731,164.273,101.362,99.1081,0.000788726,0.068284,20.9022,473.161,0.206304,0.0,0.0
1708,426.75,19.2693,20.9236,169.088,101.342,99.5056,0.000849904,0.0685296,20.9018,473.171,0.167778,0.0,0.0
1715,428.5,19.5192,21.1034,166.793,101.334,99.5954,0.00078165,0.068748,20.9029,473.181,0.158796,0.0,0.0
1722,430.25,19.3821,21.5037,167.807,101.305,98.6152,0.000592159,0.0686498,20.9045,473.151,0.246901,0.0,0.0
1729,432,19.1751,20.8887,165.481,101.3,99.3393,0.000531878,0.0683015,20.9059,473.131,0.179358,0.0,0.0
1736,433.75,19.0257,21.2102,166.405,101.262,99.1182,0.00060485,0.0680217,20.9067,473.161,0.196367,0.0,0.0
1743,435.5,19.401,20.917,168.615,101.252,99.2328,0.000744008,0.0676953,20.907,473.151,0.184831,0.0,0.0
1750,437.25,19.4852,20.6322,168.947,101.225,99.4631,0.000838721,0.0672969,20.9068,473.131,0.161138,0.0,0.0
1757,439,19.1595,20.8779,169.002,101.214,99.3043,0.00093007,0.0668849,20.9067,473.141,0.174784,0.0,0.0
1764,440.75,19.1795,21.3334,167.584,101.191,99.2744,0.000996451,0.0665949,20.9066,473.111,0.175456,0.0,0.0
1771,442.5,19.5502,21.0372,168.456,101.171,99.6116,0.000944562,0.0663457,20.9066,473.121,0.142546,0.0,0.0
1778,444.25,19.4632,20.6147,169.107,101.144,99.7779,0.000832039,0.0660758,20.9066,473.081,0.124807,0.0,0.0
1785,446,18.9221,21.2813,168.397,101.188,99.3302,0.000698071,0.0659702,20.9066,473.071,0.17004,0.0,0.0
1792,447.75,19.4534,21.3428,163.699,101.239,99.3642,0.000675214,0.0659126,20.9066,473.061,0.171536,0.0,0.0
1799,449.5,19.3627,20.7103,167.453,101.304,99.0472,0.000759769,0.0659128,20.9066,473.071,0.206714,0.0,0.0
1806,451.25,19.2849,21.1396,167.386,101.335,99.496,0.000867706,0.0659081,20.9066,473.071,0.168069,0.0,0.0
1813,453,18.7569,20.8858,169.464,101.37,99.5949,0.00103572,0.0658255,20.9067,473.071,0.162089,0.0,0.0
1820,454.75,19.5264,21.1456,166.218,101.417,99.6699,0.00116845,0.0658327,20.9067,473.061,0.159468,0.0,0.0
1827,456.5,19.5925,21.0446,167.912,101.477,99.1801,0.00120465,0.0658249,20.9067,473.061,0.210081,0.0,0.0
1834,458.25,19.471,21.2617,163.65,101.498,100.009,0.00115048,0.0657007,20.9068,473.061,0.135632,0.0,0.0
1841,460,19.0162,20.8394,165.378,101.538,99.534,0.00100553,0.0655447,20.9068,473.031,0.182908,0.0,0.0
1848,461.75,19.2731,20.7529,167.353,101.572,99.3774,0.000821254,0.0654412,20.9068,473.041,0.200419,0.0,0.0
1855,463.5,19.4412,21.062,172.827,101.61,99.9493,0.00057732,0.0654498,20.9058,473.041,0.151217,0.0,0.0
1862,465.25,19.3931,20.5463,168.377,101.627,99.6121,0.000458316,0.0653248,20.9051,473.031,0.183717,0.0,0.0
1869,467,19.3264,20.9246,163.79,101.645,99.421,0.000516015,0.0651906,20.9048,473.011,0.202982,0.0,0.0
1876,468.75,19.261,21.2494,164.069,101.665,99.9955,0.000661119,0.065116,20.9046,473.031,0.151895,0.0,0.0
1883,470.5,19.8823,20.8361,164.93,101.689,100.058,0.000838184,0.0651553,20.9045,473.021,0.148404,0.0,0.0
1890,472.25,19.5892,21.187,162.35,101.703,99.355,0.000979255,0.0652713,20.9039,473.011,0.21435,0.0,0.0
1897,474,19.8669,20.6355,163.256,101.703,99.9965,0.00102827,0.0653006,20.903,473.001,0.155298,0.0,0.0
1904,475.75,19.4929,21.5567,162.768,101.703,99.8616,0.000947217,0.0653164,20.9035,473.011,0.167684,0.0,0.0
1911,477.5,19.5107,21.2619,163.401,101.716,99.9351,0.000843684,0.0653844,20.9047,472.991,0.16212,0.0,0.0
1918,479.25,19.8264,21.4497,165.651,101.716,99.8292,0.000811248,0.0654461,20.9052,472.981,0.171819,0.0,0.0
1925,481,19.485,21.0176,172.289,101.72,100.066,0.000812798,0.0656439,20.9055,472.971,0.150449,0.0,0.0
1932,482.75,19.4952,21.213,160.237,101.709,99.9387,0.000804803,0.0657267,20.9056,472.991,0.161088,0.0,0.0
1939,484.5,19.3473,21.3158,167.412,101.712,99.8363,0.000840784,0.0658278,20.9049,472.951,0.170795,0.0,0.0
1946,486.25,19.109,20.844,166.501,101.699,99.7678,0.000927845,0.0660533,20.9041,472.941,0.175899,0.0,0.0
1953,488,19.0925,20.9339,164.112,101.688,100.2,0.000945196,0.0662551,20.9038,472.931,0.135319,0.0,0.0
1960,489.75,19.9908,21.1904,168.799,101.671,99.9154,0.000898795,0.0664491,20.9036,472.92,0.159807,0.0,0.0
1967,491.5,19.5887,20.8236,168.157,101.65,99.3175,0.000856386,0.0667374,20.9026,472.931,0.213018,0.0,0.0
1974,493.25,19.7801,21.323,166.005,101.63,99.7298,0.000784752,0.0671404,20.9018,472.941,0.173185,0.0,0.0
1981,495,19.8264,21.1796,170.255,101.604,99.9762,0.000673452,0.0676133,20.9015,472.931,0.148155,0.0,0.0
1988,496.75,19.6633,21.2944,168.72,101.58,99.5138,0.000572969,0.0680944,20.9013,472.92,0.188615,0.0,0.0
1995,498.5,19.5463,21.4356,165.653,101.536,99.6588,0.000546463,0.0685232,20.9009,472.91,0.171229,0.0,0.0
2002,500.25,19.6171,21.5168,164.997,101.51,99.5802,0.000629365,0.068842,20.9009,472.931,0.176122,0.0,0.0
2009,502,19.9028,21.4759,167.027,101.483,99.5584,0.000745941,0.0692535,20.9001,472.89,0.175709,0.0,0.0
2016,503.75,19.2374,21.1165,168.67,101.442,99.8429,0.00080534,0.0694794,20.8998,473.041,0.145836,0.0,0.0
2023,505.5,19.6086,20.8056,164.361,101.401,99.494,0.000762549,0.0694734,20.9002,479.537,0.174189,0.0,0.0
2030,507.25,19.5101,20.7451,168.941,101.351,99.6816,0.000665622,0.0694201,20.8994,473.121,0.152387,0.0,0.0
2037,509,19.0926,21.3348,165.47,101.32,99.2764,0.000590982,0.0698237,20.8974,479.496,0.186923,0.0,0.0
2044,510.75,19.1568,21.3728,167.492,101.27,99.5645,0.000569988,0.0709004,20.8959,478.446,0.155896,0.0,0.0
2051,512.5,19.746,21.4847,171.717,101.224,99.4468,0.000593591,0.0721223,20.8941,487.904,0.162561,0.0,0.0
2058,514.25,19.4139,21.1804,164.382,101.162,99.2323,0.000622899,0.0732342,20.8938,487.434,0.176768,0.0,0.0
2065,516,19.1199,21.2086,163.067,101.112,99.5416,0.000665233,0.0739028,20.8946,478.596,0.143647,0.0,0.0
2072,517.75,19.6181,21.3434,165.786,101.059,99.2683,0.000705752,0.0739766,20.8959,472.87,0.164049,0.0,0.0
2079,519.5,19.7072,21.1486,167.795,101.007,99.1877,0.000711382,0.0736314,20.8966,473.061,0.166789,0.0,0.0
2086,521.25,19.4635,21.2071,164.931,100.925,98.8546,0.000640333,0.0731355,20.8971,474.011,0.190245,0.0,0.0
2093,523,19.8087,21.3773,164.905,100.877,99.1248,0.000589524,0.0728336,20.8983,472.82,0.160766,0.0,0.0
2100,524.75,19.4893,21.0629,168.804,100.813,99.0219,0.000662117,0.0725751,20.8977,472.82,0.164524,0.0,0.0
2107,526.5,19.4999,21.3664,163.154,100.778,98.9438,0.00077655,0.0725323,20.8974,482.98,0.168536,0.0,0.0
2114,528.25,19.8397,20.8436,164.822,100.782,99.2744,0.000789695,0.0727368,20.8971,472.83,0.138264,0.0,0.0
2121,530,19.7793,21.6378,164.268,100.768,98.8028,0.000805841,0.0734014,20.8959,472.81,0.180719,0.0,0.0
2128,531.75,19.7924,21.3854,165.253,100.795,98.6634,0.000893453,0.0740399,20.8954,472.79,0.196155,0.0,0.0
2135,533.5,19.7715,20.9471,166.212,100.793,98.6923,0.00102726,0.0744658,20.8951,472.8,0.193281,0.0,0.0
2142,535.25,19.7754,21.4018,168.688,100.791,98.8546,0.00116628,0.0747192,20.895,472.79,0.178019,0.0,0.0
2149,537,19.8523,21.5863,161.688,100.799,99.2612,0.00120451,0.0746474,20.8949,472.78,0.141059,0.0,0.0
2156,538.75,19.6046,21.4165,164.364,100.829,99.0645,0.0011444,0.0746832,20.8949,472.78,0.162042,0.0,0.0
2163,540.5,19.8841,21.9397,170.835,100.843,99.1679,0.000982195,0.0747158,20.8951,472.76,0.153703,0.0,0.0
2170,542.25,19.5029,20.3842,167.845,100.867,98.9844,0.000834477,0.0745589,20.8962,472.76,0.172841,0.0,0.0
2177,544,19.8011,21.6232,172.751,100.864,99.0888,0.000845009,0.074156,20.8967,472.74,0.162975,0.0,0.0
2184,545.75,19.8036,21.5209,168.162,100.888,99.0853,0.000944326,0.0737712,20.8976,472.77,0.165403,0.0,0.0
2191,547.5,19.3859,21.0781,166.544,100.918,99.2734,0.000940166,0.0735745,20.8981,472.74,0.150772,0.0,0.0
2198,549.25,19.665,21.2885,162.941,100.929,99.2252,0.000802513,0.0735137,20.8983,472.76,0.1562,0.0,0.0
2205,551,19.9229,21.3306,168.31,100.937,99.0503,0.000742489,0.0734691,20.8993,472.72,0.173143,0.0,0.0
2212,552.75,19.6886,21.4942,171.133,100.951,98.8267,0.000719902,0.0730906,20.9007,472.75,0.195193,0.0,0.0
2219,554.5,19.9582,21.5554,171.651,100.982,99.1547,0.000655153,0.0725069,20.9024,472.72,0.167591,0.0,0.0
2226,556.25,19.7462,21.312,168.168,101.002,99.1862,0.000596316,0.0717756,20.9032,472.74,0.16648,0.0,0.0
2233,558,19.8233,21.5239,166.371,101.024,99.4387,0.000617054,0.0710544,20.9036,472.72,0.145132,0.0,0.0
2240,559.75,19.7759,21.1412,169.847,101.031,99.2105,0.000634933,0.070706,20.9032,472.69,0.166812,0.0,0.0
2247,561.5,19.9764,21.9636,169.251,101.051,99.46,0.000587448,0.0708704,20.9014,472.7,0.1456,0.0,0.0
2254,563.25,19.7056,21.2228,166.687,101.088,99.2105,0.000566598,0.0712668,20.9003,472.69,0.172052,0.0,0.0
2261,565,19.9727,21.5366,159.606,101.102,99.2257,0.000594156,0.0714838,20.9002,472.7,0.171879,0.0,0.0
2268,566.75,19.8367,21.3856,162.687,101.122,99.5209,0.000567254,0.0714329,20.901,472.69,0.146424,0.0,0.0
2275,568.5,19.5986,21.6167,168.478,101.142,99.4291,0.000533238,0.0710196,20.901,472.66,0.15676,0.0,0.0
2282,570.25,19.7394,21.2718,164.889,101.173,99.5259,0.000531765,0.0706475,20.9011,472.63,0.15063,0.0,0.0
2289,572,19.892,21.3786,169.458,101.196,99.3434,0.000571259,0.0703521,20.902,472.65,0.16957,0.0,0.0
2296,573.75,19.8875,21.2877,167.376,101.219,99.1842,0.000653017,0.0704734,20.9018,472.65,0.186306,0.0,0.0
2303,575.5,19.476,21.4504,166.747,101.223,99.5371,0.000802376,0.0705816,20.9006,472.66,0.154087,0.0,0.0
2310,577.25,19.8516,21.4855,164.495,101.242,99.5736,0.000906337,0.0706544,20.9001,472.67,0.152441,0.0,0.0
2317,579,19.8556,21.2057,166.975,101.264,99.4463,0.00094413,0.0707205,20.8998,472.63,0.166231,0.0,0.0
2324,580.75,19.453,21.5959,167.792,101.284,99.4286,0.000976747,0.0706703,20.9013,472.63,0.169662,0.0,0.0
2331,582.5,19.9669,21.2334,169.524,101.289,99.4879,0.00101524,0.0705301,20.9028,472.61,0.164636,0.0,0.0
2338,584.25,19.4945,21.4596,164.483,101.298,99.1015,0.00104049,0.0700641,20.904,472.64,0.201203,0.0,0.0
2345,586,19.8379,20.9193,168.308,101.322,99.4803,0.00101776,0.0695323,20.9045,472.6,0.168287,0.0,0.0
2352,587.75,19.6226,21.3235,168.76,101.331,99.4575,0.000962121,0.0688782,20.9048,472.57,0.171251,0.0,0.0
2359,589.5,19.6037,21.2698,167.227,101.331,99.4534,0.000911146,0.0685012,20.9049,472.57,0.171663,0.0,0.0
2366,591.25,19.4441,21.5869,165.286,101.33,98.6964,0.000876051,0.0685196,20.9049,472.59,0.24167,0.0,0.0
2373,593,19.7106,21.5434,166.477,101.348,99.5356,0.000767401,0.0685461,20.9038,472.59,0.165579,0.0,0.0
2380,594.75,19.4415,21.5131,170.653,101.352,99.462,0.000616535,0.0685453,20.9028,472.62,0.172696,0.0,0.0
2387,596.5,19.8017,21.5146,170.632,101.343,99.7455,0.000507778,0.0685446,20.9012,472.55,0.145762,0.0,0.0
2394,598.25,19.2921,20.9906,167.614,101.331,99.3403,0.000408755,0.0688769,20.9,472.57,0.182027,0.0,0.0
2401,600,19.5124,21.9585,163.065,101.341,99.6507,0.000355846,0.0692214,20.8992,472.55,0.154377,0.0,0.0
2408,601.75,19.6425,21.3101,162.895,101.342,99.4342,0.000415768,0.0693845,20.8978,472.55,0.174411,0.0,0.0
2415,603.5,19.9973,21.945,157.003,101.311,98.3181,0.000949831,0.071512,20.8924,472.52,0.275153,0.0,0.0
2422,605.25,20.4687,22.3095,161.644,101.299,89.8397,0.00231748,0.0827681,20.8479,472.32,1.10158,0.0,1.0
2429,607,21.3561,24.2253,156.149,101.292,84.3835,0.00444283,0.107591,20.7543,472.12,1.67591,0.0,1.0
2436,608.75,21.7955,25.4818,150.72,101.284,81.406,0.00653972,0.15873,20.6683,471.679,2.00484,0.0,1.0
2443,610.5,23.3692,27.9263,156.827,101.269,83.2203,0.00826902,0.213485,20.6023,471.449,1.80119,0.0,1.0
2450,612.25,25.1218,30.175,153.13,101.261,83.6995,0.00999217,0.27079,20.5271,471.269,1.74776,0.0,0.0
2457,614,26.392,31.5776,152.683,101.243,79.5724,0.0111793,0.315874,20.4807,471.009,2.21011,0.0,0.0
2464,615.75,27.6205,34.3923,154.608,101.207,83.5053,0.0122233,0.361852,20.4507,470.719,1.76422,0.0,0.0
2471,617.5,28.8373,36.0786,152.574,101.187,78.1525,0.0135744,0.399137,20.417,470.448,2.37028,0.0,0.0
2478,619.25,30.0312,38.9764,142.603,101.158,72.3734,0.0150456,0.441023,20.3663,470.148,3.07254,0.0,0.0
2485,621,32.2414,40.8072,148.671,101.129,79.9329,0.0161119,0.483001,20.3388,469.938,2.15835,0.0,0.0
2492,622.75,33.6713,43.0082,152.511,101.088,76.9092,0.0162179,0.512153,20.3289,469.708,2.50843,0.0,0.0
2499,624.5,34.387,43.5903,156.557,101.068,83.8993,0.0153027,0.525217,20.3569,469.557,1.70842,0.0,0.0
2506,626.25,34.4607,43.3661,161.076,101.027,90.579,0.0135479,0.517154,20.4137,469.467,1.0017,0.0,0.0
2513,628,33.6446,42.9698,157.276,100.991,89.8422,0.0118156,0.49342,20.48,469.387,1.07339,0.0,0.0
2520,629.75,32.9356,42.3023,158.817,100.956,89.3047,0.0102669,0.461508,20.527,469.297,1.12523,0.0,0.0
2527,631.5,33.0066,41.6334,159.343,100.923,92.0881,0.0090967,0.431762,20.5655,469.257,0.840605,0.0,0.0
2534,633.25,32.5289,40.5129,156.198,100.884,90.831,0.00820741,0.403829,20.5947,469.177,0.96324,0.0,0.0
2541,635,32.2534,40.2573,158.911,100.852,92.404,0.00749253,0.37877,20.6188,469.087,0.802769,0.0,0.0
2548,636.75,32.08,39.7455,156.209,100.809,92.4664,0.00681364,0.356003,20.6381,469.007,0.792638,0.0,0.0
2555,638.5,31.5729,39.1002,159.811,100.775,95.2933,0.00624265,0.336792,20.6552,468.927,0.513224,0.0,0.0
2562,640.25,31.3061,37.9456,161.773,100.743,96.1326,0.00559593,0.317414,20.6769,468.877,0.42984,0.0,0.0
2569,642,30.7663,37.5212,162.185,100.705,96.7324,0.00488203,0.292333,20.71,468.827,0.369302,0.0,0.0
2576,643.75,30.157,36.3085,161.987,100.664,98.1832,0.00402505,0.269254,20.7401,468.847,0.228986,0.0,0.0
2583,645.5,29.5811,35.4593,160.806,100.623,98.2572,0.003364,0.247203,20.7651,468.817,0.218348,0.0,0.0
2590,647.25,29.1264,34.3601,163.746,100.591,98.489,0.00286394,0.227561,20.7844,468.797,0.193763,0.0,0.0
2597,649,28.5203,33.7315,169.078,100.545,98.3967,0.0024455,0.208647,20.803,468.767,0.198228,0.0,0.0
2604,650.75,27.6997,32.5443,164.858,100.513,98.2643,0.00211623,0.190796,20.818,468.767,0.207643,0.0,0.0
2611,652.5,27.4848,32.0615,163.263,100.461,99.0092,0.00186577,0.175538,20.8302,468.777,0.133566,0.0,0.0
2618,654.25,27.358,30.8088,162.163,100.431,98.9113,0.00173136,0.161712,20.8407,468.777,0.13993,0.0,0.0
2625,656,26.3246,30.1711,163.11,100.409,99.4184,0.00166237,0.149102,20.8511,468.757,0.0909728,0.0,0.0
2632,657.75,26.4728,29.8468,165.513,100.363,99.3784,0.00159838,0.138176,20.8595,468.757,0.0904887,0.0,0.0
2639,659.5,25.7286,29.0054,161.668,100.33,99.4418,0.00152391,0.128434,20.8653,468.727,0.0816221,0.0,0.0
2646,661.25,25.4277,27.8,165.086,100.295,99.5604,0.00149202,0.120451,20.8691,468.707,0.0674755,0.0,0.0
2653,663,23.8958,27.1258,170.951,100.272,99.5604,0.00149477,0.11435,20.8736,468.737,0.0653633,0.0,0.0
2660,664.75,24.2633,26.9163,164.466,100.239,99.6867,0.00149063,0.107898,20.8784,468.707,0.050677,0.0,0.0
2667,666.5,23.4773,26.1187,161.967,100.197,99.6253,0.00146853,0.102652,20.8835,468.717,0.0525142,0.0,0.0
2674,668.25,23.6326,25.7921,164.489,100.163,99.3586,0.001368,0.0973134,20.8882,468.747,0.0739808,0.0,0.0
2681,670,22.9794,25.7141,166.869,100.148,99.4235,0.00114493,0.0927103,20.891,468.757,0.0666296,0.0,0.0
2688,671.75,22.814,25.0159,170.99,100.116,99.2252,0.00092278,0.0883925,20.8928,468.737,0.0820373,0.0,0.0
2695,673.5,23.1309,25.45,164.644,100.094,99.3865,0.000695209,0.0851719,20.8944,468.747,0.0650982,0.0,0.0
2702,675.25,22.3471,24.0646,165.24,100.089,99.279,0.000532895,0.0819831,20.8958,468.737,0.0745363,0.0,0.0
2709,677,22.262,24.1808,167.939,100.052,99.3155,0.00048145,0.0792318,20.8971,468.797,0.0677991,0.0,0.0
2716,678.75,21.4992,23.6765,168.045,100.041,99.3277,0.000472663,0.0770915,20.898,468.787,0.0656924,0.0,0.0
2723,680.5,22.3935,23.6649,164.767,100.029,99.2186,0.000450652,0.0755664,20.8993,468.747,0.074596,0.0,0.0
2730,682.25,21.6072,23.4485,165.708,100.007,99.2932,0.000383947,0.0745189,20.8999,468.747,0.065701,0.0,0.0
2737,684,21.4747,23.1452,166.905,99.9951,99.2475,0.000315751,0.0737543,20.9002,468.747,0.068861,0.0,0.0
2744,685.75,21.4023,23.0623,165.327,100.002,99.1629,0.000268348,0.0733811,20.9003,468.727,0.0772995,0.0,0.0
2751,687.5,20.8147,22.4631,162.794,99.9943,99.2633,0.000213515,0.0731152,20.9003,468.767,0.0673322,0.0,0.0
2758,689.25,20.7865,22.5156,161.762,99.9811,99.2663,0.000111516,0.0727013,20.9004,468.747,0.0658401,0.0,0.0
2765,691,21.1071,22.3358,169.674,99.9741,99.21,5.27671e-06,0.0722,20.9013,468.737,0.0704015,0.0,0.0
2772,692.75,20.9207,22.5541,165.711,99.9819,99.317,-5.20562e-05,0.071504,20.902,468.737,0.0612297,0.0,0.0
2779,694.5,21.1036,22.1629,166.933,99.984,99.2982,-2.43757e-05,0.0707056,20.9024,468.737,0.0631528,0.0,0.0
2786,696.25,20.6855,21.9255,165.079,99.9993,99.1933,1.34223e-05,0.0699392,20.9025,468.737,0.0742575,0.0,0.0
2793,698,20.6884,21.5237,162.698,100.022,99.2896,4.5217e-05,0.0693095,20.9026,468.737,0.0674668,0.0,0.0
2800,699.75,20.6617,21.6138,169.077,100.007,99.35,7.78814e-05,0.0687135,20.9027,468.757,0.0604538,0.0,0.0
2807,701.5,20.9727,21.2198,160.717,100.027,99.3434,0.000140319,0.0681906,20.9027,468.727,0.0629159,0.0,0.0
2814,703.25,20.9703,21.2887,164.312,100.044,99.3444,0.000211298,0.0677168,20.9027,468.747,0.0644096,0.0,0.0
2821,705,20.8763,21.7994,164.044,100.042,99.2278,0.000226763,0.06737,20.9027,468.747,0.0750007,0.0,0.0
2828,706.75,20.2395,22.0224,159.693,100.043,99.4255,0.000197757,0.0670936,20.9028,468.737,0.0568442,0.0,0.0
2835,708.5,20.9419,21.9998,163.265,100.075,99.5396,0.000114532,0.0668636,20.9039,468.757,0.0492312,0.0,0.0
2842,710.25,20.3235,21.9593,168.006,100.097,99.2982,-9.79892e-06,0.0666562,20.9049,468.747,0.073474,0.0,0.0
2849,712,20.7036,21.2206,168.612,100.115,99.3855,-9.62404e-05,0.0665514,20.9057,468.747,0.0671563,0.0,0.0
2856,713.75,20.4493,21.6637,171.252,100.129,99.3652,-0.000124994,0.0663246,20.9061,468.747,0.0702755,0.0,0.0
2863,715.5,20.7729,21.9582,164.876,100.137,99.42,-9.05804e-05,0.0660949,20.9063,468.757,0.0659747,0.0,0.0
2870,717.25,20.2151,21.7586,165.288,100.167,99.4752,7.14711e-06,0.0659544,20.9064,468.737,0.0635558,0.0,0.0
2877,719,20.3557,21.0138,164.228,100.192,99.427,2.39247e-05,0.0657241,20.9065,468.767,0.0703038,0.0,0.0
2884,720.75,19.9561,21.2059,163.748,100.208,99.353,-9.05723e-05,0.0656922,20.9071,468.737,0.0786498,0.0,0.0
2891,722.5,19.811,21.493,168.111,100.239,99.5467,-0.000257567,0.0657375,20.908,468.717,0.0636069,0.0,0.0
2898,724.25,20.6411,21.4796,169.687,100.275,99.5036,-0.000303246,0.0655843,20.9084,468.747,0.0709008,0.0,0.0
2905,726,20.2075,20.7582,168.245,100.311,99.4321,-0.000211837,0.065452,20.9086,468.777,0.0807395,0.0,0.0
2912,727.75,20.1162,21.3447,164.099,100.346,99.604,-8.95866e-05,0.0656419,20.9087,468.747,0.0680944,0.0,0.0
2919,729.5,20.01,21.5342,162.432,100.377,99.5995,-1.54989e-05,0.0656168,20.9088,468.747,0.0713784,0.0,0.0
2926,731.25,20.1116,21.4264,170.004,100.394,99.6451,-1.46163e-05,0.0656291,20.9068,468.757,0.0686818,0.0,0.0
2933,733,19.8131,21.6452,164.677,100.425,99.7277,-2.36983e-05,0.0654736,20.9056,468.767,0.0638991,0.0,0.0
2940,734.75,19.73,20.8619,170.398,100.47,99.6517,3.01006e-05,0.0654959,20.9044,468.767,0.0750419,0.0,0.0
2947,736.5,20.0067,20.5681,166.679,100.514,99.6324,9.3084e-05,0.0655446,20.9032,468.757,0.0808816,0.0,0.0
2954,738.25,19.2297,21.6115,171.065,100.536,99.8981,4.71947e-05,0.0655669,20.9027,468.787,0.0583986,0.0,0.0
2961,740,19.9427,20.7938,167.633,100.594,99.925,-5.45879e-05,0.0654982,20.9024,468.747,0.061196,0.0,0.0
2968,741.75,20.1886,20.9319,169.391,100.629,99.8778,-6.55808e-05,0.0655092,20.9029,468.747,0.06876,0.0,0.0
2975,743.5,19.7769,20.5932,167.314,100.667,99.9275,4.53671e-05,0.065367,20.9041,468.767,0.0676536,0.0,0.0
2982,745.25,19.8876,21.0389,166.656,100.718,100.013,0.000162995,0.0652881,20.9048,468.737,0.0644922,0.0,0.0
2989,747,19.6552,20.6779,168.973,100.776,100.083,0.000201244,0.065146,20.9051,468.757,0.0633211,0.0,0.0
2996,748.75,19.2108,21.3121,163.569,100.815,100.103,0.000187407,0.065047,20.9052,468.737,0.0649885,0.0,0.0
3003,750.5,20.2058,20.4606,164.169,100.849,100.026,0.000177139,0.0649728,20.9053,468.747,0.0752177,0.0,0.0
3010,752.25,19.61,20.8936,171.84,100.894,100.065,0.000217655,0.064939,20.9053,468.747,0.0756853,0.0,0.0
3017,754,19.7328,20.5961,162.22,100.939,100.119,0.000242785,0.0649843,20.9061,468.767,0.0747968,0.0,0.0
3024,755.75,19.6094,20.4349,165.915,101.012,100.384,0.000159283,0.0649913,20.9067,468.747,0.0571518,0.0,0.0
3031,757.5,20.0867,21.071,163.719,101.053,100.303,6.71358e-05,0.0649421,20.907,468.777,0.0683615,0.0,0.0
3038,759.25,19.8278,20.4408,166.436,101.1,100.48,5.15682e-05,0.0649611,20.9072,468.777,0.056405,0.0,0.0
3045,761,20.2115,21.0503,165.392,101.153,100.383,4.96908e-05,0.0649449,20.9075,468.757,0.070117,0.0,0.0
3052,762.75,19.6617,20.7117,166.551,101.205,100.556,5.77416e-05,0.064782,20.9082,468.777,0.0589606,0.0,0.0
3059,764.5,19.8644,21.2084,165.288,101.263,100.601,9.08742e-05,0.0648142,20.9077,468.777,0.0601484,0.0,0.0
3066,766.25,19.9174,20.3316,167.029,101.309,100.475,0.000109989,0.064922,20.9075,468.757,0.0759012,0.0,0.0
3073,768,19.6228,20.5545,167.935,101.348,100.555,0.00016112,0.0649048,20.9074,468.757,0.0721327,0.0,0.0
3080,769.75,19.8708,21.3087,167.962,101.394,100.693,0.000197402,0.0648639,20.9074,468.767,0.0636503,0.0,0.0
3087,771.5,19.4066,20.695,167.337,101.448,100.715,,0.0647639,,468.777,0.0665948,0.0,0.0
3094,773.25,19.6042,20.6012,166.998,101.491,100.843,,0.0647155,,468.737,0.0587812,0.0,0.0
3101,775,20.1213,20.9374,168.339,101.537,100.726,,,,468.767,0.0735815,0.0,0.0
3108,776.75,19.7106,20.6923,166.976,101.574,100.85,,,,468.777,0.0656326,0.0,0.0
3115,778.5,19.2841,20.7289,166.018,101.618,100.951,,,,468.787,0.0604397,0.0,0.0
3122,780.25,19.3663,20.5911,168.71,101.665,100.925,,,,468.767,0.0670325,0.0,0.0
3129,782,19.4456,20.7218,161.742,101.705,100.966,,,,468.767,0.0669434,0.0,0.0