File: 01_Data/Polyester_Bed_Skirt/STA/N2/10K_min/Polyester_Bed_Skirt_STA_N2_10KData_220525_R3.csv
##Temp./Â°C,Time/min,Mass loss(subtr.2)/mg,DSC(subtr.2)/(mW/mg),Sensit./(uV/mW)
49.844,10.01,0.0122,-0.008512657,1.07014
50.444,10.73826,0.01225424,0.02332338,1.06997
51.044,10.92854,0.01272862,0.04631125,1.06981
51.644,11.07135,0.01240457,0.06154609,1.06964
52.244,11.18973,0.01232014,0.07899273,1.06948
52.844,11.2948,0.01163373,0.09134607,1.06931
53.444,11.39143,0.01296437,0.09984907,1.06914
54.044,11.48211,0.01272874,0.11162,1.06898
54.644,11.56798,0.01195235,0.12054,1.06881
55.244,11.65045,0.01271016,0.12863,1.06864
55.844,11.72943,0.01142161,0.13683,1.06847
56.444,11.80603,0.0122727,0.1411,1.06831
57.044,11.88101,0.0128159,0.1455,1.06814
57.644,11.95428,0.01276805,0.15221,1.06797
58.244,12.0262,0.01273747,0.15494,1.0678
58.844,12.09708,0.01238777,0.15917,1.06763
59.444,12.16734,0.01251901,0.16286,1.06746
60.044,12.23664,0.0140038,0.16567,1.06729
60.644,12.305,0.01405136,0.16904,1.06711
61.244,12.3726,0.0140425,0.17238,1.06694
61.844,12.44008,0.01406003,0.17292,1.06677
62.444,12.50727,0.01406308,0.17694,1.0666
63.044,12.57408,0.01387494,0.17825,1.06643
63.644,12.6402,0.0127238,0.18085,1.06625
64.244,12.70619,0.01373498,0.18371,1.06608
64.844,12.77163,0.01476117,0.18482,1.06591
65.444,12.837,0.01374132,0.18674,1.06573
66.044,12.9019,0.01373077,0.1905,1.06556
66.644,12.9666,0.01238744,0.1912,1.06538
67.244,13.03081,0.01240717,0.19262,1.06521
67.844,13.0952,0.01370678,0.19581,1.06503
68.444,13.15944,0.0139977,0.19678,1.06485
69.044,13.224,0.01371972,0.19876,1.06468
69.644,13.28836,0.01374515,0.20141,1.0645
70.244,13.3524,0.01381296,0.20192,1.06432
70.844,13.41627,0.01382656,0.20165,1.06415
71.444,13.4802,0.01240991,0.2019,1.06397
72.044,13.54367,0.01238378,0.20264,1.06379
72.644,13.60694,0.0123693,0.20255,1.06361
73.244,13.6701,0.01240991,0.20059,1.06343
73.844,13.7332,0.01372818,0.20051,1.06325
74.444,13.7961,0.01339965,0.19859,1.06307
75.044,13.859,0.01373063,0.19713,1.06289
75.644,13.92176,0.01373484,0.19687,1.06271
76.244,13.98449,0.01498954,0.19433,1.06253
76.844,14.04716,0.01366994,0.19029,1.06235
77.444,14.10955,0.01503992,0.18852,1.06217
78.044,14.17175,0.01503081,0.189,1.06199
78.644,14.23381,0.01372455,0.186,1.0618
79.244,14.29601,0.01377051,0.18423,1.06162
79.844,14.35821,0.01373142,0.18303,1.06144
80.444,14.42026,0.01403842,0.18279,1.06125
81.044,14.48179,0.01386038,0.1812,1.06107
81.644,14.5431,0.01504005,0.18035,1.06089
82.244,14.60455,0.01423539,0.17906,1.0607
82.844,14.6656,0.01371226,0.17889,1.06052
83.444,14.7267,0.01369432,0.17835,1.06033
84.044,14.7879,0.01370843,0.17739,1.06014
84.644,14.84917,0.01370105,0.17792,1.05996
85.244,14.90985,0.01372938,0.17784,1.05977
85.844,14.97055,0.01505086,0.17666,1.05958
86.444,15.03129,0.01403246,0.1755,1.0594
87.044,15.09196,0.01537086,0.17665,1.05921
87.644,15.1525,0.01502451,0.17488,1.05902
88.244,15.2132,0.01372958,0.17477,1.05883
88.844,15.27353,0.01366622,0.17306,1.05864
89.444,15.3336,0.01373171,0.17306,1.05845
90.044,15.3931,0.01523883,0.17379,1.05826
90.644,15.45301,0.01502437,0.17202,1.05807
91.244,15.5129,0.01388889,0.17283,1.05788
91.844,15.5729,0.01617852,0.1715,1.05769
92.444,15.63326,0.01483169,0.1711,1.0575
93.044,15.69295,0.01482959,0.17118,1.05731
93.644,15.75281,0.01450372,0.17069,1.05712
94.244,15.8125,0.01417857,0.16997,1.05693
94.844,15.8721,0.01319249,0.17078,1.05673
95.444,15.9315,0.01430426,0.16917,1.05654
96.044,15.99119,0.01429083,0.17132,1.05635
96.644,16.05044,0.01464829,0.17179,1.05615
97.244,16.10984,0.0155999,0.17146,1.05596
97.844,16.16901,0.01460241,0.17173,1.05576
98.444,16.22831,0.01428022,0.17315,1.05557
99.044,16.28754,0.01444386,0.17555,1.05537
99.644,16.34649,0.01424411,0.17585,1.05518
100.244,16.40571,0.01427308,0.17726,1.05498
100.844,16.46465,0.01558851,0.17761,1.05478
101.444,16.5234,0.0155901,0.17886,1.05459
102.044,16.58236,0.01699433,0.18074,1.05439
102.644,16.6415,0.01690274,0.18154,1.05419
103.244,16.7004,0.01558989,0.18345,1.05399
103.844,16.75907,0.01559,0.18412,1.0538
104.444,16.8177,0.01558996,0.18346,1.0536
105.044,16.87605,0.0154787,0.18687,1.0534
105.644,16.93466,0.01559693,0.18805,1.0532
106.244,16.99371,0.01450342,0.18943,1.053
106.844,17.05266,0.01548982,0.18969,1.0528
107.444,17.1118,0.01594238,0.19139,1.0526
108.044,17.17049,0.0155998,0.19348,1.0524
108.644,17.22905,0.01428492,0.19546,1.05219
109.244,17.28754,0.01476838,0.19696,1.05199
109.844,17.34627,0.01548507,0.19891,1.05179
110.444,17.40476,0.01426952,0.2002,1.05159
111.044,17.4635,0.01426511,0.20139,1.05138
111.644,17.52238,0.01558839,0.20358,1.05118
112.244,17.58098,0.01558999,0.20609,1.05098
112.844,17.6396,0.01597101,0.20691,1.05077
113.444,17.6982,0.0156,0.20917,1.05057
114.044,17.7566,0.0156,0.209,1.05036
114.644,17.815,0.01559996,0.20999,1.05016
115.244,17.87357,0.01552095,0.21041,1.04995
115.844,17.93185,0.01559705,0.21263,1.04974
116.444,17.99022,0.0156,0.21482,1.04954
117.044,18.04886,0.0156,0.21611,1.04933
117.644,18.10758,0.01559909,0.21647,1.04912
118.244,18.16658,0.01424514,0.21927,1.04891
118.844,18.22511,0.01455207,0.21981,1.04871
119.444,18.28346,0.01559026,0.22189,1.0485
120.044,18.342,0.01558763,0.22336,1.04829
120.644,18.40043,0.01691006,0.22581,1.04808
121.244,18.45873,0.0155883,0.22493,1.04787
121.844,18.51686,0.0153887,0.22805,1.04766
122.444,18.57529,0.01492988,0.22858,1.04745
123.044,18.63354,0.01492765,0.23106,1.04724
123.644,18.69219,0.01510952,0.23248,1.04703
124.244,18.75054,0.01494001,0.23389,1.04682
124.844,18.80857,0.01616019,0.23434,1.0466
125.444,18.86685,0.01625995,0.23802,1.04639
126.044,18.92495,0.01540628,0.23647,1.04618
126.644,18.98331,0.01494013,0.23997,1.04596
127.244,19.04158,0.01493985,0.24009,1.04575
127.844,19.0997,0.01625424,0.24122,1.04554
128.444,19.1581,0.01625001,0.24446,1.04532
129.044,19.21614,0.01625372,0.24513,1.04511
129.644,19.2742,0.01494406,0.24757,1.04489
130.244,19.3322,0.01493077,0.24831,1.04468
130.844,19.39005,0.01625021,0.2484,1.04446
131.444,19.4483,0.01630237,0.25117,1.04424
132.044,19.50668,0.01558975,0.25196,1.04403
132.644,19.56481,0.01559,0.25375,1.04381
133.244,19.62288,0.01559724,0.25339,1.04359
133.844,19.68057,0.01625688,0.25633,1.04337
134.444,19.73838,0.01624999,0.25642,1.04316
135.044,19.7963,0.01625026,0.2576,1.04294
135.644,19.85424,0.01526003,0.25767,1.04272
136.244,19.91218,0.01494012,0.2593,1.0425
136.844,19.97006,0.01626358,0.25839,1.04228
137.444,20.02815,0.01625995,0.25922,1.04206
138.044,20.08606,0.01618609,0.26158,1.04184
138.644,20.14396,0.01624992,0.26285,1.04162
139.244,20.20195,0.01624999,0.2616,1.04139
139.844,20.25984,0.01625142,0.26486,1.04117
140.444,20.3175,0.01527082,0.26397,1.04095
141.044,20.37521,0.01419911,0.26529,1.04073
141.644,20.43285,0.01394977,0.26415,1.0405
142.244,20.49023,0.0152587,0.26638,1.04028
142.844,20.5479,0.01394852,0.26806,1.04006
143.444,20.60567,0.01395,0.26785,1.03983
144.044,20.6634,0.01395974,0.26981,1.03961
144.644,20.7213,0.01527233,0.26904,1.03938
145.244,20.77907,0.01527,0.27018,1.03916
145.844,20.83683,0.01526977,0.26994,1.03893
146.444,20.89444,0.01549205,0.26993,1.0387
147.044,20.95189,0.01527005,0.27118,1.03848
147.644,21.00931,0.01527,0.27377,1.03825
148.244,21.0669,0.01526987,0.27356,1.03802
148.844,21.1246,0.01578275,0.27278,1.03779
149.444,21.18238,0.01591779,0.2736,1.03757
150.044,21.23989,0.01461003,0.27517,1.03734
150.644,21.29734,0.01460998,0.27512,1.03711
151.244,21.3549,0.01456287,0.27608,1.03688
151.844,21.41236,0.01582927,0.27653,1.03665
152.444,21.4701,0.01460999,0.27706,1.03642
153.044,21.52775,0.01461001,0.27765,1.03619
153.644,21.58536,0.01463743,0.27935,1.03596
154.244,21.64295,0.0161411,0.27887,1.03572
154.844,21.70045,0.01614053,0.28038,1.03549
155.444,21.75755,0.01482871,0.28062,1.03526
156.044,21.81475,0.01417694,0.27945,1.03503
156.644,21.8722,0.01374692,0.2826,1.03479
157.244,21.92993,0.01350998,0.28232,1.03456
157.844,21.9878,0.01480479,0.28169,1.03433
158.444,22.04544,0.01425062,0.28323,1.03409
159.044,22.10267,0.01449947,0.28474,1.03386
159.644,22.1601,0.01516505,0.28479,1.03362
160.244,22.21775,0.01518241,0.28445,1.03339
160.844,22.27535,0.0164798,0.28453,1.03315
161.444,22.33304,0.01616147,0.28535,1.03291
162.044,22.39025,0.01483228,0.28964,1.03268
162.644,22.44753,0.01341977,0.28731,1.03244
163.244,22.5049,0.01482988,0.28853,1.0322
163.844,22.5625,0.01484811,0.29052,1.03196
164.444,22.62013,0.01450013,0.29063,1.03173
165.044,22.67745,0.01317656,0.29182,1.03149
165.644,22.7347,0.0136063,0.29093,1.03125
166.244,22.79181,0.01586019,0.292,1.03101
166.844,22.8483,0.01581999,0.29268,1.03077
167.444,22.90559,0.01591064,0.29465,1.03053
168.044,22.96305,0.01581228,0.29497,1.03029
168.644,23.02076,0.01581,0.2947,1.03005
169.244,23.07859,0.01581,0.29524,1.0298
169.844,23.13583,0.01581,0.29537,1.02956
170.444,23.19321,0.01581012,0.29691,1.02932
171.044,23.2503,0.01547362,0.29766,1.02908
171.644,23.30763,0.01446127,0.29763,1.02883
172.244,23.36474,0.01448998,0.29717,1.02859
172.844,23.42195,0.01449,0.29702,1.02834
173.444,23.4792,0.01449003,0.29997,1.0281
174.044,23.5365,0.01486353,0.30154,1.02785
174.644,23.5935,0.01581027,0.30172,1.02761
175.244,23.65083,0.01580974,0.30158,1.02736
175.844,23.70792,0.01447777,0.30156,1.02712
176.444,23.76512,0.01732721,0.30224,1.02687
177.044,23.82229,0.01526639,0.30171,1.02662
177.644,23.8794,0.01449995,0.3012,1.02638
178.244,23.93666,0.01450001,0.30347,1.02613
178.844,23.99396,0.01454107,0.30477,1.02588
179.444,24.05111,0.01579264,0.30375,1.02563
180.044,24.1084,0.01549515,0.30249,1.02538
180.644,24.16563,0.0144936,0.30438,1.02513
181.244,24.2229,0.01450008,0.30387,1.02488
181.844,24.2803,0.01451538,0.30599,1.02463
182.444,24.33762,0.01581995,0.30596,1.02438
183.044,24.39498,0.01583269,0.306,1.02413
183.644,24.4522,0.01713306,0.30564,1.02388
184.244,24.50947,0.01586778,0.30559,1.02363
184.844,24.56665,0.01450261,0.306,1.02338
185.444,24.62394,0.01582695,0.30751,1.02312
186.044,24.6814,0.01582188,0.30863,1.02287
186.644,24.73855,0.01570608,0.30758,1.02262
187.244,24.79591,0.01580989,0.30768,1.02236
187.844,24.85286,0.01581,0.30865,1.02211
188.444,24.91,0.01580999,0.30757,1.02185
189.044,24.9674,0.01483508,0.30837,1.0216
189.644,25.0247,0.01481373,0.30827,1.02134
190.244,25.082,0.01613851,0.30822,1.02109
190.844,25.13888,0.01614,0.30969,1.02083
191.444,25.19594,0.01614,0.31079,1.02057
192.044,25.25313,0.01614,0.31278,1.02031
192.644,25.3101,0.01613999,0.31164,1.02006
193.244,25.36721,0.01580071,0.31341,1.0198
193.844,25.42417,0.01582573,0.3143,1.01954
194.444,25.48109,0.01450097,0.3159,1.01928
195.044,25.53813,0.01449993,0.31444,1.01902
195.644,25.59544,0.01522493,0.31658,1.01876
196.244,25.65258,0.01548992,0.31783,1.0185
196.844,25.7099,0.01549,0.31853,1.01824
197.444,25.767,0.01549,0.32088,1.01798
198.044,25.82423,0.01549,0.31982,1.01772
198.644,25.88137,0.01549,0.32171,1.01746
199.244,25.93851,0.01549,0.32163,1.01719
199.844,25.9957,0.01549,0.32263,1.01693
200.444,26.05284,0.01549008,0.32181,1.01667
201.044,26.1098,0.01547872,0.32471,1.01641
201.644,26.16695,0.01679986,0.32419,1.01614
202.244,26.224,0.01660497,0.3257,1.01588
202.844,26.28098,0.01547987,0.32611,1.01561
203.444,26.338,0.01548,0.32682,1.01535
204.044,26.39466,0.01548,0.32819,1.01508
204.644,26.4515,0.01548,0.32895,1.01482
205.244,26.50866,0.01548,0.32925,1.01455
205.844,26.5659,0.01548,0.33016,1.01428
206.444,26.62335,0.01548,0.32948,1.01401
207.044,26.68037,0.01548,0.33118,1.01375
207.644,26.73755,0.01548029,0.33013,1.01348
208.244,26.7947,0.01653013,0.33125,1.01321
208.844,26.8518,0.01681477,0.33311,1.01294
209.444,26.90894,0.01580977,0.33485,1.01267
210.044,26.96585,0.01581,0.33454,1.0124
210.644,27.0226,0.01580998,0.33523,1.01213
211.244,27.07975,0.01611958,0.33534,1.01186
211.844,27.1368,0.01713049,0.3375,1.01159
212.444,27.1942,0.01676193,0.33633,1.01132
213.044,27.2517,0.01580675,0.33748,1.01105
213.644,27.30898,0.01580998,0.33718,1.01077
214.244,27.3662,0.01571404,0.33913,1.0105
214.844,27.4235,0.01584554,0.33987,1.01023
215.444,27.4807,0.01582,0.34145,1.00995
216.044,27.53785,0.01582,0.34232,1.00968
216.644,27.59508,0.01582,0.34112,1.00941
217.244,27.652,0.01582,0.34327,1.00913
217.844,27.70924,0.01582,0.34453,1.00886
218.444,27.7663,0.01582,0.34512,1.00858
219.044,27.82335,0.01581531,0.34539,1.0083
219.644,27.88046,0.01713956,0.34682,1.00803
220.244,27.9375,0.01714643,0.34964,1.00775
220.844,27.99452,0.01582182,0.34977,1.00747
221.444,28.05155,0.01582,0.35007,1.00719
222.044,28.10858,0.01582,0.35104,1.00692
222.644,28.1654,0.01582,0.35269,1.00664
223.244,28.2225,0.01581998,0.35249,1.00636
223.844,28.2794,0.01583124,0.35352,1.00608
224.444,28.33645,0.01482813,0.35628,1.0058
225.044,28.39357,0.01450142,0.35702,1.00552
225.644,28.4506,0.01580226,0.35874,1.00524
226.244,28.50773,0.0171302,0.35866,1.00496
226.844,28.56483,0.01710636,0.36041,1.00467
227.444,28.6218,0.01580962,0.36226,1.00439
228.044,28.67891,0.01581,0.36409,1.00411
228.644,28.736,0.01580999,0.36383,1.00383
229.244,28.7929,0.01579316,0.36487,1.00354
229.844,28.84996,0.01481994,0.36756,1.00326
230.444,28.90713,0.01482,0.36881,1.00298
231.044,28.9643,0.01483184,0.37052,1.00269
231.644,29.0214,0.01614209,0.37182,1.00241
232.244,29.0785,0.01487611,0.3769,1.00212
232.844,29.13533,0.01484784,0.37748,1.00183
233.444,29.1924,0.01580817,0.38072,1.00155
234.044,29.24946,0.01581,0.38173,1.00126
234.644,29.3067,0.01581018,0.38503,1.00097
235.244,29.364,0.01544431,0.38892,1.00069
235.844,29.42124,0.01411453,0.38995,1.0004
236.444,29.47846,0.01443576,0.39416,1.00011
237.044,29.53564,0.01483011,0.39663,0.99982
237.644,29.5928,0.01482995,0.39925,0.99953
238.244,29.64987,0.01483451,0.40397,0.99924
238.844,29.7069,0.0138402,0.40886,0.99895
239.444,29.76393,0.01384,0.41278,0.99866
240.044,29.82116,0.01384001,0.4171,0.99837
240.644,29.87835,0.01381438,0.42266,0.99808
241.244,29.9356,0.01417017,0.42934,0.99779
241.844,29.99281,0.0141848,0.43213,0.99749
242.444,30.04982,0.01547995,0.43961,0.9972
243.044,30.1068,0.01548675,0.44724,0.99691
243.644,30.16396,0.01417161,0.45444,0.99662
244.244,30.221,0.01523696,0.46229,0.99632
244.844,30.27815,0.01549015,0.47332,0.99603
245.444,30.33533,0.01512791,0.48103,0.99573
246.044,30.3924,0.01515999,0.49068,0.99544
246.644,30.4497,0.01516,0.5049,0.99514
247.244,30.5068,0.01516,0.51743,0.99484
247.844,30.56389,0.01516,0.5328,0.99455
248.444,30.62105,0.01516,0.55037,0.99425
249.044,30.67819,0.01515976,0.56892,0.99395
249.644,30.73537,0.01606238,0.59053,0.99366
250.244,30.7926,0.01614998,0.61448,0.99336
250.844,30.8498,0.01615,0.64072,0.99306
251.444,30.9072,0.01615599,0.67121,0.99276
252.044,30.96438,0.01451104,0.70829,0.99246
252.644,31.02174,0.01450236,0.75099,0.99216
253.244,31.07905,0.01515882,0.79828,0.99186
253.844,31.13666,0.01515996,0.85221,0.99156
254.444,31.19428,0.01593565,0.91809,0.99126
255.044,31.25187,0.01647985,0.98608,0.99095
255.644,31.30958,0.01518588,1.05566,0.99065
256.244,31.3672,0.01516008,1.1171,0.99035
256.844,31.4249,0.01516,1.16956,0.99005
257.444,31.4826,0.01516282,1.20493,0.98974
258.044,31.5403,0.01382471,1.21576,0.98944
258.644,31.5981,0.01516145,1.20993,0.98913
259.244,31.65578,0.01514362,1.17503,0.98883
259.844,31.71329,0.01417052,1.12271,0.98852
260.444,31.77086,0.01383602,1.05031,0.98822
261.044,31.8281,0.01313678,0.97534,0.98791
261.644,31.88526,0.01448911,0.89369,0.98761
262.244,31.94223,0.01449006,0.81787,0.9873
262.844,31.9991,0.01575118,0.74849,0.98699
263.444,32.05599,0.0148412,0.68503,0.98668
264.044,32.1128,0.0135035,0.63294,0.98638
264.644,32.16944,0.01351,0.58941,0.98607
265.244,32.2262,0.01351,0.55306,0.98576
265.844,32.28294,0.01351,0.51982,0.98545
266.444,32.33983,0.01351,0.49556,0.98514
267.044,32.3966,0.01351,0.47332,0.98483
267.644,32.45327,0.01351001,0.4553,0.98452
268.244,32.51,0.0135104,0.44177,0.98421
268.844,32.5668,0.01251926,0.42998,0.98389
269.444,32.62389,0.01251979,0.41958,0.98358
270.044,32.68083,0.01324859,0.41035,0.98327
270.644,32.73778,0.01383012,0.40202,0.98296
271.244,32.79463,0.01383,0.39852,0.98264
271.844,32.85113,0.01383,0.39498,0.98233
272.444,32.90805,0.01382947,0.39179,0.98201
273.044,32.96502,0.01352044,0.38942,0.9817
273.644,33.02219,0.01285593,0.38608,0.98138
274.244,33.0792,0.01285,0.38284,0.98107
274.844,33.1363,0.01285,0.38088,0.98075
275.444,33.19344,0.01285,0.37931,0.98044
276.044,33.2507,0.01285213,0.37877,0.98012
276.644,33.30766,0.01505228,0.3773,0.9798
277.244,33.3647,0.01513749,0.37665,0.97948
277.844,33.42181,0.01383716,0.37516,0.97917
278.444,33.47886,0.01384,0.37546,0.97885
279.044,33.5359,0.01384,0.37513,0.97853
279.644,33.5931,0.01383996,0.37566,0.97821
280.244,33.6503,0.01383225,0.37515,0.97789
280.844,33.70745,0.01219085,0.37311,0.97757
281.444,33.7645,0.01219016,0.37421,0.97725
282.044,33.82182,0.01183302,0.37244,0.97693
282.644,33.87917,0.01186008,0.3747,0.9766
283.244,33.9364,0.01150626,0.37436,0.97628
283.844,33.99369,0.01290195,0.37473,0.97596
284.444,34.0509,0.01285001,0.37533,0.97564
285.044,34.10799,0.01285,0.3742,0.97531
285.644,34.16515,0.01285,0.37464,0.97499
286.244,34.22224,0.01284693,0.37406,0.97466
286.844,34.27919,0.01218807,0.3749,0.97434
287.444,34.33632,0.01152864,0.37484,0.97401
288.044,34.39354,0.01152501,0.37529,0.97369
288.644,34.45098,0.01284909,0.37594,0.97336
289.244,34.5083,0.01284512,0.37379,0.97304
289.844,34.56555,0.0102084,0.37344,0.97271
290.444,34.62274,0.01021767,0.37472,0.97238
291.044,34.68003,0.01153006,0.37584,0.97205
291.644,34.73741,0.01153,0.37481,0.97172
292.244,34.79463,0.01153,0.37647,0.9714
292.844,34.85188,0.01152837,0.37529,0.97107
293.444,34.90892,0.01054323,0.37496,0.97074
294.044,34.96605,0.01054375,0.37508,0.97041
294.644,35.0233,0.00923328,0.37601,0.97008
295.244,35.08068,0.01026332,0.37754,0.96975
295.844,35.13808,0.01054147,0.37759,0.96941
296.444,35.19532,0.01186624,0.37715,0.96908
297.044,35.2528,0.01185994,0.37741,0.96875
297.644,35.3103,0.01052718,0.37645,0.96842
298.244,35.3677,0.00988047,0.37672,0.96808
298.844,35.42514,0.01101402,0.37597,0.96775
299.444,35.4825,0.01053961,0.377,0.96742
300.044,35.54,0.01054,0.37679,0.96708
300.644,35.59744,0.01054035,0.37516,0.96675
301.244,35.65486,0.009848177,0.3744,0.96641
301.844,35.71218,0.009217664,0.37637,0.96608
302.444,35.76939,0.00922044,0.37549,0.96574
303.044,35.8267,0.009867371,0.37696,0.9654
303.644,35.88414,0.009879999,0.37594,0.96507
304.244,35.94165,0.009886322,0.37632,0.96473
304.844,35.99927,0.01118798,0.37596,0.96439
305.444,36.0565,0.01119997,0.37721,0.96405
306.044,36.11378,0.01118057,0.37635,0.96371
306.644,36.17109,0.009889729,0.37847,0.96337
307.244,36.22853,0.00988704,0.37839,0.96303
307.844,36.2859,0.008896446,0.37798,0.96269
308.444,36.34345,0.008900005,0.37893,0.96235
309.044,36.4009,0.008904282,0.37704,0.96201
309.644,36.4585,0.01021974,0.37777,0.96167
310.244,36.5158,0.008944933,0.37655,0.96133
310.844,36.5732,0.008900009,0.37747,0.96099
311.444,36.63068,0.008899995,0.37677,0.96064
312.044,36.6879,0.00892351,0.37868,0.9603
312.644,36.74522,0.009888171,0.37761,0.95996
313.244,36.8026,0.009940999,0.37793,0.95961
313.844,36.85998,0.008569998,0.3765,0.95927
314.444,36.9174,0.008593798,0.3789,0.95892
315.044,36.9748,0.007910479,0.37705,0.95858
315.644,37.03204,0.00791,0.3786,0.95823
316.244,37.08937,0.00791039,0.37805,0.95789
316.844,37.1466,0.008910805,0.37943,0.95754
317.444,37.204,0.0101941,0.37919,0.95719
318.044,37.26137,0.009128361,0.3782,0.95684
318.644,37.3187,0.008329486,0.37903,0.9565
319.244,37.37604,0.007910067,0.37916,0.95615
319.844,37.43295,0.008150879,0.37969,0.9558
320.444,37.4904,0.009229875,0.38197,0.95545
321.044,37.54788,0.007920904,0.3823,0.9551
321.644,37.6054,0.008202407,0.38132,0.95475
322.244,37.66341,0.009230278,0.38234,0.9544
322.844,37.72071,0.0092343,0.38106,0.95405
323.444,37.77816,0.007653582,0.38236,0.9537
324.044,37.83558,0.00758006,0.38244,0.95334
324.644,37.8931,0.00758,0.38359,0.95299
325.244,37.95073,0.00758,0.38314,0.95264
325.844,38.00816,0.00758,0.38179,0.95228
326.444,38.06575,0.007580002,0.38045,0.95193
327.044,38.1235,0.00758308,0.38201,0.95158
327.644,38.18107,0.006592377,0.37982,0.95122
328.244,38.23888,0.005267706,0.38193,0.95087
328.844,38.29653,0.006533031,0.38176,0.95051
329.444,38.3542,0.00725036,0.37975,0.95015
330.044,38.41194,0.00725,0.38006,0.9498
330.644,38.46971,0.00725,0.3818,0.94944
331.244,38.52755,0.00725,0.38004,0.94908
331.844,38.58513,0.00725,0.38207,0.94873
332.444,38.64275,0.00725,0.38189,0.94837
333.044,38.7002,0.00725,0.38059,0.94801
333.644,38.75792,0.00725,0.38242,0.94765
334.244,38.81556,0.00725,0.38168,0.94729
334.844,38.87335,0.00725,0.38297,0.94693
335.444,38.93118,0.00725,0.38351,0.94657
336.044,38.98883,0.00725,0.38303,0.94621
336.644,39.0465,0.00725,0.38264,0.94585
337.244,39.10412,0.007250424,0.38339,0.94549
337.844,39.16167,0.005958466,0.38367,0.94512
338.444,39.2194,0.00593991,0.38513,0.94476
339.044,39.277,0.00712035,0.38512,0.9444
339.644,39.33485,0.00725387,0.38482,0.94404
340.244,39.39224,0.00627702,0.3858,0.94367
340.844,39.4499,0.004952507,0.38649,0.94331
341.444,39.50761,0.004619909,0.38659,0.94294
342.044,39.56472,0.004619497,0.38749,0.94258
342.644,39.62274,0.0057104,0.38893,0.94221
343.244,39.6805,0.00561043,0.38889,0.94185
343.844,39.7385,0.004955505,0.3886,0.94148
344.444,39.79667,0.004947679,0.39031,0.94111
345.044,39.85427,0.00330252,0.39045,0.94074
345.644,39.91198,0.003300001,0.39173,0.94038
346.244,39.9699,0.003300001,0.39046,0.94001
346.844,40.02779,0.00348063,0.39111,0.93964
347.444,40.08575,0.004291977,0.39326,0.93927
348.044,40.14372,0.00298391,0.39245,0.9389
348.644,40.2015,0.00294274,0.39463,0.93853
349.244,40.25934,0.004290058,0.39493,0.93816
349.844,40.3172,0.004289994,0.39816,0.93779
350.444,40.37505,0.00427447,0.39689,0.93742
351.044,40.4328,0.003301734,0.39713,0.93705
351.644,40.49055,0.00263851,0.39853,0.93667
352.244,40.54824,0.00264,0.39689,0.9363
352.844,40.60613,0.00264004,0.39948,0.93593
353.444,40.66413,0.0018807,0.40082,0.93555
354.044,40.72201,0.002618646,0.40097,0.93518
354.644,40.77989,0.00132333,0.40339,0.93481
355.244,40.83752,0.001320125,0.40186,0.93443
355.844,40.89508,0.00165709,0.40437,0.93406
356.444,40.95295,0.001979905,0.40435,0.93368
357.044,41.01084,0.00198,0.40688,0.9333
357.644,41.06904,0.001972385,0.40522,0.93293
358.244,41.12713,0.000749207,0.40753,0.93255
358.844,41.18517,-0.0003240117,0.40675,0.93217
359.444,41.2431,-0.0003200015,0.40727,0.93179
360.044,41.30134,-0.0003198948,0.41199,0.93142
360.644,41.35921,-0.00137082,0.40949,0.93104
361.244,41.41706,-0.000791465,0.4108,0.93066
361.844,41.4745,-0.001970482,0.41283,0.93028
362.444,41.5324,-0.001971197,0.41739,0.9299
363.044,41.59036,-0.00163949,0.41689,0.92952
363.644,41.64848,-0.001641255,0.41715,0.92914
364.244,41.7066,-0.002964741,0.41926,0.92875
364.844,41.7644,-0.002960001,0.42286,0.92837
365.444,41.82221,-0.00295742,0.4224,0.92799
366.044,41.88019,-0.004269684,0.42268,0.92761
366.644,41.93817,-0.005608177,0.42295,0.92722
367.244,41.99628,-0.005590014,0.42854,0.92684
367.844,42.05434,-0.00559001,0.42925,0.92646
368.444,42.11229,-0.005601735,0.43161,0.92607
369.044,42.17029,-0.00691008,0.43032,0.92569
369.644,42.2284,-0.00691,0.43259,0.9253
370.244,42.28641,-0.00691001,0.43533,0.92492
370.844,42.34427,-0.006958881,0.43545,0.92453
371.444,42.40231,-0.008220884,0.4376,0.92414
372.044,42.4604,-0.00955041,0.43841,0.92376
372.644,42.5184,-0.01038064,0.44188,0.92337
373.244,42.57663,-0.0108601,0.44179,0.92298
373.844,42.63469,-0.01110123,0.44324,0.92259
374.444,42.69285,-0.01218026,0.4426,0.9222
375.044,42.7511,-0.01218523,0.44418,0.92181
375.644,42.8093,-0.01349047,0.44609,0.92142
376.244,42.86744,-0.01481357,0.44607,0.92103
376.844,42.92572,-0.01480294,0.44858,0.92064
377.444,42.984,-0.01612255,0.45005,0.92025
378.044,43.04235,-0.01859954,0.44967,0.91986
378.644,43.1004,-0.0190622,0.45349,0.91947
379.244,43.15844,-0.0199699,0.45298,0.91908
379.844,43.21658,-0.02143775,0.45556,0.91868
380.444,43.27458,-0.02272581,0.45627,0.91829
381.044,43.33271,-0.02367692,0.45638,0.9179
381.644,43.39085,-0.02416151,0.45956,0.9175
382.244,43.44892,-0.02551968,0.45937,0.91711
382.844,43.5071,-0.02856926,0.46204,0.91671
383.444,43.56511,-0.03069197,0.45999,0.91632
384.044,43.62317,-0.03188145,0.46104,0.91592
384.644,43.68128,-0.03475133,0.46205,0.91552
385.244,43.73949,-0.03599885,0.46413,0.91513
385.844,43.79743,-0.03756161,0.46615,0.91473
386.444,43.85546,-0.04059393,0.46772,0.91433
387.044,43.91345,-0.04219497,0.47072,0.91393
387.644,43.97162,-0.04503895,0.47434,0.91354
388.244,44.03,-0.04807997,0.4745,0.91314
388.844,44.08832,-0.0496778,0.47428,0.91274
389.444,44.14663,-0.05282953,0.47951,0.91234
390.044,44.20508,-0.05589694,0.48041,0.91194
390.644,44.26328,-0.06096945,0.48326,0.91154
391.244,44.32147,-0.06581825,0.48612,0.91114
391.844,44.37965,-0.06913468,0.48953,0.91073
392.444,44.43804,-0.07371643,0.48865,0.91033
393.044,44.4964,-0.07627149,0.49028,0.90993
393.644,44.5548,-0.07929758,0.49421,0.90953
394.244,44.61315,-0.08379559,0.49652,0.90912
394.844,44.6716,-0.08846691,0.49845,0.90872
395.444,44.73001,-0.09330989,0.50334,0.90832
396.044,44.78823,-0.09832184,0.50274,0.90791
396.644,44.84626,-0.10359,0.50677,0.90751
397.244,44.9047,-0.10955,0.51052,0.9071
397.844,44.96318,-0.11533,0.51067,0.9067
398.444,45.02199,-0.12085,0.51595,0.90629
399.044,45.0803,-0.12693,0.51935,0.90588
399.644,45.1386,-0.13378,0.52305,0.90548
400.244,45.19695,-0.14056,0.52711,0.90507
400.844,45.25544,-0.14868,0.52984,0.90466
401.444,45.314,-0.15651,0.53119,0.90425
402.044,45.3722,-0.16386,0.53565,0.90384
402.644,45.43046,-0.17079,0.54028,0.90343
403.244,45.48875,-0.18031,0.54047,0.90302
403.844,45.54717,-0.18855,0.5444,0.90261
404.444,45.60545,-0.19742,0.54713,0.9022
405.044,45.6637,-0.20712,0.54792,0.90179
405.644,45.722,-0.2159,0.55375,0.90138
406.244,45.78048,-0.22492,0.55633,0.90097
406.844,45.83885,-0.2356,0.55578,0.90056
407.444,45.89718,-0.24553,0.56139,0.90014
408.044,45.95551,-0.25783,0.56747,0.89973
408.644,46.01404,-0.27079,0.57206,0.89932
409.244,46.07292,-0.28122,0.5824,0.8989
409.844,46.13151,-0.29309,0.58829,0.89849
410.444,46.18996,-0.3065,0.58833,0.89807
411.044,46.24832,-0.31928,0.59488,0.89766
411.644,46.30665,-0.33344,0.60303,0.89724
412.244,46.36513,-0.34925,0.61573,0.89683
412.844,46.42345,-0.36541,0.62003,0.89641
413.444,46.48205,-0.38058,0.63198,0.89599
414.044,46.54036,-0.39593,0.6488,0.89558
414.644,46.59891,-0.41265,0.66768,0.89516
415.244,46.6573,-0.4304,0.67843,0.89474
415.844,46.7158,-0.45171,0.67757,0.89432
416.444,46.7744,-0.47152,0.68444,0.8939
417.044,46.83302,-0.49205,0.68318,0.89348
417.644,46.89145,-0.51121,0.67849,0.89306
418.244,46.9499,-0.53175,0.68841,0.89264
418.844,47.0084,-0.55299,0.70673,0.89222
419.444,47.067,-0.57676,0.71579,0.8918
420.044,47.12573,-0.60025,0.71733,0.89138
420.644,47.1844,-0.62302,0.74112,0.89096
421.244,47.2431,-0.64997,0.7591,0.89053
421.844,47.302,-0.67477,0.75566,0.89011
422.444,47.36075,-0.70196,0.75633,0.88969
423.044,47.41946,-0.72903,0.77479,0.88926
423.644,47.478,-0.75806,0.80192,0.88884
424.244,47.53668,-0.7881,0.81115,0.88841
424.844,47.59537,-0.81997,0.83509,0.88799
425.444,47.65428,-0.85154,0.85396,0.88756
426.044,47.7129,-0.88565,0.87798,0.88714
426.644,47.7717,-0.92024,0.88784,0.88671
427.244,47.83051,-0.95801,0.89073,0.88628
427.844,47.88928,-0.99293,0.89432,0.88586
428.444,47.9481,-1.03013,0.88702,0.88543
429.044,48.00633,-1.06787,0.88552,0.885
429.644,48.06478,-1.10576,0.88442,0.88457
430.244,48.1237,-1.14725,0.89362,0.88414
430.844,48.18257,-1.18761,0.8974,0.88372
431.444,48.2416,-1.2274,0.89935,0.88329
432.044,48.30042,-1.26918,0.89536,0.88286
432.644,48.3591,-1.31419,0.89104,0.88243
433.244,48.41783,-1.35556,0.89299,0.88199
433.844,48.4762,-1.40094,0.9019,0.88156
434.444,48.53477,-1.44477,0.90302,0.88113
435.044,48.5933,-1.49146,0.9032,0.8807
435.644,48.6519,-1.53558,0.90141,0.88027
436.244,48.71072,-1.5823,0.90247,0.87983
436.844,48.76933,-1.62873,0.9001,0.8794
437.444,48.82788,-1.67624,0.89674,0.87897
438.044,48.8866,-1.72478,0.89592,0.87853
438.644,48.9452,-1.77223,0.89448,0.8781
439.244,49.0041,-1.82086,0.89208,0.87766
439.844,49.0627,-1.86805,0.88656,0.87723
440.444,49.1211,-1.91839,0.8822,0.87679
441.044,49.1796,-1.96492,0.87604,0.87635
441.644,49.2382,-2.01407,0.86645,0.87592
442.244,49.2965,-2.06017,0.85846,0.87548
442.844,49.35501,-2.10965,0.8451,0.87504
443.444,49.41355,-2.15488,0.83519,0.8746
444.044,49.47172,-2.20099,0.82267,0.87417
444.644,49.53063,-2.24633,0.80916,0.87373
445.244,49.58899,-2.29049,0.79276,0.87329
445.844,49.64788,-2.33592,0.77775,0.87285
446.444,49.70664,-2.37688,0.75942,0.87241
447.044,49.76528,-2.41916,0.74081,0.87197
447.644,49.82394,-2.45722,0.72108,0.87153
448.244,49.88218,-2.49681,0.70215,0.87109
448.844,49.9407,-2.53113,0.67858,0.87064
449.444,49.99941,-2.56789,0.65703,0.8702
450.044,50.05831,-2.60041,0.63366,0.86976
450.644,50.1171,-2.63187,0.61475,0.86932
451.244,50.17588,-2.66029,0.59039,0.86887
451.844,50.23438,-2.68868,0.56628,0.86843
452.444,50.29305,-2.71439,0.54335,0.86798
453.044,50.3517,-2.73867,0.52126,0.86754
453.644,50.4103,-2.76112,0.50026,0.86709
454.244,50.46887,-2.78062,0.47963,0.86665
454.844,50.52735,-2.80082,0.45672,0.8662
455.444,50.58583,-2.81922,0.43812,0.86576
456.044,50.64419,-2.83643,0.41942,0.86531
456.644,50.7027,-2.85033,0.40005,0.86486
457.244,50.76146,-2.8668,0.387,0.86442
457.844,50.82014,-2.88042,0.37077,0.86397
458.444,50.87891,-2.89311,0.3584,0.86352
459.044,50.93745,-2.90553,0.34247,0.86307
459.644,50.99596,-2.91686,0.3319,0.86262
460.244,51.05455,-2.92791,0.32073,0.86217
460.844,51.11326,-2.93872,0.30984,0.86172
461.444,51.1721,-2.94835,0.29961,0.86127
462.044,51.23081,-2.95776,0.28463,0.86082
462.644,51.28969,-2.96693,0.27644,0.86037
463.244,51.34838,-2.97568,0.26656,0.85992
463.844,51.4071,-2.98265,0.25729,0.85947
464.444,51.46591,-2.98975,0.24582,0.85901
465.044,51.52473,-2.9965,0.23889,0.85856
465.644,51.5834,-3.00374,0.22891,0.85811
466.244,51.6421,-3.00989,0.21954,0.85766
466.844,51.70102,-3.01628,0.20999,0.8572
467.444,51.75982,-3.02209,0.20116,0.85675
468.044,51.81873,-3.02796,0.19441,0.85629
468.644,51.8776,-3.03291,0.18489,0.85584
469.244,51.9364,-3.03848,0.17554,0.85538
469.844,51.99535,-3.04297,0.17089,0.85493
470.444,52.0543,-3.04736,0.16036,0.85447
471.044,52.1133,-3.05237,0.15449,0.85401
471.644,52.17219,-3.057,0.14528,0.85356
472.244,52.23109,-3.05966,0.13943,0.8531
472.844,52.2896,-3.06346,0.1323,0.85264
473.444,52.3484,-3.06779,0.12487,0.85218
474.044,52.40732,-3.06959,0.11912,0.85172
474.644,52.4664,-3.07435,0.11142,0.85126
475.244,52.5256,-3.07892,0.10493,0.8508
475.844,52.58449,-3.08214,0.10107,0.85034
476.444,52.6435,-3.08528,0.09712565,0.84988
477.044,52.7022,-3.08648,0.08746495,0.84942
477.644,52.76119,-3.08979,0.08376481,0.84896
478.244,52.82036,-3.0923,0.0793353,0.8485
478.844,52.8795,-3.09495,0.07573134,0.84804
479.444,52.93864,-3.0972,0.07003285,0.84758
480.044,52.9976,-3.10013,0.06716538,0.84711
480.644,53.05665,-3.10346,0.06272851,0.84665
481.244,53.1157,-3.10571,0.06030315,0.84619
481.844,53.17474,-3.10737,0.05597986,0.84572
482.444,53.23384,-3.10785,0.05309455,0.84526
483.044,53.2929,-3.11108,0.05111884,0.84479
483.644,53.3519,-3.11354,0.04812669,0.84433
484.244,53.41091,-3.11575,0.0439339,0.84386
484.844,53.46985,-3.11717,0.04051272,0.8434
485.444,53.52895,-3.11886,0.03954123,0.84293
486.044,53.5878,-3.12123,0.03568305,0.84247
486.644,53.6469,-3.12269,0.0333418,0.842
487.244,53.70585,-3.12432,0.03354517,0.84153
487.844,53.76504,-3.12479,0.03075648,0.84106
488.444,53.82379,-3.12529,0.02882519,0.84059
489.044,53.8828,-3.12674,0.02765115,0.84013
489.644,53.94178,-3.12934,0.02488383,0.83966
490.244,54.00085,-3.13068,0.02371715,0.83919
490.844,54.0596,-3.13332,0.02423158,0.83872
491.444,54.11857,-3.13468,0.02335541,0.83825
492.044,54.17756,-3.13495,0.021503,0.83778
492.644,54.23655,-3.13508,0.02031219,0.83731
493.244,54.2959,-3.13745,0.01847892,0.83684
493.844,54.3551,-3.13868,0.01905689,0.83636
494.444,54.4143,-3.14003,0.01814201,0.83589
495.044,54.47348,-3.1407,0.01749045,0.83542
495.644,54.53255,-3.14199,0.01876671,0.83495
496.244,54.5915,-3.1431,0.02029523,0.83447
496.844,54.65054,-3.14434,0.02281508,0.834
497.444,54.7094,-3.14463,0.02530952,0.83353
498.044,54.7684,-3.14616,0.02686693,0.83305
498.644,54.82748,-3.14861,0.02900467,0.83258
499.244,54.8864,-3.14859,0.03018686,0.8321
499.844,54.94559,-3.14985,0.02771341,0.83163
500.444,55.0047,-3.15072,0.0322987,0.83115
501.044,55.06378,-3.15264,0.03507582,0.83067
501.644,55.12282,-3.1537,0.03260972,0.8302
502.244,55.18179,-3.15249,0.03138226,0.82972
502.844,55.24083,-3.15425,0.0317106,0.82924
503.444,55.3,-3.1555,0.02908125,0.82877
504.044,55.35925,-3.15649,0.02951254,0.82829
504.644,55.4184,-3.1565,0.02941281,0.82781
505.244,55.4777,-3.15781,0.02657392,0.82733
505.844,55.5368,-3.15916,0.02454139,0.82685
506.444,55.5959,-3.15893,0.02422153,0.82637
507.044,55.65518,-3.15906,0.0226535,0.82589
507.644,55.71441,-3.16143,0.02215218,0.82541
508.244,55.77381,-3.16143,0.02062492,0.82493
508.844,55.8331,-3.16157,0.02206392,0.82445
509.444,55.89232,-3.16277,0.01857366,0.82397
510.044,55.9516,-3.16404,0.01849777,0.82349
510.644,56.01079,-3.16578,0.0160963,0.823
511.244,56.07037,-3.1667,0.01711535,0.82252
511.844,56.1299,-3.16538,0.01432045,0.82204
512.444,56.1893,-3.1667,0.0152126,0.82155
513.044,56.24866,-3.16756,0.01549893,0.82107
513.644,56.30765,-3.16793,0.013744,0.82059
514.244,56.3668,-3.17071,0.01439358,0.8201
514.844,56.426,-3.16967,0.01222198,0.81962
515.444,56.48531,-3.17107,0.01138287,0.81913
516.044,56.54486,-3.17146,0.01122407,0.81865
516.644,56.60426,-3.17196,0.01141152,0.81816
517.244,56.6637,-3.17196,0.01059828,0.81767
517.844,56.72302,-3.17287,0.009042308,0.81719
518.444,56.78232,-3.17329,0.008600328,0.8167
519.044,56.84157,-3.1746,0.008607189,0.81621
519.644,56.90119,-3.17591,0.00794514,0.81572
520.244,56.9606,-3.1759,0.0069565,0.81524
520.844,57.02006,-3.17592,0.00628891,0.81475
521.444,57.0793,-3.17723,0.008167183,0.81426
522.044,57.13854,-3.17855,0.0073539,0.81377
522.644,57.1981,-3.17855,0.005170153,0.81328
523.244,57.2573,-3.17927,0.006574143,0.81279
523.844,57.31674,-3.17855,0.007583918,0.8123
524.444,57.37607,-3.17855,0.00564891,0.81181
525.044,57.4356,-3.17982,0.00603024,0.81132
525.644,57.4952,-3.17987,0.004641264,0.81083
526.244,57.5546,-3.18209,0.004361669,0.81034
526.844,57.6141,-3.1825,0.004220568,0.80984
527.444,57.673,-3.18117,0.002194106,0.80935
528.044,57.73248,-3.18175,0.00201117,0.80886
528.644,57.79173,-3.1825,0.002072515,0.80836
529.244,57.85128,-3.18251,0.001468933,0.80787
529.844,57.911,-3.18382,0.002387128,0.80738
530.444,57.9702,-3.18382,0.001172013,0.80688
531.044,58.0296,-3.18514,0.000927809,0.80639
531.644,58.08899,-3.18514,-0.00167493,0.80589
532.244,58.14849,-3.18645,-0.001429075,0.8054
532.844,58.20791,-3.18646,-0.000352634,0.8049
533.444,58.2674,-3.18777,-0.0006999434,0.80441
534.044,58.32676,-3.18883,-0.00189321,0.80391
534.644,58.3863,-3.18876,-0.00191028,0.80341
535.244,58.44574,-3.18909,-0.002034,0.80292
535.844,58.50509,-3.18909,-0.002106225,0.80242
536.444,58.56459,-3.18904,-0.005685258,0.80192
537.044,58.62385,-3.1904,-0.005024289,0.80142
537.644,58.6833,-3.19056,-0.003022898,0.80092
538.244,58.74285,-3.19075,-0.005181265,0.80042
538.844,58.80236,-3.19037,-0.00552516,0.79993
539.444,58.86209,-3.1904,-0.00536581,0.79943
540.044,58.9217,-3.1904,-0.008892514,0.79893
540.644,58.9813,-3.19172,-0.00787209,0.79843
541.244,59.0409,-3.19337,-0.008583164,0.79793
541.844,59.10031,-3.19337,-0.00853434,0.79742
542.444,59.15985,-3.19436,-0.01069616,0.79692
543.044,59.2194,-3.19436,-0.00977589,0.79642
543.644,59.2789,-3.19304,-0.01074279,0.79592
544.244,59.33845,-3.19304,-0.01044561,0.79542
544.844,59.39779,-3.19436,-0.01056514,0.79491
545.444,59.4573,-3.19436,-0.0109742,0.79441
546.044,59.5167,-3.19534,-0.01174398,0.79391
546.644,59.57635,-3.19566,-0.01198491,0.7934
547.244,59.636,-3.19467,-0.01322255,0.7929
547.844,59.69559,-3.19444,-0.01296849,0.7924
548.444,59.75521,-3.19568,-0.01465516,0.79189
549.044,59.8149,-3.19568,-0.01318577,0.79139
549.644,59.8744,-3.19568,-0.01446873,0.79088
550.244,59.93408,-3.19568,-0.0131564,0.79038
550.844,59.99391,-3.19699,-0.01303427,0.78987
551.444,60.0535,-3.19698,-0.01553651,0.78936
552.044,60.1134,-3.19802,-0.01579089,0.78886
552.644,60.17309,-3.19799,-0.01620103,0.78835
553.244,60.23276,-3.19799,-0.01784842,0.78784
553.844,60.2924,-3.19865,-0.01808843,0.78733
554.444,60.3518,-3.19997,-0.01808198,0.78683
555.044,60.41146,-3.19864,-0.01737133,0.78632
555.644,60.4711,-3.20001,-0.01809625,0.78581
556.244,60.53103,-3.19996,-0.01917307,0.7853
556.844,60.5906,-3.19996,-0.02102434,0.78479
557.444,60.65034,-3.20031,-0.02077878,0.78428
558.044,60.71003,-3.20095,-0.02034195,0.78377
558.644,60.76984,-3.20095,-0.01988443,0.78326
559.244,60.8297,-3.20128,-0.02323258,0.78275
559.844,60.8895,-3.20259,-0.02165261,0.78224
560.444,60.9493,-3.20259,-0.02307362,0.78173
561.044,61.00884,-3.20391,-0.02169251,0.78122
561.644,61.06855,-3.20391,-0.02260559,0.7807
562.244,61.1282,-3.20391,-0.02273653,0.78019
562.844,61.18824,-3.20391,-0.02463003,0.77968
563.444,61.2484,-3.20525,-0.02428701,0.77917
564.044,61.3086,-3.20517,-0.02305644,0.77865
564.644,61.36849,-3.20658,-0.02566635,0.77814
565.244,61.4285,-3.20523,-0.02192173,0.77762
565.844,61.4885,-3.20658,-0.02548086,0.77711
566.444,61.5485,-3.20775,-0.02533462,0.7766
567.044,61.60844,-3.20786,-0.02476783,0.77608
567.644,61.66828,-3.20655,-0.02712592,0.77557
568.244,61.7283,-3.20733,-0.02627271,0.77505
568.844,61.7882,-3.20918,-0.02602919,0.77453
569.444,61.84796,-3.20852,-0.02570097,0.77402
570.044,61.90778,-3.20984,-0.02580143,0.7735
570.644,61.9675,-3.20984,-0.02671068,0.77298
571.244,62.02725,-3.20985,-0.02701285,0.77247
571.844,62.08685,-3.21116,-0.02414965,0.77195
572.444,62.1467,-3.21118,-0.02411959,0.77143
573.044,62.20644,-3.21247,-0.02482507,0.77091
573.644,62.26633,-3.21247,-0.02628055,0.7704
574.244,62.32639,-3.21348,-0.02700008,0.76988
574.844,62.3866,-3.21308,-0.02839423,0.76936
575.444,62.44641,-3.21313,-0.02692107,0.76884
576.044,62.5062,-3.21315,-0.02808643,0.76832
576.644,62.56592,-3.21313,-0.02610949,0.7678
577.244,62.6256,-3.21331,-0.03005394,0.76728
577.844,62.68544,-3.21445,-0.03198082,0.76676
578.444,62.7454,-3.21535,-0.03043881,0.76624
579.044,62.8054,-3.21585,-0.02957941,0.76572
579.644,62.8654,-3.217,-0.03180884,0.76519
580.244,62.9249,-3.21576,-0.03175477,0.76467
580.844,62.9847,-3.218,-0.0327575,0.76415
581.444,63.04465,-3.2184,-0.03435348,0.76363
582.044,63.10468,-3.2184,-0.0320757,0.7631
582.644,63.16476,-3.21832,-0.03151309,0.76258
583.244,63.22453,-3.2184,-0.03245938,0.76206
583.844,63.28445,-3.2184,-0.03205027,0.76153
584.444,63.3443,-3.21839,-0.03379122,0.76101
585.044,63.4043,-3.21972,-0.03416199,0.76049
585.644,63.4642,-3.22094,-0.03488093,0.75996
586.244,63.52405,-3.22103,-0.03460851,0.75944
586.844,63.58375,-3.22105,-0.03833534,0.75891
587.444,63.64359,-3.22235,-0.03723522,0.75839
588.044,63.70345,-3.22094,-0.03687551,0.75786
588.644,63.76334,-3.22104,-0.03680994,0.75733
589.244,63.82323,-3.22107,-0.03692524,0.75681
589.844,63.8829,-3.22236,-0.0400098,0.75628
590.444,63.94299,-3.22236,-0.04011435,0.75575
591.044,64.00304,-3.22369,-0.03695212,0.75523
591.644,64.06311,-3.22368,-0.03698622,0.7547
592.244,64.12301,-3.22365,-0.03843311,0.75417
592.844,64.18295,-3.22499,-0.0380686,0.75364
593.444,64.24269,-3.22499,-0.04075276,0.75311
594.044,64.30271,-3.22639,-0.0388922,0.75259
594.644,64.36241,-3.22664,-0.04073134,0.75206
595.244,64.42211,-3.22664,-0.04100247,0.75153
595.844,64.48192,-3.22746,-0.04225512,0.751
596.444,64.54165,-3.22796,-0.04348699,0.75047
597.044,64.60197,-3.22919,-0.03984072,0.74994
597.644,64.66203,-3.22847,-0.04153911,0.74941
598.244,64.72198,-3.22927,-0.04172902,0.74888
598.844,64.78155,-3.22927,-0.0441148,0.74835
599.444,64.84115,-3.23026,-0.04300108,0.74781
600.044,64.90103,-3.23026,-0.04249956,0.74728
600.644,64.96115,-3.23025,-0.04404056,0.74675
601.244,65.02162,-3.23158,-0.04220321,0.74622
601.844,65.0816,-3.23074,-0.04434355,0.74569
602.444,65.1417,-3.23158,-0.04505793,0.74515
603.044,65.20166,-3.23158,-0.04628803,0.74462
603.644,65.26177,-3.23289,-0.04448858,0.74409
604.244,65.32189,-3.23289,-0.04380029,0.74355
604.844,65.38152,-3.23424,-0.04481478,0.74302
605.444,65.4415,-3.23421,-0.04271391,0.74248
606.044,65.50156,-3.23282,-0.04437512,0.74195
606.644,65.56166,-3.23302,-0.04508269,0.74142
607.244,65.62183,-3.23388,-0.04512096,0.74088
607.844,65.68159,-3.23421,-0.05034247,0.74035
608.444,65.7414,-3.23541,-0.05825253,0.73981
609.044,65.80141,-3.23652,-0.04707389,0.73927
609.644,65.8613,-3.23653,-0.04675613,0.73874
610.244,65.92116,-3.23783,-0.04800594,0.7382
610.844,65.98098,-3.23783,-0.04322186,0.73766
611.444,66.0408,-3.23783,-0.04607809,0.73713
612.044,66.10084,-3.23915,-0.04430932,0.73659
612.644,66.1606,-3.23915,-0.04444838,0.73605
613.244,66.2207,-3.24047,-0.04437493,0.73552
613.844,66.28064,-3.23915,-0.04180925,0.73498
614.444,66.34044,-3.24049,-0.04089949,0.73444
615.044,66.40054,-3.24047,-0.04502338,0.7339
615.644,66.4607,-3.24178,-0.04368538,0.73336
616.244,66.5205,-3.24178,-0.04375318,0.73282
616.844,66.5804,-3.24178,-0.04323107,0.73228
617.444,66.64022,-3.24178,-0.04434843,0.73174
618.044,66.70025,-3.24212,-0.04388503,0.7312
618.644,66.76035,-3.24211,-0.04461757,0.73066
619.244,66.82051,-3.24211,-0.04467868,0.73012
619.844,66.88073,-3.24211,-0.04407169,0.72958
620.444,66.94082,-3.24246,-0.04355754,0.72904
621.044,67.00075,-3.24376,-0.04304425,0.7285
621.644,67.06067,-3.24376,-0.04387636,0.72796
622.244,67.12076,-3.24315,-0.04229477,0.72742
622.844,67.18088,-3.24442,-0.04421362,0.72688
623.444,67.24107,-3.24539,-0.04285815,0.72633
624.044,67.3011,-3.2454,-0.04176902,0.72579
624.644,67.36112,-3.2454,-0.04107248,0.72525
625.244,67.42112,-3.2454,-0.04107487,0.72471
625.844,67.4812,-3.2454,-0.04044915,0.72416
626.444,67.54115,-3.24641,-0.04124842,0.72362
627.044,67.60122,-3.24672,-0.04193678,0.72308
627.644,67.6613,-3.24673,-0.03857856,0.72253
628.244,67.72083,-3.24669,-0.04274897,0.72199
628.844,67.7809,-3.24807,-0.04311971,0.72144
629.444,67.84113,-3.24813,-0.04321832,0.7209
630.044,67.90139,-3.24904,-0.04319494,0.72035
630.644,67.962,-3.24933,-0.0420137,0.71981
631.244,68.02209,-3.25068,-0.04330433,0.71926
631.844,68.0823,-3.25208,-0.04301817,0.71872
632.444,68.14265,-3.252,-0.04344679,0.71817
633.044,68.20272,-3.252,-0.04309014,0.71762
633.644,68.2627,-3.252,-0.04340666,0.71708
634.244,68.32282,-3.252,-0.04365372,0.71653
634.844,68.38293,-3.25333,-0.04163517,0.71598
635.444,68.44328,-3.25332,-0.04494065,0.71544
636.044,68.50368,-3.25325,-0.04269702,0.71489
636.644,68.56397,-3.25464,-0.04414222,0.71434
637.244,68.6241,-3.25464,-0.04392736,0.71379
637.844,68.6842,-3.25465,-0.04293265,0.71325
638.444,68.7442,-3.25332,-0.04118946,0.7127
639.044,68.8043,-3.25409,-0.04228608,0.71215
639.644,68.86449,-3.25463,-0.04222667,0.7116
640.244,68.92456,-3.25463,-0.04160559,0.71105
640.844,68.98481,-3.25528,-0.0436761,0.7105
641.444,69.04491,-3.25529,-0.04122309,0.70995
642.044,69.10481,-3.25553,-0.04314631,0.7094
642.644,69.16496,-3.25529,-0.04243555,0.70885
643.244,69.2251,-3.25529,-0.04525513,0.7083
643.844,69.28549,-3.25656,-0.04587344,0.70775
644.444,69.34603,-3.25661,-0.04359019,0.7072
645.044,69.40635,-3.25661,-0.04327837,0.70665
645.644,69.4666,-3.2566,-0.04634896,0.7061
646.244,69.52675,-3.25791,-0.04384031,0.70555
646.844,69.58678,-3.25921,-0.04482104,0.705
647.444,69.64671,-3.25792,-0.04508288,0.70444
648.044,69.70692,-3.25809,-0.04216776,0.70389
648.644,69.7671,-3.25898,-0.04636508,0.70334
649.244,69.82734,-3.25825,-0.0461081,0.70279
649.844,69.88761,-3.25825,-0.04548573,0.70223
650.444,69.94751,-3.2582,-0.0462848,0.70168
651.044,70.0077,-3.25957,-0.04597588,0.70113
651.644,70.06796,-3.25957,-0.04279895,0.70057
652.244,70.12838,-3.25957,-0.0452049,0.70002
652.844,70.18879,-3.25956,-0.04314743,0.69947
653.444,70.24885,-3.26026,-0.04752613,0.69891
654.044,70.30904,-3.26021,-0.04469891,0.69836
654.644,70.36923,-3.26016,-0.04491188,0.6978
655.244,70.4294,-3.26117,-0.04440682,0.69725
655.844,70.48963,-3.26154,-0.04300335,0.69669
656.444,70.54981,-3.26154,-0.04362871,0.69614
657.044,70.61,-3.26121,-0.04365488,0.69558
657.644,70.67013,-3.26121,-0.04314901,0.69503
658.244,70.7302,-3.26121,-0.04370869,0.69447
658.844,70.79037,-3.26121,-0.0456691,0.69392
659.444,70.85047,-3.26124,-0.04407756,0.69336
660.044,70.91064,-3.26253,-0.04139793,0.6928
660.644,70.97077,-3.26253,-0.04240277,0.69225
661.244,71.03089,-3.26389,-0.04193659,0.69169
661.844,71.09106,-3.26385,-0.04172075,0.69113
662.444,71.15123,-3.26385,-0.04252043,0.69058
663.044,71.2114,-3.26385,-0.04177139,0.69002
663.644,71.27139,-3.26484,-0.04379169,0.68946
664.244,71.3315,-3.26386,-0.04280285,0.6889
664.844,71.3918,-3.26386,-0.04141934,0.68834
665.444,71.45225,-3.26386,-0.03874147,0.68779
666.044,71.51267,-3.26517,-0.04239992,0.68723
666.644,71.57262,-3.26649,-0.0418851,0.68667
667.244,71.63282,-3.26648,-0.04250725,0.68611
667.844,71.693,-3.26517,-0.04105587,0.68555
668.444,71.75321,-3.26511,-0.04300962,0.68499
669.044,71.8134,-3.26507,-0.04400809,0.68443
669.644,71.87353,-3.26517,-0.04591397,0.68387
670.244,71.93385,-3.26517,-0.04565494,0.68331
670.844,71.994,-3.26517,-0.04736036,0.68275
671.444,72.05425,-3.26633,-0.05109447,0.68219
672.044,72.11452,-3.2655,-0.04998962,0.68163
672.644,72.17458,-3.2655,-0.05082541,0.68107
673.244,72.23483,-3.2655,-0.04931874,0.68051
673.844,72.29499,-3.2655,-0.05368309,0.67995
674.444,72.3554,-3.26681,-0.05364154,0.67939
675.044,72.41566,-3.26682,-0.05345881,0.67883
675.644,72.47592,-3.26554,-0.05209783,0.67826
676.244,72.5359,-3.26682,-0.0535712,0.6777
676.844,72.59586,-3.26682,-0.05431802,0.67714
677.444,72.65637,-3.26811,-0.05529705,0.67658
678.044,72.7169,-3.26813,-0.05308003,0.67602
678.644,72.77784,-3.26813,-0.05707967,0.67545
679.244,72.83807,-3.26863,-0.05430707,0.67489
679.844,72.8981,-3.26949,-0.05542329,0.67433
680.444,72.9584,-3.26815,-0.05847777,0.67377
681.044,73.01857,-3.26945,-0.05829318,0.6732
681.644,73.07914,-3.26813,-0.05961963,0.67264
682.244,73.13924,-3.2694,-0.05927301,0.67207
682.844,73.19966,-3.26947,-0.06104303,0.67151
683.444,73.2599,-3.26813,-0.05826991,0.67095
684.044,73.32046,-3.26945,-0.05864644,0.67038
684.644,73.38079,-3.26945,-0.05950495,0.66982
685.244,73.4413,-3.2695,-0.06044533,0.66925
685.844,73.50176,-3.27077,-0.05982196,0.66869
686.444,73.56201,-3.27077,-0.06210242,0.66812
687.044,73.622,-3.27077,-0.06192181,0.66756
687.644,73.6821,-3.27077,-0.06208824,0.66699
688.244,73.74214,-3.26973,-0.0615937,0.66643
688.844,73.80241,-3.26978,-0.06575926,0.66586
689.444,73.8622,-3.26969,-0.06709686,0.6653
690.044,73.92226,-3.26846,-0.06644818,0.66473
690.644,73.98227,-3.27074,-0.06848598,0.66417
691.244,74.0424,-3.27077,-0.06821586,0.6636
691.844,74.1027,-3.27193,-0.06613007,0.66303
692.444,74.163,-3.2709,-0.06754143,0.66247
693.044,74.2233,-3.27077,-0.06844481,0.6619
693.644,74.28341,-3.27077,-0.0691399,0.66133
694.244,74.34368,-3.26967,-0.07314933,0.66077
694.844,74.40349,-3.26978,-0.07265574,0.6602
695.444,74.46393,-3.2712,-0.0720419,0.65963
696.044,74.5244,-3.27206,-0.07518997,0.65906
696.644,74.58463,-3.27209,-0.07473475,0.6585
697.244,74.64499,-3.27209,-0.07616057,0.65793
697.844,74.70528,-3.27209,-0.07898889,0.65736
698.444,74.76576,-3.27209,-0.07850523,0.65679
699.044,74.82664,-3.27341,-0.07828488,0.65622
699.644,74.887,-3.27299,-0.07878789,0.65566
700.244,74.94736,-3.27309,-0.07553559,0.65509
700.744,74.99775,-3.27341,-0.07748717,0.65461