File: 01_Data/Polyester_Bed_Skirt/STA/N2/10K_min/Polyester_Bed_Skirt_STA_N2_10KData_220524_R1.csv
##Temp./Â°C,Time/min,Mass loss(subtr.2)/mg,DSC(subtr.2)/(mW/mg),Sensit./(uV/mW)
49.835,10.01,0.02767,-0.01033758,1.07014
50.435,10.73634,0.03081363,0.02188314,1.06998
51.035,10.93033,0.03061879,0.04384042,1.06981
51.635,11.07206,0.03041898,0.0620733,1.06965
52.235,11.19031,0.0299712,0.07631578,1.06948
52.835,11.2964,0.03075234,0.09139376,1.06931
53.435,11.39369,0.03176219,0.10377,1.06915
54.035,11.48387,0.03045377,0.1161,1.06898
54.635,11.5695,0.03118844,0.12305,1.06881
55.235,11.65132,0.03286285,0.1305,1.06864
55.835,11.73,0.03282125,0.14121,1.06848
56.435,11.8062,0.03304944,0.14655,1.06831
57.035,11.8812,0.03159585,0.15145,1.06814
57.635,11.95451,0.03183609,0.15737,1.06797
58.235,12.0268,0.0313499,0.16122,1.0678
58.835,12.09758,0.03137699,0.16513,1.06763
59.435,12.16747,0.03298963,0.16786,1.06746
60.035,12.2361,0.03433466,0.17073,1.06729
60.635,12.30475,0.03439247,0.17312,1.06712
61.235,12.37262,0.03293708,0.17687,1.06695
61.835,12.44041,0.03435959,0.18111,1.06677
62.435,12.50705,0.03434392,0.18258,1.0666
63.035,12.57312,0.03436934,0.18513,1.06643
63.635,12.6389,0.03437315,0.18797,1.06626
64.235,12.7045,0.03272873,0.19021,1.06608
64.835,12.7703,0.03436909,0.19222,1.06591
65.435,12.83571,0.03359539,0.19385,1.06573
66.035,12.90098,0.03361844,0.19563,1.06556
66.635,12.96578,0.03305402,0.19634,1.06538
67.235,13.0307,0.03435946,0.19875,1.06521
67.835,13.09515,0.03476731,0.19992,1.06503
68.435,13.15965,0.03436974,0.20077,1.06486
69.035,13.224,0.03426286,0.20364,1.06468
69.635,13.28834,0.03304962,0.20787,1.0645
70.235,13.3517,0.03436484,0.20484,1.06433
70.835,13.41469,0.03541228,0.206,1.06415
71.435,13.4782,0.03435987,0.20675,1.06397
72.035,13.5417,0.03451285,0.2077,1.06379
72.635,13.60634,0.03448079,0.20607,1.06361
73.235,13.67009,0.03436009,0.20661,1.06343
73.835,13.7333,0.03434586,0.20702,1.06326
74.435,13.79604,0.03435513,0.20448,1.06308
75.035,13.8587,0.03567378,0.20176,1.0629
75.635,13.9211,0.03430673,0.2002,1.06271
76.235,13.9835,0.03577799,0.19848,1.06253
76.835,14.0457,0.03457959,0.1976,1.06235
77.435,14.1085,0.03557108,0.19413,1.06217
78.035,14.1708,0.03463084,0.1938,1.06199
78.635,14.2332,0.0356846,0.19245,1.06181
79.235,14.295,0.03632234,0.19256,1.06162
79.835,14.35679,0.03681118,0.19269,1.06144
80.435,14.41835,0.03569631,0.19154,1.06126
81.035,14.4801,0.03534475,0.18982,1.06107
81.635,14.5417,0.03539504,0.19112,1.06089
82.235,14.60356,0.03437215,0.18955,1.0607
82.835,14.66461,0.03568364,0.18912,1.06052
83.435,14.72548,0.03567998,0.1892,1.06033
84.035,14.78648,0.0356145,0.18924,1.06015
84.635,14.84755,0.03567166,0.1886,1.05996
85.235,14.9085,0.0369995,0.187,1.05977
85.835,14.9693,0.03703669,0.18702,1.05959
86.435,15.0295,0.03568,0.18634,1.0594
87.035,15.0897,0.03698339,0.18708,1.05921
87.635,15.15,0.03731962,0.18425,1.05902
88.235,15.21009,0.03698999,0.18465,1.05883
88.835,15.2706,0.03737251,0.18481,1.05865
89.435,15.3307,0.03699966,0.18293,1.05846
90.035,15.39034,0.03566989,0.18257,1.05827
90.635,15.45021,0.03699977,0.18278,1.05808
91.235,15.5101,0.037,0.18047,1.05789
91.835,15.56981,0.03700154,0.18161,1.0577
92.435,15.6297,0.03831018,0.18198,1.0575
93.035,15.68961,0.03831342,0.18009,1.05731
93.635,15.7495,0.03864743,0.18117,1.05712
94.235,15.8089,0.03831003,0.17992,1.05693
94.835,15.8682,0.03768615,0.18166,1.05674
95.435,15.9275,0.03764543,0.18057,1.05654
96.035,15.98676,0.0383134,0.18031,1.05635
96.635,16.04565,0.03831003,0.18148,1.05616
97.235,16.10485,0.03843214,0.18192,1.05596
97.835,16.16393,0.03967417,0.18208,1.05577
98.435,16.22341,0.03832113,0.1827,1.05557
99.035,16.28229,0.0397127,0.18329,1.05538
99.635,16.34125,0.04033155,0.18231,1.05518
100.235,16.4004,0.04029046,0.18408,1.05498
100.835,16.45969,0.03897092,0.18624,1.05479
101.435,16.51886,0.03831608,0.18688,1.05459
102.035,16.57787,0.03825949,0.18772,1.05439
102.635,16.63668,0.03929727,0.18974,1.0542
103.235,16.69529,0.03963227,0.19055,1.054
103.835,16.75389,0.03958957,0.19219,1.0538
104.435,16.8126,0.04007328,0.1913,1.0536
105.035,16.87131,0.03963004,0.19478,1.0534
105.635,16.93011,0.03962999,0.19505,1.0532
106.235,16.9891,0.04095621,0.1975,1.053
106.835,17.04791,0.0395898,0.19853,1.0528
107.435,17.10681,0.03962635,0.20146,1.0526
108.035,17.1654,0.04093764,0.20093,1.0524
108.635,17.22371,0.04095277,0.20356,1.0522
109.235,17.28215,0.03961965,0.20461,1.05199
109.835,17.34062,0.04094968,0.2053,1.05179
110.435,17.39917,0.04095,0.20882,1.05159
111.035,17.4577,0.04095011,0.20954,1.05139
111.635,17.51614,0.04153863,0.2116,1.05118
112.235,17.57478,0.04127578,0.21469,1.05098
112.835,17.63344,0.04127488,0.21529,1.05077
113.435,17.69162,0.04260208,0.21506,1.05057
114.035,17.74995,0.03996186,0.21682,1.05036
114.635,17.8084,0.04127221,0.219,1.05016
115.235,17.86674,0.04127,0.21975,1.04995
115.835,17.9257,0.04126937,0.22058,1.04975
116.435,17.9843,0.04100424,0.22241,1.04954
117.035,18.04299,0.04095765,0.22312,1.04933
117.635,18.10184,0.04095002,0.22586,1.04913
118.235,18.16021,0.04095338,0.22729,1.04892
118.835,18.2185,0.03962964,0.22758,1.04871
119.435,18.2769,0.04057198,0.2291,1.0485
120.035,18.33522,0.0407951,0.22968,1.04829
120.635,18.3936,0.04227655,0.23016,1.04808
121.235,18.4521,0.04221209,0.23252,1.04787
121.835,18.51041,0.0419413,0.23216,1.04766
122.435,18.56874,0.04225193,0.23453,1.04745
123.035,18.627,0.04225999,0.23732,1.04724
123.635,18.6853,0.04226,0.23827,1.04703
124.235,18.7435,0.04226001,0.23995,1.04682
124.835,18.80141,0.0422669,0.24066,1.04661
125.435,18.85925,0.04157907,0.24176,1.04639
126.035,18.91739,0.04227922,0.24456,1.04618
126.635,18.97561,0.04227003,0.24497,1.04597
127.235,19.03454,0.04231661,0.24708,1.04575
127.835,19.09262,0.04259857,0.24848,1.04554
128.435,19.15079,0.0426,0.24908,1.04533
129.035,19.20845,0.04259981,0.2499,1.04511
129.635,19.26613,0.04373142,0.25126,1.0449
130.235,19.32421,0.04378534,0.25257,1.04468
130.835,19.38239,0.04359005,0.25363,1.04446
131.435,19.44102,0.04359962,0.25406,1.04425
132.035,19.4989,0.04226928,0.25369,1.04403
132.635,19.55705,0.04240337,0.25669,1.04381
133.235,19.61505,0.04358047,0.25657,1.0436
133.835,19.67298,0.04357998,0.25699,1.04338
134.435,19.73106,0.04400586,0.2583,1.04316
135.035,19.7889,0.04490003,0.25926,1.04294
135.635,19.8468,0.04351616,0.25985,1.04272
136.235,19.90461,0.04357996,0.2618,1.0425
136.835,19.96283,0.04358,0.2602,1.04228
137.435,20.0208,0.04357975,0.26217,1.04206
138.035,20.07907,0.04223087,0.26232,1.04184
138.635,20.13683,0.04358992,0.26499,1.04162
139.235,20.19458,0.04359,0.26294,1.0414
139.835,20.25229,0.04359,0.26419,1.04118
140.435,20.31,0.04359,0.26605,1.04095
141.035,20.3676,0.04335582,0.26601,1.04073
141.635,20.42526,0.04358343,0.26764,1.04051
142.235,20.48274,0.04359,0.26606,1.04028
142.835,20.54045,0.04359,0.26622,1.04006
143.435,20.59819,0.04359143,0.26805,1.03983
144.035,20.6561,0.04490552,0.27022,1.03961
144.635,20.71394,0.0449,0.27095,1.03938
145.235,20.77131,0.04489598,0.27178,1.03916
145.835,20.82895,0.04390593,0.27311,1.03893
146.435,20.88631,0.04472232,0.27317,1.03871
147.035,20.9438,0.04357291,0.27538,1.03848
147.635,21.00168,0.04353517,0.27572,1.03825
148.235,21.0592,0.04494028,0.27619,1.03803
148.835,21.117,0.04357743,0.2767,1.0378
149.435,21.17468,0.0423054,0.27696,1.03757
150.035,21.23261,0.04343242,0.27912,1.03734
150.635,21.2904,0.04489477,0.2779,1.03711
151.235,21.34805,0.04490605,0.28006,1.03688
151.835,21.40545,0.04393174,0.27994,1.03665
152.435,21.4629,0.04457881,0.2811,1.03642
153.035,21.52046,0.04424068,0.28183,1.03619
153.635,21.5781,0.04489358,0.28068,1.03596
154.235,21.63587,0.04358527,0.27964,1.03573
154.835,21.69314,0.04259879,0.28302,1.0355
155.435,21.75069,0.04259366,0.28216,1.03526
156.035,21.80827,0.04391133,0.28397,1.03503
156.635,21.8657,0.04445132,0.28548,1.0348
157.235,21.92361,0.04393663,0.28521,1.03456
157.835,21.98123,0.04282823,0.28605,1.03433
158.435,22.03865,0.04259,0.28633,1.0341
159.035,22.09605,0.04268878,0.2883,1.03386
159.635,22.15325,0.0439105,0.28845,1.03363
160.235,22.21068,0.04391004,0.28872,1.03339
160.835,22.26791,0.04479988,0.28882,1.03315
161.435,22.32538,0.04493411,0.28906,1.03292
162.035,22.38287,0.0446054,0.29032,1.03268
162.635,22.44046,0.04390766,0.29149,1.03244
163.235,22.49798,0.04390696,0.29174,1.03221
163.835,22.55548,0.04521812,0.29158,1.03197
164.435,22.6131,0.04432576,0.29377,1.03173
165.035,22.67054,0.04392002,0.2931,1.03149
165.635,22.728,0.04392,0.2947,1.03125
166.235,22.78536,0.04392,0.29479,1.03101
166.835,22.84279,0.04392,0.29558,1.03077
167.435,22.8999,0.04391958,0.29447,1.03053
168.035,22.95715,0.04460535,0.296,1.03029
168.635,23.01461,0.04391138,0.29666,1.03005
169.235,23.07161,0.04391,0.29719,1.02981
169.835,23.12937,0.04391002,0.3003,1.02956
170.435,23.18668,0.0442977,0.29805,1.02932
171.035,23.2441,0.04523027,0.30017,1.02908
171.635,23.3017,0.04523,0.29874,1.02884
172.235,23.3589,0.04522993,0.3005,1.02859
172.835,23.41624,0.04459115,0.30089,1.02835
173.435,23.47336,0.04424004,0.30157,1.0281
174.035,23.53058,0.04327133,0.30308,1.02786
174.635,23.58782,0.04424028,0.30265,1.02761
175.235,23.64527,0.04425582,0.30254,1.02737
175.835,23.70257,0.04523108,0.30275,1.02712
176.435,23.75982,0.04523,0.30296,1.02687
177.035,23.81719,0.04520526,0.30374,1.02663
177.635,23.87448,0.04390956,0.30576,1.02638
178.235,23.93196,0.04392091,0.30548,1.02613
178.835,23.98902,0.04490138,0.30609,1.02588
179.435,24.04619,0.04489801,0.3083,1.02564
180.035,24.10337,0.04358319,0.30604,1.02539
180.635,24.16074,0.04359,0.30869,1.02514
181.235,24.21814,0.04378736,0.30917,1.02489
181.835,24.27543,0.04491045,0.3091,1.02464
182.435,24.33251,0.04491,0.31003,1.02439
183.035,24.38959,0.04491,0.31192,1.02414
183.635,24.44665,0.04491,0.31028,1.02388
184.235,24.50408,0.04491,0.30965,1.02363
184.835,24.56136,0.04491,0.3098,1.02338
185.435,24.61883,0.04490617,0.31001,1.02313
186.035,24.67611,0.04621851,0.31071,1.02287
186.635,24.73348,0.0462193,0.31195,1.02262
187.235,24.7907,0.04488113,0.31126,1.02237
187.835,24.8479,0.04490003,0.31057,1.02211
188.435,24.9051,0.0449,0.31388,1.02186
189.035,24.96207,0.04489985,0.31449,1.0216
189.635,25.01911,0.04551769,0.3132,1.02135
190.235,25.07645,0.04555993,0.31379,1.02109
190.835,25.13365,0.04555998,0.31414,1.02083
191.435,25.19106,0.04554658,0.3145,1.02058
192.035,25.24811,0.04571705,0.31697,1.02032
192.635,25.3052,0.04489976,0.31678,1.02006
193.235,25.3622,0.04490006,0.3161,1.0198
193.835,25.4193,0.04486494,0.3167,1.01954
194.435,25.47675,0.04621992,0.31688,1.01929
195.035,25.534,0.04622001,0.31848,1.01903
195.635,25.59139,0.04623016,0.31871,1.01877
196.235,25.64864,0.04453906,0.31873,1.01851
196.835,25.70589,0.04358175,0.3198,1.01825
197.435,25.76315,0.04499697,0.31854,1.01798
198.035,25.82027,0.04490122,0.32033,1.01772
198.635,25.87748,0.04620907,0.32109,1.01746
199.235,25.93451,0.04621003,0.32176,1.0172
199.835,25.9916,0.04623849,0.32205,1.01694
200.435,26.04855,0.04359845,0.32285,1.01667
201.035,26.10575,0.04359001,0.32483,1.01641
201.635,26.16297,0.04359,0.32628,1.01615
202.235,26.22015,0.04358999,0.32668,1.01588
202.835,26.27732,0.04495168,0.32591,1.01562
203.435,26.33437,0.04490003,0.32626,1.01535
204.035,26.3914,0.04489963,0.32726,1.01509
204.635,26.44882,0.04422452,0.329,1.01482
205.235,26.50602,0.04424936,0.33129,1.01455
205.835,26.563,0.0450283,0.33028,1.01429
206.435,26.62016,0.0455599,0.33219,1.01402
207.035,26.67717,0.0448597,0.3325,1.01375
207.635,26.7342,0.04489997,0.33629,1.01348
208.235,26.79117,0.04490011,0.33397,1.01321
208.835,26.84783,0.04353849,0.33464,1.01294
209.435,26.9047,0.04359746,0.33653,1.01268
210.035,26.96149,0.04621907,0.33819,1.01241
210.635,27.0185,0.04622049,0.33892,1.01214
211.235,27.0755,0.04386149,0.33887,1.01186
211.835,27.13232,0.04358007,0.34026,1.01159
212.435,27.1893,0.04357752,0.341,1.01132
213.035,27.2462,0.04489847,0.34014,1.01105
213.635,27.3032,0.04463446,0.34052,1.01078
214.235,27.35987,0.04358111,0.34108,1.01051
214.835,27.41668,0.04490246,0.34413,1.01023
215.435,27.4737,0.0449,0.34424,1.00996
216.035,27.53071,0.04490001,0.34465,1.00968
216.635,27.58803,0.04485038,0.34768,1.00941
217.235,27.64511,0.04587973,0.34776,1.00913
217.835,27.702,0.04588136,0.34968,1.00886
218.435,27.75895,0.04460904,0.34858,1.00858
219.035,27.81607,0.04422936,0.35163,1.00831
219.635,27.87296,0.04456571,0.35166,1.00803
220.235,27.93003,0.04587998,0.35128,1.00775
220.835,27.98682,0.04597498,0.35368,1.00748
221.435,28.04356,0.04457013,0.35557,1.0072
222.035,28.10032,0.04457,0.35761,1.00692
222.635,28.15707,0.04457083,0.35615,1.00664
223.235,28.2141,0.04452527,0.3592,1.00636
223.835,28.2714,0.04456867,0.36174,1.00608
224.435,28.3289,0.04522616,0.36086,1.0058
225.035,28.3861,0.04523,0.36193,1.00552
225.635,28.44305,0.04523,0.36334,1.00524
226.235,28.5,0.04523,0.36478,1.00496
226.835,28.55707,0.04522999,0.36822,1.00468
227.435,28.61433,0.04520824,0.36685,1.0044
228.035,28.67128,0.04390971,0.36955,1.00411
228.635,28.72845,0.04391,0.37089,1.00383
229.235,28.78545,0.04391,0.37251,1.00355
229.835,28.8425,0.04390999,0.3744,1.00326
230.435,28.8996,0.04391341,0.37363,1.00298
231.035,28.9566,0.04523251,0.37586,1.0027
231.635,29.01357,0.04523,0.37948,1.00241
232.235,29.0707,0.04523,0.38127,1.00213
232.835,29.1278,0.04523,0.38236,1.00184
233.435,29.18505,0.04523034,0.38368,1.00155
234.035,29.24219,0.04451005,0.38822,1.00127
234.635,29.29944,0.04457001,0.39135,1.00098
235.235,29.35662,0.04457,0.3933,1.00069
235.835,29.4137,0.04457,0.39634,1.0004
236.435,29.47086,0.04456999,0.39941,1.00011
237.035,29.52802,0.04459098,0.40382,0.99983
237.635,29.585,0.04536248,0.40664,0.99954
238.235,29.64201,0.04523003,0.40871,0.99925
238.835,29.69908,0.04523,0.4153,0.99896
239.435,29.75607,0.04522967,0.41832,0.99867
240.035,29.8131,0.04418048,0.42095,0.99837
240.635,29.87019,0.04424001,0.42787,0.99808
241.235,29.9273,0.04380493,0.43198,0.99779
241.835,29.98457,0.04430079,0.43902,0.9975
242.435,30.0419,0.04425002,0.44544,0.99721
243.035,30.0992,0.04425,0.45111,0.99691
243.635,30.15635,0.0442241,0.46057,0.99662
244.235,30.21363,0.04490937,0.46489,0.99633
244.835,30.2705,0.04523925,0.47673,0.99603
245.435,30.3277,0.04522998,0.48516,0.99574
246.035,30.38509,0.04523,0.4953,0.99544
246.635,30.4424,0.04523,0.50903,0.99515
247.235,30.5003,0.04523,0.52233,0.99485
247.835,30.5574,0.04523,0.53816,0.99455
248.435,30.6149,0.04523,0.5534,0.99426
249.035,30.6722,0.04523,0.57277,0.99396
249.635,30.72956,0.04523,0.59353,0.99366
250.235,30.78691,0.04523682,0.61841,0.99336
250.835,30.84396,0.04391184,0.64659,0.99306
251.435,30.90124,0.04391,0.67817,0.99276
252.035,30.95872,0.04391568,0.71412,0.99246
252.635,31.0162,0.04423948,0.7553,0.99216
253.235,31.07343,0.04424976,0.80472,0.99186
253.835,31.1308,0.0455615,0.86081,0.99156
254.435,31.18838,0.04556,0.92227,0.99126
255.035,31.24601,0.04556,0.99008,0.99096
255.635,31.3042,0.04555999,1.06008,0.99066
256.235,31.3617,0.0455513,1.12086,0.99035
256.835,31.41957,0.044241,1.17215,0.99005
257.435,31.4771,0.04292995,1.20217,0.98975
258.035,31.53477,0.04424662,1.21821,0.98944
258.635,31.5929,0.04424,1.20675,0.98914
259.235,31.6506,0.04424,1.16972,0.98883
259.835,31.70825,0.04423997,1.11789,0.98853
260.435,31.76592,0.04520016,1.04873,0.98822
261.035,31.82325,0.04436569,0.97304,0.98792
261.635,31.87994,0.04424,0.89794,0.98761
262.235,31.93678,0.04424,0.82518,0.9873
262.835,31.9935,0.04424,0.75638,0.987
263.435,32.05037,0.04424,0.69553,0.98669
264.035,32.10775,0.04424,0.64145,0.98638
264.635,32.16434,0.04424593,0.59992,0.98607
265.235,32.22122,0.04292105,0.56344,0.98576
265.835,32.27776,0.04292,0.53057,0.98545
266.435,32.33424,0.04292006,0.50411,0.98514
267.035,32.39092,0.04295253,0.48296,0.98483
267.635,32.44755,0.04423938,0.46404,0.98452
268.235,32.50415,0.04279506,0.44932,0.98421
268.835,32.56086,0.0436318,0.43948,0.9839
269.435,32.61772,0.0448775,0.42734,0.98359
270.035,32.67453,0.04369541,0.41907,0.98327
270.635,32.73141,0.04424009,0.41413,0.98296
271.235,32.78801,0.0442411,0.40718,0.98265
271.835,32.8446,0.04488136,0.40466,0.98233
272.435,32.90122,0.0449,0.40047,0.98202
273.035,32.9581,0.04489999,0.39504,0.9817
273.635,33.01502,0.04483317,0.39469,0.98139
274.235,33.07208,0.04360408,0.39203,0.98107
274.835,33.12903,0.04259979,0.38825,0.98076
275.435,33.18573,0.0426,0.38851,0.98044
276.035,33.24255,0.04259652,0.38687,0.98012
276.635,33.2992,0.04392098,0.38616,0.97981
277.235,33.35601,0.04391987,0.38573,0.97949
277.835,33.41258,0.04251143,0.38635,0.97917
278.435,33.4696,0.04259993,0.38542,0.97885
279.035,33.52666,0.04352562,0.38775,0.97853
279.635,33.5841,0.04357998,0.38518,0.97821
280.235,33.64143,0.04357947,0.38513,0.97789
280.835,33.6986,0.04227671,0.38476,0.97757
281.435,33.75575,0.04226311,0.38594,0.97725
282.035,33.81282,0.04358394,0.38619,0.97693
282.635,33.8697,0.04456861,0.38378,0.97661
283.235,33.92675,0.04489378,0.3862,0.97629
283.835,33.98368,0.0449,0.38615,0.97596
284.435,34.0407,0.0449,0.38525,0.97564
285.035,34.098,0.0449,0.38637,0.97532
285.635,34.15487,0.0449,0.38527,0.97499
286.235,34.21201,0.0449,0.38663,0.97467
286.835,34.26919,0.04490206,0.38661,0.97434
287.435,34.32643,0.04424646,0.3873,0.97402
288.035,34.38385,0.04424922,0.38942,0.97369
288.635,34.44115,0.04290135,0.38621,0.97337
289.235,34.4983,0.04292983,0.38743,0.97304
289.835,34.5554,0.04401774,0.38723,0.97271
290.435,34.61262,0.04424988,0.38703,0.97239
291.035,34.6699,0.04425243,0.38616,0.97206
291.635,34.72705,0.04400822,0.38741,0.97173
292.235,34.78418,0.04489858,0.38616,0.9714
292.835,34.84135,0.04358569,0.38611,0.97107
293.435,34.89866,0.04359,0.38521,0.97074
294.035,34.95602,0.04359,0.38866,0.97041
294.635,35.01348,0.04359,0.38781,0.97008
295.235,35.07085,0.04359,0.38863,0.96975
295.835,35.1282,0.04359,0.38617,0.96942
296.435,35.18554,0.04359,0.38811,0.96909
297.035,35.24288,0.04359,0.38849,0.96875
297.635,35.30019,0.04359,0.38683,0.96842
298.235,35.3574,0.04359838,0.3888,0.96809
298.835,35.41474,0.04463655,0.38917,0.96776
299.435,35.47226,0.04456957,0.38975,0.96742
300.035,35.52957,0.04326431,0.38991,0.96709
300.635,35.5869,0.04325188,0.38827,0.96675
301.235,35.64413,0.04382873,0.39029,0.96642
301.835,35.70133,0.04326008,0.39066,0.96608
302.435,35.7586,0.04325953,0.38975,0.96574
303.035,35.81599,0.04273405,0.38916,0.96541
303.635,35.8734,0.04187032,0.39056,0.96507
304.235,35.9306,0.04226699,0.39163,0.96473
304.835,35.98791,0.04227001,0.39096,0.9644
305.435,36.045,0.04227,0.39122,0.96406
306.035,36.10236,0.04227026,0.3891,0.96372
306.635,36.15961,0.04130615,0.38963,0.96338
307.235,36.21723,0.04128008,0.38912,0.96304
307.835,36.27494,0.04128,0.392,0.9627
308.435,36.3326,0.04127774,0.39286,0.96236
309.035,36.39012,0.04226899,0.39216,0.96202
309.635,36.44758,0.04259991,0.39198,0.96168
310.235,36.50496,0.04154619,0.39106,0.96133
310.835,36.5624,0.04128007,0.39184,0.96099
311.435,36.62008,0.04128037,0.39153,0.96065
312.035,36.67725,0.04227421,0.3925,0.96031
312.635,36.73482,0.04227,0.3925,0.95996
313.235,36.79211,0.04227,0.39112,0.95962
313.835,36.84949,0.04227,0.39324,0.95927
314.435,36.90696,0.04230461,0.39211,0.95893
315.035,36.9645,0.0419437,0.39392,0.95858
315.635,37.022,0.04095359,0.39277,0.95824
316.235,37.07955,0.04093722,0.39366,0.95789
316.835,37.13708,0.0422696,0.39543,0.95754
317.435,37.1945,0.04190523,0.39512,0.9572
318.035,37.2521,0.04194182,0.39496,0.95685
318.635,37.30958,0.04094878,0.39364,0.9565
319.235,37.36694,0.0399221,0.39505,0.95615
319.835,37.42458,0.03995972,0.39347,0.9558
320.435,37.48185,0.04074825,0.396,0.95545
321.035,37.5389,0.04193978,0.39614,0.9551
321.635,37.59648,0.04194,0.39483,0.95475
322.235,37.65377,0.04193922,0.39561,0.9544
322.835,37.71178,0.0405815,0.39714,0.95405
323.435,37.76968,0.04062,0.3958,0.9537
324.035,37.82731,0.04062,0.39761,0.95335
324.635,37.88508,0.04061906,0.3978,0.953
325.235,37.94258,0.03925006,0.39656,0.95264
325.835,38.00011,0.03830974,0.39577,0.95229
326.435,38.05769,0.03961394,0.39629,0.95194
327.035,38.11508,0.03962995,0.39647,0.95158
327.635,38.1727,0.03957228,0.39623,0.95123
328.235,38.23023,0.04062027,0.39716,0.95087
328.835,38.28765,0.03996888,0.39712,0.95052
329.435,38.3452,0.03996,0.39798,0.95016
330.035,38.40272,0.03995241,0.3982,0.9498
330.635,38.4604,0.03863922,0.39957,0.94945
331.235,38.51806,0.0389176,0.39678,0.94909
331.835,38.5758,0.03896996,0.40089,0.94873
332.435,38.63343,0.03897,0.40062,0.94837
333.035,38.6912,0.03897,0.39809,0.94801
333.635,38.7487,0.03897011,0.40025,0.94766
334.235,38.80605,0.03861254,0.40099,0.9473
334.835,38.86352,0.03863999,0.40129,0.94694
335.435,38.92106,0.03864001,0.40177,0.94658
336.035,38.97867,0.03862224,0.40041,0.94622
336.635,39.03662,0.03765141,0.402,0.94585
337.235,39.09421,0.03765,0.40307,0.94549
337.835,39.15227,0.03765,0.40343,0.94513
338.435,39.2101,0.03764999,0.40175,0.94477
339.035,39.26789,0.03731566,0.40277,0.9444
339.635,39.3258,0.03732999,0.40394,0.94404
340.235,39.3834,0.03732975,0.40433,0.94368
340.835,39.44122,0.0380309,0.403,0.94331
341.435,39.49899,0.03798998,0.40329,0.94295
342.035,39.55642,0.03799,0.4038,0.94258
342.635,39.61415,0.03798836,0.40421,0.94222
343.235,39.67185,0.0365158,0.4065,0.94185
343.835,39.72961,0.03567996,0.40498,0.94148
344.435,39.78748,0.03567892,0.40693,0.94112
345.035,39.8452,0.03466555,0.40861,0.94075
345.635,39.9031,0.03436066,0.40814,0.94038
346.235,39.96092,0.03436,0.40893,0.94001
346.835,40.0187,0.03436061,0.40831,0.93964
347.435,40.07633,0.03571861,0.4088,0.93928
348.035,40.13402,0.03433028,0.40957,0.93891
348.635,40.19192,0.03403005,0.41169,0.93854
349.235,40.24982,0.03403019,0.41191,0.93817
349.835,40.30774,0.03488051,0.41128,0.93779
350.435,40.3658,0.03402978,0.41219,0.93742
351.035,40.4237,0.0340295,0.41425,0.93705
351.635,40.48145,0.03370633,0.41506,0.93668
352.235,40.53911,0.03370022,0.41334,0.93631
352.835,40.59704,0.03437605,0.4147,0.93593
353.435,40.65493,0.03310744,0.41539,0.93556
354.035,40.71297,0.03304001,0.41692,0.93519
354.635,40.7708,0.03303866,0.41727,0.93481
355.235,40.82858,0.03273212,0.41723,0.93444
355.835,40.88643,0.03237986,0.41805,0.93406
356.435,40.94437,0.032366,0.41727,0.93369
357.035,41.00224,0.03138488,0.41826,0.93331
357.635,41.06031,0.03107006,0.42117,0.93293
358.235,41.11815,0.02982388,0.42264,0.93256
358.835,41.17601,0.03007237,0.42278,0.93218
359.435,41.23376,0.0304328,0.42316,0.9318
360.035,41.29159,0.03139919,0.42481,0.93142
360.635,41.3495,0.0314,0.42445,0.93104
361.235,41.4073,0.03140979,0.4271,0.93066
361.835,41.46524,0.02877426,0.42921,0.93028
362.435,41.5232,0.02876018,0.4299,0.9299
363.035,41.58103,0.02801901,0.43018,0.92952
363.635,41.63903,0.02875963,0.43256,0.92914
364.235,41.69702,0.02875904,0.43439,0.92876
364.835,41.7552,0.02739268,0.43449,0.92838
365.435,41.81317,0.027412,0.43708,0.928
366.035,41.87122,0.02612929,0.43819,0.92761
366.635,41.9291,0.024814,0.43882,0.92723
367.235,41.9871,0.02480984,0.44123,0.92685
367.835,42.04514,0.02423949,0.44259,0.92646
368.435,42.10334,0.02481442,0.44653,0.92608
369.035,42.1614,0.02210938,0.44707,0.92569
369.635,42.21938,0.02216969,0.44755,0.92531
370.235,42.27742,0.02083369,0.4507,0.92492
370.835,42.33552,0.02086671,0.45129,0.92453
371.435,42.39362,0.01954187,0.45333,0.92415
372.035,42.4515,0.01954,0.45716,0.92376
372.635,42.5095,0.01954104,0.45856,0.92337
373.235,42.56742,0.01822756,0.46021,0.92299
373.835,42.6253,0.01854903,0.46307,0.9226
374.435,42.6834,0.01818864,0.46188,0.92221
375.035,42.74132,0.01690945,0.46585,0.92182
375.635,42.79911,0.01562162,0.46424,0.92143
376.235,42.85703,0.01451279,0.46698,0.92104
376.835,42.91505,0.01320982,0.46893,0.92065
377.435,42.9732,0.01149561,0.46987,0.92026
378.035,43.0317,0.01020959,0.47244,0.91987
378.635,43.0896,0.01023135,0.47213,0.91947
379.235,43.14784,0.008971599,0.47412,0.91908
379.835,43.20593,0.007650556,0.47561,0.91869
380.435,43.2641,0.007217903,0.47537,0.91829
381.035,43.32225,0.00592913,0.47601,0.9179
381.635,43.38009,0.00460729,0.47418,0.91751
382.235,43.43842,0.00315266,0.47709,0.91711
382.835,43.49651,0.000873043,0.47887,0.91672
383.435,43.55488,-0.00191212,0.4828,0.91632
384.035,43.61288,-0.00342887,0.48429,0.91593
384.635,43.6711,-0.006187564,0.48526,0.91553
385.235,43.72933,-0.006238986,0.48652,0.91513
385.835,43.78751,-0.00919767,0.48851,0.91474
386.435,43.84583,-0.01052268,0.49091,0.91434
387.035,43.90398,-0.0120358,0.49346,0.91394
387.635,43.9624,-0.01501484,0.49378,0.91354
388.235,44.0207,-0.01933694,0.49605,0.91314
388.835,44.07912,-0.02254085,0.50013,0.91274
389.435,44.13743,-0.02557121,0.50061,0.91234
390.035,44.19572,-0.02921387,0.50598,0.91194
390.635,44.25392,-0.03248516,0.50733,0.91154
391.235,44.31216,-0.03565655,0.51018,0.91114
391.835,44.37052,-0.03976929,0.51587,0.91074
392.435,44.42848,-0.04375677,0.5197,0.91034
393.035,44.4868,-0.0483014,0.5204,0.90994
393.635,44.545,-0.05321676,0.52075,0.90953
394.235,44.60355,-0.05722519,0.52278,0.90913
394.835,44.66207,-0.05879356,0.5268,0.90873
395.435,44.7205,-0.06227109,0.52811,0.90832
396.035,44.779,-0.06861671,0.53285,0.90792
396.635,44.83735,-0.0745503,0.53455,0.90751
397.235,44.89571,-0.08128918,0.5347,0.90711
397.835,44.95402,-0.0871107,0.54102,0.9067
398.435,45.0122,-0.09508322,0.54723,0.9063
399.035,45.0703,-0.10136,0.54867,0.90589
399.635,45.12849,-0.10789,0.55046,0.90548
400.235,45.18685,-0.11519,0.55518,0.90507
400.835,45.24497,-0.12204,0.55429,0.90467
401.435,45.30301,-0.12867,0.55677,0.90426
402.035,45.36128,-0.13552,0.56123,0.90385
402.635,45.41957,-0.14472,0.56329,0.90344
403.235,45.4784,-0.15356,0.56736,0.90303
403.835,45.53676,-0.16127,0.57024,0.90262
404.435,45.59491,-0.16931,0.57775,0.90221
405.035,45.65314,-0.17936,0.58128,0.9018
405.635,45.71115,-0.18842,0.58802,0.90139
406.235,45.7695,-0.19828,0.59393,0.90097
406.835,45.82796,-0.20882,0.59374,0.90056
407.435,45.8866,-0.21967,0.59956,0.90015
408.035,45.94534,-0.23111,0.60036,0.89974
408.635,46.0033,-0.2433,0.60394,0.89932
409.235,46.06136,-0.25633,0.61176,0.89891
409.835,46.11976,-0.26947,0.6156,0.89849
410.435,46.1783,-0.28131,0.62128,0.89808
411.035,46.2374,-0.29699,0.63502,0.89766
411.635,46.29616,-0.3096,0.64331,0.89725
412.235,46.35453,-0.32525,0.65025,0.89683
412.835,46.41295,-0.34018,0.6596,0.89642
413.435,46.4714,-0.3566,0.66347,0.896
414.035,46.53002,-0.37238,0.68152,0.89558
414.635,46.58853,-0.39041,0.68976,0.89516
415.235,46.64707,-0.41051,0.69815,0.89475
415.835,46.70568,-0.42844,0.69923,0.89433
416.435,46.7644,-0.44881,0.70609,0.89391
417.035,46.82298,-0.46697,0.7116,0.89349
417.635,46.88166,-0.48682,0.7247,0.89307
418.235,46.9403,-0.50764,0.73227,0.89265
418.835,46.99897,-0.53083,0.73665,0.89223
419.435,47.05775,-0.55306,0.7428,0.89181
420.035,47.1163,-0.57751,0.74801,0.89138
420.635,47.17479,-0.60135,0.75548,0.89096
421.235,47.23352,-0.62529,0.77008,0.89054
421.835,47.29213,-0.65082,0.77898,0.89012
422.435,47.35096,-0.67844,0.78989,0.88969
423.035,47.4097,-0.705,0.79781,0.88927
423.635,47.46861,-0.73428,0.80585,0.88885
424.235,47.52726,-0.76353,0.81068,0.88842
424.835,47.58593,-0.79203,0.81741,0.888
425.435,47.6445,-0.82263,0.82626,0.88757
426.035,47.70326,-0.85396,0.83293,0.88714
426.635,47.76192,-0.88787,0.85571,0.88672
427.235,47.82085,-0.92046,0.86863,0.88629
427.835,47.87962,-0.95739,0.87391,0.88586
428.435,47.93822,-0.99112,0.88997,0.88544
429.035,47.99706,-1.0293,0.8922,0.88501
429.635,48.05572,-1.06497,0.89804,0.88458
430.235,48.11441,-1.10413,0.914,0.88415
430.835,48.17333,-1.14165,0.93383,0.88372
431.435,48.2321,-1.18228,0.9452,0.88329
432.035,48.29079,-1.22566,0.94756,0.88286
432.635,48.3496,-1.26895,0.95364,0.88243
433.235,48.4081,-1.31218,0.96472,0.882
433.835,48.46687,-1.35527,0.98064,0.88157
434.435,48.52568,-1.40062,0.98148,0.88114
435.035,48.58416,-1.44656,0.97709,0.88071
435.635,48.6428,-1.49387,0.97182,0.88027
436.235,48.7012,-1.53811,0.96327,0.87984
436.835,48.7599,-1.58704,0.95431,0.87941
437.435,48.8186,-1.63198,0.95236,0.87897
438.035,48.87724,-1.68226,0.95704,0.87854
438.635,48.93606,-1.72795,0.95444,0.8781
439.235,48.99492,-1.77803,0.94837,0.87767
439.835,49.05363,-1.82517,0.94368,0.87723
440.435,49.11186,-1.87406,0.93776,0.8768
441.035,49.17028,-1.92238,0.9326,0.87636
441.635,49.22862,-1.97083,0.92613,0.87592
442.235,49.28732,-2.01908,0.91867,0.87549
442.835,49.34625,-2.06642,0.90996,0.87505
443.435,49.40483,-2.11498,0.89585,0.87461
444.035,49.46365,-2.15977,0.88306,0.87417
444.635,49.52225,-2.20667,0.87087,0.87373
445.235,49.5809,-2.25025,0.85462,0.87329
445.835,49.63947,-2.29671,0.83992,0.87285
446.435,49.6976,-2.33796,0.82281,0.87241
447.035,49.7556,-2.3795,0.80363,0.87197
447.635,49.8138,-2.41715,0.78611,0.87153
448.235,49.87247,-2.45737,0.76599,0.87109
448.835,49.93172,-2.4955,0.74635,0.87065
449.435,49.99061,-2.53116,0.72496,0.87021
450.035,50.04927,-2.56378,0.7053,0.86977
450.635,50.10807,-2.59559,0.68276,0.86932
451.235,50.16646,-2.62556,0.66132,0.86888
451.835,50.2251,-2.65386,0.63804,0.86844
452.435,50.28358,-2.68069,0.61645,0.86799
453.035,50.34243,-2.70537,0.5922,0.86755
453.635,50.40119,-2.73041,0.57318,0.8671
454.235,50.4595,-2.74859,0.55149,0.86666
454.835,50.51787,-2.76917,0.53113,0.86621
455.435,50.57627,-2.78649,0.51179,0.86576
456.035,50.63501,-2.80553,0.49132,0.86532
456.635,50.69375,-2.82159,0.47565,0.86487
457.235,50.7527,-2.83736,0.45763,0.86442
457.835,50.81136,-2.85168,0.44631,0.86397
458.435,50.8701,-2.86415,0.42982,0.86353
459.035,50.92881,-2.87689,0.41644,0.86308
459.635,50.98748,-2.88922,0.4049,0.86263
460.235,51.04612,-2.89989,0.39198,0.86218
460.835,51.10472,-2.91068,0.38296,0.86173
461.435,51.16338,-2.92068,0.3722,0.86128
462.035,51.22226,-2.9292,0.36085,0.86083
462.635,51.28132,-2.93797,0.35063,0.86038
463.235,51.3401,-2.94693,0.34133,0.85993
463.835,51.39891,-2.95414,0.33275,0.85947
464.435,51.4579,-2.96038,0.3238,0.85902
465.035,51.51688,-2.96782,0.3121,0.85857
465.635,51.5758,-2.9743,0.30466,0.85812
466.235,51.63453,-2.9808,0.2972,0.85766
466.835,51.69324,-2.98831,0.28561,0.85721
467.435,51.75188,-2.994,0.27781,0.85675
468.035,51.81057,-2.9989,0.27008,0.8563
468.635,51.86945,-3.00376,0.2624,0.85584
469.235,51.92818,-3.00724,0.25562,0.85539
469.835,51.98686,-3.0123,0.24635,0.85493
470.435,52.04554,-3.01725,0.23963,0.85448
471.035,52.10425,-3.02079,0.23238,0.85402
471.635,52.1631,-3.02605,0.22552,0.85356
472.235,52.22183,-3.02952,0.22002,0.8531
472.835,52.28074,-3.03491,0.21046,0.85265
473.435,52.33934,-3.03847,0.20715,0.85219
474.035,52.3982,-3.04122,0.20013,0.85173
474.635,52.4572,-3.04488,0.19419,0.85127
475.235,52.51608,-3.04806,0.18893,0.85081
475.835,52.57526,-3.05101,0.18194,0.85035
476.435,52.6341,-3.05401,0.1781,0.84989
477.035,52.6932,-3.05728,0.17198,0.84943
477.635,52.75212,-3.05891,0.16727,0.84897
478.235,52.81129,-3.06176,0.16146,0.84851
478.835,52.8704,-3.06443,0.15711,0.84805
479.435,52.9292,-3.0679,0.15152,0.84758
480.035,52.98826,-3.07096,0.15056,0.84712
480.635,53.0474,-3.0737,0.1468,0.84666
481.235,53.10655,-3.07687,0.14265,0.84619
481.835,53.1659,-3.07761,0.13715,0.84573
482.435,53.2249,-3.07985,0.1346,0.84527
483.035,53.284,-3.08145,0.1299,0.8448
483.635,53.34315,-3.08426,0.12779,0.84434
484.235,53.40221,-3.08553,0.12521,0.84387
484.835,53.46139,-3.08811,0.12095,0.8434
485.435,53.5206,-3.08995,0.11948,0.84294
486.035,53.57969,-3.09128,0.1171,0.84247
486.635,53.63885,-3.0926,0.11719,0.84201
487.235,53.6978,-3.09408,0.11321,0.84154
487.835,53.75688,-3.09669,0.11232,0.84107
488.435,53.81593,-3.0978,0.11091,0.8406
489.035,53.87495,-3.09929,0.11078,0.84013
489.635,53.93427,-3.10066,0.10724,0.83966
490.235,53.99332,-3.1019,0.10381,0.83919
490.835,54.0526,-3.10335,0.1027,0.83873
491.435,54.1118,-3.10537,0.10309,0.83825
492.035,54.17111,-3.10589,0.10354,0.83778
492.635,54.23039,-3.10588,0.10182,0.83731
493.235,54.28925,-3.10715,0.10037,0.83684
493.835,54.3483,-3.11002,0.10009,0.83637
494.435,54.4072,-3.11082,0.10124,0.8359
495.035,54.4663,-3.11261,0.10107,0.83543
495.635,54.5255,-3.11347,0.10176,0.83495
496.235,54.58444,-3.11487,0.10164,0.83448
496.835,54.64369,-3.1162,0.10059,0.83401
497.435,54.70285,-3.11756,0.09900647,0.83353
498.035,54.76206,-3.11886,0.09880894,0.83306
498.635,54.82107,-3.11884,0.09834413,0.83258
499.235,54.88025,-3.11884,0.09788752,0.83211
499.835,54.9395,-3.11951,0.10024,0.83163
500.435,54.99859,-3.12103,0.09680711,0.83116
501.035,55.0577,-3.12235,0.09780665,0.83068
501.635,55.11674,-3.12248,0.09597666,0.8302
502.235,55.17592,-3.12367,0.09485797,0.82973
502.835,55.2351,-3.12509,0.0944587,0.82925
503.435,55.2943,-3.1264,0.09525269,0.82877
504.035,55.3534,-3.12773,0.09181009,0.82829
504.635,55.4124,-3.12888,0.0911529,0.82782
505.235,55.47159,-3.12906,0.0925246,0.82734
505.835,55.5309,-3.13105,0.0918388,0.82686
506.435,55.59,-3.13102,0.09024234,0.82638
507.035,55.64934,-3.13234,0.09173,0.8259
507.635,55.7085,-3.13235,0.08969307,0.82542
508.235,55.7677,-3.13234,0.08811792,0.82494
508.835,55.8268,-3.13235,0.091119,0.82446
509.435,55.88586,-3.13398,0.08788605,0.82397
510.035,55.9451,-3.13524,0.08864941,0.82349
510.635,56.0045,-3.13629,0.08867781,0.82301
511.235,56.06394,-3.13766,0.08785145,0.82253
511.835,56.1233,-3.13761,0.08783908,0.82204
512.435,56.18251,-3.13761,0.08715872,0.82156
513.035,56.24159,-3.13898,0.0844537,0.82108
513.635,56.30072,-3.1376,0.0854837,0.82059
514.235,56.3599,-3.13892,0.08791672,0.82011
514.835,56.4192,-3.1402,0.08675479,0.81962
515.435,56.4786,-3.14156,0.08695943,0.81914
516.035,56.5381,-3.14288,0.08701503,0.81865
516.635,56.59734,-3.14157,0.0890602,0.81817
517.235,56.6565,-3.14288,0.08681742,0.81768
517.835,56.7156,-3.14421,0.08634648,0.81719
518.435,56.77482,-3.14619,0.08530287,0.81671
519.035,56.8338,-3.1465,0.08506578,0.81622
519.635,56.8933,-3.14644,0.08390797,0.81573
520.235,56.9527,-3.14709,0.0869487,0.81524
520.835,57.0121,-3.14799,0.08638181,0.81476
521.435,57.0717,-3.14847,0.08846383,0.81427
522.035,57.1309,-3.14781,0.08691651,0.81378
522.635,57.1902,-3.14913,0.08818417,0.81329
523.235,57.2494,-3.14913,0.08708975,0.8128
523.835,57.30862,-3.15044,0.0882729,0.81231
524.435,57.3676,-3.15045,0.08780514,0.81182
525.035,57.42689,-3.15045,0.08645164,0.81133
525.635,57.4862,-3.15046,0.08674232,0.81083
526.235,57.5458,-3.15172,0.08679405,0.81034
526.835,57.60555,-3.15307,0.08575436,0.80985
527.435,57.66485,-3.153,0.08527301,0.80936
528.035,57.72416,-3.15309,0.08716753,0.80887
528.635,57.78371,-3.15341,0.08631353,0.80837
529.235,57.84327,-3.15434,0.08648957,0.80788
529.835,57.9025,-3.15704,0.0828497,0.80738
530.435,57.9619,-3.15704,0.08429129,0.80689
531.035,58.0213,-3.15704,0.08293125,0.8064
531.635,58.0809,-3.15731,0.08314434,0.8059
532.235,58.14043,-3.15704,0.08480191,0.80541
532.835,58.2,-3.15704,0.08507071,0.80491
533.435,58.2593,-3.15836,0.08301558,0.80441
534.035,58.3188,-3.15964,0.08525741,0.80392
534.635,58.3783,-3.15968,0.08372904,0.80342
535.235,58.43781,-3.15967,0.08440614,0.80292
535.835,58.49759,-3.161,0.08175428,0.80243
536.435,58.5571,-3.16237,0.08288236,0.80193
537.035,58.61675,-3.16231,0.0852859,0.80143
537.635,58.67641,-3.16337,0.08547794,0.80093
538.235,58.73614,-3.16324,0.08621104,0.80043
538.835,58.79571,-3.1633,0.08218337,0.79993
539.435,58.8553,-3.1633,0.08247091,0.79943
540.035,58.9146,-3.16411,0.08411392,0.79893
540.635,58.9739,-3.16462,0.08203226,0.79843
541.235,59.03343,-3.1639,0.08064565,0.79793
541.835,59.093,-3.16462,0.08171237,0.79743
542.435,59.1526,-3.16595,0.08058595,0.79693
543.035,59.21212,-3.16732,0.08172447,0.79643
543.635,59.2716,-3.16593,0.08048447,0.79593
544.235,59.3311,-3.16593,0.08035717,0.79542
544.835,59.39069,-3.16593,0.08108675,0.79492
545.435,59.45025,-3.16694,0.08285992,0.79442
546.035,59.5099,-3.16857,0.08430906,0.79392
546.635,59.56944,-3.16858,0.08466837,0.79341
547.235,59.62908,-3.16857,0.08269997,0.79291
547.835,59.68874,-3.16989,0.08158751,0.7924
548.435,59.7481,-3.17121,0.08067238,0.7919
549.035,59.8077,-3.17122,0.07937846,0.79139
549.635,59.86745,-3.16989,0.08076301,0.79089
550.235,59.9273,-3.16989,0.08047741,0.79038
550.835,59.9872,-3.16989,0.07903622,0.78988
551.435,60.04696,-3.16988,0.07935687,0.78937
552.035,60.1069,-3.1712,0.07976569,0.78886
552.635,60.16656,-3.1712,0.07983988,0.78836
553.235,60.2264,-3.1725,0.08110187,0.78785
553.835,60.2862,-3.17247,0.07972545,0.78734
554.435,60.3459,-3.17387,0.07966131,0.78683
555.035,60.40565,-3.17515,0.07741043,0.78633
555.635,60.46535,-3.17375,0.07655392,0.78582
556.235,60.52491,-3.17384,0.07803385,0.78531
556.835,60.58415,-3.17386,0.07639801,0.7848
557.435,60.6439,-3.17425,0.07731972,0.78429
558.035,60.70372,-3.17448,0.07597287,0.78378
558.635,60.764,-3.17545,0.07518796,0.78327
559.235,60.8239,-3.17581,0.07418773,0.78276
559.835,60.8835,-3.17581,0.07619839,0.78225
560.435,60.9428,-3.17698,0.07528527,0.78173
561.035,61.0022,-3.17712,0.07507623,0.78122
561.635,61.0617,-3.17786,0.0740197,0.78071
562.235,61.12146,-3.17779,0.07531099,0.7802
562.835,61.1813,-3.17778,0.07413492,0.77969
563.435,61.2409,-3.1791,0.07211667,0.77917
564.035,61.30041,-3.1791,0.07055611,0.77866
564.635,61.35994,-3.18042,0.07206904,0.77815
565.235,61.4195,-3.18042,0.07062949,0.77763
565.835,61.4793,-3.17946,0.0721889,0.77712
566.435,61.5389,-3.17976,0.07207171,0.7766
567.035,61.5985,-3.17976,0.07349195,0.77609
567.635,61.6582,-3.18042,0.07066899,0.77557
568.235,61.71773,-3.18174,0.07399073,0.77506
568.835,61.7777,-3.18169,0.07348938,0.77454
569.435,61.8375,-3.18305,0.07180208,0.77403
570.035,61.89739,-3.18305,0.0733454,0.77351
570.635,61.9573,-3.18305,0.07155625,0.77299
571.235,62.01706,-3.18434,0.07023709,0.77247
571.835,62.0767,-3.18339,0.06904227,0.77196
572.435,62.1363,-3.1834,0.06949628,0.77144
573.035,62.19621,-3.18471,0.06838329,0.77092
573.635,62.2561,-3.18471,0.06939394,0.7704
574.235,62.3161,-3.18473,0.06574944,0.76988
574.835,62.37619,-3.18734,0.06640733,0.76936
575.435,62.4361,-3.18734,0.06335072,0.76885
576.035,62.4959,-3.18737,0.06634579,0.76833
576.635,62.55582,-3.18771,0.06583444,0.76781
577.235,62.61569,-3.18844,0.06917127,0.76729
577.835,62.67566,-3.18866,0.06613559,0.76677
578.435,62.7355,-3.18865,0.06755487,0.76624
579.035,62.7955,-3.18998,0.06917538,0.76572
579.635,62.85527,-3.18998,0.06636678,0.7652
580.235,62.91489,-3.18998,0.06634096,0.76468
580.835,62.9746,-3.19001,0.0660563,0.76416
581.435,63.0343,-3.18965,0.0646235,0.76363
582.035,63.09425,-3.1894,0.06589028,0.76311
582.635,63.15426,-3.18998,0.06632782,0.76259
583.235,63.2142,-3.19168,0.06783322,0.76207
583.835,63.27415,-3.19384,0.06647896,0.76154
584.435,63.33406,-3.19402,0.0642654,0.76102
585.035,63.3939,-3.19461,0.06685845,0.76049
585.635,63.45372,-3.19393,0.0646183,0.75997
586.235,63.51355,-3.19488,0.06527817,0.75944
586.835,63.5732,-3.19525,0.0654631,0.75892
587.435,63.63313,-3.1952,0.06613341,0.75839
588.035,63.69299,-3.19426,0.06211054,0.75787
588.635,63.75294,-3.19426,0.06370526,0.75734
589.235,63.81298,-3.19527,0.06343297,0.75682
589.835,63.873,-3.19667,0.0612705,0.75629
590.435,63.933,-3.19796,0.06173023,0.75576
591.035,63.9931,-3.19799,0.05916118,0.75523
591.635,64.05319,-3.19936,0.06006477,0.75471
592.235,64.1133,-3.19931,0.06100323,0.75418
592.835,64.1733,-3.19931,0.0602436,0.75365
593.435,64.2332,-3.19924,0.06144291,0.75312
594.035,64.2933,-3.20001,0.0610894,0.75259
594.635,64.35332,-3.19923,0.06161017,0.75206
595.235,64.41348,-3.20059,0.06217403,0.75154
595.835,64.47349,-3.20062,0.06040359,0.75101
596.435,64.5334,-3.20062,0.06186162,0.75048
597.035,64.59331,-3.20182,0.06321982,0.74995
597.635,64.65305,-3.20194,0.06215693,0.74941
598.235,64.7129,-3.20194,0.06036426,0.74888
598.835,64.7727,-3.20324,0.05963271,0.74835
599.435,64.83211,-3.20326,0.06245163,0.74782
600.035,64.89195,-3.20326,0.06377023,0.74729
600.635,64.95178,-3.20266,0.06400581,0.74676
601.235,65.0119,-3.20327,0.06325136,0.74623
601.835,65.0718,-3.20531,0.0619941,0.74569
602.435,65.1316,-3.20523,0.06406617,0.74516
603.035,65.1915,-3.20523,0.06374991,0.74463
603.635,65.2514,-3.20654,0.06426722,0.74409
604.235,65.3115,-3.20655,0.06497008,0.74356
604.835,65.37138,-3.20786,0.0667462,0.74303
605.435,65.43149,-3.20656,0.06547841,0.74249
606.035,65.49157,-3.20689,0.06348035,0.74196
606.635,65.5517,-3.20689,0.06267696,0.74142
607.235,65.6119,-3.20689,0.0648285,0.74089
607.835,65.672,-3.20789,0.06749597,0.74035
608.435,65.7319,-3.20918,0.06877243,0.73982
609.035,65.79172,-3.20922,0.06664086,0.73928
609.635,65.85135,-3.20919,0.06808903,0.73875
610.235,65.9114,-3.21028,0.06494488,0.73821
610.835,65.97134,-3.21051,0.06620239,0.73767
611.435,66.03196,-3.21117,0.06922892,0.73714
612.035,66.09206,-3.21128,0.0682138,0.7366
612.635,66.15212,-3.21188,0.06683124,0.73606
613.235,66.21225,-3.21182,0.06540201,0.73552
613.835,66.2722,-3.21182,0.06581897,0.73499
614.435,66.33233,-3.21214,0.06890426,0.73445
615.035,66.3923,-3.21215,0.06791567,0.73391
615.635,66.45241,-3.21301,0.07043992,0.73337
616.235,66.5124,-3.21347,0.06824988,0.73283
616.835,66.5725,-3.21349,0.06835805,0.73229
617.435,66.63252,-3.21479,0.06874994,0.73175
618.035,66.69246,-3.21611,0.06988452,0.73121
618.635,66.75255,-3.21524,0.06852466,0.73067
619.235,66.81254,-3.21608,0.07096697,0.73013
619.835,66.87245,-3.2161,0.07255346,0.72959
620.435,66.93262,-3.2161,0.07422937,0.72905
621.035,66.99249,-3.21629,0.05666736,0.72851
621.635,67.05271,-3.21742,0.06447598,0.72797
622.235,67.1128,-3.21742,0.06976539,0.72743
622.835,67.17311,-3.21742,0.07135992,0.72688
623.435,67.23309,-3.21742,0.07066516,0.72634
624.035,67.29304,-3.21878,0.06883969,0.7258
624.635,67.35288,-3.21809,0.06977582,0.72526
625.235,67.4126,-3.21808,0.06999802,0.72471
625.835,67.47243,-3.21806,0.07109955,0.72417
626.435,67.53233,-3.2194,0.07181527,0.72363
627.035,67.59259,-3.22055,0.07245157,0.72308
627.635,67.6526,-3.22072,0.07284707,0.72254
628.235,67.71276,-3.22204,0.07328908,0.722
628.835,67.77269,-3.22269,0.0734375,0.72145
629.435,67.83274,-3.22269,0.07356916,0.72091
630.035,67.89278,-3.22269,0.07513815,0.72036
630.635,67.95302,-3.22269,0.07558655,0.71982
631.235,68.01312,-3.2227,0.07373084,0.71927
631.835,68.0732,-3.22401,0.07384251,0.71872
632.435,68.13333,-3.22401,0.07266405,0.71818
633.035,68.19336,-3.224,0.07325644,0.71763
633.635,68.2534,-3.22411,0.07431644,0.71709
634.235,68.31353,-3.22401,0.07518,0.71654
634.835,68.3737,-3.22401,0.07688022,0.71599
635.435,68.43385,-3.22402,0.07797773,0.71544
636.035,68.494,-3.22532,0.08072169,0.7149
636.635,68.55366,-3.22401,0.08200704,0.71435
637.235,68.61362,-3.22402,0.08334636,0.7138
637.835,68.67349,-3.22533,0.08346025,0.71325
638.435,68.73342,-3.22533,0.08662864,0.71271
639.035,68.7936,-3.22675,0.08723549,0.71216
639.635,68.85355,-3.22806,0.08544823,0.71161
640.235,68.91349,-3.22796,0.08570617,0.71106
640.835,68.97358,-3.22797,0.08712848,0.71051
641.435,69.0335,-3.22664,0.08740218,0.70996
642.035,69.09347,-3.22664,0.08657199,0.70941
642.635,69.1534,-3.22665,0.08665574,0.70886
643.235,69.21348,-3.22796,0.08886349,0.70831
643.835,69.2735,-3.22917,0.08750231,0.70776
644.435,69.33363,-3.22928,0.08845427,0.70721
645.035,69.3938,-3.2292,0.08738001,0.70666
645.635,69.45394,-3.23039,0.09155825,0.70611
646.235,69.51406,-3.2306,0.0911501,0.70556
646.835,69.57404,-3.2306,0.09096143,0.705
647.435,69.63416,-3.2306,0.0917649,0.70445
648.035,69.6945,-3.23085,0.09257572,0.7039
648.635,69.75476,-3.2309,0.09430436,0.70335
649.235,69.81484,-3.23092,0.09402937,0.70279
649.835,69.87471,-3.23092,0.09318286,0.70224
650.435,69.9348,-3.23092,0.09652433,0.70169
651.035,69.995,-3.23092,0.09403086,0.70114
651.635,70.05541,-3.23225,0.09204386,0.70058
652.235,70.11579,-3.23191,0.09706957,0.70003
652.835,70.1761,-3.23191,0.09544506,0.69947
653.435,70.2364,-3.2319,0.09348377,0.69892
654.035,70.2966,-3.23059,0.09436287,0.69837
654.635,70.35674,-3.23129,0.09396189,0.69781
655.235,70.41704,-3.23191,0.09513543,0.69726
655.835,70.47706,-3.23191,0.09489688,0.6967
656.435,70.53744,-3.23259,0.09585895,0.69615
657.035,70.59769,-3.23323,0.09686476,0.69559
657.635,70.65796,-3.23323,0.09872149,0.69504
658.235,70.7184,-3.23233,0.10014,0.69448
658.835,70.7787,-3.23355,0.10234,0.69392
659.435,70.83912,-3.2329,0.10183,0.69337
660.035,70.89952,-3.23419,0.10349,0.69281
660.635,70.95992,-3.23422,0.10359,0.69225
661.235,71.02025,-3.23421,0.10232,0.6917
661.835,71.08028,-3.23421,0.10016,0.69114
662.435,71.14057,-3.23524,0.10248,0.69058
663.035,71.20091,-3.23553,0.10315,0.69003
663.635,71.26134,-3.23553,0.103,0.68947
664.235,71.32167,-3.23474,0.10063,0.68891
664.835,71.3819,-3.23422,0.09812929,0.68835
665.435,71.4422,-3.23536,0.10171,0.68779
666.035,71.5022,-3.23682,0.10139,0.68724
666.635,71.5625,-3.23554,0.09990436,0.68668
667.235,71.62261,-3.23554,0.10063,0.68612
667.835,71.68284,-3.23554,0.10224,0.68556
668.435,71.74298,-3.23694,0.10314,0.685
669.035,71.80333,-3.23685,0.10253,0.68444
669.635,71.86363,-3.23685,0.10115,0.68388
670.235,71.92406,-3.23685,0.10381,0.68332
670.835,71.9845,-3.23779,0.10017,0.68276
671.435,72.0448,-3.23817,0.10012,0.6822
672.035,72.1052,-3.23817,0.10203,0.68164
672.635,72.16546,-3.23882,0.10347,0.68108
673.235,72.22575,-3.23817,0.10373,0.68052
673.835,72.2859,-3.23817,0.1029,0.67996
674.435,72.3463,-3.23817,0.10048,0.6794
675.035,72.40645,-3.23817,0.10129,0.67883
675.635,72.46676,-3.23817,0.1023,0.67827
676.235,72.527,-3.23817,0.09993159,0.67771
676.835,72.58717,-3.23817,0.096001,0.67715
677.435,72.64718,-3.23818,0.09637398,0.67659
678.035,72.7073,-3.2385,0.10022,0.67602
678.635,72.7676,-3.23949,0.09908424,0.67546
679.235,72.82826,-3.23949,0.09917864,0.6749
679.835,72.88845,-3.23947,0.10002,0.67434
680.435,72.94849,-3.23948,0.09956528,0.67377
681.035,73.00856,-3.23948,0.09856537,0.67321
681.635,73.06866,-3.2408,0.09837238,0.67265
682.235,73.12902,-3.2408,0.09686713,0.67208
682.835,73.18933,-3.23948,0.09652742,0.67152
683.435,73.24964,-3.23948,0.0943932,0.67096
684.035,73.30972,-3.24078,0.09303714,0.67039
684.635,73.3699,-3.2408,0.09425327,0.66983
685.235,73.4301,-3.2408,0.09120815,0.66926
685.835,73.4905,-3.24117,0.09352207,0.6687
686.435,73.551,-3.24212,0.09315963,0.66813
687.035,73.61135,-3.24212,0.09282248,0.66757
687.635,73.67166,-3.24211,0.09234664,0.667
688.235,73.73185,-3.24146,0.09161115,0.66644
688.835,73.79223,-3.24146,0.09151627,0.66587
689.435,73.8527,-3.24146,0.09108836,0.66531
690.035,73.9131,-3.24242,0.09088158,0.66474
690.635,73.97364,-3.24245,0.08963691,0.66417
691.235,74.03394,-3.24245,0.0897538,0.66361
691.835,74.09459,-3.24278,0.09157123,0.66304
692.435,74.155,-3.24414,0.09418915,0.66248
693.035,74.21552,-3.24409,0.0936968,0.66191
693.635,74.27592,-3.24408,0.09531804,0.66134
694.235,74.33641,-3.24344,0.09431586,0.66077
694.835,74.3968,-3.24344,0.09477841,0.66021
695.435,74.4573,-3.24335,0.09006037,0.65964
696.035,74.51778,-3.24476,0.09441878,0.65907
696.635,74.5783,-3.24476,0.09084464,0.65851
697.235,74.63863,-3.24476,0.08845704,0.65794
697.835,74.69891,-3.2448,0.08820048,0.65737
698.435,74.75933,-3.24411,0.08859219,0.6568
699.035,74.8198,-3.24509,0.08725292,0.65623
699.635,74.88043,-3.24608,0.08789531,0.65566
700.235,74.94095,-3.24608,0.08923634,0.6551
700.735,74.99127,-3.24608,0.08699743,0.65462