File: 01_Data/Eucalyptus_Flooring/MCC/Eucalyptus_Flooring_30K_min_211026_R3.txt
Sample ID:	C:\MCC\MCC Cal\Test\Eucalyptus_Flooring_30K_min_211026_R3.txt
Sample Weight (mg):	4.48
Heating Rate (C/s):	0.5
Combustor Temp (C):	900
N2 Flow Rate (cc/min):	80
O2 Flow Rate (cc/min):	20
Calibration File:	C:\MCC\MCC Cal\Coeff1 JN10440_30_210304.txt.txt
T Correction Coefficients:	0	1.024463	0
Time Shift (s):	14
*
Time (s)	Temperature (C)	N2 flow rate (cc/min)	O2 flow rate (cc/min)	Flow Rate (cc/min)	Oxygen (%)	HRR (W/g)	Heating rate (C/s)
0.000	106.563	79.997	19.997	103.006	20.476	0.077	0.008
2.000	106.497	79.999	19.995	103.005	20.479	-0.079	-0.009
4.000	106.520	79.999	19.995	103.005	20.474	0.222	0.022
6.000	106.538	79.999	19.995	102.999	20.480	-0.159	0.011
8.000	106.509	80.000	19.995	102.989	20.479	-0.081	-0.004
10.000	106.513	80.000	19.995	103.001	20.476	0.091	-0.018
12.000	106.491	80.000	19.994	102.987	20.475	0.194	-0.000
14.000	106.548	80.000	19.995	102.979	20.476	0.067	0.031
16.000	106.483	80.000	19.995	102.980	20.475	0.141	0.020
18.000	106.487	79.999	19.995	102.987	20.475	0.178	0.005
20.000	106.502	79.998	19.995	102.985	20.474	0.234	-0.015
22.000	106.479	79.999	19.996	102.997	20.477	0.024	0.001
24.000	106.472	79.997	19.996	103.006	20.477	0.014	-0.028
26.000	106.521	79.997	19.995	103.024	20.472	0.422	-0.018
28.000	106.511	79.999	19.995	103.043	20.470	0.507	0.028
30.000	106.547	79.998	19.996	103.042	20.469	0.610	-0.003
32.000	106.554	79.998	19.995	103.052	20.469	0.583	0.012
34.000	106.619	79.998	19.996	103.075	20.466	0.836	0.012
36.001	106.696	79.999	19.995	103.082	20.461	1.178	0.034
38.000	106.788	79.999	19.995	103.083	20.458	1.361	0.045
40.000	106.882	80.000	19.995	103.111	20.458	1.372	0.050
42.001	107.012	79.998	19.995	103.114	20.450	1.936	0.071
44.000	107.158	79.998	19.994	103.115	20.447	2.192	0.110
46.000	107.294	79.999	19.996	103.097	20.445	2.323	0.068
48.000	107.484	79.997	19.996	103.088	20.446	2.279	0.084
50.000	107.670	79.998	19.997	103.163	20.447	2.168	0.079
52.001	107.931	79.997	19.996	103.205	20.452	1.823	0.111
54.000	108.185	79.997	19.996	103.228	20.446	2.282	0.125
56.001	108.467	79.995	19.996	103.207	20.445	2.336	0.149
58.000	108.769	79.998	19.996	103.211	20.439	2.765	0.147
60.000	109.111	79.997	19.996	103.237	20.434	3.096	0.166
62.000	109.455	79.997	19.995	103.233	20.435	3.080	0.188
64.000	109.874	79.998	19.995	103.232	20.432	3.248	0.202
66.000	110.305	79.998	19.995	103.224	20.430	3.442	0.211
68.000	110.717	80.000	19.995	103.231	20.430	3.406	0.218
70.000	111.192	79.999	19.995	103.242	20.430	3.426	0.226
72.000	111.653	79.999	19.995	103.244	20.431	3.357	0.197
74.001	112.196	79.997	19.996	103.241	20.430	3.417	0.293
76.000	112.699	79.999	19.996	103.249	20.432	3.233	0.304
78.001	113.276	79.997	19.996	103.249	20.433	3.176	0.296
80.000	113.857	79.998	19.997	103.254	20.434	3.110	0.305
82.000	114.486	79.998	19.996	103.255	20.434	3.154	0.331
84.000	115.099	79.998	19.996	103.243	20.432	3.231	0.301
86.000	115.717	79.998	19.996	103.225	20.433	3.173	0.338
88.000	116.355	79.999	19.996	103.229	20.429	3.512	0.302
90.000	117.047	80.000	19.995	103.223	20.429	3.460	0.337
92.000	117.754	80.000	19.996	103.231	20.430	3.398	0.361
94.000	118.418	80.000	19.995	103.232	20.429	3.456	0.330
96.000	119.139	80.001	19.996	103.235	20.429	3.446	0.367
98.000	119.872	80.000	19.995	103.235	20.426	3.680	0.376
100.000	120.569	79.999	19.995	103.236	20.428	3.544	0.356
102.000	121.324	79.999	19.994	103.237	20.427	3.649	0.381
104.000	122.034	79.997	19.995	103.251	20.425	3.803	0.354
106.001	122.806	79.998	19.995	103.245	20.426	3.681	0.372
108.000	123.621	79.998	19.995	103.255	20.428	3.583	0.411
110.000	124.402	79.998	19.995	103.229	20.427	3.608	0.369
112.000	125.187	79.998	19.995	103.242	20.427	3.655	0.383
114.000	126.008	79.997	19.995	103.291	20.430	3.417	0.416
116.000	126.788	79.996	19.996	103.276	20.427	3.602	0.423
118.001	127.610	79.998	19.995	103.241	20.423	3.882	0.417
120.000	128.450	79.999	19.996	103.238	20.429	3.501	0.430
122.001	129.305	79.997	19.996	103.265	20.428	3.556	0.414
124.000	130.143	79.998	19.997	103.275	20.426	3.729	0.436
126.000	130.987	79.999	19.996	103.268	20.425	3.767	0.432
128.000	131.869	79.998	19.996	103.271	20.425	3.761	0.436
130.000	132.755	79.997	19.995	103.273	20.424	3.858	0.421
132.000	133.653	79.997	19.995	103.263	20.425	3.765	0.460
134.000	134.547	79.997	19.996	103.261	20.428	3.579	0.453
136.000	135.429	79.996	19.995	103.244	20.427	3.616	0.453
138.000	136.322	79.997	19.995	103.242	20.423	3.927	0.432
140.000	137.265	79.997	19.995	103.246	20.422	3.998	0.474
142.000	138.173	79.998	19.995	103.245	20.424	3.875	0.477
144.000	139.083	79.998	19.996	103.243	20.427	3.620	0.442
146.000	140.013	79.997	19.994	103.243	20.423	3.933	0.456
148.000	141.015	79.996	19.996	103.263	20.424	3.868	0.488
150.000	141.921	79.998	19.996	103.258	20.427	3.660	0.469
152.000	142.899	79.998	19.996	103.270	20.429	3.477	0.492
154.000	143.847	79.998	19.998	103.269	20.426	3.685	0.495
156.000	144.799	79.999	19.996	103.240	20.425	3.762	0.482
158.000	145.787	79.998	19.997	103.238	20.426	3.713	0.497
160.000	146.701	79.997	19.997	103.244	20.427	3.652	0.455
162.000	147.659	79.998	19.995	103.255	20.426	3.733	0.481
164.000	148.672	79.998	19.996	103.254	20.425	3.793	0.495
166.000	149.629	80.001	19.996	103.262	20.428	3.587	0.484
168.000	150.590	79.999	19.996	103.265	20.424	3.860	0.454
170.000	151.581	79.999	19.995	103.245	20.425	3.780	0.484
172.000	152.587	80.000	19.995	103.241	20.426	3.718	0.512
174.000	153.534	80.000	19.997	103.241	20.425	3.741	0.453
176.000	154.516	80.000	19.996	103.237	20.425	3.801	0.467
178.000	155.450	79.999	19.996	103.235	20.426	3.732	0.487
180.000	156.441	79.999	19.996	103.217	20.423	3.931	0.495
182.000	157.409	79.996	19.996	103.218	20.421	4.031	0.480
184.000	158.396	79.998	19.997	103.245	20.425	3.762	0.477
186.000	159.381	79.997	19.996	103.237	20.421	4.076	0.457
188.000	160.387	79.997	19.996	103.221	20.423	3.898	0.487
190.000	161.412	79.999	19.995	103.244	20.419	4.212	0.532
192.000	162.380	79.998	19.995	103.267	20.419	4.186	0.500
194.000	163.357	79.996	19.995	103.277	20.422	3.970	0.494
196.000	164.358	79.998	19.996	103.235	20.421	4.049	0.497
198.000	165.371	79.996	19.995	103.236	20.422	3.996	0.479
200.000	166.369	79.998	19.996	103.240	20.420	4.129	0.518
202.000	167.354	79.998	19.995	103.247	20.423	3.898	0.496
204.000	168.384	79.998	19.996	103.259	20.419	4.197	0.486
206.000	169.369	79.997	19.997	103.268	20.419	4.166	0.503
208.000	170.347	79.997	19.995	103.263	20.422	3.956	0.488
210.000	171.349	79.996	19.995	103.251	20.421	4.069	0.503
212.000	172.322	79.997	19.996	103.232	20.424	3.863	0.497
214.000	173.323	79.997	19.995	103.216	20.421	4.075	0.502
216.000	174.310	79.995	19.996	103.223	20.418	4.279	0.494
218.000	175.311	79.997	19.996	103.206	20.420	4.134	0.507
220.000	176.268	79.997	19.996	103.197	20.417	4.353	0.457
222.000	177.259	79.998	19.995	103.200	20.417	4.379	0.457
224.000	178.257	80.000	19.996	103.203	20.418	4.288	0.497
226.000	179.303	79.999	19.996	103.219	20.413	4.601	0.491
228.000	180.221	80.000	19.995	103.215	20.414	4.533	0.475
230.000	181.218	79.999	19.996	103.234	20.417	4.333	0.507
232.000	182.229	79.999	19.996	103.239	20.414	4.579	0.485
234.000	183.213	79.999	19.996	103.239	20.417	4.363	0.509
236.000	184.192	79.998	19.995	103.231	20.419	4.167	0.484
238.000	185.208	79.998	19.996	103.234	20.415	4.474	0.539
240.000	186.186	79.998	19.995	103.233	20.418	4.247	0.464
242.000	187.193	79.999	19.997	103.234	20.415	4.505	0.524
244.000	188.229	79.998	19.997	103.232	20.416	4.403	0.504
246.000	189.195	79.998	19.997	103.230	20.413	4.607	0.508
248.000	190.190	79.999	19.996	103.225	20.410	4.819	0.505
250.000	191.194	80.000	19.996	103.207	20.414	4.551	0.502
252.000	192.187	80.002	19.995	103.228	20.411	4.778	0.494
254.000	193.140	80.000	19.995	103.236	20.415	4.484	0.457
256.000	194.170	80.000	19.996	103.230	20.410	4.870	0.489
258.000	195.157	79.999	19.995	103.214	20.412	4.725	0.488
260.000	196.143	79.999	19.996	103.239	20.409	4.896	0.494
262.000	197.103	79.997	19.996	103.216	20.408	4.970	0.492
264.000	198.155	79.997	19.997	103.217	20.407	5.045	0.566
266.000	199.073	79.995	19.997	103.232	20.407	5.097	0.493
268.000	200.099	79.998	19.997	103.243	20.406	5.110	0.507
270.000	201.051	79.996	19.997	103.237	20.408	5.019	0.489
272.000	202.056	79.997	19.996	103.215	20.404	5.273	0.496
274.000	203.052	79.997	19.997	103.204	20.408	5.015	0.474
276.000	204.022	79.996	19.995	103.204	20.401	5.467	0.486
278.000	205.024	79.997	19.995	103.206	20.400	5.560	0.495
280.000	206.004	79.997	19.996	103.227	20.402	5.417	0.503
282.000	206.996	79.997	19.995	103.198	20.400	5.587	0.515
284.000	207.981	79.998	19.996	103.207	20.398	5.675	0.506
286.000	208.996	79.998	19.995	103.212	20.396	5.852	0.487
288.000	209.996	79.998	19.995	103.208	20.397	5.810	0.529
290.000	210.998	79.997	19.995	103.209	20.395	5.912	0.483
292.000	211.960	79.997	19.996	103.221	20.392	6.110	0.436
294.000	212.961	79.997	19.996	103.215	20.392	6.158	0.503
296.000	213.961	79.998	19.995	103.216	20.392	6.167	0.472
298.000	214.994	79.997	19.995	103.248	20.394	6.018	0.491
300.000	215.935	79.998	19.995	103.217	20.389	6.372	0.488
302.000	216.965	79.998	19.995	103.222	20.388	6.456	0.500
304.000	217.926	79.998	19.996	103.213	20.387	6.496	0.501
306.000	218.919	79.997	19.995	103.218	20.388	6.409	0.487
308.000	219.921	80.000	19.996	103.217	20.382	6.883	0.494
310.000	220.976	80.000	19.996	103.203	20.377	7.200	0.568
312.000	221.917	80.000	19.995	103.204	20.378	7.127	0.530
314.000	222.930	79.999	19.995	103.232	20.378	7.149	0.536
316.000	223.885	79.999	19.994	103.215	20.375	7.349	0.455
318.000	224.866	79.998	19.995	103.224	20.372	7.565	0.486
320.000	225.894	79.999	19.994	103.238	20.374	7.424	0.515
322.000	226.819	79.998	19.995	103.225	20.370	7.752	0.480
324.000	227.776	79.998	19.996	103.228	20.367	7.957	0.497
326.000	228.823	79.997	19.995	103.222	20.368	7.853	0.499
328.000	229.840	79.999	19.996	103.226	20.365	8.112	0.475
330.000	230.814	79.998	19.995	103.212	20.363	8.204	0.494
332.000	231.793	79.999	19.994	103.203	20.358	8.552	0.486
334.000	232.766	80.000	19.995	103.219	20.357	8.651	0.480
336.000	233.768	80.000	19.995	103.205	20.355	8.764	0.477
338.000	234.756	79.998	19.995	103.204	20.353	8.931	0.487
340.000	235.710	79.999	19.994	103.216	20.350	9.140	0.478
342.000	236.687	79.997	19.995	103.216	20.351	9.084	0.501
344.000	237.670	79.998	19.995	103.205	20.355	8.835	0.467
346.000	238.653	79.998	19.996	103.203	20.348	9.307	0.478
348.000	239.640	79.996	19.996	103.218	20.345	9.485	0.498
350.000	240.653	79.996	19.995	103.235	20.344	9.623	0.508
352.000	241.595	79.997	19.995	103.236	20.343	9.692	0.482
354.000	242.585	79.996	19.996	103.231	20.342	9.722	0.477
356.000	243.601	79.996	19.996	103.230	20.340	9.872	0.490
358.000	244.581	79.997	19.995	103.228	20.338	10.005	0.468
360.000	245.588	79.997	19.995	103.220	20.333	10.354	0.519
362.000	246.585	79.995	19.996	103.208	20.330	10.571	0.504
364.000	247.549	79.997	19.996	103.220	20.330	10.589	0.478
366.000	248.543	79.996	19.998	103.230	20.324	11.039	0.528
368.000	249.617	79.997	19.996	103.233	20.322	11.155	0.511
370.000	250.624	79.998	19.996	103.225	20.320	11.291	0.531
372.000	251.642	79.998	19.996	103.232	20.316	11.584	0.510
374.000	252.569	79.996	19.995	103.236	20.317	11.529	0.459
376.000	253.561	79.997	19.996	103.228	20.312	11.862	0.504
378.000	254.549	79.995	19.995	103.224	20.307	12.241	0.492
380.000	255.539	79.996	19.993	103.205	20.307	12.225	0.485
382.000	256.502	79.997	19.995	103.233	20.300	12.749	0.479
384.000	257.503	79.997	19.995	103.239	20.295	13.089	0.488
386.000	258.538	79.998	19.995	103.241	20.291	13.419	0.501
388.000	259.520	79.998	19.996	103.245	20.285	13.799	0.512
390.000	260.528	79.998	19.994	103.237	20.286	13.737	0.525
392.000	261.486	79.997	19.995	103.246	20.276	14.508	0.468
394.000	262.479	79.998	19.995	103.232	20.274	14.649	0.486
396.000	263.471	79.999	19.995	103.236	20.272	14.797	0.489
398.000	264.468	79.999	19.995	103.239	20.267	15.111	0.498
400.000	265.452	79.998	19.995	103.244	20.263	15.428	0.497
402.000	266.437	79.997	19.994	103.258	20.255	15.983	0.504
404.000	267.431	79.997	19.994	103.244	20.249	16.455	0.525
406.000	268.423	79.998	19.995	103.250	20.244	16.801	0.479
408.000	269.445	79.998	19.995	103.258	20.237	17.263	0.526
410.000	270.446	79.999	19.996	103.261	20.228	17.934	0.525
412.000	271.515	80.001	19.994	103.252	20.222	18.362	0.515
414.000	272.500	80.000	19.995	103.245	20.218	18.662	0.497
416.000	273.481	79.999	19.994	103.254	20.213	19.003	0.488
418.000	274.469	80.000	19.995	103.257	20.201	19.895	0.512
420.000	275.459	79.999	19.995	103.272	20.196	20.275	0.485
422.000	276.473	79.998	19.995	103.274	20.188	20.805	0.475
424.000	277.510	79.996	19.996	103.278	20.183	21.155	0.488
426.000	278.517	79.996	19.996	103.279	20.172	21.998	0.543
428.000	279.523	79.997	19.995	103.274	20.164	22.540	0.540
430.000	280.511	79.996	19.997	103.274	20.158	22.985	0.485
432.000	281.513	79.998	19.996	103.277	20.148	23.700	0.521
434.000	282.485	79.997	19.994	103.293	20.137	24.463	0.494
436.000	283.462	79.997	19.996	103.291	20.126	25.298	0.507
438.000	284.480	79.997	19.996	103.300	20.119	25.806	0.497
440.000	285.521	79.996	19.995	103.300	20.108	26.577	0.548
442.000	286.499	79.996	19.995	103.293	20.098	27.325	0.482
444.000	287.533	79.997	19.995	103.300	20.087	28.086	0.502
446.000	288.510	79.997	19.996	103.312	20.077	28.780	0.484
448.000	289.551	79.995	19.996	103.313	20.065	29.685	0.505
450.000	290.531	79.995	19.996	103.316	20.057	30.264	0.531
452.000	291.544	79.996	19.996	103.316	20.048	30.939	0.503
454.000	292.572	79.996	19.995	103.316	20.034	31.932	0.509
456.000	293.560	79.995	19.996	103.317	20.021	32.823	0.490
458.000	294.598	79.996	19.996	103.318	20.012	33.493	0.547
460.000	295.583	79.997	19.996	103.318	20.001	34.257	0.473
462.000	296.616	79.997	19.995	103.335	19.988	35.238	0.516
464.000	297.586	79.997	19.995	103.353	19.977	35.992	0.501
466.000	298.665	79.998	19.994	103.355	19.964	36.954	0.534
468.000	299.637	79.999	19.995	103.355	19.949	38.010	0.523
470.000	300.587	79.998	19.994	103.351	19.939	38.779	0.472
472.000	301.642	79.999	19.995	103.361	19.925	39.793	0.488
474.000	302.621	79.998	19.995	103.362	19.915	40.487	0.496
476.000	303.630	80.000	19.995	103.354	19.900	41.556	0.509
478.000	304.648	79.999	19.995	103.355	19.883	42.815	0.524
480.000	305.604	79.998	19.995	103.357	19.875	43.389	0.502
482.000	306.582	79.998	19.994	103.371	19.860	44.482	0.489
484.000	307.612	79.997	19.995	103.388	19.841	45.836	0.510
486.000	308.591	79.999	19.995	103.392	19.832	46.492	0.490
488.000	309.650	79.999	19.995	103.406	19.816	47.608	0.548
490.000	310.677	79.999	19.995	103.419	19.801	48.750	0.487
492.000	311.664	80.000	19.994	103.424	19.788	49.678	0.484
494.000	312.785	79.999	19.994	103.426	19.771	50.900	0.558
496.000	313.849	80.001	19.994	103.428	19.756	51.965	0.547
498.000	314.868	80.002	19.995	103.430	19.743	52.915	0.503
500.000	315.931	80.001	19.994	103.429	19.727	54.059	0.515
502.000	316.986	80.000	19.995	103.426	19.714	55.037	0.553
504.000	318.007	79.999	19.995	103.433	19.700	55.980	0.532
506.000	319.134	79.998	19.995	103.440	19.688	56.888	0.521
508.000	320.157	79.997	19.995	103.445	19.672	58.045	0.539
510.000	321.221	79.998	19.995	103.463	19.656	59.155	0.538
512.000	322.326	79.998	19.995	103.471	19.647	59.847	0.528
514.000	323.394	79.997	19.995	103.458	19.634	60.790	0.533
516.000	324.475	79.998	19.995	103.451	19.624	61.470	0.551
518.000	325.567	79.997	19.996	103.467	19.617	61.987	0.572
520.000	326.680	79.998	19.996	103.468	19.608	62.644	0.561
522.000	327.726	79.996	19.995	103.451	19.603	62.997	0.485
524.000	328.800	79.998	19.996	103.452	19.596	63.447	0.525
526.000	329.927	79.998	19.995	103.450	19.595	63.528	0.576
528.000	331.023	79.996	19.995	103.438	19.596	63.490	0.569
530.000	332.085	79.997	19.995	103.434	19.591	63.809	0.525
532.000	333.215	79.997	19.996	103.435	19.592	63.707	0.607
534.000	334.287	79.997	19.996	103.430	19.605	62.802	0.538
536.000	335.414	79.998	19.996	103.405	19.607	62.612	0.546
538.000	336.466	79.997	19.996	103.396	19.618	61.814	0.500
540.000	337.553	79.998	19.996	103.393	19.637	60.483	0.540
542.000	338.654	79.998	19.996	103.383	19.650	59.528	0.550
544.000	339.693	79.997	19.996	103.360	19.673	57.890	0.515
546.000	340.770	79.997	19.997	103.347	19.692	56.502	0.526
548.000	341.835	79.997	19.997	103.330	19.718	54.598	0.534
550.000	342.871	79.998	19.998	103.314	19.739	53.084	0.541
552.000	343.921	79.998	19.997	103.310	19.769	50.927	0.512
554.000	344.957	79.999	19.996	103.283	19.796	49.022	0.510
556.000	346.055	80.000	19.996	103.274	19.829	46.589	0.521
558.000	347.100	80.000	19.996	103.270	19.858	44.504	0.526
560.000	348.170	79.999	19.996	103.249	19.890	42.243	0.526
562.000	349.227	80.000	19.995	103.235	19.924	39.754	0.521
564.000	350.273	80.000	19.995	103.235	19.952	37.783	0.510
566.000	351.330	80.000	19.996	103.232	19.983	35.560	0.511
568.000	352.361	79.998	19.995	103.205	20.004	33.997	0.525
570.000	353.461	79.999	19.995	103.197	20.036	31.710	0.573
572.000	354.480	80.000	19.995	103.199	20.063	29.774	0.524
574.000	355.555	79.999	19.995	103.198	20.086	28.157	0.539
576.000	356.567	80.000	19.996	103.197	20.109	26.507	0.542
578.000	357.604	80.000	19.995	103.187	20.130	24.975	0.505
580.000	358.579	80.001	19.995	103.179	20.152	23.417	0.473
582.000	359.609	79.999	19.995	103.189	20.165	22.474	0.475
584.000	360.674	80.000	19.996	103.196	20.181	21.263	0.529
586.000	361.663	79.996	19.994	103.195	20.199	19.968	0.493
588.000	362.676	79.997	19.995	103.180	20.209	19.268	0.521
590.000	363.675	79.997	19.995	103.175	20.222	18.371	0.505
592.000	364.673	79.997	19.995	103.165	20.232	17.608	0.525
594.000	365.696	79.997	19.995	103.161	20.242	16.927	0.516
596.000	366.696	79.996	19.994	103.162	20.250	16.333	0.506
598.000	367.687	79.999	19.996	103.164	20.258	15.774	0.517
600.000	368.673	79.998	19.994	103.166	20.268	15.064	0.507
602.000	369.654	79.998	19.995	103.165	20.275	14.535	0.475
604.000	370.636	79.999	19.995	103.175	20.278	14.323	0.491
606.000	371.687	79.998	19.996	103.170	20.284	13.916	0.512
608.000	372.653	79.998	19.997	103.163	20.287	13.672	0.531
610.000	373.621	79.998	19.996	103.161	20.296	13.063	0.513
612.000	374.655	79.997	19.996	103.157	20.296	13.027	0.498
614.000	375.705	79.999	19.996	103.158	20.305	12.354	0.517
616.000	376.637	79.997	19.997	103.158	20.307	12.241	0.491
618.000	377.685	79.998	19.996	103.165	20.309	12.134	0.501
620.000	378.681	79.998	19.996	103.163	20.311	11.973	0.481
622.000	379.677	79.997	19.996	103.157	20.317	11.556	0.518
624.000	380.696	79.997	19.997	103.155	20.315	11.641	0.500
626.000	381.719	79.997	19.996	103.152	20.317	11.517	0.504
628.000	382.719	79.998	19.996	103.155	20.321	11.251	0.481
630.000	383.733	80.000	19.997	103.142	20.323	11.086	0.502
632.000	384.730	79.999	19.997	103.138	20.323	11.120	0.525
634.000	385.769	79.999	19.997	103.129	20.327	10.831	0.512
636.000	386.768	79.998	19.997	103.140	20.325	10.917	0.484
638.000	387.758	79.998	19.996	103.148	20.327	10.828	0.506
640.000	388.806	79.998	19.997	103.157	20.331	10.514	0.515
642.000	389.830	79.998	19.996	103.156	20.332	10.449	0.480
644.000	390.843	79.997	19.998	103.144	20.332	10.444	0.483
646.000	391.837	79.999	19.997	103.154	20.333	10.349	0.489
648.000	392.887	80.000	19.996	103.152	20.333	10.366	0.520
650.000	393.901	79.999	19.997	103.139	20.337	10.115	0.497
652.000	394.944	80.000	19.995	103.142	20.341	9.805	0.486
654.000	395.968	80.000	19.994	103.151	20.341	9.774	0.536
656.000	396.995	80.000	19.995	103.169	20.341	9.800	0.508
658.000	398.022	80.001	19.995	103.168	20.343	9.650	0.529
660.000	399.058	80.000	19.995	103.182	20.341	9.825	0.510
662.000	400.052	79.999	19.993	103.157	20.340	9.872	0.497
664.000	401.074	79.999	19.995	103.121	20.337	10.059	0.526
666.000	402.121	80.000	19.995	103.119	20.341	9.763	0.512
668.000	403.108	79.998	19.994	103.133	20.344	9.589	0.507
670.000	404.080	79.998	19.995	103.168	20.343	9.621	0.480
672.000	405.110	79.996	19.996	103.159	20.343	9.645	0.501
674.000	406.120	79.998	19.995	103.158	20.345	9.480	0.491
676.000	407.102	79.999	19.995	103.131	20.348	9.279	0.465
678.000	408.136	79.999	19.996	103.150	20.348	9.272	0.470
680.000	409.157	80.000	19.996	103.146	20.350	9.150	0.510
682.000	410.202	79.999	19.995	103.155	20.347	9.362	0.510
684.000	411.213	79.998	19.996	103.136	20.351	9.082	0.514
686.000	412.202	79.999	19.995	103.152	20.352	9.028	0.507
688.000	413.237	79.999	19.995	103.125	20.352	9.009	0.513
690.000	414.227	79.999	19.995	103.121	20.351	9.091	0.508
692.000	415.239	79.999	19.996	103.135	20.352	8.995	0.488
694.000	416.229	79.999	19.996	103.132	20.350	9.169	0.515
696.000	417.245	79.998	19.995	103.133	20.350	9.139	0.499
698.000	418.244	79.999	19.994	103.130	20.352	9.020	0.504
700.000	419.298	79.998	19.995	103.152	20.353	8.931	0.504
702.000	420.289	79.998	19.995	103.148	20.354	8.897	0.490
704.000	421.336	79.997	19.997	103.140	20.353	8.906	0.523
706.000	422.327	79.998	19.996	103.144	20.355	8.800	0.469
708.000	423.376	79.998	19.996	103.144	20.351	9.050	0.515
710.000	424.341	79.999	19.996	103.126	20.353	8.948	0.499
712.000	425.354	80.000	19.996	103.122	20.351	9.054	0.509
714.000	426.358	79.999	19.996	103.145	20.354	8.893	0.495
716.000	427.365	79.999	19.996	103.127	20.355	8.814	0.452
718.000	428.385	80.000	19.995	103.134	20.348	9.274	0.502
720.000	429.367	79.999	19.995	103.133	20.347	9.341	0.483
722.000	430.388	79.998	19.996	103.145	20.350	9.158	0.500
724.000	431.392	79.997	19.997	103.139	20.359	8.496	0.505
726.000	432.340	79.997	19.997	103.126	20.361	8.357	0.494
728.000	433.480	79.998	19.996	103.126	20.357	8.617	0.516
730.000	434.528	80.000	19.997	103.123	20.359	8.489	0.546
732.000	435.241	80.000	19.996	103.142	20.359	8.510	0.322
734.000	436.551	80.000	19.996	103.141	20.360	8.431	0.240
736.000	437.178	79.999	19.995	103.123	20.361	8.330	0.176
738.000	438.454	79.999	19.996	103.114	20.362	8.272	0.911
740.000	439.571	80.000	19.996	103.127	20.361	8.376	0.537
742.000	440.503	80.001	19.995	103.124	20.361	8.387	0.457
744.000	441.479	80.000	19.995	103.117	20.363	8.188	0.539
746.001	442.527	80.000	19.996	103.117	20.365	8.060	0.521
748.000	443.459	79.998	19.996	103.115	20.364	8.137	0.489
750.000	444.502	79.999	19.995	103.121	20.366	8.000	0.509
752.000	445.428	79.998	19.995	103.131	20.368	7.854	0.468
754.000	446.475	79.999	19.995	103.138	20.370	7.695	0.499
756.000	447.360	79.999	19.996	103.120	20.369	7.784	0.483
758.000	448.406	79.998	19.996	103.129	20.371	7.628	0.499
760.000	449.389	79.996	19.995	103.138	20.377	7.226	0.482
762.000	450.344	79.997	19.995	103.133	20.373	7.506	0.504
764.000	451.335	79.998	19.995	103.130	20.375	7.332	0.503
766.000	452.290	79.999	19.996	103.121	20.372	7.564	0.498
768.000	453.279	79.998	19.996	103.120	20.375	7.380	0.512
770.000	454.243	79.998	19.995	103.131	20.372	7.582	0.466
772.000	455.248	79.998	19.996	103.135	20.373	7.500	0.508
774.000	456.240	79.998	19.996	103.126	20.372	7.566	0.508
776.000	457.213	79.998	19.995	103.122	20.371	7.625	0.478
778.000	458.159	79.998	19.995	103.124	20.375	7.381	0.486
780.000	459.126	79.997	19.995	103.124	20.376	7.304	0.483
782.000	460.141	79.996	19.994	103.125	20.378	7.146	0.532
784.000	461.058	79.997	19.995	103.130	20.378	7.126	0.481
786.000	462.040	79.997	19.996	103.125	20.379	7.047	0.509
788.000	463.006	79.997	19.995	103.132	20.379	7.101	0.499
790.000	463.942	79.999	19.996	103.130	20.378	7.110	0.452
792.000	464.949	79.998	19.995	103.118	20.379	7.051	0.485
794.000	465.907	80.000	19.996	103.116	20.382	6.874	0.482
796.000	466.862	80.000	19.995	103.116	20.380	6.961	0.484
798.000	467.847	80.000	19.996	103.116	20.382	6.867	0.491
800.000	468.824	80.000	19.996	103.123	20.382	6.863	0.496
802.000	469.792	79.998	19.996	103.134	20.382	6.848	0.499
804.000	470.773	80.000	19.996	103.124	20.385	6.623	0.530
806.000	471.764	79.999	19.996	103.107	20.384	6.735	0.480
808.000	472.765	79.999	19.996	103.106	20.386	6.577	0.506
810.000	473.812	79.998	19.996	103.120	20.382	6.876	0.525
812.000	474.830	79.998	19.996	103.125	20.385	6.631	0.530
814.000	475.804	79.999	19.995	103.121	20.384	6.738	0.508
816.000	476.778	79.999	19.996	103.133	20.380	6.973	0.511
818.000	477.817	80.000	19.996	103.132	20.386	6.598	0.525
820.000	478.807	79.999	19.996	103.124	20.386	6.555	0.526
822.000	479.759	80.001	19.997	103.117	20.385	6.647	0.472
824.000	480.780	80.000	19.996	103.110	20.387	6.498	0.470
826.000	481.751	79.999	19.996	103.111	20.390	6.272	0.501
828.000	482.782	79.998	19.996	103.105	20.385	6.605	0.511
830.000	483.719	79.996	19.996	103.121	20.388	6.425	0.473
832.000	484.751	79.997	19.996	103.126	20.386	6.537	0.509
834.000	485.731	79.998	19.995	103.123	20.389	6.321	0.485
836.000	486.720	79.998	19.995	103.119	20.388	6.419	0.456
838.000	487.740	79.997	19.995	103.118	20.388	6.440	0.489
840.000	488.734	79.997	19.995	103.121	20.392	6.163	0.497
842.000	489.712	79.997	19.995	103.119	20.391	6.236	0.472
844.000	490.731	79.997	19.996	103.132	20.390	6.261	0.490
846.000	491.685	79.999	19.995	103.122	20.387	6.500	0.472
848.000	492.695	79.999	19.994	103.127	20.388	6.403	0.497
850.000	493.704	79.998	19.994	103.127	20.388	6.401	0.479
852.000	494.733	79.998	19.995	103.122	20.390	6.302	0.523
854.000	495.781	79.998	19.995	103.119	20.388	6.431	0.525
856.000	496.791	79.997	19.995	103.115	20.388	6.411	0.495
858.000	497.748	79.997	19.995	103.122	20.392	6.113	0.496
860.000	498.793	79.998	19.994	103.121	20.391	6.207	0.509
862.000	499.784	79.999	19.997	103.113	20.389	6.340	0.497
864.000	500.852	79.998	19.995	103.113	20.385	6.647	0.542
866.000	501.869	79.999	19.995	103.127	20.390	6.296	0.479
868.000	502.937	79.998	19.996	103.140	20.392	6.145	0.550
870.000	503.891	79.999	19.996	103.120	20.396	5.816	0.501
872.000	504.932	80.000	19.995	103.114	20.393	6.090	0.485
874.000	505.935	80.001	19.996	103.110	20.392	6.108	0.503
876.000	506.957	80.000	19.995	103.117	20.394	5.981	0.473
878.000	507.996	80.000	19.995	103.119	20.393	6.085	0.491
880.000	509.006	80.000	19.995	103.119	20.392	6.137	0.505
882.000	509.992	80.000	19.994	103.116	20.390	6.280	0.489
884.000	511.061	79.999	19.995	103.116	20.393	6.051	0.504
886.000	512.059	80.000	19.996	103.120	20.394	6.009	0.515
888.000	513.074	79.999	19.996	103.122	20.394	6.005	0.542
890.000	514.066	79.999	19.997	103.130	20.397	5.806	0.519
892.000	515.122	80.000	19.995	103.120	20.396	5.864	0.516
894.000	516.147	79.998	19.995	103.133	20.397	5.756	0.503
896.000	517.141	79.999	19.995	103.135	20.395	5.898	0.507
898.000	518.188	79.999	19.995	103.121	20.396	5.832	0.524
900.000	519.198	80.001	19.996	103.101	20.393	6.066	0.521
902.000	520.229	80.002	19.996	103.095	20.395	5.909	0.510
904.000	521.263	80.001	19.995	103.134	20.396	5.835	0.506
906.000	522.258	80.001	19.995	103.120	20.395	5.909	0.484
908.000	523.273	80.000	19.996	103.112	20.393	6.056	0.488
910.000	524.296	79.999	19.996	103.121	20.391	6.179	0.504
912.000	525.280	79.998	19.997	103.105	20.392	6.135	0.488
914.000	526.288	79.998	19.996	103.095	20.395	5.902	0.487
916.000	527.297	79.997	19.996	103.120	20.390	6.260	0.510
918.000	528.325	79.997	19.996	103.119	20.395	5.906	0.533
920.000	529.345	79.999	19.996	103.107	20.389	6.358	0.517
922.000	530.312	79.997	19.996	103.087	20.388	6.417	0.493
924.000	531.316	79.998	19.996	103.108	20.389	6.367	0.479
926.000	532.326	80.000	19.995	103.116	20.393	6.048	0.507
928.000	533.358	79.999	19.996	103.118	20.390	6.248	0.506
930.000	534.329	79.999	19.995	103.117	20.393	6.091	0.483
932.000	535.328	80.000	19.995	103.110	20.393	6.086	0.530
934.000	536.319	79.999	19.995	103.117	20.394	5.999	0.489
936.000	537.349	79.998	19.996	103.121	20.392	6.158	0.501
938.000	538.376	79.998	19.996	103.132	20.391	6.205	0.511
940.000	539.413	79.997	19.996	103.114	20.396	5.864	0.484
942.000	540.400	79.996	19.996	103.105	20.393	6.053	0.514
944.000	541.521	79.998	19.995	103.118	20.392	6.136	0.539
946.000	542.578	79.999	19.995	103.113	20.389	6.366	0.535
948.000	543.576	79.998	19.996	103.107	20.393	6.099	0.513
950.000	544.581	79.998	19.996	103.117	20.394	5.989	0.471
952.000	545.633	80.000	19.996	103.113	20.391	6.174	0.523
954.000	546.664	80.000	19.996	103.108	20.393	6.084	0.506
956.000	547.705	80.000	19.996	103.106	20.398	5.724	0.537
958.000	548.765	80.001	19.995	103.112	20.400	5.532	0.516
960.000	549.753	79.999	19.995	103.139	20.397	5.781	0.522
962.000	550.859	79.999	19.995	103.094	20.396	5.848	0.551
964.000	551.919	79.999	19.995	103.110	20.396	5.850	0.549
966.000	552.908	79.999	19.995	103.109	20.396	5.858	0.495
968.000	553.939	79.998	19.995	103.093	20.398	5.667	0.516
970.000	555.041	79.999	19.995	103.115	20.398	5.713	0.515
972.000	556.055	80.000	19.996	103.105	20.396	5.816	0.529
974.000	557.069	79.999	19.996	103.093	20.397	5.756	0.509
976.000	558.093	79.999	19.995	103.086	20.400	5.541	0.561
978.000	559.090	80.000	19.995	103.089	20.397	5.769	0.493
980.000	560.115	80.000	19.996	103.100	20.394	6.000	0.479
982.000	561.125	80.001	19.995	103.090	20.395	5.889	0.529
984.000	562.155	80.000	19.995	103.092	20.395	5.890	0.497
986.000	563.187	80.000	19.996	103.111	20.398	5.709	0.513
988.000	564.158	80.000	19.996	103.120	20.396	5.865	0.482
990.000	565.149	79.998	19.996	103.106	20.398	5.703	0.497
992.000	566.131	79.998	19.996	103.087	20.396	5.882	0.475
994.000	567.114	79.998	19.995	103.090	20.400	5.559	0.498
996.000	568.092	79.999	19.995	103.093	20.398	5.668	0.497
998.000	569.093	79.997	19.996	103.101	20.394	5.967	0.476
1000.000	570.043	79.998	19.996	103.105	20.396	5.865	0.483
1002.000	571.073	79.998	19.996	103.102	20.397	5.744	0.508
1004.000	572.047	79.999	19.997	103.117	20.397	5.771	0.494
1006.000	573.055	79.997	19.997	103.122	20.399	5.641	0.506
1008.000	574.078	79.997	19.997	103.106	20.394	5.994	0.506
1010.000	575.155	79.999	19.995	103.087	20.397	5.748	0.521
1012.000	576.106	79.998	19.996	103.106	20.393	6.062	0.467
1014.000	577.129	79.998	19.996	103.107	20.397	5.777	0.511
1016.000	578.121	79.998	19.996	103.112	20.392	6.126	0.514
1018.000	579.181	79.998	19.995	103.103	20.395	5.934	0.505
1020.000	580.145	79.997	19.996	103.091	20.395	5.897	0.487
1022.000	581.175	79.996	19.994	103.106	20.395	5.900	0.530
1024.000	582.180	79.998	19.996	103.120	20.397	5.742	0.478
1026.001	583.220	79.995	19.995	103.107	20.397	5.783	0.513
1028.000	584.248	79.997	19.996	103.105	20.397	5.793	0.536
1030.000	585.237	79.997	19.995	103.097	20.395	5.936	0.484
1032.000	586.326	79.998	19.996	103.103	20.398	5.710	0.529
1034.000	587.363	79.998	19.995	103.108	20.397	5.764	0.514
1036.000	588.422	79.999	19.995	103.109	20.397	5.807	0.527
1038.001	589.499	79.999	19.994	103.121	20.397	5.796	0.538
1040.000	590.522	80.000	19.996	103.116	20.398	5.704	0.540
1042.000	591.592	80.000	19.995	103.102	20.397	5.808	0.524
1044.001	592.657	79.998	19.994	103.104	20.394	5.987	0.526
1046.000	593.704	79.999	19.995	103.116	20.396	5.872	0.536
1048.000	594.770	79.997	19.994	103.121	20.395	5.921	0.506
1050.000	595.824	79.998	19.995	103.119	20.394	6.002	0.529
1052.000	596.870	79.997	19.996	103.091	20.394	6.014	0.529
1054.000	597.952	80.000	19.997	103.082	20.396	5.823	0.529
1056.000	598.966	80.001	19.995	103.083	20.393	6.073	0.510
1058.000	600.001	80.000	19.995	103.089	20.396	5.857	0.543
1060.000	601.062	80.000	19.995	103.097	20.391	6.172	0.522
1062.000	602.083	80.000	19.994	103.094	20.391	6.223	0.531
1064.001	603.100	80.001	19.996	103.103	20.390	6.282	0.501
1066.000	604.179	80.000	19.996	103.101	20.393	6.096	0.502
1068.001	605.200	79.998	19.996	103.096	20.392	6.147	0.494
1070.000	606.248	79.998	19.995	103.108	20.392	6.160	0.512
1072.000	607.272	79.998	19.996	103.099	20.393	6.081	0.530
1074.000	608.291	79.999	19.997	103.083	20.390	6.277	0.513
1076.001	609.309	79.997	19.996	103.085	20.392	6.138	0.501
1078.000	610.352	79.996	19.996	103.092	20.393	6.083	0.518
1080.001	611.404	79.997	19.997	103.094	20.394	5.963	0.511
1082.000	612.400	79.999	19.995	103.106	20.391	6.236	0.498
1084.000	613.430	79.998	19.996	103.105	20.392	6.129	0.524
1086.000	614.456	79.997	19.995	103.099	20.394	5.982	0.527
1088.000	615.507	79.997	19.997	103.102	20.398	5.703	0.523
1090.000	616.545	79.997	19.995	103.099	20.394	5.990	0.543
1092.000	617.540	79.999	19.996	103.089	20.398	5.705	0.509
1094.000	618.594	79.997	19.997	103.097	20.398	5.693	0.504
1096.001	619.584	79.998	19.996	103.106	20.395	5.937	0.525
1098.001	620.610	79.997	19.997	103.097	20.395	5.888	0.510
1100.001	621.631	79.996	19.997	103.090	20.393	6.046	0.519
1102.000	622.673	79.997	19.997	103.092	20.397	5.806	0.524
1104.000	623.678	79.997	19.997	103.092	20.392	6.112	0.505
1106.000	624.668	79.997	19.996	103.085	20.397	5.771	0.485
1108.000	625.698	79.998	19.997	103.084	20.398	5.729	0.492
1110.000	626.695	79.999	19.996	103.084	20.396	5.878	0.489
1112.000	627.703	79.998	19.996	103.084	20.392	6.143	0.503
1114.001	628.693	79.998	19.996	103.085	20.392	6.107	0.516
1116.000	629.698	80.000	19.995	103.085	20.396	5.863	0.499
1118.000	630.697	80.000	19.995	103.084	20.392	6.167	0.495
1120.000	631.727	80.001	19.995	103.084	20.394	5.963	0.520
1122.000	632.719	80.000	19.996	103.089	20.399	5.655	0.517
1124.000	633.731	80.000	19.995	103.097	20.395	5.889	0.499
1126.000	634.735	79.999	19.995	103.095	20.396	5.836	0.530
1128.000	635.763	79.999	19.995	103.096	20.398	5.719	0.497
1130.000	636.784	79.999	19.995	103.093	20.395	5.888	0.528
1132.000	637.754	79.999	19.995	103.096	20.394	5.991	0.481
1134.001	638.845	80.000	19.995	103.095	20.390	6.276	0.506
1136.000	639.875	80.001	19.996	103.085	20.395	5.914	0.509
1138.000	640.880	80.000	19.995	103.080	20.391	6.199	0.516
1140.000	641.897	80.000	19.995	103.080	20.394	5.995	0.514
1142.000	642.911	80.001	19.995	103.088	20.394	5.983	0.534
1144.000	643.944	80.001	19.995	103.092	20.399	5.610	0.511
1146.000	644.941	80.001	19.995	103.089	20.395	5.888	0.509
1148.000	645.966	79.998	19.994	103.080	20.401	5.505	0.524
1150.000	647.033	80.000	19.995	103.084	20.398	5.691	0.572
1152.000	648.027	79.999	19.994	103.086	20.397	5.798	0.485
1154.001	649.064	79.998	19.996	103.084	20.396	5.834	0.536
1156.000	650.136	79.998	19.996	103.083	20.397	5.752	0.503
1158.000	651.202	79.998	19.996	103.083	20.391	6.192	0.547
1160.000	652.194	79.997	19.995	103.084	20.398	5.705	0.533
1162.000	653.238	79.999	19.996	103.089	20.394	5.971	0.493
1164.000	654.289	79.996	19.997	103.089	20.396	5.846	0.506
1166.001	655.359	79.998	19.996	103.090	20.392	6.102	0.525
1168.000	656.371	79.997	19.997	103.095	20.395	5.902	0.554
1170.000	657.380	79.998	19.997	103.093	20.397	5.769	0.501
1172.000	658.394	79.997	19.996	103.091	20.395	5.916	0.499
1174.000	659.437	79.998	19.997	103.092	20.395	5.942	0.541
1176.000	660.452	79.997	19.995	103.084	20.394	5.991	0.483
1178.000	661.482	79.997	19.996	103.084	20.396	5.849	0.494
1180.000	662.456	79.997	19.995	103.083	20.397	5.761	0.502
1182.000	663.507	79.997	19.996	103.082	20.392	6.165	0.527
1184.000	664.485	79.998	19.996	103.079	20.395	5.947	0.511
1186.000	665.484	79.997	19.997	103.079	20.396	5.880	0.522
1188.000	666.539	79.998	19.997	103.078	20.394	6.013	0.522
1190.000	667.494	79.997	19.997	103.076	20.392	6.106	0.473
1192.000	668.545	79.997	19.997	103.081	20.394	5.976	0.503
1194.000	669.564	79.998	19.998	103.087	20.392	6.162	0.521
1196.000	670.548	79.999	19.996	103.094	20.391	6.237	0.514
1198.000	671.522	79.998	19.995	103.083	20.393	6.047	0.483
1200.000	672.536	79.999	19.997	103.080	20.390	6.249	0.503
1202.000	673.511	79.999	19.997	103.073	20.391	6.224	0.491
1204.000	674.555	80.000	19.996	103.077	20.392	6.102	0.500
1206.001	675.587	80.000	19.996	103.075	20.391	6.193	0.549
1208.000	676.531	79.999	19.996	103.075	20.392	6.155	0.475
1210.000	677.529	79.999	19.996	103.080	20.388	6.409	0.487
1212.000	678.545	79.998	19.995	103.081	20.388	6.439	0.523
1214.000	679.478	79.999	19.995	103.055	20.389	6.352	0.468
1216.000	680.522	79.999	19.995	103.046	20.392	6.100	0.513
1218.000	681.499	79.999	19.996	103.056	20.393	6.090	0.509
1220.000	682.447	80.001	19.996	103.069	20.388	6.427	0.496
1222.001	683.413	79.999	19.995	103.083	20.390	6.294	0.479
1224.000	684.422	80.001	19.996	103.082	20.395	5.933	0.494
1226.000	685.346	80.001	19.995	103.081	20.393	6.044	0.506
1228.000	686.327	79.999	19.995	103.086	20.392	6.147	0.501
1230.000	687.351	80.000	19.996	103.082	20.393	6.040	0.498
1232.000	688.318	79.999	19.996	103.077	20.395	5.916	0.456
1234.000	689.339	79.998	19.995	103.082	20.390	6.303	0.508
1236.000	690.322	79.998	19.996	103.092	20.390	6.275	0.515
1238.000	691.341	79.997	19.995	103.085	20.392	6.116	0.520
1240.000	692.352	79.998	19.995	103.084	20.393	6.096	0.495
1242.001	693.318	79.998	19.995	103.083	20.390	6.292	0.495
1244.000	694.365	79.998	19.995	103.076	20.391	6.179	0.516
1246.000	695.391	79.997	19.996	103.076	20.392	6.146	0.488
1248.001	696.403	79.999	19.995	103.071	20.389	6.323	0.510
1250.000	697.427	79.999	19.996	103.077	20.391	6.223	0.504
1252.001	698.482	79.998	19.996	103.075	20.391	6.189	0.523
1254.001	699.458	79.997	19.996	103.080	20.389	6.326	0.525
1256.000	700.434	79.998	19.995	103.079	20.393	6.047	0.508
1258.000	701.438	79.997	19.996	103.069	20.387	6.484	0.510
1260.000	702.442	79.998	19.997	103.079	20.390	6.271	0.502
1262.000	703.404	79.997	19.995	103.083	20.390	6.286	0.470
1264.000	704.369	79.997	19.998	103.080	20.394	5.987	0.452
1266.000	705.314	79.996	19.996	103.075	20.396	5.862	0.502
1268.000	706.242	79.997	19.996	103.085	20.394	5.970	0.488
1270.000	707.234	79.998	19.997	103.090	20.391	6.182	0.504
1272.000	708.175	79.998	19.995	103.098	20.394	6.021	0.488
1274.000	709.100	79.997	19.995	103.081	20.392	6.126	0.449
1276.000	710.088	79.999	19.996	103.079	20.394	5.957	0.489
1278.000	711.014	79.998	19.997	103.075	20.391	6.205	0.475
1280.000	711.989	79.998	19.996	103.066	20.397	5.761	0.490
1282.001	712.983	79.999	19.997	103.079	20.392	6.122	0.509
1284.000	713.916	79.998	19.997	103.082	20.394	6.018	0.487
1286.001	714.895	79.997	19.996	103.080	20.393	6.039	0.474
1288.000	715.862	79.997	19.997	103.080	20.393	6.030	0.467
1290.000	716.827	79.997	19.996	103.080	20.392	6.124	0.488
1292.000	717.753	79.998	19.996	103.064	20.393	6.092	0.479
1294.000	718.739	79.999	19.996	103.050	20.391	6.199	0.491
1296.000	719.686	79.997	19.996	103.071	20.391	6.217	0.471
1298.000	720.607	80.000	19.995	103.083	20.394	5.954	0.473
1300.000	721.563	79.999	19.995	103.092	20.391	6.179	0.489
1302.000	722.477	79.999	19.995	103.082	20.390	6.263	0.489
1304.000	723.362	79.999	19.995	103.081	20.391	6.201	0.458
1306.000	724.332	80.001	19.995	103.080	20.394	5.994	0.467
1308.000	725.215	79.999	19.995	103.081	20.389	6.341	0.424
1310.000	726.113	80.000	19.995	103.061	20.392	6.156	0.445
1312.000	727.086	80.000	19.995	103.070	20.391	6.223	0.456
1314.000	727.982	79.998	19.996	103.087	20.393	6.067	0.546
1316.000	728.837	79.998	19.995	103.081	20.392	6.122	0.432
1318.000	729.791	79.998	19.996	103.064	20.390	6.245	0.437
1320.000	730.722	79.999	19.997	103.068	20.391	6.189	0.459
1322.000	731.621	79.998	19.996	103.080	20.386	6.547	0.469
1324.000	732.507	79.999	19.997	103.079	20.388	6.444	0.448
1326.000	733.447	79.998	19.996	103.076	20.385	6.603	0.444
1328.000	734.379	79.998	19.996	103.079	20.392	6.155	0.470
1330.000	735.340	79.999	19.995	103.083	20.390	6.286	0.475
1332.000	736.272	79.997	19.994	103.094	20.392	6.116	0.489
1334.000	737.244	79.998	19.995	103.090	20.392	6.167	0.465
1336.000	738.227	79.999	19.995	103.089	20.391	6.185	0.482
1338.000	739.252	79.998	19.996	103.084	20.393	6.058	0.495
1340.000	740.288	79.996	19.996	103.088	20.387	6.493	0.522
1342.000	741.397	79.998	19.996	103.081	20.386	6.540	0.541
1344.000	742.445	79.997	19.995	103.079	20.384	6.698	0.538
1345.000	742.997	79.998	19.995	103.081	20.384	6.679	0.532