File: 01_Data/Eucalyptus_Flooring/MCC/Eucalyptus_Flooring_30K_min_211026_O1.txt
Sample ID:	C:\MCC\MCC Cal\Test\Eucalyptus_Flooring_30K_min_211026_R1.txt
Sample Weight (mg):	5
Heating Rate (C/s):	0.5
Combustor Temp (C):	900
N2 Flow Rate (cc/min):	80
O2 Flow Rate (cc/min):	20
Calibration File:	C:\MCC\MCC Cal\Coeff1 JN10440_30_210304.txt.txt
T Correction Coefficients:	0	1.024463	0
Time Shift (s):	14
*
Time (s)	Temperature (C)	N2 flow rate (cc/min)	O2 flow rate (cc/min)	Flow Rate (cc/min)	Oxygen (%)	HRR (W/g)	Heating rate (C/s)
0.000	108.630	79.991	19.995	102.996	20.244	0.318	-0.017
2.000	108.646	79.992	19.996	102.998	20.245	0.275	-0.016
4.000	108.654	79.991	19.995	102.959	20.242	0.466	-0.005
6.000	108.647	79.992	19.995	102.947	20.241	0.547	0.002
8.000	108.633	79.993	19.996	102.986	20.238	0.736	-0.001
10.000	108.637	79.993	19.996	103.024	20.241	0.521	0.000
12.000	108.627	79.993	19.997	103.006	20.243	0.420	0.022
14.000	108.650	79.994	19.996	103.020	20.237	0.776	0.000
16.000	108.625	79.993	19.996	102.972	20.231	1.167	-0.014
18.000	108.695	79.994	19.995	103.042	20.229	1.321	0.043
20.000	108.694	79.994	19.997	103.147	20.229	1.323	0.010
22.000	108.796	79.992	19.996	103.097	20.220	1.916	0.030
24.000	108.928	79.991	19.995	103.109	20.215	2.217	0.097
26.000	109.059	79.992	19.997	103.144	20.216	2.173	0.064
28.000	109.202	79.991	19.997	103.170	20.210	2.544	0.075
30.000	109.406	79.992	19.995	103.178	20.208	2.638	0.109
32.000	109.677	79.991	19.997	103.176	20.203	2.992	0.151
34.000	109.972	79.991	19.997	103.176	20.200	3.156	0.143
36.000	110.240	79.994	19.996	103.172	20.202	3.058	0.158
38.000	110.593	79.994	19.995	103.193	20.204	2.949	0.140
40.000	110.935	79.993	19.996	103.225	20.203	3.003	0.178
42.000	111.397	79.994	19.995	103.247	20.203	2.981	0.239
44.000	111.771	79.995	19.996	103.240	20.201	3.113	0.191
46.001	112.164	79.995	19.995	103.217	20.204	2.898	0.225
48.000	112.640	79.993	19.995	103.256	20.202	3.071	0.220
50.001	113.138	79.994	19.996	103.236	20.198	3.281	0.267
52.000	113.610	79.992	19.995	103.177	20.199	3.265	0.220
54.001	114.116	79.995	19.995	103.187	20.194	3.544	0.253
56.000	114.698	79.994	19.996	103.212	20.196	3.454	0.302
58.000	115.247	79.995	19.996	103.223	20.199	3.271	0.289
60.000	115.843	79.994	19.996	103.244	20.197	3.367	0.295
62.000	116.417	79.996	19.995	103.198	20.196	3.430	0.278
64.000	117.039	79.996	19.995	103.211	20.199	3.215	0.306
66.000	117.701	79.996	19.995	103.251	20.193	3.646	0.360
68.000	118.328	79.997	19.995	103.250	20.194	3.563	0.330
70.000	118.992	79.996	19.996	103.256	20.192	3.665	0.360
72.000	119.675	79.994	19.996	103.261	20.192	3.696	0.337
74.000	120.358	79.994	19.996	103.229	20.190	3.848	0.331
76.000	121.098	79.993	19.996	103.209	20.191	3.780	0.372
78.000	121.914	79.994	19.996	103.217	20.188	3.935	0.402
80.000	122.623	79.993	19.996	103.232	20.188	3.958	0.375
82.000	123.408	79.994	19.997	103.240	20.191	3.781	0.375
84.000	124.219	79.994	19.996	103.252	20.191	3.734	0.368
86.000	124.991	79.994	19.995	103.255	20.191	3.782	0.387
88.000	125.872	79.993	19.996	103.290	20.196	3.445	0.408
90.000	126.654	79.995	19.997	103.260	20.190	3.814	0.406
92.000	127.544	79.993	19.997	103.238	20.192	3.688	0.410
94.000	128.385	79.994	19.996	103.249	20.192	3.677	0.449
96.000	129.253	79.993	19.997	103.267	20.189	3.906	0.429
98.000	130.138	79.992	19.996	103.270	20.189	3.889	0.447
100.000	131.028	79.994	19.996	103.255	20.193	3.655	0.448
102.000	131.923	79.993	19.996	103.240	20.192	3.702	0.432
104.000	132.810	79.991	19.997	103.245	20.193	3.612	0.445
106.000	133.746	79.993	19.996	103.258	20.191	3.769	0.478
108.000	134.637	79.992	19.996	103.250	20.195	3.494	0.456
110.000	135.559	79.993	19.996	103.226	20.193	3.612	0.470
112.000	136.493	79.992	19.997	103.224	20.191	3.783	0.459
114.000	137.429	79.994	19.996	103.216	20.196	3.449	0.437
116.000	138.373	79.993	19.995	103.213	20.190	3.808	0.466
118.000	139.349	79.994	19.996	103.225	20.193	3.647	0.484
120.000	140.305	79.994	19.996	103.215	20.192	3.685	0.479
122.000	141.266	79.993	19.995	103.271	20.190	3.819	0.477
124.000	142.193	79.994	19.997	103.268	20.185	4.137	0.494
126.000	143.188	79.992	19.996	103.218	20.193	3.612	0.471
128.000	144.215	79.993	19.996	103.243	20.191	3.743	0.514
130.000	145.160	79.993	19.997	103.252	20.196	3.458	0.503
132.000	146.178	79.995	19.996	103.262	20.190	3.835	0.511
134.000	147.121	79.995	19.996	103.204	20.191	3.731	0.477
136.000	148.133	79.993	19.996	103.210	20.193	3.660	0.509
138.000	149.102	79.994	19.994	103.250	20.192	3.701	0.482
140.000	150.108	79.995	19.996	103.232	20.188	3.943	0.503
142.000	151.044	79.996	19.996	103.212	20.191	3.747	0.470
144.000	152.077	79.996	19.995	103.244	20.190	3.798	0.507
146.000	153.052	79.996	19.995	103.205	20.190	3.811	0.521
148.000	154.003	79.996	19.996	103.224	20.193	3.607	0.498
150.000	154.952	79.996	19.996	103.230	20.190	3.811	0.498
152.000	155.937	79.993	19.996	103.231	20.191	3.733	0.507
154.000	156.886	79.993	19.995	103.254	20.192	3.670	0.520
156.000	157.883	79.993	19.997	103.228	20.192	3.666	0.508
158.000	158.851	79.994	19.995	103.215	20.193	3.662	0.503
160.000	159.849	79.994	19.995	103.226	20.191	3.731	0.491
162.000	160.793	79.994	19.995	103.208	20.186	4.114	0.478
164.000	161.792	79.995	19.996	103.213	20.186	4.071	0.492
166.000	162.775	79.993	19.997	103.220	20.190	3.850	0.478
168.000	163.767	79.994	19.997	103.189	20.189	3.892	0.491
170.000	164.779	79.993	19.996	103.206	20.190	3.797	0.516
172.000	165.733	79.994	19.995	103.222	20.191	3.751	0.517
174.000	166.741	79.994	19.996	103.254	20.188	3.977	0.486
176.000	167.722	79.994	19.996	103.244	20.187	4.048	0.480
178.000	168.734	79.993	19.997	103.204	20.188	3.922	0.505
180.000	169.688	79.993	19.998	103.209	20.185	4.157	0.508
182.000	170.699	79.993	19.998	103.185	20.185	4.141	0.495
184.000	171.672	79.993	19.995	103.183	20.184	4.216	0.471
186.000	172.683	79.991	19.996	103.209	20.183	4.256	0.515
188.000	173.659	79.992	19.997	103.226	20.186	4.053	0.503
190.000	174.629	79.993	19.997	103.250	20.187	4.003	0.477
192.000	175.601	79.992	19.998	103.202	20.187	4.027	0.485
194.000	176.592	79.995	19.996	103.209	20.187	4.047	0.488
196.000	177.608	79.993	19.996	103.210	20.185	4.129	0.533
198.000	178.544	79.995	19.996	103.206	20.183	4.265	0.478
200.000	179.538	79.996	19.995	103.186	20.187	4.038	0.483
202.000	180.513	79.994	19.995	103.187	20.184	4.233	0.470
204.000	181.521	79.994	19.997	103.186	20.188	3.929	0.496
206.000	182.513	79.995	19.996	103.191	20.185	4.136	0.497
208.000	183.487	79.993	19.996	103.202	20.188	3.922	0.491
210.000	184.472	79.994	19.996	103.217	20.185	4.173	0.487
212.000	185.469	79.993	19.997	103.182	20.185	4.175	0.514
214.000	186.501	79.993	19.997	103.203	20.187	3.993	0.525
216.000	187.515	79.995	19.997	103.229	20.186	4.051	0.495
218.000	188.495	79.993	19.996	103.174	20.185	4.174	0.500
220.000	189.528	79.994	19.997	103.175	20.184	4.212	0.500
222.000	190.462	79.996	19.996	103.164	20.186	4.080	0.470
224.000	191.480	79.995	19.995	103.185	20.185	4.177	0.484
226.000	192.448	79.996	19.995	103.192	20.185	4.143	0.473
228.000	193.423	79.996	19.996	103.203	20.186	4.095	0.521
230.000	194.450	79.996	19.995	103.208	20.182	4.331	0.496
232.000	195.397	79.995	19.996	103.205	20.186	4.091	0.476
234.000	196.400	79.992	19.996	103.178	20.183	4.274	0.537
236.000	197.387	79.993	19.996	103.189	20.180	4.476	0.493
238.000	198.393	79.993	19.997	103.180	20.181	4.419	0.477
240.000	199.436	79.994	19.997	103.183	20.183	4.256	0.523
242.000	200.378	79.993	19.996	103.183	20.180	4.455	0.496
244.000	201.433	79.992	19.996	103.204	20.179	4.550	0.512
246.000	202.398	79.994	19.996	103.210	20.178	4.621	0.499
248.000	203.406	79.993	19.996	103.184	20.174	4.864	0.499
250.000	204.405	79.993	19.995	103.181	20.178	4.628	0.508
252.000	205.368	79.995	19.997	103.189	20.173	4.916	0.474
254.000	206.393	79.995	19.996	103.201	20.171	5.028	0.496
256.000	207.414	79.994	19.995	103.179	20.175	4.765	0.506
258.000	208.412	79.995	19.995	103.210	20.172	4.953	0.521
260.000	209.408	79.994	19.995	103.210	20.172	4.999	0.509
262.000	210.447	79.994	19.996	103.189	20.172	4.979	0.512
264.000	211.433	79.993	19.995	103.199	20.170	5.133	0.519
266.000	212.415	79.993	19.996	103.178	20.170	5.120	0.508
268.000	213.404	79.993	19.996	103.185	20.166	5.397	0.507
270.000	214.427	79.994	19.997	103.182	20.164	5.521	0.487
272.000	215.408	79.991	19.997	103.206	20.165	5.448	0.491
274.000	216.391	79.993	19.996	103.192	20.161	5.683	0.496
276.000	217.405	79.994	19.997	103.192	20.163	5.581	0.507
278.000	218.373	79.994	19.997	103.180	20.158	5.878	0.501
280.000	219.371	79.995	19.996	103.198	20.161	5.688	0.493
282.000	220.367	79.996	19.996	103.196	20.160	5.751	0.477
284.000	221.331	79.996	19.996	103.196	20.157	5.939	0.481
286.000	222.292	79.994	19.995	103.179	20.154	6.140	0.503
288.000	223.330	79.994	19.996	103.174	20.154	6.157	0.503
290.000	224.327	79.994	19.996	103.175	20.153	6.202	0.488
292.000	225.300	79.993	19.996	103.173	20.149	6.439	0.512
294.000	226.303	79.994	19.995	103.175	20.150	6.369	0.542
296.000	227.270	79.994	19.996	103.174	20.150	6.430	0.471
298.000	228.283	79.993	19.996	103.177	20.146	6.675	0.497
300.000	229.300	79.994	19.996	103.169	20.144	6.757	0.505
302.000	230.314	79.994	19.996	103.158	20.141	7.010	0.514
304.000	231.292	79.994	19.996	103.195	20.140	7.046	0.494
306.000	232.257	79.995	19.996	103.180	20.139	7.084	0.479
308.000	233.285	79.993	19.996	103.172	20.139	7.136	0.517
310.000	234.246	79.995	19.995	103.170	20.136	7.281	0.480
312.000	235.243	79.995	19.996	103.178	20.136	7.286	0.537
314.000	236.179	79.994	19.995	103.222	20.136	7.276	0.491
316.000	237.175	79.993	19.995	103.236	20.137	7.234	0.465
318.000	238.220	79.992	19.995	103.270	20.131	7.595	0.524
320.000	239.174	79.992	19.995	103.184	20.131	7.648	0.502
322.000	240.179	79.993	19.995	103.161	20.126	7.936	0.495
324.000	241.078	79.993	19.995	103.159	20.124	8.082	0.460
326.000	242.110	79.992	19.995	103.170	20.122	8.187	0.493
328.000	243.110	79.992	19.995	103.175	20.116	8.590	0.492
330.001	244.072	79.993	19.995	103.171	20.116	8.615	0.475
332.000	245.071	79.994	19.995	103.193	20.113	8.751	0.516
334.000	246.031	79.994	19.996	103.198	20.116	8.585	0.488
336.000	246.994	79.993	19.995	103.185	20.109	9.038	0.493
338.000	248.014	79.992	19.995	103.197	20.108	9.118	0.496
340.000	248.965	79.995	19.995	103.205	20.106	9.213	0.480
342.000	249.995	79.992	19.995	103.193	20.104	9.334	0.498
344.000	250.995	79.991	19.995	103.207	20.100	9.612	0.497
346.000	252.031	79.993	19.996	103.204	20.102	9.502	0.494
348.000	253.010	79.992	19.995	103.205	20.098	9.766	0.511
350.000	253.994	79.994	19.996	103.198	20.095	9.931	0.498
352.000	254.976	79.993	19.995	103.204	20.092	10.163	0.488
354.000	255.979	79.993	19.996	103.225	20.089	10.308	0.499
356.000	256.990	79.995	19.996	103.218	20.088	10.387	0.487
358.000	257.973	79.992	19.996	103.205	20.080	10.898	0.470
360.000	258.981	79.996	19.996	103.189	20.078	11.048	0.542
362.000	259.978	79.994	19.996	103.201	20.077	11.089	0.515
364.000	260.977	79.995	19.996	103.231	20.070	11.525	0.521
366.000	261.950	79.994	19.996	103.198	20.065	11.903	0.483
368.000	262.956	79.994	19.998	103.215	20.063	11.976	0.486
370.000	263.998	79.993	19.996	103.206	20.060	12.223	0.485
372.000	264.954	79.993	19.996	103.179	20.053	12.621	0.490
374.000	265.953	79.992	19.997	103.210	20.050	12.846	0.491
376.000	266.946	79.994	19.995	103.228	20.046	13.086	0.491
378.000	267.945	79.994	19.995	103.221	20.042	13.349	0.505
380.000	268.936	79.995	19.996	103.233	20.036	13.769	0.490
382.000	269.932	79.995	19.995	103.226	20.031	14.087	0.503
384.000	271.013	79.994	19.996	103.212	20.026	14.408	0.534
386.000	272.000	79.997	19.997	103.222	20.019	14.815	0.492
388.000	273.061	79.995	19.995	103.221	20.011	15.374	0.474
390.000	274.033	79.994	19.996	103.222	20.002	15.956	0.512
392.000	275.046	79.995	19.996	103.217	19.996	16.319	0.478
394.000	276.054	79.993	19.997	103.231	19.989	16.752	0.510
396.000	277.081	79.992	19.996	103.242	19.981	17.285	0.502
398.000	278.104	79.993	19.996	103.250	19.972	17.860	0.529
400.000	279.093	79.993	19.997	103.249	19.968	18.123	0.502
402.000	280.075	79.992	19.996	103.278	19.960	18.669	0.477
404.000	281.063	79.994	19.996	103.287	19.950	19.287	0.487
406.000	282.034	79.995	19.996	103.271	19.938	20.044	0.495
408.000	283.053	79.994	19.995	103.256	19.930	20.607	0.476
410.000	284.054	79.996	19.995	103.271	19.922	21.086	0.519
412.000	285.061	79.992	19.996	103.286	19.912	21.772	0.499
414.000	286.057	79.993	19.997	103.267	19.903	22.336	0.517
416.000	287.088	79.995	19.996	103.262	19.892	23.055	0.520
418.000	288.084	79.992	19.995	103.289	19.881	23.742	0.498
420.000	289.065	79.993	19.996	103.267	19.866	24.710	0.501
422.000	290.059	79.993	19.996	103.276	19.860	25.116	0.458
424.000	291.055	79.992	19.996	103.294	19.846	25.976	0.494
426.000	292.096	79.992	19.996	103.280	19.833	26.862	0.517
428.000	293.107	79.992	19.996	103.284	19.821	27.640	0.518
430.000	294.104	79.992	19.996	103.306	19.814	28.065	0.492
432.000	295.104	79.992	19.996	103.295	19.799	29.064	0.506
434.000	296.099	79.992	19.996	103.297	19.791	29.548	0.470
436.000	297.130	79.992	19.996	103.302	19.781	30.170	0.525
438.000	298.108	79.993	19.995	103.319	19.772	30.794	0.495
440.000	299.129	79.994	19.995	103.320	19.760	31.520	0.501
442.000	300.066	79.994	19.994	103.319	19.748	32.312	0.483
444.000	301.078	79.994	19.996	103.329	19.732	33.383	0.517
446.000	302.080	79.996	19.995	103.332	19.719	34.233	0.498
448.000	303.113	79.994	19.997	103.330	19.708	34.932	0.487
450.000	304.083	79.995	19.996	103.329	19.694	35.802	0.505
452.000	305.094	79.993	19.996	103.324	19.683	36.514	0.501
454.000	306.110	79.994	19.996	103.336	19.669	37.440	0.508
456.000	307.106	79.994	19.996	103.360	19.654	38.374	0.505
458.000	308.118	79.994	19.997	103.381	19.642	39.152	0.533
460.000	309.098	79.994	19.996	103.366	19.631	39.881	0.514
462.000	310.083	79.995	19.996	103.364	19.618	40.733	0.493
464.000	311.085	79.996	19.996	103.366	19.604	41.619	0.487
466.000	312.126	79.997	19.995	103.366	19.591	42.469	0.525
468.000	313.114	79.995	19.995	103.366	19.577	43.360	0.486
470.000	314.138	79.995	19.996	103.365	19.563	44.301	0.535
472.000	315.118	79.994	19.995	103.370	19.552	45.008	0.494
474.000	316.107	79.994	19.995	103.388	19.537	45.947	0.492
476.000	317.129	79.993	19.996	103.392	19.521	47.006	0.504
478.000	318.141	79.994	19.996	103.376	19.510	47.687	0.520
480.000	319.150	79.992	19.997	103.397	19.498	48.477	0.517
482.000	320.121	79.994	19.998	103.403	19.488	49.140	0.485
484.000	321.150	79.993	19.997	103.405	19.477	49.832	0.512
486.000	322.144	79.992	19.997	103.393	19.469	50.387	0.477
488.000	323.131	79.994	19.995	103.417	19.457	51.139	0.474
490.000	324.111	79.991	19.996	103.437	19.448	51.698	0.502
492.000	325.083	79.992	19.996	103.405	19.439	52.304	0.474
494.000	326.119	79.993	19.995	103.372	19.431	52.776	0.506
496.000	327.076	79.993	19.996	103.409	19.426	53.116	0.485
498.000	328.112	79.994	19.995	103.397	19.422	53.383	0.508
500.000	329.043	79.992	19.995	103.398	19.418	53.615	0.484
502.000	330.091	79.993	19.996	103.398	19.419	53.571	0.499
504.000	331.038	79.993	19.995	103.397	19.423	53.304	0.472
506.000	332.053	79.993	19.996	103.407	19.423	53.294	0.507
508.000	333.036	79.993	19.996	103.396	19.430	52.798	0.481
510.000	333.986	79.993	19.997	103.373	19.433	52.613	0.495
512.000	335.041	79.993	19.996	103.361	19.446	51.783	0.516
514.000	336.010	79.994	19.996	103.356	19.452	51.399	0.474
516.000	337.000	79.993	19.996	103.357	19.466	50.478	0.482
518.000	338.029	79.995	19.997	103.332	19.479	49.624	0.489
520.000	339.047	79.996	19.996	103.305	19.493	48.708	0.496
522.000	340.043	79.995	19.996	103.299	19.514	47.344	0.502
524.000	341.040	79.995	19.996	103.289	19.535	46.005	0.502
526.000	342.050	79.995	19.996	103.284	19.554	44.760	0.522
528.000	343.024	79.995	19.996	103.268	19.577	43.284	0.506
530.000	344.008	79.995	19.994	103.249	19.601	41.740	0.505
532.000	345.041	79.995	19.996	103.242	19.626	40.118	0.523
534.000	346.071	79.995	19.996	103.246	19.652	38.434	0.528
536.000	347.066	79.994	19.995	103.225	19.678	36.798	0.531
538.000	348.101	79.995	19.997	103.175	19.703	35.205	0.521
540.000	349.132	79.996	19.996	103.170	19.729	33.477	0.515
542.000	350.118	79.995	19.995	103.175	19.753	31.935	0.526
544.000	351.113	79.994	19.996	103.171	19.778	30.346	0.505
546.000	352.187	79.995	19.996	103.175	19.805	28.636	0.517
548.000	353.223	79.995	19.996	103.233	19.829	27.070	0.520
550.000	354.283	79.995	19.996	103.195	19.851	25.659	0.527
552.000	355.290	79.995	19.997	103.138	19.876	24.014	0.507
554.000	356.301	79.995	19.996	103.207	19.899	22.528	0.506
556.000	357.357	79.995	19.995	103.221	19.917	21.397	0.515
558.000	358.383	79.994	19.995	103.221	19.942	19.802	0.522
560.000	359.373	79.993	19.996	103.197	19.954	19.011	0.497
562.000	360.433	79.993	19.995	103.161	19.965	18.311	0.534
564.000	361.397	79.993	19.995	103.146	19.983	17.152	0.522
566.000	362.488	79.992	19.996	103.132	19.994	16.456	0.521
568.000	363.490	79.993	19.996	103.130	20.003	15.857	0.526
570.000	364.519	79.991	19.996	103.132	20.014	15.129	0.526
572.000	365.550	79.994	19.996	103.149	20.024	14.492	0.505
574.000	366.544	79.992	19.997	103.157	20.033	13.899	0.479
576.000	367.531	79.992	19.997	103.126	20.041	13.412	0.497
578.000	368.574	79.992	19.997	103.116	20.049	12.923	0.488
580.000	369.617	79.992	19.997	103.116	20.055	12.512	0.505
582.000	370.598	79.993	19.998	103.138	20.062	12.036	0.517
584.000	371.627	79.994	19.997	103.162	20.067	11.745	0.495
586.000	372.648	79.992	19.996	103.133	20.072	11.396	0.509
588.000	373.658	79.992	19.997	103.100	20.081	10.821	0.504
590.000	374.701	79.993	19.996	103.123	20.083	10.733	0.513
592.000	375.690	79.992	19.996	103.142	20.086	10.517	0.477
594.000	376.713	79.994	19.997	103.119	20.090	10.228	0.502
596.000	377.732	79.993	19.996	103.132	20.096	9.879	0.506
598.000	378.733	79.994	19.996	103.121	20.096	9.855	0.528
600.000	379.769	79.995	19.995	103.092	20.104	9.352	0.527
602.000	380.746	79.995	19.996	103.117	20.103	9.434	0.512
604.000	381.762	79.994	19.996	103.145	20.108	9.079	0.496
606.000	382.801	79.995	19.996	103.135	20.103	9.386	0.504
608.000	383.771	79.995	19.995	103.091	20.104	9.342	0.499
610.000	384.780	79.995	19.996	103.088	20.107	9.178	0.474
612.000	385.773	79.994	19.996	103.096	20.108	9.115	0.480
614.000	386.811	79.995	19.997	103.062	20.111	8.926	0.528
616.000	387.806	79.994	19.995	103.101	20.110	8.966	0.512
618.000	388.798	79.994	19.995	103.092	20.116	8.597	0.490
620.000	389.795	79.995	19.995	103.138	20.122	8.222	0.486
622.000	390.767	79.994	19.995	103.227	20.127	7.899	0.480
624.000	391.778	79.995	19.995	103.135	20.130	7.652	0.498
626.000	392.814	79.996	19.995	103.292	20.130	7.649	0.487
628.000	393.853	79.995	19.995	103.121	20.129	7.717	0.508
630.000	394.824	79.996	19.995	103.055	20.128	7.817	0.509
632.000	395.849	79.993	19.995	103.110	20.124	8.056	0.518
634.000	396.821	79.995	19.995	103.020	20.123	8.137	0.505
636.000	397.831	79.993	19.996	103.041	20.123	8.105	0.489
638.000	398.816	79.992	19.996	103.124	20.123	8.166	0.524
640.000	399.847	79.993	19.997	103.092	20.126	7.926	0.521
642.000	400.813	79.992	19.997	103.138	20.129	7.724	0.487
644.000	401.825	79.994	19.997	103.128	20.137	7.257	0.492
646.000	402.815	79.994	19.996	103.117	20.132	7.546	0.482
648.000	403.832	79.992	19.996	103.165	20.134	7.396	0.494
650.000	404.826	79.993	19.996	103.155	20.137	7.200	0.483
652.000	405.820	79.994	19.996	103.160	20.139	7.088	0.492
654.000	406.894	79.993	19.996	103.170	20.141	6.983	0.531
656.000	407.868	79.993	19.996	103.124	20.141	6.999	0.511
658.000	408.884	79.994	19.996	103.079	20.139	7.113	0.492
660.000	409.903	79.993	19.997	103.077	20.138	7.142	0.496
662.000	410.930	79.994	19.996	103.092	20.137	7.244	0.516
664.000	411.957	79.992	19.996	103.095	20.137	7.210	0.517
666.000	412.955	79.992	19.996	103.094	20.138	7.174	0.497
668.000	413.956	79.993	19.997	103.087	20.133	7.474	0.488
670.001	414.981	79.992	19.997	103.079	20.137	7.215	0.503
672.000	416.017	79.993	19.997	103.116	20.137	7.238	0.544
674.000	417.010	79.993	19.996	103.166	20.139	7.128	0.487
676.000	418.059	79.993	19.995	103.161	20.136	7.270	0.533
678.000	419.102	79.993	19.996	103.109	20.137	7.233	0.528
680.000	420.149	79.993	19.996	103.167	20.141	6.970	0.539
682.000	421.175	79.994	19.996	103.150	20.139	7.072	0.507
684.000	422.258	79.994	19.997	103.129	20.138	7.182	0.546
686.000	423.270	79.995	19.995	103.116	20.141	6.967	0.525
688.000	424.288	79.994	19.995	103.133	20.140	7.018	0.519
690.000	425.316	79.994	19.995	103.110	20.138	7.184	0.501
692.000	426.345	79.992	19.995	103.097	20.135	7.360	0.512
694.000	427.409	79.993	19.995	103.098	20.139	7.081	0.499
696.000	428.465	79.992	19.996	103.096	20.135	7.346	0.502
698.000	429.472	79.993	19.995	103.100	20.142	6.895	0.505
700.000	430.533	79.994	19.996	103.103	20.142	6.897	0.546
702.000	431.580	79.994	19.995	103.110	20.147	6.578	0.519
704.000	432.610	79.996	19.994	103.126	20.144	6.808	0.535
706.000	433.623	79.995	19.995	103.115	20.148	6.553	0.505
708.000	434.699	79.996	19.996	103.105	20.150	6.419	0.528
710.000	435.719	79.995	19.995	103.120	20.147	6.612	0.505
712.000	436.796	79.996	19.995	103.095	20.150	6.410	0.537
714.000	437.829	79.994	19.996	103.093	20.151	6.347	0.540
716.000	438.873	79.994	19.996	103.103	20.151	6.318	0.523
718.000	439.902	79.993	19.995	103.119	20.150	6.413	0.495
720.000	440.933	79.992	19.996	103.077	20.154	6.107	0.506
722.000	441.958	79.992	19.997	103.091	20.154	6.136	0.499
724.000	442.994	79.992	19.997	103.090	20.153	6.178	0.491
726.000	444.024	79.993	19.997	103.106	20.153	6.187	0.531
728.000	445.076	79.993	19.997	103.123	20.155	6.056	0.542
730.000	446.063	79.994	19.997	103.101	20.154	6.148	0.480
732.000	447.109	79.993	19.997	103.110	20.160	5.751	0.492
734.000	448.148	79.994	19.997	103.104	20.157	5.924	0.510
736.000	449.165	79.993	19.997	103.088	20.158	5.906	0.509
738.000	450.163	79.992	19.996	103.107	20.161	5.677	0.515
740.000	451.161	79.993	19.996	103.112	20.158	5.898	0.522
742.000	452.159	79.992	19.997	103.098	20.161	5.682	0.504
744.000	453.178	79.992	19.995	103.111	20.161	5.658	0.506
746.000	454.205	79.992	19.996	103.098	20.165	5.421	0.510
748.000	455.189	79.992	19.996	103.099	20.162	5.620	0.501
750.000	456.227	79.991	19.998	103.088	20.164	5.490	0.503
752.000	457.248	79.991	19.996	103.107	20.167	5.311	0.515
754.000	458.223	79.993	19.997	103.104	20.169	5.152	0.500
756.000	459.232	79.992	19.997	103.096	20.166	5.356	0.495
758.000	460.258	79.993	19.996	103.096	20.168	5.248	0.511
760.000	461.245	79.992	19.997	103.096	20.169	5.142	0.492
762.000	462.259	79.995	19.996	103.099	20.172	4.992	0.510
764.000	463.291	79.994	19.997	103.098	20.171	5.060	0.497
766.000	464.245	79.995	19.996	103.095	20.172	4.984	0.461
768.000	465.262	79.996	19.995	103.099	20.175	4.776	0.512
770.000	466.268	79.995	19.996	103.094	20.176	4.741	0.505
772.000	467.253	79.994	19.996	103.081	20.176	4.727	0.507
774.000	468.302	79.995	19.994	103.100	20.174	4.879	0.505
776.000	469.292	79.993	19.996	103.097	20.177	4.688	0.500
778.000	470.343	79.993	19.995	103.101	20.175	4.805	0.576
780.000	471.306	79.995	19.995	103.096	20.172	4.958	0.473
782.000	472.334	79.993	19.995	103.093	20.174	4.853	0.502
784.000	473.383	79.996	19.995	103.093	20.174	4.835	0.513
786.000	474.414	79.995	19.995	103.097	20.176	4.694	0.539
788.000	475.436	79.997	19.996	103.111	20.177	4.672	0.521
790.000	476.463	79.995	19.995	103.073	20.178	4.585	0.528
792.000	477.474	79.996	19.995	103.072	20.181	4.391	0.496
794.000	478.495	79.995	19.994	103.087	20.180	4.447	0.507
796.000	479.536	79.994	19.996	103.094	20.179	4.517	0.512
798.000	480.494	79.994	19.996	103.092	20.178	4.605	0.484
800.000	481.517	79.992	19.996	103.098	20.180	4.435	0.506
802.000	482.553	79.992	19.994	103.066	20.178	4.580	0.532
804.000	483.559	79.993	19.996	103.094	20.181	4.426	0.528
806.000	484.584	79.992	19.996	103.097	20.182	4.339	0.515
808.000	485.632	79.992	19.995	103.092	20.184	4.228	0.553
810.000	486.630	79.992	19.995	103.075	20.185	4.132	0.508
812.000	487.650	79.993	19.994	103.091	20.184	4.190	0.519
814.000	488.702	79.992	19.996	103.092	20.187	3.993	0.543
816.000	489.660	79.994	19.997	103.074	20.187	3.994	0.498
818.000	490.759	79.994	19.996	103.101	20.188	3.960	0.539
820.000	491.757	79.992	19.995	103.102	20.187	4.002	0.520
822.000	492.779	79.992	19.996	103.105	20.189	3.895	0.510
824.000	493.835	79.994	19.996	103.099	20.192	3.707	0.549
826.000	494.913	79.993	19.995	103.096	20.190	3.821	0.562
828.000	495.898	79.993	19.996	103.080	20.189	3.889	0.490
830.000	496.932	79.991	19.996	103.095	20.186	4.052	0.498
832.000	497.956	79.993	19.997	103.096	20.190	3.840	0.528
834.000	498.993	79.991	19.997	103.093	20.187	4.009	0.493
836.000	500.022	79.993	19.995	103.096	20.189	3.884	0.513
838.000	501.063	79.994	19.996	103.093	20.185	4.128	0.535
840.000	502.071	79.995	19.997	103.093	20.187	4.041	0.470
842.000	503.083	79.995	19.997	103.109	20.191	3.765	0.516
844.000	504.106	79.994	19.996	103.115	20.191	3.762	0.476
846.000	505.173	79.996	19.998	103.086	20.190	3.848	0.507
848.000	506.203	79.993	19.997	103.094	20.189	3.868	0.513
850.000	507.236	79.993	19.996	103.081	20.188	3.927	0.531
852.000	508.249	79.994	19.996	103.068	20.187	4.025	0.505
854.000	509.304	79.994	19.997	103.057	20.186	4.045	0.507
856.000	510.337	79.995	19.996	103.069	20.185	4.150	0.494
858.000	511.350	79.993	19.995	103.107	20.188	3.968	0.516
860.000	512.327	79.994	19.996	103.094	20.191	3.731	0.478
862.000	513.373	79.995	19.995	103.088	20.189	3.914	0.502
864.000	514.404	79.995	19.996	103.083	20.189	3.857	0.504
866.000	515.427	79.994	19.996	103.100	20.196	3.444	0.484
868.000	516.438	79.995	19.996	103.084	20.190	3.841	0.505
870.000	517.465	79.997	19.995	103.060	20.193	3.642	0.511
872.000	518.497	79.996	19.996	103.066	20.192	3.678	0.531
874.000	519.507	79.995	19.995	103.094	20.192	3.681	0.521
876.000	520.466	79.993	19.995	103.080	20.191	3.772	0.462
878.000	521.504	79.994	19.996	103.085	20.196	3.427	0.484
880.000	522.514	79.992	19.995	103.091	20.194	3.588	0.493
882.000	523.482	79.993	19.995	103.096	20.197	3.387	0.472
884.000	524.552	79.993	19.996	103.081	20.193	3.611	0.555
886.000	525.531	79.992	19.995	103.073	20.193	3.647	0.511
888.000	526.533	79.993	19.995	103.090	20.191	3.781	0.497
890.000	527.550	79.993	19.996	103.093	20.193	3.636	0.511
892.000	528.607	79.994	19.995	103.094	20.195	3.516	0.533
894.000	529.601	79.996	19.995	103.094	20.195	3.520	0.530
896.000	530.635	79.995	19.997	103.088	20.194	3.586	0.479
898.000	531.635	79.995	19.994	103.090	20.197	3.381	0.473
900.000	532.660	79.993	19.996	103.089	20.194	3.578	0.516
902.000	533.645	79.993	19.995	103.068	20.196	3.405	0.517
904.000	534.751	79.995	19.996	103.069	20.195	3.483	0.549
906.000	535.756	79.993	19.996	103.064	20.196	3.432	0.545
908.000	536.794	79.992	19.996	103.066	20.198	3.276	0.548
910.000	537.775	79.993	19.996	103.070	20.206	2.805	0.467
912.000	538.814	79.994	19.998	103.082	20.190	3.830	0.539
914.000	539.904	79.993	19.996	103.094	20.200	3.209	0.591
916.000	540.910	79.994	19.998	103.093	20.195	3.508	0.518
918.000	541.889	79.993	19.996	103.085	20.201	3.137	0.481
920.000	542.997	79.994	19.996	103.061	20.197	3.381	0.514
922.000	544.049	79.996	19.995	103.077	20.199	3.255	0.551
924.000	545.162	79.996	19.996	103.123	20.199	3.259	0.724
926.000	545.436	79.995	19.995	103.101	20.198	3.308	0.254
928.000	547.181	79.994	19.997	103.103	20.199	3.209	0.515
930.000	548.073	79.995	19.997	103.074	20.196	3.423	0.481
932.000	549.158	79.995	19.994	103.062	20.194	3.533	0.509
934.000	550.094	79.993	19.997	103.072	20.195	3.500	0.544
936.000	551.065	79.994	19.996	103.046	20.196	3.403	0.538
938.000	552.091	79.993	19.998	103.059	20.201	3.114	0.483
940.000	553.075	79.994	19.997	103.070	20.197	3.373	0.474
942.000	554.171	79.994	19.996	103.092	20.199	3.251	0.524
944.000	555.153	79.993	19.996	103.074	20.197	3.377	0.499
946.000	556.113	79.996	19.996	103.083	20.198	3.307	0.486
948.000	557.082	79.995	19.996	103.092	20.196	3.402	0.453
950.000	558.125	79.996	19.995	103.094	20.193	3.622	0.496
952.000	559.127	79.996	19.996	103.030	20.196	3.463	0.513
954.000	560.095	79.995	19.996	103.047	20.193	3.631	0.490
956.000	561.067	79.995	19.995	103.063	20.195	3.471	0.470
958.000	562.097	79.993	19.997	103.075	20.199	3.212	0.488
960.000	563.016	79.995	19.997	103.083	20.200	3.203	0.489
962.000	563.977	79.994	19.997	103.092	20.198	3.310	0.450
964.000	564.940	79.995	19.996	103.087	20.201	3.106	0.457
966.000	565.920	79.994	19.995	103.079	20.200	3.155	0.481
968.000	566.880	79.995	19.997	103.055	20.203	2.994	0.508
970.000	567.876	79.993	19.996	103.074	20.203	2.954	0.472
972.000	568.841	79.995	19.997	103.067	20.204	2.940	0.479
974.000	569.888	79.993	19.996	103.062	20.204	2.914	0.493
976.000	570.858	79.994	19.996	103.056	20.203	2.975	0.516
978.000	571.824	79.996	19.997	103.076	20.203	2.972	0.508
980.000	572.804	79.996	19.996	103.063	20.206	2.804	0.502
982.000	573.842	79.994	19.996	103.053	20.202	3.039	0.518
984.000	574.835	79.996	19.997	103.038	20.205	2.864	0.513
986.000	575.804	79.995	19.996	103.059	20.205	2.881	0.506
988.000	576.808	79.993	19.996	103.060	20.204	2.952	0.478
990.000	577.816	79.994	19.997	103.063	20.203	2.959	0.521
992.000	578.838	79.994	19.996	103.071	20.202	3.055	0.509
994.000	579.834	79.994	19.996	103.074	20.202	3.057	0.494
996.000	580.819	79.995	19.997	103.090	20.205	2.837	0.519
998.000	581.845	79.995	19.996	103.110	20.208	2.640	0.503
1000.000	582.862	79.993	19.996	103.118	20.207	2.741	0.535
1002.000	583.847	79.996	19.996	103.083	20.204	2.892	0.481
1004.000	584.852	79.996	19.996	103.054	20.202	3.048	0.480
1006.000	585.911	79.995	19.997	103.072	20.198	3.285	0.496
1008.000	586.900	79.995	19.996	103.100	20.199	3.210	0.484
1010.000	587.935	79.994	19.995	103.083	20.200	3.189	0.505
1012.000	588.984	79.994	19.996	103.114	20.200	3.185	0.524
1014.000	590.041	79.994	19.997	103.091	20.199	3.248	0.519
1016.000	591.086	79.995	19.996	103.095	20.201	3.136	0.529
1018.000	592.086	79.993	19.997	103.093	20.202	3.026	0.501
1020.000	593.137	79.993	19.997	103.098	20.202	3.067	0.516
1022.000	594.163	79.993	19.995	103.073	20.202	3.060	0.518
1024.000	595.253	79.996	19.996	103.075	20.201	3.140	0.529
1026.000	596.295	79.994	19.996	103.058	20.203	2.976	0.514
1028.001	597.348	79.995	19.996	103.060	20.201	3.107	0.527
1030.000	598.335	79.994	19.997	103.045	20.198	3.276	0.493
1032.000	599.391	79.995	19.998	103.045	20.204	2.925	0.519
1034.000	600.434	79.994	19.996	103.052	20.202	3.019	0.510
1036.001	601.445	79.995	19.997	103.067	20.205	2.824	0.540
1038.000	602.532	79.993	19.996	103.094	20.203	3.012	0.539
1040.000	603.541	79.995	19.997	103.092	20.202	3.067	0.502
1042.000	604.554	79.991	19.996	103.069	20.200	3.162	0.495
1044.000	605.661	79.993	19.998	103.075	20.201	3.124	0.548
1046.000	606.752	79.995	19.997	103.080	20.200	3.153	0.522
1048.000	607.780	79.992	19.997	103.081	20.200	3.168	0.528
1050.000	608.878	79.995	19.995	103.092	20.197	3.380	0.527
1052.000	609.956	79.993	19.996	103.070	20.199	3.243	0.540
1054.000	611.076	79.992	19.997	103.071	20.198	3.281	0.552
1056.000	612.191	79.994	19.996	103.091	20.201	3.121	0.581
1058.000	613.259	79.994	19.996	103.117	20.198	3.291	0.554
1060.000	614.373	79.992	19.997	103.047	20.198	3.328	0.557
1062.000	615.534	79.993	19.995	103.046	20.199	3.213	0.563
1064.000	616.624	79.992	19.996	103.056	20.197	3.383	0.577
1066.000	617.699	79.994	19.996	103.070	20.199	3.230	0.553
1068.000	618.843	79.993	19.995	103.109	20.201	3.095	0.527
1070.000	619.998	79.992	19.996	103.108	20.204	2.896	0.572
1072.000	621.100	79.991	19.996	103.109	20.204	2.943	0.548
1074.000	622.273	79.991	19.996	103.100	20.204	2.900	0.582
1076.000	623.385	79.993	19.994	103.078	20.204	2.927	0.562
1078.000	624.489	79.991	19.996	103.061	20.199	3.208	0.584
1080.000	625.570	79.994	19.995	103.067	20.198	3.305	0.532
1082.000	626.683	79.994	19.996	103.065	20.201	3.137	0.561
1084.001	627.825	79.994	19.995	103.061	20.202	3.028	0.562
1086.000	628.934	79.995	19.995	103.082	20.200	3.181	0.550
1088.000	630.056	79.994	19.996	103.050	20.198	3.293	0.539
1090.000	631.199	79.994	19.996	103.053	20.202	3.044	0.585
1092.000	632.244	79.994	19.996	103.106	20.200	3.151	0.528
1094.000	633.370	79.994	19.996	103.082	20.204	2.910	0.553
1096.000	634.497	79.993	19.996	103.075	20.204	2.942	0.586
1098.000	635.606	79.995	19.996	103.087	20.205	2.867	0.539
1100.001	636.654	79.994	19.997	103.039	20.204	2.930	0.526
1102.001	637.745	79.995	19.995	103.073	20.204	2.941	0.557
1104.000	638.851	79.995	19.996	103.086	20.202	3.029	0.555
1106.000	639.906	79.996	19.995	103.047	20.200	3.185	0.534
1108.000	640.997	79.998	19.995	103.046	20.201	3.098	0.556
1110.000	642.036	79.996	19.996	103.079	20.202	3.059	0.524
1112.000	643.111	79.995	19.996	103.056	20.201	3.128	0.509
1114.000	644.232	79.995	19.997	103.048	20.202	3.064	0.572
1116.001	645.232	79.996	19.997	103.057	20.206	2.815	0.510
1118.000	646.257	79.993	19.997	103.056	20.205	2.877	0.533
1120.001	647.310	79.993	19.996	103.069	20.203	3.006	0.524
1122.000	648.339	79.993	19.997	103.081	20.202	3.025	0.512
1124.000	649.391	79.992	19.996	103.070	20.200	3.195	0.521
1126.000	650.404	79.994	19.996	103.035	20.202	3.063	0.500
1128.000	651.476	79.994	19.996	103.025	20.201	3.079	0.551
1130.001	652.482	79.994	19.996	103.045	20.206	2.818	0.531
1132.000	653.518	79.993	19.996	103.066	20.207	2.735	0.518
1134.000	654.488	79.994	19.995	103.089	20.205	2.822	0.516
1136.001	655.578	79.994	19.996	103.066	20.205	2.830	0.563
1138.000	656.536	79.994	19.995	103.028	20.204	2.925	0.509
1140.000	657.591	79.994	19.994	103.042	20.205	2.829	0.512
1142.000	658.628	79.993	19.996	103.061	20.204	2.943	0.523
1144.001	659.624	79.995	19.995	103.046	20.202	3.016	0.479
1146.000	660.742	79.993	19.996	103.009	20.200	3.164	0.484
1148.000	661.505	79.994	19.995	103.051	20.200	3.159	0.514
1150.000	662.791	79.992	19.995	103.072	20.203	2.960	0.393
1152.000	663.722	79.993	19.997	103.058	20.204	2.927	0.485
1154.000	664.733	79.993	19.997	103.059	20.204	2.923	0.569
1156.000	665.731	79.994	19.996	103.083	20.202	3.053	0.521
1158.000	666.775	79.994	19.996	103.057	20.208	2.632	0.523
1160.000	667.759	79.995	19.996	103.072	20.209	2.578	0.515
1162.001	668.816	79.995	19.996	103.121	20.202	3.067	0.520
1164.000	669.814	79.996	19.995	103.051	20.202	3.062	0.493
1166.000	670.912	79.996	19.994	103.055	20.203	2.974	0.548
1168.000	671.890	79.996	19.994	103.069	20.202	3.055	0.489
1170.000	672.955	79.996	19.995	103.068	20.204	2.929	0.512
1172.000	674.157	79.995	19.997	103.056	20.204	2.942	0.506
1174.000	675.055	79.995	19.995	103.060	20.203	2.956	0.394
1176.001	675.858	79.995	19.996	103.059	20.203	2.970	0.062
1178.000	677.085	79.994	19.995	103.010	20.201	3.123	0.449
1180.000	678.093	79.995	19.996	103.052	20.202	3.018	0.534
1182.000	679.108	79.993	19.995	103.094	20.202	3.075	0.499
1184.000	680.139	79.994	19.996	103.075	20.205	2.876	0.489
1186.000	681.183	79.995	19.995	103.067	20.202	3.051	0.513
1188.000	682.195	79.997	19.996	103.050	20.203	3.000	0.528
1190.000	683.198	79.995	19.995	103.045	20.201	3.102	0.510
1192.001	684.182	79.995	19.996	103.035	20.200	3.145	0.515
1194.000	685.225	79.994	19.995	103.065	20.201	3.129	0.529
1196.000	686.255	79.994	19.996	103.065	20.206	2.812	0.531
1198.000	687.247	79.993	19.996	103.050	20.201	3.094	0.441
1200.000	688.226	79.993	19.996	103.053	20.205	2.835	0.497
1202.000	689.225	79.992	19.996	103.054	20.202	3.060	0.507
1204.000	690.243	79.993	19.996	103.053	20.203	2.971	0.510
1206.000	691.253	79.993	19.996	103.055	20.202	3.078	0.521
1208.000	692.232	79.991	19.998	103.048	20.200	3.158	0.471
1210.000	693.259	79.992	19.997	103.029	20.199	3.216	0.497
1212.000	694.252	79.993	19.997	103.025	20.200	3.178	0.477
1214.000	695.283	79.992	19.998	103.048	20.202	3.069	0.512
1216.000	696.305	79.994	19.997	103.056	20.203	2.986	0.493
1218.000	697.311	79.993	19.996	103.061	20.204	2.928	0.507
1220.001	698.331	79.993	19.996	103.059	20.204	2.899	0.549
1222.000	699.305	79.994	19.995	103.054	20.202	3.026	0.514
1224.000	700.326	79.993	19.996	103.054	20.204	2.929	0.514
1226.000	701.366	79.992	19.997	103.054	20.204	2.906	0.517
1228.000	702.319	79.992	19.996	103.028	20.205	2.872	0.471
1230.000	703.355	79.994	19.995	103.038	20.201	3.100	0.511
1232.000	704.399	79.994	19.996	103.048	20.204	2.932	0.488
1234.001	705.408	79.993	19.995	103.040	20.202	3.042	0.510
1236.000	706.411	79.993	19.995	103.028	20.200	3.145	0.493
1238.000	707.482	79.993	19.996	103.043	20.203	2.957	0.544
1240.000	708.480	79.994	19.996	103.052	20.201	3.090	0.507
1242.001	709.499	79.993	19.997	103.062	20.202	3.049	0.533
1244.000	710.492	79.994	19.995	103.058	20.201	3.091	0.506
1246.000	711.497	79.994	19.995	103.031	20.203	2.983	0.484
1248.000	712.521	79.995	19.996	103.047	20.199	3.224	0.521
1250.001	713.520	79.995	19.994	103.039	20.202	3.031	0.481
1252.000	714.541	79.993	19.995	103.043	20.204	2.950	0.508
1254.000	715.590	79.996	19.995	103.057	20.204	2.899	0.577
1256.000	716.603	79.994	19.995	103.061	20.206	2.810	0.533
1258.000	717.600	79.994	19.994	103.059	20.209	2.584	0.493
1260.000	718.615	79.995	19.995	103.044	20.203	2.972	0.503
1262.001	719.613	79.993	19.995	103.057	20.205	2.861	0.495
1264.000	720.627	79.992	19.996	103.048	20.203	2.956	0.485
1266.000	721.596	79.994	19.995	103.034	20.202	3.046	0.488
1268.000	722.626	79.995	19.995	103.015	20.202	3.030	0.500
1270.000	723.647	79.995	19.996	103.017	20.203	3.000	0.529
1272.000	724.652	79.995	19.995	103.034	20.201	3.131	0.502
1274.000	725.641	79.995	19.996	103.056	20.205	2.854	0.492
1276.000	726.645	79.995	19.997	103.112	20.206	2.791	0.510
1278.000	727.650	79.995	19.996	103.082	20.207	2.736	0.501
1280.001	728.677	79.994	19.996	103.053	20.201	3.103	0.513
1282.000	729.663	79.994	19.996	103.029	20.204	2.892	0.493
1284.000	730.692	79.994	19.996	103.101	20.202	3.020	0.505
1286.000	731.731	79.994	19.995	103.077	20.202	3.027	0.541
1288.000	732.718	79.994	19.996	103.052	20.201	3.135	0.510
1290.000	733.730	79.993	19.996	103.015	20.201	3.097	0.501
1292.000	734.725	79.992	19.996	103.045	20.201	3.125	0.495
1294.000	735.730	79.993	19.996	103.057	20.202	3.071	0.523
1296.001	736.724	79.993	19.997	103.030	20.200	3.152	0.506
1298.000	737.737	79.993	19.996	103.054	20.201	3.137	0.488
1300.000	738.723	79.993	19.997	103.054	20.201	3.116	0.511
1302.000	739.749	79.992	19.996	103.035	20.204	2.899	0.458
1304.000	740.749	79.994	19.997	103.059	20.200	3.177	0.507
1306.000	741.795	79.992	19.996	103.054	20.202	3.037	0.492
1308.000	742.778	79.993	19.996	103.024	20.200	3.169	0.511
1309.500	743.532	79.994	19.996	103.010	20.201	3.090	0.507