File: 01_Data/Eucalyptus_Flooring/MCC/Eucalyptus_Flooring_30K_min_211026_R2.txt
Sample ID:	C:\MCC\MCC Cal\Test\Eucalyptus_Flooring_30K_min_211026_R2.txt
Sample Weight (mg):	4.14
Heating Rate (C/s):	0.5
Combustor Temp (C):	900
N2 Flow Rate (cc/min):	80
O2 Flow Rate (cc/min):	20
Calibration File:	C:\MCC\MCC Cal\Coeff1 JN10440_30_210304.txt.txt
T Correction Coefficients:	0	1.024463	0
Time Shift (s):	14
*
Time (s)	Temperature (C)	N2 flow rate (cc/min)	O2 flow rate (cc/min)	Flow Rate (cc/min)	Oxygen (%)	HRR (W/g)	Heating rate (C/s)
-0.001	105.916	79.999	19.996	103.030	20.452	-0.004	-0.009
2.000	105.910	79.998	19.996	103.030	20.453	-0.046	-0.001
4.000	105.904	79.997	19.997	102.979	20.447	0.380	-0.016
6.000	105.912	79.996	19.997	102.951	20.444	0.637	0.026
8.000	105.894	79.997	19.997	102.946	20.448	0.345	-0.028
10.000	105.918	79.995	19.996	102.986	20.447	0.410	0.005
12.000	105.931	79.995	19.997	102.988	20.448	0.295	-0.008
14.000	105.899	79.996	19.997	102.979	20.447	0.404	-0.007
16.000	105.927	79.996	19.997	102.995	20.445	0.522	-0.001
18.000	105.925	79.996	19.997	103.005	20.439	1.048	-0.002
20.000	105.923	79.996	19.996	103.034	20.437	1.138	0.005
22.000	105.980	79.997	19.996	103.038	20.431	1.616	0.036
24.000	106.015	79.996	19.996	103.069	20.430	1.741	0.002
26.000	106.141	79.996	19.996	103.091	20.425	2.100	0.048
28.000	106.266	79.997	19.995	103.103	20.425	2.117	0.051
30.000	106.367	79.997	19.995	103.113	20.428	1.833	0.041
32.000	106.470	79.996	19.996	103.125	20.428	1.842	0.061
33.999	106.615	79.997	19.996	103.095	20.423	2.257	0.063
35.999	106.787	79.996	19.996	103.117	20.422	2.348	0.052
37.999	106.999	79.996	19.995	103.147	20.422	2.358	0.104
39.999	107.180	79.996	19.995	103.157	20.423	2.268	0.123
41.999	107.404	79.995	19.996	103.149	20.421	2.406	0.088
43.999	107.670	79.996	19.995	103.132	20.420	2.492	0.125
45.999	107.868	79.995	19.996	103.130	20.416	2.818	0.087
47.999	108.201	79.997	19.998	103.143	20.412	3.107	0.162
49.999	108.497	79.998	19.996	103.161	20.411	3.192	0.161
51.999	108.812	79.998	19.996	103.160	20.410	3.283	0.154
53.999	109.155	79.998	19.995	103.178	20.406	3.607	0.155
55.999	109.551	79.997	19.996	103.201	20.405	3.655	0.231
57.999	109.961	79.996	19.995	103.207	20.402	3.905	0.216
59.999	110.403	79.997	19.996	103.205	20.401	3.950	0.247
61.999	110.837	79.996	19.996	103.191	20.402	3.900	0.229
63.999	111.251	79.997	19.995	103.172	20.403	3.828	0.220
65.999	111.757	79.998	19.995	103.199	20.405	3.627	0.259
67.999	112.243	79.997	19.996	103.213	20.403	3.830	0.215
69.999	112.773	79.997	19.995	103.196	20.402	3.916	0.290
71.999	113.300	79.997	19.996	103.183	20.403	3.842	0.273
73.999	113.822	80.000	19.997	103.201	20.401	3.995	0.269
76.000	114.383	79.998	19.996	103.200	20.402	3.906	0.290
77.999	114.934	79.998	19.997	103.200	20.400	4.039	0.297
79.999	115.488	79.999	19.996	103.212	20.398	4.241	0.270
81.999	116.103	79.998	19.997	103.204	20.397	4.309	0.308
83.999	116.675	79.997	19.997	103.233	20.400	4.012	0.270
85.999	117.271	79.998	19.996	103.236	20.399	4.108	0.293
87.999	117.917	79.997	19.996	103.239	20.399	4.131	0.313
89.999	118.575	79.996	19.996	103.221	20.396	4.371	0.337
91.999	119.215	79.998	19.996	103.201	20.398	4.232	0.352
93.999	119.853	79.996	19.996	103.203	20.397	4.281	0.314
95.999	120.527	79.996	19.996	103.204	20.392	4.690	0.336
97.999	121.266	79.997	19.997	103.218	20.391	4.771	0.363
99.999	121.948	79.997	19.997	103.235	20.396	4.378	0.358
101.999	122.672	79.997	19.997	103.220	20.391	4.713	0.370
103.999	123.394	79.997	19.996	103.206	20.387	5.096	0.396
105.999	124.098	79.998	19.997	103.215	20.383	5.378	0.346
107.999	124.865	79.997	19.997	103.208	20.389	4.892	0.374
109.999	125.592	79.997	19.997	103.234	20.387	5.060	0.364
111.999	126.393	79.996	19.996	103.239	20.389	4.876	0.388
113.999	127.162	79.996	19.996	103.240	20.388	4.991	0.412
115.999	127.954	79.996	19.996	103.244	20.386	5.107	0.358
117.999	128.763	79.996	19.996	103.231	20.382	5.443	0.435
119.999	129.533	79.996	19.996	103.225	20.384	5.292	0.399
121.999	130.401	79.997	19.996	103.208	20.382	5.462	0.398
124.000	131.171	79.995	19.997	103.231	20.378	5.785	0.359
125.999	132.054	79.995	19.996	103.228	20.378	5.772	0.435
128.000	132.878	79.997	19.995	103.209	20.382	5.472	0.417
130.000	133.756	79.996	19.996	103.254	20.382	5.483	0.464
132.000	134.580	79.996	19.995	103.276	20.381	5.518	0.436
134.000	135.425	79.998	19.996	103.262	20.378	5.730	0.454
136.000	136.333	79.997	19.995	103.245	20.379	5.688	0.420
138.000	137.167	79.997	19.996	103.245	20.379	5.651	0.424
140.000	138.099	79.997	19.996	103.243	20.379	5.681	0.437
142.000	139.021	79.998	19.996	103.240	20.379	5.655	0.446
144.000	139.907	79.997	19.995	103.242	20.372	6.232	0.457
146.000	140.830	79.998	19.996	103.239	20.375	6.007	0.463
148.000	141.757	79.997	19.996	103.238	20.376	5.945	0.480
150.000	142.671	79.997	19.997	103.258	20.377	5.848	0.438
152.000	143.620	79.998	19.996	103.279	20.379	5.679	0.469
154.000	144.633	79.997	19.996	103.266	20.375	6.023	0.485
156.000	145.550	79.997	19.995	103.257	20.378	5.754	0.483
158.000	146.511	79.999	19.996	103.258	20.381	5.514	0.480
160.000	147.468	80.000	19.995	103.252	20.379	5.700	0.477
162.000	148.399	80.000	19.996	103.236	20.376	5.903	0.491
164.000	149.416	80.000	19.995	103.215	20.378	5.796	0.532
166.000	150.343	79.999	19.995	103.198	20.376	5.914	0.466
168.000	151.378	79.999	19.996	103.189	20.372	6.259	0.550
170.000	152.341	79.996	19.997	103.169	20.369	6.447	0.486
172.000	153.347	79.996	19.997	103.201	20.370	6.381	0.501
174.000	154.307	79.995	19.997	103.228	20.372	6.190	0.511
176.000	155.282	79.996	19.997	103.249	20.371	6.274	0.487
178.000	156.317	79.996	19.995	103.233	20.372	6.203	0.548
180.000	157.273	79.996	19.996	103.266	20.376	5.945	0.493
182.000	158.276	79.995	19.996	103.316	20.373	6.149	0.475
184.000	159.252	79.995	19.995	103.257	20.375	5.956	0.507
186.000	160.231	79.997	19.995	103.225	20.376	5.887	0.490
188.000	161.258	79.999	19.995	103.279	20.372	6.259	0.510
190.000	162.195	79.998	19.996	103.199	20.368	6.499	0.468
192.000	163.189	79.996	19.995	103.187	20.371	6.296	0.474
194.000	164.211	79.997	19.995	103.184	20.369	6.427	0.493
196.000	165.205	79.997	19.997	103.241	20.367	6.596	0.496
198.000	166.234	79.997	19.996	103.216	20.365	6.741	0.521
200.000	167.251	79.997	19.996	103.189	20.366	6.674	0.487
202.000	168.230	79.995	19.997	103.238	20.364	6.854	0.543
204.000	169.254	79.995	19.998	103.287	20.369	6.450	0.508
206.000	170.247	79.996	19.996	103.250	20.367	6.655	0.505
208.000	171.263	79.995	19.996	103.238	20.364	6.878	0.523
210.000	172.252	79.997	19.997	103.226	20.361	7.119	0.510
212.000	173.252	79.995	19.996	103.259	20.363	6.949	0.499
214.000	174.259	79.997	19.995	103.269	20.368	6.569	0.488
216.000	175.274	79.999	19.995	103.233	20.360	7.139	0.512
218.000	176.316	80.000	19.995	103.203	20.357	7.369	0.560
220.000	177.233	79.999	19.996	103.195	20.357	7.381	0.492
222.000	178.280	79.999	19.996	103.179	20.352	7.791	0.497
224.000	179.305	80.000	19.996	103.197	20.355	7.552	0.523
226.000	180.318	79.998	19.997	103.193	20.356	7.469	0.508
228.000	181.331	80.000	19.996	103.208	20.350	7.963	0.505
230.000	182.358	79.996	19.996	103.238	20.352	7.757	0.518
232.000	183.334	79.997	19.995	103.241	20.356	7.474	0.488
234.000	184.322	79.996	19.996	103.221	20.357	7.375	0.485
236.000	185.369	79.997	19.996	103.222	20.351	7.825	0.518
238.000	186.414	79.998	19.997	103.230	20.352	7.819	0.538
240.000	187.438	79.998	19.995	103.236	20.350	7.931	0.524
242.000	188.432	79.999	19.995	103.223	20.349	8.015	0.498
244.000	189.456	80.000	19.995	103.272	20.350	7.923	0.542
246.000	190.475	80.000	19.996	103.211	20.345	8.355	0.545
248.000	191.534	79.998	19.995	103.182	20.346	8.213	0.531
250.000	192.499	79.997	19.996	103.213	20.354	7.612	0.499
252.000	193.491	79.999	19.994	103.231	20.349	8.028	0.490
254.000	194.505	79.997	19.994	103.204	20.346	8.251	0.484
256.000	195.492	79.997	19.995	103.204	20.348	8.087	0.482
258.000	196.511	79.995	19.996	103.202	20.345	8.332	0.527
260.000	197.487	79.996	19.996	103.200	20.340	8.749	0.519
262.000	198.493	79.997	19.996	103.181	20.338	8.882	0.476
264.000	199.552	79.997	19.995	103.155	20.338	8.864	0.555
266.000	200.539	79.997	19.996	103.199	20.339	8.786	0.513
268.000	201.517	79.997	19.998	103.221	20.339	8.808	0.497
270.000	202.545	79.996	19.996	103.254	20.339	8.808	0.507
272.000	203.554	79.998	19.996	103.245	20.338	8.855	0.472
274.000	204.534	79.997	19.996	103.250	20.342	8.552	0.518
276.000	205.554	79.998	19.997	103.224	20.340	8.718	0.523
278.000	206.564	79.999	19.997	103.249	20.335	9.102	0.521
280.000	207.537	79.996	19.997	103.215	20.331	9.381	0.472
282.000	208.517	79.997	19.996	103.184	20.329	9.560	0.490
284.000	209.545	79.996	19.997	103.184	20.328	9.686	0.500
286.000	210.532	79.997	19.996	103.203	20.324	9.981	0.512
288.000	211.552	79.996	19.997	103.189	20.323	10.072	0.490
290.000	212.514	79.997	19.996	103.197	20.327	9.702	0.489
292.000	213.487	79.997	19.997	103.193	20.324	9.979	0.498
294.000	214.524	79.996	19.997	103.179	20.322	10.137	0.523
296.000	215.479	79.998	19.997	103.205	20.322	10.118	0.464
298.000	216.480	79.997	19.997	103.222	20.319	10.335	0.531
300.000	217.478	79.998	19.998	103.217	20.318	10.414	0.525
302.000	218.449	79.998	19.997	103.197	20.316	10.596	0.485
304.000	219.457	79.999	19.995	103.196	20.315	10.678	0.470
306.000	220.454	79.998	19.997	103.217	20.310	11.026	0.498
308.000	221.401	79.999	19.996	103.220	20.311	10.952	0.495
310.000	222.440	79.997	19.995	103.216	20.311	11.008	0.510
312.000	223.425	79.998	19.996	103.206	20.304	11.541	0.491
314.000	224.381	79.998	19.995	103.208	20.302	11.639	0.482
316.000	225.387	79.998	19.995	103.215	20.303	11.566	0.495
318.000	226.387	79.999	19.996	103.205	20.299	11.888	0.488
320.000	227.342	80.000	19.995	103.221	20.301	11.755	0.497
322.000	228.367	79.999	19.995	103.218	20.300	11.794	0.494
324.000	229.353	79.998	19.995	103.221	20.293	12.380	0.518
326.000	230.326	79.999	19.995	103.196	20.292	12.484	0.491
328.000	231.322	79.999	19.995	103.209	20.289	12.702	0.482
330.000	232.232	79.999	19.995	103.213	20.288	12.782	0.452
332.000	233.265	80.000	19.996	103.202	20.288	12.720	0.477
334.000	234.283	79.999	19.995	103.203	20.285	13.015	0.506
336.000	235.253	79.998	19.994	103.220	20.285	12.964	0.505
338.000	236.240	79.997	19.995	103.298	20.286	12.921	0.496
340.000	237.232	79.997	19.995	103.218	20.282	13.207	0.481
342.000	238.184	79.998	19.995	103.156	20.279	13.450	0.487
344.000	239.226	79.998	19.996	103.165	20.270	14.167	0.496
346.000	240.193	79.997	19.996	103.192	20.271	14.093	0.502
348.000	241.204	79.997	19.995	103.235	20.270	14.129	0.504
350.000	242.216	79.997	19.996	103.211	20.266	14.459	0.483
352.000	243.178	79.998	19.995	103.194	20.264	14.616	0.480
354.000	244.200	79.998	19.996	103.195	20.258	15.100	0.505
356.000	245.218	79.997	19.997	103.209	20.256	15.291	0.535
358.000	246.188	79.997	19.997	103.218	20.256	15.244	0.559
360.000	247.142	79.997	19.997	103.217	20.252	15.566	0.492
362.000	248.149	79.997	19.996	103.201	20.248	15.842	0.496
364.000	249.121	79.997	19.997	103.206	20.243	16.301	0.498
366.000	250.139	79.995	19.997	103.246	20.248	15.910	0.510
368.000	251.143	79.997	19.997	103.262	20.241	16.387	0.502
370.000	252.178	79.996	19.997	103.228	20.233	17.002	0.490
372.000	253.150	79.995	19.996	103.191	20.232	17.132	0.483
374.000	254.158	79.997	19.995	103.221	20.228	17.452	0.505
376.000	255.173	79.996	19.996	103.250	20.227	17.486	0.506
378.000	256.148	79.998	19.995	103.259	20.224	17.761	0.471
380.000	257.188	79.997	19.995	103.201	20.220	18.072	0.498
382.000	258.239	79.996	19.996	103.228	20.216	18.345	0.510
384.000	259.252	79.997	19.996	103.254	20.209	18.937	0.523
386.000	260.210	79.998	19.996	103.232	20.205	19.243	0.520
388.000	261.225	79.999	19.996	103.230	20.202	19.496	0.503
390.000	262.178	79.997	19.997	103.211	20.193	20.187	0.491
392.000	263.240	79.997	19.996	103.194	20.188	20.518	0.540
394.000	264.239	79.998	19.996	103.218	20.185	20.791	0.522
396.000	265.218	79.997	19.997	103.279	20.181	21.075	0.477
398.000	266.250	79.998	19.997	103.280	20.178	21.327	0.508
400.000	267.267	79.998	19.996	103.297	20.169	22.041	0.494
402.000	268.293	79.998	19.997	103.246	20.161	22.668	0.501
404.000	269.242	79.999	19.997	103.203	20.152	23.366	0.428
406.000	270.244	79.997	19.997	103.224	20.147	23.723	0.487
408.000	271.314	80.000	19.996	103.231	20.141	24.178	0.522
410.000	272.313	79.999	19.995	103.255	20.134	24.751	0.491
412.000	273.305	80.000	19.996	103.303	20.130	25.067	0.514
414.000	274.312	80.000	19.994	103.251	20.120	25.846	0.484
416.000	275.327	79.998	19.995	103.264	20.111	26.592	0.493
418.000	276.302	79.998	19.994	103.231	20.108	26.771	0.484
420.000	277.293	79.998	19.995	103.220	20.097	27.605	0.517
422.000	278.237	79.997	19.996	103.235	20.088	28.334	0.475
424.000	279.308	79.997	19.996	103.298	20.076	29.274	0.510
426.000	280.278	79.997	19.995	103.313	20.070	29.734	0.488
428.000	281.266	79.997	19.995	103.307	20.063	30.258	0.471
430.000	282.260	79.997	19.996	103.276	20.050	31.341	0.490
432.000	283.199	79.997	19.996	103.263	20.040	32.087	0.498
434.000	284.248	79.997	19.997	103.268	20.028	33.015	0.507
436.000	285.237	79.997	19.996	103.280	20.021	33.612	0.497
438.000	286.216	79.997	19.996	103.285	20.003	34.929	0.476
440.000	287.218	79.998	19.996	103.313	19.998	35.383	0.514
442.000	288.211	79.998	19.995	103.320	19.985	36.335	0.495
444.000	289.148	79.997	19.994	103.296	19.982	36.637	0.445
446.000	290.174	79.998	19.995	103.362	19.968	37.717	0.506
448.000	291.199	79.997	19.996	103.331	19.958	38.472	0.495
450.000	292.218	79.998	19.995	103.306	19.941	39.841	0.538
452.000	293.189	79.997	19.995	103.297	19.934	40.364	0.501
454.000	294.159	79.996	19.994	103.330	19.925	41.062	0.485
456.000	295.183	79.997	19.996	103.345	19.910	42.194	0.512
458.000	296.184	79.997	19.996	103.327	19.902	42.805	0.518
460.000	297.193	79.997	19.997	103.348	19.886	44.084	0.502
462.000	298.185	79.997	19.997	103.359	19.875	44.929	0.493
464.000	299.195	79.998	19.996	103.363	19.859	46.194	0.520
466.000	300.207	79.998	19.996	103.343	19.847	47.129	0.505
468.000	301.149	79.998	19.995	103.322	19.840	47.703	0.462
470.000	302.217	79.999	19.996	103.339	19.828	48.600	0.529
472.000	303.184	79.999	19.995	103.325	19.812	49.877	0.552
474.000	304.188	79.999	19.996	103.339	19.801	50.742	0.455
476.000	305.167	79.997	19.997	103.346	19.787	51.822	0.465
478.000	306.121	79.998	19.996	103.353	19.773	52.878	0.488
480.000	307.283	79.998	19.996	103.395	19.764	53.607	0.411
482.000	308.263	79.999	19.996	103.384	19.752	54.567	0.524
484.000	309.322	79.998	19.997	103.361	19.735	55.896	0.271
486.000	310.261	79.998	19.997	103.371	19.724	56.708	0.594
488.000	311.231	79.997	19.997	103.384	19.715	57.484	0.567
490.000	312.266	79.999	19.997	103.369	19.702	58.477	0.557
492.000	313.240	79.998	19.997	103.386	19.689	59.473	0.499
494.000	314.276	80.000	19.996	103.377	19.679	60.205	0.539
496.000	315.260	80.000	19.997	103.401	19.668	61.133	0.504
498.000	316.265	80.000	19.996	103.432	19.653	62.296	0.535
500.000	317.224	80.000	19.995	103.435	19.646	62.849	0.474
502.000	318.235	79.999	19.995	103.411	19.636	63.660	0.508
504.000	319.220	79.998	19.995	103.398	19.623	64.650	0.458
506.000	320.252	79.997	19.996	103.399	19.610	65.604	0.497
508.000	321.275	79.998	19.996	103.411	19.603	66.182	0.514
510.000	322.320	79.998	19.996	103.427	19.602	66.205	0.498
512.000	323.283	79.998	19.996	103.443	19.591	67.076	0.471
514.000	324.319	79.998	19.996	103.467	19.585	67.542	0.505
516.000	325.356	79.997	19.995	103.449	19.582	67.758	0.509
518.000	326.361	79.996	19.995	103.405	19.583	67.729	0.521
520.000	327.394	79.997	19.996	103.398	19.578	68.140	0.492
522.000	328.427	79.996	19.995	103.406	19.579	68.043	0.525
524.000	329.438	79.998	19.996	103.418	19.580	67.922	0.522
526.000	330.501	79.997	19.996	103.382	19.579	67.976	0.532
528.000	331.473	79.997	19.996	103.365	19.589	67.203	0.523
530.000	332.505	79.999	19.994	103.378	19.591	67.083	0.513
532.000	333.536	79.998	19.996	103.383	19.600	66.379	0.538
534.000	334.581	79.997	19.995	103.331	19.609	65.645	0.534
536.000	335.553	79.998	19.996	103.319	19.624	64.449	0.513
538.000	336.604	79.997	19.995	103.331	19.640	63.227	0.521
540.000	337.624	79.998	19.995	103.358	19.659	61.717	0.527
542.000	338.632	79.997	19.995	103.370	19.676	60.383	0.516
544.000	339.624	79.999	19.996	103.371	19.698	58.629	0.540
546.000	340.621	79.999	19.995	103.312	19.718	57.082	0.528
548.000	341.623	79.998	19.996	103.274	19.737	55.630	0.500
550.000	342.642	79.998	19.996	103.319	19.764	53.499	0.513
552.000	343.626	79.999	19.996	103.291	19.787	51.717	0.481
554.000	344.612	80.000	19.996	103.231	19.811	49.885	0.486
556.000	345.635	79.999	19.996	103.191	19.837	47.854	0.542
558.000	346.674	80.001	19.996	103.221	19.861	45.992	0.536
560.000	347.673	79.999	19.997	103.228	19.882	44.328	0.511
562.000	348.585	79.999	19.998	103.233	19.909	42.207	0.462
564.000	349.588	80.000	19.996	103.214	19.935	40.193	0.497
566.000	350.659	79.998	19.997	103.201	19.957	38.453	0.518
568.000	351.668	79.999	19.996	103.200	19.978	36.827	0.511
570.000	352.702	79.999	19.995	103.182	19.998	35.325	0.507
572.000	353.683	79.998	19.996	103.174	20.012	34.224	0.504
574.000	354.709	80.000	19.995	103.165	20.028	33.032	0.501
576.000	355.727	80.000	19.997	103.165	20.046	31.600	0.505
578.000	356.754	80.000	19.995	103.164	20.058	30.651	0.525
580.000	357.699	79.999	19.995	103.163	20.075	29.313	0.466
582.000	358.714	80.000	19.997	103.199	20.088	28.275	0.495
584.000	359.743	80.000	19.997	103.236	20.104	27.083	0.511
586.000	360.749	79.999	19.997	103.234	20.114	26.285	0.486
588.000	361.710	79.997	19.995	103.215	20.122	25.631	0.479
590.000	362.738	79.996	19.997	103.173	20.132	24.927	0.506
592.000	363.731	79.998	19.998	103.147	20.138	24.432	0.513
594.000	364.778	79.998	19.996	103.134	20.142	24.142	0.526
596.000	365.717	79.998	19.996	103.144	20.147	23.739	0.484
598.000	366.761	79.998	19.998	103.182	20.154	23.163	0.502
600.000	367.771	79.997	19.995	103.201	20.162	22.535	0.494
602.000	368.772	79.996	19.996	103.176	20.163	22.474	0.497
604.000	369.779	79.998	19.997	103.167	20.173	21.714	0.527
606.000	370.788	79.999	19.996	103.162	20.177	21.404	0.537
608.000	371.731	79.999	19.996	103.139	20.179	21.236	0.449
610.000	372.764	80.000	19.995	103.143	20.182	21.000	0.534
612.000	373.780	79.998	19.996	103.162	20.186	20.712	0.492
614.000	374.819	80.001	19.995	103.191	20.188	20.494	0.498
616.000	375.750	79.997	19.995	103.154	20.189	20.413	0.495
618.000	376.785	79.998	19.995	103.127	20.190	20.346	0.515
620.000	377.844	79.997	19.996	103.154	20.192	20.204	0.532
622.000	378.834	79.998	19.996	103.160	20.196	19.892	0.507
624.000	379.846	79.996	19.995	103.164	20.196	19.888	0.507
626.000	380.839	79.997	19.996	103.160	20.199	19.689	0.510
628.000	381.868	79.999	19.996	103.146	20.201	19.490	0.502
630.000	382.865	79.999	19.996	103.164	20.202	19.404	0.496
632.000	383.868	79.998	19.996	103.154	20.201	19.536	0.473
634.000	384.896	80.001	19.996	103.128	20.202	19.416	0.532
636.000	385.892	80.000	19.995	103.130	20.202	19.473	0.498
638.000	386.869	80.000	19.996	103.121	20.202	19.440	0.491
640.000	387.954	80.000	19.995	103.132	20.207	19.034	0.528
642.000	388.922	79.999	19.996	103.159	20.207	19.077	0.478
644.000	389.981	80.001	19.996	103.179	20.210	18.852	0.491
646.000	390.929	79.999	19.996	103.196	20.215	18.409	0.473
648.000	391.962	79.999	19.996	103.197	20.213	18.591	0.520
650.000	393.008	79.997	19.995	103.195	20.215	18.438	0.517
652.000	394.017	79.998	19.996	103.184	20.212	18.668	0.528
654.000	395.062	79.999	19.997	103.144	20.216	18.381	0.523
656.000	396.091	79.999	19.995	103.157	20.217	18.304	0.496
658.000	397.103	80.000	19.995	103.148	20.214	18.507	0.520
660.000	398.133	80.000	19.996	103.140	20.217	18.283	0.507
662.000	399.123	80.000	19.995	103.154	20.213	18.566	0.490
664.000	400.135	79.999	19.995	103.167	20.216	18.361	0.522
666.000	401.150	80.002	19.995	103.141	20.215	18.460	0.521
668.000	402.132	80.002	19.996	103.136	20.216	18.330	0.500
670.000	403.163	80.002	19.997	103.143	20.216	18.357	0.502
672.000	404.182	80.000	19.996	103.161	20.216	18.386	0.505
674.000	405.161	80.001	19.997	103.161	20.218	18.167	0.514
676.000	406.163	79.998	19.997	103.155	20.220	18.043	0.471
678.000	407.171	79.997	19.997	103.139	20.216	18.310	0.514
680.000	408.174	79.997	19.997	103.131	20.213	18.567	0.526
682.000	409.168	79.998	19.997	103.136	20.217	18.246	0.497
684.000	410.197	79.999	19.997	103.171	20.215	18.468	0.516
686.000	411.228	79.998	19.997	103.160	20.213	18.559	0.510
688.000	412.219	79.999	19.997	103.128	20.214	18.503	0.499
690.000	413.222	80.000	19.996	103.139	20.217	18.264	0.516
692.000	414.212	79.998	19.996	103.191	20.218	18.224	0.516
694.000	415.229	79.999	19.996	103.184	20.217	18.280	0.518
696.000	416.257	79.999	19.995	103.173	20.218	18.211	0.508
698.000	417.267	80.000	19.996	103.143	20.217	18.310	0.488
700.000	418.247	79.998	19.996	103.129	20.217	18.246	0.467
702.000	419.261	79.998	19.996	103.152	20.218	18.160	0.541
704.000	420.302	79.999	19.995	103.147	20.215	18.409	0.503
706.000	421.310	79.997	19.995	103.127	20.214	18.471	0.486
708.000	422.341	79.997	19.995	103.160	20.214	18.476	0.514
710.000	423.345	79.999	19.996	103.145	20.213	18.555	0.499
712.000	424.393	79.997	19.995	103.141	20.212	18.627	0.525
714.000	425.387	79.998	19.996	103.127	20.215	18.443	0.519
716.000	426.428	79.998	19.996	103.129	20.212	18.633	0.531
718.000	427.455	79.997	19.996	103.149	20.215	18.419	0.486
720.000	428.503	79.998	19.996	103.171	20.212	18.686	0.515
722.000	429.532	79.999	19.996	103.132	20.213	18.599	0.495
724.000	430.576	80.000	19.995	103.150	20.215	18.464	0.525
726.000	431.604	79.999	19.994	103.148	20.214	18.514	0.546
728.000	432.629	79.997	19.994	103.131	20.212	18.641	0.536
730.000	433.676	79.999	19.996	103.150	20.217	18.238	0.541
732.000	434.749	79.999	19.995	103.159	20.214	18.516	0.547
734.000	435.757	79.999	19.994	103.154	20.215	18.441	0.491
736.000	436.795	79.999	19.995	103.152	20.210	18.805	0.519
738.000	437.843	80.001	19.995	103.151	20.217	18.265	0.556
740.000	438.849	80.000	19.995	103.156	20.215	18.450	0.506
742.000	439.907	79.999	19.997	103.162	20.213	18.547	0.544
744.000	440.944	80.002	19.996	103.151	20.218	18.166	0.541
746.000	441.934	80.002	19.996	103.133	20.214	18.528	0.501
748.000	442.964	80.001	19.996	103.128	20.214	18.464	0.508
750.000	443.983	80.000	19.995	103.129	20.216	18.380	0.510
752.000	444.996	80.002	19.996	103.132	20.217	18.243	0.491
754.000	445.992	80.000	19.996	103.125	20.215	18.401	0.485
756.000	447.066	79.999	19.995	103.118	20.212	18.617	0.515
758.000	448.092	79.998	19.996	103.124	20.213	18.579	0.524
760.000	449.072	79.999	19.997	103.127	20.217	18.293	0.496
762.000	450.102	80.000	19.995	103.124	20.216	18.324	0.499
764.000	451.103	79.999	19.996	103.125	20.215	18.446	0.529
766.000	452.162	79.998	19.997	103.110	20.213	18.558	0.510
768.000	453.150	80.000	19.997	103.114	20.216	18.329	0.508
770.000	454.164	79.998	19.997	103.126	20.217	18.260	0.500
772.000	455.179	79.996	19.996	103.126	20.218	18.234	0.528
774.000	456.190	79.997	19.996	103.137	20.222	17.873	0.506
776.000	457.208	79.997	19.996	103.177	20.220	18.061	0.473
778.000	458.200	79.998	19.997	103.141	20.224	17.697	0.503
780.000	459.187	79.998	19.997	103.146	20.222	17.867	0.483
782.000	460.213	79.998	19.996	103.173	20.227	17.524	0.515
784.000	461.228	79.998	19.996	103.134	20.223	17.832	0.516
786.000	462.274	79.998	19.996	103.098	20.219	18.086	0.509
788.000	463.220	79.999	19.996	103.091	20.219	18.149	0.511
790.000	464.273	79.999	19.996	103.096	20.220	18.007	0.517
792.000	465.247	79.998	19.996	103.117	20.223	17.834	0.492
794.000	466.278	79.998	19.996	103.136	20.222	17.888	0.494
796.000	467.300	79.998	19.995	103.135	20.223	17.823	0.517
798.000	468.328	79.997	19.995	103.128	20.223	17.839	0.487
800.000	469.333	79.999	19.996	103.129	20.221	17.963	0.513
802.000	470.345	79.999	19.995	103.147	20.222	17.871	0.500
804.000	471.380	79.999	19.994	103.127	20.223	17.792	0.498
806.000	472.427	79.998	19.995	103.103	20.223	17.806	0.532
808.000	473.447	80.001	19.995	103.122	20.225	17.612	0.514
810.000	474.479	80.000	19.995	103.131	20.226	17.573	0.511
812.000	475.517	80.000	19.996	103.139	20.225	17.670	0.525
814.000	476.487	80.000	19.996	103.124	20.226	17.607	0.471
816.000	477.518	80.000	19.995	103.124	20.223	17.807	0.517
818.000	478.564	80.000	19.995	103.126	20.221	17.953	0.509
820.000	479.572	80.001	19.996	103.139	20.223	17.833	0.507
822.000	480.606	80.000	19.995	103.145	20.223	17.797	0.502
824.000	481.636	80.000	19.996	103.129	20.226	17.591	0.534
826.000	482.641	80.000	19.995	103.127	20.223	17.789	0.482
828.000	483.636	80.002	19.996	103.134	20.225	17.648	0.485
830.000	484.684	80.002	19.995	103.126	20.227	17.499	0.518
832.000	485.677	80.002	19.995	103.130	20.223	17.800	0.503
834.000	486.650	80.002	19.996	103.124	20.223	17.813	0.478
836.000	487.676	80.001	19.994	103.118	20.227	17.507	0.487
838.000	488.725	80.001	19.996	103.122	20.224	17.718	0.522
840.000	489.716	80.001	19.995	103.126	20.224	17.708	0.504
842.000	490.755	79.998	19.996	103.134	20.224	17.717	0.489
844.000	491.790	79.999	19.995	103.113	20.226	17.584	0.521
846.000	492.787	79.999	19.996	103.111	20.224	17.763	0.501
848.000	493.861	79.999	19.995	103.128	20.222	17.900	0.519
850.000	494.889	80.000	19.997	103.122	20.220	18.045	0.515
852.000	495.865	79.998	19.996	103.129	20.225	17.606	0.486
854.000	496.907	79.999	19.996	103.131	20.223	17.819	0.500
856.000	497.940	79.999	19.996	103.129	20.222	17.854	0.510
858.000	498.937	79.999	19.995	103.130	20.223	17.802	0.505
860.000	499.938	79.999	19.995	103.123	20.224	17.695	0.508
862.000	500.903	79.998	19.996	103.109	20.219	18.116	0.485
864.000	501.928	79.997	19.996	103.091	20.224	17.757	0.515
866.000	502.942	79.999	19.996	103.125	20.223	17.826	0.528
868.000	503.923	79.999	19.997	103.146	20.224	17.740	0.505
870.000	504.932	79.998	19.996	103.136	20.223	17.775	0.521
872.000	505.923	79.999	19.997	103.129	20.224	17.727	0.520
874.000	506.897	79.999	19.996	103.119	20.221	17.971	0.503
876.000	507.853	79.999	19.997	103.124	20.222	17.906	0.474
878.000	508.894	79.998	19.997	103.127	20.222	17.894	0.541
880.000	509.862	79.998	19.997	103.127	20.220	18.010	0.494
882.000	510.888	79.997	19.997	103.113	20.218	18.229	0.513
884.000	511.861	79.998	19.997	103.091	20.221	17.967	0.499
886.000	512.832	80.000	19.996	103.115	20.219	18.127	0.465
888.000	513.836	80.000	19.995	103.099	20.215	18.415	0.499
890.000	514.850	80.001	19.995	103.114	20.220	18.001	0.512
892.000	515.846	80.001	19.996	103.120	20.219	18.144	0.468
894.000	516.890	80.001	19.996	103.123	20.221	17.947	0.513
896.000	517.826	80.000	19.996	103.123	20.218	18.224	0.486
898.000	518.878	80.000	19.996	103.123	20.218	18.212	0.519
900.000	519.851	79.999	19.996	103.127	20.216	18.354	0.489
902.000	520.858	79.999	19.996	103.123	20.220	18.055	0.492
904.000	521.885	80.001	19.995	103.122	20.217	18.260	0.507
906.000	522.919	79.998	19.996	103.115	20.218	18.230	0.520
908.000	523.925	80.000	19.996	103.123	20.214	18.512	0.519
910.000	524.945	80.000	19.996	103.124	20.212	18.671	0.503
912.000	525.929	80.000	19.995	103.125	20.210	18.802	0.511
914.000	526.924	80.001	19.996	103.124	20.210	18.804	0.491
916.000	527.973	80.002	19.995	103.125	20.210	18.779	0.518
918.000	528.971	80.002	19.995	103.129	20.213	18.600	0.476
920.000	530.031	80.002	19.994	103.125	20.217	18.282	0.535
922.000	531.027	80.000	19.994	103.124	20.212	18.667	0.529
924.000	532.024	80.001	19.995	103.127	20.212	18.690	0.509
926.000	533.052	79.998	19.995	103.123	20.212	18.664	0.520
928.000	534.066	80.000	19.993	103.110	20.215	18.460	0.482
930.000	535.096	80.000	19.995	103.123	20.212	18.681	0.484
932.000	536.136	79.999	19.995	103.122	20.205	19.175	0.530
934.000	537.203	80.000	19.995	103.124	20.210	18.825	0.542
936.000	538.208	80.000	19.997	103.124	20.211	18.716	0.502
938.000	539.217	79.999	19.996	103.118	20.208	18.986	0.486
940.000	540.248	79.999	19.995	103.121	20.206	19.155	0.492
942.000	541.287	79.999	19.996	103.121	20.206	19.140	0.554
944.000	542.253	79.999	19.997	103.122	20.206	19.094	0.518
946.000	543.306	79.999	19.996	103.121	20.207	19.083	0.499
948.000	544.391	79.999	19.995	103.119	20.207	19.076	0.531
950.000	545.462	80.001	19.996	103.121	20.203	19.379	0.503
952.000	546.511	80.000	19.996	103.121	20.205	19.231	0.546
954.000	547.566	80.000	19.995	103.121	20.207	19.075	0.516
956.000	548.687	79.999	19.994	103.123	20.207	19.007	0.557
958.000	549.761	79.999	19.998	103.130	20.205	19.199	0.531
960.000	550.884	79.997	19.994	103.144	20.208	18.964	0.584
962.000	551.992	79.999	19.995	103.128	20.206	19.151	0.553
964.000	553.065	79.999	19.997	103.127	20.198	19.739	0.560
966.000	554.208	79.998	19.996	103.123	20.202	19.465	0.560
968.000	555.383	79.999	19.998	103.121	20.202	19.420	0.578
970.000	556.474	79.999	19.998	103.118	20.201	19.520	0.568
972.000	557.632	79.999	19.996	103.113	20.202	19.447	0.562
974.000	558.707	80.001	19.996	103.121	20.200	19.568	0.571
976.000	559.846	79.999	19.996	103.134	20.203	19.348	0.563
978.000	560.975	80.000	19.994	103.125	20.200	19.560	0.575
980.000	562.090	79.999	19.997	103.127	20.197	19.839	0.588
982.000	563.187	80.000	19.994	103.113	20.202	19.396	0.544
984.000	564.337	80.000	19.994	103.123	20.201	19.508	0.554
986.000	565.430	79.999	19.996	103.123	20.202	19.457	0.563
988.000	566.565	80.000	19.996	103.121	20.204	19.242	0.587
990.000	567.686	80.002	19.995	103.123	20.202	19.403	0.568
992.000	568.772	80.000	19.995	103.123	20.201	19.529	0.561
994.000	569.889	80.000	19.994	103.124	20.205	19.238	0.559
996.000	570.990	80.001	19.994	103.125	20.201	19.489	0.539
998.000	572.116	80.001	19.995	103.116	20.203	19.341	0.547
1000.000	573.274	80.001	19.996	103.110	20.200	19.559	0.573
1002.000	574.390	80.001	19.994	103.124	20.200	19.574	0.591
1004.000	575.538	80.001	19.997	103.120	20.196	19.920	0.563
1006.000	576.615	80.002	19.996	103.117	20.195	19.954	0.513
1008.000	577.737	80.002	19.994	103.119	20.194	20.039	0.565
1010.000	578.838	80.001	19.996	103.119	20.195	19.976	0.544
1012.000	579.915	80.000	19.996	103.118	20.199	19.683	0.537
1014.000	581.001	79.999	19.998	103.118	20.201	19.521	0.531
1016.000	582.081	80.001	19.995	103.111	20.199	19.647	0.532
1018.000	583.187	80.001	19.995	103.128	20.196	19.873	0.563
1020.000	584.275	80.000	19.995	103.146	20.198	19.762	0.543
1022.000	585.370	80.001	19.994	103.119	20.196	19.917	0.541
1024.000	586.482	80.000	19.995	103.096	20.195	19.976	0.572
1025.999	587.579	79.998	19.995	103.102	20.193	20.154	0.535
1027.999	588.646	80.000	19.993	103.088	20.197	19.787	0.508
1029.999	589.727	79.998	19.995	103.114	20.194	20.024	0.534
1031.999	590.863	80.000	19.997	103.177	20.193	20.144	0.556
1033.999	591.887	80.002	19.996	103.120	20.196	19.883	0.510
1035.999	593.014	79.999	19.994	103.089	20.188	20.491	0.555
1037.999	594.095	80.001	19.997	103.085	20.189	20.464	0.551
1039.999	595.172	80.000	19.996	103.130	20.188	20.537	0.564
1041.999	596.267	79.996	19.995	103.159	20.192	20.229	0.545
1043.999	597.341	79.998	19.996	103.125	20.191	20.281	0.540
1045.999	598.368	79.999	19.995	103.135	20.193	20.153	0.528
1047.999	599.455	79.999	19.995	103.162	20.195	19.962	0.513
1049.999	600.486	79.998	19.996	103.182	20.195	19.942	0.507
1051.999	601.602	80.000	19.997	103.134	20.191	20.293	0.563
1053.999	602.570	79.999	19.995	103.119	20.194	20.082	0.507
1055.999	603.679	80.000	19.995	103.090	20.187	20.628	0.519
1057.999	604.712	80.000	19.996	103.062	20.187	20.611	0.514
1059.999	605.676	80.001	19.997	103.103	20.192	20.194	0.492
1061.999	606.706	79.999	19.995	103.101	20.191	20.314	0.490
1063.999	607.748	79.998	19.995	103.152	20.193	20.144	0.510
1065.999	608.801	79.997	19.996	103.112	20.185	20.768	0.522
1067.999	609.833	80.000	19.997	103.092	20.187	20.624	0.511
1069.999	610.813	79.998	19.996	103.093	20.185	20.748	0.493
1071.999	611.806	80.001	19.997	103.083	20.186	20.642	0.450
1073.999	612.810	80.000	19.997	103.106	20.193	20.114	0.514
1075.999	613.808	80.001	19.996	103.148	20.188	20.541	0.473
1077.999	614.832	80.000	19.996	103.128	20.191	20.306	0.489
1079.999	615.852	80.001	19.996	103.094	20.189	20.415	0.511
1081.999	616.854	80.002	19.996	103.126	20.191	20.261	0.513
1083.999	617.874	80.003	19.996	103.103	20.187	20.593	0.487
1085.999	618.888	80.005	19.996	103.092	20.186	20.641	0.489
1087.999	619.893	80.004	19.996	103.117	20.185	20.729	0.484
1089.999	620.949	80.002	19.995	103.112	20.192	20.234	0.494
1091.999	621.944	80.005	19.995	103.112	20.188	20.486	0.495
1093.999	622.976	80.001	19.995	103.086	20.187	20.563	0.509
1095.999	623.973	79.999	19.996	103.098	20.185	20.787	0.507
1097.999	625.020	80.000	19.995	103.116	20.185	20.754	0.509
1099.999	625.978	80.000	19.997	103.098	20.188	20.485	0.483
1101.999	626.997	79.999	19.996	103.107	20.186	20.663	0.493
1103.999	628.052	79.997	19.996	103.125	20.187	20.582	0.517
1105.999	629.065	80.000	19.996	103.102	20.184	20.820	0.511
1107.999	630.095	79.999	19.996	103.094	20.185	20.772	0.531
1109.999	631.076	79.997	19.996	103.112	20.184	20.820	0.501
1111.999	632.110	80.000	19.996	103.125	20.188	20.555	0.493
1114.000	633.135	80.001	19.996	103.124	20.186	20.672	0.533
1116.000	634.170	80.000	19.996	103.124	20.185	20.741	0.525
1117.999	635.192	80.000	19.997	103.122	20.189	20.439	0.531
1119.999	636.202	80.002	19.994	103.123	20.188	20.497	0.526
1121.999	637.193	80.001	19.995	103.118	20.189	20.411	0.509
1123.999	638.208	79.999	19.995	103.095	20.180	21.124	0.509
1125.999	639.233	79.998	19.995	103.106	20.184	20.815	0.512
1128.000	640.239	79.998	19.994	103.086	20.178	21.291	0.512
1129.999	641.224	80.002	19.996	103.098	20.187	20.627	0.494
1131.999	642.252	79.999	19.996	103.088	20.180	21.171	0.524
1133.999	643.248	79.999	19.996	103.113	20.180	21.163	0.527
1136.000	644.262	79.999	19.996	103.092	20.180	21.150	0.484
1137.999	645.235	80.000	19.996	103.065	20.183	20.891	0.513
1139.999	646.274	80.000	19.996	103.084	20.181	21.053	0.535
1142.000	647.262	79.999	19.997	103.096	20.181	21.082	0.511
1143.999	648.248	80.001	19.998	103.102	20.177	21.361	0.511
1145.999	649.262	80.002	19.996	103.096	20.188	20.531	0.517
1147.999	650.294	80.001	19.995	103.116	20.182	21.010	0.491
1149.999	651.351	80.000	19.995	103.107	20.180	21.170	0.516
1152.000	652.333	80.000	19.996	103.089	20.178	21.304	0.500
1153.999	653.331	79.999	19.995	103.082	20.175	21.525	0.494
1155.999	654.346	80.000	19.995	103.088	20.176	21.463	0.477
1157.999	655.358	79.998	19.996	103.080	20.177	21.338	0.496
1159.999	656.372	80.004	19.998	103.081	20.174	21.571	0.511
1161.999	657.377	80.001	19.996	103.082	20.179	21.248	0.519
1163.999	658.415	79.999	19.996	103.086	20.177	21.366	0.507
1165.999	659.350	80.001	19.996	103.111	20.177	21.376	0.485
1167.999	660.384	80.002	19.997	103.114	20.181	21.026	0.539
1169.999	661.403	80.002	19.997	103.116	20.180	21.152	0.515
1171.999	662.421	80.000	19.996	103.101	20.175	21.507	0.492
1173.999	663.462	80.002	19.996	103.078	20.179	21.218	0.502
1175.999	664.436	80.000	19.997	103.083	20.174	21.643	0.521
1177.999	665.417	80.002	19.996	103.082	20.172	21.755	0.481
1180.000	666.422	80.000	19.995	103.080	20.171	21.844	0.504
1181.999	667.460	79.999	19.995	103.083	20.171	21.832	0.500
1183.999	668.455	79.999	19.996	103.085	20.175	21.505	0.501
1185.999	669.443	80.000	19.995	103.110	20.173	21.710	0.501
1187.999	670.505	80.002	19.997	103.112	20.174	21.616	0.535
1189.999	671.482	79.999	19.995	103.097	20.174	21.618	0.509
1191.999	672.483	80.001	19.995	103.123	20.169	22.005	0.499
1193.999	673.514	80.001	19.995	103.116	20.165	22.312	0.506
1195.999	674.528	80.001	19.995	103.111	20.170	21.890	0.521
1197.999	675.517	80.000	19.996	103.110	20.173	21.698	0.510
1199.999	676.508	80.001	19.997	103.111	20.173	21.685	0.466
1201.999	677.534	80.000	19.997	103.107	20.172	21.788	0.510
1203.999	678.495	80.000	19.995	103.091	20.167	22.110	0.486
1205.999	679.473	80.000	19.995	103.089	20.166	22.255	0.494
1207.999	680.480	79.999	19.995	103.078	20.165	22.301	0.465
1209.999	681.492	80.000	19.996	103.090	20.163	22.432	0.493
1211.999	682.505	80.000	19.995	103.088	20.160	22.677	0.481
1213.999	683.508	80.000	19.994	103.093	20.161	22.646	0.520
1215.999	684.506	79.998	19.996	103.090	20.164	22.367	0.488
1217.999	685.519	80.000	19.995	103.096	20.163	22.428	0.514
1219.999	686.516	80.000	19.995	103.105	20.162	22.512	0.510
1221.999	687.549	80.002	19.995	103.106	20.169	21.991	0.489
1223.999	688.516	80.000	19.996	103.086	20.168	22.049	0.495
1225.999	689.539	80.001	19.996	103.106	20.166	22.212	0.522
1227.999	690.538	80.003	19.995	103.091	20.167	22.105	0.515
1229.999	691.559	80.001	19.996	103.070	20.167	22.116	0.526
1231.999	692.575	80.000	19.996	103.079	20.163	22.461	0.498
1233.999	693.578	80.002	19.996	103.081	20.163	22.427	0.525
1235.999	694.596	80.000	19.996	103.078	20.161	22.629	0.510
1237.999	695.620	80.000	19.997	103.054	20.157	22.952	0.496
1239.999	696.608	80.000	19.996	103.070	20.159	22.758	0.503
1241.999	697.645	80.001	19.995	103.086	20.161	22.644	0.489
1243.999	698.673	80.001	19.996	103.093	20.159	22.757	0.512
1245.999	699.633	80.000	19.995	103.124	20.162	22.553	0.479
1247.999	700.675	80.002	19.996	103.131	20.164	22.419	0.521
1249.999	701.678	80.002	19.996	103.140	20.162	22.533	0.536
1251.999	702.730	80.002	19.996	103.112	20.164	22.363	0.528
1253.999	703.688	80.002	19.996	103.101	20.159	22.780	0.514
1255.999	704.752	80.002	19.997	103.091	20.159	22.760	0.543
1257.999	705.732	80.002	19.996	103.093	20.159	22.737	0.488
1259.999	706.793	80.000	19.997	103.091	20.158	22.854	0.502
1261.999	707.831	80.000	19.997	103.087	20.157	22.898	0.533
1263.999	708.835	80.000	19.997	103.096	20.158	22.831	0.517
1265.999	709.796	79.997	19.997	103.109	20.159	22.774	0.463
1267.999	710.835	79.998	19.997	103.106	20.159	22.725	0.517
1269.999	711.900	79.999	19.997	103.093	20.156	23.012	0.505
1271.999	712.893	79.999	19.997	103.079	20.155	23.129	0.512
1273.999	713.919	79.999	19.997	103.101	20.152	23.337	0.522
1275.999	714.911	79.998	19.995	103.077	20.152	23.306	0.498
1277.999	715.943	80.001	19.997	103.050	20.148	23.584	0.513
1279.999	716.964	80.000	19.996	103.045	20.153	23.279	0.503
1281.999	717.973	80.000	19.995	103.113	20.155	23.058	0.510
1283.999	718.928	80.000	19.996	103.182	20.157	22.906	0.465
1285.999	719.973	80.000	19.995	103.057	20.150	23.426	0.524
1287.999	720.966	80.001	19.996	103.043	20.151	23.359	0.482
1289.999	721.954	80.000	19.996	103.088	20.151	23.392	0.494
1291.999	722.967	80.000	19.996	103.141	20.152	23.315	0.510
1293.999	723.961	80.002	19.996	103.078	20.149	23.514	0.509
1295.999	724.985	79.999	19.996	103.068	20.150	23.451	0.492
1297.999	725.969	79.999	19.996	103.062	20.148	23.620	0.507
1299.999	726.993	80.000	19.997	103.096	20.147	23.726	0.517
1301.999	727.967	80.000	19.996	103.117	20.150	23.478	0.460
1303.999	728.995	79.999	19.996	103.059	20.149	23.561	0.522
1305.999	729.961	80.001	19.997	103.083	20.147	23.713	0.499
1307.999	731.050	79.999	19.996	103.071	20.148	23.652	0.538
1309.999	731.990	80.001	19.995	103.116	20.143	24.046	0.474
1311.999	733.014	80.002	19.995	103.122	20.145	23.855	0.494
1313.999	734.084	80.002	19.996	103.100	20.145	23.835	0.526
1315.999	735.078	80.003	19.995	103.084	20.149	23.544	0.558
1317.999	736.061	80.004	19.996	103.117	20.148	23.656	0.514
1319.999	737.075	80.002	19.995	103.113	20.146	23.780	0.494
1321.999	738.113	80.002	19.996	103.098	20.147	23.699	0.537
1323.999	739.166	80.001	19.996	103.116	20.148	23.627	0.544
1325.999	740.154	79.999	19.996	103.100	20.149	23.536	0.525
1327.999	741.187	80.001	19.996	103.094	20.146	23.801	0.509
1329.999	742.231	80.001	19.995	103.106	20.147	23.703	0.522
1331.999	743.227	80.000	19.996	103.085	20.144	23.905	0.480
1332.499	743.503	80.001	19.996	103.084	20.145	23.875	0.508