File: 01_Data/Eucalyptus_Flooring/MCC/Eucalyptus_Flooring_30K_min_211028_R4.txt
Sample ID:	C:\MCC\MCC Cal\Test\Eucalyptus_Flooring\Eucalyptus_Flooring_30K_min_211028_R4.txt
Sample Weight (mg):	4.42
Heating Rate (C/s):	0.5
Combustor Temp (C):	900
N2 Flow Rate (cc/min):	80
O2 Flow Rate (cc/min):	20
Calibration File:	C:\MCC\MCC Cal\Coeff1 JN10440_30_210304.txt.txt
T Correction Coefficients:	0	1.024463	0
Time Shift (s):	14
*
Time (s)	Temperature (C)	N2 flow rate (cc/min)	O2 flow rate (cc/min)	Flow Rate (cc/min)	Oxygen (%)	HRR (W/g)	Heating rate (C/s)
-0.001	107.722	80.000	19.995	102.937	20.177	-0.124	-0.032
2.000	107.722	79.999	19.995	102.946	20.179	-0.295	-0.001
4.000	107.698	80.000	19.996	102.936	20.178	-0.216	-0.025
6.000	107.744	79.999	19.998	102.942	20.178	-0.186	0.029
8.000	107.758	80.001	19.994	102.948	20.177	-0.150	0.017
10.000	107.738	79.999	19.997	102.938	20.180	-0.361	-0.008
12.000	107.731	79.999	19.995	102.938	20.180	-0.373	0.005
14.000	107.708	79.999	19.995	102.954	20.178	-0.221	0.020
16.000	107.736	80.001	19.995	102.931	20.179	-0.311	0.007
18.000	107.727	80.000	19.995	102.935	20.179	-0.301	-0.017
20.000	107.716	80.000	19.995	102.941	20.180	-0.317	-0.017
22.000	107.739	80.000	19.995	102.944	20.172	0.237	-0.016
24.000	107.750	80.000	19.997	102.989	20.171	0.269	0.013
26.000	107.739	80.002	19.996	103.002	20.166	0.700	0.013
28.000	107.783	80.000	19.997	103.046	20.161	1.046	0.008
30.000	107.860	79.999	19.997	103.084	20.153	1.592	0.044
32.000	107.975	79.999	19.996	103.095	20.155	1.495	0.049
33.999	108.150	79.999	19.996	103.111	20.151	1.789	0.077
35.999	108.283	79.997	19.997	103.113	20.145	2.160	0.093
37.999	108.479	79.999	19.997	103.118	20.143	2.317	0.096
40.000	108.716	79.997	19.997	103.118	20.143	2.377	0.141
41.999	108.985	79.998	19.996	103.120	20.142	2.423	0.150
43.999	109.263	79.998	19.995	103.120	20.143	2.377	0.129
45.999	109.601	79.999	19.996	103.136	20.140	2.574	0.167
47.999	109.903	79.998	19.995	103.150	20.138	2.675	0.168
49.999	110.205	79.999	19.997	103.147	20.140	2.596	0.167
51.999	110.614	79.997	19.996	103.142	20.139	2.658	0.168
53.999	111.049	79.997	19.996	103.144	20.141	2.454	0.225
55.999	111.426	79.998	19.996	103.144	20.137	2.783	0.216
58.000	111.852	79.998	19.995	103.153	20.139	2.612	0.178
59.999	112.334	79.996	19.996	103.153	20.141	2.490	0.191
61.999	112.812	79.995	19.997	103.152	20.140	2.586	0.245
63.999	113.332	79.998	19.992	103.152	20.139	2.658	0.258
65.999	113.855	79.996	19.995	103.155	20.140	2.554	0.260
68.001	114.371	79.997	19.996	103.153	20.142	2.432	0.233
69.999	114.911	79.995	19.995	103.151	20.138	2.723	0.259
71.999	115.464	79.998	19.995	103.153	20.136	2.850	0.280
73.999	116.024	79.999	19.994	103.153	20.135	2.890	0.283
76.000	116.648	79.996	19.997	103.155	20.140	2.579	0.286
77.999	117.248	80.000	19.995	103.159	20.137	2.790	0.340
80.000	117.831	79.998	19.996	103.157	20.135	2.919	0.288
81.999	118.466	80.000	19.994	103.170	20.134	2.999	0.302
83.999	119.082	80.000	19.996	103.179	20.132	3.123	0.280
85.999	119.735	79.996	19.995	103.180	20.131	3.246	0.313
87.999	120.356	79.998	19.995	103.189	20.131	3.224	0.288
90.000	121.066	79.999	19.999	103.190	20.130	3.254	0.367
91.999	121.750	79.998	19.997	103.186	20.135	2.953	0.355
93.999	122.480	79.999	19.997	103.185	20.133	3.055	0.367
95.999	123.203	80.000	19.994	103.190	20.132	3.160	0.383
97.999	123.909	79.998	19.997	103.190	20.132	3.109	0.342
100.000	124.647	80.001	19.992	103.192	20.130	3.274	0.372
101.999	125.404	80.002	19.995	103.191	20.129	3.340	0.354
103.999	126.235	80.001	19.994	103.189	20.130	3.306	0.404
105.999	127.024	80.001	19.995	103.189	20.130	3.262	0.421
107.999	127.838	79.999	19.994	103.192	20.129	3.391	0.403
109.999	128.653	79.999	19.996	103.186	20.130	3.270	0.432
111.999	129.465	79.999	19.995	103.191	20.129	3.338	0.415
113.999	130.306	79.997	19.995	103.190	20.129	3.355	0.419
115.999	131.156	79.997	19.996	103.194	20.133	3.071	0.445
117.999	131.971	79.998	19.995	103.196	20.131	3.204	0.412
119.999	132.860	79.998	19.995	103.195	20.132	3.160	0.445
121.999	133.721	79.999	19.995	103.194	20.133	3.045	0.441
123.999	134.602	79.999	19.996	103.194	20.130	3.272	0.440
125.999	135.492	80.000	19.995	103.194	20.131	3.232	0.437
127.999	136.407	79.997	19.995	103.192	20.131	3.204	0.488
130.000	137.321	79.999	19.995	103.192	20.134	3.035	0.459
132.000	138.247	79.997	19.996	103.194	20.133	3.079	0.435
134.000	139.156	79.998	19.995	103.198	20.132	3.126	0.443
136.000	140.118	79.997	19.996	103.195	20.135	2.921	0.476
138.000	141.021	79.999	19.995	103.195	20.131	3.252	0.477
140.000	141.973	79.995	19.997	103.195	20.131	3.240	0.489
142.000	142.894	79.997	19.995	103.195	20.133	3.093	0.446
144.000	143.887	79.996	19.996	103.194	20.131	3.234	0.499
146.000	144.797	79.996	19.996	103.191	20.131	3.222	0.452
148.000	145.757	79.997	19.997	103.191	20.133	3.085	0.474
150.000	146.697	79.997	19.997	103.192	20.136	2.870	0.466
152.000	147.676	79.998	19.997	103.192	20.133	3.073	0.443
154.000	148.620	79.999	19.997	103.191	20.133	3.059	0.468
156.000	149.615	79.999	19.994	103.187	20.133	3.039	0.486
158.000	150.580	79.999	19.997	103.188	20.132	3.161	0.471
160.000	151.547	79.999	19.995	103.188	20.134	3.011	0.464
162.000	152.558	79.999	19.995	103.187	20.132	3.121	0.540
164.000	153.464	80.002	19.994	103.189	20.132	3.141	0.474
166.000	154.463	80.001	19.994	103.189	20.134	2.991	0.477
168.000	155.448	79.997	19.996	103.180	20.133	3.037	0.505
170.000	156.412	80.000	19.995	103.187	20.133	3.055	0.507
172.000	157.394	79.999	19.994	103.191	20.132	3.168	0.489
174.000	158.386	79.999	19.994	103.185	20.133	3.091	0.472
176.000	159.385	79.997	19.996	103.191	20.129	3.372	0.515
178.000	160.313	79.998	19.995	103.183	20.130	3.288	0.486
180.000	161.355	80.002	19.994	103.185	20.131	3.210	0.493
182.000	162.350	80.001	19.997	103.189	20.127	3.531	0.519
184.000	163.375	80.001	19.994	103.185	20.130	3.320	0.502
186.000	164.339	79.999	19.996	103.183	20.129	3.376	0.503
188.000	165.343	80.001	19.996	103.191	20.129	3.332	0.507
190.000	166.377	80.000	19.995	103.189	20.132	3.165	0.484
192.000	167.325	79.999	19.998	103.186	20.128	3.434	0.500
194.000	168.334	79.998	19.994	103.180	20.133	3.071	0.478
196.000	169.329	79.998	19.996	103.171	20.131	3.217	0.510
198.000	170.316	80.000	19.994	103.186	20.131	3.187	0.504
200.000	171.354	79.999	19.994	103.180	20.130	3.285	0.519
202.000	172.345	79.997	19.994	103.176	20.128	3.400	0.456
204.000	173.345	79.999	19.994	103.179	20.132	3.165	0.502
206.000	174.347	79.999	19.994	103.162	20.132	3.151	0.506
208.000	175.327	79.998	19.996	103.162	20.131	3.181	0.524
210.000	176.339	80.000	19.996	103.157	20.134	2.980	0.509
212.000	177.330	79.999	19.996	103.171	20.136	2.867	0.487
214.000	178.331	79.998	19.995	103.170	20.130	3.261	0.503
216.000	179.324	79.999	19.995	103.166	20.132	3.128	0.488
218.000	180.320	79.998	19.994	103.165	20.134	3.014	0.484
220.000	181.380	79.999	19.995	103.170	20.133	3.094	0.524
222.000	182.365	79.998	19.994	103.160	20.132	3.134	0.523
224.000	183.394	80.000	19.994	103.154	20.134	3.022	0.541
226.000	184.316	79.998	19.995	103.153	20.133	3.042	0.481
228.000	185.306	79.998	19.995	103.152	20.133	3.070	0.499
230.000	186.358	79.999	19.996	103.153	20.131	3.186	0.522
232.000	187.375	79.998	19.996	103.159	20.133	3.098	0.500
234.000	188.339	79.998	19.997	103.152	20.134	2.978	0.507
236.000	189.302	80.001	19.995	103.152	20.132	3.158	0.476
238.000	190.322	79.998	19.995	103.151	20.133	3.070	0.512
240.000	191.280	80.000	19.997	103.148	20.131	3.209	0.486
242.000	192.245	80.000	19.995	103.151	20.132	3.155	0.445
244.000	193.272	80.000	19.995	103.152	20.129	3.383	0.482
246.000	194.284	79.999	19.995	103.150	20.128	3.464	0.502
248.000	195.232	79.998	19.996	103.150	20.132	3.132	0.490
250.000	196.177	79.997	19.995	103.153	20.130	3.277	0.463
252.000	197.175	80.001	19.995	103.154	20.125	3.626	0.473
254.000	198.173	79.992	20.002	103.156	20.126	3.548	0.502
256.000	199.116	79.999	19.994	103.152	20.125	3.620	0.481
258.000	200.093	79.996	19.997	103.155	20.125	3.689	0.455
260.000	201.046	80.000	19.991	103.155	20.125	3.654	0.481
262.000	202.063	80.002	19.993	103.155	20.124	3.745	0.467
264.000	203.036	80.001	19.994	103.156	20.126	3.602	0.490
266.000	204.032	80.000	19.993	103.154	20.123	3.819	0.521
268.000	204.970	79.998	19.995	103.154	20.123	3.771	0.485
270.000	205.970	80.000	19.996	103.154	20.120	4.032	0.489
272.000	206.917	79.997	19.997	103.154	20.122	3.892	0.463
274.000	207.951	79.999	19.995	103.153	20.117	4.223	0.519
276.000	208.928	79.999	19.995	103.146	20.120	4.028	0.485
278.000	209.920	79.997	19.996	103.147	20.119	4.123	0.486
280.000	210.915	79.999	19.993	103.149	20.115	4.371	0.490
282.000	211.886	79.999	19.996	103.163	20.121	3.946	0.486
284.000	212.851	79.997	19.996	103.156	20.117	4.267	0.480
286.000	213.876	79.999	19.994	103.152	20.116	4.319	0.490
288.000	214.861	79.999	19.994	103.156	20.112	4.568	0.474
290.000	215.887	79.999	19.996	103.161	20.112	4.578	0.482
292.000	216.880	79.996	19.999	103.155	20.110	4.755	0.516
294.000	217.847	80.000	19.996	103.154	20.111	4.709	0.494
296.000	218.886	80.000	19.994	103.154	20.106	5.036	0.501
298.000	219.873	79.997	19.996	103.153	20.103	5.227	0.496
300.000	220.899	80.001	19.993	103.152	20.101	5.365	0.507
302.000	221.861	80.002	19.994	103.155	20.100	5.478	0.504
304.000	222.918	79.997	19.993	103.156	20.103	5.283	0.504
306.000	223.867	79.994	20.002	103.158	20.101	5.369	0.497
308.000	224.869	79.999	19.998	103.158	20.099	5.520	0.505
310.000	225.881	79.999	19.994	103.155	20.098	5.586	0.536
312.000	226.845	79.999	19.997	103.156	20.095	5.865	0.509
314.000	227.860	79.999	19.995	103.156	20.094	5.899	0.510
316.000	228.906	79.999	19.994	103.156	20.093	5.964	0.510
318.000	229.925	80.002	19.994	103.159	20.089	6.297	0.542
320.000	230.962	79.996	20.001	103.156	20.092	6.092	0.508
322.000	231.972	79.999	19.995	103.156	20.086	6.478	0.508
324.000	232.980	79.997	19.996	103.154	20.083	6.678	0.510
326.000	233.955	79.998	19.996	103.160	20.084	6.658	0.493
328.000	234.992	79.997	19.996	103.164	20.082	6.811	0.531
330.000	235.971	79.997	19.998	103.163	20.081	6.863	0.501
332.000	236.990	79.998	19.997	103.160	20.081	6.837	0.517
334.000	238.015	79.998	19.996	103.156	20.078	7.070	0.494
336.000	238.963	79.999	19.995	103.152	20.078	7.040	0.455
338.000	239.944	79.997	19.997	103.152	20.073	7.440	0.478
340.000	240.969	80.001	19.994	103.154	20.075	7.327	0.491
342.000	242.001	80.001	19.994	103.151	20.068	7.819	0.532
344.000	243.045	80.000	19.995	103.156	20.071	7.550	0.517
346.000	244.015	80.000	19.996	103.151	20.070	7.691	0.477
348.000	245.008	80.000	19.996	103.153	20.066	7.916	0.478
350.000	246.051	79.997	19.998	103.158	20.062	8.213	0.507
352.000	247.005	80.001	19.994	103.152	20.059	8.424	0.470
354.000	248.038	79.998	19.995	103.153	20.060	8.377	0.513
356.000	249.045	79.996	19.995	103.155	20.056	8.707	0.487
358.000	250.111	80.000	19.993	103.163	20.052	8.958	0.531
360.000	251.078	79.999	19.996	103.158	20.049	9.221	0.479
362.000	252.104	79.999	19.994	103.154	20.046	9.396	0.519
364.000	253.095	79.998	19.996	103.157	20.044	9.535	0.502
366.000	254.092	79.998	19.995	103.160	20.044	9.577	0.501
368.000	255.106	79.997	19.995	103.161	20.042	9.729	0.503
370.000	256.085	79.996	19.998	103.164	20.040	9.853	0.481
372.000	257.093	79.999	19.994	103.165	20.034	10.292	0.497
374.000	258.055	80.000	19.993	103.165	20.031	10.515	0.506
376.000	259.086	79.999	19.992	103.167	20.029	10.645	0.516
378.000	260.081	79.998	19.995	103.172	20.018	11.414	0.506
380.000	261.057	79.997	19.996	103.115	20.017	11.553	0.473
382.000	262.083	79.998	19.994	103.206	20.014	11.759	0.499
384.000	263.059	79.998	19.995	103.219	20.011	11.927	0.505
386.000	264.068	79.998	19.996	103.185	20.007	12.240	0.496
388.000	265.053	79.998	19.995	103.178	20.002	12.622	0.511
390.000	266.059	79.997	19.995	103.189	19.997	12.998	0.477
392.000	267.037	79.997	19.994	103.188	19.992	13.375	0.497
394.000	268.041	79.999	19.995	103.194	19.986	13.793	0.499
396.000	269.047	79.999	19.996	103.188	19.983	14.028	0.503
398.000	269.992	79.998	19.997	103.190	19.980	14.183	0.507
400.000	271.011	80.000	19.995	103.190	19.971	14.852	0.482
402.000	272.022	80.001	19.995	103.187	19.962	15.552	0.503
404.000	273.013	80.000	19.996	103.187	19.957	15.913	0.503
406.000	274.007	80.000	19.995	103.187	19.950	16.418	0.474
408.000	275.004	79.999	19.995	103.190	19.941	17.058	0.500
410.000	276.022	79.999	19.997	103.189	19.935	17.501	0.494
412.000	276.983	79.999	19.995	103.196	19.929	17.971	0.475
414.000	277.936	80.000	19.996	103.205	19.918	18.745	0.489
416.000	278.922	79.999	19.995	103.209	19.914	19.042	0.483
418.000	279.911	79.998	19.996	103.217	19.908	19.491	0.509
420.000	280.874	80.000	19.997	103.220	19.899	20.142	0.447
422.000	281.864	79.999	19.995	103.223	19.888	20.921	0.487
424.000	282.815	80.000	19.997	103.216	19.878	21.627	0.483
426.000	283.850	80.000	19.994	103.220	19.874	21.981	0.488
428.000	284.823	80.000	19.995	103.226	19.862	22.799	0.490
430.000	285.789	79.999	19.995	103.227	19.852	23.521	0.495
432.000	286.778	79.997	19.994	103.229	19.845	24.102	0.500
434.000	287.819	79.999	19.994	103.245	19.828	25.306	0.500
436.000	288.738	79.998	19.994	103.248	19.822	25.725	0.496
438.000	289.725	79.997	19.994	103.248	19.809	26.677	0.485
440.000	290.814	79.997	19.997	103.249	19.799	27.446	0.540
442.000	291.778	79.998	19.994	103.252	19.787	28.295	0.509
444.000	292.789	79.998	19.995	103.264	19.778	28.945	0.490
446.000	293.763	79.999	19.994	103.270	19.767	29.754	0.503
448.000	294.742	79.999	19.996	103.271	19.754	30.732	0.497
450.000	295.787	79.997	19.996	103.271	19.744	31.414	0.493
452.000	296.757	79.998	19.995	103.272	19.734	32.192	0.479
454.000	297.751	79.998	19.994	103.277	19.718	33.335	0.498
456.000	298.728	79.998	19.995	103.283	19.710	33.954	0.474
458.000	299.762	79.997	19.996	103.279	19.694	35.070	0.508
460.000	300.759	79.998	19.995	103.295	19.684	35.830	0.501
462.000	301.750	79.999	19.996	103.305	19.673	36.595	0.515
464.000	302.752	79.998	19.994	103.296	19.658	37.717	0.506
466.000	303.716	79.999	19.995	103.305	19.647	38.519	0.487
468.000	304.726	79.999	19.994	103.308	19.635	39.392	0.517
470.000	305.754	79.998	19.994	103.307	19.619	40.552	0.485
472.000	306.751	79.999	19.996	103.309	19.607	41.466	0.493
474.000	307.743	80.001	19.994	103.311	19.594	42.405	0.478
476.000	308.734	80.001	19.994	103.328	19.582	43.284	0.487
478.000	309.777	80.000	19.995	103.331	19.565	44.522	0.515
480.000	310.750	80.001	19.995	103.324	19.554	45.283	0.516
482.000	311.746	80.001	19.995	103.336	19.540	46.320	0.511
484.000	312.776	80.001	19.995	103.344	19.529	47.153	0.522
486.000	313.802	80.000	19.996	103.343	19.515	48.184	0.489
488.000	314.775	79.997	19.997	103.344	19.504	48.951	0.500
490.000	315.776	79.997	19.996	103.347	19.489	50.083	0.487
492.000	316.747	79.999	19.995	103.347	19.482	50.535	0.477
494.000	317.738	80.000	19.995	103.350	19.469	51.514	0.513
496.000	318.773	80.001	19.995	103.349	19.459	52.228	0.519
498.000	319.741	80.001	19.995	103.347	19.447	53.140	0.492
500.000	320.755	79.999	19.995	103.354	19.436	53.932	0.507
502.000	321.718	80.000	19.995	103.356	19.425	54.746	0.479
504.000	322.734	80.001	19.996	103.352	19.419	55.147	0.496
506.000	323.699	80.000	19.997	103.347	19.410	55.799	0.508
508.000	324.704	80.000	19.995	103.350	19.403	56.332	0.481
510.000	325.679	80.000	19.996	103.351	19.400	56.520	0.485
512.000	326.630	79.999	19.993	103.350	19.395	56.922	0.456
514.000	327.618	79.998	19.996	103.350	19.391	57.229	0.492
516.000	328.592	79.999	19.996	103.354	19.392	57.158	0.477
518.000	329.577	79.998	19.994	103.358	19.389	57.334	0.508
520.000	330.599	79.998	19.996	103.351	19.393	57.019	0.503
522.000	331.521	79.997	19.994	103.349	19.394	56.950	0.475
524.000	332.516	80.000	19.994	103.346	19.399	56.591	0.490
526.000	333.541	79.999	19.996	103.336	19.404	56.202	0.471
528.000	334.551	79.995	19.994	103.334	19.413	55.533	0.489
530.000	335.586	80.000	19.995	103.315	19.423	54.818	0.514
532.000	336.567	80.000	19.994	103.308	19.434	54.010	0.507
534.000	337.598	80.000	19.993	103.304	19.447	53.041	0.537
536.000	338.562	79.999	19.995	103.283	19.461	52.037	0.491
538.000	339.597	79.998	19.994	103.271	19.478	50.806	0.520
540.000	340.609	80.001	19.992	103.270	19.501	49.146	0.506
542.000	341.638	79.999	19.994	103.269	19.522	47.601	0.498
544.000	342.611	79.997	19.997	103.241	19.543	46.073	0.508
546.000	343.637	79.992	19.998	103.230	19.566	44.392	0.508
548.000	344.691	79.997	19.995	103.228	19.594	42.347	0.523
550.000	345.692	80.000	19.996	103.215	19.618	40.539	0.525
552.000	346.745	79.999	19.995	103.203	19.640	38.952	0.550
554.000	347.742	79.999	19.994	103.195	19.667	37.020	0.490
556.000	348.808	80.001	19.995	103.184	19.690	35.311	0.506
558.000	349.837	79.998	19.998	103.167	19.715	33.476	0.533
560.000	350.867	80.001	19.994	103.156	19.740	31.671	0.494
562.000	351.905	80.001	19.994	103.153	19.766	29.780	0.507
564.000	352.959	79.998	19.996	103.154	19.787	28.237	0.503
566.000	354.014	79.998	19.994	103.152	19.808	26.702	0.529
568.000	355.071	80.000	19.995	103.138	19.828	25.256	0.531
570.000	356.062	79.998	19.994	103.140	19.847	23.912	0.485
572.000	357.108	79.998	19.996	103.140	19.863	22.691	0.512
574.000	358.127	79.999	19.996	103.136	19.881	21.392	0.519
576.000	359.182	80.000	19.995	103.131	19.898	20.210	0.530
578.000	360.225	80.000	19.995	103.116	19.912	19.144	0.504
580.000	361.228	80.000	19.995	103.119	19.928	17.966	0.524
582.000	362.233	80.000	19.996	103.115	19.944	16.805	0.485
584.000	363.283	80.001	19.996	103.113	19.954	16.118	0.524
586.000	364.250	79.998	19.995	103.113	19.963	15.440	0.493
588.000	365.282	80.000	19.996	103.115	19.973	14.708	0.515
590.000	366.313	79.998	19.995	103.113	19.981	14.166	0.530
592.000	367.359	79.998	19.997	103.109	19.986	13.766	0.512
594.000	368.400	79.997	19.995	103.106	19.995	13.096	0.532
596.000	369.428	79.998	19.996	103.092	20.000	12.781	0.525
598.000	370.396	79.996	19.996	103.050	20.006	12.318	0.493
600.000	371.421	79.999	19.996	103.085	20.013	11.802	0.483
602.000	372.426	79.998	19.997	103.147	20.021	11.230	0.501
604.000	373.426	79.999	19.996	103.094	20.026	10.831	0.489
606.000	374.417	79.998	19.996	103.091	20.029	10.619	0.477
608.000	375.414	79.998	19.996	103.091	20.035	10.184	0.502
610.000	376.396	79.999	19.995	103.089	20.037	10.064	0.521
612.000	377.409	80.001	19.995	103.096	20.043	9.625	0.505
614.000	378.424	79.999	19.995	103.089	20.044	9.573	0.514
616.000	379.429	80.001	19.996	103.081	20.048	9.272	0.500
618.000	380.408	79.999	19.995	103.091	20.050	9.100	0.491
620.000	381.386	79.997	19.995	103.081	20.052	8.977	0.502
622.000	382.437	79.998	19.994	103.076	20.054	8.838	0.506
624.000	383.420	79.997	19.995	103.087	20.060	8.411	0.501
626.000	384.402	79.998	19.995	103.085	20.062	8.222	0.501
628.000	385.399	79.998	19.996	103.089	20.064	8.075	0.509
630.000	386.368	80.001	19.994	103.096	20.064	8.090	0.476
632.000	387.372	80.000	19.995	103.088	20.066	7.938	0.484
634.000	388.400	80.001	19.995	103.075	20.069	7.719	0.502
636.000	389.397	80.000	19.994	103.080	20.065	8.000	0.492
638.000	390.408	80.000	19.995	103.081	20.070	7.665	0.496
640.000	391.421	80.000	19.995	103.019	20.072	7.520	0.507
642.000	392.406	79.999	19.994	103.124	20.071	7.568	0.500
644.000	393.479	80.002	19.995	103.113	20.075	7.296	0.529
646.000	394.483	79.998	19.995	103.079	20.075	7.281	0.492
648.000	395.520	80.000	19.995	103.080	20.076	7.185	0.517
650.000	396.502	80.000	19.993	103.080	20.077	7.119	0.491
652.000	397.507	80.001	19.995	103.079	20.073	7.403	0.515
654.000	398.560	80.000	19.995	103.084	20.077	7.110	0.517
656.000	399.580	80.002	19.994	103.080	20.078	7.071	0.480
658.000	400.600	80.002	19.995	103.073	20.078	7.058	0.543
660.000	401.607	80.002	19.995	103.077	20.079	6.966	0.522
662.000	402.601	80.004	19.994	103.072	20.082	6.810	0.495
664.000	403.626	80.002	19.995	103.071	20.078	7.063	0.484
666.000	404.642	79.999	19.997	103.078	20.083	6.729	0.514
668.000	405.633	80.000	19.995	103.075	20.082	6.779	0.473
670.000	406.676	79.999	19.997	103.071	20.083	6.713	0.493
672.000	407.668	80.000	19.995	103.075	20.083	6.711	0.515
674.000	408.701	79.999	19.995	103.077	20.083	6.683	0.532
676.000	409.720	80.001	19.996	103.075	20.085	6.531	0.497
678.000	410.759	79.998	19.995	103.070	20.087	6.422	0.532
680.000	411.737	79.999	19.996	103.071	20.083	6.702	0.518
682.000	412.755	79.999	19.994	103.073	20.085	6.569	0.529
684.000	413.743	79.999	19.996	103.074	20.088	6.315	0.479
686.000	414.765	79.999	19.993	103.073	20.086	6.479	0.522
688.000	415.747	79.997	19.995	103.075	20.087	6.397	0.491
690.000	416.719	79.998	19.996	103.077	20.087	6.422	0.517
692.000	417.754	79.998	19.996	103.079	20.084	6.611	0.490
694.000	418.775	79.998	19.989	103.052	20.083	6.673	0.480
696.000	419.814	79.996	19.997	103.022	20.085	6.593	0.489
698.000	420.821	79.999	19.996	103.126	20.086	6.499	0.516
700.000	421.823	79.996	19.996	103.074	20.087	6.389	0.503
702.000	422.858	79.998	19.995	103.076	20.083	6.707	0.510
704.000	423.854	79.998	19.995	103.076	20.082	6.778	0.490
706.000	424.895	79.998	19.995	103.076	20.086	6.511	0.502
708.000	425.862	79.997	19.995	103.077	20.083	6.670	0.499
710.000	426.896	80.000	19.994	103.077	20.089	6.261	0.520
712.000	427.917	79.999	19.993	103.077	20.089	6.243	0.525
714.000	428.904	80.000	19.995	103.074	20.091	6.145	0.503
716.000	429.906	80.000	19.993	103.075	20.090	6.193	0.534
718.000	430.933	80.000	19.993	103.066	20.091	6.137	0.517
720.000	431.923	80.000	19.996	103.010	20.092	6.029	0.480
722.000	432.971	79.998	19.991	103.113	20.091	6.157	0.539
724.000	434.007	80.001	19.995	103.077	20.095	5.859	0.535
726.000	435.026	79.998	19.997	103.072	20.094	5.882	0.521
728.000	436.038	79.998	19.997	103.064	20.092	6.043	0.505
730.000	437.050	79.999	19.995	103.068	20.096	5.766	0.529
732.000	438.070	80.000	19.995	103.069	20.093	5.987	0.501
734.000	439.094	80.002	19.992	103.071	20.098	5.647	0.497
736.000	439.998	80.001	19.998	103.072	20.095	5.868	0.472
738.000	441.005	80.003	19.993	103.062	20.094	5.874	0.494
740.000	442.021	80.003	19.996	103.068	20.093	5.999	0.495
742.000	443.022	80.002	19.994	103.071	20.098	5.632	0.522
744.000	443.986	79.998	19.998	103.066	20.096	5.729	0.497
746.000	444.968	80.000	19.994	103.054	20.098	5.584	0.479
748.000	445.953	80.002	19.994	103.072	20.099	5.570	0.516
750.000	446.914	79.995	19.998	103.067	20.102	5.309	0.483
752.000	447.844	79.997	19.995	103.072	20.101	5.387	0.493
754.000	448.864	79.998	19.991	103.077	20.100	5.477	0.476
756.000	449.864	79.998	19.999	103.081	20.101	5.429	0.495
758.000	450.881	80.000	19.997	103.077	20.099	5.530	0.512
760.000	451.863	79.993	20.001	103.077	20.099	5.578	0.505
762.000	452.940	80.000	19.995	103.076	20.099	5.534	0.531
764.000	453.994	79.997	19.995	103.074	20.104	5.197	0.556
766.000	455.073	80.002	19.998	103.074	20.098	5.632	0.543
768.000	456.146	80.001	19.989	103.076	20.098	5.612	0.528
770.000	457.193	79.999	19.995	103.077	20.100	5.469	0.507
772.000	458.262	79.999	19.995	103.076	20.101	5.395	0.533
774.000	459.391	79.997	19.997	103.077	20.103	5.253	0.571
776.000	460.448	79.998	19.995	103.077	20.103	5.263	0.563
778.000	461.572	79.998	19.995	103.075	20.104	5.144	0.556
780.000	462.616	79.997	19.997	103.075	20.107	4.972	0.562
782.000	463.730	79.997	19.995	103.073	20.103	5.220	0.559
784.000	464.808	79.998	19.996	103.073	20.106	5.046	0.554
786.000	465.939	79.998	19.995	103.071	20.105	5.078	0.588
788.000	467.010	79.998	19.996	103.072	20.108	4.895	0.540
790.000	468.125	79.998	19.996	103.071	20.110	4.720	0.545
792.000	469.226	80.000	19.995	103.070	20.108	4.877	0.571
794.000	470.339	80.000	19.995	103.072	20.108	4.913	0.547
796.000	471.426	80.001	19.996	103.069	20.112	4.609	0.529
798.000	472.542	80.000	19.995	103.060	20.111	4.675	0.524
800.000	473.673	80.000	19.994	103.069	20.114	4.482	0.578
802.000	474.793	79.999	19.996	103.061	20.114	4.470	0.583
804.000	475.901	80.000	19.994	103.069	20.115	4.378	0.561
806.000	477.008	80.001	19.995	103.072	20.116	4.319	0.579
808.000	478.072	79.999	19.994	103.072	20.111	4.692	0.536
810.000	479.180	80.000	19.995	103.066	20.116	4.333	0.547
812.000	480.244	80.001	19.996	103.066	20.116	4.315	0.537
814.000	481.369	80.001	19.995	103.066	20.117	4.217	0.556
816.000	482.458	80.001	19.996	103.063	20.114	4.415	0.581
818.000	483.527	80.001	19.995	103.058	20.121	3.940	0.540
820.000	484.520	80.002	19.993	103.063	20.112	4.613	0.489
822.000	485.574	80.001	19.994	103.064	20.114	4.469	0.607
824.000	486.805	80.001	19.994	103.055	20.120	4.048	0.591
826.000	487.854	80.000	19.995	103.057	20.125	3.679	0.578
828.000	488.800	80.000	19.996	103.060	20.122	3.849	0.483
830.000	489.910	79.999	19.994	103.054	20.123	3.759	0.682
832.000	490.658	79.999	19.994	103.045	20.122	3.871	0.734
834.000	492.061	80.000	19.993	103.049	20.127	3.494	0.976
836.000	493.262	80.000	19.994	103.058	20.121	3.959	0.615
838.000	494.111	79.999	19.995	103.052	20.125	3.681	0.849
840.000	495.137	79.999	19.994	103.052	20.126	3.550	0.466
842.000	496.208	79.999	19.996	103.055	20.128	3.412	0.556
844.000	497.240	79.998	19.996	103.052	20.125	3.633	0.555
846.000	498.235	79.996	19.996	103.049	20.126	3.575	0.462
848.000	499.265	79.998	19.997	103.048	20.128	3.464	0.502
850.000	500.303	80.000	19.994	103.043	20.129	3.340	0.516
852.000	501.335	80.000	19.995	103.059	20.128	3.458	0.510
854.000	502.391	80.001	19.995	103.049	20.128	3.422	0.513
856.000	503.437	80.000	19.996	103.062	20.124	3.695	0.553
858.000	504.449	79.999	19.994	103.046	20.129	3.384	0.532
860.000	505.437	79.998	19.997	103.056	20.128	3.404	0.520
862.000	506.490	79.998	19.996	103.048	20.133	3.081	0.524
864.000	507.507	80.000	19.996	103.053	20.131	3.245	0.509
866.000	508.515	79.998	19.995	103.047	20.129	3.379	0.477
868.000	509.567	79.998	19.997	103.045	20.129	3.382	0.509
870.000	510.596	80.001	19.996	103.040	20.127	3.500	0.503
872.000	511.628	80.000	19.997	103.047	20.127	3.494	0.565
874.000	512.613	80.000	19.997	103.048	20.127	3.472	0.521
876.000	513.710	79.999	19.997	103.036	20.128	3.458	0.522
878.000	514.752	79.999	19.995	103.036	20.126	3.558	0.525
880.000	515.785	80.000	19.996	103.048	20.130	3.321	0.519
882.000	516.805	80.002	19.995	103.050	20.131	3.213	0.533
884.000	517.847	80.000	19.995	103.040	20.131	3.195	0.527
886.000	518.855	79.998	19.995	103.043	20.131	3.219	0.508
888.000	519.925	80.001	19.996	103.039	20.130	3.287	0.539
890.000	520.968	80.000	19.994	103.041	20.130	3.269	0.523
892.000	521.980	80.000	19.995	103.036	20.130	3.293	0.517
894.000	523.071	80.001	19.994	103.037	20.131	3.213	0.528
896.000	524.089	80.002	19.995	103.038	20.134	3.031	0.546
898.000	525.127	80.000	19.995	103.038	20.132	3.133	0.498
900.000	526.126	80.002	19.994	103.039	20.134	3.005	0.514
902.000	527.195	80.001	19.994	103.042	20.130	3.259	0.519
904.000	528.198	80.000	19.995	103.047	20.128	3.430	0.489
906.000	529.243	80.000	19.995	103.042	20.128	3.456	0.510
908.000	530.290	79.999	19.995	103.042	20.128	3.399	0.529
910.000	531.361	79.999	19.996	103.041	20.131	3.213	0.540
912.000	532.345	80.002	19.996	103.044	20.131	3.219	0.500
914.000	533.377	79.999	19.994	103.043	20.129	3.325	0.509
916.000	534.438	79.999	19.996	103.041	20.130	3.279	0.557
918.000	535.458	79.997	19.996	103.038	20.133	3.041	0.532
920.000	536.459	79.998	19.995	103.034	20.132	3.149	0.505
922.000	537.466	79.997	19.999	103.036	20.132	3.129	0.488
924.000	538.533	80.000	19.995	103.033	20.135	2.950	0.462
926.000	539.555	79.997	19.995	103.037	20.134	3.002	0.548
928.000	540.592	80.001	19.993	103.034	20.135	2.888	0.519
930.000	541.615	79.998	19.997	103.030	20.136	2.866	0.510
932.000	542.655	79.996	19.997	103.033	20.135	2.886	0.508
934.000	543.712	80.000	19.995	103.032	20.135	2.902	0.525
936.000	544.687	79.998	19.996	103.034	20.136	2.834	0.516
938.000	545.651	79.999	19.997	103.033	20.133	3.057	0.485
940.000	546.716	79.999	19.996	103.035	20.135	2.956	0.511
942.000	547.712	79.996	19.999	103.036	20.138	2.718	0.488
944.000	548.768	79.996	19.995	103.034	20.137	2.760	0.511
946.000	549.776	79.996	19.999	103.034	20.138	2.686	0.513
948.000	550.791	79.996	20.000	103.035	20.140	2.531	0.520
950.000	551.814	79.996	19.997	103.038	20.138	2.710	0.500
952.000	552.826	80.001	19.995	103.034	20.136	2.822	0.502
954.000	553.855	80.001	19.995	103.034	20.137	2.780	0.528
956.000	554.897	79.999	19.995	103.034	20.136	2.858	0.536
958.000	555.922	79.998	19.993	103.035	20.134	2.984	0.510
960.000	556.950	79.998	19.995	103.035	20.135	2.934	0.504
962.000	557.939	80.001	19.995	103.036	20.138	2.732	0.464
964.000	558.965	80.000	19.995	103.034	20.136	2.846	0.517
966.000	559.952	80.000	19.997	103.036	20.136	2.868	0.476
968.000	560.960	80.000	19.995	103.033	20.135	2.892	0.504
970.000	561.963	80.000	19.997	103.034	20.135	2.920	0.510
972.000	562.950	79.999	19.996	103.033	20.137	2.776	0.505
974.000	563.969	80.000	19.995	103.031	20.137	2.748	0.500
976.000	564.973	80.003	19.994	103.031	20.141	2.509	0.519
978.000	566.014	80.001	19.997	103.033	20.139	2.643	0.508
980.000	567.011	80.001	19.996	103.032	20.135	2.892	0.507
982.000	568.004	80.002	19.994	103.031	20.136	2.880	0.506
984.000	568.988	80.000	19.993	103.032	20.141	2.491	0.466
986.000	570.034	79.999	19.995	103.032	20.137	2.808	0.492
988.000	571.078	79.999	19.995	103.034	20.136	2.824	0.516
990.000	572.113	79.999	19.995	103.022	20.141	2.507	0.479
992.000	573.108	79.999	19.996	103.029	20.142	2.385	0.499
994.000	574.151	79.996	19.993	103.033	20.140	2.577	0.506
996.000	575.207	80.000	19.995	103.032	20.141	2.491	0.522
998.000	576.229	79.998	19.997	103.033	20.139	2.609	0.523
1000.000	577.216	79.999	19.994	103.029	20.140	2.529	0.501
1002.000	578.264	80.002	19.993	103.031	20.143	2.346	0.501
1004.000	579.302	79.996	19.996	103.032	20.137	2.754	0.517
1006.000	580.331	80.000	19.996	103.036	20.141	2.477	0.513
1008.000	581.331	80.001	19.994	103.035	20.137	2.784	0.522
1010.000	582.377	80.000	19.993	103.036	20.140	2.577	0.511
1012.000	583.359	80.000	19.990	103.032	20.139	2.653	0.505
1014.000	584.345	79.996	19.995	103.029	20.136	2.824	0.499
1016.000	585.369	79.999	19.992	103.030	20.143	2.361	0.512
1018.000	586.376	79.998	19.995	103.035	20.140	2.529	0.498
1020.000	587.373	79.998	19.995	103.035	20.140	2.523	0.504
1022.000	588.371	79.999	19.996	103.034	20.141	2.519	0.472
1024.000	589.444	79.997	19.997	103.030	20.141	2.481	0.519
1025.999	590.439	79.999	19.997	103.033	20.142	2.439	0.505
1027.999	591.424	80.000	19.995	103.036	20.143	2.352	0.486
1029.999	592.473	80.000	19.996	103.024	20.146	2.144	0.513
1031.999	593.483	79.999	19.995	103.032	20.143	2.352	0.497
1033.999	594.526	80.000	19.995	103.025	20.145	2.210	0.527
1036.000	595.541	80.000	19.996	103.025	20.142	2.379	0.530
1037.999	596.537	80.001	19.994	103.022	20.138	2.671	0.477
1039.999	597.549	80.001	19.995	103.020	20.144	2.234	0.499
1041.999	598.590	79.999	19.993	103.024	20.141	2.499	0.512
1043.999	599.550	80.001	19.995	103.023	20.142	2.378	0.496
1045.999	600.558	80.000	19.995	103.028	20.142	2.396	0.510
1047.999	601.596	80.000	19.992	103.028	20.144	2.244	0.513
1049.999	602.563	80.000	19.998	103.026	20.146	2.155	0.485
1051.999	603.521	79.998	19.997	103.029	20.142	2.382	0.471
1053.999	604.539	80.005	19.996	103.027	20.145	2.160	0.502
1055.999	605.503	80.001	20.000	103.017	20.141	2.513	0.480
1058.000	606.512	80.000	19.999	103.025	20.141	2.509	0.513
1059.999	607.497	80.002	19.996	103.009	20.142	2.390	0.480
1061.999	608.496	80.002	19.993	103.016	20.144	2.246	0.513
1063.999	609.456	80.003	19.993	103.024	20.143	2.342	0.523
1065.999	610.436	79.999	19.993	103.025	20.140	2.528	0.480
1068.000	611.453	79.998	19.994	103.020	20.144	2.262	0.492
1069.999	612.417	79.999	19.992	103.016	20.143	2.304	0.495
1071.999	613.388	79.998	19.997	103.027	20.144	2.238	0.479
1074.000	614.401	79.998	19.991	103.014	20.143	2.329	0.512
1075.999	615.364	79.995	20.003	103.018	20.142	2.377	0.481
1077.999	616.395	80.002	19.995	103.019	20.141	2.459	0.480
1079.999	617.378	79.996	19.997	103.029	20.139	2.635	0.497
1081.999	618.392	80.000	19.992	103.016	20.141	2.491	0.512
1084.000	619.374	79.998	19.996	103.032	20.139	2.603	0.495
1085.999	620.388	79.998	19.995	103.032	20.141	2.484	0.509
1087.999	621.355	79.995	19.995	103.031	20.140	2.539	0.494
1089.999	622.353	79.999	19.995	103.023	20.142	2.387	0.493
1091.999	623.353	79.999	19.995	103.017	20.139	2.605	0.481
1093.999	624.312	79.999	19.994	103.026	20.138	2.719	0.485
1096.000	625.365	79.999	19.995	103.009	20.139	2.653	0.522
1097.999	626.370	79.996	19.995	103.024	20.139	2.595	0.505
1099.999	627.362	80.002	19.996	103.024	20.139	2.615	0.519
1101.999	628.377	79.997	19.998	103.033	20.143	2.368	0.531
1104.000	629.416	80.003	19.992	103.028	20.137	2.763	0.514
1105.999	630.389	79.997	19.998	103.014	20.141	2.498	0.496
1107.999	631.382	79.999	19.995	103.030	20.140	2.575	0.482
1109.999	632.383	80.004	19.993	103.027	20.138	2.733	0.481
1111.999	633.372	80.000	19.994	103.029	20.137	2.768	0.487
1113.999	634.413	80.003	19.995	103.014	20.137	2.748	0.510
1115.999	635.436	80.001	19.995	103.018	20.141	2.515	0.534
1117.999	636.429	80.004	19.993	103.016	20.138	2.675	0.502
1119.999	637.443	80.002	19.992	103.024	20.137	2.773	0.508
1121.999	638.431	80.000	19.995	103.028	20.138	2.705	0.492
1123.999	639.457	80.001	19.996	103.032	20.139	2.635	0.513
1125.999	640.440	79.999	19.992	103.027	20.139	2.645	0.514
1127.999	641.445	80.001	19.995	103.031	20.138	2.739	0.487
1129.999	642.504	79.998	19.998	103.030	20.137	2.754	0.523
1131.999	643.465	80.003	19.993	103.019	20.137	2.810	0.488
1133.999	644.463	80.001	19.994	103.035	20.134	2.966	0.488
1135.999	645.503	80.002	19.995	103.034	20.140	2.587	0.514
1137.999	646.446	80.001	19.991	103.030	20.135	2.946	0.501
1139.999	647.473	80.002	19.994	103.029	20.136	2.860	0.487
1141.999	648.501	79.999	19.997	103.028	20.134	3.024	0.509
1143.999	649.501	79.998	19.996	103.023	20.132	3.111	0.516
1145.999	650.495	79.996	19.997	103.010	20.134	2.960	0.500
1147.999	651.526	79.999	19.996	103.027	20.136	2.872	0.513
1149.999	652.542	79.999	19.995	103.031	20.135	2.954	0.511
1151.999	653.555	79.999	19.995	103.033	20.130	3.248	0.458
1153.999	654.569	79.997	19.995	103.033	20.138	2.697	0.489
1156.000	655.588	80.000	19.994	103.023	20.137	2.769	0.519
1157.999	656.611	79.998	19.996	103.026	20.135	2.920	0.507
1160.000	657.613	79.998	19.994	103.021	20.137	2.749	0.515
1161.999	658.615	80.000	19.994	103.010	20.137	2.768	0.521
1164.001	659.641	80.000	19.995	103.000	20.138	2.677	0.491
1165.999	660.627	79.999	19.996	103.010	20.141	2.521	0.522
1167.999	661.637	80.000	19.994	103.027	20.137	2.759	0.534
1169.999	662.665	80.000	19.994	103.010	20.137	2.781	0.488
1171.999	663.631	79.999	19.995	103.031	20.136	2.865	0.479
1174.000	664.696	79.998	19.997	103.023	20.135	2.922	0.498
1175.999	665.699	79.999	19.996	103.023	20.136	2.823	0.528
1177.999	666.745	79.998	19.995	103.024	20.138	2.695	0.520
1179.999	667.748	79.999	19.994	103.021	20.140	2.587	0.512
1181.999	668.734	79.997	19.994	103.004	20.134	3.020	0.470
1183.999	669.741	79.999	19.994	103.011	20.133	3.052	0.513
1185.999	670.765	80.000	19.993	103.014	20.133	3.100	0.492
1187.999	671.749	80.000	19.992	103.014	20.133	3.036	0.505
1189.999	672.759	80.002	19.995	103.028	20.135	2.891	0.537
1191.999	673.789	80.002	19.994	103.023	20.137	2.769	0.508
1193.999	674.839	80.000	19.996	103.026	20.137	2.765	0.525
1195.999	675.641	80.000	19.995	103.017	20.137	2.785	0.437
1197.999	676.816	80.000	19.996	103.031	20.136	2.881	0.514
1199.999	677.810	80.000	19.995	103.024	20.136	2.817	0.476
1201.999	678.792	80.000	19.995	103.005	20.139	2.657	0.490
1203.999	679.782	79.999	19.994	103.014	20.137	2.795	0.522
1206.000	680.793	79.999	19.997	103.016	20.135	2.907	0.493
1207.999	681.801	79.998	19.995	103.009	20.141	2.510	0.509
1209.999	682.774	80.001	19.996	103.018	20.140	2.533	0.492
1211.999	683.767	80.000	19.996	103.008	20.139	2.639	0.491
1213.999	684.751	79.999	19.995	102.997	20.142	2.422	0.470
1215.999	685.756	80.001	19.994	102.998	20.139	2.622	0.523
1217.999	686.702	79.999	19.997	103.003	20.138	2.721	0.477
1219.999	687.716	80.000	19.996	103.014	20.138	2.666	0.498
1221.999	688.730	80.001	19.995	103.021	20.136	2.849	0.505
1223.999	689.735	79.998	19.995	103.006	20.138	2.705	0.494
1225.999	690.711	79.999	19.995	102.999	20.139	2.616	0.501
1227.999	691.707	79.999	19.997	102.996	20.137	2.759	0.514
1229.999	692.743	79.999	19.996	102.997	20.142	2.400	0.528
1231.999	693.759	79.999	19.995	102.995	20.139	2.650	0.486
1233.999	694.736	79.998	19.997	102.996	20.138	2.671	0.512
1235.999	695.785	79.998	19.998	102.999	20.140	2.533	0.511
1237.999	696.768	79.999	19.996	102.998	20.141	2.454	0.502
1239.999	697.810	79.999	19.996	102.996	20.142	2.420	0.525
1241.999	698.819	80.001	19.992	102.998	20.144	2.284	0.532
1244.000	699.854	80.001	19.995	102.999	20.139	2.615	0.532
1245.999	700.860	80.000	19.996	103.019	20.140	2.593	0.523
1247.999	701.894	80.000	19.994	103.001	20.137	2.777	0.478
1249.999	702.998	79.999	19.996	103.012	20.137	2.751	0.543
1251.999	704.016	79.999	19.995	102.994	20.137	2.751	0.525
1253.999	705.062	79.999	19.996	103.017	20.139	2.623	0.511
1255.999	706.134	80.001	19.994	103.006	20.139	2.605	0.535
1257.999	707.143	80.001	19.996	103.007	20.140	2.565	0.510
1259.999	708.214	79.999	19.997	103.010	20.142	2.390	0.512
1261.999	709.270	79.999	19.997	103.002	20.140	2.572	0.535
1263.999	710.319	79.997	19.996	103.014	20.142	2.420	0.495
1265.999	711.416	79.997	19.995	103.023	20.141	2.462	0.529
1267.999	712.482	80.000	19.994	103.024	20.143	2.346	0.544
1269.999	713.497	79.999	19.993	103.001	20.140	2.530	0.511
1272.000	714.535	79.998	20.000	103.000	20.141	2.500	0.538
1273.999	715.607	80.000	19.996	103.007	20.144	2.296	0.548
1275.999	716.599	79.999	19.995	103.020	20.144	2.244	0.527
1277.999	717.674	80.001	19.993	103.002	20.141	2.460	0.504
1279.999	718.669	79.998	19.991	103.004	20.142	2.400	0.511
1281.999	719.619	79.999	19.995	103.010	20.140	2.537	0.502
1283.999	720.647	79.997	19.988	103.011	20.143	2.360	0.515
1285.999	721.614	80.000	19.991	103.014	20.145	2.193	0.507
1287.999	722.606	80.000	19.994	103.000	20.143	2.354	0.495
1289.999	723.564	80.003	19.994	103.007	20.142	2.408	0.455
1291.999	724.589	80.000	19.994	103.010	20.140	2.526	0.495
1294.000	725.560	80.003	19.996	103.023	20.142	2.418	0.526
1295.999	726.532	80.001	19.994	103.001	20.143	2.354	0.477
1297.999	727.515	79.999	19.998	102.994	20.143	2.348	0.477
1299.999	728.525	80.004	19.995	102.998	20.146	2.155	0.496
1301.999	729.512	80.001	19.995	103.002	20.149	1.919	0.487
1303.999	730.525	80.000	19.992	102.998	20.141	2.454	0.495
1305.999	731.500	79.999	19.994	102.995	20.141	2.476	0.505
1307.999	732.486	79.998	19.997	102.991	20.140	2.542	0.488
1309.999	733.507	80.001	19.995	102.993	20.140	2.550	0.509
1311.999	734.442	79.999	19.995	102.999	20.141	2.520	0.466
1313.999	735.429	80.000	19.997	103.000	20.140	2.530	0.466
1316.001	736.438	80.003	19.993	102.996	20.138	2.697	0.501
1317.999	737.501	80.003	19.995	102.999	20.141	2.482	0.511
1319.999	738.412	79.994	19.999	102.997	20.141	2.460	0.499
1321.999	739.481	79.995	19.997	102.994	20.142	2.436	0.521
1323.999	740.484	80.000	19.997	102.997	20.143	2.352	0.502
1325.999	741.526	79.998	19.998	103.003	20.141	2.482	0.513
1327.999	742.528	79.999	19.996	103.012	20.145	2.168	0.511
1329.999	743.483	79.998	19.997	103.004	20.144	2.240	0.481