File: 01_Data/Hemp_Sheet/STA/N2/10K_min/Hemp_Sheet_STA_N2_10KData_22264_R1.csv
##Temp./Â°C,Time/min,DSC(subtr.2)/(mW/mg),Mass loss(subtr.2)/mg,Sensit./(uV/mW)
49.771,10.00917,0.01202057,-0.02237,1.0605
50.471,10.7719,0.03997751,-0.02192472,1.06036
51.171,10.97531,0.0661918,-0.02346062,1.06021
51.871,11.12612,0.08418994,-0.02206548,1.06007
52.571,11.25517,0.10151,-0.0223732,1.05992
53.271,11.37004,0.11361,-0.0224642,1.05977
53.971,11.47583,0.12638,-0.02261209,1.05963
54.671,11.57545,0.14022,-0.02382836,1.05948
55.371,11.67022,0.14824,-0.02245467,1.05933
56.071,11.76167,0.15484,-0.02299771,1.05918
56.771,11.85034,0.16614,-0.02374353,1.05902
57.471,11.93572,0.17481,-0.02544242,1.05887
58.171,12.02013,0.17906,-0.02506539,1.05872
58.871,12.10272,0.18557,-0.02411942,1.05856
59.571,12.1844,0.18883,-0.0252272,1.05841
60.271,12.2645,0.19709,-0.02453713,1.05825
60.971,12.34421,0.20189,-0.02537913,1.05809
61.671,12.42296,0.20393,-0.02502093,1.05793
62.371,12.5009,0.20866,-0.02471594,1.05777
63.071,12.5783,0.21252,-0.0253154,1.05761
63.771,12.65541,0.21348,-0.0242929,1.05745
64.471,12.73212,0.21827,-0.02468711,1.05729
65.171,12.80837,0.22048,-0.02531686,1.05713
65.871,12.88451,0.22508,-0.02555261,1.05696
66.571,12.9604,0.22865,-0.02533916,1.0568
67.271,13.03627,0.2299,-0.02665247,1.05663
67.971,13.1114,0.23063,-0.02666083,1.05647
68.671,13.1864,0.23535,-0.0272683,1.0563
69.371,13.2611,0.23651,-0.02789531,1.05613
70.071,13.3352,0.24044,-0.0278652,1.05596
70.771,13.40988,0.24407,-0.0291812,1.05579
71.471,13.4833,0.24467,-0.02927648,1.05562
72.171,13.5574,0.24853,-0.02918282,1.05545
72.871,13.6312,0.25022,-0.02800926,1.05527
73.571,13.70587,0.25587,-0.0285178,1.0551
74.271,13.7797,0.2556,-0.02817345,1.05493
74.971,13.853,0.25773,-0.0282101,1.05475
75.671,13.926,0.26215,-0.02913471,1.05457
76.371,13.9988,0.26144,-0.0291698,1.0544
77.071,14.07185,0.26505,-0.03049336,1.05422
77.771,14.14485,0.26703,-0.03049139,1.05404
78.471,14.21773,0.26836,-0.031105,1.05386
79.171,14.29036,0.27241,-0.03181002,1.05368
79.871,14.36254,0.2742,-0.03180869,1.0535
80.571,14.43454,0.27716,-0.03044113,1.05331
81.271,14.5063,0.27667,-0.03181105,1.05313
81.971,14.57766,0.27956,-0.03186495,1.05294
82.671,14.64906,0.28199,-0.03181,1.05276
83.371,14.72052,0.28456,-0.03186042,1.05257
84.071,14.79239,0.28647,-0.03391359,1.05239
84.771,14.86365,0.28542,-0.03313062,1.0522
85.471,14.9346,0.28851,-0.03346199,1.05201
86.171,15.00557,0.28846,-0.03480766,1.05182
86.871,15.0761,0.2879,-0.03479539,1.05163
87.571,15.1463,0.28782,-0.03610326,1.05144
88.271,15.21669,0.28909,-0.03741174,1.05124
88.971,15.2874,0.28915,-0.03708092,1.05105
89.671,15.35811,0.2916,-0.03713836,1.05086
90.371,15.4283,0.29159,-0.03677289,1.05066
91.071,15.4985,0.29068,-0.03706984,1.05047
91.771,15.56834,0.29056,-0.03833624,1.05027
92.471,15.6382,0.29028,-0.03839001,1.05007
93.171,15.70745,0.29046,-0.03839042,1.04987
93.871,15.7771,0.29064,-0.03830231,1.04967
94.571,15.8464,0.29026,-0.0388224,1.04947
95.271,15.9158,0.28948,-0.03970996,1.04927
95.971,15.9852,0.28897,-0.03967425,1.04907
96.671,16.0546,0.29045,-0.03976763,1.04887
97.371,16.12435,0.28757,-0.03973229,1.04866
98.071,16.19363,0.28758,-0.03970087,1.04846
98.771,16.26303,0.28825,-0.04100585,1.04825
99.471,16.33222,0.28603,-0.0410043,1.04805
100.171,16.40107,0.28421,-0.04100997,1.04784
100.871,16.46989,0.28819,-0.04105384,1.04763
101.571,16.5387,0.28661,-0.04134968,1.04742
102.271,16.60761,0.28244,-0.04135,1.04721
102.971,16.67632,0.28347,-0.04135338,1.047
103.671,16.74478,0.28104,-0.0423127,1.04679
104.371,16.81335,0.28316,-0.04098478,1.04658
105.071,16.88175,0.28073,-0.04101636,1.04637
105.771,16.95,0.28089,-0.04233021,1.04615
106.471,17.018,0.27929,-0.0423303,1.04594
107.171,17.08671,0.28149,-0.04101615,1.04572
107.871,17.15544,0.28002,-0.04235202,1.0455
108.571,17.22449,0.28029,-0.04104378,1.04529
109.271,17.2928,0.2769,-0.04233986,1.04507
109.971,17.36117,0.27725,-0.04234733,1.04485
110.671,17.42936,0.27734,-0.04299004,1.04463
111.371,17.49752,0.27523,-0.04298993,1.04441
112.071,17.56576,0.27619,-0.04228112,1.04419
112.771,17.63407,0.27538,-0.04317693,1.04396
113.471,17.70223,0.27304,-0.04274916,1.04374
114.171,17.77029,0.27456,-0.04091269,1.04352
114.871,17.83846,0.27314,-0.04087323,1.04329
115.571,17.90662,0.27625,-0.04355197,1.04306
116.271,17.97488,0.27537,-0.04355,1.04284
116.971,18.04295,0.27536,-0.04353953,1.04261
117.671,18.11123,0.27403,-0.0427579,1.04238
118.371,18.17964,0.2724,-0.04354001,1.04215
119.071,18.24793,0.27319,-0.04354,1.04192
119.771,18.31612,0.27393,-0.04362812,1.04169
120.471,18.38425,0.27249,-0.04184096,1.04146
121.171,18.45224,0.27403,-0.04322065,1.04123
121.871,18.5199,0.27245,-0.04441994,1.04099
122.571,18.58756,0.27469,-0.0438937,1.04076
123.271,18.65539,0.27249,-0.04310005,1.04052
123.971,18.7238,0.27294,-0.0431,1.04029
124.671,18.79199,0.27406,-0.04307385,1.04005
125.371,18.86025,0.27272,-0.04244382,1.03981
126.071,18.92817,0.27352,-0.04174178,1.03957
126.771,18.9962,0.27511,-0.04169932,1.03933
127.471,19.06409,0.27511,-0.04278064,1.03909
128.171,19.1321,0.27369,-0.04079995,1.03885
128.871,19.2,0.27582,-0.04078601,1.03861
129.571,19.26782,0.27634,-0.04078594,1.03837
130.271,19.33494,0.27405,-0.04081009,1.03813
130.971,19.40294,0.27452,-0.04164768,1.03788
131.671,19.47071,0.277,-0.04313589,1.03764
132.371,19.53929,0.27702,-0.04178949,1.03739
133.071,19.60709,0.27745,-0.04179,1.03714
133.771,19.67494,0.27511,-0.04179,1.0369
134.471,19.74236,0.27682,-0.04177914,1.03665
135.171,19.80976,0.27844,-0.04079289,1.0364
135.871,19.87735,0.2795,-0.04146012,1.03615
136.571,19.94497,0.27977,-0.04165716,1.0359
137.271,20.01274,0.28143,-0.04038387,1.03565
137.971,20.0804,0.28113,-0.04180411,1.03539
138.671,20.1478,0.28015,-0.04047004,1.03514
139.371,20.21523,0.28319,-0.04037111,1.03489
140.071,20.28255,0.28275,-0.03916957,1.03463
140.771,20.34981,0.28245,-0.04085351,1.03437
141.471,20.41711,0.28447,-0.04146004,1.03412
142.171,20.48469,0.2866,-0.04041584,1.03386
142.871,20.55228,0.28594,-0.04047001,1.0336
143.571,20.61993,0.28701,-0.04047,1.03334
144.271,20.68731,0.28584,-0.04047,1.03308
144.971,20.75446,0.28685,-0.04049457,1.03282
145.671,20.82147,0.28939,-0.04169268,1.03256
146.371,20.88857,0.29129,-0.04047997,1.0323
147.071,20.9562,0.29314,-0.04048,1.03204
147.771,21.02401,0.29066,-0.04048653,1.03177
148.471,21.0916,0.29159,-0.03915953,1.03151
149.171,21.1587,0.29446,-0.03913594,1.03124
149.871,21.2257,0.29109,-0.04047055,1.03098
150.571,21.29295,0.29525,-0.03914304,1.03071
151.271,21.36038,0.29568,-0.03915,1.03044
151.971,21.42764,0.29757,-0.0391453,1.03017
152.671,21.4947,0.2972,-0.04047056,1.0299
153.371,21.56161,0.29966,-0.03979782,1.02963
154.071,21.62858,0.29997,-0.03982011,1.02936
154.771,21.69565,0.29726,-0.0391733,1.02909
155.471,21.7628,0.2997,-0.03915656,1.02882
156.171,21.83006,0.30065,-0.03916782,1.02854
156.871,21.89745,0.30117,-0.03915864,1.02827
157.571,21.9644,0.30091,-0.03785158,1.028
158.271,22.03141,0.30511,-0.03868494,1.02772
158.971,22.09832,0.30271,-0.04047106,1.02744
159.671,22.16572,0.30434,-0.03982984,1.02717
160.371,22.23276,0.30836,-0.03916001,1.02689
161.071,22.29991,0.30734,-0.03916,1.02661
161.771,22.36678,0.3087,-0.03899107,1.02633
162.471,22.43347,0.30896,-0.03783431,1.02605
163.171,22.49993,0.31045,-0.0391519,1.02577
163.871,22.5664,0.30976,-0.04014985,1.02549
164.571,22.63363,0.31477,-0.03861397,1.0252
165.271,22.7014,0.31232,-0.03872,1.02492
165.971,22.7691,0.3135,-0.03839769,1.02463
166.671,22.836,0.31498,-0.0379909,1.02435
167.371,22.9029,0.31433,-0.03878157,1.02406
168.071,22.96971,0.31756,-0.03739934,1.02378
168.771,23.03676,0.31511,-0.03887697,1.02349
169.471,23.10393,0.31862,-0.03900187,1.0232
170.171,23.171,0.3185,-0.0386215,1.02291
170.871,23.2383,0.31831,-0.03806001,1.02262
171.571,23.30525,0.31892,-0.03806001,1.02233
172.271,23.37236,0.31875,-0.03799761,1.02204
172.971,23.43913,0.32306,-0.03938,1.02175
173.671,23.5062,0.32072,-0.03938,1.02146
174.371,23.57313,0.32319,-0.03938,1.02116
175.071,23.64015,0.32318,-0.03938127,1.02087
175.771,23.70735,0.32242,-0.03806066,1.02057
176.471,23.77427,0.32541,-0.03812909,1.02028
177.171,23.84144,0.32635,-0.04046124,1.01998
177.871,23.90837,0.32685,-0.04037,1.01968
178.571,23.97535,0.32766,-0.04037,1.01938
179.271,24.04211,0.32747,-0.04036889,1.01909
179.971,24.10909,0.32648,-0.03904992,1.01879
180.671,24.176,0.32882,-0.03905,1.01849
181.371,24.2431,0.328,-0.03905124,1.01818
182.071,24.3103,0.33043,-0.04035898,1.01788
182.771,24.37729,0.33093,-0.04035998,1.01758
183.471,24.44445,0.33154,-0.04071117,1.01728
184.171,24.5113,0.33179,-0.04101997,1.01697
184.871,24.57805,0.3333,-0.04014113,1.01667
185.571,24.64419,0.3347,-0.03971001,1.01636
186.271,24.71086,0.33405,-0.03971,1.01605
186.971,24.7775,0.3368,-0.03970995,1.01575
187.671,24.8446,0.33686,-0.0386215,1.01544
188.371,24.91129,0.3378,-0.03839,1.01513
189.071,24.97803,0.33789,-0.03869181,1.01482
189.771,25.04459,0.33877,-0.0389023,1.01451
190.471,25.11129,0.34132,-0.03905001,1.0142
191.171,25.1776,0.34055,-0.03905071,1.01389
191.871,25.2443,0.34042,-0.04034776,1.01358
192.571,25.31138,0.34068,-0.04036027,1.01326
193.271,25.3787,0.34127,-0.03882018,1.01295
193.971,25.44562,0.34342,-0.03983814,1.01263
194.671,25.51247,0.34565,-0.04014466,1.01232
195.371,25.57913,0.34546,-0.04080001,1.012
196.071,25.64585,0.34811,-0.04126215,1.01169
196.771,25.71238,0.34963,-0.04015313,1.01137
197.471,25.77889,0.34578,-0.04145973,1.01105
198.171,25.84553,0.34962,-0.04014133,1.01073
198.871,25.91205,0.34883,-0.04013879,1.01041
199.571,25.97863,0.34885,-0.04112234,1.01009
200.271,26.04486,0.34929,-0.04239722,1.00977
200.971,26.11157,0.34913,-0.04278002,1.00945
201.671,26.1786,0.35265,-0.04276573,1.00912
202.371,26.2457,0.35179,-0.04409066,1.0088
203.071,26.3126,0.34996,-0.04208431,1.00848
203.771,26.3791,0.35176,-0.0427799,1.00815
204.471,26.4459,0.35131,-0.04261444,1.00783
205.171,26.5126,0.35136,-0.04277002,1.0075
205.871,26.57945,0.35268,-0.04276999,1.00717
206.571,26.64648,0.35332,-0.04140836,1.00685
207.271,26.71327,0.3537,-0.04213388,1.00652
207.971,26.7801,0.35326,-0.04342994,1.00619
208.671,26.8466,0.35348,-0.04342987,1.00586
209.371,26.91338,0.3532,-0.04214534,1.00553
210.071,26.9801,0.35383,-0.04212002,1.0052
210.771,27.04705,0.35558,-0.04348065,1.00486
211.471,27.11383,0.35487,-0.04343999,1.00453
212.171,27.1806,0.35524,-0.04343993,1.0042
212.871,27.2472,0.35628,-0.04467046,1.00386
213.571,27.314,0.35729,-0.04475002,1.00353
214.271,27.3803,0.35882,-0.04475,1.00319
214.971,27.447,0.35863,-0.04474954,1.00286
215.671,27.51373,0.35866,-0.04571212,1.00252
216.371,27.58073,0.36051,-0.04574,1.00218
217.071,27.64767,0.36082,-0.04574,1.00184
217.771,27.7143,0.36072,-0.04574,1.0015
218.471,27.7809,0.36276,-0.04574,1.00116
219.171,27.84763,0.36587,-0.04574,1.00082
219.871,27.9142,0.36588,-0.04574064,1.00048
220.571,27.98095,0.36503,-0.0460719,1.00014
221.271,28.0477,0.366,-0.04606997,0.9998
221.971,28.1144,0.36726,-0.04747719,0.99945
222.671,28.18093,0.36774,-0.04873878,0.99911
223.371,28.24752,0.36885,-0.04870011,0.99876
224.071,28.3143,0.36858,-0.04978773,0.99842
224.771,28.381,0.37025,-0.04968077,0.99807
225.471,28.4476,0.37002,-0.04836985,0.99773
226.171,28.51404,0.37019,-0.04836999,0.99738
226.871,28.5808,0.37111,-0.0483906,0.99703
227.571,28.64752,0.36948,-0.0493601,0.99668
228.271,28.71435,0.37058,-0.04936,0.99633
228.971,28.781,0.3712,-0.04935993,0.99598
229.671,28.8478,0.37199,-0.04969867,0.99563
230.371,28.9146,0.37413,-0.05112025,0.99528
231.071,28.98146,0.37458,-0.05198992,0.99493
231.771,29.0481,0.37536,-0.05197655,0.99457
232.471,29.11464,0.37667,-0.0519371,0.99422
233.171,29.18133,0.37365,-0.05198979,0.99387
233.871,29.248,0.37512,-0.05330457,0.99351
234.571,29.31492,0.37395,-0.05366382,0.99315
235.271,29.38167,0.37581,-0.05429998,0.9928
235.971,29.4485,0.37767,-0.05429997,0.99244
236.671,29.51548,0.37892,-0.05315725,0.99208
237.371,29.58209,0.37757,-0.05298105,0.99172
238.071,29.64875,0.3768,-0.05430091,0.99137
238.771,29.71525,0.37755,-0.05560892,0.99101
239.471,29.7823,0.37751,-0.05690343,0.99064
240.171,29.84933,0.38054,-0.05657661,0.99028
240.871,29.9162,0.38168,-0.05728134,0.98992
241.571,29.98289,0.38197,-0.0572498,0.98956
242.271,30.04944,0.38175,-0.05857808,0.9892
242.971,30.1161,0.38169,-0.05854211,0.98883
243.671,30.1828,0.38116,-0.05828236,0.98847
244.371,30.24956,0.38446,-0.05926418,0.9881
245.071,30.3162,0.38237,-0.06036113,0.98774
245.771,30.383,0.38509,-0.06152986,0.98737
246.471,30.4497,0.3853,-0.06154143,0.987
247.171,30.51633,0.38877,-0.05979072,0.98663
247.871,30.58284,0.38537,-0.06271431,0.98627
248.571,30.6493,0.38771,-0.06472624,0.9859
249.271,30.71609,0.38895,-0.06537995,0.98553
249.971,30.78299,0.38796,-0.06538526,0.98516
250.671,30.85,0.3897,-0.06405979,0.98479
251.371,30.9169,0.39267,-0.06405955,0.98441
252.071,30.98345,0.39037,-0.06537629,0.98404
252.771,31.05035,0.39136,-0.0666937,0.98367
253.471,31.1171,0.39345,-0.06798821,0.98329
254.171,31.18412,0.39466,-0.06791055,0.98292
254.871,31.2508,0.39648,-0.07062613,0.98254
255.571,31.31755,0.39696,-0.07196116,0.98217
256.271,31.38415,0.39985,-0.07196096,0.98179
256.971,31.4511,0.39961,-0.07325926,0.98142
257.671,31.51796,0.40096,-0.07327004,0.98104
258.371,31.5848,0.40071,-0.07433503,0.98066
259.071,31.6514,0.40133,-0.07491998,0.98028
259.771,31.7182,0.40154,-0.07493289,0.9799
260.471,31.7851,0.40342,-0.07623989,0.97952
261.171,31.8522,0.40344,-0.07623548,0.97914
261.871,31.91909,0.40358,-0.07754983,0.97876
262.571,31.986,0.4065,-0.07980313,0.97838
263.271,32.05257,0.40394,-0.0811632,0.97799
263.971,32.11912,0.40798,-0.07984853,0.97761
264.671,32.18578,0.40808,-0.08474315,0.97723
265.371,32.25251,0.40835,-0.08630637,0.97684
266.071,32.3195,0.40885,-0.08752419,0.97646
266.771,32.3863,0.40909,-0.08870041,0.97607
267.471,32.45326,0.41204,-0.08884346,0.97568
268.171,32.51963,0.4098,-0.09016164,0.9753
268.871,32.58678,0.4104,-0.09015997,0.97491
269.571,32.65377,0.41316,-0.09057666,0.97452
270.271,32.72119,0.41007,-0.09276842,0.97413
270.971,32.7881,0.41353,-0.09541944,0.97374
271.671,32.8549,0.41425,-0.09542625,0.97335
272.371,32.9212,0.41505,-0.09679908,0.97296
273.071,32.98799,0.41383,-0.09706972,0.97257
273.771,33.05487,0.4171,-0.09830244,0.97218
274.471,33.12186,0.41734,-0.10123,0.97178
275.171,33.18869,0.41714,-0.10234,0.97139
275.871,33.25553,0.41857,-0.10229,0.971
276.571,33.3223,0.41902,-0.10366,0.9706
277.271,33.3892,0.41867,-0.10366,0.97021
277.971,33.4561,0.42282,-0.10684,0.96981
278.671,33.52295,0.42409,-0.11002,0.96941
279.371,33.58967,0.42212,-0.111,0.96902
280.071,33.6564,0.42318,-0.11304,0.96862
280.771,33.72314,0.42535,-0.1173,0.96822
281.471,33.79,0.42714,-0.11871,0.96782
282.171,33.8568,0.42791,-0.12133,0.96742
282.871,33.92385,0.4275,-0.12405,0.96702
283.571,33.9908,0.42711,-0.1234,0.96662
284.271,34.05723,0.42767,-0.1234,0.96622
284.971,34.12392,0.42659,-0.12642,0.96582
285.671,34.19084,0.43025,-0.12899,0.96541
286.371,34.25821,0.43254,-0.1318,0.96501
287.071,34.32527,0.43117,-0.13549,0.96461
287.771,34.39229,0.4328,-0.13678,0.9642
288.471,34.45941,0.43105,-0.13854,0.9638
289.171,34.5265,0.43496,-0.14053,0.96339
289.871,34.59312,0.43417,-0.14246,0.96298
290.571,34.66013,0.43383,-0.14517,0.96258
291.271,34.7271,0.4361,-0.1478,0.96217
291.971,34.7946,0.43739,-0.14967,0.96176
292.671,34.86156,0.43867,-0.15287,0.96135
293.371,34.9287,0.43494,-0.15554,0.96094
294.071,34.99595,0.44068,-0.15885,0.96053
294.771,35.0633,0.44215,-0.16226,0.96012
295.471,35.1306,0.44385,-0.16421,0.95971
296.171,35.19773,0.44198,-0.16705,0.9593
296.871,35.2647,0.44367,-0.16998,0.95889
297.571,35.33137,0.44721,-0.17196,0.95848
298.271,35.39803,0.4499,-0.17615,0.95806
298.971,35.46482,0.45071,-0.17966,0.95765
299.671,35.5321,0.45159,-0.18152,0.95723
300.371,35.59879,0.45203,-0.18504,0.95682
301.071,35.66599,0.45438,-0.18903,0.9564
301.771,35.73303,0.45681,-0.19169,0.95599
302.471,35.8009,0.46064,-0.19496,0.95557
303.171,35.8682,0.46081,-0.19886,0.95515
303.871,35.93528,0.46311,-0.20317,0.95473
304.571,36.00223,0.46722,-0.2069,0.95432
305.271,36.0693,0.46874,-0.21181,0.9539
305.971,36.13698,0.47182,-0.21545,0.95348
306.671,36.20474,0.47192,-0.22015,0.95306
307.371,36.2725,0.47685,-0.22352,0.95263
308.071,36.33961,0.4796,-0.22861,0.95221
308.771,36.4067,0.48313,-0.23347,0.95179
309.471,36.47364,0.48386,-0.23879,0.95137
310.171,36.54067,0.48759,-0.24387,0.95095
310.871,36.6079,0.4906,-0.24741,0.95052
311.571,36.67524,0.4926,-0.2538,0.9501
312.271,36.7425,0.49799,-0.26024,0.94967
312.971,36.80982,0.50148,-0.26561,0.94925
313.671,36.877,0.50719,-0.27184,0.94882
314.371,36.94416,0.5099,-0.27796,0.94839
315.071,37.01124,0.51372,-0.28276,0.94797
315.771,37.07842,0.51952,-0.28851,0.94754
316.471,37.1458,0.52113,-0.29662,0.94711
317.171,37.21293,0.52536,-0.30205,0.94668
317.871,37.28028,0.53275,-0.30873,0.94625
318.571,37.34762,0.5372,-0.31662,0.94582
319.271,37.41503,0.5438,-0.32334,0.94539
319.971,37.48222,0.54754,-0.33104,0.94496
320.671,37.54936,0.55211,-0.33763,0.94453
321.371,37.61646,0.55801,-0.34621,0.9441
322.071,37.6839,0.56419,-0.3553,0.94366
322.771,37.75118,0.56968,-0.36518,0.94323
323.471,37.81823,0.57475,-0.37025,0.9428
324.171,37.88544,0.58346,-0.37941,0.94236
324.871,37.95265,0.5889,-0.39067,0.94193
325.571,38.0203,0.59864,-0.40066,0.94149
326.271,38.08768,0.60576,-0.40952,0.94106
326.971,38.1552,0.61136,-0.42008,0.94062
327.671,38.22252,0.62047,-0.42919,0.94018
328.371,38.29011,0.62855,-0.43933,0.93974
329.071,38.35751,0.63912,-0.45055,0.93931
329.771,38.42487,0.64725,-0.46294,0.93887
330.471,38.492,0.65513,-0.47433,0.93843
331.171,38.5593,0.66513,-0.48747,0.93799
331.871,38.62686,0.67575,-0.50012,0.93755
332.571,38.6942,0.68498,-0.51293,0.93711
333.271,38.76192,0.69421,-0.52415,0.93667
333.971,38.82887,0.70719,-0.53895,0.93622
334.671,38.89669,0.71761,-0.55313,0.93578
335.371,38.96416,0.73162,-0.56714,0.93534
336.071,39.03201,0.74456,-0.5836,0.93489
336.771,39.09962,0.75656,-0.60053,0.93445
337.471,39.1674,0.77133,-0.61635,0.93401
338.171,39.23522,0.78294,-0.63327,0.93356
338.871,39.30316,0.79779,-0.65116,0.93312
339.571,39.37099,0.81493,-0.66917,0.93267
340.271,39.4387,0.82896,-0.68815,0.93222
340.971,39.50663,0.84829,-0.70727,0.93178
341.671,39.57451,0.86683,-0.72566,0.93133
342.371,39.64273,0.88331,-0.74635,0.93088
343.071,39.71069,0.90269,-0.76797,0.93043
343.771,39.77863,0.92281,-0.78946,0.92998
344.471,39.84642,0.94303,-0.81232,0.92953
345.171,39.9142,0.96148,-0.83611,0.92908
345.871,39.98229,0.98698,-0.85868,0.92863
346.571,40.0503,1.01205,-0.88469,0.92818
347.271,40.1183,1.03612,-0.91148,0.92773
347.971,40.18628,1.06244,-0.93882,0.92727
348.671,40.25414,1.08573,-0.96487,0.92682
349.371,40.3221,1.11773,-0.9936,0.92637
350.071,40.3901,1.14228,-1.02363,0.92591
350.771,40.4582,1.17621,-1.05558,0.92546
351.471,40.52639,1.20538,-1.08999,0.925
352.171,40.59437,1.2363,-1.12356,0.92455
352.871,40.6625,1.27171,-1.15593,0.92409
353.571,40.73042,1.30627,-1.19252,0.92364
354.271,40.7982,1.33835,-1.23086,0.92318
354.971,40.86608,1.37353,-1.2682,0.92272
355.671,40.93408,1.40991,-1.30844,0.92226
356.371,41.00264,1.44755,-1.34903,0.92181
357.071,41.0712,1.48441,-1.38946,0.92135
357.771,41.13953,1.52358,-1.43219,0.92089
358.471,41.20791,1.56177,-1.47852,0.92043
359.171,41.27616,1.59568,-1.5265,0.91997
359.871,41.3444,1.63691,-1.5733,0.91951
360.571,41.4124,1.67178,-1.62278,0.91904
361.271,41.48055,1.70602,-1.67334,0.91858
361.971,41.54895,1.73946,-1.72145,0.91812
362.671,41.61745,1.77266,-1.77428,0.91766
363.371,41.68572,1.80327,-1.83013,0.91719
364.071,41.75328,1.82958,-1.88348,0.91673
364.771,41.82123,1.8539,-1.93788,0.91626
365.471,41.88939,1.8744,-1.99488,0.9158
366.171,41.95827,1.89163,-2.0533,0.91533
366.871,42.0267,1.90605,-2.10886,0.91487
367.571,42.09492,1.91384,-2.16831,0.9144
368.271,42.16315,1.91666,-2.22668,0.91393
368.971,42.2316,1.9126,-2.2831,0.91347
369.671,42.29977,1.9058,-2.33988,0.913
370.371,42.36783,1.88881,-2.39848,0.91253
371.071,42.43561,1.86828,-2.45593,0.91206
371.771,42.50354,1.83933,-2.50972,0.91159
372.471,42.57143,1.8047,-2.56671,0.91112
373.171,42.63932,1.75951,-2.62041,0.91065
373.871,42.7072,1.70869,-2.66995,0.91018
374.571,42.77467,1.64917,-2.71911,0.90971
375.271,42.84213,1.57976,-2.76769,0.90924
375.971,42.9095,1.50766,-2.81062,0.90877
376.671,42.97712,1.42952,-2.85299,0.9083
377.371,43.04455,1.34253,-2.8944,0.90782
378.071,43.11206,1.25197,-2.9315,0.90735
378.771,43.17934,1.15474,-2.96665,0.90687
379.471,43.24664,1.06588,-2.99763,0.9064
380.171,43.31365,0.96509,-3.026,0.90593
380.871,43.38044,0.86999,-3.05348,0.90545
381.571,43.44716,0.77558,-3.07675,0.90497
382.271,43.51406,0.68353,-3.09585,0.9045
382.971,43.58108,0.5979,-3.11169,0.90402
383.671,43.64804,0.51945,-3.12664,0.90354
384.371,43.7149,0.44624,-3.13915,0.90307
385.071,43.78175,0.37787,-3.14942,0.90259
385.771,43.84874,0.31909,-3.15815,0.90211
386.471,43.91567,0.26789,-3.1636,0.90163
387.171,43.98271,0.22643,-3.17049,0.90115
387.871,44.0499,0.18562,-3.17428,0.90067
388.571,44.1171,0.16236,-3.17804,0.90019
389.271,44.1845,0.13622,-3.1811,0.89971
389.971,44.25202,0.11548,-3.18441,0.89923
390.671,44.31968,0.10003,-3.18824,0.89875
391.371,44.3872,0.09062732,-3.19056,0.89826
392.071,44.45474,0.08362897,-3.19111,0.89778
392.771,44.5221,0.07532133,-3.19255,0.8973
393.471,44.58985,0.07370081,-3.19373,0.89681
394.171,44.65766,0.06870995,-3.19504,0.89633
394.871,44.72595,0.06520173,-3.19502,0.89585
395.571,44.7939,0.06443417,-3.19593,0.89536
396.271,44.86184,0.06036679,-3.19817,0.89488
396.971,44.92962,0.0611248,-3.20024,0.89439
397.671,44.9974,0.06007317,-3.20086,0.8939
398.371,45.06535,0.05842566,-3.20215,0.89342
399.071,45.13343,0.05574851,-3.20087,0.89293
399.771,45.20178,0.05897824,-3.20218,0.89244
400.471,45.27001,0.05668372,-3.20349,0.89195
401.171,45.33828,0.05790145,-3.20614,0.89147
401.871,45.40596,0.0520889,-3.20616,0.89098
402.571,45.47422,0.05637008,-3.20743,0.89049
403.271,45.5424,0.05572416,-3.20705,0.89
403.971,45.61116,0.0518305,-3.20806,0.88951
404.671,45.67958,0.0539226,-3.20876,0.88902
405.371,45.7479,0.05272505,-3.20876,0.88853
406.071,45.8162,0.05202044,-3.21009,0.88803
406.771,45.88432,0.05040475,-3.21073,0.88754
407.471,45.95248,0.05001571,-3.21205,0.88705
408.171,46.0208,0.04822496,-3.2124,0.88656
408.871,46.0891,0.05255321,-3.21369,0.88606
409.571,46.15766,0.05139042,-3.215,0.88557
410.271,46.2261,0.05243362,-3.21632,0.88508
410.971,46.29445,0.05055152,-3.21761,0.88458
411.671,46.3628,0.05107498,-3.21896,0.88409
412.371,46.4311,0.0523521,-3.2186,0.88359
413.071,46.49945,0.04875711,-3.21994,0.8831
413.771,46.5678,0.04893917,-3.21863,0.8826
414.471,46.6362,0.04984333,-3.21965,0.8821
415.171,46.7049,0.04849925,-3.22062,0.88161
415.871,46.7729,0.04982967,-3.22126,0.88111
416.571,46.84124,0.04609939,-3.22126,0.88061
417.271,46.90952,0.04403041,-3.22258,0.88011
417.971,46.97842,0.04491208,-3.22258,0.87961
418.671,47.04695,0.04618851,-3.22391,0.87912
419.371,47.11545,0.04630588,-3.2245,0.87862
420.071,47.18399,0.04185853,-3.22523,0.87812
420.771,47.25247,0.04264554,-3.22652,0.87762
421.471,47.32107,0.0431912,-3.22784,0.87712
422.171,47.38965,0.04209222,-3.22854,0.87661
422.871,47.45813,0.04411849,-3.22916,0.87611
423.571,47.5266,0.04628072,-3.23036,0.87561
424.271,47.595,0.04325594,-3.23047,0.87511
424.971,47.66381,0.03988611,-3.23188,0.87461
425.671,47.73238,0.04389526,-3.23053,0.8741
426.371,47.80123,0.04294532,-3.23146,0.8736
427.071,47.8699,0.04082365,-3.23311,0.8731
427.771,47.9387,0.0433993,-3.23312,0.87259
428.471,48.00752,0.04061918,-3.23443,0.87209
429.171,48.07617,0.0401748,-3.23443,0.87158
429.871,48.1447,0.04003334,-3.23446,0.87108
430.571,48.2133,0.04182476,-3.23733,0.87057
431.271,48.2821,0.03848703,-3.23729,0.87006
431.971,48.35066,0.04212887,-3.23861,0.86956
432.671,48.41922,0.04111701,-3.23947,0.86905
433.371,48.4878,0.04203489,-3.2398,0.86854
434.071,48.5566,0.04045252,-3.24117,0.86804
434.771,48.6252,0.04025348,-3.24081,0.86753
435.471,48.6937,0.03838672,-3.2421,0.86702
436.171,48.7624,0.03980074,-3.2421,0.86651
436.871,48.83115,0.04147706,-3.24225,0.866
437.571,48.8998,0.03803701,-3.24342,0.86549
438.271,48.96842,0.03612248,-3.24474,0.86498
438.971,49.03715,0.03873358,-3.2447,0.86447
439.671,49.1059,0.03765447,-3.24618,0.86396
440.371,49.17465,0.03772899,-3.24738,0.86345
441.071,49.2434,0.03656788,-3.24738,0.86294
441.771,49.31212,0.03758374,-3.24856,0.86243
442.471,49.381,0.03872127,-3.25136,0.86191
443.171,49.4497,0.03885885,-3.25002,0.8614
443.871,49.5184,0.03685546,-3.25131,0.86089
444.571,49.58708,0.03368192,-3.25263,0.86037
445.271,49.6558,0.03657573,-3.25263,0.85986
445.971,49.7245,0.03793261,-3.25395,0.85935
446.671,49.7931,0.03758497,-3.25395,0.85883
447.371,49.86186,0.0383168,-3.25456,0.85832
448.071,49.93059,0.03771259,-3.2557,0.8578
448.771,49.99937,0.03962853,-3.2557,0.85728
449.471,50.06788,0.03596442,-3.2557,0.85677
450.171,50.1364,0.03692323,-3.2557,0.85625
450.871,50.205,0.03808889,-3.25833,0.85574
451.571,50.27367,0.03857138,-3.25835,0.85522
452.271,50.34223,0.0377083,-3.25965,0.8547
452.971,50.41081,0.03603001,-3.25833,0.85418
453.671,50.47952,0.03844919,-3.25967,0.85366
454.371,50.54809,0.0391127,-3.2599,0.85315
455.071,50.61708,0.03725185,-3.26095,0.85263
455.771,50.68603,0.04014851,-3.26227,0.85211
456.471,50.75506,0.03712521,-3.2636,0.85159
457.171,50.8236,0.03280062,-3.26352,0.85107
457.871,50.8922,0.03851215,-3.26491,0.85055
458.571,50.96083,0.03771968,-3.26623,0.85003
459.271,51.02963,0.03592806,-3.26623,0.84951
459.971,51.09858,0.03599818,-3.26754,0.84898
460.671,51.16751,0.03688547,-3.26754,0.84846
461.371,51.23643,0.03685399,-3.26749,0.84794
462.071,51.30514,0.03884232,-3.26851,0.84742
462.771,51.37399,0.03454436,-3.26991,0.8469
463.471,51.44269,0.03535893,-3.27018,0.84637
464.171,51.5115,0.0356629,-3.2715,0.84585
464.871,51.5804,0.03854834,-3.27158,0.84532
465.571,51.6493,0.03681365,-3.27314,0.8448
466.271,51.7184,0.03745904,-3.2745,0.84428
466.971,51.7874,0.03627873,-3.27315,0.84375
467.671,51.85655,0.03273684,-3.27415,0.84323
468.371,51.92549,0.03378981,-3.27451,0.8427
469.071,51.9943,0.03458203,-3.27446,0.84217
469.771,52.06325,0.03390307,-3.27483,0.84165
470.471,52.1322,0.03584641,-3.27533,0.84112
471.171,52.20126,0.03218217,-3.27577,0.84059
471.871,52.27036,0.03397401,-3.27575,0.84007
472.571,52.33947,0.03337345,-3.27709,0.83954
473.271,52.4085,0.03412588,-3.27841,0.83901
473.971,52.47761,0.02929161,-3.27837,0.83848
474.671,52.5464,0.03304003,-3.28045,0.83795
475.371,52.61577,0.03496823,-3.28116,0.83743
476.071,52.68505,0.03547773,-3.27961,0.8369
476.771,52.7547,0.03355252,-3.28092,0.83637
477.471,52.8239,0.03109097,-3.28092,0.83584
478.171,52.8929,0.03365348,-3.28225,0.83531
478.871,52.9618,0.03312914,-3.2823,0.83478
479.571,53.03065,0.03444017,-3.28136,0.83425
480.271,53.0997,0.03600807,-3.28259,0.83371
480.971,53.16862,0.03579311,-3.28389,0.83318
481.671,53.23763,0.03780482,-3.28389,0.83265
482.371,53.3065,0.04513062,-3.28652,0.83212
483.071,53.37555,0.04445477,-3.28773,0.83159
483.771,53.44396,0.04676395,-3.28735,0.83105
484.471,53.5127,0.05577008,-3.28785,0.83052
485.171,53.58099,0.05516351,-3.28915,0.82999
485.871,53.6495,0.05794896,-3.28915,0.82945
486.571,53.71824,0.06309048,-3.28916,0.82892
487.271,53.7873,0.06558956,-3.28903,0.82838
487.971,53.8568,0.06890687,-3.28906,0.82785
488.671,53.92561,0.0633237,-3.29168,0.82732
489.371,53.9952,0.0635615,-3.29168,0.82678
490.071,54.06475,0.0638089,-3.29038,0.82624
490.771,54.1346,0.06644451,-3.29173,0.82571
491.471,54.20386,0.06583073,-3.29168,0.82517
492.171,54.273,0.06758137,-3.29168,0.82464
492.871,54.342,0.06512152,-3.29168,0.8241
493.571,54.41105,0.06702238,-3.29308,0.82356
494.271,54.4802,0.06658751,-3.29436,0.82302
494.971,54.54934,0.06600704,-3.29563,0.82249
495.671,54.61858,0.06509913,-3.29564,0.82195
496.371,54.68805,0.06119486,-3.29695,0.82141
497.071,54.7577,0.06077644,-3.29695,0.82087
497.771,54.8272,0.05979844,-3.29695,0.82033
498.471,54.8964,0.0567482,-3.29695,0.81979
499.171,54.9656,0.05673254,-3.29695,0.81925
499.871,55.0348,0.05540801,-3.29695,0.81871
500.571,55.104,0.05676247,-3.29695,0.81817
501.271,55.1734,0.05632403,-3.29732,0.81763
501.971,55.24276,0.06044676,-3.2998,0.81709
502.671,55.31204,0.05820257,-3.29991,0.81655
503.371,55.38137,0.06023395,-3.29991,0.81601
504.071,55.45066,0.06099544,-3.30136,0.81547
504.771,55.51993,0.05894517,-3.30222,0.81493
505.471,55.58911,0.05573852,-3.30089,0.81438
506.171,55.65829,0.05591837,-3.30222,0.81384
506.871,55.7277,0.0578761,-3.30476,0.8133
507.571,55.79701,0.05513142,-3.30636,0.81276
508.271,55.8663,0.05149335,-3.30463,0.81221
508.971,55.93569,0.05146391,-3.30327,0.81167
509.671,56.00505,0.04851861,-3.30331,0.81113
510.371,56.0745,0.04514879,-3.30324,0.81058
511.071,56.14379,0.04359821,-3.30396,0.81004
511.771,56.21317,0.03829494,-3.30396,0.80949
512.471,56.28256,0.03483967,-3.30428,0.80895
513.171,56.35207,0.03009502,-3.30549,0.8084
513.871,56.4216,0.03031201,-3.30683,0.80786
514.571,56.4911,0.0266352,-3.30813,0.80731
515.271,56.56077,0.02469966,-3.30813,0.80676
515.971,56.6305,0.02341489,-3.30813,0.80622
516.671,56.7002,0.02378485,-3.3082,0.80567
517.371,56.76995,0.02160774,-3.30945,0.80512
518.071,56.8396,0.02185706,-3.31252,0.80458
518.771,56.9093,0.01995073,-3.31185,0.80403
519.471,56.97897,0.01992854,-3.30879,0.80348
520.171,57.04863,0.02074576,-3.31054,0.80293
520.871,57.1179,0.01860118,-3.3134,0.80239
521.571,57.18704,0.01606627,-3.31099,0.80184
522.271,57.2565,0.01357182,-3.30903,0.80129
522.971,57.3261,0.0141855,-3.31019,0.80074
523.671,57.39581,0.01178338,-3.31296,0.80019
524.371,57.46552,0.01295449,-3.31296,0.79964
525.071,57.5352,0.01056402,-3.31184,0.79909
525.771,57.60501,0.00792326,-3.31165,0.79854
526.471,57.6747,0.004723092,-3.31263,0.79799
527.171,57.74426,0.001386735,-3.31224,0.79744
527.871,57.81357,0.0003294139,-3.3123,0.79689
528.571,57.88289,-0.005564289,-3.3123,0.79634
529.271,57.9521,-0.004317921,-3.3123,0.79579
529.971,58.02188,-0.007735031,-3.31227,0.79523
530.671,58.09143,-0.00757005,-3.31371,0.79468
531.371,58.16121,-0.008721089,-3.31493,0.79413
532.071,58.23081,-0.01075399,-3.31493,0.79358
532.771,58.30044,-0.01174417,-3.31602,0.79302
533.471,58.3701,-0.01314185,-3.31625,0.79247
534.171,58.43951,-0.01630206,-3.31691,0.79192
534.871,58.50889,-0.01603533,-3.31822,0.79137
535.571,58.5782,-0.0180446,-3.31756,0.79081
536.271,58.64745,-0.01568667,-3.31756,0.79026
536.971,58.71686,-0.01579273,-3.31756,0.7897
537.671,58.78641,-0.01825285,-3.31854,0.78915
538.371,58.85606,-0.01661995,-3.31855,0.78859
539.071,58.92516,-0.01704557,-3.31852,0.78804
539.771,58.99487,-0.01413001,-3.31756,0.78748
540.471,59.0645,-0.01428734,-3.31883,0.78693
541.171,59.13465,-0.0169141,-3.3202,0.78637
541.871,59.20431,-0.01945723,-3.3202,0.78582
542.571,59.27411,-0.01894058,-3.3202,0.78526
543.271,59.3439,-0.01782965,-3.3202,0.78471
543.971,59.41333,-0.01839083,-3.32095,0.78415
544.671,59.483,-0.02028114,-3.32102,0.78359
545.371,59.5526,-0.02045523,-3.32085,0.78303
546.071,59.62242,-0.01780004,-3.32082,0.78248
546.771,59.6921,-0.01962483,-3.32214,0.78192
547.471,59.76178,-0.02112919,-3.32348,0.78136
548.171,59.83174,-0.01960807,-3.32348,0.7808
548.871,59.9016,-0.02052327,-3.32348,0.78025
549.571,59.9714,-0.02047239,-3.32433,0.77969
550.271,60.0411,-0.02180868,-3.32481,0.77913
550.971,60.11085,-0.02513047,-3.32415,0.77857
551.671,60.1804,-0.02234963,-3.32414,0.77801
552.371,60.25015,-0.02368495,-3.32414,0.77745
553.071,60.3199,-0.02587668,-3.32546,0.77689
553.771,60.38974,-0.02298278,-3.3265,0.77633
554.471,60.45939,-0.02447846,-3.32676,0.77577
555.171,60.529,-0.02988865,-3.32579,0.77521
555.871,60.5987,-0.03007308,-3.32549,0.77465
556.571,60.66829,-0.03010604,-3.32639,0.77409
557.271,60.73786,-0.02796619,-3.32645,0.77353
557.971,60.8078,-0.0304449,-3.32777,0.77297
558.671,60.87784,-0.03282213,-3.327,0.77241
559.371,60.94797,-0.03121764,-3.32774,0.77185
560.071,61.0178,-0.03463347,-3.32887,0.77129
560.771,61.0877,-0.03141165,-3.32645,0.77072
561.471,61.1575,-0.03437918,-3.32637,0.77016
562.171,61.22755,-0.03209567,-3.32777,0.7696
562.871,61.29761,-0.03504239,-3.32777,0.76904
563.571,61.36776,-0.03408081,-3.32909,0.76847
564.271,61.4377,-0.03461339,-3.32907,0.76791
564.971,61.50773,-0.03330739,-3.33007,0.76735
565.671,61.57785,-0.03623204,-3.3314,0.76678
566.371,61.6479,-0.03524053,-3.33137,0.76622
567.071,61.7181,-0.03770725,-3.32941,0.76566
567.771,61.7882,-0.03619065,-3.32941,0.76509
568.471,61.85836,-0.03625149,-3.33068,0.76453
569.171,61.9283,-0.03783437,-3.33073,0.76396
569.871,61.9982,-0.03747481,-3.32941,0.7634
570.571,62.0682,-0.03767366,-3.32941,0.76283
571.271,62.1381,-0.03814511,-3.33206,0.76227
571.971,62.20827,-0.03839149,-3.33205,0.7617
572.671,62.27828,-0.04045692,-3.33335,0.76114
573.371,62.34839,-0.04182235,-3.33204,0.76057
574.071,62.41825,-0.04099273,-3.332,0.76001
574.771,62.4881,-0.0391066,-3.33311,0.75944
575.471,62.55794,-0.03878676,-3.33201,0.75887
576.171,62.62797,-0.03805494,-3.33336,0.75831
576.871,62.69798,-0.04019432,-3.33333,0.75774
577.571,62.7679,-0.0405176,-3.33467,0.75717
578.271,62.83775,-0.04345984,-3.33467,0.75661
578.971,62.90765,-0.04201095,-3.33369,0.75604
579.671,62.97759,-0.04282383,-3.33369,0.75547
580.371,63.04741,-0.04424607,-3.33369,0.75491
581.071,63.1172,-0.04452659,-3.33305,0.75434
581.771,63.18675,-0.04703215,-3.33434,0.75377
582.471,63.2567,-0.04649863,-3.33434,0.7532
583.171,63.3268,-0.0448012,-3.33466,0.75263
583.871,63.3973,-0.04476412,-3.33435,0.75207
584.571,63.4675,-0.04829976,-3.33435,0.7515
585.271,63.5375,-0.04838584,-3.33669,0.75093
585.971,63.6077,-0.04733918,-3.33666,0.75036
586.671,63.67768,-0.04519087,-3.33567,0.74979
587.371,63.74788,-0.04370938,-3.33565,0.74922
588.071,63.8179,-0.04792737,-3.33599,0.74865
588.771,63.8882,-0.04936222,-3.33626,0.74808
589.471,63.95834,-0.04927764,-3.33698,0.74751
590.171,64.02864,-0.0517802,-3.33665,0.74694
590.871,64.0983,-0.05191332,-3.33665,0.74637
591.571,64.16848,-0.05369217,-3.33665,0.7458
592.271,64.2385,-0.05435652,-3.33665,0.74523
592.971,64.30884,-0.05415837,-3.33665,0.74466
593.671,64.37903,-0.0529449,-3.33665,0.74409
594.371,64.44921,-0.05404249,-3.33797,0.74352
595.071,64.51937,-0.05545266,-3.33797,0.74295
595.771,64.58954,-0.0543639,-3.33796,0.74237
596.471,64.65989,-0.05247773,-3.33798,0.7418
597.171,64.7302,-0.05094452,-3.33797,0.74123
597.871,64.8004,-0.05534432,-3.33773,0.74066
598.571,64.87053,-0.0563505,-3.33895,0.74009
599.271,64.9406,-0.05567944,-3.33994,0.73951
599.971,65.01071,-0.05799204,-3.3406,0.73894
600.671,65.08081,-0.05585284,-3.3406,0.73837
601.371,65.15093,-0.05401606,-3.3406,0.7378
602.071,65.22111,-0.0592449,-3.33994,0.73722
602.771,65.29114,-0.06131077,-3.33994,0.73665
603.471,65.361,-0.06110575,-3.33994,0.73608
604.171,65.43114,-0.05836988,-3.3412,0.7355
604.871,65.50145,-0.05983618,-3.34003,0.73493
605.571,65.57183,-0.0608266,-3.34122,0.73436
606.271,65.64205,-0.05875116,-3.34158,0.73378
606.971,65.7123,-0.05895556,-3.34159,0.73321
607.671,65.78282,-0.05885103,-3.34128,0.73264
608.371,65.8532,-0.06006792,-3.34035,0.73206
609.071,65.9235,-0.06130495,-3.33887,0.73149
609.771,65.99359,-0.05778402,-3.34026,0.73091
610.471,66.06381,-0.05790702,-3.34159,0.73034
611.171,66.1341,-0.06270581,-3.34159,0.72976
611.871,66.20442,-0.061094,-3.34141,0.72919
612.571,66.27457,-0.06172653,-3.34126,0.72861
613.271,66.3446,-0.06010677,-3.34126,0.72804
613.971,66.41466,-0.06058322,-3.34086,0.72746
614.671,66.48464,-0.06191485,-3.34125,0.72689
615.371,66.55461,-0.06078032,-3.34026,0.72631
616.071,66.6247,-0.05993181,-3.34029,0.72573
616.771,66.6949,-0.05968696,-3.3429,0.72516
617.471,66.76516,-0.06007662,-3.34314,0.72458
618.171,66.83532,-0.05969136,-3.3429,0.72401
618.871,66.90563,-0.058148,-3.3429,0.72343
619.571,66.97584,-0.06000196,-3.3429,0.72285
620.271,67.04612,-0.0599407,-3.3429,0.72228
620.971,67.11631,-0.05938605,-3.3429,0.7217
621.671,67.18653,-0.06288481,-3.3429,0.72112
622.371,67.25681,-0.06354802,-3.34298,0.72054
623.071,67.3271,-0.06012438,-3.34159,0.71997
623.771,67.3973,-0.06096973,-3.34414,0.71939
624.471,67.4674,-0.05988439,-3.34389,0.71881
625.171,67.5375,-0.05819579,-3.34389,0.71823
625.871,67.6075,-0.06220714,-3.34389,0.71766
626.571,67.67795,-0.06320057,-3.34389,0.71708
627.271,67.74848,-0.06003073,-3.34292,0.7165
627.971,67.81921,-0.06476141,-3.34422,0.71592
628.671,67.88972,-0.06011454,-3.3429,0.71534
629.371,67.96035,-0.06199116,-3.3429,0.71477
630.071,68.03084,-0.06210456,-3.34422,0.71419
630.771,68.10132,-0.05871696,-3.34554,0.71361
631.471,68.17174,-0.05961854,-3.34555,0.71303
632.171,68.24226,-0.06105982,-3.34488,0.71245
632.871,68.31285,-0.06227838,-3.3449,0.71187
633.571,68.38332,-0.05772933,-3.34797,0.71129
634.271,68.45381,-0.06189529,-3.34796,0.71071
634.971,68.5245,-0.06419442,-3.34663,0.71013
635.671,68.59514,-0.06236466,-3.34795,0.70955
636.371,68.66565,-0.06326914,-3.34666,0.70898
637.071,68.73595,-0.06247533,-3.34546,0.7084
637.771,68.80626,-0.06368107,-3.34532,0.70782
638.471,68.87626,-0.06399353,-3.34646,0.70724
639.171,68.94634,-0.06352075,-3.34599,0.70666
639.871,69.01645,-0.06153537,-3.34729,0.70608
640.571,69.087,-0.06497634,-3.34807,0.70549
641.271,69.15733,-0.06489734,-3.3486,0.70491
641.971,69.22775,-0.0634453,-3.34994,0.70433
642.671,69.298,-0.06156037,-3.34864,0.70375
643.371,69.36828,-0.06593731,-3.34755,0.70317
644.071,69.4379,-0.06287205,-3.34861,0.70259
644.771,69.50828,-0.06271795,-3.34861,0.70201
645.471,69.57857,-0.06250482,-3.34959,0.70143
646.171,69.64949,-0.05926236,-3.34959,0.70085
646.871,69.7196,-0.06047511,-3.34828,0.70027
647.571,69.78963,-0.06096166,-3.34828,0.69969
648.271,69.86,-0.06083677,-3.34828,0.6991
648.971,69.93077,-0.05948006,-3.34828,0.69852
649.671,70.0013,-0.05824956,-3.34828,0.69794
650.371,70.07168,-0.05680012,-3.34828,0.69736
651.071,70.1421,-0.05737915,-3.34833,0.69678
651.771,70.2127,-0.06206552,-3.35021,0.6962
652.471,70.28319,-0.06088536,-3.35058,0.69561
653.171,70.35335,-0.06187445,-3.34964,0.69503
653.871,70.42373,-0.06261034,-3.35058,0.69445
654.571,70.494,-0.06011105,-3.35058,0.69387
655.271,70.56387,-0.06288607,-3.35058,0.69328
655.971,70.63427,-0.06190847,-3.35058,0.6927
656.671,70.7047,-0.05923751,-3.35058,0.69212
657.371,70.77591,-0.06121515,-3.34926,0.69154
658.071,70.84653,-0.06136708,-3.34926,0.69095
658.771,70.9171,-0.06132734,-3.34926,0.69037
659.471,70.98745,-0.06206821,-3.34926,0.68979
660.171,71.05794,-0.05876984,-3.35058,0.6892
660.871,71.12838,-0.06252255,-3.35058,0.68862
661.571,71.19876,-0.06073026,-3.35059,0.68804
662.271,71.26907,-0.06299702,-3.35059,0.68746
662.971,71.3394,-0.06410773,-3.35321,0.68687
663.671,71.4098,-0.06419754,-3.3519,0.68629
664.371,71.4802,-0.06397041,-3.3519,0.68571
665.071,71.55062,-0.06274692,-3.35187,0.68512
665.771,71.62111,-0.06408261,-3.34992,0.68454
666.471,71.6916,-0.06505025,-3.34992,0.68395
667.171,71.76209,-0.06775342,-3.35054,0.68337
667.871,71.83259,-0.06688493,-3.35124,0.68279
668.571,71.90311,-0.06943246,-3.3512,0.6822
669.271,71.97373,-0.0687206,-3.3519,0.68162
669.971,72.0438,-0.07011116,-3.35049,0.68103
670.671,72.1143,-0.06757834,-3.35065,0.68045
671.371,72.18495,-0.07139355,-3.34992,0.67987
672.071,72.25593,-0.06853192,-3.34995,0.67928
672.771,72.32637,-0.06910217,-3.35209,0.6787
673.471,72.3968,-0.0676344,-3.35219,0.67811
674.171,72.46754,-0.06452622,-3.35202,0.67753
674.871,72.5382,-0.06445846,-3.35117,0.67694
675.571,72.60862,-0.06536308,-3.35226,0.67636
676.271,72.679,-0.06376003,-3.35221,0.67577
676.971,72.74939,-0.06575249,-3.35222,0.67519
677.671,72.81984,-0.06323775,-3.35354,0.6746
678.371,72.89033,-0.06111641,-3.35217,0.67402
679.071,72.96092,-0.06009727,-3.35222,0.67343
679.771,73.03161,-0.06224553,-3.35222,0.67285
680.471,73.1019,-0.0634134,-3.35256,0.67226
681.171,73.17223,-0.06456656,-3.35387,0.67168
681.871,73.24246,-0.06355589,-3.35387,0.67109
682.571,73.313,-0.0617109,-3.35387,0.67051
683.271,73.3834,-0.06230672,-3.35354,0.66992
683.971,73.45374,-0.05930937,-3.35276,0.66934
684.671,73.524,-0.06328562,-3.35189,0.66875
685.371,73.5945,-0.06288183,-3.35326,0.66817
686.071,73.66508,-0.05989901,-3.35321,0.66758
686.771,73.73578,-0.06160911,-3.35453,0.66699
687.471,73.8064,-0.06043797,-3.35452,0.66641
688.171,73.87729,-0.06192824,-3.35321,0.66582
688.871,73.948,-0.06236463,-3.35321,0.66524
689.571,74.01835,-0.06128932,-3.35321,0.66465
690.271,74.08874,-0.06365739,-3.35321,0.66406
690.971,74.15934,-0.06521667,-3.35225,0.66348
691.671,74.23034,-0.06239175,-3.35398,0.66289
692.371,74.30109,-0.05695528,-3.35418,0.66231
693.071,74.37179,-0.05625543,-3.35453,0.66172
693.771,74.4426,-0.05776724,-3.35449,0.66113
694.471,74.5134,-0.0578992,-3.35585,0.66055
695.171,74.58411,-0.05660802,-3.35585,0.65996
695.871,74.6548,-0.05571059,-3.35585,0.65938
696.571,74.72576,-0.05487456,-3.35585,0.65879
697.271,74.79685,-0.0600236,-3.35453,0.6582
697.971,74.86783,-0.05758759,-3.35321,0.65762
698.671,74.9388,-0.05761649,-3.35453,0.65703
699.371,75.0099,-0.05437017,-3.35546,0.65644
700.071,75.0805,-0.05430852,-3.35453,0.65586
700.771,75.1514,-0.05405379,-3.35485,0.65527
701.471,75.22227,-0.05685072,-3.35486,0.65468
702.171,75.2933,-0.05563607,-3.35354,0.6541
702.871,75.36409,-0.05406272,-3.35345,0.65351
703.571,75.43485,-0.05453855,-3.35618,0.65292
704.271,75.50591,-0.05394603,-3.35617,0.65234
704.971,75.57679,-0.05752774,-3.35617,0.65175
705.671,75.64758,-0.05630062,-3.35624,0.65116
706.371,75.7183,-0.05258395,-3.35486,0.65058
707.071,75.789,-0.05496654,-3.35715,0.64999
707.771,75.85967,-0.0551241,-3.35716,0.6494
708.471,75.93012,-0.0557039,-3.35716,0.64882
709.171,76.00065,-0.05909097,-3.35705,0.64823
709.871,76.07131,-0.05831433,-3.35454,0.64764
710.571,76.1421,-0.05565411,-3.35585,0.64705
711.271,76.21289,-0.05311833,-3.35656,0.64647
711.971,76.2835,-0.05805167,-3.35717,0.64588
712.671,76.35428,-0.05597633,-3.35769,0.64529
713.371,76.4247,-0.05728136,-3.35817,0.64471
714.071,76.49546,-0.06097059,-3.35946,0.64412
714.771,76.5663,-0.0552498,-3.35932,0.64353
715.471,76.63749,-0.05658023,-3.35815,0.64295
716.171,76.7084,-0.05829812,-3.35815,0.64236
716.871,76.77926,-0.05834022,-3.35782,0.64177
717.571,76.85002,-0.05735555,-3.35716,0.64118
718.271,76.92092,-0.05769229,-3.35716,0.6406
718.971,76.99201,-0.05987059,-3.35718,0.64001
719.671,77.06321,-0.05559049,-3.35775,0.63942
720.371,77.13375,-0.05893964,-3.35923,0.63883
721.071,77.20432,-0.06071702,-3.35912,0.63825
721.771,77.2748,-0.06016343,-3.35782,0.63766
722.471,77.34589,-0.0608781,-3.35782,0.63707
723.171,77.41686,-0.06064366,-3.35639,0.63649
723.871,77.48812,-0.05800439,-3.35794,0.6359
724.571,77.55931,-0.05927606,-3.3598,0.63531
725.271,77.63036,-0.06418989,-3.36045,0.63472
725.971,77.7013,-0.06281231,-3.36047,0.63414
726.671,77.7723,-0.06498448,-3.35913,0.63355
727.371,77.8436,-0.06491427,-3.35913,0.63296
728.071,77.9149,-0.06220819,-3.35913,0.63237
728.771,77.98626,-0.06567772,-3.35868,0.63179
729.471,78.0573,-0.06589242,-3.35815,0.6312
730.171,78.12836,-0.0631563,-3.35948,0.63061
730.871,78.19933,-0.06596992,-3.35947,0.63002
731.571,78.27036,-0.06143774,-3.35914,0.62944
732.271,78.34087,-0.06193706,-3.35928,0.62885
732.971,78.41121,-0.06352718,-3.35881,0.62826
733.671,78.48141,-0.05952537,-3.35881,0.62768
734.371,78.55208,-0.06167799,-3.35881,0.62709
735.071,78.62241,-0.05983524,-3.35881,0.6265
735.771,78.69337,-0.05724848,-3.35878,0.62591
736.471,78.76417,-0.06319435,-3.35913,0.62533
737.171,78.83529,-0.05830176,-3.35912,0.62474
737.871,78.90609,-0.06239114,-3.36045,0.62415
738.571,78.9769,-0.06026704,-3.36044,0.62356
739.271,79.04773,-0.0623064,-3.35914,0.62298
739.971,79.1185,-0.05874657,-3.35914,0.62239
740.671,79.18935,-0.06029033,-3.35914,0.6218
741.371,79.26053,-0.05751199,-3.35915,0.62121
742.071,79.33161,-0.05456809,-3.35935,0.62063
742.771,79.4028,-0.05590068,-3.3609,0.62004
743.471,79.47371,-0.05585231,-3.3609,0.61945
744.171,79.54479,-0.05565688,-3.3609,0.61887
744.871,79.61567,-0.05707508,-3.36101,0.61828
745.571,79.6865,-0.05976696,-3.36205,0.61769
746.271,79.7573,-0.05453207,-3.3609,0.6171
746.971,79.82816,-0.054811,-3.3619,0.61652
747.671,79.89859,-0.05580651,-3.36254,0.61593
748.371,79.96908,-0.05681447,-3.36254,0.61534
749.071,80.03995,-0.05661488,-3.36088,0.61476
749.771,80.11103,-0.05835662,-3.36061,0.61417
750.471,80.18209,-0.05886851,-3.35915,0.61358
751.171,80.2529,-0.05938338,-3.3595,0.61299
751.871,80.324,-0.05857468,-3.36089,0.61241
752.571,80.3952,-0.0611247,-3.36089,0.61182
753.271,80.4662,-0.06110952,-3.36089,0.61123
753.971,80.53708,-0.05455339,-3.36089,0.61065
754.671,80.6078,-0.0538966,-3.36089,0.61006
755.371,80.67865,-0.05829532,-3.36089,0.60947
756.071,80.74962,-0.05826651,-3.36089,0.60889
756.771,80.82061,-0.05568768,-3.36221,0.6083
757.471,80.8916,-0.0568882,-3.36099,0.60771
758.171,80.96215,-0.05450725,-3.36311,0.60713
758.871,81.03288,-0.05896437,-3.3632,0.60654
759.571,81.1037,-0.05932539,-3.36221,0.60595
760.271,81.17475,-0.05915848,-3.3609,0.60536
760.971,81.24575,-0.05821111,-3.36089,0.60478
761.671,81.31659,-0.06252673,-3.35954,0.60419
762.371,81.38756,-0.05876877,-3.36089,0.60361
763.071,81.45854,-0.06165155,-3.36221,0.60302
763.771,81.5294,-0.06349034,-3.36221,0.60243
764.471,81.60035,-0.06412536,-3.36221,0.60185
765.171,81.67121,-0.0600229,-3.3622,0.60126
765.871,81.74211,-0.06217723,-3.3597,0.60067
766.571,81.81289,-0.06285057,-3.36121,0.60009
767.271,81.8839,-0.05993386,-3.36221,0.5995
767.971,81.95474,-0.05925168,-3.36221,0.59891
768.671,82.02587,-0.05986642,-3.36122,0.59833
769.371,82.09704,-0.0632825,-3.36122,0.59774
770.071,82.16849,-0.06091948,-3.36122,0.59716
770.771,82.2401,-0.06205414,-3.36122,0.59657
771.471,82.31138,-0.06231887,-3.36122,0.59598
772.171,82.38253,-0.06019166,-3.36121,0.5954
772.871,82.45374,-0.05761155,-3.36187,0.59481
773.571,82.52497,-0.06239186,-3.36057,0.59423
774.271,82.59619,-0.05955274,-3.35948,0.59364
774.971,82.66726,-0.0606775,-3.36091,0.59305
775.671,82.73836,-0.05816401,-3.36221,0.59247
776.371,82.80946,-0.06140561,-3.36287,0.59188
777.071,82.88025,-0.06050286,-3.36353,0.5913
777.771,82.95092,-0.05944982,-3.36455,0.59071
778.471,83.02163,-0.06004171,-3.36456,0.59013
779.171,83.0924,-0.06014288,-3.36451,0.58954
779.871,83.16326,-0.05993229,-3.36451,0.58895
780.571,83.23415,-0.06073623,-3.36451,0.58837
781.271,83.30511,-0.05942233,-3.36315,0.58778
781.971,83.37602,-0.05766677,-3.36319,0.5872
782.671,83.4469,-0.05828945,-3.3645,0.58661
783.371,83.5179,-0.0571741,-3.36451,0.58603
784.071,83.58879,-0.05637834,-3.36482,0.58544
784.771,83.6597,-0.05937924,-3.36517,0.58486
785.471,83.7306,-0.06160476,-3.36516,0.58427
786.171,83.80162,-0.0610926,-3.36386,0.58369
786.871,83.87263,-0.05930183,-3.36386,0.5831
787.571,83.9435,-0.05824519,-3.36386,0.58252
788.271,84.01435,-0.05883235,-3.36386,0.58193
788.971,84.08534,-0.05604209,-3.36589,0.58135
789.671,84.15647,-0.05555118,-3.36583,0.58076
790.371,84.2276,-0.05354616,-3.36583,0.58018
791.071,84.2987,-0.05961915,-3.36714,0.5796
791.771,84.36968,-0.0544579,-3.36452,0.57901
792.471,84.44089,-0.05683502,-3.36323,0.57843
793.171,84.51199,-0.05552386,-3.36418,0.57784
793.871,84.5831,-0.05776203,-3.36419,0.57726
794.571,84.65428,-0.05335267,-3.36451,0.57667
795.271,84.7255,-0.05513545,-3.36552,0.57609
795.971,84.79664,-0.05252409,-3.36451,0.57551
796.671,84.86762,-0.05529886,-3.36451,0.57492
797.371,84.93864,-0.0557867,-3.36297,0.57434
797.871,84.98947,-0.05151987,-3.36453,0.57392