File: 01_Data/Fiber_Cement_Board/MCC/Fiber_Cement_Board_30K_min_210608_R1.txt
Sample ID:	C:\MCC\MCC Cal\Test\Fiber_Cement_Board\Fiber_Cement_Board_30_1.txt
Sample Weight (mg):	4.21
Heating Rate (C/s):	0.5
Combustor Temp (C):	900
N2 Flow Rate (cc/min):	80
O2 Flow Rate (cc/min):	20
Calibration File:	C:\MCC\MCC Cal\Coeff1 JN10440_30_210304.txt.txt
T Correction Coefficients:	0	1.024463	0
Time Shift (s):	14
*
Time (s)	Temperature (C)	N2 flow rate (cc/min)	O2 flow rate (cc/min)	Flow Rate (cc/min)	Oxygen (%)	HRR (W/g)	Heating rate (C/s)
0.000	111.737	79.985	19.992	99.892	19.971	0.196	-0.027
2.000	111.724	79.985	19.992	99.886	19.970	0.213	-0.026
4.000	111.701	79.984	19.991	99.896	19.977	-0.257	-0.004
6.000	111.670	79.984	19.991	99.889	19.972	0.116	-0.009
8.000	111.657	79.982	19.990	99.901	19.968	0.379	-0.004
10.000	111.642	79.983	19.991	99.905	19.968	0.363	0.012
12.000	111.627	79.983	19.992	99.912	19.967	0.477	0.018
14.000	111.628	79.983	19.991	99.915	19.964	0.687	0.033
16.000	111.647	79.984	19.992	99.933	19.964	0.705	0.021
18.000	111.679	79.983	19.992	99.950	19.964	0.717	0.024
20.000	111.656	79.984	19.992	99.950	19.959	1.026	-0.042
22.000	111.674	79.983	19.992	99.948	19.959	1.026	0.038
24.000	111.727	79.984	19.992	99.962	19.959	1.045	0.028
26.000	111.802	79.984	19.991	99.959	19.959	1.075	0.067
28.000	111.823	79.984	19.990	99.959	19.958	1.105	0.037
30.000	111.905	79.984	19.992	99.977	19.961	0.912	0.037
32.000	111.949	79.983	19.991	99.978	19.952	1.593	0.038
34.000	112.080	79.984	19.991	100.017	19.949	1.803	0.063
36.001	112.226	79.983	19.990	100.067	19.946	2.025	0.081
38.000	112.406	79.983	19.991	100.068	19.942	2.297	0.096
40.000	112.600	79.985	19.993	100.090	19.937	2.664	0.137
42.000	112.836	79.984	19.992	100.103	19.935	2.830	0.104
44.001	113.113	79.985	19.991	100.105	19.933	2.970	0.163
46.000	113.367	79.985	19.992	100.112	19.930	3.222	0.144
48.000	113.710	79.985	19.992	100.113	19.926	3.526	0.192
50.001	114.131	79.985	19.992	100.136	19.922	3.786	0.197
52.001	114.522	79.984	19.992	100.140	19.924	3.676	0.207
54.000	114.940	79.984	19.992	100.136	19.922	3.836	0.190
56.000	115.395	79.986	19.993	100.136	19.924	3.658	0.235
58.001	115.897	79.985	19.992	100.141	19.927	3.447	0.251
60.001	116.414	79.986	19.992	100.141	19.924	3.688	0.264
62.000	116.929	79.985	19.992	100.141	19.928	3.363	0.288
64.000	117.497	79.985	19.992	100.144	19.921	3.850	0.276
66.000	118.085	79.984	19.992	100.148	19.923	3.753	0.312
68.001	118.697	79.986	19.991	100.165	19.921	3.855	0.291
70.000	119.347	79.987	19.991	100.163	19.918	4.131	0.315
72.000	120.023	79.987	19.992	100.165	19.917	4.145	0.349
74.001	120.660	79.986	19.992	100.159	19.916	4.229	0.304
76.000	121.394	79.985	19.992	100.158	19.919	3.991	0.371
78.000	122.122	79.986	19.992	100.171	19.919	3.999	0.354
80.000	122.872	79.984	19.992	100.174	19.916	4.285	0.368
82.000	123.629	79.984	19.993	100.161	19.917	4.185	0.374
84.000	124.396	79.983	19.993	100.176	19.920	3.951	0.391
86.000	125.169	79.983	19.992	100.182	19.918	4.097	0.405
88.000	126.017	79.983	19.992	100.174	19.915	4.361	0.397
90.000	126.842	79.984	19.992	100.181	19.914	4.367	0.431
92.001	127.632	79.984	19.991	100.180	19.917	4.175	0.418
94.000	128.502	79.984	19.991	100.178	19.916	4.217	0.415
96.001	129.393	79.985	19.992	100.176	19.917	4.194	0.443
98.001	130.233	79.985	19.991	100.183	19.917	4.169	0.421
100.001	131.119	79.983	19.991	100.179	19.915	4.305	0.462
102.000	132.012	79.986	19.993	100.172	19.918	4.119	0.463
104.000	132.908	79.985	19.992	100.174	19.919	4.063	0.436
106.001	133.829	79.985	19.992	100.164	19.922	3.820	0.458
108.001	134.780	79.984	19.992	100.164	19.917	4.192	0.478
110.001	135.711	79.984	19.991	100.171	19.920	3.938	0.501
112.000	136.663	79.983	19.992	100.171	19.921	3.915	0.510
114.000	137.602	79.983	19.991	100.175	19.916	4.231	0.451
116.000	138.543	79.983	19.992	100.155	19.919	4.060	0.495
118.000	139.567	79.984	19.992	100.159	19.916	4.220	0.493
120.000	140.580	79.984	19.993	100.155	19.921	3.906	0.484
122.000	141.497	79.984	19.992	100.162	19.922	3.814	0.463
124.000	142.466	79.986	19.992	100.165	19.920	3.977	0.506
126.001	143.491	79.986	19.992	100.166	19.921	3.858	0.471
128.000	144.441	79.985	19.992	100.158	19.919	4.006	0.494
130.000	145.437	79.986	19.992	100.157	19.916	4.224	0.485
132.000	146.432	79.985	19.992	100.090	19.919	4.014	0.506
134.000	147.444	79.986	19.991	100.213	19.922	3.840	0.533
136.000	148.407	79.985	19.992	100.202	19.918	4.072	0.471
138.000	149.448	79.985	19.992	100.149	19.921	3.848	0.533
140.000	150.462	79.985	19.993	100.152	19.921	3.892	0.520
142.000	151.454	79.984	19.993	100.146	19.918	4.108	0.490
144.000	152.449	79.985	19.993	100.146	19.921	3.876	0.480
146.000	153.476	79.986	19.991	100.145	19.921	3.896	0.532
148.000	154.452	79.985	19.991	100.146	19.919	4.016	0.484
150.000	155.440	79.988	19.992	100.144	19.922	3.818	0.500
152.001	156.461	79.986	19.991	100.141	19.925	3.598	0.488
154.000	157.476	79.986	19.991	100.145	19.920	3.972	0.502
156.000	158.484	79.988	19.991	100.143	19.920	3.973	0.524
158.000	159.507	79.985	19.993	100.143	19.921	3.905	0.514
160.000	160.538	79.985	19.993	100.142	19.923	3.738	0.501
162.000	161.506	79.985	19.993	100.142	19.925	3.573	0.493
164.000	162.497	79.984	19.993	100.140	19.922	3.822	0.499
166.000	163.498	79.985	19.993	100.132	19.924	3.691	0.475
168.000	164.516	79.984	19.993	100.130	19.919	3.995	0.524
170.000	165.496	79.985	19.993	100.139	19.924	3.685	0.456
172.000	166.531	79.985	19.992	100.134	19.923	3.749	0.494
174.000	167.553	79.984	19.992	100.137	19.927	3.430	0.516
176.000	168.527	79.985	19.992	100.137	19.924	3.623	0.466
178.000	169.509	79.984	19.991	100.131	19.927	3.453	0.485
180.000	170.524	79.983	19.992	100.118	19.924	3.637	0.507
182.000	171.494	79.984	19.991	100.129	19.922	3.799	0.456
184.000	172.545	79.984	19.992	100.107	19.924	3.631	0.518
186.000	173.499	79.985	19.992	100.116	19.926	3.483	0.461
188.000	174.539	79.985	19.992	100.117	19.928	3.325	0.503
190.000	175.491	79.983	19.993	100.124	19.928	3.381	0.481
192.000	176.512	79.985	19.992	100.118	19.929	3.259	0.524
194.000	177.449	79.985	19.992	100.117	19.932	3.081	0.472
196.000	178.469	79.984	19.992	100.113	19.929	3.261	0.513
198.000	179.459	79.984	19.992	100.121	19.934	2.893	0.461
200.000	180.450	79.985	19.991	100.112	19.930	3.223	0.504
202.000	181.484	79.985	19.992	100.116	19.934	2.921	0.519
204.000	182.460	79.986	19.991	100.113	19.929	3.247	0.496
206.000	183.447	79.988	19.992	100.113	19.932	3.063	0.467
208.000	184.493	79.987	19.992	100.106	19.931	3.145	0.521
210.000	185.474	79.986	19.992	100.106	19.931	3.145	0.514
212.000	186.501	79.986	19.991	100.108	19.931	3.149	0.520
214.000	187.465	79.985	19.992	100.106	19.932	3.062	0.489
216.000	188.484	79.985	19.993	100.110	19.930	3.224	0.483
218.000	189.432	79.986	19.992	100.106	19.932	3.041	0.469
220.000	190.415	79.985	19.991	100.109	19.934	2.937	0.478
222.000	191.406	79.985	19.993	100.109	19.932	3.051	0.494
224.001	192.335	79.986	19.992	100.103	19.933	3.020	0.478
226.000	193.382	79.987	19.993	100.103	19.933	3.017	0.522
228.000	194.290	79.986	19.992	100.103	19.932	3.082	0.480
230.000	195.255	79.987	19.992	100.102	19.933	3.019	0.463
232.000	196.263	79.988	19.992	100.102	19.934	2.908	0.471
234.000	197.241	79.986	19.992	100.101	19.931	3.150	0.477
236.000	198.220	79.986	19.992	100.102	19.933	2.977	0.502
238.000	199.188	79.985	19.991	100.102	19.931	3.118	0.483
240.000	200.156	79.985	19.991	100.102	19.932	3.042	0.495
242.000	201.155	79.985	19.993	100.097	19.932	3.066	0.467
244.000	202.159	79.984	19.992	100.096	19.935	2.842	0.516
246.000	203.129	79.985	19.994	100.101	19.940	2.467	0.494
248.000	204.076	79.984	19.994	100.101	19.934	2.902	0.451
250.000	205.113	79.983	19.992	100.099	19.933	2.986	0.484
252.000	206.090	79.985	19.994	100.096	19.939	2.566	0.505
254.000	207.091	79.985	19.993	100.092	19.941	2.421	0.464
256.000	208.088	79.983	19.993	100.095	19.939	2.566	0.486
258.000	209.122	79.983	19.993	100.095	19.937	2.693	0.519
260.000	210.125	79.985	19.992	100.098	19.935	2.838	0.529
262.000	211.087	79.984	19.991	100.095	19.934	2.880	0.484
264.000	212.055	79.983	19.992	100.095	19.936	2.761	0.492
266.000	213.078	79.985	19.991	100.093	19.938	2.591	0.505
268.000	214.086	79.984	19.991	100.094	19.938	2.645	0.505
270.000	215.072	79.983	19.993	100.099	19.938	2.625	0.497
272.000	216.006	79.985	19.992	100.092	19.938	2.644	0.466
274.000	216.993	79.983	19.992	100.101	19.937	2.691	0.485
276.000	218.003	79.983	19.992	100.103	19.938	2.601	0.498
278.000	219.032	79.984	19.992	100.098	19.939	2.512	0.506
280.000	220.004	79.984	19.992	100.099	19.938	2.608	0.488
282.000	221.007	79.984	19.992	100.090	19.938	2.593	0.522
284.000	222.022	79.985	19.991	100.057	19.938	2.598	0.518
286.000	222.973	79.986	19.992	100.014	19.939	2.511	0.479
288.000	223.936	79.985	19.992	100.156	19.942	2.342	0.480
290.000	224.991	79.986	19.991	100.099	19.940	2.490	0.523
292.000	225.988	79.987	19.991	100.089	19.939	2.572	0.506
294.000	226.995	79.984	19.991	100.092	19.938	2.592	0.521
296.000	227.995	79.985	19.991	100.088	19.939	2.524	0.519
298.000	229.013	79.985	19.992	100.082	19.937	2.696	0.530
300.000	230.004	79.985	19.991	100.069	19.939	2.528	0.509
302.000	231.033	79.984	19.992	100.072	19.939	2.549	0.507
304.000	231.997	79.985	19.991	100.074	19.940	2.490	0.501
306.000	232.949	79.986	19.991	100.077	19.939	2.520	0.467
308.000	233.963	79.985	19.992	100.075	19.937	2.672	0.493
310.000	234.976	79.987	19.992	100.073	19.936	2.734	0.480
312.000	235.915	79.987	19.992	100.064	19.938	2.648	0.481
314.000	236.982	79.987	19.992	100.000	19.936	2.734	0.515
316.000	237.937	79.987	19.993	100.138	19.934	2.938	0.483
318.000	238.947	79.985	19.992	100.102	19.940	2.464	0.495
320.000	239.966	79.985	19.992	100.081	19.941	2.402	0.505
322.000	240.923	79.984	19.992	100.075	19.943	2.239	0.507
324.000	241.943	79.984	19.991	100.082	19.940	2.478	0.523
326.000	242.946	79.984	19.992	100.071	19.943	2.232	0.497
328.000	243.925	79.983	19.992	100.078	19.944	2.138	0.490
330.000	244.861	79.984	19.992	100.074	19.943	2.210	0.499
332.000	245.939	79.983	19.993	100.086	19.944	2.166	0.518
334.000	246.965	79.983	19.993	100.079	19.941	2.372	0.508
336.000	247.928	79.983	19.993	100.077	19.943	2.246	0.496
338.000	248.973	79.984	19.992	100.072	19.939	2.504	0.519
340.000	250.020	79.983	19.993	100.073	19.936	2.728	0.531
342.001	251.014	79.984	19.992	100.076	19.940	2.502	0.484
344.000	252.051	79.985	19.993	100.070	19.940	2.469	0.499
346.000	253.052	79.982	19.992	100.071	19.937	2.670	0.508
348.000	254.022	79.983	19.993	100.072	19.941	2.376	0.495
350.000	255.071	79.985	19.993	100.071	19.936	2.796	0.510
352.000	256.045	79.983	19.993	100.068	19.937	2.666	0.507
354.000	257.032	79.984	19.992	100.067	19.936	2.738	0.508
356.000	258.040	79.983	19.992	100.008	19.937	2.658	0.525
358.000	259.040	79.984	19.991	100.117	19.937	2.658	0.521
360.000	260.018	79.985	19.992	100.105	19.940	2.490	0.490
362.000	261.044	79.985	19.991	100.067	19.940	2.446	0.521
364.000	262.039	79.985	19.992	100.066	19.935	2.865	0.498
366.000	263.018	79.986	19.992	100.067	19.938	2.620	0.491
368.000	263.985	79.987	19.992	100.067	19.941	2.382	0.469
370.000	265.054	79.985	19.992	100.066	19.945	2.108	0.505
372.000	266.024	79.984	19.991	100.066	19.937	2.652	0.472
374.000	267.046	79.985	19.991	100.064	19.937	2.678	0.486
376.000	268.031	79.985	19.992	100.063	19.947	1.958	0.494
378.000	269.023	79.985	19.993	100.063	19.939	2.560	0.500
380.000	270.033	79.985	19.991	100.065	19.941	2.410	0.522
382.000	271.129	79.985	19.991	100.065	19.939	2.538	0.552
384.000	272.097	79.985	19.992	100.067	19.938	2.596	0.493
386.001	273.055	79.985	19.992	100.075	19.941	2.364	0.493
388.000	274.144	79.987	19.992	100.073	19.938	2.578	0.548
390.000	275.158	79.987	19.992	100.065	19.937	2.670	0.541
392.000	276.145	79.986	19.992	100.071	19.935	2.848	0.499
394.001	277.123	79.987	19.992	100.067	19.937	2.668	0.410
396.000	278.099	79.986	19.991	100.066	19.938	2.644	0.485
398.000	279.143	79.985	19.992	100.066	19.938	2.634	0.529
400.000	280.130	79.984	19.993	100.063	19.935	2.804	0.512
402.000	281.098	79.984	19.992	100.063	19.933	2.985	0.503
404.000	282.058	79.984	19.993	100.066	19.940	2.466	0.476
406.000	283.063	79.984	19.992	100.066	19.938	2.588	0.511
408.000	284.083	79.983	19.992	100.068	19.936	2.737	0.395
410.000	285.128	79.985	19.991	100.066	19.936	2.748	0.521
412.000	286.032	79.985	19.991	100.064	19.945	2.060	0.463
414.000	287.057	79.983	19.992	100.061	19.936	2.795	0.489
416.000	288.115	79.984	19.992	100.061	19.936	2.741	0.499
418.000	289.172	79.985	19.992	100.058	19.936	2.785	0.530
420.000	290.075	79.983	19.993	100.060	19.933	2.957	0.507
422.000	291.153	79.984	19.992	100.063	19.937	2.670	0.533
424.000	292.060	79.983	19.993	100.061	19.936	2.762	0.514
426.000	293.060	79.983	19.993	100.060	19.935	2.805	0.483
428.000	294.100	79.983	19.992	100.061	19.933	3.021	0.478
430.000	295.089	79.983	19.993	100.058	19.936	2.738	0.507
432.000	296.099	79.983	19.992	100.062	19.934	2.927	0.493
434.000	297.054	79.983	19.993	100.062	19.937	2.668	0.482
436.000	298.057	79.982	19.993	100.062	19.934	2.905	0.498
438.000	299.068	79.983	19.992	100.061	19.933	3.007	0.498
440.000	300.004	79.985	19.993	100.059	19.932	3.039	0.513
442.000	301.003	79.985	19.992	100.063	19.932	3.057	0.455
444.000	302.053	79.985	19.992	100.065	19.932	3.025	0.493
446.000	303.008	79.986	19.992	100.062	19.932	3.027	0.464
448.000	304.006	79.986	19.992	100.063	19.934	2.917	0.507
450.000	305.009	79.986	19.992	100.065	19.929	3.275	0.504
452.000	306.040	79.984	19.991	100.059	19.928	3.325	0.511
454.000	307.003	79.986	19.992	100.065	19.931	3.103	0.479
456.000	308.041	79.984	19.992	100.058	19.930	3.173	0.514
458.000	309.016	79.985	19.992	100.061	19.933	3.015	0.494
460.000	310.034	79.984	19.993	100.065	19.932	3.041	0.481
462.000	311.098	79.985	19.991	100.061	19.931	3.165	0.482
464.000	312.074	79.984	19.992	100.065	19.929	3.311	0.496
466.000	313.101	79.986	19.992	100.065	19.929	3.273	0.490
468.000	314.159	79.988	19.991	100.064	19.933	2.963	0.504
470.000	315.142	79.988	19.991	100.057	19.928	3.333	0.476
472.000	316.161	79.987	19.992	100.061	19.928	3.373	0.496
474.000	317.128	79.987	19.990	100.066	19.930	3.225	0.489
476.000	318.156	79.988	19.991	100.058	19.927	3.423	0.534
478.000	319.119	79.985	19.992	100.060	19.929	3.261	0.469
480.000	320.101	79.984	19.991	100.058	19.927	3.463	0.466
482.000	321.149	79.985	19.991	100.055	19.926	3.506	0.514
484.000	322.105	79.984	19.991	100.057	19.928	3.353	0.494
486.000	323.108	79.985	19.992	100.059	19.930	3.199	0.511
488.000	324.085	79.984	19.993	100.062	19.930	3.243	0.495
490.000	325.141	79.985	19.994	100.060	19.927	3.431	0.539
492.001	326.110	79.985	19.993	100.045	19.928	3.370	0.496
494.000	327.119	79.983	19.993	100.055	19.926	3.471	0.493
496.000	328.092	79.985	19.993	100.059	19.928	3.343	0.486
498.000	329.077	79.983	19.992	100.053	19.923	3.742	0.464
500.000	330.086	79.987	19.993	100.049	19.924	3.660	0.494
502.000	331.083	79.986	19.992	100.053	19.921	3.884	0.502
504.000	332.086	79.984	19.992	100.044	19.925	3.565	0.510
506.000	333.099	79.985	19.992	100.058	19.922	3.825	0.517
508.000	334.069	79.984	19.994	100.055	19.921	3.864	0.470
510.000	335.078	79.983	19.993	100.048	19.923	3.728	0.503
512.000	336.028	79.985	19.994	100.059	19.923	3.696	0.495
514.000	337.045	79.985	19.993	100.063	19.924	3.682	0.478
516.000	338.026	79.985	19.993	100.064	19.919	3.998	0.478
518.000	339.032	79.982	19.993	100.061	19.916	4.240	0.507
520.000	340.067	79.983	19.992	100.055	19.915	4.308	0.500
522.000	341.085	79.984	19.992	100.055	19.914	4.372	0.526
524.000	342.112	79.984	19.993	100.051	19.918	4.116	0.549
526.000	343.097	79.986	19.992	100.048	19.916	4.276	0.496
528.000	344.062	79.984	19.993	100.056	19.914	4.418	0.499
530.000	345.044	79.984	19.991	100.046	19.912	4.538	0.499
532.000	346.031	79.985	19.991	100.055	19.912	4.552	0.507
534.000	347.052	79.983	19.992	100.047	19.912	4.574	0.483
536.000	348.068	79.984	19.991	100.062	19.913	4.442	0.526
538.000	349.126	79.985	19.992	100.068	19.914	4.418	0.541
540.000	350.131	79.985	19.992	100.065	19.908	4.814	0.525
542.000	351.111	79.986	19.993	100.066	19.910	4.706	0.540
544.000	352.201	79.985	19.992	100.061	19.911	4.650	0.545
546.000	353.167	79.987	19.992	100.058	19.907	4.917	0.492
548.000	354.235	79.987	19.992	100.058	19.907	4.917	0.518
550.000	355.284	79.987	19.992	100.060	19.902	5.253	0.521
552.000	356.281	79.987	19.992	100.055	19.912	4.522	0.539
554.000	357.296	79.988	19.992	100.058	19.905	5.093	0.524
556.000	358.308	79.988	19.991	100.058	19.904	5.145	0.539
558.001	359.363	79.986	19.992	100.056	19.907	4.947	0.502
560.000	360.314	79.985	19.992	100.057	19.905	5.045	0.439
562.000	361.336	79.987	19.992	100.064	19.903	5.185	0.539
564.000	362.297	79.985	19.991	100.062	19.903	5.181	0.470
566.000	363.504	79.985	19.993	100.048	19.901	5.379	0.449
568.000	364.378	79.986	19.992	100.058	19.905	5.059	0.665
570.000	365.377	79.985	19.991	100.056	19.899	5.531	0.526
572.000	366.413	79.986	19.992	100.061	19.899	5.521	0.469
574.000	367.429	79.986	19.992	100.058	19.903	5.209	0.516
576.000	368.443	79.985	19.993	100.056	19.904	5.145	0.514
578.000	369.493	79.985	19.992	100.063	19.901	5.337	0.519
580.000	370.440	79.985	19.993	100.061	19.903	5.243	0.457
582.000	371.486	79.984	19.993	100.066	19.905	5.040	0.530
584.000	372.513	79.985	19.993	100.056	19.906	4.957	0.501
586.000	373.532	79.985	19.992	100.049	19.907	4.895	0.550
588.000	374.494	79.984	19.993	100.063	19.905	5.057	0.511
590.000	375.542	79.983	19.992	100.056	19.908	4.850	0.502
592.000	376.584	79.984	19.992	100.050	19.909	4.790	0.489
594.000	377.606	79.983	19.992	100.041	19.908	4.862	0.499
596.000	378.630	79.984	19.992	100.045	19.908	4.816	0.484
598.000	379.637	79.983	19.993	100.057	19.914	4.425	0.527
600.000	380.647	79.984	19.992	100.043	19.915	4.330	0.512
602.000	381.628	79.984	19.993	100.034	19.918	4.067	0.531
604.000	382.637	79.984	19.992	100.033	19.918	4.067	0.521
606.000	383.586	79.984	19.993	100.027	19.922	3.773	0.487
608.000	384.588	79.986	19.993	100.030	19.922	3.767	0.458
610.000	385.568	79.986	19.993	100.022	19.926	3.526	0.495
612.000	386.568	79.986	19.992	100.025	19.928	3.370	0.498
614.000	387.554	79.985	19.992	100.025	19.934	2.880	0.494
616.000	388.604	79.985	19.992	100.025	19.938	2.581	0.490
618.000	389.559	79.986	19.992	100.027	19.941	2.385	0.522
620.000	390.587	79.985	19.992	100.024	19.943	2.219	0.528
622.000	391.590	79.987	19.992	100.025	19.947	1.968	0.517
624.000	392.548	79.987	19.991	100.025	19.949	1.806	0.481
626.000	393.560	79.987	19.992	100.024	19.949	1.768	0.480
628.000	394.580	79.988	19.992	100.024	19.949	1.816	0.516
630.000	395.622	79.988	19.993	100.028	19.949	1.786	0.513
632.000	396.621	79.987	19.991	100.025	19.951	1.626	0.530
634.000	397.593	79.988	19.992	100.025	19.952	1.546	0.511
636.000	398.622	79.987	19.991	100.024	19.954	1.404	0.517
638.000	399.622	79.986	19.992	100.024	19.955	1.348	0.486
640.000	400.643	79.985	19.992	100.024	19.956	1.304	0.504
642.000	401.571	79.985	19.992	100.029	19.956	1.288	0.468
644.000	402.605	79.986	19.992	100.030	19.959	1.061	0.513
646.000	403.612	79.984	19.991	100.027	19.956	1.254	0.496
648.000	404.652	79.986	19.992	100.031	19.955	1.346	0.515
650.000	405.651	79.984	19.992	100.028	19.954	1.400	0.499
652.000	406.667	79.985	19.992	100.028	19.956	1.250	0.493
654.000	407.668	79.984	19.992	100.028	19.954	1.410	0.504
656.000	408.670	79.986	19.992	100.028	19.957	1.175	0.495
658.000	409.711	79.985	19.991	100.028	19.957	1.224	0.520
660.000	410.705	79.985	19.992	100.032	19.956	1.272	0.482
662.000	411.725	79.984	19.992	100.030	19.957	1.236	0.501
664.000	412.744	79.985	19.992	100.021	19.957	1.228	0.523
666.000	413.714	79.983	19.992	100.023	19.957	1.204	0.500
668.000	414.687	79.985	19.992	100.027	19.960	0.979	0.492
670.000	415.707	79.983	19.993	100.025	19.960	0.973	0.534
672.000	416.734	79.984	19.992	100.025	19.958	1.139	0.529
674.000	417.717	79.985	19.992	100.026	19.958	1.107	0.522
676.000	418.742	79.984	19.992	100.025	19.958	1.133	0.521
678.000	419.718	79.985	19.993	100.026	19.956	1.282	0.502
680.000	420.749	79.987	19.992	100.026	19.959	1.029	0.495
682.000	421.724	79.987	19.993	100.025	19.961	0.907	0.483
684.000	422.759	79.986	19.992	100.025	19.961	0.921	0.508
686.000	423.713	79.985	19.993	100.024	19.960	1.009	0.496
688.000	424.720	79.986	19.993	100.024	19.957	1.214	0.487
690.000	425.746	79.985	19.993	100.023	19.959	1.031	0.525
692.000	426.761	79.985	19.993	100.024	19.959	1.081	0.484
694.000	427.756	79.985	19.994	100.023	19.960	1.015	0.511
696.000	428.805	79.985	19.994	100.021	19.956	1.274	0.502
698.000	429.795	79.983	19.994	100.021	19.961	0.891	0.494
700.000	430.792	79.985	19.993	100.022	19.963	0.737	0.472
702.000	431.814	79.985	19.994	100.021	19.961	0.909	0.522
704.000	432.794	79.984	19.992	100.026	19.963	0.765	0.493
706.000	433.863	79.986	19.991	100.026	19.961	0.899	0.519
708.000	434.905	79.986	19.992	100.026	19.961	0.927	0.523
710.000	435.917	79.990	19.991	100.020	19.962	0.871	0.511
712.000	436.951	79.987	19.991	100.027	19.961	0.883	0.522
714.001	437.947	79.987	19.992	100.026	19.960	0.963	0.496
716.000	438.993	79.987	19.991	100.017	19.962	0.819	0.498
718.001	440.012	79.984	19.991	100.026	19.964	0.719	0.527
720.001	440.991	79.985	19.991	100.023	19.962	0.851	0.505
722.000	442.019	79.984	19.992	100.025	19.956	1.282	0.521
724.000	443.026	79.983	19.991	100.029	19.958	1.101	0.508
726.000	443.986	79.983	19.992	100.029	19.959	1.041	0.514
728.000	445.002	79.984	19.992	100.029	19.957	1.240	0.478
730.000	446.031	79.984	19.992	100.024	19.957	1.232	0.509
732.000	447.051	79.984	19.992	100.024	19.957	1.196	0.504
734.000	448.056	79.984	19.992	100.022	19.960	0.985	0.506
736.000	449.060	79.985	19.992	100.027	19.964	0.707	0.501
738.000	450.085	79.984	19.992	100.027	19.962	0.867	0.529
740.000	451.055	79.986	19.991	100.024	19.961	0.945	0.532
742.000	452.112	79.985	19.991	100.024	19.962	0.867	0.528
744.000	453.069	79.985	19.991	100.023	19.958	1.129	0.490
746.000	454.080	79.986	19.992	100.026	19.960	1.001	0.472
748.000	455.143	79.983	19.992	100.024	19.959	1.061	0.519
750.000	456.138	79.984	19.992	100.019	19.960	1.005	0.509
752.000	457.204	79.984	19.993	100.015	19.960	0.957	0.504
754.000	458.195	79.984	19.993	100.022	19.961	0.899	0.510
756.000	459.225	79.983	19.993	100.025	19.961	0.945	0.539
758.000	460.196	79.985	19.992	100.020	19.960	0.957	0.469
760.000	461.268	79.985	19.993	100.017	19.959	1.027	0.521
762.000	462.253	79.986	19.992	100.023	19.961	0.891	0.488
764.000	463.257	79.986	19.992	100.025	19.963	0.741	0.506
766.000	464.287	79.986	19.992	100.024	19.959	1.033	0.517
768.000	465.324	79.987	19.992	100.025	19.963	0.735	0.535
770.000	466.299	79.987	19.992	100.027	19.962	0.839	0.498
772.000	467.296	79.985	19.992	100.025	19.960	0.963	0.502
774.000	468.359	79.984	19.992	100.019	19.962	0.803	0.503
776.000	469.381	79.986	19.992	100.017	19.963	0.743	0.506
778.000	470.390	79.984	19.993	100.027	19.964	0.693	0.508
780.000	471.415	79.986	19.993	100.027	19.964	0.665	0.527
782.000	472.481	79.986	19.993	100.027	19.961	0.879	0.520
784.000	473.501	79.986	19.993	100.026	19.961	0.923	0.543
786.000	474.551	79.986	19.992	100.024	19.960	0.961	0.509
788.000	475.596	79.987	19.991	100.025	19.957	1.175	0.534
790.000	476.601	79.987	19.992	100.028	19.960	0.987	0.512
792.000	477.605	79.987	19.992	100.025	19.963	0.797	0.516
794.000	478.650	79.987	19.991	100.021	19.963	0.747	0.521
796.000	479.635	79.986	19.992	100.024	19.963	0.723	0.482
798.000	480.691	79.985	19.991	100.024	19.960	1.009	0.507
800.000	481.651	79.986	19.992	100.025	19.958	1.095	0.481
802.000	482.703	79.985	19.991	100.024	19.962	0.843	0.531
804.000	483.720	79.985	19.992	100.025	19.960	0.973	0.514
806.000	484.734	79.983	19.992	100.025	19.960	1.009	0.532
808.000	485.749	79.986	19.991	100.023	19.963	0.769	0.476
810.000	486.759	79.985	19.992	100.012	19.966	0.537	0.509
812.000	487.755	79.986	19.992	100.023	19.963	0.777	0.463
814.000	488.790	79.986	19.992	100.013	19.966	0.527	0.521
816.000	489.791	79.986	19.993	100.016	19.964	0.667	0.505
818.000	490.817	79.986	19.992	100.023	19.961	0.887	0.507
820.000	491.822	79.985	19.991	100.017	19.962	0.823	0.481
822.000	492.895	79.985	19.992	100.022	19.963	0.773	0.551
824.000	493.895	79.987	19.992	100.016	19.964	0.719	0.510
826.000	494.933	79.983	19.991	100.005	19.963	0.759	0.500
828.000	495.925	79.985	19.991	100.007	19.963	0.781	0.506
830.000	496.988	79.983	19.992	100.027	19.961	0.893	0.517
832.000	498.014	79.982	19.992	100.026	19.970	0.276	0.523
834.000	498.992	79.984	19.991	100.024	19.966	0.563	0.469
836.000	500.034	79.985	19.992	100.021	19.968	0.380	0.513
838.000	501.085	79.984	19.992	100.022	19.965	0.579	0.518
840.000	502.120	79.986	19.992	100.019	19.967	0.485	0.522
842.000	503.138	79.984	19.993	100.027	19.968	0.409	0.526
844.000	504.177	79.985	19.993	100.022	19.972	0.114	0.538
846.000	505.253	79.986	19.993	100.024	19.973	0.054	0.528
848.000	506.230	79.986	19.992	100.027	19.971	0.136	0.475
850.000	507.282	79.985	19.991	100.022	19.968	0.383	0.502
852.000	508.304	79.986	19.992	100.024	19.968	0.361	0.529
854.000	509.354	79.985	19.992	100.024	19.966	0.521	0.524
856.000	510.349	79.986	19.992	100.016	19.972	0.126	0.516
858.000	511.387	79.986	19.993	100.026	19.968	0.391	0.516
860.000	512.415	79.985	19.992	100.016	19.969	0.350	0.500
862.000	513.431	79.986	19.992	100.011	19.966	0.549	0.519
864.000	514.475	79.985	19.993	100.002	19.969	0.320	0.515
866.000	515.489	79.987	19.992	100.013	19.966	0.505	0.497
868.000	516.487	79.988	19.993	100.020	19.965	0.577	0.481
870.000	517.601	79.988	19.992	100.017	19.967	0.493	0.516
872.000	518.557	79.986	19.993	100.017	19.965	0.581	0.476
874.000	519.629	79.986	19.993	100.015	19.971	0.188	0.524
876.000	520.611	79.986	19.994	100.016	19.969	0.326	0.507
878.000	521.618	79.984	19.993	100.019	19.967	0.451	0.510
880.000	522.668	79.985	19.992	100.021	19.968	0.364	0.497
882.000	523.678	79.986	19.992	100.018	19.970	0.242	0.516
884.000	524.730	79.985	19.992	100.020	19.974	-0.024	0.571
886.000	525.739	79.985	19.992	100.023	19.973	-0.010	0.498
888.000	526.765	79.985	19.991	100.021	19.972	0.076	0.514
890.000	527.813	79.983	19.992	100.018	19.971	0.156	0.517
892.000	528.837	79.985	19.991	100.013	19.972	0.112	0.492
894.000	529.905	79.984	19.991	100.013	19.974	-0.056	0.527
896.000	530.950	79.985	19.991	100.019	19.972	0.112	0.529
898.000	531.986	79.984	19.992	100.006	19.974	-0.044	0.533
900.000	533.006	79.986	19.991	100.020	19.972	0.116	0.501
902.000	534.045	79.985	19.991	100.014	19.971	0.142	0.512
904.000	535.064	79.984	19.992	100.012	19.970	0.220	0.498
906.000	536.093	79.984	19.993	100.015	19.972	0.062	0.525
908.000	537.168	79.983	19.992	100.021	19.968	0.355	0.538
910.000	538.144	79.983	19.991	100.019	19.973	-0.004	0.509
912.000	539.156	79.984	19.991	100.011	19.970	0.258	0.495
914.000	540.167	79.985	19.992	100.017	19.971	0.154	0.514
916.000	541.199	79.986	19.992	100.022	19.973	0.020	0.502
918.000	542.205	79.987	19.993	100.011	19.972	0.098	0.515
920.000	543.225	79.985	19.991	100.015	19.973	-0.008	0.532
922.000	544.233	79.985	19.992	100.018	19.973	0.030	0.487
924.000	545.224	79.987	19.993	100.012	19.975	-0.152	0.485
926.000	546.208	79.986	19.992	100.006	19.974	-0.022	0.484
928.000	547.282	79.987	19.992	100.002	19.972	0.110	0.522
930.000	548.281	79.988	19.992	100.003	19.972	0.090	0.515
932.000	549.300	79.985	19.992	100.002	19.972	0.108	0.510
934.001	550.341	79.984	19.992	100.004	19.976	-0.216	0.517
936.000	551.348	79.986	19.993	100.003	19.975	-0.126	0.518
938.000	552.349	79.986	19.992	99.997	19.975	-0.118	0.499
940.000	553.364	79.986	19.993	100.012	19.972	0.076	0.524
942.000	554.392	79.988	19.993	100.017	19.973	0.024	0.480
944.000	555.400	79.987	19.992	100.004	19.977	-0.252	0.481
946.000	556.370	79.987	19.992	100.007	19.971	0.168	0.457
948.000	557.390	79.987	19.993	99.998	19.971	0.146	0.481
950.000	558.443	79.987	19.992	100.014	19.974	-0.042	0.504
952.000	559.417	79.988	19.992	100.002	19.973	0.032	0.489
954.000	560.455	79.986	19.993	100.003	19.973	0.048	0.510
956.000	561.475	79.985	19.993	100.009	19.974	-0.040	0.510
958.000	562.479	79.982	19.994	99.995	19.971	0.140	0.516
960.000	563.441	79.984	19.993	100.010	19.974	-0.066	0.480
962.000	564.523	79.984	19.993	100.002	19.977	-0.260	0.501
964.000	565.600	79.985	19.993	100.001	19.973	-0.008	0.516
966.000	566.513	79.985	19.992	100.013	19.975	-0.118	0.460
968.000	567.620	79.986	19.992	100.008	19.972	0.090	0.558
970.000	568.630	79.984	19.992	100.005	19.976	-0.170	0.515
972.000	569.627	79.983	19.992	100.008	19.975	-0.108	0.511
974.000	570.659	79.984	19.992	100.019	19.976	-0.168	0.520
976.000	571.688	79.983	19.992	100.021	19.972	0.104	0.515
978.000	572.747	79.985	19.992	100.003	19.974	-0.070	0.558
980.000	573.825	79.983	19.991	100.002	19.977	-0.308	0.538
982.001	574.912	79.985	19.992	100.011	19.978	-0.349	0.555
984.000	575.942	79.988	19.991	100.004	19.980	-0.493	0.542
986.000	576.962	79.983	19.991	100.008	19.978	-0.381	0.516
988.001	577.991	79.983	19.992	100.009	19.977	-0.267	0.509
990.001	579.074	79.984	19.992	99.999	19.979	-0.412	0.518
992.000	580.092	79.983	19.992	100.001	19.980	-0.479	0.539
994.000	581.080	79.985	19.992	100.007	19.978	-0.381	0.483
996.000	582.175	79.985	19.992	99.997	19.973	-0.004	0.494
998.000	583.206	79.985	19.992	99.928	19.976	-0.170	0.531
1000.000	584.205	79.985	19.992	100.021	19.978	-0.375	0.514
1002.000	585.226	79.984	19.993	100.064	19.974	-0.088	0.495
1004.000	586.248	79.986	19.992	100.004	19.971	0.154	0.501
1006.000	587.252	79.986	19.993	99.996	19.976	-0.190	0.487
1008.000	588.335	79.986	19.992	99.991	19.974	-0.042	0.550
1010.000	589.341	79.986	19.993	99.989	19.978	-0.322	0.513
1012.000	590.341	79.985	19.992	100.012	19.974	-0.060	0.516
1014.000	591.408	79.986	19.992	100.013	19.977	-0.258	0.538
1016.000	592.427	79.986	19.993	99.998	19.978	-0.320	0.514
1018.000	593.477	79.984	19.991	100.003	19.976	-0.224	0.528
1020.000	594.529	79.984	19.993	100.008	19.977	-0.258	0.555
1022.000	595.596	79.985	19.993	100.000	19.977	-0.304	0.506
1024.000	596.647	79.988	19.993	99.997	19.977	-0.304	0.499
1026.000	597.646	79.986	19.992	99.998	19.975	-0.128	0.534
1028.000	598.687	79.986	19.991	100.001	19.974	-0.064	0.536
1030.000	599.716	79.988	19.992	100.002	19.974	-0.088	0.533
1032.001	600.742	79.987	19.992	99.995	19.975	-0.094	0.485
1034.001	601.772	79.987	19.992	99.991	19.976	-0.188	0.533
1036.000	602.793	79.984	19.992	99.999	19.973	0.018	0.527
1038.001	603.815	79.985	19.992	100.002	19.974	-0.046	0.519
1040.000	604.849	79.985	19.992	100.007	19.975	-0.166	0.508
1042.001	605.866	79.985	19.993	100.006	19.977	-0.290	0.503
1044.000	606.871	79.984	19.994	100.002	19.975	-0.142	0.532
1046.001	607.924	79.983	19.993	99.990	19.974	-0.090	0.531
1048.001	608.946	79.983	19.993	99.997	19.975	-0.098	0.510
1050.000	609.983	79.985	19.994	99.996	19.976	-0.200	0.516
1052.000	611.041	79.984	19.992	99.990	19.975	-0.104	0.551
1054.001	612.103	79.985	19.994	100.000	19.976	-0.220	0.537
1056.000	613.135	79.985	19.993	100.006	19.978	-0.361	0.528
1058.000	614.186	79.984	19.992	99.989	19.976	-0.216	0.497
1060.000	615.233	79.986	19.991	100.004	19.981	-0.567	0.531
1062.000	616.300	79.985	19.992	100.004	19.980	-0.473	0.538
1064.001	617.316	79.985	19.992	100.012	19.978	-0.355	0.501
1066.000	618.387	79.984	19.992	100.012	19.979	-0.425	0.536
1068.001	619.380	79.986	19.992	99.999	19.978	-0.320	0.515
1070.000	620.409	79.985	19.993	99.996	19.978	-0.316	0.521
1072.000	621.440	79.985	19.992	99.997	19.977	-0.244	0.511
1074.000	622.454	79.985	19.992	99.996	19.976	-0.234	0.507
1076.001	623.457	79.984	19.993	99.994	19.979	-0.451	0.506
1078.000	624.475	79.986	19.992	100.000	19.977	-0.274	0.486
1080.000	625.468	79.985	19.992	99.995	19.977	-0.260	0.488
1082.000	626.483	79.987	19.993	100.004	19.977	-0.268	0.489
1084.000	627.510	79.986	19.991	100.014	19.974	-0.076	0.513
1086.000	628.527	79.986	19.992	100.015	19.976	-0.178	0.482
1088.000	629.548	79.986	19.991	100.012	19.977	-0.276	0.457
1090.001	630.589	79.987	19.992	99.997	19.981	-0.539	0.509
1092.000	631.596	79.985	19.992	99.992	19.980	-0.489	0.512
1094.000	632.601	79.986	19.992	100.000	19.979	-0.455	0.506
1096.000	633.606	79.989	19.992	100.012	19.977	-0.280	0.510
1098.000	634.658	79.985	19.991	100.010	19.979	-0.403	0.512
1100.000	635.721	79.987	19.992	99.994	19.979	-0.435	0.541
1102.001	636.715	79.985	19.993	99.999	19.979	-0.417	0.519
1104.001	637.719	79.987	19.992	100.006	19.979	-0.459	0.522
1106.000	638.761	79.986	19.992	99.998	19.975	-0.128	0.531
1108.001	639.804	79.987	19.992	100.000	19.980	-0.499	0.518
1110.000	640.823	79.987	19.992	100.000	19.978	-0.357	0.519
1112.000	641.853	79.988	19.993	99.992	19.976	-0.218	0.482
1114.000	642.887	79.986	19.992	99.994	19.974	-0.044	0.510
1116.001	643.916	79.986	19.993	99.998	19.977	-0.264	0.506
1118.001	644.898	79.986	19.992	99.990	19.978	-0.329	0.496
1120.001	645.897	79.985	19.993	99.990	19.979	-0.453	0.515
1122.001	646.935	79.985	19.993	99.991	19.974	-0.084	0.518
1124.001	647.917	79.985	19.993	99.992	19.976	-0.180	0.498
1126.000	648.940	79.984	19.993	99.991	19.977	-0.300	0.515
1128.000	650.001	79.985	19.993	99.998	19.974	-0.058	0.527
1130.000	651.006	79.987	19.992	99.990	19.975	-0.122	0.509
1132.000	652.036	79.987	19.993	100.012	19.979	-0.403	0.533
1134.000	652.999	79.984	19.994	100.005	19.979	-0.455	0.512
1136.000	653.976	79.984	19.993	99.986	19.978	-0.349	0.501
1138.000	655.027	79.986	19.993	99.989	19.975	-0.140	0.532
1140.000	656.047	79.985	19.993	99.996	19.975	-0.104	0.514
1142.000	657.060	79.987	19.993	99.985	19.976	-0.198	0.521
1144.000	658.068	79.985	19.992	99.994	19.978	-0.339	0.505
1146.000	659.063	79.986	19.993	99.990	19.978	-0.363	0.499
1148.000	660.078	79.985	19.992	100.000	19.977	-0.272	0.508
1150.000	661.098	79.985	19.992	99.996	19.975	-0.122	0.538
1152.000	662.098	79.985	19.992	99.994	19.974	-0.050	0.490
1154.000	663.097	79.985	19.992	99.997	19.973	0.030	0.487
1156.000	664.125	79.985	19.991	99.997	19.971	0.174	0.507
1158.000	665.114	79.985	19.992	99.996	19.970	0.256	0.511
1160.000	666.097	79.987	19.992	100.001	19.974	-0.052	0.505
1162.000	667.166	79.985	19.991	99.990	19.974	-0.042	0.545
1164.001	668.127	79.984	19.992	99.989	19.972	0.116	0.474
1166.000	669.132	79.985	19.992	99.994	19.976	-0.208	0.499
1168.000	670.199	79.984	19.991	99.990	19.972	0.110	0.522
1170.001	671.159	79.988	19.992	99.993	19.973	0.024	0.461
1172.000	672.157	79.984	19.992	99.997	19.974	-0.078	0.502
1174.000	673.272	79.986	19.991	99.987	19.977	-0.278	0.570
1176.000	674.273	79.987	19.992	99.990	19.980	-0.473	0.516
1178.000	675.283	79.984	19.991	99.999	19.980	-0.465	0.494
1180.000	676.310	79.986	19.991	100.009	19.979	-0.391	0.515
1182.000	677.317	79.987	19.991	100.010	19.980	-0.485	0.480
1184.001	678.363	79.988	19.991	100.011	19.980	-0.485	0.500
1186.000	679.427	79.985	19.992	99.996	19.979	-0.441	0.503
1188.000	680.405	79.987	19.992	100.004	19.979	-0.399	0.484
1190.000	681.479	79.987	19.993	99.998	19.979	-0.415	0.521
1192.000	682.464	79.988	19.992	99.984	19.980	-0.499	0.531
1194.000	683.480	79.985	19.993	99.987	19.981	-0.573	0.510
1196.001	684.517	79.984	19.992	100.011	19.979	-0.397	0.512
1198.000	685.519	79.983	19.991	99.996	19.979	-0.413	0.480
1200.000	686.538	79.983	19.993	99.990	19.981	-0.571	0.486
1202.000	687.552	79.985	19.993	99.987	19.982	-0.651	0.446
1204.001	688.527	79.986	19.992	99.992	19.978	-0.375	0.492
1206.000	689.554	79.986	19.992	99.990	19.979	-0.403	0.502
1208.000	690.600	79.987	19.992	99.987	19.981	-0.585	0.520
1210.000	691.608	79.984	19.992	99.989	19.978	-0.351	0.483
1212.000	692.611	79.984	19.992	99.990	19.979	-0.441	0.498
1214.000	693.621	79.984	19.992	99.990	19.977	-0.266	0.489
1216.000	694.660	79.985	19.993	99.991	19.976	-0.228	0.514
1218.000	695.680	79.984	19.993	99.987	19.976	-0.216	0.497
1220.000	696.691	79.984	19.993	99.989	19.978	-0.332	0.511
1222.000	697.725	79.983	19.993	99.985	19.977	-0.312	0.542
1224.001	698.668	79.983	19.993	99.986	19.974	-0.054	0.463
1226.000	699.754	79.983	19.994	99.988	19.977	-0.286	0.536
1228.001	700.743	79.985	19.994	99.994	19.978	-0.317	0.497
1230.001	701.726	79.985	19.992	100.004	19.977	-0.260	0.516
1232.001	702.758	79.985	19.993	100.008	19.977	-0.290	0.518
1234.000	703.744	79.984	19.992	99.990	19.978	-0.321	0.444
1236.001	704.792	79.985	19.992	99.993	19.974	-0.062	0.502
1238.000	705.810	79.986	19.992	99.987	19.976	-0.238	0.523
1240.000	706.824	79.986	19.991	99.988	19.979	-0.389	0.531
1242.000	707.795	79.987	19.992	99.985	19.976	-0.196	0.514
1244.000	708.859	79.985	19.992	99.983	19.980	-0.473	0.500
1246.001	709.848	79.986	19.992	99.984	19.978	-0.325	0.490
1248.000	710.868	79.987	19.992	99.986	19.980	-0.463	0.513
1250.000	711.888	79.985	19.992	99.985	19.974	-0.072	0.515
1252.001	712.933	79.984	19.993	99.988	19.976	-0.184	0.554
1254.000	713.915	79.987	19.992	99.995	19.978	-0.377	0.499
1256.001	714.956	79.985	19.991	99.984	19.981	-0.565	0.510
1258.000	716.018	79.985	19.991	99.984	19.978	-0.325	0.525
1260.000	716.995	79.987	19.992	99.985	19.978	-0.337	0.461
1262.000	718.044	79.990	19.992	99.985	19.978	-0.351	0.505
1264.000	719.056	79.989	19.992	99.983	19.975	-0.164	0.568
1266.001	720.055	79.989	19.992	99.982	19.977	-0.270	0.491
1268.000	721.066	79.987	19.992	99.983	19.979	-0.439	0.526
1270.000	722.105	79.989	19.991	99.986	19.976	-0.212	0.480
1272.001	723.127	79.985	19.992	99.990	19.976	-0.202	0.499
1274.000	724.127	79.988	19.991	99.988	19.979	-0.411	0.503
1276.000	725.104	79.986	19.992	99.988	19.978	-0.379	0.498
1278.000	726.106	79.985	19.992	99.989	19.976	-0.228	0.519
1280.000	727.057	79.981	19.993	99.990	19.975	-0.148	0.521
1282.000	728.083	79.986	19.993	99.988	19.976	-0.194	0.515
1284.001	729.089	79.986	19.992	99.988	19.975	-0.154	0.530
1286.000	730.087	79.985	19.992	99.991	19.976	-0.178	0.528
1288.001	731.103	79.985	19.993	99.990	19.978	-0.345	0.506
1290.000	732.078	79.983	19.991	99.988	19.975	-0.142	0.473
1292.000	733.077	79.983	19.992	99.988	19.979	-0.421	0.507
1294.000	734.077	79.988	19.992	99.989	19.977	-0.278	0.509
1296.000	735.034	79.982	19.992	99.992	19.980	-0.477	0.469
1298.000	736.020	79.985	19.992	99.990	19.981	-0.563	0.485
1300.000	737.006	79.984	19.993	99.986	19.976	-0.192	0.498
1302.000	737.988	79.984	19.992	99.992	19.974	-0.050	0.490
1304.001	739.004	79.983	19.993	99.986	19.975	-0.114	0.538
1306.000	740.025	79.985	19.993	99.985	19.974	-0.030	0.538
1308.000	741.013	79.985	19.993	99.985	19.974	-0.080	0.472
1310.000	742.071	79.983	19.992	99.984	19.980	-0.501	0.524
1312.000	743.073	79.983	19.993	99.985	19.980	-0.479	0.529
1313.000	743.608	79.985	19.993	99.985	19.977	-0.276	0.509