File: 01_Data/Fiber_Cement_Board/MCC/Fiber_Cement_Board_30K_min_210608_R3.txt
Sample ID:	C:\MCC\MCC Cal\Test\Fiber_Cement_Board\Fiber_Cement_Board_30_3.txt
Sample Weight (mg):	4.56
Heating Rate (C/s):	0.5
Combustor Temp (C):	900
N2 Flow Rate (cc/min):	80
O2 Flow Rate (cc/min):	20
Calibration File:	C:\MCC\MCC Cal\Coeff1 JN10440_30_210304.txt.txt
T Correction Coefficients:	0	1.024463	0
Time Shift (s):	14
*
Time (s)	Temperature (C)	N2 flow rate (cc/min)	O2 flow rate (cc/min)	Flow Rate (cc/min)	Oxygen (%)	HRR (W/g)	Heating rate (C/s)
0.000	110.397	79.984	19.992	99.910	19.956	-0.433	0.004
2.001	110.354	79.986	19.993	99.913	19.952	-0.159	0.010
4.000	110.362	79.985	19.994	99.933	19.955	-0.330	0.005
6.000	110.356	79.985	19.993	99.916	19.953	-0.229	0.005
8.000	110.341	79.983	19.993	99.932	19.952	-0.125	0.011
10.001	110.336	79.985	19.992	99.952	19.947	0.205	0.015
12.001	110.323	79.985	19.992	99.959	19.949	0.076	0.000
14.001	110.381	79.985	19.993	99.991	19.945	0.362	0.016
16.000	110.425	79.983	19.992	99.999	19.939	0.736	0.017
18.000	110.444	79.984	19.992	99.994	19.940	0.662	0.013
20.000	110.553	79.984	19.991	100.005	19.936	0.933	0.047
22.000	110.625	79.984	19.991	100.049	19.931	1.283	0.050
24.000	110.714	79.986	19.992	100.050	19.933	1.180	0.033
26.000	110.868	79.986	19.992	100.058	19.929	1.391	0.061
28.000	110.999	79.987	19.992	100.050	19.930	1.354	0.099
30.000	111.201	79.985	19.991	100.025	19.932	1.198	0.104
32.000	111.377	79.986	19.992	100.013	19.929	1.392	0.108
34.000	111.541	79.986	19.992	100.015	19.930	1.347	0.096
36.000	111.754	79.985	19.991	100.036	19.928	1.493	0.118
38.000	111.969	79.987	19.992	100.067	19.925	1.667	0.092
40.001	112.254	79.985	19.991	100.082	19.921	1.957	0.108
42.000	112.471	79.985	19.992	100.102	19.921	1.944	0.096
44.001	112.758	79.985	19.992	100.105	19.921	1.995	0.149
46.001	113.077	79.986	19.991	100.110	19.916	2.294	0.138
48.000	113.407	79.986	19.991	100.124	19.916	2.342	0.174
50.001	113.780	79.986	19.992	100.133	19.916	2.322	0.185
52.001	114.230	79.986	19.993	100.119	19.913	2.521	0.224
54.001	114.582	79.988	19.992	100.118	19.915	2.361	0.203
56.001	115.024	79.987	19.992	100.102	19.915	2.365	0.211
58.000	115.457	79.987	19.993	100.112	19.918	2.166	0.181
60.001	115.944	79.987	19.991	100.117	19.914	2.420	0.218
62.001	116.423	79.986	19.992	100.103	19.913	2.489	0.239
64.000	116.935	79.985	19.993	100.109	19.915	2.367	0.298
66.001	117.412	79.986	19.992	100.124	19.915	2.384	0.257
68.000	117.982	79.986	19.993	100.135	19.910	2.749	0.285
70.000	118.485	79.985	19.992	100.131	19.912	2.567	0.256
72.000	119.047	79.985	19.991	100.138	19.910	2.720	0.279
74.001	119.628	79.985	19.992	100.140	19.910	2.704	0.269
76.001	120.193	79.985	19.993	100.142	19.907	2.909	0.286
78.001	120.809	79.986	19.993	100.144	19.910	2.719	0.307
80.000	121.471	79.987	19.993	100.147	19.899	3.515	0.322
82.000	122.098	79.985	19.993	100.164	19.904	3.123	0.320
84.000	122.801	79.985	19.993	100.175	19.905	3.103	0.313
86.000	123.463	79.987	19.992	100.176	19.903	3.203	0.325
88.000	124.162	79.984	19.992	100.174	19.905	3.099	0.351
90.000	124.872	79.984	19.992	100.178	19.897	3.635	0.368
92.001	125.603	79.985	19.993	100.179	19.901	3.356	0.377
94.000	126.347	79.983	19.991	100.189	19.901	3.328	0.370
96.000	127.115	79.985	19.991	100.182	19.901	3.338	0.373
98.001	127.913	79.984	19.992	100.180	19.901	3.330	0.410
100.000	128.747	79.983	19.990	100.180	19.906	2.981	0.411
102.000	129.570	79.985	19.993	100.183	19.901	3.352	0.401
104.000	130.384	79.985	19.991	100.184	19.903	3.241	0.432
106.000	131.243	79.986	19.992	100.183	19.898	3.581	0.456
108.001	132.034	79.985	19.992	100.179	19.902	3.289	0.444
110.000	132.918	79.988	19.991	100.181	19.899	3.500	0.454
112.001	133.781	79.986	19.991	100.180	19.900	3.443	0.441
114.000	134.645	79.987	19.992	100.180	19.898	3.543	0.394
116.000	135.565	79.986	19.992	100.176	19.897	3.592	0.457
118.000	136.433	79.987	19.992	100.177	19.893	3.906	0.476
120.000	137.325	79.987	19.992	100.174	19.898	3.578	0.435
122.000	138.203	79.986	19.992	100.176	19.895	3.727	0.459
124.000	139.118	79.986	19.992	100.177	19.893	3.903	0.471
126.001	139.994	79.987	19.992	100.179	19.901	3.378	0.444
128.000	140.950	79.987	19.991	100.180	19.899	3.469	0.468
130.000	141.857	79.986	19.990	100.176	19.899	3.492	0.449
132.000	142.786	79.988	19.992	100.175	19.899	3.498	0.496
134.000	143.760	79.989	19.991	100.175	19.893	3.916	0.473
136.000	144.706	79.987	19.992	100.172	19.894	3.806	0.447
138.000	145.665	79.987	19.990	100.168	19.898	3.551	0.458
140.000	146.614	79.987	19.993	100.174	19.894	3.799	0.460
142.000	147.599	79.988	19.991	100.161	19.897	3.622	0.483
144.000	148.611	79.985	19.992	100.178	19.898	3.518	0.525
146.000	149.546	79.983	19.992	100.175	19.904	3.142	0.472
148.000	150.539	79.984	19.993	100.164	19.898	3.543	0.508
150.000	151.500	79.987	19.992	100.173	19.897	3.600	0.482
152.000	152.511	79.985	19.992	100.167	19.898	3.566	0.539
154.000	153.463	79.984	19.993	100.167	19.898	3.550	0.495
156.000	154.413	79.984	19.992	100.168	19.899	3.455	0.519
158.000	155.431	79.986	19.993	100.179	19.896	3.699	0.486
160.000	156.435	79.983	19.992	100.171	19.901	3.376	0.486
162.000	157.403	79.986	19.992	100.176	19.901	3.357	0.488
164.000	158.448	79.984	19.991	100.175	19.900	3.425	0.539
166.000	159.446	79.986	19.993	100.168	19.901	3.349	0.508
168.000	160.426	79.984	19.992	100.160	19.898	3.538	0.501
170.000	161.408	79.982	19.992	100.155	19.904	3.115	0.456
172.000	162.425	79.985	19.993	100.158	19.906	3.015	0.504
174.000	163.450	79.987	19.993	100.155	19.905	3.065	0.534
176.000	164.520	79.983	19.991	100.147	19.909	2.775	0.552
178.000	165.525	79.982	19.994	100.145	19.904	3.124	0.492
180.000	166.510	79.985	19.993	100.145	19.904	3.168	0.479
182.000	167.510	79.985	19.995	100.139	19.905	3.072	0.475
184.000	168.560	79.985	19.993	100.138	19.906	2.985	0.527
186.000	169.588	79.984	19.993	100.141	19.908	2.889	0.521
188.000	170.625	79.986	19.992	100.135	19.904	3.116	0.529
190.000	171.593	79.987	19.992	100.138	19.908	2.851	0.514
192.000	172.602	79.989	19.992	100.139	19.900	3.430	0.498
194.000	173.599	79.985	19.991	100.135	19.899	3.476	0.497
196.000	174.592	79.985	19.992	100.137	19.901	3.354	0.501
198.000	175.597	79.987	19.992	100.134	19.905	3.098	0.490
200.000	176.579	79.985	19.993	100.138	19.906	3.028	0.507
202.000	177.594	79.985	19.992	100.134	19.902	3.262	0.470
204.000	178.565	79.987	19.992	100.138	19.903	3.210	0.519
206.000	179.560	79.987	19.993	100.129	19.903	3.234	0.489
208.000	180.596	79.988	19.993	100.130	19.902	3.308	0.488
210.000	181.549	79.987	19.993	100.136	19.910	2.754	0.473
212.000	182.572	79.988	19.992	100.127	19.910	2.706	0.477
214.000	183.554	79.986	19.991	100.127	19.901	3.317	0.486
216.000	184.588	79.992	19.993	100.120	19.907	2.963	0.526
218.000	185.576	79.988	19.991	100.126	19.906	2.981	0.482
220.000	186.579	79.989	19.991	100.123	19.904	3.121	0.504
222.000	187.586	79.988	19.991	100.113	19.908	2.889	0.500
224.000	188.573	79.987	19.992	100.121	19.905	3.090	0.482
226.000	189.592	79.985	19.991	100.115	19.904	3.166	0.500
228.000	190.577	79.986	19.991	100.127	19.906	3.022	0.475
230.000	191.534	79.987	19.992	100.122	19.903	3.239	0.471
232.000	192.531	79.985	19.992	100.124	19.904	3.141	0.485
234.000	193.490	79.985	19.993	100.115	19.904	3.166	0.476
236.000	194.517	79.985	19.992	100.116	19.910	2.730	0.503
238.000	195.466	79.985	19.992	100.116	19.906	3.005	0.497
240.000	196.485	79.984	19.992	100.112	19.906	3.010	0.479
242.000	197.447	79.985	19.992	100.105	19.907	2.936	0.481
244.000	198.489	79.988	19.993	100.111	19.906	3.032	0.534
246.000	199.476	79.985	19.991	100.109	19.906	3.025	0.503
248.000	200.446	79.987	19.993	100.105	19.910	2.750	0.458
250.000	201.459	79.987	19.992	100.104	19.906	3.025	0.514
252.000	202.453	79.986	19.992	100.101	19.909	2.829	0.492
254.000	203.430	79.984	19.992	100.102	19.909	2.792	0.481
256.000	204.430	79.985	19.992	100.110	19.907	2.918	0.523
258.001	205.424	79.984	19.992	100.102	19.905	3.038	0.527
260.000	206.430	79.983	19.992	100.102	19.907	2.960	0.508
262.000	207.462	79.985	19.993	100.102	19.909	2.820	0.526
264.000	208.436	79.983	19.993	100.101	19.907	2.920	0.478
266.000	209.442	79.985	19.993	100.099	19.909	2.783	0.501
268.000	210.436	79.986	19.993	100.104	19.910	2.757	0.502
270.000	211.407	79.988	19.993	100.099	19.908	2.888	0.465
272.000	212.388	79.986	19.992	100.098	19.909	2.813	0.489
274.000	213.402	79.988	19.993	100.099	19.910	2.715	0.521
276.000	214.380	79.990	19.992	100.100	19.906	3.012	0.504
278.000	215.376	79.987	19.991	100.101	19.910	2.694	0.480
280.000	216.384	79.987	19.991	100.100	19.906	3.004	0.501
282.000	217.353	79.987	19.992	100.102	19.914	2.475	0.506
284.000	218.326	79.987	19.992	100.102	19.907	2.904	0.486
286.000	219.349	79.987	19.991	100.103	19.909	2.816	0.509
288.000	220.327	79.986	19.991	100.100	19.908	2.872	0.524
290.000	221.277	79.986	19.992	100.096	19.909	2.767	0.517
292.000	222.262	79.985	19.991	100.096	19.911	2.632	0.496
294.000	223.278	79.988	19.992	100.101	19.912	2.621	0.491
296.000	224.283	79.989	19.993	100.083	19.913	2.552	0.519
298.000	225.246	79.987	19.991	100.105	19.910	2.735	0.493
300.000	226.230	79.987	19.992	100.110	19.909	2.789	0.492
302.000	227.260	79.986	19.991	100.098	19.906	2.973	0.505
304.000	228.285	79.987	19.992	100.102	19.907	2.920	0.480
306.000	229.250	79.985	19.992	100.101	19.913	2.491	0.472
308.000	230.288	79.987	19.993	100.100	19.910	2.718	0.528
310.000	231.266	79.987	19.992	100.101	19.913	2.534	0.494
312.000	232.229	79.985	19.992	100.098	19.912	2.567	0.499
314.000	233.184	79.988	19.991	100.099	19.911	2.646	0.492
316.000	234.232	79.985	19.992	100.095	19.908	2.859	0.503
318.000	235.232	79.986	19.992	100.100	19.905	3.093	0.505
320.000	236.217	79.987	19.994	100.098	19.905	3.089	0.506
322.000	237.242	79.985	19.992	100.098	19.913	2.526	0.514
324.000	238.252	79.985	19.992	100.094	19.910	2.733	0.522
326.000	239.160	79.984	19.992	100.097	19.908	2.892	0.445
328.000	240.148	79.988	19.993	100.096	19.912	2.591	0.494
330.000	241.172	79.986	19.992	100.094	19.911	2.671	0.506
332.000	242.151	79.986	19.993	100.090	19.911	2.632	0.497
334.000	243.140	79.986	19.993	100.091	19.913	2.526	0.528
336.000	244.142	79.986	19.993	100.097	19.910	2.746	0.470
338.000	245.150	79.985	19.992	100.093	19.912	2.581	0.509
340.000	246.162	79.986	19.993	100.066	19.912	2.587	0.477
342.000	247.128	79.983	19.994	100.086	19.911	2.675	0.454
344.000	248.167	79.987	19.992	100.099	19.916	2.340	0.525
346.000	249.161	79.985	19.993	100.073	19.906	3.012	0.530
348.000	250.157	79.987	19.993	100.077	19.913	2.509	0.503
350.000	251.153	79.986	19.993	100.082	19.912	2.617	0.497
352.000	252.150	79.985	19.992	100.076	19.911	2.668	0.480
354.000	253.144	79.985	19.993	100.074	19.912	2.600	0.490
356.000	254.144	79.987	19.992	100.098	19.915	2.401	0.501
358.001	255.138	79.986	19.994	100.087	19.910	2.721	0.505
360.000	256.107	79.985	19.992	100.082	19.914	2.486	0.494
362.000	257.110	79.987	19.992	100.091	19.911	2.637	0.512
364.000	258.079	79.986	19.993	100.089	19.909	2.762	0.488
366.000	259.055	79.986	19.992	100.094	19.907	2.947	0.467
368.000	260.103	79.985	19.991	100.076	19.908	2.862	0.518
370.000	261.098	79.988	19.991	100.077	19.908	2.873	0.493
372.000	262.050	79.987	19.991	100.083	19.907	2.917	0.472
374.000	263.038	79.987	19.992	100.080	19.907	2.926	0.496
376.000	264.061	79.987	19.991	100.089	19.906	2.973	0.510
378.000	265.063	79.987	19.991	100.085	19.909	2.823	0.546
380.000	266.024	79.990	19.992	100.079	19.904	3.129	0.490
382.000	267.006	79.988	19.990	100.086	19.901	3.347	0.475
384.000	268.007	79.988	19.993	100.076	19.907	2.908	0.509
386.000	268.992	79.984	19.991	100.088	19.904	3.159	0.463
388.000	270.038	79.984	19.992	100.079	19.906	2.984	0.513
390.000	271.023	79.985	19.992	100.068	19.909	2.805	0.494
392.000	272.062	79.985	19.992	100.067	19.910	2.723	0.508
394.000	273.020	79.986	19.992	100.069	19.904	3.154	0.468
396.000	273.960	79.984	19.991	100.079	19.901	3.372	0.470
398.000	275.016	79.985	19.993	100.086	19.905	3.039	0.526
400.000	276.012	79.986	19.992	100.078	19.905	3.054	0.494
402.000	277.013	79.986	19.991	100.083	19.905	3.041	0.524
404.000	278.070	79.985	19.992	100.084	19.907	2.938	0.524
406.000	279.034	79.986	19.992	100.091	19.909	2.797	0.496
408.000	279.995	79.985	19.992	100.093	19.908	2.866	0.471
410.000	280.982	79.985	19.992	100.091	19.908	2.886	0.496
412.000	281.986	79.984	19.992	100.092	19.907	2.921	0.496
414.000	283.036	79.985	19.992	100.080	19.907	2.935	0.532
416.000	284.002	79.984	19.992	100.082	19.903	3.185	0.459
418.000	285.057	79.983	19.993	100.090	19.904	3.105	0.522
420.000	286.073	79.984	19.991	100.081	19.903	3.225	0.522
422.000	287.068	79.986	19.992	100.078	19.901	3.323	0.508
424.000	288.091	79.982	19.992	100.078	19.899	3.463	0.533
426.000	289.086	79.984	19.992	100.074	19.905	3.098	0.517
428.000	290.103	79.985	19.993	100.084	19.901	3.321	0.489
430.000	291.092	79.986	19.992	100.072	19.900	3.419	0.510
432.000	292.106	79.986	19.992	100.067	19.898	3.548	0.505
434.000	293.095	79.988	19.992	100.066	19.896	3.675	0.549
436.000	294.086	79.986	19.992	100.064	19.896	3.655	0.484
438.000	295.117	79.986	19.994	100.059	19.895	3.740	0.510
440.000	296.139	79.986	19.992	100.064	19.899	3.461	0.509
442.000	297.115	79.987	19.995	100.072	19.901	3.365	0.482
444.000	298.127	79.986	19.994	100.072	19.896	3.690	0.513
446.000	299.097	79.986	19.994	100.061	19.899	3.494	0.477
448.000	300.166	79.986	19.993	100.068	19.897	3.594	0.538
450.000	301.157	79.987	19.994	100.065	19.897	3.588	0.534
452.000	302.178	79.987	19.993	100.062	19.896	3.660	0.517
454.000	303.167	79.986	19.993	100.066	19.895	3.778	0.495
456.000	304.171	79.988	19.991	100.060	19.893	3.906	0.512
458.000	305.209	79.987	19.991	100.071	19.894	3.843	0.534
460.000	306.243	79.987	19.992	100.067	19.893	3.878	0.540
462.000	307.228	79.988	19.991	100.060	19.894	3.819	0.499
464.000	308.268	79.986	19.992	100.061	19.889	4.186	0.505
466.000	309.266	79.986	19.991	100.061	19.889	4.195	0.520
468.000	310.276	79.984	19.991	100.061	19.890	4.085	0.504
470.000	311.286	79.985	19.992	100.064	19.892	3.946	0.508
472.000	312.324	79.986	19.992	100.066	19.886	4.371	0.529
474.000	313.353	79.984	19.992	100.065	19.888	4.258	0.511
476.000	314.377	79.984	19.992	100.066	19.880	4.749	0.509
478.000	315.341	79.984	19.992	100.067	19.887	4.267	0.490
480.000	316.296	79.986	19.992	100.065	19.888	4.230	0.496
482.000	317.343	79.986	19.991	100.065	19.890	4.098	0.510
484.000	318.325	79.985	19.992	100.065	19.888	4.229	0.506
486.000	319.284	79.986	19.993	100.065	19.885	4.424	0.438
488.000	320.318	79.987	19.993	100.066	19.880	4.789	0.485
490.000	321.292	79.987	19.992	100.066	19.884	4.529	0.524
492.000	322.336	79.986	19.992	100.066	19.889	4.175	0.487
494.000	323.365	79.985	19.991	100.065	19.884	4.527	0.496
496.000	324.372	79.986	19.992	100.067	19.885	4.420	0.507
498.000	325.331	79.985	19.992	100.069	19.880	4.774	0.446
500.000	326.306	79.986	19.992	100.069	19.883	4.542	0.386
502.000	327.218	79.986	19.993	100.066	19.879	4.865	0.339
504.000	328.523	79.987	19.991	100.062	19.883	4.562	0.529
506.001	329.538	79.985	19.992	100.064	19.877	4.983	0.526
508.000	330.475	79.986	19.993	100.062	19.880	4.769	0.512
510.000	331.479	79.987	19.993	100.062	19.881	4.717	0.499
512.000	332.451	79.987	19.993	100.064	19.881	4.745	0.534
514.000	333.492	79.986	19.992	100.062	19.875	5.114	0.557
516.000	334.501	79.987	19.993	100.062	19.878	4.906	0.506
518.000	335.492	79.987	19.992	100.062	19.875	5.132	0.523
520.000	336.497	79.989	19.993	100.062	19.877	4.998	0.489
522.000	337.526	79.987	19.991	100.063	19.873	5.245	0.499
524.000	338.561	79.986	19.992	100.061	19.878	4.918	0.528
526.000	339.516	79.986	19.992	100.062	19.873	5.287	0.503
528.000	340.557	79.986	19.994	100.064	19.876	5.071	0.510
530.000	341.556	79.986	19.993	100.061	19.872	5.361	0.530
532.000	342.544	79.985	19.994	100.062	19.873	5.289	0.487
534.000	343.553	79.986	19.993	100.062	19.869	5.556	0.519
536.000	344.587	79.985	19.993	100.064	19.865	5.789	0.492
538.000	345.598	79.987	19.994	100.061	19.866	5.763	0.511
540.000	346.607	79.988	19.993	100.062	19.864	5.876	0.465
542.000	347.632	79.988	19.992	100.062	19.865	5.786	0.530
544.000	348.574	79.987	19.992	100.060	19.867	5.680	0.506
546.000	349.631	79.988	19.992	100.058	19.866	5.732	0.500
548.000	350.614	79.986	19.991	100.063	19.865	5.826	0.515
550.000	351.653	79.985	19.992	100.062	19.869	5.562	0.503
552.000	352.660	79.985	19.992	100.064	19.862	6.005	0.484
554.000	353.699	79.983	19.992	100.065	19.860	6.182	0.487
556.000	354.748	79.986	19.992	100.066	19.857	6.354	0.536
558.000	355.770	79.985	19.992	100.067	19.856	6.453	0.494
560.000	356.776	79.985	19.991	100.067	19.855	6.498	0.529
562.000	357.770	79.986	19.992	100.066	19.859	6.250	0.497
564.000	358.785	79.986	19.992	100.064	19.857	6.367	0.500
566.000	359.775	79.985	19.993	100.062	19.857	6.326	0.503
568.000	360.793	79.987	19.992	100.062	19.854	6.534	0.493
570.000	361.794	79.987	19.992	100.061	19.856	6.433	0.495
572.000	362.778	79.986	19.992	100.061	19.854	6.562	0.486
574.000	363.793	79.986	19.992	100.061	19.853	6.595	0.486
576.000	364.843	79.988	19.991	100.061	19.855	6.457	0.514
578.000	365.890	79.987	19.992	100.063	19.854	6.586	0.540
580.000	366.872	79.986	19.991	100.059	19.851	6.787	0.494
582.000	367.879	79.987	19.993	100.061	19.854	6.545	0.487
584.000	368.945	79.985	19.991	100.061	19.849	6.888	0.543
586.000	369.943	79.985	19.992	100.061	19.854	6.553	0.520
588.000	370.941	79.985	19.992	100.060	19.856	6.389	0.513
590.000	371.934	79.986	19.993	100.059	19.856	6.449	0.493
592.000	372.970	79.986	19.992	100.059	19.857	6.331	0.475
594.000	373.968	79.987	19.993	100.057	19.858	6.268	0.502
596.000	375.006	79.987	19.992	100.056	19.862	6.021	0.500
598.000	376.029	79.987	19.992	100.059	19.863	5.955	0.493
600.000	377.058	79.987	19.993	100.060	19.866	5.744	0.515
602.000	378.092	79.987	19.993	100.051	19.866	5.720	0.513
604.000	379.066	79.985	19.992	100.054	19.868	5.589	0.489
606.000	380.117	79.987	19.993	100.052	19.874	5.220	0.514
608.000	381.093	79.985	19.993	100.055	19.872	5.301	0.504
610.000	382.121	79.985	19.991	100.053	19.875	5.088	0.505
612.000	383.140	79.987	19.991	100.054	19.875	5.122	0.517
614.000	384.150	79.986	19.991	100.053	19.881	4.692	0.532
616.000	385.138	79.987	19.992	100.042	19.889	4.163	0.480
618.000	386.156	79.987	19.993	100.044	19.891	4.022	0.482
620.000	387.162	79.987	19.992	100.051	19.886	4.376	0.503
622.000	388.166	79.986	19.992	100.049	19.893	3.882	0.480
624.000	389.150	79.986	19.993	100.035	19.895	3.746	0.482
626.000	390.145	79.986	19.992	100.036	19.898	3.561	0.504
628.000	391.181	79.987	19.993	100.030	19.900	3.430	0.504
630.000	392.226	79.986	19.993	100.030	19.902	3.268	0.511
632.000	393.247	79.984	19.993	100.031	19.903	3.209	0.543
634.000	394.224	79.985	19.993	100.038	19.904	3.137	0.467
636.000	395.253	79.985	19.993	100.038	19.902	3.267	0.504
638.000	396.278	79.986	19.991	100.027	19.903	3.182	0.537
640.000	397.284	79.986	19.991	100.032	19.902	3.248	0.512
642.000	398.289	79.985	19.992	100.036	19.904	3.167	0.505
644.000	399.339	79.986	19.992	100.032	19.901	3.342	0.524
646.000	400.355	79.986	19.992	100.032	19.903	3.189	0.522
648.000	401.324	79.986	19.993	100.048	19.902	3.250	0.474
650.000	402.361	79.987	19.991	100.026	19.906	3.010	0.509
652.000	403.369	79.986	19.992	100.036	19.907	2.958	0.489
654.000	404.366	79.986	19.992	100.038	19.905	3.084	0.509
656.000	405.333	79.985	19.992	100.039	19.904	3.130	0.464
658.000	406.352	79.986	19.992	100.054	19.904	3.143	0.486
660.000	407.433	79.986	19.993	100.033	19.904	3.159	0.543
662.000	408.389	79.986	19.992	100.028	19.906	2.970	0.526
664.000	409.445	79.986	19.991	100.049	19.904	3.124	0.513
666.000	410.453	79.986	19.991	100.037	19.906	3.014	0.528
668.000	411.455	79.985	19.992	100.038	19.904	3.145	0.510
670.000	412.478	79.984	19.991	100.039	19.909	2.783	0.487
672.000	413.458	79.987	19.991	100.042	19.908	2.881	0.479
674.000	414.460	79.987	19.991	100.044	19.908	2.862	0.498
676.000	415.438	79.987	19.992	100.027	19.909	2.808	0.495
678.000	416.496	79.987	19.992	100.047	19.905	3.065	0.512
680.000	417.495	79.988	19.992	100.034	19.909	2.803	0.508
682.000	418.518	79.986	19.991	100.049	19.902	3.274	0.475
684.000	419.564	79.986	19.991	100.032	19.905	3.084	0.521
686.000	420.626	79.987	19.993	100.049	19.909	2.801	0.542
688.000	421.610	79.986	19.992	100.048	19.907	2.958	0.486
690.000	422.631	79.986	19.992	100.033	19.908	2.893	0.516
692.000	423.619	79.986	19.992	100.047	19.908	2.838	0.512
694.000	424.637	79.986	19.993	100.037	19.907	2.914	0.504
696.000	425.658	79.987	19.992	100.035	19.906	3.003	0.492
698.000	426.649	79.988	19.994	100.027	19.906	3.027	0.497
700.000	427.678	79.989	19.992	100.026	19.903	3.198	0.508
702.000	428.721	79.988	19.992	100.024	19.903	3.186	0.537
704.000	429.686	79.988	19.993	100.032	19.905	3.087	0.494
706.000	430.710	79.987	19.992	100.030	19.904	3.111	0.515
708.000	431.742	79.988	19.992	100.034	19.901	3.320	0.503
710.000	432.764	79.987	19.993	100.035	19.905	3.067	0.522
712.000	433.786	79.986	19.994	100.035	19.903	3.224	0.538
714.000	434.838	79.985	19.993	100.048	19.901	3.351	0.512
716.000	435.826	79.985	19.994	100.027	19.904	3.109	0.485
718.000	436.883	79.985	19.994	100.034	19.904	3.124	0.526
720.000	437.880	79.984	19.994	100.042	19.907	2.960	0.506
722.000	438.906	79.986	19.994	100.043	19.906	2.995	0.500
724.000	439.952	79.987	19.993	100.035	19.905	3.093	0.537
726.000	440.970	79.987	19.994	100.026	19.907	2.951	0.476
728.000	442.004	79.985	19.992	100.033	19.905	3.056	0.544
730.000	443.041	79.986	19.993	100.032	19.903	3.179	0.548
732.000	444.055	79.985	19.992	100.027	19.903	3.181	0.513
734.000	445.120	79.986	19.992	100.034	19.904	3.146	0.544
736.000	446.113	79.985	19.992	100.033	19.905	3.082	0.494
738.000	447.157	79.987	19.993	100.025	19.903	3.172	0.503
740.000	448.201	79.985	19.992	100.025	19.904	3.115	0.522
742.000	449.257	79.984	19.992	100.025	19.905	3.097	0.517
744.000	450.212	79.986	19.992	100.026	19.903	3.229	0.492
746.000	451.265	79.984	19.991	100.025	19.903	3.235	0.514
748.000	452.287	79.984	19.991	100.028	19.901	3.338	0.508
750.000	453.318	79.985	19.992	100.026	19.904	3.110	0.518
752.000	454.330	79.987	19.992	100.027	19.904	3.126	0.509
754.000	455.372	79.986	19.991	100.034	19.907	2.914	0.506
756.000	456.391	79.987	19.992	100.033	19.904	3.111	0.496
758.000	457.416	79.988	19.993	100.029	19.905	3.046	0.510
760.000	458.475	79.989	19.993	100.046	19.907	2.938	0.525
762.000	459.517	79.988	19.991	100.035	19.907	2.947	0.519
764.000	460.512	79.988	19.991	100.033	19.904	3.166	0.536
766.000	461.597	79.988	19.991	100.034	19.903	3.196	0.566
768.000	462.599	79.987	19.992	100.022	19.904	3.133	0.509
770.000	463.611	79.987	19.992	100.021	19.906	3.023	0.518
772.000	464.625	79.987	19.993	100.027	19.904	3.117	0.520
774.000	465.704	79.987	19.994	100.024	19.903	3.222	0.542
776.000	466.709	79.988	19.994	100.025	19.906	3.023	0.537
778.000	467.734	79.988	19.994	100.029	19.907	2.941	0.524
780.000	468.753	79.986	19.992	100.031	19.907	2.921	0.520
782.000	469.788	79.989	19.993	100.030	19.906	2.984	0.520
784.000	470.834	79.989	19.992	100.029	19.907	2.960	0.503
786.000	471.854	79.988	19.992	100.032	19.906	2.984	0.537
788.000	472.872	79.989	19.992	100.030	19.908	2.875	0.512
790.000	473.889	79.987	19.994	100.024	19.908	2.846	0.509
792.000	474.980	79.988	19.992	100.025	19.906	2.975	0.499
794.000	476.002	79.986	19.992	100.024	19.907	2.914	0.501
796.000	477.022	79.986	19.992	100.024	19.907	2.958	0.528
798.000	478.053	79.986	19.991	100.029	19.906	2.993	0.528
800.000	479.056	79.986	19.993	100.032	19.907	2.962	0.504
802.000	480.063	79.986	19.993	100.026	19.906	3.024	0.479
804.000	481.134	79.986	19.993	100.027	19.908	2.860	0.518
806.000	482.114	79.985	19.994	100.022	19.906	2.993	0.499
808.000	483.171	79.985	19.994	100.023	19.908	2.837	0.512
810.000	484.158	79.985	19.994	100.029	19.907	2.938	0.517
812.000	485.175	79.987	19.992	100.023	19.905	3.046	0.513
814.000	486.235	79.985	19.993	100.026	19.913	2.523	0.503
816.000	487.234	79.986	19.993	100.024	19.910	2.746	0.488
818.000	488.258	79.986	19.992	100.033	19.908	2.857	0.504
820.000	489.273	79.985	19.992	100.028	19.905	3.052	0.476
822.000	490.293	79.985	19.992	100.020	19.907	2.949	0.504
824.000	491.339	79.986	19.991	100.021	19.907	2.906	0.510
826.000	492.291	79.985	19.992	100.022	19.912	2.567	0.473
828.000	493.359	79.986	19.992	100.023	19.909	2.772	0.531
830.001	494.391	79.986	19.992	100.022	19.910	2.700	0.537
832.000	495.371	79.986	19.992	100.022	19.909	2.779	0.511
834.000	496.397	79.985	19.992	100.023	19.912	2.608	0.494
836.000	497.406	79.987	19.992	100.022	19.911	2.685	0.496
838.000	498.455	79.988	19.991	100.024	19.908	2.851	0.518
840.000	499.488	79.987	19.993	100.022	19.907	2.951	0.514
842.000	500.472	79.988	19.992	100.020	19.908	2.857	0.493
844.000	501.474	79.988	19.992	100.022	19.907	2.943	0.497
846.000	502.499	79.988	19.991	100.031	19.906	2.999	0.496
848.000	503.521	79.988	19.992	100.029	19.909	2.825	0.494
850.000	504.540	79.987	19.992	100.022	19.909	2.766	0.526
852.000	505.542	79.987	19.992	100.022	19.910	2.731	0.546
854.000	506.533	79.987	19.991	100.026	19.910	2.696	0.528
856.000	507.532	79.987	19.992	100.024	19.910	2.741	0.517
858.000	508.538	79.987	19.992	100.031	19.906	3.003	0.488
860.000	509.556	79.989	19.992	100.030	19.907	2.898	0.488
862.000	510.604	79.988	19.992	100.028	19.904	3.144	0.530
864.000	511.625	79.987	19.992	100.032	19.907	2.903	0.512
866.000	512.616	79.988	19.993	100.030	19.908	2.888	0.488
868.000	513.649	79.988	19.992	100.028	19.907	2.936	0.516
870.000	514.727	79.988	19.992	100.044	19.908	2.877	0.502
872.000	515.725	79.987	19.993	100.038	19.909	2.792	0.489
874.001	516.775	79.986	19.992	100.025	19.908	2.866	0.540
876.000	517.758	79.985	19.992	100.026	19.908	2.840	0.491
878.000	518.780	79.986	19.992	100.028	19.905	3.045	0.511
880.000	519.814	79.987	19.993	100.026	19.905	3.041	0.505
882.000	520.861	79.986	19.991	100.031	19.908	2.880	0.518
884.000	521.845	79.985	19.992	100.027	19.908	2.844	0.470
886.000	522.929	79.985	19.992	100.026	19.910	2.757	0.528
888.000	523.954	79.985	19.992	100.022	19.908	2.877	0.485
890.000	525.006	79.986	19.993	100.022	19.906	2.999	0.524
892.000	526.012	79.985	19.994	100.016	19.911	2.665	0.533
894.000	527.023	79.986	19.993	100.022	19.909	2.799	0.521
896.000	528.075	79.986	19.993	100.033	19.912	2.589	0.529
898.000	529.118	79.987	19.993	100.027	19.910	2.722	0.519
900.000	530.144	79.986	19.992	100.025	19.910	2.709	0.508
902.000	531.117	79.987	19.992	100.020	19.911	2.639	0.505
904.000	532.141	79.985	19.992	100.020	19.912	2.556	0.508
906.000	533.221	79.987	19.993	100.022	19.914	2.432	0.520
908.000	534.249	79.986	19.993	100.024	19.912	2.609	0.502
910.000	535.288	79.985	19.993	100.024	19.910	2.704	0.567
912.000	536.333	79.986	19.993	100.022	19.913	2.538	0.514
914.000	537.351	79.985	19.992	100.022	19.912	2.569	0.537
916.000	538.348	79.987	19.993	100.023	19.912	2.567	0.510
918.000	539.366	79.985	19.993	100.025	19.909	2.814	0.521
920.000	540.395	79.988	19.993	100.022	19.913	2.528	0.492
922.000	541.409	79.987	19.992	100.024	19.913	2.499	0.501
924.000	542.450	79.988	19.992	100.026	19.913	2.517	0.555
926.000	543.446	79.988	19.991	100.028	19.911	2.637	0.526
928.000	544.405	79.987	19.992	100.025	19.909	2.779	0.479
930.000	545.442	79.986	19.991	100.028	19.909	2.777	0.497
932.000	546.443	79.986	19.991	100.023	19.908	2.857	0.521
934.000	547.501	79.988	19.991	100.027	19.913	2.506	0.542
936.000	548.545	79.988	19.992	100.027	19.912	2.595	0.547
938.000	549.513	79.986	19.992	100.025	19.913	2.527	0.514
940.000	550.532	79.987	19.992	100.028	19.914	2.421	0.508
942.000	551.533	79.987	19.991	100.031	19.912	2.576	0.494
944.000	552.542	79.989	19.992	100.029	19.911	2.637	0.508
946.000	553.552	79.989	19.991	100.027	19.912	2.593	0.494
948.000	554.600	79.992	19.991	100.024	19.914	2.469	0.548
950.000	555.618	79.989	19.991	100.026	19.912	2.613	0.496
952.000	556.629	79.988	19.993	100.026	19.915	2.355	0.499
954.000	557.655	79.988	19.993	100.023	19.916	2.292	0.492
956.000	558.619	79.987	19.992	100.022	19.916	2.289	0.494
958.000	559.626	79.987	19.994	100.020	19.912	2.567	0.495
960.000	560.660	79.986	19.992	100.021	19.915	2.407	0.506
962.000	561.676	79.987	19.993	100.021	19.914	2.468	0.484
964.000	562.682	79.986	19.994	100.021	19.913	2.549	0.523
966.000	563.651	79.986	19.993	100.024	19.913	2.525	0.489
968.000	564.679	79.986	19.992	100.027	19.913	2.490	0.493
970.000	565.638	79.987	19.993	100.021	19.914	2.466	0.519
972.000	566.694	79.988	19.992	100.023	19.914	2.484	0.513
974.000	567.685	79.986	19.993	100.031	19.911	2.630	0.491
976.000	568.704	79.986	19.993	100.023	19.913	2.515	0.528
978.000	569.713	79.987	19.993	100.028	19.910	2.731	0.506
980.000	570.758	79.987	19.993	100.032	19.911	2.656	0.530
982.000	571.725	79.984	19.994	100.024	19.912	2.582	0.517
984.000	572.777	79.984	19.994	100.023	19.913	2.525	0.537
986.000	573.805	79.986	19.994	100.023	19.913	2.525	0.503
988.000	574.791	79.986	19.993	100.022	19.911	2.670	0.513
990.000	575.837	79.984	19.993	100.022	19.914	2.455	0.498
992.000	576.813	79.986	19.994	100.026	19.913	2.512	0.485
994.000	577.823	79.985	19.993	100.025	19.913	2.534	0.488
996.000	578.883	79.985	19.992	100.030	19.911	2.650	0.532
998.000	579.878	79.987	19.992	100.025	19.913	2.539	0.520
1000.000	580.874	79.987	19.992	100.025	19.912	2.582	0.516
1002.000	581.885	79.987	19.991	100.023	19.913	2.545	0.509
1004.000	582.918	79.990	19.991	100.025	19.913	2.514	0.526
1006.000	583.908	79.989	19.992	100.025	19.911	2.674	0.504
1008.000	584.923	79.988	19.992	100.018	19.911	2.652	0.509
1010.000	585.939	79.986	19.992	100.023	19.917	2.230	0.491
1012.000	586.961	79.986	19.991	100.025	19.912	2.582	0.501
1014.000	588.006	79.986	19.992	100.027	19.914	2.453	0.514
1016.000	589.029	79.985	19.993	100.022	19.913	2.536	0.534
1018.000	590.031	79.988	19.992	100.021	19.912	2.619	0.496
1020.000	591.046	79.988	19.993	100.023	19.908	2.871	0.497
1022.000	592.069	79.987	19.992	100.023	19.911	2.676	0.544
1024.000	593.100	79.987	19.992	100.020	19.913	2.488	0.545
1026.001	594.151	79.988	19.991	100.023	19.913	2.551	0.520
1028.000	595.187	79.988	19.993	100.023	19.910	2.731	0.530
1030.000	596.188	79.988	19.991	100.022	19.912	2.574	0.525
1032.000	597.206	79.990	19.992	100.024	19.911	2.672	0.491
1034.000	598.235	79.989	19.992	100.022	19.914	2.477	0.509
1036.000	599.238	79.988	19.992	100.023	19.917	2.248	0.498
1038.000	600.294	79.987	19.991	100.028	19.913	2.527	0.526
1040.001	601.302	79.986	19.993	100.019	19.911	2.628	0.491
1042.000	602.309	79.986	19.992	100.021	19.916	2.342	0.475
1044.000	603.346	79.988	19.992	100.022	19.913	2.536	0.493
1046.000	604.364	79.986	19.993	100.021	19.912	2.619	0.535
1048.001	605.387	79.985	19.993	100.028	19.916	2.320	0.519
1050.000	606.390	79.986	19.993	100.032	19.915	2.410	0.504
1052.001	607.449	79.986	19.992	100.026	19.912	2.621	0.524
1054.001	608.461	79.986	19.992	100.027	19.916	2.327	0.548
1056.000	609.491	79.985	19.993	100.030	19.912	2.586	0.527
1058.000	610.471	79.983	19.992	100.024	19.912	2.558	0.507
1060.001	611.515	79.986	19.992	100.025	19.911	2.628	0.532
1062.001	612.547	79.986	19.991	100.026	19.911	2.672	0.508
1064.000	613.543	79.985	19.992	100.026	19.907	2.943	0.475
1066.000	614.575	79.987	19.992	100.028	19.909	2.825	0.519
1068.000	615.635	79.985	19.992	100.028	19.911	2.668	0.531
1070.000	616.619	79.985	19.992	100.024	19.907	2.912	0.521
1072.000	617.649	79.981	19.993	100.025	19.909	2.785	0.515
1074.000	618.633	79.982	19.994	100.025	19.911	2.661	0.488
1076.000	619.654	79.984	19.993	100.024	19.909	2.790	0.502
1078.000	620.678	79.987	19.993	100.023	19.913	2.545	0.490
1080.001	621.654	79.987	19.992	100.021	19.912	2.619	0.469
1082.000	622.655	79.989	19.994	100.022	19.910	2.751	0.479
1084.000	623.645	79.987	19.992	100.022	19.911	2.650	0.482
1086.000	624.674	79.989	19.992	100.021	19.907	2.932	0.480
1088.001	625.704	79.985	19.992	100.015	19.912	2.613	0.531
1090.000	626.651	79.988	19.993	100.015	19.910	2.711	0.487
1092.000	627.687	79.987	19.991	100.020	19.909	2.779	0.499
1094.000	628.681	79.986	19.992	100.019	19.908	2.829	0.494
1096.000	629.637	79.988	19.992	100.018	19.910	2.740	0.471
1098.000	630.646	79.988	19.993	100.016	19.905	3.054	0.508
1100.001	631.634	79.988	19.991	100.019	19.905	3.054	0.505
1102.000	632.617	79.987	19.992	100.016	19.906	3.009	0.452
1104.000	633.626	79.990	19.992	100.018	19.909	2.768	0.503
1106.000	634.656	79.988	19.992	100.018	19.906	3.000	0.466
1108.000	635.647	79.988	19.993	100.020	19.908	2.893	0.509
1110.000	636.668	79.989	19.991	100.021	19.910	2.702	0.481
1112.000	637.658	79.989	19.992	100.019	19.907	2.897	0.475
1114.001	638.711	79.989	19.991	100.019	19.909	2.827	0.512
1116.000	639.684	79.988	19.992	100.014	19.905	3.067	0.532
1118.000	640.688	79.986	19.991	100.021	19.906	3.026	0.501
1120.001	641.747	79.986	19.992	100.023	19.906	3.008	0.505
1122.000	642.732	79.985	19.992	100.024	19.904	3.148	0.511
1124.000	643.694	79.986	19.992	100.024	19.907	2.947	0.507
1126.000	644.700	79.985	19.992	100.025	19.907	2.932	0.503
1128.000	645.720	79.984	19.992	100.026	19.905	3.083	0.499
1130.000	646.679	79.986	19.992	100.023	19.907	2.927	0.481
1132.000	647.710	79.986	19.992	100.025	19.907	2.916	0.529
1134.000	648.729	79.984	19.992	100.024	19.902	3.264	0.534
1136.000	649.745	79.984	19.993	100.025	19.905	3.050	0.520
1138.000	650.759	79.984	19.993	100.025	19.907	2.917	0.489
1140.000	651.765	79.986	19.991	100.025	19.899	3.483	0.496
1142.000	652.775	79.986	19.992	100.022	19.903	3.179	0.484
1144.000	653.781	79.985	19.993	100.021	19.906	3.026	0.483
1146.000	654.795	79.983	19.992	100.018	19.905	3.074	0.483
1148.000	655.831	79.985	19.991	100.010	19.902	3.293	0.507
1150.000	656.855	79.986	19.992	100.015	19.901	3.345	0.531
1152.000	657.841	79.984	19.993	100.018	19.902	3.262	0.505
1154.000	658.813	79.988	19.993	100.019	19.902	3.253	0.507
1156.000	659.863	79.984	19.993	100.019	19.904	3.153	0.503
1158.000	660.895	79.985	19.993	100.020	19.902	3.255	0.543
1160.000	661.909	79.988	19.993	100.016	19.902	3.242	0.535
1162.000	662.856	79.986	19.993	100.019	19.903	3.183	0.495
1164.001	663.872	79.986	19.993	100.019	19.898	3.518	0.480
1166.000	664.906	79.987	19.994	100.018	19.902	3.255	0.540
1168.001	665.887	79.987	19.993	100.019	19.898	3.528	0.500
1170.001	666.905	79.986	19.992	100.017	19.903	3.175	0.491
1172.000	667.938	79.988	19.993	100.018	19.900	3.413	0.498
1174.000	668.969	79.986	19.994	100.020	19.899	3.509	0.560
1176.000	669.995	79.988	19.992	100.021	19.901	3.319	0.528
1178.000	670.952	79.986	19.993	100.022	19.903	3.183	0.478
1180.000	671.990	79.985	19.992	100.021	19.902	3.253	0.492
1182.000	672.993	79.988	19.992	100.022	19.902	3.273	0.511
1184.000	674.040	79.988	19.991	100.023	19.903	3.211	0.578
1186.000	675.075	79.988	19.991	100.022	19.903	3.188	0.527
1188.000	676.111	79.988	19.992	100.020	19.903	3.192	0.522
1190.000	677.133	79.988	19.992	100.017	19.899	3.485	0.533
1192.000	678.143	79.985	19.992	100.018	19.902	3.273	0.517
1194.001	679.153	79.989	19.993	100.019	19.905	3.074	0.515
1196.001	680.165	79.990	19.990	100.022	19.902	3.244	0.485
1198.000	681.189	79.986	19.991	100.020	19.899	3.448	0.540
1200.001	682.272	79.985	19.993	100.022	19.900	3.376	0.510
1202.001	683.224	79.986	19.992	100.026	19.903	3.231	0.487
1204.000	684.283	79.986	19.992	100.016	19.904	3.121	0.509
1206.000	685.263	79.985	19.992	100.024	19.902	3.249	0.534
1208.000	686.297	79.987	19.991	100.022	19.901	3.310	0.493
1210.000	687.266	79.988	19.993	100.021	19.903	3.233	0.460
1212.000	688.260	79.987	19.991	100.018	19.904	3.153	0.500
1214.000	689.306	79.987	19.992	100.007	19.904	3.124	0.513
1216.001	690.272	79.987	19.992	100.008	19.905	3.100	0.515
1218.000	691.291	79.988	19.992	100.015	19.901	3.343	0.515
1220.000	692.290	79.988	19.992	100.014	19.901	3.334	0.493
1222.000	693.314	79.988	19.993	100.016	19.904	3.122	0.497
1224.000	694.310	79.986	19.993	100.018	19.905	3.067	0.513
1226.001	695.351	79.985	19.993	100.015	19.905	3.070	0.566
1228.001	696.356	79.985	19.992	100.011	19.904	3.166	0.500
1230.000	697.391	79.985	19.994	100.020	19.903	3.177	0.521
1232.000	698.374	79.983	19.993	100.014	19.904	3.140	0.476
1234.001	699.402	79.985	19.994	100.014	19.906	2.967	0.482
1236.000	700.452	79.985	19.994	100.019	19.904	3.164	0.480
1238.001	701.481	79.985	19.992	100.017	19.903	3.175	0.518
1240.000	702.461	79.985	19.992	100.022	19.905	3.094	0.510
1242.000	703.530	79.988	19.993	100.020	19.902	3.259	0.526
1244.000	704.520	79.988	19.992	100.021	19.903	3.223	0.496
1246.000	705.536	79.987	19.992	100.021	19.903	3.197	0.507
1248.001	706.559	79.986	19.993	100.020	19.905	3.056	0.477
1250.001	707.578	79.989	19.992	100.020	19.906	3.010	0.491
1252.000	708.577	79.986	19.995	100.022	19.901	3.347	0.495
1254.001	709.610	79.988	19.995	100.022	19.899	3.465	0.520
1256.000	710.644	79.986	19.993	100.010	19.902	3.291	0.523
1258.001	711.650	79.987	19.994	100.015	19.898	3.557	0.492
1260.000	712.669	79.986	19.992	100.024	19.903	3.196	0.528
1262.001	713.680	79.986	19.993	100.021	19.898	3.555	0.486
1264.000	714.695	79.986	19.992	100.018	19.899	3.483	0.536
1266.000	715.709	79.986	19.990	100.009	19.897	3.588	0.522
1268.000	716.711	79.987	19.992	100.000	19.900	3.409	0.505
1270.000	717.694	79.989	19.993	100.017	19.897	3.632	0.481
1272.000	718.693	79.986	19.991	100.013	19.898	3.561	0.479
1274.001	719.720	79.990	19.992	100.003	19.898	3.518	0.512
1276.001	720.712	79.988	19.991	100.013	19.900	3.439	0.499
1278.001	721.700	79.989	19.992	100.018	19.899	3.501	0.492
1280.000	722.678	79.987	19.992	100.003	19.902	3.273	0.517
1282.001	723.717	79.984	19.992	100.009	19.899	3.474	0.523
1284.001	724.721	79.987	19.993	100.010	19.904	3.145	0.528
1286.000	725.722	79.987	19.992	100.001	19.901	3.313	0.508
1288.000	726.765	79.986	19.993	100.005	19.902	3.305	0.496
1290.001	727.770	79.988	19.992	100.011	19.903	3.236	0.522
1292.000	728.767	79.985	19.992	100.014	19.904	3.148	0.504
1294.000	729.836	79.983	19.993	100.007	19.902	3.269	0.531
1296.000	730.809	79.987	19.992	99.993	19.901	3.352	0.498
1298.000	731.825	79.986	19.991	100.013	19.904	3.160	0.519
1300.000	732.902	79.988	19.992	100.021	19.901	3.344	0.509
1302.000	733.893	79.986	19.992	100.014	19.897	3.607	0.496
1304.001	734.909	79.987	19.990	100.010	19.899	3.457	0.506
1306.000	735.914	79.985	19.992	99.957	19.899	3.446	0.493
1308.000	736.910	79.987	19.993	99.950	19.896	3.684	0.499
1310.000	737.896	79.986	19.992	100.072	19.898	3.560	0.489
1312.001	738.897	79.986	19.994	100.022	19.899	3.472	0.477
1314.000	739.896	79.987	19.993	99.996	19.900	3.431	0.475
1316.001	740.921	79.985	19.994	100.003	19.899	3.455	0.475
1318.000	741.889	79.984	19.993	100.005	19.897	3.598	0.473
1320.000	742.885	79.985	19.994	99.997	19.898	3.526	0.461
1321.500	743.654	79.985	19.992	100.005	19.895	3.763	0.511