File: 01_Data/Fiber_Cement_Board/MCC/Fiber_Cement_Board_30K_min_210608_R2.txt
Sample ID:	C:\MCC\MCC Cal\Test\Fiber_Cement_Board\Fiber_Cement_Board_30_2.txt
Sample Weight (mg):	3.79
Heating Rate (C/s):	0.5
Combustor Temp (C):	900
N2 Flow Rate (cc/min):	80
O2 Flow Rate (cc/min):	20
Calibration File:	C:\MCC\MCC Cal\Coeff1 JN10440_30_210304.txt.txt
T Correction Coefficients:	0	1.024463	0
Time Shift (s):	14
*
Time (s)	Temperature (C)	N2 flow rate (cc/min)	O2 flow rate (cc/min)	Flow Rate (cc/min)	Oxygen (%)	HRR (W/g)	Heating rate (C/s)
0.000	106.272	79.985	19.992	99.866	20.034	-0.168	-0.009
2.000	106.279	79.988	19.992	99.869	20.033	-0.062	0.007
4.001	106.278	79.985	19.991	99.869	20.030	0.200	-0.007
6.000	106.277	79.985	19.991	99.865	20.037	-0.412	0.025
8.000	106.285	79.985	19.992	99.875	20.036	-0.337	-0.002
10.000	106.294	79.985	19.991	99.893	20.029	0.299	-0.004
12.001	106.317	79.985	19.991	99.915	20.028	0.373	0.028
14.000	106.350	79.985	19.992	99.936	20.025	0.630	0.042
16.001	106.392	79.985	19.992	99.937	20.019	1.087	0.012
18.000	106.453	79.984	19.991	99.959	20.012	1.713	0.047
20.000	106.542	79.986	19.993	99.957	20.009	1.897	0.070
22.000	106.650	79.988	19.992	99.907	20.014	1.533	0.026
24.000	106.779	79.986	19.993	100.057	20.012	1.640	0.051
26.001	106.914	79.985	19.994	100.033	20.004	2.319	0.063
28.001	107.094	79.985	19.992	100.003	20.009	1.886	0.076
30.000	107.270	79.986	19.993	100.014	20.008	2.033	0.077
32.000	107.538	79.985	19.992	100.027	20.000	2.648	0.136
34.000	107.793	79.982	19.993	100.047	20.004	2.310	0.131
36.000	108.053	79.985	19.994	100.030	19.999	2.706	0.146
38.001	108.337	79.984	19.992	100.032	20.004	2.308	0.178
40.000	108.683	79.983	19.992	100.060	20.001	2.575	0.173
42.000	109.049	79.984	19.992	100.063	19.997	2.945	0.169
44.000	109.416	79.985	19.992	100.056	19.995	3.041	0.205
46.000	109.776	79.984	19.993	100.059	19.994	3.152	0.178
48.000	110.251	79.982	19.993	100.060	19.995	3.101	0.233
50.001	110.619	79.983	19.993	100.064	19.997	2.930	0.198
52.000	111.061	79.984	19.993	100.061	19.992	3.334	0.227
54.000	111.548	79.983	19.993	100.064	19.994	3.141	0.211
56.000	112.014	79.983	19.994	100.063	19.993	3.276	0.244
58.001	112.514	79.982	19.993	100.065	19.992	3.317	0.270
60.000	113.036	79.983	19.993	100.070	19.995	3.046	0.272
62.000	113.568	79.984	19.992	100.071	19.989	3.597	0.247
64.000	114.141	79.984	19.993	100.031	19.988	3.686	0.293
66.001	114.659	79.983	19.994	100.014	19.992	3.364	0.250
68.000	115.258	79.983	19.993	100.137	19.995	3.104	0.270
70.000	115.840	79.983	19.991	100.075	19.988	3.630	0.280
72.000	116.429	79.984	19.991	100.086	19.988	3.693	0.276
74.001	117.087	79.984	19.992	100.090	19.986	3.779	0.344
76.001	117.728	79.985	19.991	100.083	19.988	3.635	0.351
78.000	118.337	79.985	19.991	100.103	19.984	3.973	0.284
80.000	118.979	79.986	19.991	100.096	19.985	3.913	0.339
82.000	119.661	79.985	19.992	100.102	19.987	3.698	0.336
84.000	120.341	79.984	19.994	100.101	19.985	3.899	0.350
86.001	121.014	79.985	19.992	100.102	19.987	3.746	0.354
88.001	121.715	79.984	19.991	100.106	19.993	3.235	0.365
90.000	122.492	79.984	19.992	100.110	19.983	4.037	0.403
92.000	123.204	79.986	19.993	100.110	19.988	3.664	0.364
94.000	123.972	79.986	19.991	100.108	19.989	3.591	0.376
96.001	124.734	79.986	19.992	100.104	19.981	4.210	0.365
98.000	125.523	79.987	19.991	100.104	19.981	4.255	0.383
100.001	126.355	79.987	19.992	100.112	19.987	3.708	0.401
102.000	127.135	79.989	19.993	100.114	19.983	4.077	0.421
104.000	127.950	79.987	19.992	100.109	19.987	3.731	0.403
106.000	128.783	79.985	19.991	100.104	19.984	3.973	0.419
108.000	129.607	79.985	19.993	100.114	19.987	3.718	0.408
110.000	130.414	79.984	19.993	100.107	19.982	4.121	0.420
112.001	131.210	79.983	19.992	100.103	19.980	4.308	0.419
114.000	132.124	79.984	19.994	100.101	19.987	3.757	0.440
116.000	132.980	79.985	19.993	100.110	19.985	3.888	0.446
118.001	133.883	79.986	19.994	100.119	19.989	3.586	0.453
120.000	134.733	79.984	19.993	100.105	19.985	3.940	0.456
122.000	135.565	79.985	19.993	100.109	19.986	3.840	0.379
124.000	136.507	79.983	19.992	100.111	19.985	3.924	0.458
126.000	137.410	79.983	19.992	100.109	19.985	3.875	0.418
128.000	138.326	79.983	19.993	100.108	19.989	3.566	0.471
130.000	139.241	79.984	19.993	100.110	19.984	3.953	0.474
132.000	140.145	79.985	19.993	100.109	19.992	3.284	0.486
134.000	141.052	79.984	19.994	100.112	19.991	3.426	0.413
136.000	142.031	79.984	19.993	100.115	19.988	3.633	0.475
138.000	142.912	79.983	19.993	100.105	19.988	3.620	0.468
140.000	143.881	79.982	19.994	100.108	19.983	4.075	0.450
142.000	144.833	79.983	19.994	100.106	19.988	3.623	0.467
144.000	145.735	79.982	19.994	100.106	19.987	3.713	0.430
146.000	146.670	79.984	19.994	100.112	19.984	3.955	0.471
148.000	147.617	79.983	19.993	100.114	19.984	3.951	0.461
150.000	148.601	79.985	19.993	100.111	19.994	3.162	0.492
152.000	149.555	79.984	19.990	100.105	19.982	4.183	0.449
154.000	150.485	79.987	19.992	100.033	19.986	3.804	0.456
156.000	151.431	79.987	19.993	100.097	19.989	3.540	0.477
158.000	152.423	79.986	19.992	100.187	19.992	3.306	0.491
160.000	153.311	79.985	19.992	100.115	19.989	3.586	0.492
162.000	154.310	79.985	19.992	100.106	19.992	3.326	0.493
164.000	155.273	79.987	19.994	100.102	19.991	3.411	0.479
166.000	156.228	79.985	19.992	100.106	19.990	3.493	0.500
168.000	157.197	79.986	19.993	100.101	19.982	4.150	0.480
170.000	158.150	79.984	19.992	100.103	19.983	4.041	0.471
172.000	159.154	79.987	19.993	100.102	19.986	3.850	0.500
174.000	160.083	79.986	19.992	100.101	19.990	3.451	0.452
176.000	161.110	79.986	19.991	100.101	19.989	3.564	0.492
178.000	162.051	79.987	19.992	100.101	19.991	3.420	0.492
180.000	163.082	79.988	19.993	100.100	19.985	3.939	0.487
182.000	164.046	79.988	19.991	100.103	19.987	3.704	0.499
184.000	165.044	79.988	19.991	100.102	19.991	3.409	0.467
186.000	166.035	79.986	19.991	100.103	19.993	3.246	0.472
188.000	167.017	79.986	19.992	100.102	19.985	3.886	0.513
190.000	167.995	79.985	19.991	100.105	19.995	3.115	0.512
192.000	169.008	79.985	19.992	100.093	19.992	3.322	0.504
194.000	170.001	79.985	19.992	100.103	19.995	3.049	0.490
196.000	170.978	79.985	19.994	100.102	19.994	3.126	0.457
198.000	172.036	79.983	19.993	100.099	20.000	2.704	0.524
200.000	173.037	79.985	19.993	100.101	19.996	3.008	0.528
202.000	174.049	79.982	19.992	100.092	19.993	3.237	0.492
204.000	175.055	79.984	19.993	100.093	19.997	2.886	0.509
206.000	176.087	79.985	19.993	100.089	19.997	2.882	0.531
208.000	177.037	79.983	19.991	100.086	19.990	3.492	0.472
210.000	178.053	79.984	19.993	100.091	19.996	3.019	0.494
212.000	179.009	79.986	19.993	100.078	19.995	3.062	0.479
214.000	179.977	79.986	19.994	100.076	19.995	3.088	0.492
216.000	180.976	79.986	19.993	100.073	19.996	3.026	0.474
218.001	181.987	79.984	19.994	100.090	20.002	2.482	0.495
220.000	182.958	79.984	19.993	100.088	19.997	2.884	0.477
222.000	183.978	79.984	19.993	100.079	19.992	3.290	0.499
224.000	184.939	79.982	19.994	100.089	19.997	2.930	0.518
226.000	185.957	79.982	19.993	100.085	19.996	2.990	0.513
228.000	186.975	79.983	19.994	100.083	19.994	3.170	0.483
230.000	187.984	79.984	19.993	100.079	19.997	2.914	0.497
232.000	188.925	79.984	19.994	100.073	19.987	3.762	0.484
234.000	189.913	79.986	19.993	100.073	19.987	3.771	0.512
236.000	190.986	79.985	19.991	100.073	19.995	3.061	0.522
238.000	191.918	79.986	19.991	100.069	19.995	3.088	0.482
240.000	192.899	79.985	19.992	100.072	19.994	3.121	0.513
242.000	193.890	79.986	19.992	100.063	19.999	2.735	0.493
244.000	194.849	79.985	19.993	100.064	20.002	2.517	0.494
246.000	195.810	79.984	19.991	100.070	19.994	3.163	0.483
248.000	196.792	79.984	19.991	100.067	20.000	2.664	0.482
250.001	197.818	79.985	19.993	100.075	19.998	2.792	0.485
252.000	198.780	79.986	19.993	100.070	19.995	3.097	0.465
254.000	199.755	79.985	19.992	100.071	19.995	3.110	0.504
256.000	200.744	79.987	19.992	100.068	20.000	2.657	0.497
258.000	201.699	79.988	19.993	100.070	19.998	2.832	0.482
260.000	202.736	79.987	19.992	100.067	19.999	2.715	0.516
262.000	203.731	79.987	19.991	100.065	19.996	3.021	0.487
264.000	204.742	79.986	19.992	100.073	20.000	2.655	0.482
266.000	205.721	79.984	19.991	100.068	19.992	3.321	0.495
268.001	206.734	79.985	19.992	100.067	19.990	3.450	0.535
270.000	207.730	79.985	19.992	100.067	19.992	3.354	0.511
272.000	208.716	79.985	19.993	100.065	20.003	2.455	0.475
274.000	209.714	79.984	19.991	100.066	19.992	3.305	0.534
276.000	210.678	79.985	19.992	100.068	20.000	2.684	0.476
278.000	211.644	79.985	19.993	100.065	19.999	2.768	0.484
280.000	212.623	79.985	19.992	100.068	19.999	2.744	0.522
282.000	213.669	79.986	19.993	100.064	20.002	2.530	0.508
284.000	214.669	79.984	19.991	100.063	20.005	2.280	0.505
286.000	215.649	79.986	19.995	100.062	19.999	2.783	0.491
288.000	216.650	79.985	19.992	100.072	20.002	2.479	0.495
290.000	217.688	79.984	19.993	100.063	20.004	2.368	0.512
292.000	218.695	79.985	19.993	100.063	20.003	2.386	0.501
294.000	219.689	79.984	19.993	100.064	20.006	2.191	0.521
296.000	220.691	79.984	19.993	100.063	20.003	2.422	0.520
298.000	221.729	79.985	19.993	100.060	20.003	2.444	0.496
300.000	222.756	79.985	19.992	100.059	20.004	2.311	0.520
302.000	223.734	79.982	19.993	100.056	20.006	2.158	0.481
304.000	224.739	79.983	19.992	100.056	20.005	2.249	0.493
306.000	225.788	79.983	19.993	100.063	20.004	2.370	0.500
308.000	226.789	79.985	19.993	100.059	20.004	2.357	0.522
310.000	227.809	79.985	19.993	100.060	19.996	2.979	0.531
312.000	228.842	79.984	19.993	100.065	20.007	2.122	0.534
314.000	229.836	79.984	19.994	100.062	20.004	2.366	0.519
316.000	230.848	79.985	19.992	100.059	20.007	2.115	0.514
318.000	231.849	79.986	19.993	100.042	20.007	2.066	0.525
320.000	232.875	79.985	19.993	100.055	20.006	2.175	0.524
322.000	233.848	79.986	19.993	100.060	20.003	2.399	0.493
324.000	234.859	79.982	19.991	100.059	20.000	2.634	0.487
326.000	235.883	79.985	19.992	100.054	20.001	2.566	0.510
328.000	236.856	79.984	19.991	100.059	19.998	2.845	0.497
330.000	237.847	79.984	19.992	100.057	20.002	2.476	0.477
332.000	238.838	79.985	19.993	100.059	20.001	2.585	0.470
334.000	239.854	79.985	19.992	100.043	20.008	1.964	0.522
336.000	240.812	79.988	19.993	100.045	20.006	2.162	0.472
338.000	241.839	79.987	19.993	100.054	20.005	2.277	0.519
340.000	242.869	79.987	19.993	100.037	20.009	1.938	0.506
342.000	243.801	79.986	19.991	100.043	20.006	2.162	0.471
344.000	244.778	79.984	19.991	100.042	20.000	2.659	0.498
346.000	245.825	79.984	19.992	100.044	20.010	1.855	0.532
348.000	246.807	79.985	19.993	100.034	20.009	1.891	0.511
350.000	247.811	79.983	19.991	100.041	20.008	2.009	0.513
352.000	248.828	79.984	19.993	100.053	20.008	1.964	0.525
354.000	249.817	79.985	19.993	100.033	20.010	1.826	0.497
356.000	250.813	79.984	19.993	100.050	20.009	1.948	0.477
358.000	251.765	79.985	19.991	100.042	20.011	1.724	0.445
360.000	252.788	79.985	19.992	100.049	20.009	1.891	0.503
362.000	253.789	79.984	19.992	100.041	20.006	2.150	0.487
364.000	254.772	79.984	19.991	100.047	20.004	2.321	0.504
366.000	255.787	79.984	19.992	100.046	20.012	1.662	0.510
368.000	256.771	79.985	19.992	100.040	20.009	1.902	0.493
370.000	257.753	79.984	19.993	100.046	20.012	1.655	0.507
372.000	258.738	79.984	19.993	100.050	20.010	1.806	0.472
374.000	259.737	79.984	19.994	100.037	20.011	1.740	0.487
376.000	260.744	79.983	19.993	100.039	20.005	2.237	0.507
378.000	261.689	79.983	19.993	100.044	20.011	1.733	0.467
380.000	262.692	79.986	19.994	100.033	20.011	1.749	0.534
382.000	263.705	79.985	19.994	100.035	20.010	1.851	0.506
384.000	264.704	79.983	19.992	100.048	20.011	1.738	0.508
386.000	265.712	79.984	19.992	100.033	20.005	2.242	0.491
388.000	266.682	79.985	19.993	100.042	20.002	2.526	0.502
390.000	267.665	79.983	19.992	100.040	20.009	1.891	0.499
392.000	268.678	79.984	19.991	100.047	20.007	2.088	0.505
394.000	269.732	79.986	19.993	100.034	20.005	2.241	0.542
396.000	270.712	79.984	19.992	100.046	20.006	2.199	0.485
398.000	271.717	79.985	19.993	100.048	20.008	2.044	0.473
400.000	272.689	79.983	19.993	100.042	20.006	2.148	0.495
402.000	273.655	79.986	19.994	100.034	20.005	2.279	0.469
404.000	274.647	79.986	19.994	100.032	20.005	2.212	0.500
406.000	275.676	79.985	19.993	100.042	20.001	2.577	0.492
408.000	276.654	79.985	19.993	100.041	20.005	2.266	0.462
410.000	277.678	79.985	19.991	100.043	20.004	2.350	0.509
412.000	278.636	79.986	19.991	100.037	20.004	2.306	0.472
414.000	279.658	79.988	19.991	100.040	20.005	2.263	0.494
416.000	280.616	79.987	19.992	100.037	20.004	2.359	0.501
418.000	281.630	79.988	19.991	100.042	20.003	2.410	0.490
420.000	282.633	79.989	19.992	100.035	20.008	1.986	0.522
422.000	283.611	79.988	19.992	100.035	20.005	2.250	0.483
424.000	284.639	79.986	19.991	100.034	20.009	1.951	0.504
426.000	285.636	79.985	19.992	100.037	20.002	2.498	0.479
428.000	286.675	79.984	19.992	100.031	20.002	2.483	0.506
430.000	287.642	79.983	19.992	100.026	20.008	1.993	0.468
432.000	288.650	79.984	19.991	100.036	20.010	1.817	0.485
434.000	289.700	79.984	19.992	100.045	20.003	2.410	0.545
436.000	290.700	79.986	19.993	100.037	20.003	2.397	0.520
438.000	291.756	79.983	19.992	100.039	20.004	2.375	0.525
440.000	292.745	79.985	19.992	100.041	20.003	2.445	0.497
442.000	293.778	79.984	19.990	100.029	20.001	2.616	0.516
444.000	294.751	79.986	19.992	100.029	19.998	2.812	0.498
446.000	295.798	79.985	19.992	100.033	19.999	2.709	0.534
448.000	296.801	79.984	19.991	100.052	20.000	2.623	0.508
450.000	297.804	79.984	19.991	100.031	19.999	2.783	0.491
452.000	298.785	79.984	19.992	100.029	19.999	2.743	0.458
454.000	299.811	79.985	19.993	100.035	19.998	2.798	0.501
456.000	300.851	79.984	19.992	100.036	20.001	2.585	0.512
458.000	301.837	79.983	19.992	100.032	20.003	2.427	0.479
460.000	302.846	79.983	19.993	100.029	20.000	2.658	0.509
462.000	303.860	79.985	19.993	100.034	20.002	2.467	0.492
464.000	304.902	79.983	19.992	100.030	19.998	2.802	0.502
466.000	305.919	79.984	19.993	100.029	19.998	2.862	0.559
468.000	306.917	79.984	19.993	100.025	19.997	2.911	0.512
470.000	307.924	79.987	19.993	100.024	19.999	2.740	0.516
472.000	308.955	79.988	19.994	100.025	20.001	2.607	0.542
474.000	309.937	79.986	19.993	100.025	19.996	2.953	0.523
476.000	310.967	79.986	19.992	100.024	19.994	3.160	0.472
478.000	312.012	79.987	19.992	100.023	19.997	2.913	0.522
480.000	313.000	79.985	19.993	100.023	19.998	2.829	0.472
482.000	314.034	79.985	19.993	100.023	19.999	2.782	0.497
484.000	315.044	79.985	19.993	100.024	19.993	3.277	0.501
486.000	316.055	79.984	19.993	100.023	19.996	2.964	0.480
488.000	317.049	79.985	19.994	100.023	19.997	2.940	0.490
490.000	318.057	79.985	19.993	100.023	19.997	2.933	0.501
492.000	319.011	79.987	19.994	100.023	20.002	2.512	0.478
494.000	320.070	79.985	19.994	100.024	19.998	2.838	0.518
496.000	321.046	79.987	19.994	100.023	19.994	3.158	0.491
498.000	322.062	79.986	19.992	100.027	19.997	2.951	0.493
500.000	323.110	79.989	19.993	100.025	19.999	2.776	0.516
502.000	324.110	79.988	19.992	100.028	19.999	2.780	0.511
504.000	325.096	79.984	19.991	100.034	19.992	3.328	0.545
506.000	326.107	79.986	19.993	100.033	19.996	2.978	0.524
508.000	327.111	79.985	19.992	100.029	19.995	3.049	0.478
510.000	328.102	79.984	19.993	100.033	19.993	3.251	0.490
512.000	329.123	79.984	19.992	100.029	19.992	3.311	0.507
514.000	330.138	79.983	19.993	100.028	19.990	3.508	0.500
516.000	331.144	79.983	19.993	100.030	19.986	3.814	0.514
518.000	332.135	79.983	19.991	100.029	19.988	3.633	0.477
520.000	333.190	79.986	19.992	100.029	19.992	3.355	0.544
522.000	334.209	79.984	19.991	100.028	19.988	3.661	0.539
524.000	335.185	79.983	19.990	100.028	19.989	3.550	0.498
526.000	336.195	79.986	19.993	100.029	19.989	3.592	0.468
528.000	337.232	79.985	19.993	100.035	19.987	3.746	0.516
530.000	338.212	79.985	19.992	100.027	19.986	3.821	0.492
532.000	339.256	79.985	19.991	100.034	19.987	3.712	0.512
534.000	340.257	79.986	19.992	100.026	19.987	3.750	0.494
536.000	341.288	79.983	19.992	100.025	19.988	3.681	0.523
538.000	342.287	79.985	19.993	100.035	19.982	4.183	0.505
540.000	343.302	79.984	19.992	100.032	19.984	4.007	0.533
542.000	344.289	79.985	19.993	100.027	19.985	3.918	0.529
544.000	345.268	79.987	19.994	100.024	19.985	3.934	0.496
546.000	346.286	79.985	19.992	100.027	19.980	4.305	0.515
548.000	347.317	79.987	19.993	100.027	19.983	4.043	0.544
550.000	348.305	79.986	19.993	100.023	19.979	4.409	0.500
552.000	349.308	79.987	19.993	100.025	19.974	4.817	0.488
554.000	350.339	79.988	19.995	100.024	19.976	4.611	0.481
556.000	351.391	79.986	19.993	100.023	19.974	4.793	0.528
558.000	352.454	79.987	19.993	100.026	19.971	5.055	0.513
560.000	353.431	79.985	19.992	100.024	19.973	4.848	0.503
562.000	354.452	79.987	19.995	100.029	19.973	4.879	0.505
564.000	355.449	79.985	19.993	100.027	19.971	5.063	0.507
566.000	356.489	79.985	19.993	100.026	19.973	4.888	0.508
568.000	357.490	79.982	19.992	100.029	19.971	5.012	0.516
570.000	358.519	79.986	19.993	100.033	19.972	4.964	0.507
572.001	359.503	79.986	19.993	100.032	19.971	5.055	0.489
574.000	360.546	79.985	19.993	100.024	19.967	5.421	0.513
576.000	361.537	79.986	19.992	100.027	19.968	5.261	0.511
578.000	362.585	79.984	19.993	100.026	19.960	5.951	0.516
580.000	363.550	79.986	19.992	100.024	19.968	5.301	0.485
582.000	364.579	79.984	19.991	100.029	19.966	5.456	0.499
584.000	365.578	79.984	19.993	100.024	19.968	5.336	0.483
586.000	366.625	79.985	19.992	100.026	19.963	5.751	0.506
588.000	367.577	79.985	19.993	100.025	19.966	5.478	0.479
590.000	368.631	79.986	19.992	100.027	19.959	6.026	0.529
592.000	369.636	79.984	19.991	100.024	19.963	5.687	0.488
594.000	370.627	79.985	19.993	100.025	19.959	6.044	0.498
596.000	371.629	79.985	19.991	100.026	19.963	5.678	0.517
598.000	372.693	79.984	19.993	100.024	19.965	5.507	0.540
600.000	373.685	79.985	19.992	100.023	19.966	5.474	0.488
602.000	374.662	79.984	19.991	100.022	19.966	5.500	0.502
604.000	375.700	79.984	19.993	100.026	19.969	5.178	0.531
606.000	376.688	79.986	19.993	100.025	19.965	5.556	0.487
608.000	377.760	79.985	19.991	100.022	19.973	4.923	0.528
610.000	378.747	79.985	19.992	100.018	19.969	5.191	0.519
612.000	379.757	79.983	19.992	100.023	19.969	5.223	0.486
614.000	380.759	79.984	19.993	100.019	19.975	4.754	0.488
616.000	381.729	79.983	19.992	100.021	19.972	4.996	0.477
618.000	382.773	79.983	19.991	100.017	19.972	4.938	0.516
620.000	383.775	79.984	19.991	100.014	19.978	4.506	0.509
622.000	384.805	79.984	19.993	100.015	19.979	4.355	0.520
624.000	385.786	79.984	19.992	100.010	19.991	3.379	0.497
626.000	386.791	79.986	19.992	100.006	19.992	3.361	0.506
628.000	387.777	79.987	19.992	100.009	19.995	3.035	0.498
630.000	388.792	79.987	19.993	100.006	19.992	3.317	0.489
632.000	389.781	79.985	19.992	100.020	19.998	2.853	0.483
634.000	390.811	79.985	19.993	100.012	20.001	2.620	0.505
636.000	391.836	79.986	19.993	100.024	20.008	2.008	0.504
638.000	392.856	79.986	19.995	100.022	20.008	2.013	0.509
640.000	393.906	79.984	19.992	100.018	20.012	1.690	0.533
642.000	394.923	79.983	19.993	100.017	20.006	2.170	0.503
644.000	395.944	79.986	19.994	100.007	20.011	1.775	0.490
646.000	396.979	79.984	19.991	100.023	20.008	1.972	0.511
648.000	397.930	79.986	19.994	100.027	20.006	2.156	0.488
650.000	398.994	79.986	19.993	100.018	20.012	1.662	0.517
652.000	400.014	79.986	19.991	100.009	20.009	1.939	0.522
654.000	401.000	79.987	19.992	100.014	20.005	2.285	0.495
656.000	402.031	79.985	19.992	100.018	20.012	1.677	0.526
658.000	403.037	79.985	19.992	100.013	20.013	1.633	0.485
660.000	404.054	79.984	19.993	100.013	20.013	1.611	0.488
662.000	405.075	79.984	19.993	100.011	20.008	2.014	0.523
664.000	406.057	79.984	19.993	100.004	20.011	1.782	0.476
666.000	407.083	79.984	19.994	100.006	20.012	1.675	0.486
668.000	408.077	79.984	19.992	100.000	20.013	1.631	0.496
670.000	409.109	79.985	19.993	100.005	20.012	1.715	0.530
672.000	410.146	79.985	19.993	100.011	20.011	1.748	0.511
674.000	411.165	79.983	19.992	100.016	20.011	1.733	0.489
676.000	412.174	79.984	19.992	100.016	20.014	1.491	0.512
678.000	413.189	79.984	19.993	100.010	20.008	1.983	0.530
680.000	414.141	79.985	19.992	100.009	20.011	1.777	0.469
682.000	415.135	79.984	19.991	100.014	20.005	2.221	0.494
684.000	416.113	79.984	19.993	100.001	20.006	2.210	0.471
686.000	417.146	79.985	19.992	100.017	20.010	1.846	0.495
688.000	418.172	79.985	19.993	100.022	20.011	1.755	0.490
690.000	419.157	79.985	19.992	100.007	20.007	2.077	0.494
692.000	420.190	79.983	19.992	100.007	20.011	1.753	0.495
694.000	421.223	79.984	19.992	100.016	20.002	2.458	0.525
696.000	422.221	79.984	19.992	100.009	20.016	1.373	0.507
698.000	423.196	79.984	19.993	100.010	20.012	1.669	0.499
700.000	424.177	79.983	19.992	100.018	20.012	1.699	0.483
702.000	425.214	79.983	19.992	100.021	20.009	1.937	0.515
704.000	426.278	79.986	19.991	100.009	20.015	1.409	0.497
706.000	427.289	79.986	19.991	100.009	20.010	1.857	0.512
708.000	428.264	79.985	19.991	100.022	20.021	0.903	0.484
710.000	429.352	79.987	19.992	100.016	20.014	1.544	0.496
712.000	430.369	79.987	19.992	100.005	20.013	1.619	0.556
714.000	431.486	79.987	19.991	100.003	20.009	1.903	0.584
716.000	432.404	79.986	19.991	100.002	20.011	1.737	0.600
718.000	433.262	79.986	19.992	100.007	20.011	1.766	0.392
720.000	434.577	79.987	19.993	100.015	20.008	1.983	0.382
722.000	435.735	79.985	19.993	100.004	20.012	1.710	0.904
724.000	436.585	79.985	19.992	100.008	20.010	1.868	0.222
726.000	437.540	79.985	19.993	99.998	20.011	1.779	0.488
728.000	438.498	79.986	19.992	100.013	20.013	1.571	0.436
730.000	439.521	79.987	19.992	99.996	20.008	2.016	0.523
732.000	440.502	79.987	19.992	100.000	20.009	1.908	0.458
734.000	441.484	79.987	19.991	99.997	20.008	1.979	0.434
736.000	442.467	79.987	19.992	100.006	20.006	2.161	0.520
738.000	443.525	79.985	19.993	100.007	20.012	1.662	0.480
740.000	444.475	79.987	19.993	99.997	20.005	2.238	0.473
742.000	445.451	79.985	19.993	99.990	20.008	1.966	0.435
744.000	446.465	79.983	19.993	99.995	20.009	1.961	0.510
746.000	447.446	79.984	19.993	100.001	20.008	2.039	0.483
748.000	448.488	79.983	19.993	100.007	20.005	2.261	0.510
750.000	449.434	79.983	19.992	100.005	20.005	2.290	0.435
752.000	450.457	79.983	19.994	100.005	20.010	1.872	0.496
754.000	451.476	79.984	19.994	100.004	20.010	1.839	0.505
756.000	452.486	79.983	19.993	99.994	20.009	1.904	0.544
758.000	453.462	79.982	19.992	100.018	20.013	1.591	0.453
760.000	454.478	79.982	19.992	100.022	20.006	2.163	0.478
762.000	455.510	79.984	19.992	100.018	20.011	1.770	0.508
764.000	456.491	79.984	19.991	100.007	20.006	2.181	0.509
766.000	457.561	79.983	19.991	100.013	20.004	2.323	0.545
768.000	458.536	79.983	19.991	100.006	20.008	2.001	0.506
770.000	459.557	79.982	19.992	100.002	20.005	2.212	0.500
772.000	460.587	79.984	19.991	100.011	20.007	2.123	0.527
774.000	461.607	79.981	19.990	100.011	20.006	2.163	0.492
776.000	462.633	79.983	19.991	100.005	20.008	2.043	0.550
778.000	463.604	79.983	19.992	100.025	20.007	2.077	0.478
780.000	464.602	79.983	19.990	100.006	20.009	1.941	0.491
782.000	465.591	79.985	19.992	100.001	20.009	1.955	0.523
784.000	466.623	79.985	19.992	100.001	20.006	2.177	0.504
786.000	467.634	79.987	19.992	100.015	20.010	1.835	0.504
788.000	468.619	79.985	19.991	100.008	20.009	1.950	0.494
790.000	469.682	79.986	19.991	100.015	20.011	1.777	0.529
792.000	470.724	79.986	19.993	100.014	20.009	1.919	0.514
794.000	471.699	79.986	19.991	100.013	20.011	1.721	0.493
796.000	472.732	79.985	19.992	100.020	20.009	1.901	0.495
798.000	473.791	79.985	19.991	100.014	20.008	2.005	0.518
800.000	474.843	79.985	19.993	100.014	20.011	1.786	0.532
802.000	475.848	79.986	19.992	100.009	20.013	1.579	0.536
804.000	476.914	79.985	19.992	100.000	20.011	1.737	0.517
806.000	477.945	79.984	19.992	100.005	20.013	1.591	0.522
808.000	478.985	79.986	19.993	100.005	20.008	1.976	0.507
810.000	479.974	79.984	19.993	100.003	20.007	2.099	0.491
812.000	481.037	79.987	19.992	99.996	20.009	1.961	0.513
814.000	482.091	79.987	19.991	100.002	20.007	2.090	0.534
816.000	483.100	79.987	19.993	100.012	20.010	1.808	0.538
818.000	484.066	79.987	19.992	100.000	20.008	2.036	0.489
820.000	485.141	79.986	19.991	100.001	20.009	1.904	0.527
822.000	486.143	79.985	19.992	100.019	20.010	1.826	0.506
824.000	487.131	79.984	19.992	100.011	20.010	1.863	0.490
826.000	488.205	79.984	19.993	99.999	20.008	2.036	0.518
828.000	489.205	79.983	19.993	100.001	20.007	2.118	0.509
830.000	490.238	79.984	19.992	100.007	20.010	1.806	0.524
832.001	491.234	79.983	19.992	100.020	20.011	1.728	0.487
834.000	492.294	79.983	19.992	100.003	20.013	1.633	0.531
836.000	493.307	79.982	19.993	100.001	20.010	1.801	0.516
838.000	494.373	79.983	19.992	100.000	20.013	1.562	0.537
840.000	495.407	79.983	19.993	99.998	20.007	2.094	0.521
842.000	496.419	79.983	19.993	99.998	20.014	1.542	0.521
844.000	497.476	79.984	19.994	99.999	20.013	1.611	0.538
846.000	498.482	79.985	19.992	99.995	20.013	1.621	0.512
848.000	499.545	79.983	19.992	99.987	20.013	1.622	0.516
850.000	500.533	79.984	19.992	100.010	20.015	1.449	0.501
852.000	501.589	79.984	19.992	100.012	20.008	1.990	0.521
854.000	502.559	79.983	19.992	100.016	20.012	1.713	0.509
856.000	503.646	79.983	19.992	99.996	20.013	1.573	0.528
858.000	504.663	79.984	19.994	99.992	20.009	1.955	0.528
860.000	505.664	79.984	19.992	100.004	20.012	1.657	0.516
862.000	506.703	79.985	19.992	99.997	20.005	2.220	0.523
864.000	507.736	79.986	19.993	100.005	20.008	1.972	0.508
866.000	508.706	79.986	19.993	100.012	20.008	1.994	0.530
868.000	509.743	79.988	19.992	100.017	20.010	1.879	0.491
870.000	510.729	79.986	19.993	100.011	20.009	1.897	0.504
872.001	511.743	79.985	19.992	100.002	20.009	1.941	0.516
874.000	512.774	79.987	19.993	99.996	20.007	2.054	0.486
876.000	513.825	79.986	19.992	100.006	20.004	2.349	0.514
878.000	514.900	79.986	19.992	100.010	20.003	2.427	0.529
880.000	515.928	79.984	19.992	100.019	20.003	2.447	0.518
882.000	516.976	79.985	19.992	100.009	20.002	2.482	0.548
884.000	517.961	79.986	19.991	100.021	20.004	2.345	0.490
886.000	519.048	79.988	19.992	100.007	20.007	2.110	0.515
888.000	520.045	79.986	19.992	100.015	20.004	2.336	0.503
890.000	521.074	79.987	19.990	100.006	20.001	2.598	0.537
892.000	522.029	79.986	19.990	100.003	20.004	2.371	0.469
894.000	523.074	79.987	19.991	100.003	20.003	2.423	0.505
896.000	524.097	79.986	19.991	100.010	20.007	2.125	0.534
898.000	525.178	79.985	19.991	100.004	20.007	2.094	0.569
900.000	526.176	79.986	19.991	100.001	20.005	2.267	0.518
902.000	527.187	79.984	19.992	99.995	20.008	2.032	0.488
904.000	528.206	79.985	19.992	100.008	20.004	2.338	0.489
906.000	529.270	79.984	19.994	100.002	20.006	2.189	0.532
908.000	530.283	79.983	19.993	99.996	20.009	1.916	0.502
910.000	531.347	79.985	19.992	100.000	20.007	2.063	0.553
912.000	532.355	79.983	19.993	99.992	20.010	1.825	0.528
914.000	533.415	79.985	19.992	100.000	20.004	2.318	0.556
916.000	534.458	79.982	19.992	99.991	20.008	2.005	0.503
918.000	535.491	79.984	19.993	99.989	20.008	1.963	0.508
920.000	536.511	79.984	19.992	99.998	20.004	2.309	0.518
922.000	537.555	79.982	19.992	99.991	20.006	2.154	0.482
924.000	538.555	79.983	19.994	99.995	20.005	2.243	0.502
926.000	539.645	79.984	19.994	99.995	20.002	2.487	0.515
928.000	540.655	79.983	19.993	99.997	20.005	2.258	0.510
930.000	541.678	79.982	19.993	100.005	20.004	2.360	0.510
932.000	542.703	79.984	19.993	99.996	20.009	1.946	0.511
934.000	543.744	79.984	19.993	99.998	20.006	2.141	0.520
936.001	544.769	79.984	19.992	99.997	20.008	1.976	0.506
938.000	545.756	79.985	19.992	99.987	20.009	1.950	0.503
940.000	546.787	79.985	19.992	99.997	20.009	1.917	0.482
942.000	547.821	79.986	19.991	100.009	20.009	1.895	0.521
944.000	548.890	79.985	19.991	100.008	20.008	1.979	0.523
946.000	549.929	79.986	19.992	99.991	20.005	2.269	0.551
948.000	550.957	79.985	19.992	99.998	20.005	2.271	0.510
950.000	552.007	79.986	19.991	99.999	20.006	2.130	0.524
952.000	553.027	79.986	19.993	100.014	20.005	2.232	0.531
954.000	554.099	79.985	19.993	99.992	20.004	2.365	0.541
956.000	555.124	79.985	19.992	99.996	20.012	1.657	0.503
958.000	556.125	79.985	19.991	99.994	20.008	2.041	0.494
960.000	557.137	79.986	19.991	99.999	20.006	2.154	0.470
962.000	558.181	79.985	19.991	100.002	20.007	2.101	0.519
964.000	559.216	79.986	19.992	99.998	20.008	1.976	0.507
966.000	560.229	79.986	19.991	99.989	20.010	1.859	0.497
968.000	561.273	79.987	19.992	99.996	20.007	2.105	0.504
970.000	562.334	79.988	19.991	99.991	20.007	2.056	0.513
972.000	563.334	79.987	19.991	99.996	20.005	2.240	0.500
974.000	564.353	79.988	19.991	99.989	20.009	1.916	0.529
976.000	565.359	79.989	19.992	99.996	20.010	1.850	0.521
978.000	566.422	79.985	19.990	99.986	20.005	2.256	0.532
980.000	567.380	79.988	19.992	99.984	20.001	2.544	0.466
982.000	568.426	79.985	19.993	99.988	20.006	2.138	0.486
984.000	569.469	79.986	19.992	99.995	20.004	2.353	0.517
986.000	570.453	79.986	19.993	99.989	20.006	2.167	0.471
988.000	571.532	79.986	19.993	99.984	20.005	2.285	0.530
990.000	572.517	79.984	19.993	99.996	20.008	2.005	0.498
992.000	573.550	79.986	19.994	99.996	20.004	2.302	0.489
994.000	574.575	79.985	19.992	99.986	20.010	1.854	0.502
996.000	575.624	79.984	19.993	99.991	20.005	2.260	0.512
998.000	576.616	79.987	19.994	99.990	20.006	2.205	0.492
1000.000	577.627	79.984	19.992	99.987	20.001	2.602	0.484
1002.000	578.671	79.985	19.992	99.991	20.004	2.322	0.514
1004.000	579.665	79.986	19.992	99.994	20.000	2.666	0.486
1006.000	580.664	79.983	19.992	99.998	20.005	2.263	0.511
1008.000	581.684	79.985	19.993	100.006	20.003	2.414	0.498
1010.000	582.658	79.983	19.993	100.008	20.003	2.394	0.504
1012.000	583.666	79.982	19.993	99.991	20.008	2.045	0.515
1014.000	584.667	79.984	19.994	99.995	20.005	2.234	0.503
1016.000	585.637	79.982	19.993	99.992	20.004	2.355	0.497
1018.000	586.700	79.984	19.994	99.997	19.999	2.723	0.521
1020.000	587.698	79.984	19.991	100.015	19.999	2.770	0.503
1022.000	588.727	79.984	19.992	99.997	20.002	2.513	0.520
1024.000	589.738	79.986	19.993	99.993	20.001	2.613	0.534
1026.001	590.749	79.984	19.992	99.992	19.998	2.832	0.515
1028.000	591.769	79.986	19.990	99.943	20.002	2.513	0.486
1030.001	592.816	79.986	19.992	100.037	20.004	2.349	0.500
1032.001	593.842	79.989	19.992	100.043	20.002	2.500	0.504
1034.000	594.871	79.986	19.992	99.995	20.005	2.249	0.499
1036.000	595.920	79.986	19.993	100.002	19.998	2.868	0.509
1038.001	596.913	79.985	19.992	99.987	20.003	2.411	0.510
1040.000	597.935	79.986	19.991	99.994	19.999	2.755	0.519
1042.000	598.965	79.984	19.991	99.987	20.001	2.544	0.515
1044.000	599.996	79.984	19.992	99.988	20.000	2.633	0.528
1046.001	600.985	79.984	19.991	100.000	19.996	2.968	0.498
1048.000	602.006	79.985	19.992	100.004	20.004	2.360	0.494
1050.000	603.026	79.989	19.992	99.997	20.001	2.595	0.505
1052.000	604.036	79.987	19.990	100.000	20.004	2.311	0.514
1054.000	605.057	79.989	19.992	99.990	19.999	2.748	0.501
1056.000	606.087	79.987	19.992	99.992	20.001	2.602	0.509
1058.000	607.061	79.988	19.991	100.002	20.001	2.611	0.484
1060.001	608.061	79.987	19.991	99.997	20.002	2.489	0.486
1062.000	609.102	79.983	19.991	99.995	20.004	2.318	0.517
1064.000	610.127	79.987	19.992	99.991	20.005	2.291	0.500
1066.000	611.179	79.982	19.991	99.995	20.008	1.965	0.542
1068.000	612.187	79.985	19.991	99.999	20.006	2.185	0.486
1070.000	613.166	79.984	19.992	100.008	20.006	2.143	0.477
1072.000	614.250	79.985	19.992	100.004	20.003	2.456	0.522
1074.000	615.272	79.985	19.991	99.995	20.006	2.163	0.512
1076.000	616.329	79.985	19.993	99.998	20.002	2.487	0.532
1078.000	617.338	79.984	19.993	99.988	20.003	2.424	0.499
1080.000	618.402	79.983	19.993	99.995	20.006	2.198	0.555
1082.000	619.383	79.984	19.993	100.006	20.003	2.387	0.502
1084.000	620.373	79.983	19.992	100.002	20.001	2.582	0.483
1086.000	621.391	79.984	19.991	99.989	20.005	2.222	0.490
1088.000	622.416	79.982	19.991	99.997	20.001	2.571	0.530
1090.000	623.406	79.981	19.991	99.996	20.000	2.655	0.491
1092.001	624.470	79.983	19.992	99.998	19.997	2.910	0.515
1094.000	625.486	79.984	19.992	99.991	20.000	2.679	0.502
1096.001	626.478	79.983	19.993	99.989	19.998	2.797	0.504
1098.001	627.515	79.985	19.993	99.986	20.001	2.555	0.519
1100.000	628.517	79.982	19.992	99.992	19.998	2.835	0.535
1102.000	629.528	79.985	19.993	99.999	20.000	2.644	0.525
1104.000	630.528	79.984	19.993	99.998	19.999	2.755	0.535
1106.000	631.568	79.984	19.992	99.996	19.995	3.046	0.530
1108.000	632.540	79.987	19.992	99.999	19.998	2.848	0.497
1110.000	633.547	79.985	19.992	99.988	19.997	2.914	0.494
1112.000	634.617	79.986	19.992	99.987	19.995	3.039	0.527
1114.000	635.649	79.986	19.991	99.994	19.996	2.972	0.513
1116.000	636.675	79.987	19.992	100.000	19.991	3.418	0.492
1118.000	637.661	79.986	19.991	99.999	19.995	3.072	0.480
1120.000	638.688	79.985	19.993	99.989	19.996	2.966	0.504
1122.001	639.700	79.984	19.992	99.986	19.997	2.921	0.494
1124.000	640.691	79.984	19.992	99.986	19.999	2.704	0.463
1126.000	641.750	79.987	19.991	99.991	19.995	3.045	0.499
1128.001	642.775	79.985	19.991	99.986	19.996	2.974	0.508
1130.000	643.759	79.985	19.991	99.992	19.994	3.163	0.480
1132.000	644.774	79.989	19.991	99.990	19.998	2.795	0.497
1134.000	645.815	79.985	19.992	99.989	19.995	3.074	0.490
1136.000	646.844	79.986	19.991	99.988	19.998	2.827	0.538
1138.000	647.859	79.985	19.991	99.992	19.993	3.206	0.517
1140.000	648.847	79.986	19.992	99.990	19.998	2.824	0.480
1142.000	649.910	79.986	19.992	99.997	19.996	2.961	0.501
1144.000	650.885	79.985	19.991	99.985	19.997	2.883	0.515
1146.001	651.944	79.984	19.991	99.991	19.992	3.325	0.528
1148.000	652.952	79.985	19.992	99.929	19.994	3.188	0.510
1150.000	653.936	79.984	19.991	100.056	19.995	3.070	0.516
1152.001	654.971	79.984	19.991	100.008	19.992	3.320	0.515
1154.000	656.017	79.983	19.991	99.991	19.993	3.263	0.550
1156.000	657.027	79.984	19.991	99.990	19.998	2.850	0.508
1158.000	658.067	79.988	19.992	100.001	19.994	3.156	0.513
1160.000	659.104	79.985	19.992	99.986	19.996	3.001	0.498
1162.000	660.009	79.986	19.992	99.989	19.996	2.972	0.475
1164.000	661.164	79.984	19.992	99.985	19.995	3.059	0.487
1166.000	662.223	79.986	19.992	99.998	19.993	3.198	0.544
1168.000	663.223	79.987	19.992	99.985	19.997	2.886	0.518
1170.001	664.286	79.986	19.993	99.987	19.998	2.793	0.528
1172.000	665.267	79.987	19.992	99.993	19.995	3.048	0.523
1174.000	666.340	79.984	19.992	99.985	19.995	3.047	0.544
1176.001	667.342	79.985	19.993	99.989	19.993	3.205	0.504
1178.000	668.365	79.986	19.992	99.989	19.991	3.389	0.493
1180.000	669.392	79.985	19.992	99.986	19.992	3.329	0.504
1182.001	670.485	79.986	19.992	99.991	19.991	3.389	0.528
1184.000	671.458	79.986	19.992	99.985	19.992	3.349	0.524
1186.000	672.459	79.986	19.992	99.984	19.992	3.334	0.513
1188.000	673.521	79.986	19.993	99.982	19.991	3.396	0.515
1190.001	674.551	79.986	19.993	99.987	19.993	3.269	0.492
1192.001	675.599	79.984	19.994	99.986	19.993	3.207	0.537
1194.000	676.601	79.984	19.992	99.985	19.993	3.201	0.515
1196.001	677.610	79.985	19.994	99.986	19.994	3.145	0.502
1198.001	678.611	79.986	19.994	99.989	19.996	2.994	0.494
1200.000	679.596	79.984	19.992	99.989	19.998	2.863	0.489
1202.001	680.619	79.987	19.992	99.991	19.991	3.407	0.513
1204.000	681.628	79.986	19.992	99.989	19.990	3.484	0.504
1206.000	682.656	79.987	19.991	99.989	19.993	3.207	0.527
1208.001	683.658	79.987	19.991	99.987	19.995	3.037	0.505
1210.001	684.628	79.986	19.990	99.987	19.995	3.041	0.501
1212.000	685.706	79.988	19.992	99.987	19.995	3.079	0.531
1214.000	686.692	79.987	19.992	99.987	19.998	2.850	0.525
1216.000	687.693	79.988	19.991	99.987	19.991	3.418	0.496
1218.000	688.665	79.986	19.991	99.989	19.992	3.327	0.499
1220.000	689.727	79.987	19.992	99.990	19.989	3.529	0.500
1222.000	690.785	79.983	19.993	99.988	19.992	3.342	0.507
1224.000	691.770	79.984	19.992	99.985	19.994	3.172	0.517
1226.000	692.817	79.986	19.993	99.988	19.988	3.611	0.527
1228.001	693.822	79.984	19.991	99.985	19.988	3.655	0.527
1230.000	694.854	79.983	19.992	99.987	19.988	3.642	0.521
1232.001	695.840	79.987	19.993	99.986	19.989	3.551	0.494
1234.000	696.903	79.985	19.992	99.983	19.988	3.671	0.511
1236.000	697.868	79.985	19.992	99.982	19.994	3.163	0.530
1238.001	698.929	79.987	19.993	99.984	19.988	3.644	0.522
1240.001	699.901	79.987	19.992	99.986	19.991	3.431	0.499
1242.000	700.942	79.986	19.992	99.985	19.988	3.631	0.511
1244.000	701.917	79.986	19.992	99.986	19.986	3.830	0.508
1246.000	702.960	79.984	19.993	99.985	19.986	3.817	0.530
1248.000	703.967	79.983	19.992	99.985	19.991	3.394	0.523
1250.000	704.961	79.986	19.993	99.985	19.991	3.409	0.502
1252.000	705.938	79.983	19.992	99.984	19.990	3.480	0.456
1254.000	706.949	79.982	19.993	99.987	19.985	3.893	0.497
1256.000	707.970	79.985	19.993	99.988	19.988	3.673	0.489
1258.000	708.976	79.985	19.992	99.991	19.989	3.582	0.520
1260.001	710.016	79.985	19.992	99.987	19.992	3.283	0.513
1262.000	711.013	79.985	19.992	99.989	19.993	3.249	0.494
1264.000	712.077	79.984	19.992	99.988	19.993	3.274	0.509
1266.001	713.108	79.986	19.991	99.987	19.988	3.662	0.523
1268.000	714.118	79.988	19.992	99.994	19.989	3.567	0.501
1270.001	715.166	79.987	19.992	99.987	19.986	3.782	0.502
1272.000	716.241	79.986	19.992	99.985	19.993	3.263	0.544
1274.000	717.249	79.986	19.992	99.990	19.988	3.689	0.503
1276.000	718.263	79.985	19.992	99.988	19.985	3.888	0.509
1278.000	719.316	79.984	19.993	99.992	19.990	3.513	0.546
1280.000	720.336	79.985	19.993	99.989	19.993	3.207	0.552
1282.000	721.392	79.986	19.993	99.989	19.989	3.595	0.513
1284.001	722.366	79.985	19.992	99.991	19.988	3.631	0.508
1286.000	723.414	79.985	19.991	99.990	19.985	3.895	0.553
1288.000	724.456	79.987	19.992	99.989	19.992	3.334	0.539
1290.000	725.465	79.989	19.992	99.985	19.989	3.595	0.505
1292.000	726.508	79.989	19.991	99.985	19.987	3.760	0.525
1294.000	727.592	79.989	19.992	99.985	19.985	3.906	0.585
1296.000	728.579	79.987	19.992	99.990	19.986	3.844	0.495
1298.000	729.547	79.987	19.992	100.000	19.986	3.791	0.505
1300.000	730.595	79.988	19.993	99.986	19.981	4.188	0.522
1302.001	731.609	79.985	19.991	99.987	19.982	4.123	0.508
1304.000	732.623	79.986	19.992	99.991	19.985	3.884	0.489
1306.001	733.621	79.987	19.993	99.991	19.987	3.764	0.490
1308.001	734.653	79.985	19.991	99.986	19.986	3.837	0.508
1310.001	735.620	79.985	19.992	99.988	19.983	4.081	0.488
1312.000	736.633	79.985	19.992	99.985	19.983	4.097	0.491
1314.000	737.672	79.984	19.992	99.984	19.982	4.179	0.510
1316.000	738.694	79.983	19.992	99.986	19.980	4.349	0.529
1318.000	739.721	79.985	19.993	99.986	19.979	4.401	0.526
1320.001	740.710	79.984	19.991	99.988	19.981	4.188	0.473
1322.000	741.779	79.984	19.992	99.988	19.983	4.054	0.526
1324.000	742.773	79.984	19.990	99.988	19.985	3.877	0.481
1325.501	743.527	79.987	19.991	99.987	19.982	4.130	0.506