File: 01_Data/Feather_Pillow_Feathers/MCC/Feather_Pillow_Feathers_MCC_30K_min_220106_R1.txt
Sample ID:	C:\MCC\MCC Cal\Test\Feather_PillowB_Feathers_MCC_30K_min_220106_R1.txt
Sample Weight (mg):	4.91
Heating Rate (C/s):	0.5
Combustor Temp (C):	900
N2 Flow Rate (cc/min):	80
O2 Flow Rate (cc/min):	20
Calibration File:	C:\MCC\MCC Cal\Coeff1 JN10440_30_210304.txt.txt
T Correction Coefficients:	0	1.024463	0
Time Shift (s):	14
*
Time (s)	Temperature (C)	N2 flow rate (cc/min)	O2 flow rate (cc/min)	Flow Rate (cc/min)	Oxygen (%)	HRR (W/g)	Heating rate (C/s)
-0.001	112.287	80.008	19.994	104.216	20.096	-0.194	-0.012
2.000	112.267	80.009	19.994	104.220	20.090	0.212	-0.044
3.999	112.283	80.008	19.994	104.213	20.090	0.223	0.006
5.999	112.309	80.008	19.994	104.213	20.095	-0.118	0.034
8.000	112.268	80.007	19.995	104.211	20.093	0.007	-0.011
9.999	112.294	80.009	19.995	104.218	20.093	0.024	0.010
11.999	112.280	80.007	19.994	104.232	20.092	0.049	0.016
13.999	112.290	80.007	19.994	104.229	20.090	0.196	0.016
16.000	112.248	80.008	19.994	104.224	20.089	0.269	-0.016
18.000	112.282	80.008	19.994	104.257	20.084	0.574	0.026
20.000	112.303	80.010	19.993	104.298	20.078	0.971	-0.023
22.000	112.379	80.010	19.993	104.320	20.073	1.309	0.035
24.000	112.424	80.011	19.993	104.338	20.071	1.495	0.015
26.000	112.560	80.011	19.992	104.330	20.069	1.567	0.043
28.000	112.680	80.011	19.992	104.343	20.067	1.724	0.078
30.000	112.801	80.010	19.993	104.367	20.064	1.921	0.053
32.000	112.940	80.009	19.993	104.380	20.057	2.359	0.081
33.999	113.176	80.009	19.992	104.403	20.057	2.410	0.096
35.999	113.438	80.011	19.992	104.415	20.053	2.690	0.114
37.999	113.681	80.012	19.994	104.414	20.051	2.772	0.121
40.000	114.031	80.011	19.993	104.425	20.049	2.894	0.158
41.999	114.354	80.011	19.994	104.432	20.050	2.827	0.164
43.999	114.748	80.012	19.993	104.446	20.047	3.061	0.185
45.999	115.106	80.011	19.995	104.443	20.044	3.225	0.190
47.999	115.555	80.012	19.992	104.448	20.043	3.318	0.228
49.999	115.966	80.011	19.993	104.448	20.047	3.087	0.210
51.999	116.517	80.011	19.992	104.448	20.043	3.309	0.288
53.999	116.963	80.011	19.993	104.452	20.043	3.344	0.252
56.000	117.498	80.011	19.992	104.452	20.045	3.213	0.288
57.999	118.020	80.010	19.992	104.451	20.041	3.431	0.268
59.999	118.572	80.009	19.994	104.453	20.041	3.435	0.268
61.999	119.173	80.009	19.992	104.456	20.045	3.209	0.307
64.000	119.766	80.008	19.992	104.464	20.041	3.433	0.275
66.000	120.415	80.011	19.992	104.457	20.042	3.371	0.295
67.999	121.004	80.009	19.992	104.459	20.042	3.411	0.287
69.999	121.685	80.009	19.992	104.458	20.046	3.131	0.321
71.999	122.412	80.009	19.993	104.475	20.039	3.591	0.361
73.999	123.125	80.010	19.993	104.462	20.043	3.351	0.348
75.999	123.836	80.008	19.995	104.463	20.043	3.332	0.343
77.999	124.554	80.008	19.996	104.465	20.041	3.481	0.353
80.000	125.315	80.008	19.992	104.469	20.035	3.849	0.375
81.999	126.088	80.008	19.995	104.462	20.042	3.377	0.397
83.999	126.824	80.008	19.994	104.464	20.040	3.495	0.372
85.999	127.638	80.009	19.994	104.475	20.036	3.757	0.404
87.999	128.402	80.008	19.994	104.479	20.036	3.788	0.423
89.999	129.243	80.008	19.993	104.479	20.035	3.868	0.424
92.000	130.079	80.010	19.994	104.489	20.038	3.627	0.410
93.999	130.864	80.008	19.994	104.486	20.036	3.777	0.415
96.000	131.707	80.011	19.994	104.483	20.036	3.810	0.432
97.999	132.564	80.008	19.994	104.475	20.035	3.861	0.437
99.999	133.435	80.008	19.994	104.479	20.033	3.988	0.424
101.999	134.285	80.010	19.992	104.485	20.036	3.781	0.418
104.000	135.169	80.009	19.995	104.484	20.035	3.836	0.437
105.999	136.102	80.011	19.994	104.482	20.035	3.847	0.449
107.999	137.065	80.010	19.993	104.481	20.038	3.674	0.478
110.000	137.935	80.008	19.994	104.482	20.039	3.616	0.458
111.999	138.849	80.008	19.994	104.482	20.036	3.770	0.453
113.999	139.776	80.007	19.995	104.485	20.035	3.885	0.453
115.999	140.735	80.011	19.993	104.485	20.032	4.079	0.503
118.001	141.679	80.008	19.994	104.486	20.035	3.841	0.457
119.999	142.641	80.009	19.996	104.484	20.034	3.890	0.472
121.999	143.620	80.010	19.995	104.482	20.031	4.123	0.462
124.000	144.629	80.011	19.992	104.488	20.033	3.997	0.484
126.000	145.623	80.009	19.991	104.478	20.032	4.032	0.497
128.000	146.608	80.012	19.994	104.481	20.035	3.830	0.481
130.000	147.595	80.012	19.991	104.470	20.032	4.033	0.476
132.000	148.565	80.010	19.993	104.469	20.031	4.086	0.501
134.000	149.595	80.011	19.993	104.482	20.032	4.037	0.495
136.000	150.532	80.010	19.993	104.473	20.037	3.721	0.461
138.000	151.589	80.009	19.993	104.475	20.033	3.954	0.514
140.000	152.573	80.008	19.992	104.466	20.031	4.092	0.514
142.001	153.568	80.008	19.993	104.468	20.034	3.902	0.494
144.001	154.578	80.008	19.993	104.463	20.034	3.948	0.502
146.000	155.525	80.008	19.994	104.465	20.030	4.184	0.478
148.000	156.554	80.007	19.993	104.471	20.037	3.744	0.490
150.000	157.594	80.008	19.994	104.473	20.034	3.902	0.500
152.000	158.605	80.009	19.992	104.461	20.032	4.055	0.505
154.000	159.639	80.008	19.993	104.460	20.032	4.053	0.512
156.000	160.625	80.009	19.992	104.458	20.032	4.062	0.509
158.000	161.625	80.009	19.993	104.463	20.036	3.818	0.478
160.000	162.637	80.010	19.992	104.464	20.035	3.883	0.484
162.000	163.646	80.008	19.993	104.454	20.031	4.113	0.496
164.000	164.694	80.010	19.993	104.452	20.037	3.736	0.518
166.000	165.697	80.010	19.993	104.451	20.038	3.620	0.476
168.000	166.709	80.009	19.994	104.456	20.035	3.824	0.495
170.000	167.719	80.008	19.994	104.445	20.037	3.727	0.518
172.000	168.719	80.009	19.994	104.447	20.035	3.840	0.509
174.000	169.766	80.008	19.995	104.452	20.036	3.773	0.491
176.000	170.735	80.011	19.995	104.450	20.031	4.095	0.463
178.000	171.808	80.009	19.993	104.451	20.032	4.036	0.517
180.000	172.812	80.010	19.995	104.452	20.030	4.202	0.505
182.000	173.808	80.009	19.993	104.451	20.032	4.038	0.489
184.000	174.810	80.010	19.995	104.448	20.030	4.169	0.503
186.000	175.807	80.012	19.994	104.450	20.032	4.034	0.530
188.000	176.760	80.010	19.993	104.445	20.031	4.135	0.471
190.000	177.739	80.012	19.994	104.441	20.030	4.213	0.498
192.000	178.782	80.009	19.992	104.448	20.028	4.328	0.519
194.000	179.740	80.010	19.993	104.448	20.030	4.208	0.476
196.000	180.778	80.008	19.994	104.434	20.024	4.560	0.523
198.000	181.773	80.007	19.994	104.444	20.025	4.490	0.502
200.000	182.748	80.009	19.992	104.453	20.025	4.504	0.464
202.000	183.755	80.008	19.993	104.442	20.026	4.432	0.493
204.000	184.765	80.010	19.993	104.425	20.022	4.730	0.493
206.000	185.754	80.011	19.996	104.435	20.024	4.566	0.518
208.000	186.781	80.010	19.996	104.423	20.024	4.603	0.520
210.000	187.755	80.009	19.993	104.423	20.021	4.755	0.496
212.000	188.738	80.012	19.993	104.422	20.020	4.817	0.492
214.000	189.774	80.010	19.993	104.429	20.023	4.653	0.517
216.000	190.747	80.010	19.993	104.421	20.020	4.848	0.500
218.000	191.712	80.012	19.993	104.418	20.018	4.977	0.458
220.000	192.689	80.011	19.992	104.428	20.018	4.997	0.476
222.000	193.718	80.009	19.994	104.419	20.019	4.884	0.494
224.000	194.712	80.008	19.994	104.420	20.013	5.322	0.502
226.000	195.699	80.012	19.993	104.415	20.012	5.393	0.488
228.000	196.689	80.009	19.993	104.420	20.011	5.459	0.483
230.000	197.652	80.010	19.993	104.413	20.007	5.732	0.494
232.000	198.635	80.010	19.995	104.415	20.006	5.777	0.482
234.000	199.646	80.010	19.994	104.414	20.003	5.981	0.489
236.000	200.656	80.010	19.994	104.412	19.997	6.404	0.506
238.000	201.629	80.008	19.993	104.414	19.997	6.382	0.515
240.000	202.616	80.010	19.993	104.414	19.991	6.799	0.488
242.000	203.571	80.010	19.994	104.415	19.990	6.815	0.498
244.000	204.527	80.009	19.993	104.415	19.985	7.148	0.466
246.000	205.538	80.010	19.993	104.415	19.980	7.502	0.484
248.000	206.495	80.010	19.993	104.413	19.973	7.943	0.495
250.000	207.487	80.009	19.992	104.412	19.972	8.056	0.486
252.000	208.485	80.010	19.993	104.413	19.965	8.479	0.489
254.000	209.496	80.008	19.992	104.408	19.962	8.691	0.515
256.000	210.471	80.009	19.993	104.406	19.959	8.905	0.491
258.000	211.396	80.008	19.993	104.386	19.952	9.345	0.485
260.000	212.367	80.007	19.994	104.396	19.953	9.283	0.473
262.000	213.371	80.009	19.993	104.391	19.947	9.672	0.467
264.000	214.330	80.010	19.994	104.386	19.942	10.019	0.483
266.000	215.309	80.009	19.994	104.377	19.937	10.368	0.485
268.000	216.289	80.011	19.993	104.377	19.931	10.716	0.456
270.000	217.277	80.011	19.993	104.376	19.928	10.913	0.502
272.000	218.225	80.011	19.992	104.379	19.923	11.257	0.495
274.000	219.234	80.009	19.993	104.376	19.917	11.666	0.513
276.000	220.213	80.009	19.993	104.373	19.911	12.062	0.491
278.000	221.189	80.009	19.993	104.376	19.908	12.287	0.493
280.000	222.161	80.009	19.993	104.374	19.909	12.217	0.485
282.000	223.149	80.011	19.993	104.373	19.901	12.705	0.507
284.000	224.107	80.011	19.993	104.367	19.902	12.676	0.466
286.000	225.072	80.011	19.993	104.354	19.902	12.700	0.468
288.000	226.055	80.012	19.993	104.365	19.897	12.993	0.484
290.000	227.050	80.010	19.993	104.367	19.900	12.795	0.496
292.000	228.011	80.012	19.994	104.364	19.894	13.196	0.466
294.000	229.040	80.012	19.994	104.372	19.894	13.182	0.520
296.000	230.021	80.011	19.994	104.373	19.894	13.196	0.495
298.000	231.039	80.012	19.995	104.374	19.898	12.924	0.482
300.000	232.056	80.014	19.994	104.386	19.894	13.176	0.480
302.000	233.052	80.009	19.995	104.382	19.893	13.247	0.513
304.000	234.051	80.012	19.994	104.382	19.887	13.681	0.498
306.000	235.041	80.011	19.994	104.395	19.889	13.534	0.490
308.000	236.039	80.010	19.994	104.390	19.891	13.385	0.488
310.000	236.997	80.008	19.994	104.403	19.888	13.614	0.526
312.000	238.016	80.009	19.993	104.401	19.885	13.815	0.494
314.000	239.015	80.011	19.993	104.412	19.886	13.758	0.515
316.000	240.001	80.010	19.992	104.412	19.881	14.042	0.511
318.000	240.994	80.010	19.993	104.413	19.879	14.202	0.512
320.000	242.003	80.010	19.994	104.413	19.879	14.220	0.515
322.000	243.024	80.010	19.992	104.417	19.880	14.155	0.533
324.000	244.025	80.010	19.993	104.416	19.872	14.655	0.491
326.000	245.048	80.011	19.993	104.416	19.870	14.826	0.549
328.000	246.018	80.011	19.993	104.416	19.861	15.384	0.500
330.000	247.049	80.010	19.993	104.417	19.864	15.222	0.488
332.000	248.032	80.008	19.992	104.416	19.864	15.190	0.506
334.000	249.064	80.010	19.993	104.416	19.857	15.660	0.538
336.000	250.102	80.011	19.993	104.417	19.856	15.730	0.535
338.000	251.126	80.009	19.993	104.418	19.853	15.899	0.488
340.000	252.135	80.009	19.993	104.418	19.850	16.107	0.513
342.000	253.137	80.009	19.992	104.416	19.847	16.312	0.511
344.000	254.152	80.008	19.992	104.414	19.840	16.777	0.508
346.000	255.154	80.010	19.993	104.412	19.839	16.873	0.530
348.000	256.183	80.011	19.992	104.418	19.831	17.378	0.497
350.000	257.172	80.010	19.994	104.416	19.827	17.621	0.500
352.000	258.204	80.012	19.992	104.412	19.826	17.727	0.531
354.000	259.213	80.012	19.993	104.408	19.819	18.174	0.536
356.000	260.188	80.010	19.993	104.411	19.813	18.567	0.487
358.000	261.200	80.011	19.992	104.411	19.811	18.697	0.510
360.000	262.211	80.011	19.994	104.408	19.808	18.923	0.498
362.000	263.180	80.010	19.993	104.410	19.799	19.486	0.489
364.000	264.186	80.010	19.993	104.411	19.793	19.936	0.508
366.000	265.210	80.010	19.993	104.407	19.783	20.561	0.516
368.000	266.193	80.011	19.993	104.405	19.779	20.838	0.524
370.000	267.200	80.011	19.994	104.408	19.771	21.362	0.483
372.000	268.186	80.011	19.993	104.408	19.766	21.678	0.484
374.000	269.217	80.011	19.994	104.403	19.755	22.398	0.499
376.000	270.156	80.012	19.993	104.406	19.750	22.769	0.492
378.000	271.178	80.012	19.993	104.409	19.741	23.372	0.458
380.000	272.197	80.012	19.994	104.409	19.733	23.890	0.505
382.000	273.188	80.012	19.994	104.410	19.723	24.529	0.504
384.000	274.178	80.009	19.994	104.411	19.715	25.094	0.483
386.000	275.130	80.009	19.994	104.409	19.708	25.539	0.476
388.000	276.127	80.009	19.993	104.414	19.695	26.392	0.500
390.000	277.196	80.008	19.994	104.414	19.686	26.996	0.504
392.000	278.169	80.008	19.993	104.416	19.671	28.034	0.497
394.000	279.179	80.009	19.994	104.416	19.665	28.408	0.518
396.000	280.189	80.009	19.994	104.417	19.654	29.161	0.509
398.000	281.146	80.009	19.993	104.429	19.645	29.745	0.494
400.000	282.205	80.008	19.994	104.441	19.631	30.639	0.525
402.000	283.173	80.010	19.993	104.433	19.622	31.232	0.499
404.000	284.180	80.010	19.993	104.446	19.610	32.038	0.520
406.000	285.112	80.009	19.993	104.451	19.599	32.782	0.469
408.000	286.173	80.008	19.993	104.455	19.589	33.480	0.500
410.000	287.170	80.009	19.994	104.456	19.580	34.054	0.520
412.000	288.172	80.010	19.993	104.453	19.570	34.695	0.499
414.000	289.162	80.010	19.994	104.454	19.561	35.285	0.476
416.000	290.174	80.009	19.994	104.453	19.555	35.696	0.518
418.000	291.202	80.008	19.993	104.452	19.550	36.037	0.504
420.000	292.184	80.008	19.994	104.448	19.546	36.297	0.494
422.000	293.216	80.009	19.994	104.451	19.551	36.002	0.508
424.000	294.204	80.010	19.993	104.449	19.555	35.744	0.503
426.000	295.187	80.009	19.994	104.450	19.559	35.478	0.486
428.000	296.178	80.011	19.993	104.452	19.563	35.197	0.480
430.000	297.176	80.010	19.993	104.459	19.568	34.872	0.491
432.000	298.154	80.010	19.993	104.484	19.564	35.127	0.506
434.000	299.165	80.010	19.993	104.506	19.550	36.091	0.497
436.000	300.144	80.012	19.993	104.538	19.529	37.494	0.502
438.000	301.133	80.012	19.992	104.564	19.497	39.607	0.477
440.000	302.124	80.011	19.994	104.570	19.462	41.884	0.486
442.000	303.129	80.010	19.994	104.561	19.414	45.097	0.507
444.000	304.163	80.011	19.994	104.549	19.372	47.825	0.523
446.000	305.117	80.011	19.993	104.546	19.331	50.574	0.497
448.000	306.148	80.011	19.993	104.546	19.297	52.871	0.512
450.000	307.203	80.009	19.993	104.533	19.252	55.828	0.568
452.000	308.232	80.012	19.994	104.520	19.233	57.086	0.526
454.000	309.232	80.012	19.994	104.542	19.244	56.376	0.532
456.000	310.272	80.011	19.994	104.402	19.222	58.059	0.512
458.000	311.263	80.011	19.994	104.503	19.245	56.354	0.517
460.000	312.336	80.011	19.993	104.456	19.297	52.696	0.543
462.000	313.372	80.011	19.993	104.424	19.318	51.378	0.511
464.000	314.449	80.011	19.992	104.474	19.233	57.092	0.541
466.000	315.465	80.009	19.993	104.719	19.178	60.927	0.510
468.000	316.533	80.009	19.994	104.784	19.190	60.051	0.543
470.000	317.575	80.009	19.993	104.370	19.220	57.882	0.541
472.000	318.597	80.009	19.993	104.213	19.259	55.289	0.510
474.000	319.668	80.008	19.993	104.359	19.220	57.969	0.532
476.000	320.672	80.008	19.993	104.693	19.158	62.105	0.493
478.000	321.681	80.009	19.992	104.814	19.148	62.781	0.495
480.000	322.774	80.010	19.994	104.512	19.159	62.220	0.526
482.000	323.756	80.009	19.994	104.320	19.171	61.426	0.479
484.000	324.739	80.009	19.994	104.362	19.204	58.972	0.496
486.000	325.787	80.009	19.994	104.527	19.245	56.133	0.501
488.000	326.754	80.007	19.993	104.566	19.195	59.498	0.482
490.000	327.766	80.009	19.994	104.591	19.062	68.587	0.512
492.000	328.800	80.011	19.993	104.899	19.011	71.987	0.496
494.000	329.785	80.008	19.993	104.602	19.023	71.091	0.501
496.000	330.767	80.009	19.993	104.208	19.062	68.505	0.471
498.000	331.779	80.009	19.993	104.182	19.075	67.720	0.497
500.000	332.807	80.009	19.994	104.477	19.078	67.392	0.504
502.000	333.801	80.009	19.992	104.743	19.099	65.913	0.503
504.000	334.800	80.008	19.993	104.595	19.104	65.705	0.501
506.000	335.835	80.010	19.994	104.481	19.041	69.908	0.518
508.000	336.799	80.009	19.994	104.645	19.022	71.114	0.501
510.000	337.822	80.011	19.993	104.596	19.042	69.719	0.525
512.000	338.801	80.012	19.992	104.418	19.029	70.595	0.491
514.000	339.868	80.011	19.994	104.416	19.007	72.111	0.533
516.000	340.804	80.011	19.993	104.572	19.004	72.393	0.490
518.000	341.874	80.010	19.994	104.587	19.030	70.590	0.507
520.000	342.837	80.011	19.993	104.433	19.077	67.435	0.516
522.000	343.812	80.011	19.994	104.376	19.122	64.473	0.499
524.000	344.819	80.009	19.994	104.487	19.123	64.394	0.509
526.000	345.819	80.011	19.993	104.605	19.127	64.106	0.507
528.000	346.824	80.010	19.993	104.625	19.134	63.685	0.513
530.000	347.830	80.010	19.993	104.484	19.133	63.799	0.502
532.000	348.806	80.011	19.992	104.485	19.150	62.688	0.491
534.000	349.834	80.011	19.991	104.443	19.193	59.838	0.493
536.001	350.839	80.012	19.992	104.454	19.235	56.910	0.492
538.000	351.847	80.012	19.991	104.462	19.268	54.711	0.485
540.000	352.867	80.012	19.993	104.518	19.261	55.144	0.494
542.000	353.910	80.011	19.993	104.600	19.226	57.546	0.516
544.000	354.946	80.011	19.992	104.611	19.204	59.103	0.542
546.000	355.958	80.011	19.993	104.486	19.206	58.895	0.507
548.000	356.974	80.010	19.993	104.374	19.241	56.511	0.480
550.000	357.999	80.008	19.994	104.302	19.268	54.697	0.517
552.000	359.082	80.008	19.994	104.372	19.253	55.728	0.553
554.000	360.122	80.008	19.994	104.557	19.256	55.545	0.546
556.000	361.202	80.010	19.995	104.558	19.273	54.439	0.517
558.000	362.284	80.009	19.993	104.426	19.305	52.336	0.539
560.000	363.250	80.009	19.994	104.327	19.333	50.413	0.491
562.000	364.325	80.010	19.993	104.384	19.368	48.117	0.508
564.000	365.355	80.009	19.993	104.487	19.397	46.182	0.541
566.000	366.405	80.009	19.993	104.490	19.415	45.032	0.500
568.000	367.479	80.008	19.994	104.467	19.437	43.564	0.532
570.000	368.506	80.010	19.994	104.450	19.449	42.711	0.539
572.000	369.510	80.011	19.994	104.439	19.466	41.609	0.470
574.000	370.599	80.008	19.994	104.444	19.458	42.134	0.495
576.000	371.647	80.009	19.994	104.459	19.442	43.169	0.536
578.000	372.671	80.008	19.995	104.462	19.434	43.712	0.519
580.000	373.744	80.008	19.995	104.412	19.433	43.770	0.484
582.000	374.831	80.008	19.994	104.375	19.455	42.313	0.490
584.000	375.863	80.007	19.993	104.364	19.473	41.131	0.572
586.000	376.874	80.008	19.994	104.405	19.492	39.840	0.532
588.000	377.968	80.008	19.994	104.418	19.506	38.933	0.468
590.000	379.009	80.011	19.994	104.417	19.515	38.381	0.204
592.000	379.780	80.011	19.993	104.417	19.530	37.370	0.354
594.000	380.731	80.010	19.992	104.414	19.542	36.544	0.137
596.000	382.025	80.011	19.992	104.392	19.558	35.470	0.470
598.000	383.177	80.012	19.992	104.382	19.571	34.612	0.501
600.000	384.230	80.009	19.993	104.406	19.581	33.976	0.589
602.000	385.206	80.010	19.993	104.397	19.598	32.825	0.463
604.000	386.280	80.011	19.994	104.399	19.607	32.225	0.576
606.000	387.249	80.009	19.993	104.386	19.615	31.723	0.486
608.000	388.256	80.010	19.994	104.384	19.625	31.025	0.527
610.000	389.242	80.011	19.995	104.382	19.636	30.298	0.510
612.000	390.258	80.008	19.993	104.375	19.646	29.623	0.496
614.000	391.248	80.011	19.993	104.378	19.652	29.227	0.480
616.000	392.274	80.012	19.993	104.375	19.659	28.808	0.516
618.000	393.281	80.011	19.995	104.376	19.666	28.335	0.474
620.000	394.295	80.010	19.993	104.376	19.675	27.749	0.483
622.000	395.307	80.013	19.993	104.375	19.686	27.021	0.487
624.000	396.296	80.012	19.993	104.373	19.689	26.804	0.496
626.000	397.249	80.012	19.993	104.373	19.700	26.073	0.480
628.000	398.224	80.011	19.992	104.368	19.701	25.968	0.487
630.000	399.218	80.010	19.992	104.373	19.709	25.466	0.521
632.000	400.181	80.010	19.994	104.371	19.717	24.937	0.464
634.000	401.165	80.010	19.994	104.375	19.720	24.753	0.487
636.000	402.189	80.009	19.993	104.374	19.724	24.486	0.493
638.000	403.205	80.008	19.994	104.368	19.728	24.186	0.487
640.000	404.155	80.009	19.994	104.373	19.728	24.205	0.489
642.000	405.134	80.010	19.994	104.373	19.737	23.623	0.463
644.000	406.172	80.008	19.994	104.375	19.736	23.666	0.527
646.000	407.142	80.010	19.995	104.364	19.735	23.742	0.486
648.000	408.120	80.010	19.994	104.371	19.743	23.192	0.487
650.000	409.092	80.010	19.994	104.373	19.748	22.863	0.491
652.000	410.073	80.009	19.993	104.357	19.752	22.585	0.476
654.000	411.101	80.009	19.994	104.368	19.756	22.374	0.475
656.000	412.065	80.011	19.995	104.363	19.766	21.710	0.485
658.000	413.074	80.008	19.993	104.374	19.766	21.701	0.512
660.000	414.075	80.008	19.993	104.363	19.773	21.242	0.508
662.000	415.042	80.008	19.994	104.358	19.781	20.707	0.492
664.000	416.004	80.008	19.995	104.348	19.780	20.786	0.472
666.000	417.081	80.007	19.993	104.355	19.787	20.317	0.493
668.000	418.065	80.009	19.994	104.367	19.793	19.884	0.503
670.000	419.061	80.009	19.995	104.370	19.795	19.790	0.529
672.000	420.060	80.009	19.993	104.367	19.801	19.356	0.510
674.000	421.060	80.010	19.995	104.360	19.809	18.849	0.513
676.000	422.058	80.011	19.994	104.342	19.813	18.591	0.503
678.000	423.082	80.008	19.994	104.345	19.816	18.376	0.509
680.000	424.107	80.010	19.993	104.345	19.821	18.069	0.526
682.000	425.081	80.010	19.993	104.336	19.824	17.815	0.478
684.000	426.084	80.012	19.993	104.345	19.829	17.506	0.507
686.000	427.133	80.011	19.992	104.343	19.830	17.464	0.492
688.000	428.148	80.011	19.994	104.336	19.834	17.149	0.488
690.000	429.145	80.010	19.993	104.340	19.838	16.907	0.517
692.000	430.169	80.011	19.993	104.343	19.844	16.535	0.500
694.000	431.164	80.010	19.993	104.349	19.842	16.629	0.485
696.000	432.202	80.011	19.993	104.337	19.848	16.249	0.530
698.000	433.204	80.011	19.993	104.345	19.854	15.862	0.514
700.000	434.234	80.011	19.994	104.337	19.853	15.928	0.512
702.000	435.217	80.012	19.994	104.344	19.860	15.481	0.475
704.000	436.276	80.012	19.994	104.345	19.860	15.461	0.531
706.000	437.269	80.012	19.994	104.339	19.860	15.457	0.531
708.000	438.249	80.010	19.993	104.347	19.863	15.255	0.503
710.000	439.261	80.011	19.993	104.334	19.867	14.994	0.512
712.000	440.266	80.010	19.993	104.336	19.865	15.139	0.475
714.000	441.247	80.009	19.992	104.336	19.870	14.757	0.508
716.000	442.219	80.010	19.993	104.336	19.869	14.835	0.491
718.000	443.238	80.008	19.993	104.326	19.875	14.430	0.515
720.000	444.187	80.008	19.992	104.308	19.878	14.267	0.499
722.000	445.076	80.010	19.993	104.305	19.874	14.508	0.481
724.000	445.931	80.010	19.993	104.304	19.884	13.862	0.403
726.000	446.828	80.008	19.993	104.310	19.886	13.733	0.439
728.000	447.685	80.010	19.994	104.307	19.888	13.613	0.442
730.000	448.540	80.009	19.993	104.331	19.888	13.571	0.428
732.000	449.406	80.009	19.994	104.330	19.891	13.389	0.400
734.000	450.266	80.010	19.994	104.331	19.893	13.271	0.408
736.000	451.168	80.009	19.993	104.337	19.893	13.292	0.414
738.000	452.091	80.010	19.993	104.338	19.897	13.010	0.446
740.000	452.982	80.010	19.995	104.331	19.901	12.739	0.448
742.000	453.924	80.009	19.995	104.334	19.901	12.737	0.461
744.000	454.923	80.008	19.993	104.333	19.899	12.864	0.489
746.000	455.845	80.008	19.994	104.334	19.901	12.710	0.452
748.000	456.819	80.009	19.994	104.335	19.902	12.688	0.473
750.000	457.815	80.008	19.993	104.334	19.909	12.230	0.466
752.000	458.801	80.009	19.993	104.336	19.903	12.575	0.497
754.000	459.790	80.009	19.994	104.332	19.907	12.365	0.448
756.000	460.847	80.012	19.994	104.337	19.907	12.328	0.481
758.000	461.828	80.011	19.994	104.335	19.907	12.356	0.479
760.000	462.887	80.010	19.993	104.333	19.908	12.254	0.531
762.000	463.919	80.010	19.994	104.331	19.911	12.069	0.524
764.000	464.907	80.011	19.994	104.334	19.912	11.990	0.489
766.000	465.954	80.010	19.994	104.337	19.914	11.859	0.530
768.000	466.968	80.011	19.995	104.334	19.914	11.860	0.525
770.000	468.011	80.010	19.995	104.335	19.919	11.562	0.542
772.000	469.097	80.011	19.996	104.335	19.917	11.655	0.528
774.000	470.124	80.009	19.995	104.334	19.921	11.373	0.537
776.000	471.179	80.010	19.995	104.327	19.924	11.237	0.533
778.000	472.238	80.011	19.994	104.328	19.925	11.159	0.544
780.000	473.309	80.011	19.993	104.336	19.921	11.387	0.511
782.000	474.385	80.012	19.993	104.329	19.926	11.059	0.551
784.000	475.439	80.009	19.993	104.331	19.925	11.111	0.508
786.000	476.454	80.011	19.993	104.332	19.931	10.769	0.498
788.000	477.544	80.011	19.994	104.319	19.931	10.727	0.553
790.000	478.590	80.010	19.993	104.331	19.934	10.511	0.517
792.000	479.611	80.011	19.993	104.327	19.930	10.830	0.509
794.000	480.689	80.010	19.994	104.318	19.935	10.492	0.521
796.000	481.726	80.009	19.993	104.327	19.931	10.755	0.476
798.000	482.796	80.009	19.993	104.332	19.937	10.369	0.547
800.000	483.818	80.010	19.993	104.329	19.938	10.253	0.532
802.000	484.858	80.010	19.993	104.330	19.938	10.263	0.501
804.000	485.890	80.012	19.993	104.311	19.944	9.850	0.525
806.000	486.944	80.010	19.993	104.314	19.941	10.055	0.545
808.000	487.984	80.010	19.994	104.316	19.944	9.882	0.519
810.000	489.041	80.011	19.993	104.316	19.940	10.120	0.531
812.000	490.054	80.011	19.993	104.320	19.945	9.819	0.494
814.000	491.118	80.010	19.993	104.309	19.943	9.976	0.533
816.000	492.152	80.011	19.992	104.315	19.944	9.855	0.521
818.000	493.193	80.010	19.993	104.305	19.948	9.593	0.527
820.000	494.205	80.011	19.993	104.304	19.946	9.746	0.506
822.000	495.249	80.010	19.994	104.315	19.948	9.589	0.510
824.000	496.302	80.009	19.994	104.306	19.950	9.463	0.472
826.000	497.282	80.010	19.995	104.301	19.954	9.242	0.461
828.000	498.348	80.009	19.993	104.310	19.956	9.080	0.513
830.000	499.417	80.009	19.993	104.309	19.958	8.976	0.552
832.000	500.386	80.011	19.995	104.319	19.956	9.054	0.489
834.000	501.436	80.010	19.994	104.322	19.959	8.881	0.493
836.000	502.446	80.010	19.994	104.310	19.958	8.933	0.524
838.000	503.474	80.011	19.993	104.303	19.956	9.080	0.510
840.000	504.516	80.011	19.996	104.325	19.960	8.835	0.505
842.000	505.543	80.012	19.993	104.319	19.958	8.938	0.515
844.000	506.599	80.011	19.993	104.309	19.962	8.711	0.533
846.000	507.573	80.010	19.994	104.331	19.964	8.534	0.500
848.000	508.603	80.010	19.994	104.313	19.963	8.645	0.528
850.000	509.680	80.010	19.994	104.299	19.963	8.631	0.515
852.000	510.692	80.009	19.994	104.308	19.967	8.380	0.503
854.000	511.733	80.009	19.994	104.323	19.964	8.532	0.536
856.000	512.738	80.010	19.993	104.309	19.968	8.287	0.502
858.000	513.831	80.009	19.994	104.314	19.967	8.362	0.548
860.000	514.877	80.011	19.994	104.316	19.972	8.045	0.505
862.000	515.928	80.010	19.995	104.314	19.968	8.259	0.495
864.000	517.018	80.011	19.993	104.313	19.972	8.005	0.550
866.000	518.072	80.012	19.994	104.305	19.966	8.406	0.507
868.000	519.115	80.012	19.993	104.313	19.971	8.086	0.510
870.000	520.209	80.010	19.993	104.303	19.973	7.987	0.530
872.000	521.260	80.011	19.993	104.299	19.973	7.974	0.520
874.000	522.325	80.009	19.992	104.298	19.973	7.958	0.521
876.000	523.413	80.009	19.993	104.301	19.972	8.027	0.520
878.000	524.439	80.010	19.993	104.305	19.971	8.095	0.524
880.000	525.484	80.009	19.993	104.312	19.976	7.741	0.504
882.000	526.570	80.009	19.993	104.302	19.976	7.734	0.503
884.000	527.634	80.009	19.993	104.305	19.976	7.777	0.502
886.000	528.712	80.009	19.993	104.308	19.981	7.442	0.523
888.000	529.769	80.009	19.994	104.308	19.977	7.678	0.542
890.000	530.848	80.010	19.993	104.317	19.980	7.469	0.551
892.000	531.905	80.010	19.993	104.323	19.975	7.840	0.551
894.000	532.978	80.010	19.994	104.308	19.986	7.082	0.537
896.000	534.030	80.011	19.994	104.313	19.983	7.303	0.539
898.000	535.095	80.010	19.993	104.306	19.986	7.063	0.522
900.000	536.222	80.010	19.994	104.303	19.985	7.155	0.558
902.000	537.246	80.010	19.993	104.303	19.988	6.982	0.522
904.000	538.280	80.009	19.994	104.304	19.987	7.047	0.538
906.000	539.326	80.009	19.993	104.304	19.986	7.075	0.506
908.000	540.386	80.011	19.995	104.313	19.985	7.172	0.556
910.000	541.438	80.009	19.993	104.305	19.988	6.963	0.517
912.000	542.521	80.009	19.992	104.313	19.992	6.692	0.544
914.000	543.538	80.012	19.993	104.322	19.990	6.841	0.488
916.000	544.574	80.011	19.993	104.325	19.992	6.728	0.516
918.000	545.594	80.010	19.993	104.325	19.990	6.808	0.515
920.000	546.645	80.010	19.993	104.309	19.993	6.650	0.536
922.000	547.677	80.011	19.993	104.303	19.994	6.574	0.509
924.000	548.722	80.011	19.993	104.308	19.993	6.616	0.517
926.000	549.785	80.011	19.994	104.304	19.992	6.676	0.523
928.000	550.811	80.010	19.994	104.304	19.995	6.510	0.514
930.000	551.849	80.010	19.993	104.301	19.994	6.535	0.514
932.000	552.864	80.010	19.994	104.303	19.996	6.461	0.472
934.000	553.924	80.010	19.994	104.306	19.995	6.524	0.503
936.000	554.975	80.012	19.994	104.312	19.990	6.804	0.534
938.000	555.970	80.010	19.994	104.301	19.995	6.478	0.485
940.000	556.961	80.011	19.994	104.297	19.993	6.606	0.491
942.000	558.029	80.012	19.994	104.302	19.993	6.617	0.498
944.000	559.027	80.012	19.993	104.298	19.995	6.522	0.489
946.000	560.024	80.012	19.994	104.296	20.000	6.183	0.451
948.000	561.043	80.011	19.994	104.297	19.997	6.334	0.507
950.000	562.065	80.011	19.994	104.308	19.995	6.521	0.499
952.000	563.043	80.011	19.994	104.297	19.991	6.746	0.483
954.000	564.087	80.010	19.995	104.297	19.997	6.388	0.513
956.000	565.036	80.009	19.995	104.296	19.998	6.267	0.467
958.000	566.058	80.009	19.994	104.296	20.001	6.133	0.529
960.000	567.106	80.009	19.995	104.298	20.000	6.169	0.518
962.000	568.088	80.009	19.993	104.300	19.997	6.378	0.488
964.000	569.083	80.010	19.995	104.295	19.993	6.615	0.487
966.000	570.100	80.008	19.992	104.301	19.993	6.599	0.503
968.000	571.168	80.009	19.992	104.307	19.992	6.679	0.520
970.000	572.177	80.009	19.992	104.310	19.996	6.419	0.540
972.000	573.180	80.010	19.994	104.303	20.004	5.911	0.517
974.000	574.206	80.011	19.993	104.301	19.998	6.316	0.545
976.000	575.269	80.010	19.993	104.304	19.993	6.610	0.537
978.000	576.256	80.009	19.992	104.306	20.003	5.940	0.496
980.000	577.294	80.009	19.992	104.300	20.001	6.074	0.514
982.000	578.296	80.009	19.991	104.304	19.998	6.274	0.498
984.000	579.328	80.008	19.993	104.306	19.994	6.578	0.488
986.000	580.349	80.009	19.993	104.309	20.001	6.089	0.487
988.000	581.378	80.009	19.993	104.303	19.997	6.383	0.534
990.000	582.358	80.009	19.993	104.303	20.004	5.894	0.492
992.000	583.407	80.009	19.994	104.303	20.000	6.184	0.514
994.000	584.459	80.009	19.992	104.309	20.001	6.076	0.500
996.000	585.455	80.010	19.993	104.312	20.000	6.194	0.502
998.000	586.488	80.009	19.992	104.300	20.006	5.789	0.528
1000.000	587.501	80.011	19.994	104.300	20.001	6.132	0.507
1002.000	588.494	80.011	19.992	104.304	20.003	5.969	0.509
1004.000	589.518	80.012	19.993	104.315	20.003	5.973	0.514
1006.000	590.568	80.011	19.993	104.303	19.998	6.293	0.584
1008.000	591.548	80.011	19.992	104.299	20.004	5.885	0.512
1010.000	592.604	80.011	19.993	104.299	20.002	6.028	0.504
1012.000	593.650	80.010	19.994	104.299	19.997	6.357	0.559
1014.000	594.646	80.010	19.994	104.301	20.004	5.920	0.506
1016.000	595.685	80.010	19.994	104.312	20.001	6.105	0.504
1018.000	596.723	80.010	19.994	104.306	20.001	6.097	0.526
1020.000	597.739	80.010	19.995	104.309	19.999	6.230	0.533
1022.000	598.776	80.011	19.994	104.306	20.001	6.107	0.493
1024.000	599.800	80.013	19.995	104.301	20.004	5.896	0.535
1025.999	600.800	80.013	19.992	104.315	20.003	5.963	0.534
1027.999	601.835	80.013	19.994	104.300	20.005	5.847	0.506
1029.999	602.800	80.013	19.993	104.298	20.000	6.141	0.445
1032.000	603.858	80.014	19.995	104.303	20.000	6.183	0.518
1033.999	604.812	80.012	19.993	104.302	20.001	6.078	0.464
1035.999	605.865	80.010	19.993	104.298	19.998	6.323	0.491
1038.000	606.897	80.010	19.993	104.298	19.995	6.501	0.538
1039.999	607.892	80.010	19.993	104.299	20.002	6.020	0.501
1042.000	608.933	80.010	19.995	104.299	20.000	6.178	0.517
1044.000	609.915	80.009	19.994	104.304	20.000	6.167	0.487
1045.999	610.966	80.009	19.994	104.300	20.005	5.862	0.533
1048.000	611.914	80.009	19.994	104.303	20.008	5.615	0.516
1049.999	612.974	80.008	19.994	104.303	20.006	5.782	0.517
1052.000	613.980	80.008	19.992	104.299	20.008	5.636	0.512
1054.001	615.012	80.009	19.994	104.307	20.006	5.740	0.516
1055.999	616.041	80.009	19.995	104.306	20.007	5.709	0.549
1057.999	617.015	80.010	19.994	104.301	20.006	5.802	0.474
1060.000	618.071	80.009	19.992	104.301	20.010	5.502	0.494
1062.000	619.102	80.008	19.993	104.296	20.004	5.887	0.512
1063.999	620.143	80.009	19.994	104.296	20.005	5.822	0.553
1065.999	621.130	80.009	19.994	104.298	20.005	5.805	0.510
1067.999	622.141	80.010	19.994	104.299	20.006	5.738	0.508
1069.999	623.149	80.009	19.993	104.305	20.008	5.642	0.500
1072.000	624.131	80.009	19.995	104.299	20.005	5.823	0.502
1073.999	625.120	80.009	19.993	104.300	20.009	5.581	0.492
1075.999	626.114	80.009	19.993	104.302	20.007	5.711	0.489
1078.000	627.142	80.009	19.993	104.296	20.007	5.718	0.509
1080.000	628.145	80.011	19.994	104.303	20.007	5.685	0.488
1082.000	629.154	80.011	19.994	104.299	20.011	5.447	0.492
1083.999	630.151	80.012	19.993	104.296	20.007	5.698	0.502
1085.999	631.152	80.012	19.993	104.293	20.011	5.427	0.491
1087.999	632.175	80.012	19.993	104.297	20.007	5.698	0.522
1089.999	633.188	80.012	19.993	104.297	20.009	5.560	0.504
1092.000	634.196	80.011	19.993	104.300	20.011	5.437	0.502
1093.999	635.216	80.011	19.995	104.295	20.011	5.462	0.509
1095.999	636.224	80.011	19.993	104.298	20.007	5.685	0.533
1097.999	637.254	80.010	19.993	104.299	20.011	5.432	0.506
1099.999	638.242	80.011	19.994	104.299	20.008	5.624	0.476
1101.999	639.331	80.011	19.992	104.299	20.012	5.376	0.520
1104.000	640.333	80.012	19.994	104.301	20.011	5.424	0.491
1106.000	641.325	80.012	19.992	104.300	20.009	5.544	0.502
1107.999	642.371	80.012	19.993	104.295	20.010	5.504	0.562
1109.999	643.366	80.013	19.994	104.294	20.007	5.678	0.523
1111.999	644.381	80.012	19.994	104.298	20.006	5.780	0.521
1113.999	645.403	80.010	19.993	104.297	20.008	5.666	0.493
1116.000	646.446	80.010	19.994	104.299	20.009	5.591	0.515
1117.999	647.507	80.008	19.994	104.299	20.009	5.584	0.532
1119.999	648.533	80.009	19.993	104.303	20.006	5.772	0.529
1122.000	649.554	80.010	19.995	104.307	20.007	5.678	0.524
1123.999	650.602	80.010	19.993	104.302	20.008	5.651	0.541
1125.999	651.590	80.009	19.994	104.307	20.014	5.248	0.520
1127.999	652.576	80.011	19.995	104.300	20.011	5.444	0.501
1130.000	653.616	80.010	19.994	104.299	20.009	5.558	0.484
1131.999	654.664	80.009	19.994	104.298	20.007	5.705	0.518
1133.999	655.708	80.010	19.993	104.298	20.008	5.623	0.521
1135.999	656.689	80.010	19.994	104.301	20.012	5.355	0.505
1138.000	657.722	80.009	19.993	104.298	20.011	5.445	0.510
1140.000	658.775	80.009	19.994	104.298	20.011	5.425	0.516
1141.999	659.753	80.009	19.995	104.298	20.010	5.480	0.488
1143.999	660.781	80.008	19.995	104.294	20.013	5.296	0.490
1145.999	661.748	80.009	19.994	104.295	20.011	5.467	0.495
1148.000	662.796	80.008	19.993	104.296	20.017	5.048	0.514
1149.999	663.851	80.009	19.994	104.296	20.015	5.177	0.556
1151.999	664.803	80.009	19.994	104.296	20.013	5.306	0.476
1153.999	665.776	80.010	19.995	104.294	20.014	5.260	0.503
1155.999	666.825	80.010	19.994	104.296	20.009	5.582	0.500
1157.999	667.823	80.009	19.994	104.296	20.014	5.208	0.499
1160.000	668.850	80.010	19.993	104.297	20.017	5.039	0.526
1161.999	669.873	80.011	19.993	104.300	20.015	5.155	0.517
1164.000	670.861	80.011	19.993	104.300	20.012	5.349	0.493
1165.999	671.884	80.010	19.993	104.294	20.016	5.128	0.492
1167.999	672.938	80.009	19.993	104.299	20.016	5.124	0.552
1169.999	673.912	80.011	19.993	104.299	20.013	5.287	0.517
1171.999	674.948	80.011	19.994	104.299	20.015	5.151	0.481
1174.000	676.020	80.011	19.993	104.296	20.012	5.355	0.526
1175.999	676.985	80.011	19.994	104.298	20.017	5.051	0.488
1177.999	678.014	80.012	19.993	104.296	20.018	4.980	0.515
1180.000	679.018	80.009	19.993	104.296	20.013	5.325	0.525
1181.999	680.019	80.010	19.993	104.296	20.013	5.293	0.503
1184.001	681.034	80.010	19.993	104.297	20.015	5.183	0.503
1185.999	682.039	80.011	19.992	104.301	20.012	5.374	0.464
1188.001	683.066	80.012	19.992	104.294	20.015	5.153	0.496
1189.999	684.082	80.013	19.992	104.290	20.016	5.086	0.548
1191.999	685.100	80.012	19.992	104.297	20.013	5.275	0.530
1193.999	686.124	80.011	19.993	104.286	20.009	5.590	0.525
1195.999	687.085	80.012	19.993	104.288	20.017	5.056	0.485
1198.000	688.099	80.010	19.992	104.290	20.014	5.229	0.512
1199.999	689.104	80.010	19.994	104.292	20.012	5.356	0.512
1201.999	690.100	80.010	19.994	104.296	20.014	5.215	0.499
1204.000	691.136	80.008	19.993	104.293	20.014	5.269	0.514
1205.999	692.080	80.008	19.994	104.273	20.020	4.855	0.464
1207.999	693.083	80.007	19.994	104.281	20.019	4.886	0.498
1209.999	694.087	80.007	19.993	104.294	20.016	5.080	0.528
1211.999	695.085	80.009	19.994	104.298	20.021	4.804	0.482
1213.999	696.079	80.009	19.995	104.296	20.016	5.138	0.483
1215.999	697.125	80.010	19.994	104.288	20.017	5.048	0.512
1218.000	698.102	80.009	19.994	104.293	20.014	5.207	0.488
1219.999	699.139	80.009	19.994	104.292	20.020	4.842	0.509
1221.999	700.139	80.010	19.994	104.296	20.013	5.273	0.497
1223.999	701.133	80.009	19.994	104.290	20.016	5.118	0.516
1226.000	702.164	80.009	19.994	104.290	20.017	5.035	0.496
1227.999	703.142	80.007	19.994	104.298	20.013	5.320	0.487
1229.999	704.161	80.007	19.994	104.295	20.017	5.015	0.513
1231.999	705.131	80.008	19.994	104.293	20.012	5.339	0.490
1234.000	706.123	80.007	19.995	104.294	20.014	5.238	0.509
1236.000	707.154	80.009	19.995	104.293	20.018	4.946	0.489
1237.999	708.177	80.009	19.995	104.291	20.017	5.062	0.525
1239.999	709.139	80.009	19.995	104.295	20.012	5.338	0.487
1241.999	710.114	80.011	19.993	104.287	20.022	4.715	0.469
1243.999	711.185	80.010	19.994	104.286	20.017	5.068	0.551
1245.999	712.165	80.011	19.992	104.296	20.019	4.911	0.506
1247.999	713.188	80.010	19.992	104.298	20.015	5.198	0.542
1249.999	714.163	80.009	19.992	104.291	20.019	4.911	0.521
1251.999	715.198	80.010	19.993	104.293	20.018	4.989	0.458
1253.999	716.224	80.010	19.993	104.272	20.019	4.904	0.523
1255.999	717.194	80.010	19.993	104.286	20.023	4.633	0.485
1258.000	718.205	80.010	19.992	104.285	20.021	4.780	0.482
1259.999	719.190	80.009	19.994	104.292	20.018	4.940	0.504
1262.000	720.206	80.010	19.992	104.295	20.019	4.902	0.463
1263.999	721.222	80.011	19.993	104.294	20.019	4.937	0.525
1265.999	722.191	80.011	19.994	104.291	20.020	4.829	0.493
1268.000	723.229	80.011	19.993	104.277	20.024	4.568	0.508
1269.999	724.241	80.012	19.994	104.295	20.018	4.942	0.509
1271.999	725.241	80.011	19.994	104.287	20.024	4.582	0.499
1273.999	726.251	80.011	19.994	104.290	20.025	4.490	0.523
1276.000	727.247	80.011	19.992	104.294	20.020	4.826	0.521
1278.000	728.218	80.010	19.992	104.292	20.023	4.646	0.489
1280.000	729.162	80.009	19.993	104.293	20.021	4.791	0.462
1282.000	730.167	80.009	19.993	104.271	20.018	5.004	0.468
1283.999	731.158	80.009	19.993	104.281	20.023	4.658	0.471
1285.999	732.243	80.011	19.992	104.289	20.016	5.098	0.574
1287.999	733.177	80.009	19.993	104.294	20.021	4.788	0.492
1289.999	734.120	80.009	19.993	104.279	20.020	4.820	0.463
1291.999	735.117	80.009	19.993	104.291	20.018	4.961	0.470
1293.999	736.126	80.009	19.993	104.282	20.015	5.140	0.493
1296.000	737.132	80.008	19.993	104.285	20.022	4.686	0.488
1298.000	738.098	80.008	19.993	104.287	20.018	4.985	0.487
1299.999	739.170	80.011	19.994	104.288	20.020	4.848	0.517
1301.999	740.163	80.009	19.995	104.290	20.020	4.840	0.510
1304.000	741.214	80.009	19.995	104.297	20.019	4.936	0.540
1305.999	742.199	80.008	19.994	104.286	20.020	4.809	0.494
1307.999	743.199	80.008	19.993	104.282	20.024	4.561	0.495
1308.499	743.465	80.009	19.993	104.280	20.023	4.670	0.490