File: 01_Data/Feather_Pillow_Feathers/MCC/Feather_Pillow_Feathers_MCC_30K_min_220106_R2.txt
Sample ID:	C:\MCC\MCC Cal\Test\Feather_PillowB_Feathers_MCC_30K_min_220106_R2.txt
Sample Weight (mg):	4.5
Heating Rate (C/s):	0.5
Combustor Temp (C):	900
N2 Flow Rate (cc/min):	80
O2 Flow Rate (cc/min):	20
Calibration File:	C:\MCC\MCC Cal\Coeff1 JN10440_30_210304.txt.txt
T Correction Coefficients:	0	1.024463	0
Time Shift (s):	14
*
Time (s)	Temperature (C)	N2 flow rate (cc/min)	O2 flow rate (cc/min)	Flow Rate (cc/min)	Oxygen (%)	HRR (W/g)	Heating rate (C/s)
-0.001	111.263	80.010	19.997	104.158	20.098	-0.085	0.006
1.499	111.285	80.011	19.993	104.170	20.098	-0.139	0.006
3.000	111.286	80.012	19.995	104.162	20.098	-0.107	-0.001
4.500	111.279	80.012	19.992	104.157	20.099	-0.212	-0.012
5.999	111.246	80.011	19.992	104.164	20.097	-0.069	-0.026
7.499	111.241	80.011	19.993	104.179	20.098	-0.107	0.001
9.000	111.250	80.011	19.993	104.181	20.093	0.271	-0.008
10.499	111.270	80.012	19.995	104.191	20.094	0.170	0.014
12.000	111.233	80.010	19.992	104.207	20.089	0.519	-0.018
13.500	111.278	80.011	19.992	104.215	20.086	0.726	0.029
14.999	111.300	80.010	19.993	104.245	20.089	0.557	0.023
16.499	111.357	80.011	19.993	104.261	20.085	0.793	0.040
17.999	111.417	80.010	19.994	104.271	20.082	1.071	0.053
19.499	111.468	80.011	19.993	104.289	20.080	1.202	0.038
20.999	111.549	80.010	19.992	104.294	20.077	1.392	0.063
22.499	111.626	80.012	19.994	104.309	20.074	1.596	0.067
23.999	111.720	80.011	19.993	104.332	20.070	1.878	0.056
25.499	111.820	80.012	19.993	104.334	20.069	2.021	0.052
26.999	112.013	80.012	19.993	104.353	20.064	2.331	0.122
28.499	112.141	80.011	19.993	104.371	20.065	2.291	0.093
29.999	112.355	80.011	19.995	104.358	20.064	2.347	0.131
31.499	112.519	80.011	19.994	104.355	20.064	2.371	0.110
32.999	112.745	80.010	19.993	104.366	20.064	2.351	0.140
34.499	112.941	80.010	19.994	104.373	20.061	2.575	0.144
35.999	113.153	80.011	19.995	104.375	20.059	2.696	0.136
37.499	113.422	80.007	19.992	104.379	20.059	2.683	0.186
38.999	113.692	80.010	19.993	104.393	20.058	2.750	0.162
40.499	113.938	80.010	19.995	104.403	20.054	3.095	0.172
41.999	114.292	80.008	19.994	104.415	20.052	3.222	0.250
43.499	114.608	80.008	19.994	104.418	20.053	3.133	0.196
44.999	114.948	80.008	19.993	104.417	20.052	3.240	0.223
46.499	115.272	80.007	19.993	104.417	20.053	3.121	0.204
47.999	115.661	80.008	19.993	104.420	20.050	3.327	0.263
49.499	116.014	80.008	19.994	104.418	20.051	3.274	0.244
50.999	116.439	80.007	19.993	104.418	20.047	3.576	0.292
52.499	116.847	80.008	19.995	104.420	20.049	3.419	0.271
53.999	117.310	80.007	19.993	104.422	20.049	3.445	0.299
55.499	117.701	80.008	19.993	104.423	20.049	3.423	0.273
56.999	118.160	80.008	19.994	104.419	20.050	3.332	0.329
58.499	118.634	80.008	19.994	104.417	20.049	3.414	0.323
59.999	119.142	80.009	19.996	104.427	20.050	3.386	0.348
61.499	119.593	80.009	19.995	104.439	20.047	3.551	0.312
62.999	120.096	80.008	19.996	104.436	20.048	3.489	0.332
64.499	120.625	80.007	19.996	104.439	20.051	3.311	0.340
65.999	121.152	80.008	19.991	104.441	20.050	3.360	0.353
67.500	121.645	80.009	19.995	104.433	20.049	3.449	0.302
68.999	122.207	80.008	19.992	104.443	20.048	3.519	0.383
70.499	122.793	80.008	19.993	104.449	20.046	3.646	0.379
71.999	123.326	80.009	19.995	104.446	20.046	3.670	0.365
73.500	123.876	80.009	19.994	104.446	20.046	3.642	0.365
74.999	124.512	80.008	19.995	104.450	20.047	3.588	0.389
76.499	125.082	80.009	19.994	104.446	20.047	3.561	0.378
77.999	125.710	80.008	19.993	104.443	20.048	3.475	0.412
79.499	126.282	80.009	19.992	104.448	20.048	3.519	0.403
80.999	126.900	80.009	19.994	104.450	20.046	3.652	0.420
82.499	127.488	80.010	19.994	104.450	20.047	3.599	0.407
84.000	128.111	80.008	19.993	104.450	20.047	3.557	0.400
85.499	128.753	80.009	19.994	104.448	20.046	3.636	0.412
86.999	129.417	80.010	19.991	104.453	20.045	3.720	0.460
88.499	130.060	80.010	19.994	104.452	20.043	3.902	0.413
89.999	130.737	80.008	19.994	104.450	20.046	3.684	0.465
91.499	131.433	80.008	19.996	104.452	20.045	3.702	0.470
92.999	132.100	80.009	19.995	104.454	20.047	3.553	0.440
94.499	132.790	80.009	19.993	104.454	20.047	3.615	0.461
95.999	133.434	80.009	19.993	104.454	20.041	4.002	0.422
97.499	134.140	80.009	19.994	104.454	20.045	3.737	0.474
98.999	134.817	80.008	19.993	104.454	20.044	3.784	0.449
100.499	135.517	80.011	19.992	104.452	20.045	3.735	0.464
101.999	136.224	80.009	19.995	104.453	20.044	3.783	0.459
103.499	136.977	80.010	19.994	104.457	20.041	3.989	0.490
104.999	137.678	80.010	19.992	104.421	20.042	3.955	0.446
106.499	138.400	80.012	19.992	104.382	20.044	3.818	0.487
107.999	139.143	80.011	19.994	104.481	20.049	3.435	0.505
109.499	139.849	80.010	19.992	104.497	20.044	3.767	0.476
110.999	140.592	80.010	19.992	104.455	20.047	3.606	0.510
112.499	141.342	80.011	19.994	104.455	20.046	3.663	0.484
113.999	142.081	80.009	19.993	104.451	20.046	3.649	0.483
115.499	142.823	80.009	19.994	104.444	20.044	3.770	0.501
116.999	143.577	80.009	19.993	104.445	20.046	3.655	0.517
118.499	144.302	80.008	19.993	104.440	20.047	3.581	0.482
119.999	145.098	80.008	19.994	104.439	20.047	3.615	0.552
121.499	145.835	80.008	19.995	104.437	20.047	3.546	0.505
122.999	146.593	80.007	19.994	104.430	20.046	3.635	0.502
124.499	147.361	80.008	19.990	104.425	20.048	3.528	0.510
125.999	148.131	80.008	19.995	104.421	20.043	3.857	0.511
127.499	148.867	80.008	19.992	104.424	20.044	3.831	0.493
128.999	149.666	80.009	19.994	104.422	20.049	3.438	0.538
130.499	150.383	80.009	19.994	104.417	20.045	3.744	0.469
131.999	151.136	80.006	19.993	104.414	20.045	3.714	0.524
133.499	151.898	80.009	19.995	104.422	20.048	3.506	0.503
134.999	152.695	80.008	19.995	104.423	20.048	3.482	0.542
136.499	153.447	80.008	19.993	104.416	20.050	3.345	0.479
137.999	154.161	80.009	19.993	104.419	20.050	3.357	0.484
139.499	154.934	80.007	19.994	104.416	20.050	3.349	0.525
140.999	155.692	80.009	19.993	104.416	20.047	3.575	0.497
142.499	156.461	80.008	19.994	104.416	20.052	3.182	0.524
143.999	157.220	80.009	19.994	104.414	20.050	3.379	0.494
145.499	157.939	80.008	19.993	104.412	20.047	3.577	0.489
146.999	158.759	80.006	19.996	104.410	20.050	3.329	0.546
148.499	159.450	80.008	19.993	104.411	20.051	3.317	0.445
149.999	160.247	80.008	19.994	104.415	20.049	3.430	0.530
151.499	161.003	80.007	19.996	104.410	20.050	3.381	0.506
152.999	161.754	80.007	19.995	104.409	20.052	3.224	0.517
154.499	162.522	80.007	19.994	104.414	20.049	3.401	0.504
155.999	163.288	80.008	19.993	104.413	20.052	3.192	0.513
157.499	163.998	80.007	19.994	104.413	20.047	3.591	0.481
158.999	164.774	80.008	19.990	104.413	20.051	3.315	0.525
160.499	165.534	80.010	19.994	104.413	20.048	3.537	0.512
162.000	166.338	80.008	19.993	104.409	20.050	3.341	0.521
163.499	167.058	80.010	19.993	104.412	20.050	3.361	0.483
164.999	167.826	80.011	19.993	104.415	20.051	3.254	0.493
166.499	168.555	80.009	19.992	104.411	20.052	3.252	0.495
167.999	169.253	80.009	19.991	104.404	20.049	3.464	0.500
169.499	170.065	80.010	19.994	104.405	20.049	3.430	0.530
170.999	170.762	80.009	19.993	104.405	20.048	3.491	0.462
172.499	171.567	80.010	19.991	104.400	20.051	3.317	0.522
173.999	172.267	80.009	19.993	104.406	20.050	3.392	0.461
175.499	173.006	80.009	19.993	104.410	20.047	3.612	0.486
176.999	173.799	80.009	19.993	104.408	20.049	3.457	0.526
178.499	174.512	80.008	19.993	104.406	20.050	3.382	0.476
179.999	175.261	80.010	19.992	104.404	20.051	3.281	0.510
181.499	175.959	80.010	19.994	104.392	20.049	3.410	0.487
182.999	176.720	80.010	19.994	104.403	20.047	3.584	0.522
184.499	177.465	80.009	19.994	104.399	20.046	3.618	0.489
185.999	178.232	80.009	19.993	104.390	20.051	3.295	0.513
187.499	178.949	80.012	19.993	104.389	20.051	3.295	0.480
188.999	179.723	80.012	19.993	104.385	20.048	3.503	0.514
190.499	180.441	80.010	19.992	104.380	20.047	3.554	0.503
191.999	181.193	80.010	19.991	104.382	20.049	3.451	0.490
193.499	181.928	80.011	19.992	104.384	20.052	3.181	0.528
194.999	182.657	80.011	19.992	104.385	20.050	3.358	0.475
196.499	183.370	80.010	19.993	104.388	20.051	3.289	0.472
197.999	184.097	80.011	19.993	104.391	20.048	3.489	0.475
199.499	184.810	80.009	19.992	104.380	20.048	3.511	0.484
200.999	185.575	80.008	19.993	104.379	20.047	3.544	0.516
202.499	186.350	80.008	19.993	104.377	20.044	3.800	0.505
203.999	187.087	80.009	19.993	104.378	20.046	3.665	0.473
205.499	187.818	80.009	19.993	104.383	20.043	3.875	0.490
206.999	188.547	80.009	19.992	104.386	20.043	3.891	0.491
208.499	189.331	80.008	19.993	104.382	20.037	4.272	0.498
210.000	190.074	80.009	19.994	104.388	20.039	4.153	0.492
211.499	190.778	80.009	19.994	104.379	20.038	4.246	0.456
212.999	191.501	80.008	19.994	104.378	20.040	4.068	0.496
214.499	192.248	80.008	19.994	104.375	20.037	4.308	0.488
215.999	192.978	80.008	19.992	104.375	20.038	4.217	0.450
217.499	193.669	80.008	19.993	104.375	20.038	4.223	0.473
218.999	194.449	80.009	19.993	104.376	20.037	4.272	0.525
220.499	195.172	80.010	19.993	104.375	20.036	4.391	0.484
221.999	195.875	80.008	19.994	104.374	20.037	4.314	0.480
223.499	196.591	80.007	19.993	104.371	20.034	4.526	0.460
224.999	197.340	80.010	19.995	104.375	20.035	4.433	0.501
226.499	198.090	80.007	19.994	104.377	20.034	4.552	0.503
227.999	198.825	80.008	19.993	104.375	20.031	4.714	0.484
229.499	199.550	80.008	19.993	104.376	20.030	4.824	0.497
230.999	200.283	80.007	19.993	104.378	20.028	4.933	0.490
232.499	201.031	80.007	19.993	104.373	20.025	5.142	0.481
233.999	201.752	80.008	19.994	104.370	20.027	5.011	0.471
235.499	202.505	80.007	19.992	104.373	20.025	5.201	0.524
236.999	203.231	80.007	19.992	104.371	20.021	5.447	0.493
238.499	203.930	80.009	19.993	104.375	20.021	5.445	0.475
239.999	204.694	80.006	19.994	104.376	20.019	5.600	0.506
241.499	205.450	80.007	19.995	104.377	20.017	5.762	0.500
242.999	206.193	80.008	19.993	104.369	20.017	5.754	0.522
244.499	206.895	80.009	19.993	104.361	20.014	5.980	0.466
245.999	207.649	80.009	19.994	104.355	20.006	6.547	0.488
247.499	208.412	80.010	19.996	104.350	20.008	6.384	0.507
249.000	209.144	80.009	19.994	104.343	20.005	6.602	0.470
250.499	209.860	80.009	19.994	104.353	20.004	6.681	0.486
251.999	210.600	80.010	19.994	104.347	20.002	6.826	0.496
253.499	211.357	80.008	19.995	104.343	19.998	7.155	0.502
254.999	212.071	80.010	19.993	104.346	19.997	7.221	0.464
256.499	212.816	80.009	19.994	104.341	19.994	7.432	0.510
258.000	213.549	80.011	19.995	104.338	19.988	7.870	0.496
259.499	214.279	80.009	19.992	104.336	19.986	7.974	0.493
260.999	215.003	80.009	19.994	104.335	19.984	8.109	0.487
262.499	215.727	80.009	19.994	104.335	19.981	8.333	0.481
263.999	216.451	80.011	19.993	104.335	19.975	8.762	0.493
265.499	217.212	80.012	19.993	104.335	19.974	8.824	0.495
267.000	217.955	80.011	19.993	104.331	19.973	8.910	0.519
268.500	218.663	80.012	19.993	104.329	19.970	9.175	0.481
269.999	219.379	80.011	19.992	104.333	19.966	9.457	0.470
271.499	220.126	80.011	19.993	104.323	19.964	9.552	0.505
272.999	220.852	80.011	19.992	104.307	19.963	9.667	0.494
274.500	221.553	80.011	19.994	104.318	19.958	9.978	0.463
275.999	222.332	80.011	19.992	104.326	19.954	10.303	0.513
277.500	223.045	80.010	19.993	104.321	19.952	10.475	0.486
278.999	223.726	80.010	19.995	104.314	19.948	10.752	0.464
280.500	224.512	80.009	19.995	104.310	19.943	11.069	0.514
281.999	225.242	80.009	19.993	104.316	19.942	11.145	0.479
283.500	226.004	80.008	19.994	104.314	19.943	11.113	0.490
284.999	226.738	80.008	19.992	104.311	19.942	11.154	0.495
286.499	227.452	80.007	19.993	104.313	19.940	11.312	0.467
287.999	228.212	80.009	19.993	104.310	19.937	11.542	0.490
289.499	228.994	80.008	19.994	104.302	19.938	11.441	0.513
290.999	229.711	80.008	19.992	104.303	19.938	11.495	0.477
292.499	230.455	80.008	19.995	104.316	19.937	11.564	0.492
294.000	231.196	80.008	19.992	104.323	19.935	11.693	0.500
295.500	231.952	80.009	19.993	104.319	19.932	11.894	0.505
296.999	232.675	80.010	19.993	104.329	19.936	11.579	0.487
298.499	233.455	80.008	19.990	104.331	19.932	11.873	0.511
299.999	234.210	80.009	19.995	104.333	19.932	11.869	0.491
301.499	234.950	80.009	19.995	104.338	19.933	11.792	0.488
302.999	235.694	80.008	19.993	104.337	19.933	11.849	0.495
304.500	236.409	80.008	19.994	104.332	19.932	11.888	0.488
305.999	237.155	80.008	19.994	104.337	19.932	11.900	0.511
307.499	237.924	80.007	19.995	104.339	19.932	11.881	0.507
309.000	238.641	80.008	19.994	104.344	19.931	11.973	0.505
310.499	239.486	80.009	19.995	104.343	19.932	11.918	0.541
312.000	240.191	80.007	19.993	104.350	19.932	11.865	0.463
313.499	240.921	80.008	19.992	104.351	19.930	12.038	0.484
314.999	241.630	80.008	19.994	104.352	19.930	12.063	0.450
316.499	242.401	80.008	19.994	104.357	19.929	12.129	0.517
317.999	243.201	80.007	19.993	104.349	19.926	12.361	0.558
319.500	243.885	80.009	19.994	104.350	19.925	12.424	0.461
321.000	244.688	80.009	19.993	104.347	19.926	12.335	0.527
322.499	245.451	80.010	19.993	104.341	19.922	12.628	0.529
323.999	246.170	80.009	19.994	104.351	19.921	12.712	0.465
325.499	246.956	80.010	19.993	104.356	19.919	12.815	0.514
327.000	247.698	80.010	19.994	104.364	19.918	12.942	0.506
328.499	248.438	80.010	19.994	104.363	19.914	13.230	0.503
329.999	249.219	80.010	19.995	104.357	19.915	13.126	0.521
331.500	250.020	80.008	19.994	104.365	19.910	13.483	0.526
333.000	250.760	80.008	19.995	104.365	19.911	13.420	0.479
334.500	251.552	80.009	19.994	104.362	19.906	13.755	0.528
335.999	252.311	80.009	19.994	104.369	19.905	13.853	0.514
337.499	253.055	80.008	19.994	104.365	19.901	14.137	0.483
338.999	253.788	80.009	19.994	104.368	19.906	13.800	0.492
340.499	254.574	80.009	19.995	104.367	19.901	14.126	0.492
342.000	255.276	80.009	19.996	104.363	19.902	14.096	0.463
343.500	256.065	80.010	19.995	104.368	19.893	14.737	0.526
344.999	256.817	80.009	19.994	104.366	19.892	14.815	0.483
346.499	257.546	80.010	19.993	104.369	19.897	14.459	0.499
347.999	258.321	80.011	19.994	104.365	19.890	14.958	0.518
349.499	259.112	80.011	19.992	104.362	19.881	15.553	0.534
350.999	259.823	80.012	19.993	104.362	19.880	15.686	0.483
352.499	260.632	80.010	19.992	104.367	19.879	15.719	0.534
353.999	261.331	80.010	19.992	104.367	19.874	16.085	0.455
355.499	262.137	80.010	19.992	104.363	19.875	16.053	0.528
356.999	262.901	80.010	19.993	104.358	19.872	16.214	0.537
358.500	263.605	80.009	19.992	104.360	19.868	16.566	0.479
359.999	264.347	80.008	19.993	104.364	19.861	17.064	0.494
361.500	265.205	80.008	19.992	104.363	19.859	17.196	0.555
362.999	265.849	80.008	19.992	104.370	19.855	17.470	0.391
364.499	266.610	80.008	19.994	104.367	19.849	17.927	0.539
365.999	267.425	80.008	19.995	104.362	19.849	17.933	0.537
367.500	268.131	80.008	19.992	104.365	19.840	18.557	0.467
368.999	268.863	80.008	19.992	104.369	19.836	18.861	0.501
370.499	269.636	80.007	19.992	104.361	19.830	19.260	0.524
371.999	270.405	80.007	19.992	104.364	19.827	19.498	0.502
373.499	271.204	80.008	19.993	104.367	19.821	19.958	0.500
374.999	271.932	80.009	19.995	104.372	19.820	19.992	0.445
376.499	272.650	80.009	19.993	104.374	19.807	20.966	0.474
377.999	273.365	80.007	19.994	104.368	19.805	21.083	0.483
379.499	274.099	80.008	19.995	104.370	19.796	21.710	0.516
380.999	274.846	80.009	19.993	104.373	19.793	21.990	0.481
382.499	275.541	80.009	19.993	104.376	19.791	22.107	0.478
384.000	276.261	80.009	19.992	104.371	19.783	22.718	0.468
385.499	277.024	80.009	19.991	104.372	19.771	23.565	0.491
387.000	277.715	80.009	19.994	104.377	19.772	23.473	0.467
388.499	278.441	80.008	19.992	104.376	19.757	24.585	0.495
389.999	279.220	80.007	19.993	104.375	19.751	24.983	0.529
391.499	279.933	80.007	19.993	104.376	19.747	25.309	0.481
393.000	280.677	80.009	19.996	104.377	19.741	25.735	0.469
394.499	281.406	80.007	19.993	104.378	19.730	26.490	0.497
395.999	282.118	80.006	19.994	104.379	19.726	26.802	0.503
397.500	282.772	80.006	19.994	104.384	19.718	27.411	0.450
399.000	283.541	80.008	19.994	104.392	19.710	27.957	0.520
400.500	284.287	80.009	19.995	104.400	19.706	28.268	0.470
402.000	285.020	80.008	19.994	104.401	19.695	29.072	0.467
403.499	285.706	80.008	19.994	104.390	19.688	29.586	0.483
404.999	286.427	80.008	19.995	104.387	19.680	30.155	0.474
406.500	287.182	80.010	19.993	104.398	19.677	30.371	0.502
407.999	287.921	80.009	19.994	104.410	19.668	31.037	0.489
409.499	288.659	80.011	19.993	104.411	19.661	31.495	0.485
410.999	289.367	80.010	19.994	104.411	19.653	32.069	0.483
412.499	290.128	80.009	19.993	104.412	19.648	32.485	0.501
414.000	290.842	80.009	19.993	104.414	19.638	33.180	0.492
415.499	291.589	80.009	19.994	104.408	19.635	33.416	0.480
416.999	292.337	80.010	19.993	104.407	19.630	33.795	0.502
418.499	293.134	80.009	19.992	104.414	19.628	33.935	0.511
420.000	293.840	80.007	19.993	104.415	19.624	34.190	0.482
421.499	294.590	80.008	19.993	104.414	19.620	34.489	0.555
422.999	295.342	80.007	19.993	104.414	19.621	34.410	0.503
424.499	296.065	80.008	19.994	104.415	19.618	34.645	0.488
425.999	296.811	80.009	19.995	104.413	19.622	34.384	0.468
427.499	297.546	80.008	19.994	104.409	19.622	34.400	0.488
428.999	298.322	80.009	19.994	104.413	19.624	34.202	0.514
430.500	299.108	80.010	19.994	104.415	19.631	33.730	0.505
432.000	299.851	80.009	19.994	104.414	19.630	33.798	0.493
433.499	300.540	80.009	19.992	104.418	19.635	33.436	0.449
435.000	301.317	80.010	19.993	104.428	19.631	33.736	0.529
436.499	302.098	80.008	19.993	104.446	19.630	33.793	0.528
437.999	302.822	80.009	19.995	104.466	19.617	34.765	0.469
439.499	303.589	80.009	19.993	104.478	19.604	35.699	0.514
440.999	304.314	80.009	19.994	104.492	19.584	37.118	0.498
442.499	305.055	80.007	19.992	104.498	19.558	39.003	0.507
444.000	305.821	80.008	19.993	104.516	19.528	41.160	0.511
445.500	306.592	80.008	19.995	104.527	19.500	43.171	0.492
447.000	307.316	80.007	19.993	104.527	19.469	45.428	0.470
448.500	308.025	80.007	19.992	104.532	19.431	48.177	0.503
450.000	308.866	80.007	19.993	104.529	19.397	50.708	0.540
451.500	309.604	80.008	19.992	104.534	19.360	53.403	0.500
453.000	310.430	80.009	19.994	104.525	19.338	54.994	0.514
454.499	311.127	80.010	19.993	104.535	19.326	55.913	0.489
455.999	311.938	80.008	19.993	104.503	19.324	56.040	0.551
457.499	312.684	80.009	19.994	104.473	19.314	56.652	0.516
458.999	313.471	80.009	19.994	104.476	19.296	57.806	0.521
460.499	314.245	80.008	19.992	104.534	19.273	59.380	0.516
462.000	315.009	80.010	19.992	104.578	19.233	62.394	0.516
463.500	315.764	80.008	19.992	104.609	19.121	70.652	0.502
464.999	316.541	80.009	19.993	104.604	19.037	76.991	0.529
466.499	317.340	80.008	19.993	104.722	19.032	77.272	0.540
468.000	318.116	80.009	19.994	104.517	19.080	73.598	0.518
469.499	318.923	80.008	19.994	104.192	19.139	69.273	0.543
470.999	319.745	80.008	19.993	104.038	19.187	65.824	0.543
472.500	320.526	80.008	19.989	104.123	19.199	65.030	0.496
474.000	321.302	80.007	19.993	104.349	19.189	65.883	0.519
475.499	322.160	80.009	19.991	104.735	19.194	65.464	0.581
476.999	322.936	80.008	19.993	104.788	19.214	63.892	0.528
478.499	323.716	80.009	19.995	104.553	19.243	61.758	0.530
479.999	324.506	80.010	19.993	104.367	19.268	59.956	0.536
481.499	325.322	80.008	19.993	104.331	19.254	60.979	0.533
482.999	326.089	80.009	19.991	104.388	19.222	63.373	0.522
484.500	326.893	80.009	19.992	104.614	19.208	64.362	0.552
485.999	327.653	80.010	19.993	104.686	19.204	64.637	0.496
487.499	328.436	80.010	19.994	104.541	19.209	64.295	0.536
489.000	329.216	80.010	19.992	104.390	19.200	64.984	0.536
490.499	329.985	80.008	19.991	104.345	19.198	65.071	0.518
491.999	330.760	80.009	19.993	104.412	19.204	64.608	0.520
493.499	331.589	80.008	19.995	104.506	19.211	64.091	0.534
494.999	332.355	80.007	19.993	104.507	19.203	64.642	0.527
496.499	333.118	80.010	19.992	104.482	19.174	66.823	0.509
498.000	333.886	80.007	19.991	104.497	19.162	67.801	0.533
499.499	334.678	80.007	19.994	104.547	19.161	67.833	0.535
500.999	335.380	80.008	19.994	104.523	19.167	67.337	0.481
502.499	336.137	80.008	19.992	104.448	19.177	66.556	0.492
503.999	336.974	80.008	19.993	104.391	19.188	65.773	0.548
505.500	337.716	80.009	19.993	104.390	19.166	67.331	0.502
506.999	338.503	80.009	19.993	104.469	19.152	68.396	0.532
508.499	339.233	80.009	19.994	104.592	19.148	68.757	0.477
509.999	339.989	80.009	19.992	104.560	19.163	67.756	0.500
511.499	340.759	80.009	19.990	104.479	19.181	66.368	0.505
513.000	341.528	80.009	19.995	104.411	19.206	64.453	0.501
514.499	342.242	80.010	19.994	104.381	19.233	62.421	0.485
515.999	343.019	80.010	19.995	104.406	19.248	61.327	0.526
517.500	343.731	80.008	19.992	104.475	19.212	63.929	0.493
518.999	344.504	80.008	19.994	104.530	19.139	69.338	0.501
520.499	345.248	80.008	19.994	104.680	19.104	71.956	0.482
521.999	345.959	80.007	19.994	104.697	19.103	71.956	0.470
523.500	346.793	80.007	19.994	104.462	19.122	70.561	0.537
524.999	347.544	80.008	19.994	104.262	19.151	68.457	0.501
526.499	348.259	80.005	19.994	104.212	19.184	66.094	0.494
528.000	348.986	80.007	19.993	104.251	19.213	63.994	0.469
529.499	349.751	80.007	19.994	104.429	19.247	61.561	0.513
530.999	350.522	80.008	19.994	104.550	19.278	59.329	0.477
532.499	351.259	80.007	19.996	104.531	19.315	56.597	0.482
534.000	351.997	80.008	19.993	104.471	19.347	54.260	0.493
535.500	352.762	80.008	19.992	104.446	19.379	51.999	0.504
537.000	353.515	80.008	19.993	104.454	19.399	50.566	0.500
538.500	354.264	80.007	19.992	104.485	19.408	49.809	0.495
540.000	354.974	80.007	19.993	104.494	19.409	49.681	0.477
541.499	355.692	80.007	19.992	104.493	19.410	49.552	0.496
543.000	356.442	80.007	19.993	104.490	19.388	51.157	0.493
544.500	357.190	80.007	19.992	104.460	19.334	55.107	0.489
546.000	357.929	80.008	19.992	104.455	19.272	59.694	0.497
547.500	358.610	80.007	19.993	104.524	19.247	61.547	0.449
548.999	359.379	80.009	19.993	104.461	19.248	61.412	0.512
550.500	360.132	80.006	19.992	104.312	19.270	59.792	0.472
551.999	360.908	80.006	19.994	104.206	19.298	57.767	0.497
553.499	361.584	80.008	19.994	104.184	19.315	56.515	0.469
555.000	362.382	80.006	19.993	104.257	19.331	55.391	0.535
556.499	363.121	80.008	19.993	104.431	19.351	53.968	0.509
558.000	363.849	80.007	19.993	104.508	19.374	52.271	0.471
559.499	364.590	80.006	19.994	104.468	19.400	50.424	0.528
560.999	365.378	80.007	19.993	104.400	19.426	48.505	0.513
562.500	366.124	80.008	19.992	104.370	19.449	46.866	0.508
563.999	366.909	80.008	19.993	104.366	19.469	45.426	0.528
565.499	367.657	80.008	19.994	104.391	19.489	43.945	0.485
566.999	368.400	80.010	19.991	104.412	19.508	42.599	0.478
568.499	369.174	80.011	19.994	104.397	19.520	41.691	0.532
570.000	369.859	80.009	19.993	104.385	19.532	40.858	0.451
571.500	370.598	80.010	19.992	104.382	19.545	39.931	0.486
572.999	371.331	80.009	19.994	104.375	19.552	39.405	0.492
574.499	372.067	80.009	19.992	104.375	19.561	38.749	0.469
575.999	372.828	80.009	19.992	104.366	19.569	38.163	0.514
577.499	373.523	80.010	19.994	104.370	19.576	37.657	0.464
578.999	374.281	80.010	19.991	104.374	19.582	37.196	0.501
580.499	375.000	80.010	19.993	104.374	19.587	36.890	0.477
582.000	375.763	80.009	19.994	104.371	19.594	36.374	0.493
583.499	376.476	80.009	19.993	104.369	19.596	36.241	0.470
584.999	377.231	80.007	19.994	104.360	19.604	35.622	0.513
586.499	377.982	80.010	19.994	104.360	19.614	34.932	0.493
587.999	378.723	80.009	19.994	104.359	19.620	34.451	0.482
589.499	379.462	80.011	19.993	104.358	19.629	33.845	0.494
590.999	380.214	80.009	19.993	104.357	19.631	33.689	0.503
592.499	380.935	80.011	19.995	104.362	19.641	32.975	0.501
594.000	381.728	80.009	19.994	104.364	19.647	32.530	0.531
595.500	382.434	80.010	19.992	104.359	19.655	31.939	0.465
597.000	383.191	80.010	19.995	104.349	19.665	31.228	0.501
598.499	383.951	80.009	19.990	104.345	19.674	30.584	0.484
599.999	384.648	80.010	19.993	104.348	19.682	30.007	0.451
601.499	385.461	80.007	19.994	104.358	19.687	29.638	0.535
602.999	386.173	80.008	19.992	104.352	19.695	29.059	0.489
604.500	386.899	80.008	19.993	104.339	19.700	28.678	0.488
606.000	387.642	80.007	19.994	104.352	19.707	28.173	0.495
607.500	388.382	80.007	19.994	104.362	19.713	27.772	0.494
608.999	389.124	80.008	19.993	104.350	19.717	27.458	0.487
610.499	389.874	80.007	19.994	104.342	19.720	27.211	0.506
611.999	390.638	80.007	19.995	104.345	19.723	27.039	0.515
613.499	391.353	80.009	19.997	104.343	19.731	26.451	0.469
614.999	392.108	80.006	19.994	104.344	19.733	26.303	0.491
616.499	392.833	80.006	19.995	104.338	19.740	25.819	0.487
617.999	393.598	80.007	19.994	104.337	19.743	25.535	0.501
619.500	394.364	80.008	19.993	104.334	19.747	25.300	0.524
620.999	395.108	80.007	19.992	104.335	19.753	24.878	0.504
622.500	395.865	80.008	19.994	104.339	19.756	24.599	0.494
623.999	396.581	80.008	19.993	104.339	19.762	24.175	0.480
625.499	397.332	80.007	19.992	104.342	19.768	23.793	0.512
626.999	398.120	80.008	19.991	104.346	19.769	23.659	0.530
628.499	398.875	80.008	19.992	104.341	19.772	23.457	0.491
630.000	399.617	80.008	19.996	104.340	19.775	23.254	0.499
631.500	400.410	80.008	19.995	104.348	19.778	23.045	0.549
632.999	401.193	80.008	19.993	104.343	19.783	22.663	0.528
634.499	401.968	80.007	19.993	104.342	19.788	22.292	0.507
635.999	402.731	80.007	19.993	104.337	19.788	22.288	0.503
637.500	403.528	80.007	19.994	104.339	19.793	21.983	0.515
638.999	404.311	80.009	19.993	104.341	19.793	21.926	0.528
640.499	405.101	80.007	19.994	104.338	19.799	21.541	0.497
642.000	405.845	80.010	19.992	104.335	19.799	21.541	0.511
643.499	406.614	80.009	19.993	104.334	19.806	21.037	0.533
644.999	407.410	80.008	19.992	104.335	19.805	21.070	0.544
646.499	408.209	80.009	19.994	104.335	19.809	20.813	0.527
647.999	408.991	80.009	19.994	104.331	19.814	20.460	0.521
649.499	409.783	80.010	19.992	104.328	19.817	20.240	0.522
651.000	410.564	80.009	19.993	104.336	19.821	19.935	0.519
652.499	411.315	80.010	19.994	104.335	19.820	20.002	0.513
653.999	412.145	80.009	19.994	104.334	19.820	19.988	0.537
655.499	412.917	80.011	19.994	104.333	19.827	19.476	0.536
656.999	413.699	80.010	19.997	104.331	19.825	19.597	0.526
658.500	414.458	80.009	19.991	104.332	19.827	19.455	0.525
659.999	415.232	80.008	19.993	104.333	19.830	19.283	0.531
661.499	416.016	80.010	19.991	104.330	19.835	18.880	0.519
662.999	416.782	80.009	19.993	104.316	19.838	18.705	0.514
664.500	417.559	80.009	19.992	104.309	19.840	18.538	0.547
665.999	418.358	80.009	19.993	104.309	19.846	18.138	0.522
667.500	419.142	80.009	19.993	104.316	19.847	18.023	0.516
669.000	419.916	80.010	19.993	104.329	19.848	17.986	0.540
670.500	420.630	80.010	19.992	104.319	19.852	17.712	0.466
671.999	421.431	80.009	19.994	104.305	19.855	17.482	0.523
673.499	422.227	80.011	19.993	104.303	19.856	17.401	0.504
675.000	422.956	80.010	19.992	104.318	19.858	17.235	0.517
676.499	423.739	80.009	19.994	104.324	19.861	17.040	0.532
678.000	424.502	80.010	19.992	104.311	19.865	16.715	0.521
679.500	425.305	80.009	19.990	104.299	19.870	16.384	0.521
680.999	426.083	80.008	19.994	104.297	19.873	16.144	0.509
682.500	426.799	80.008	19.994	104.300	19.875	16.018	0.500
684.000	427.545	80.009	19.994	104.300	19.881	15.562	0.485
685.500	428.321	80.008	19.995	104.302	19.881	15.605	0.513
686.999	429.075	80.007	19.995	104.300	19.882	15.486	0.510
688.499	429.787	80.007	19.994	104.299	19.884	15.387	0.490
690.000	430.519	80.007	19.994	104.299	19.887	15.171	0.505
691.499	431.255	80.006	19.995	104.300	19.888	15.068	0.486
692.999	432.054	80.008	19.993	104.300	19.891	14.821	0.500
694.500	432.752	80.008	19.995	104.299	19.894	14.667	0.487
696.000	433.512	80.008	19.994	104.297	19.898	14.379	0.483
697.500	434.249	80.008	19.995	104.297	19.899	14.308	0.486
698.999	434.986	80.008	19.991	104.294	19.901	14.103	0.487
700.500	435.700	80.008	19.995	104.295	19.906	13.797	0.480
701.999	436.385	80.007	19.995	104.295	19.905	13.836	0.457
703.499	437.116	80.008	19.995	104.292	19.906	13.769	0.481
705.000	437.774	80.008	19.993	104.289	19.909	13.544	0.464
706.499	438.493	80.007	19.994	104.289	19.914	13.169	0.468
707.999	439.224	80.007	19.994	104.291	19.912	13.310	0.475
709.500	439.957	80.007	19.994	104.286	19.916	13.036	0.474
711.000	440.687	80.008	19.995	104.287	19.915	13.088	0.493
712.499	441.376	80.006	19.995	104.285	19.920	12.789	0.452
713.999	442.117	80.007	19.994	104.284	19.923	12.541	0.489
715.500	442.791	80.007	19.994	104.293	19.924	12.459	0.459
716.999	443.527	80.006	19.995	104.295	19.926	12.314	0.490
718.499	444.242	80.008	19.993	104.295	19.926	12.346	0.499
719.999	444.925	80.007	19.993	104.295	19.927	12.261	0.463
721.500	445.668	80.010	19.994	104.296	19.929	12.141	0.493
722.999	446.370	80.009	19.994	104.296	19.928	12.145	0.465
724.500	447.039	80.009	19.993	104.296	19.929	12.077	0.457
725.999	447.838	80.009	19.994	104.292	19.930	12.029	0.542
727.499	448.560	80.010	19.995	104.288	19.935	11.646	0.500
729.000	449.234	80.009	19.994	104.291	19.934	11.766	0.461
730.499	449.985	80.011	19.992	104.291	19.934	11.733	0.530
731.999	450.726	80.011	19.992	104.295	19.936	11.608	0.476
733.499	451.487	80.010	19.992	104.295	19.935	11.679	0.524
734.999	452.238	80.009	19.993	104.295	19.937	11.542	0.503
736.499	452.937	80.008	19.994	104.296	19.948	10.733	0.475
737.999	453.721	80.009	19.995	104.287	19.946	10.886	0.521
739.499	454.364	80.008	19.992	104.291	19.938	11.426	0.493
740.999	455.191	80.008	19.992	104.297	19.947	10.789	0.509
742.499	455.914	80.009	19.993	104.297	19.941	11.208	0.540
743.999	456.787	80.009	19.994	104.299	19.942	11.137	0.516
745.499	457.491	80.010	19.993	104.298	19.945	10.970	0.467
746.999	458.222	80.010	19.993	104.293	19.947	10.785	0.637
748.500	458.857	80.009	19.992	104.289	19.949	10.629	0.539
750.000	459.520	80.007	19.994	104.296	19.948	10.732	0.356
751.500	460.322	80.009	19.995	104.298	19.950	10.577	0.600
752.999	461.622	80.010	19.990	104.291	19.949	10.676	0.480
754.499	462.190	80.010	19.990	104.290	19.951	10.507	0.736
756.000	462.939	80.010	19.992	104.298	19.950	10.570	0.388
757.499	463.819	80.009	19.993	104.296	19.956	10.164	0.475
758.999	464.524	80.011	19.990	104.296	19.952	10.422	0.507
760.499	465.392	80.011	19.993	104.296	19.953	10.350	0.583
761.999	466.144	80.007	19.992	104.295	19.952	10.421	0.546
763.499	466.940	80.008	19.994	104.294	19.951	10.500	0.502
764.999	467.714	80.008	19.994	104.290	19.951	10.518	0.570
766.500	468.508	80.009	19.993	104.282	19.957	10.094	0.543
767.999	469.344	80.008	19.995	104.289	19.957	10.053	0.551
769.500	470.155	80.007	19.994	104.287	19.958	10.022	0.557
770.999	470.969	80.007	19.995	104.289	19.958	10.038	0.562
772.500	471.792	80.007	19.994	104.282	19.958	10.013	0.581
773.999	472.596	80.007	19.995	104.277	19.960	9.857	0.546
775.500	473.401	80.007	19.993	104.279	19.960	9.829	0.562
776.999	474.225	80.008	19.993	104.281	19.963	9.667	0.564
778.499	475.039	80.007	19.993	104.285	19.965	9.510	0.519
779.999	475.849	80.009	19.993	104.281	19.966	9.422	0.521
781.500	476.613	80.009	19.994	104.272	19.968	9.264	0.516
782.999	477.420	80.008	19.994	104.279	19.969	9.209	0.544
784.500	478.221	80.008	19.994	104.275	19.971	9.102	0.522
785.999	479.028	80.010	19.993	104.266	19.967	9.331	0.501
787.500	479.781	80.008	19.992	104.277	19.971	9.053	0.538
789.000	480.612	80.008	19.994	104.272	19.973	8.956	0.539
790.500	481.391	80.007	19.993	104.260	19.972	8.996	0.518
791.999	482.164	80.007	19.993	104.263	19.971	9.040	0.502
793.499	482.932	80.006	19.994	104.264	19.972	8.987	0.518
795.000	483.694	80.007	19.994	104.269	19.975	8.795	0.516
796.499	484.498	80.007	19.992	104.262	19.973	8.916	0.525
797.999	485.249	80.005	19.995	104.269	19.975	8.745	0.486
799.499	486.025	80.006	19.994	104.276	19.980	8.425	0.496
800.999	486.835	80.007	19.995	104.279	19.981	8.352	0.537
802.499	487.569	80.005	19.993	104.269	19.980	8.434	0.506
804.000	488.329	80.008	19.995	104.261	19.981	8.350	0.518
805.499	489.075	80.008	19.994	104.266	19.983	8.215	0.504
807.000	489.861	80.008	19.994	104.267	19.984	8.100	0.521
808.499	490.668	80.009	19.994	104.267	19.986	7.994	0.543
810.000	491.455	80.009	19.994	104.270	19.985	8.042	0.519
811.499	492.250	80.010	19.993	104.279	19.989	7.739	0.544
812.999	493.004	80.008	19.993	104.268	19.987	7.909	0.503
814.499	493.810	80.009	19.995	104.272	19.990	7.727	0.549
815.999	494.576	80.009	19.995	104.283	19.989	7.755	0.528
817.499	495.372	80.007	19.991	104.275	19.994	7.433	0.501
818.999	496.154	80.008	19.992	104.264	19.995	7.364	0.527
820.499	496.946	80.010	19.993	104.265	19.992	7.514	0.516
822.000	497.691	80.008	19.993	104.261	19.994	7.406	0.494
823.499	498.461	80.009	19.994	104.266	19.994	7.406	0.512
824.999	499.251	80.008	19.992	104.265	19.996	7.281	0.533
826.499	500.015	80.008	19.994	104.266	19.993	7.469	0.516
827.999	500.818	80.009	19.992	104.259	19.995	7.300	0.503
829.499	501.548	80.008	19.992	104.256	19.998	7.096	0.507
831.000	502.338	80.009	19.993	104.255	19.997	7.166	0.516
832.499	503.056	80.009	19.992	104.258	20.000	6.969	0.482
833.999	503.851	80.010	19.993	104.260	20.002	6.815	0.523
835.500	504.571	80.010	19.993	104.267	20.001	6.887	0.494
836.999	505.343	80.012	19.994	104.267	20.004	6.659	0.508
838.500	506.108	80.010	19.992	104.256	20.008	6.415	0.516
839.999	506.843	80.009	19.991	104.258	20.008	6.373	0.500
841.499	507.587	80.009	19.993	104.258	20.006	6.522	0.496
842.999	508.326	80.008	19.993	104.255	20.011	6.157	0.485
844.500	509.082	80.008	19.994	104.255	20.011	6.154	0.494
845.999	509.786	80.009	19.995	104.267	20.010	6.260	0.490
847.499	510.561	80.008	19.995	104.271	20.012	6.094	0.524
849.000	511.291	80.007	19.994	104.262	20.012	6.134	0.477
850.499	511.982	80.008	19.993	104.257	20.009	6.300	0.453
851.999	512.723	80.008	19.993	104.256	20.013	6.013	0.499
853.499	513.407	80.008	19.995	104.257	20.013	6.039	0.475
855.000	514.168	80.008	19.993	104.261	20.011	6.163	0.477
856.499	514.919	80.007	19.994	104.261	20.013	6.038	0.504
857.999	515.621	80.007	19.993	104.258	20.013	6.013	0.483
859.499	516.334	80.006	19.993	104.259	20.016	5.817	0.468
860.999	517.038	80.007	19.993	104.259	20.014	5.932	0.475
862.499	517.773	80.006	19.996	104.259	20.017	5.724	0.503
863.999	518.517	80.007	19.994	104.262	20.012	6.094	0.481
865.499	519.191	80.008	19.993	104.262	20.016	5.781	0.463
867.000	519.911	80.007	19.995	104.257	20.015	5.856	0.453
868.500	520.659	80.006	19.994	104.257	20.020	5.553	0.499
869.999	521.381	80.007	19.995	104.262	20.020	5.512	0.482
871.499	522.135	80.006	19.993	104.268	20.018	5.679	0.512
872.999	522.889	80.007	19.993	104.262	20.019	5.570	0.526
874.499	523.625	80.007	19.994	104.262	20.022	5.399	0.515
875.999	524.374	80.006	19.993	104.266	20.022	5.349	0.512
877.499	525.140	80.005	19.994	104.263	20.020	5.511	0.496
879.000	525.887	80.007	19.994	104.264	20.026	5.068	0.512
880.499	526.661	80.005	19.994	104.265	20.024	5.232	0.508
882.000	527.391	80.007	19.993	104.275	20.027	5.046	0.495
883.500	528.163	80.005	19.994	104.275	20.025	5.153	0.519
884.999	528.930	80.005	19.993	104.267	20.027	5.028	0.488
886.499	529.648	80.008	19.994	104.263	20.030	4.769	0.493
888.000	530.418	80.009	19.994	104.260	20.029	4.858	0.516
889.499	531.193	80.008	19.994	104.259	20.031	4.724	0.527
891.000	531.920	80.008	19.994	104.260	20.030	4.782	0.473
892.499	532.693	80.009	19.994	104.258	20.029	4.877	0.529
894.000	533.452	80.009	19.994	104.255	20.031	4.708	0.505
895.499	534.208	80.008	19.993	104.257	20.027	4.992	0.493
897.000	534.971	80.008	19.994	104.260	20.024	5.250	0.526
898.500	535.712	80.009	19.993	104.262	20.030	4.835	0.502
900.000	536.554	80.011	19.994	104.278	20.029	4.911	0.549
901.499	537.279	80.007	19.993	104.289	20.023	5.343	0.482
902.999	538.135	80.008	19.994	104.288	20.028	4.933	0.570
904.500	538.965	80.009	19.994	104.288	20.027	4.998	0.562
905.999	539.778	80.009	19.993	104.288	20.025	5.178	0.558
907.499	540.654	80.010	19.995	104.288	20.025	5.156	0.588
908.999	541.450	80.010	19.993	104.284	20.023	5.277	0.546
910.499	542.342	80.008	19.994	104.285	20.026	5.089	0.600
911.999	543.192	80.011	19.992	104.295	20.028	4.976	0.556
913.500	544.102	80.011	19.993	104.294	20.029	4.889	0.590
915.000	544.955	80.011	19.996	104.293	20.029	4.883	0.571
916.499	545.866	80.009	19.992	104.277	20.027	5.051	0.575
917.999	546.786	80.010	19.992	104.280	20.031	4.754	0.620
919.499	547.669	80.010	19.992	104.291	20.029	4.859	0.607
920.999	548.575	80.009	19.993	104.283	20.030	4.819	0.596
922.499	549.476	80.010	19.994	104.277	20.031	4.716	0.618
924.000	550.379	80.008	19.995	104.287	20.028	4.966	0.616
925.500	551.311	80.008	19.992	104.287	20.030	4.794	0.609
927.000	552.243	80.008	19.992	104.278	20.029	4.886	0.622
928.500	553.144	80.008	19.994	104.282	20.026	5.086	0.615
930.000	554.038	80.007	19.994	104.278	20.030	4.785	0.591
931.499	555.013	80.009	19.995	104.278	20.028	4.976	0.646
932.999	555.921	80.009	19.993	104.279	20.027	5.021	0.616
934.499	556.787	80.007	19.994	104.289	20.030	4.793	0.573
935.999	557.706	80.006	19.992	104.295	20.030	4.777	0.616
937.500	558.606	80.008	19.993	104.280	20.031	4.757	0.595
938.999	559.500	80.008	19.993	104.265	20.031	4.741	0.617
940.499	560.407	80.009	19.992	104.268	20.030	4.790	0.600
941.999	561.268	80.008	19.992	104.283	20.031	4.709	0.581
943.500	562.192	80.006	19.993	104.292	20.027	5.000	0.614
945.000	563.068	80.008	19.993	104.273	20.029	4.852	0.593
946.500	563.931	80.008	19.993	104.270	20.029	4.868	0.571
947.999	564.732	80.008	19.996	104.262	20.032	4.650	0.551
949.499	565.638	80.009	19.993	104.261	20.033	4.555	0.603
950.999	566.466	80.008	19.993	104.260	20.031	4.749	0.551
952.500	567.262	80.006	19.993	104.259	20.031	4.713	0.540
953.999	568.031	80.007	19.994	104.257	20.034	4.541	0.508
955.499	568.817	80.008	19.995	104.258	20.032	4.640	0.536
956.999	569.675	80.006	19.995	104.257	20.030	4.778	0.552
958.500	570.446	80.008	19.995	104.258	20.035	4.406	0.504
959.999	571.167	80.008	19.993	104.258	20.031	4.709	0.498
961.499	571.919	80.007	19.994	104.257	20.036	4.345	0.499
963.000	572.714	80.008	19.995	104.257	20.033	4.600	0.516
964.499	573.432	80.008	19.994	104.258	20.032	4.642	0.487
965.999	574.247	80.009	19.994	104.257	20.033	4.582	0.551
967.499	574.979	80.009	19.995	104.257	20.031	4.697	0.503
968.999	575.691	80.010	19.993	104.258	20.034	4.485	0.484
970.499	576.432	80.009	19.992	104.258	20.037	4.303	0.493
972.000	577.123	80.010	19.994	104.258	20.032	4.640	0.475
973.499	577.892	80.009	19.993	104.258	20.034	4.543	0.516
974.999	578.556	80.010	19.994	104.256	20.034	4.481	0.448
976.499	579.304	80.009	19.994	104.257	20.033	4.592	0.495
977.999	579.971	80.009	19.994	104.259	20.031	4.711	0.451
979.499	580.717	80.008	19.994	104.256	20.032	4.694	0.479
981.000	581.426	80.008	19.994	104.257	20.035	4.406	0.488
982.500	582.195	80.010	19.994	104.258	20.031	4.729	0.509
983.999	582.917	80.009	19.995	104.260	20.030	4.799	0.479
985.500	583.598	80.010	19.995	104.262	20.036	4.390	0.460
986.999	584.354	80.008	19.994	104.259	20.032	4.679	0.500
988.499	585.032	80.009	19.995	104.262	20.030	4.808	0.468
989.999	585.798	80.009	19.995	104.263	20.034	4.499	0.503
991.499	586.538	80.009	19.995	104.263	20.036	4.362	0.489
992.999	587.256	80.010	19.994	104.264	20.031	4.761	0.486
994.499	588.035	80.010	19.994	104.268	20.034	4.523	0.518
996.000	588.795	80.010	19.993	104.263	20.031	4.717	0.491
997.499	589.521	80.010	19.993	104.258	20.034	4.505	0.466
998.999	590.311	80.012	19.994	104.258	20.030	4.836	0.529
1000.499	591.081	80.011	19.992	104.258	20.032	4.694	0.506
1001.999	591.813	80.009	19.993	104.259	20.031	4.727	0.488
1003.500	592.562	80.009	19.993	104.260	20.033	4.594	0.495
1005.000	593.312	80.008	19.993	104.260	20.031	4.697	0.501
1006.499	594.111	80.008	19.993	104.263	20.029	4.868	0.509
1007.999	594.842	80.008	19.992	104.261	20.031	4.699	0.493
1009.499	595.633	80.007	19.994	104.260	20.033	4.566	0.529
1010.999	596.409	80.008	19.993	104.269	20.030	4.790	0.513
1012.499	597.155	80.007	19.993	104.268	20.033	4.614	0.522
1014.000	597.942	80.008	19.993	104.260	20.032	4.650	0.535
1015.499	598.649	80.009	19.994	104.261	20.030	4.838	0.483
1016.999	599.414	80.008	19.994	104.262	20.031	4.727	0.506
1018.499	600.151	80.008	19.993	104.263	20.032	4.687	0.491
1019.999	600.887	80.008	19.992	104.258	20.034	4.519	0.479
1021.499	601.685	80.009	19.994	104.258	20.033	4.584	0.544
1022.999	602.395	80.008	19.993	104.259	20.033	4.604	0.482
1024.499	603.168	80.008	19.993	104.259	20.035	4.448	0.502
1025.999	603.903	80.008	19.994	104.258	20.034	4.523	0.471
1027.499	604.626	80.008	19.994	104.257	20.035	4.424	0.500
1028.999	605.419	80.009	19.994	104.261	20.038	4.228	0.521
1030.499	606.122	80.009	19.993	104.261	20.035	4.412	0.480
1031.999	606.905	80.007	19.993	104.258	20.036	4.337	0.520
1033.499	607.620	80.008	19.993	104.259	20.037	4.295	0.495
1034.999	608.382	80.009	19.994	104.259	20.039	4.178	0.521
1036.499	609.153	80.007	19.993	104.258	20.035	4.437	0.514
1037.999	609.869	80.007	19.992	104.257	20.035	4.428	0.479
1039.499	610.644	80.007	19.994	104.258	20.034	4.505	0.513
1040.999	611.347	80.007	19.994	104.257	20.033	4.576	0.457
1042.499	612.129	80.007	19.994	104.256	20.033	4.608	0.526
1043.999	612.858	80.008	19.993	104.258	20.037	4.269	0.468
1045.499	613.577	80.009	19.993	104.256	20.034	4.515	0.486
1046.999	614.370	80.008	19.993	104.254	20.034	4.489	0.508
1048.499	615.106	80.009	19.994	104.254	20.034	4.507	0.501
1049.999	615.871	80.009	19.994	104.258	20.035	4.414	0.504
1051.499	616.647	80.010	19.994	104.258	20.037	4.323	0.524
1052.999	617.399	80.009	19.994	104.256	20.035	4.442	0.509
1054.499	618.154	80.009	19.993	104.257	20.031	4.696	0.487
1055.999	618.899	80.010	19.994	104.258	20.033	4.557	0.503
1057.499	619.681	80.008	19.993	104.260	20.034	4.485	0.492
1058.999	620.507	80.008	19.994	104.261	20.029	4.909	0.523
1060.499	621.290	80.009	19.993	104.261	20.030	4.793	0.505
1061.999	622.072	80.008	19.992	104.261	20.031	4.699	0.552
1063.499	622.877	80.008	19.995	104.260	20.033	4.618	0.545
1064.999	623.646	80.009	19.994	104.266	20.033	4.577	0.524
1066.499	624.500	80.006	19.994	104.263	20.032	4.652	0.563
1067.999	625.275	80.007	19.995	104.260	20.033	4.596	0.505
1069.499	626.112	80.008	19.994	104.261	20.035	4.465	0.564
1070.999	626.917	80.008	19.993	104.265	20.031	4.721	0.524
1072.499	627.754	80.010	19.994	104.264	20.031	4.760	0.576
1073.999	628.598	80.009	19.993	104.258	20.031	4.699	0.549
1075.499	629.446	80.008	19.994	104.263	20.031	4.719	0.570
1076.999	630.311	80.010	19.995	104.274	20.028	4.957	0.571
1078.499	631.138	80.009	19.994	104.265	20.030	4.788	0.565
1079.999	632.029	80.009	19.994	104.257	20.029	4.844	0.586
1081.499	632.900	80.008	19.994	104.258	20.028	4.929	0.608
1082.999	633.732	80.008	19.994	104.256	20.028	4.971	0.575
1084.499	634.586	80.007	19.995	104.253	20.030	4.794	0.568
1085.999	635.494	80.007	19.994	104.252	20.029	4.859	0.604
1087.499	636.336	80.008	19.994	104.263	20.029	4.863	0.572
1088.999	637.196	80.008	19.994	104.261	20.028	4.929	0.574
1090.499	638.033	80.008	19.992	104.260	20.029	4.846	0.550
1091.999	638.894	80.008	19.994	104.262	20.028	4.977	0.581
1093.499	639.762	80.010	19.995	104.257	20.028	4.929	0.559
1094.999	640.604	80.008	19.994	104.256	20.026	5.107	0.591
1096.499	641.450	80.008	19.993	104.249	20.028	4.959	0.570
1097.999	642.305	80.008	19.994	104.253	20.028	4.980	0.573
1099.499	643.134	80.008	19.993	104.257	20.029	4.846	0.559
1101.000	643.957	80.009	19.994	104.257	20.027	5.010	0.555
1102.499	644.786	80.008	19.993	104.257	20.029	4.862	0.528
1103.999	645.597	80.008	19.994	104.259	20.029	4.876	0.554
1105.499	646.413	80.007	19.994	104.258	20.031	4.757	0.536
1106.999	647.217	80.008	19.993	104.257	20.027	4.987	0.519
1108.499	648.050	80.008	19.995	104.256	20.030	4.780	0.535
1109.999	648.920	80.007	19.994	104.256	20.028	4.973	0.603
1111.499	649.704	80.007	19.994	104.258	20.028	4.983	0.544
1112.999	650.528	80.007	19.994	104.260	20.028	4.939	0.548
1114.499	651.363	80.008	19.994	104.258	20.026	5.056	0.556
1115.999	652.176	80.008	19.995	104.259	20.028	4.923	0.542
1117.499	652.989	80.007	19.994	104.262	20.027	5.028	0.553
1118.999	653.743	80.007	19.994	104.261	20.031	4.739	0.518
1120.499	654.639	80.009	19.993	104.261	20.029	4.854	0.581
1121.999	655.446	80.008	19.993	104.261	20.031	4.757	0.538
1123.499	656.278	80.007	19.993	104.259	20.033	4.608	0.581
1124.999	657.078	80.007	19.994	104.260	20.030	4.780	0.542
1126.499	657.887	80.009	19.994	104.261	20.031	4.703	0.553
1127.999	658.695	80.009	19.993	104.260	20.032	4.636	0.546
1129.499	659.565	80.009	19.994	104.260	20.029	4.893	0.571
1130.999	660.336	80.010	19.993	104.259	20.032	4.693	0.501
1132.499	661.213	80.009	19.993	104.258	20.028	4.978	0.574
1133.999	661.976	80.009	19.993	104.259	20.029	4.872	0.502
1135.499	662.791	80.009	19.994	104.257	20.029	4.883	0.539
1136.999	663.589	80.008	19.994	104.256	20.028	4.935	0.551
1138.499	664.384	80.008	19.993	104.257	20.028	4.970	0.538
1139.999	665.172	80.008	19.993	104.254	20.030	4.807	0.526
1141.499	665.930	80.008	19.994	104.254	20.027	5.007	0.512
1142.999	666.670	80.007	19.994	104.256	20.026	5.117	0.492
1144.499	667.433	80.008	19.995	104.258	20.029	4.887	0.497
1145.999	668.185	80.006	19.993	104.257	20.027	5.002	0.505
1147.499	668.932	80.008	19.995	104.255	20.028	4.911	0.489
1148.999	669.661	80.008	19.995	104.258	20.028	4.915	0.465
1150.499	670.399	80.007	19.994	104.204	20.031	4.760	0.496
1151.999	671.119	80.008	19.994	104.243	20.031	4.735	0.492
1153.499	671.855	80.010	19.994	104.296	20.029	4.846	0.494
1154.999	672.581	80.010	19.994	104.251	20.030	4.818	0.508
1156.499	673.333	80.009	19.994	104.253	20.028	4.944	0.477
1157.999	674.074	80.010	19.993	104.255	20.029	4.853	0.489
1159.499	674.815	80.009	19.993	104.249	20.031	4.697	0.495
1160.999	675.548	80.009	19.993	104.249	20.031	4.764	0.495
1162.499	676.326	80.009	19.994	104.255	20.030	4.824	0.506
1163.999	677.061	80.009	19.995	104.255	20.028	4.939	0.488
1165.499	677.801	80.008	19.995	104.251	20.028	4.917	0.485
1166.999	678.565	80.007	19.995	104.247	20.033	4.600	0.520
1168.499	679.334	80.006	19.995	104.251	20.033	4.572	0.515
1169.999	680.048	80.007	19.996	104.255	20.033	4.608	0.498
1171.499	680.795	80.008	19.994	104.254	20.034	4.548	0.491
1172.999	681.567	80.007	19.995	104.255	20.034	4.543	0.523
1174.499	682.322	80.007	19.993	104.252	20.029	4.860	0.503
1175.999	683.065	80.007	19.995	104.252	20.031	4.699	0.508
1177.499	683.881	80.007	19.993	104.256	20.031	4.735	0.529
1178.999	684.613	80.006	19.994	104.257	20.030	4.830	0.492
1180.499	685.388	80.008	19.993	104.256	20.030	4.786	0.502
1181.999	686.165	80.006	19.992	104.247	20.033	4.612	0.512
1183.499	686.940	80.007	19.994	104.253	20.032	4.671	0.525
1184.999	687.680	80.008	19.992	104.259	20.034	4.493	0.482
1186.499	688.452	80.008	19.993	104.257	20.031	4.735	0.531
1187.999	689.200	80.008	19.994	104.253	20.036	4.404	0.506
1189.499	689.989	80.007	19.994	104.257	20.033	4.617	0.535
1190.999	690.729	80.007	19.994	104.256	20.028	4.911	0.504
1192.500	691.500	80.009	19.994	104.251	20.035	4.475	0.501
1193.999	692.248	80.006	19.994	104.252	20.032	4.651	0.481
1195.499	693.047	80.009	19.993	104.253	20.033	4.576	0.531
1196.999	693.792	80.008	19.994	104.261	20.029	4.847	0.516
1198.499	694.593	80.006	19.993	104.260	20.033	4.558	0.538
1199.999	695.377	80.007	19.994	104.248	20.034	4.536	0.520
1201.499	696.153	80.006	19.994	104.240	20.027	5.003	0.563
1202.999	696.961	80.006	19.993	104.251	20.032	4.656	0.527
1204.499	697.673	80.007	19.993	104.250	20.033	4.575	0.475
1205.999	698.421	80.008	19.994	104.246	20.032	4.677	0.494
1207.499	699.196	80.008	19.994	104.235	20.036	4.389	0.493
1208.999	699.989	80.008	19.994	104.237	20.031	4.754	0.517
1210.499	700.776	80.009	19.993	104.238	20.035	4.417	0.538
1211.999	701.503	80.010	19.993	104.227	20.034	4.527	0.502
1213.499	702.274	80.010	19.994	104.228	20.034	4.522	0.486
1214.999	703.035	80.010	19.993	104.229	20.029	4.890	0.523
1216.499	703.782	80.009	19.993	104.237	20.028	4.983	0.507
1217.999	704.540	80.007	19.992	104.245	20.026	5.084	0.498
1219.499	705.280	80.009	19.993	104.235	20.029	4.896	0.492
1220.999	706.052	80.009	19.993	104.241	20.026	5.083	0.496
1222.499	706.818	80.009	19.994	104.224	20.026	5.077	0.506
1223.999	707.555	80.009	19.993	104.194	20.034	4.478	0.505
1225.499	708.283	80.009	19.993	104.262	20.026	5.121	0.496
1226.999	709.029	80.009	19.994	104.288	20.033	4.613	0.494
1228.499	709.748	80.010	19.994	104.235	20.029	4.906	0.483
1229.999	710.520	80.009	19.995	104.221	20.032	4.656	0.502
1231.499	711.232	80.009	19.995	104.242	20.032	4.652	0.456
1232.999	711.928	80.009	19.995	104.252	20.034	4.507	0.481
1234.499	712.712	80.009	19.994	104.231	20.031	4.702	0.507
1235.999	713.459	80.009	19.994	104.219	20.034	4.518	0.480
1237.499	714.220	80.011	19.994	104.228	20.031	4.730	0.497
1238.999	714.960	80.011	19.993	104.238	20.035	4.459	0.501
1240.499	715.698	80.009	19.994	104.230	20.034	4.544	0.484
1241.999	716.428	80.009	19.994	104.221	20.031	4.733	0.486
1243.499	717.211	80.008	19.994	104.220	20.031	4.702	0.519
1244.999	717.909	80.007	19.993	104.223	20.035	4.437	0.488
1246.499	718.672	80.007	19.994	104.235	20.031	4.704	0.489
1247.999	719.374	80.008	19.993	104.239	20.031	4.726	0.482
1249.499	720.117	80.008	19.994	104.241	20.033	4.607	0.504
1250.999	720.878	80.008	19.993	104.240	20.034	4.517	0.507
1252.499	721.615	80.007	19.993	104.253	20.029	4.874	0.501
1253.999	722.348	80.008	19.994	104.243	20.030	4.769	0.467
1255.499	723.118	80.008	19.993	104.234	20.030	4.791	0.507
1256.999	723.881	80.007	19.995	104.233	20.034	4.522	0.495
1258.499	724.635	80.008	19.994	104.230	20.033	4.605	0.505
1259.999	725.358	80.007	19.994	104.234	20.027	5.002	0.474
1261.499	726.085	80.007	19.994	104.221	20.026	5.090	0.481
1262.999	726.823	80.007	19.994	104.225	20.028	4.982	0.497
1264.499	727.599	80.007	19.995	104.223	20.027	5.004	0.510
1265.999	728.330	80.006	19.993	104.224	20.026	5.123	0.490
1267.499	729.076	80.006	19.995	104.228	20.025	5.155	0.494
1268.999	729.854	80.008	19.994	104.228	20.028	4.925	0.536
1270.499	730.591	80.006	19.994	104.246	20.031	4.712	0.512
1271.999	731.364	80.007	19.993	104.259	20.030	4.821	0.501
1273.499	732.126	80.007	19.994	104.287	20.029	4.860	0.494
1274.999	732.900	80.009	19.994	104.352	20.030	4.767	0.504
1276.499	733.671	80.009	19.995	104.277	20.033	4.577	0.511
1278.000	734.429	80.008	19.995	104.223	20.030	4.769	0.509
1279.499	735.192	80.007	19.993	104.223	20.033	4.571	0.508
1280.999	736.014	80.006	19.994	104.223	20.029	4.842	0.528
1282.499	736.769	80.008	19.994	104.227	20.032	4.646	0.509
1283.999	737.599	80.006	19.993	104.230	20.032	4.660	0.553
1285.499	738.351	80.007	19.993	104.226	20.032	4.632	0.486
1286.999	739.117	80.008	19.994	104.220	20.029	4.906	0.530
1288.499	739.920	80.009	19.994	104.220	20.032	4.691	0.516
1289.999	740.726	80.010	19.996	104.219	20.034	4.486	0.546
1291.500	741.525	80.009	19.995	104.222	20.031	4.721	0.538
1292.999	742.324	80.009	19.993	104.226	20.030	4.819	0.521
1294.499	743.120	80.008	19.994	104.220	20.029	4.903	0.531
1294.999	743.380	80.010	19.995	104.219	20.028	4.933	0.513