File: 01_Data/Polyester_Microfiber_81A/MCC/Polyester_Microfiber_81A_MCC_30K_min_220228_R2.txt
Sample ID:	C:\MCC\MCC Cal\Test\Polyester_Microfiber_81A_MCC_30K_min_220228_R2.txt
Sample Weight (mg):	4.24
Heating Rate (C/s):	0.5
Combustor Temp (C):	900
N2 Flow Rate (cc/min):	80
O2 Flow Rate (cc/min):	20
Calibration File:	C:\MCC\MCC Cal\Coeff1 JN10440_30_210304.txt.txt
T Correction Coefficients:	0	1.024463	0
Time Shift (s):	14
*
Time (s)	Temperature (C)	N2 flow rate (cc/min)	O2 flow rate (cc/min)	Flow Rate (cc/min)	Oxygen (%)	HRR (W/g)	Heating rate (C/s)
0.000	112.856	80.009	19.994	103.791	20.024	-0.329	0.077
1.500	112.936	80.008	19.994	103.795	20.025	-0.416	0.062
3.000	113.034	80.007	19.993	103.796	20.022	-0.148	0.065
4.500	113.089	80.009	19.992	103.797	20.025	-0.377	0.067
6.000	113.193	80.008	19.994	103.795	20.019	0.033	0.065
7.500	113.298	80.008	19.992	103.795	20.024	-0.333	0.078
9.000	113.369	80.008	19.993	103.802	20.022	-0.148	0.032
10.500	113.444	80.007	19.992	103.812	20.020	-0.044	0.058
12.000	113.534	80.007	19.993	103.829	20.021	-0.121	0.060
13.500	113.620	80.008	19.993	103.832	20.017	0.167	0.063
15.000	113.741	80.007	19.994	103.832	20.017	0.169	0.071
16.500	113.845	80.008	19.993	103.833	20.015	0.323	0.090
18.000	113.926	80.008	19.992	103.832	20.015	0.363	0.074
19.500	114.016	80.007	19.993	103.841	20.014	0.413	0.041
21.000	114.097	80.007	19.994	103.849	20.011	0.640	0.066
22.500	114.230	80.009	19.992	103.859	20.012	0.596	0.083
24.001	114.328	80.009	19.993	103.870	20.011	0.640	0.062
25.500	114.486	80.008	19.992	103.871	20.009	0.784	0.116
27.000	114.561	80.010	19.992	103.887	20.005	1.117	0.028
28.500	114.683	80.009	19.993	103.908	20.005	1.117	0.067
30.000	114.851	80.010	19.993	103.925	20.000	1.491	0.094
31.500	115.006	80.010	19.991	103.945	20.002	1.364	0.107
33.000	115.166	80.009	19.995	103.953	19.996	1.834	0.099
34.500	115.364	80.010	19.993	103.962	19.995	1.909	0.111
36.000	115.581	80.008	19.993	103.962	19.992	2.084	0.141
37.501	115.811	80.010	19.992	103.952	19.989	2.374	0.133
39.000	116.041	80.010	19.992	103.949	19.989	2.315	0.142
40.500	116.284	80.009	19.994	103.968	19.989	2.369	0.156
42.000	116.528	80.010	19.993	103.983	19.982	2.893	0.192
43.500	116.807	80.009	19.993	103.946	19.986	2.542	0.188
45.000	117.129	80.010	19.993	103.926	19.984	2.705	0.237
46.500	117.414	80.008	19.993	104.024	19.987	2.482	0.191
48.000	117.747	80.008	19.995	104.042	19.983	2.822	0.213
49.501	118.112	80.009	19.995	103.987	19.985	2.620	0.236
51.001	118.428	80.010	19.993	103.986	19.986	2.570	0.207
52.501	118.780	80.011	19.995	103.991	19.985	2.659	0.237
54.000	119.153	80.011	19.993	103.995	19.981	2.954	0.236
55.500	119.526	80.010	19.994	103.988	19.982	2.867	0.255
57.000	119.952	80.011	19.992	103.995	19.981	2.971	0.274
58.500	120.333	80.010	19.993	104.009	19.983	2.787	0.252
60.000	120.751	80.010	19.993	104.015	19.984	2.691	0.291
61.500	121.207	80.009	19.993	104.012	19.982	2.896	0.306
63.000	121.650	80.009	19.994	104.004	19.981	2.994	0.281
64.500	122.144	80.009	19.992	103.944	19.980	3.062	0.334
66.000	122.623	80.010	19.994	104.021	19.980	3.015	0.324
67.500	123.068	80.009	19.993	104.075	19.977	3.286	0.316
69.001	123.553	80.008	19.993	104.020	19.979	3.119	0.327
70.500	124.016	80.008	19.994	104.021	19.978	3.194	0.324
72.000	124.569	80.006	19.994	104.023	19.977	3.250	0.367
73.500	125.102	80.008	19.994	104.022	19.977	3.282	0.361
75.000	125.648	80.007	19.994	104.024	19.973	3.540	0.360
76.500	126.187	80.008	19.994	104.024	19.972	3.622	0.373
78.000	126.722	80.009	19.993	104.028	19.976	3.340	0.358
79.501	127.258	80.007	19.995	104.026	19.973	3.582	0.359
81.000	127.825	80.007	19.995	104.028	19.977	3.280	0.367
82.501	128.383	80.007	19.996	104.027	19.974	3.503	0.355
84.000	129.014	80.006	19.995	104.026	19.975	3.455	0.434
85.500	129.537	80.007	19.994	104.027	19.972	3.624	0.337
87.000	130.149	80.008	19.994	104.029	19.972	3.622	0.411
88.500	130.789	80.009	19.993	104.030	19.973	3.597	0.408
90.000	131.375	80.007	19.994	104.030	19.971	3.708	0.404
91.501	132.019	80.008	19.992	104.033	19.971	3.710	0.416
93.000	132.643	80.009	19.992	104.031	19.972	3.674	0.420
94.501	133.292	80.008	19.992	104.035	19.971	3.743	0.441
96.000	133.966	80.006	19.993	104.033	19.972	3.617	0.463
97.500	134.624	80.007	19.994	104.031	19.973	3.603	0.442
99.001	135.263	80.009	19.993	104.029	19.968	3.953	0.425
100.500	135.924	80.009	19.993	104.035	19.968	3.922	0.435
102.000	136.595	80.009	19.993	104.037	19.969	3.914	0.441
103.500	137.293	80.007	19.993	104.029	19.971	3.736	0.479
105.001	137.968	80.008	19.992	104.025	19.968	3.922	0.449
106.500	138.697	80.010	19.993	104.024	19.969	3.889	0.481
108.000	139.384	80.009	19.994	104.023	19.970	3.809	0.470
109.500	140.069	80.009	19.993	104.024	19.969	3.878	0.466
111.000	140.775	80.010	19.992	104.024	19.969	3.841	0.470
112.500	141.489	80.010	19.994	104.025	19.968	3.924	0.470
114.001	142.210	80.008	19.995	104.026	19.967	3.997	0.468
115.500	142.895	80.011	19.992	104.023	19.965	4.180	0.451
117.000	143.654	80.010	19.992	104.022	19.964	4.237	0.521
118.500	144.411	80.010	19.992	104.022	19.966	4.085	0.492
120.000	145.143	80.011	19.993	104.023	19.966	4.082	0.513
121.500	145.863	80.011	19.993	104.024	19.969	3.863	0.482
123.000	146.645	80.009	19.992	104.023	19.968	3.940	0.523
124.500	147.341	80.010	19.993	104.020	19.967	4.011	0.481
126.000	148.081	80.009	19.994	104.019	19.967	4.050	0.492
127.501	148.870	80.009	19.993	104.018	19.970	3.800	0.517
129.000	149.562	80.010	19.993	104.021	19.968	3.975	0.467
130.500	150.328	80.009	19.993	104.020	19.973	3.575	0.504
132.000	151.076	80.011	19.992	104.018	19.967	4.004	0.507
133.500	151.859	80.012	19.993	104.012	19.971	3.760	0.507
135.000	152.611	80.011	19.992	103.998	19.969	3.885	0.504
136.500	153.370	80.012	19.993	103.997	19.970	3.794	0.522
138.000	154.097	80.012	19.993	104.001	19.970	3.785	0.496
139.500	154.846	80.010	19.992	103.997	19.971	3.752	0.484
141.000	155.618	80.011	19.992	103.997	19.969	3.877	0.511
142.500	156.375	80.011	19.993	104.000	19.973	3.579	0.507
144.000	157.206	80.010	19.993	103.995	19.967	4.044	0.544
145.500	157.913	80.009	19.992	103.994	19.972	3.679	0.478
147.000	158.665	80.008	19.995	103.993	19.970	3.791	0.496
148.500	159.423	80.008	19.993	103.991	19.970	3.783	0.507
150.000	160.190	80.008	19.995	103.989	19.972	3.635	0.495
151.500	160.919	80.008	19.994	103.987	19.970	3.837	0.513
153.000	161.740	80.008	19.993	103.988	19.971	3.695	0.568
154.500	162.481	80.008	19.993	103.988	19.969	3.912	0.488
156.000	163.226	80.007	19.993	103.984	19.968	3.979	0.507
157.500	164.022	80.009	19.994	103.982	19.967	4.008	0.528
159.000	164.793	80.008	19.993	103.986	19.969	3.893	0.536
160.500	165.562	80.008	19.993	103.989	19.970	3.827	0.503
162.000	166.305	80.008	19.993	103.988	19.971	3.693	0.508
163.500	167.073	80.009	19.993	103.985	19.971	3.693	0.518
165.000	167.801	80.009	19.993	103.985	19.971	3.724	0.470
166.500	168.584	80.008	19.993	103.981	19.973	3.532	0.518
168.000	169.306	80.008	19.993	103.981	19.974	3.463	0.486
169.500	170.092	80.009	19.993	103.982	19.974	3.482	0.514
171.000	170.769	80.008	19.995	103.983	19.973	3.597	0.468
172.500	171.591	80.006	19.995	103.982	19.973	3.574	0.520
174.000	172.318	80.008	19.994	103.983	19.972	3.619	0.500
175.500	173.087	80.007	19.995	103.970	19.972	3.680	0.499
177.000	173.870	80.007	19.994	103.968	19.972	3.634	0.520
178.500	174.630	80.009	19.995	103.973	19.975	3.415	0.512
180.000	175.372	80.007	19.995	103.960	19.976	3.369	0.500
181.500	176.148	80.007	19.994	103.962	19.977	3.282	0.506
183.000	176.869	80.008	19.995	103.967	19.976	3.365	0.468
184.500	177.570	80.008	19.994	103.963	19.971	3.721	0.487
186.000	178.336	80.008	19.994	103.955	19.973	3.531	0.510
187.500	179.026	80.007	19.993	103.954	19.973	3.550	0.469
189.000	179.784	80.006	19.994	103.960	19.976	3.346	0.508
190.500	180.551	80.007	19.994	103.965	19.973	3.581	0.488
192.000	181.347	80.008	19.993	103.958	19.975	3.404	0.550
193.500	182.070	80.011	19.996	103.964	19.974	3.504	0.496
195.000	182.822	80.011	19.994	103.961	19.971	3.709	0.514
196.500	183.567	80.010	19.994	103.949	19.971	3.715	0.510
198.000	184.242	80.008	19.993	103.949	19.972	3.646	0.439
199.500	185.047	80.009	19.993	103.952	19.971	3.690	0.523
201.000	185.742	80.009	19.994	103.950	19.974	3.521	0.502
202.500	186.542	80.010	19.991	103.945	19.972	3.680	0.534
204.000	187.285	80.009	19.994	103.946	19.972	3.671	0.473
205.500	188.032	80.007	19.994	103.949	19.971	3.715	0.502
207.000	188.721	80.010	19.993	103.954	19.972	3.673	0.456
208.500	189.491	80.009	19.993	103.952	19.975	3.394	0.518
210.000	190.236	80.010	19.992	103.950	19.974	3.515	0.492
211.500	190.958	80.010	19.993	103.947	19.973	3.536	0.477
213.000	191.684	80.010	19.993	103.950	19.976	3.346	0.472
214.501	192.411	80.011	19.993	103.952	19.978	3.202	0.474
216.000	193.139	80.010	19.993	103.948	19.976	3.348	0.500
217.500	193.906	80.011	19.993	103.948	19.974	3.515	0.517
219.000	194.593	80.008	19.992	103.948	19.977	3.287	0.461
220.500	195.375	80.010	19.993	103.945	19.979	3.133	0.500
222.000	196.125	80.010	19.992	103.945	19.984	2.706	0.489
223.500	196.846	80.010	19.993	103.948	19.982	2.873	0.465
225.000	197.608	80.010	19.993	103.946	19.982	2.915	0.501
226.500	198.363	80.009	19.993	103.945	19.981	2.927	0.502
228.000	199.097	80.009	19.991	103.948	19.979	3.137	0.526
229.500	199.844	80.008	19.993	103.948	19.983	2.835	0.468
231.000	200.568	80.007	19.992	103.948	19.981	2.993	0.482
232.500	201.313	80.008	19.994	103.948	19.977	3.247	0.500
234.000	202.049	80.008	19.992	103.949	19.980	3.020	0.499
235.500	202.826	80.008	19.992	103.911	19.977	3.262	0.521
237.000	203.569	80.009	19.994	103.870	19.982	2.916	0.509
238.500	204.259	80.008	19.993	103.910	19.979	3.087	0.467
240.000	205.039	80.010	19.993	103.939	19.981	2.939	0.526
241.500	205.786	80.007	19.994	103.942	19.979	3.133	0.498
243.000	206.511	80.008	19.994	103.944	19.982	2.866	0.486
244.500	207.246	80.008	19.994	104.002	19.984	2.697	0.529
246.000	207.993	80.008	19.994	103.968	19.983	2.772	0.493
247.500	208.746	80.004	19.994	103.943	19.981	2.931	0.532
249.000	209.465	80.009	19.993	103.932	19.980	3.046	0.469
250.500	210.213	80.007	19.995	103.935	19.982	2.874	0.502
252.000	211.000	80.009	19.993	103.943	19.980	3.026	0.522
253.500	211.705	80.009	19.994	103.943	19.982	2.901	0.475
255.000	212.447	80.008	19.995	103.944	19.983	2.841	0.484
256.500	213.206	80.007	19.993	103.940	19.981	2.970	0.496
258.000	213.931	80.008	19.994	103.932	19.980	3.047	0.485
259.500	214.678	80.006	19.994	103.939	19.982	2.874	0.479
261.000	215.452	80.008	19.993	103.943	19.978	3.179	0.514
262.500	216.161	80.008	19.994	103.933	19.978	3.223	0.465
264.000	216.894	80.006	19.994	103.932	19.980	3.068	0.498
265.500	217.618	80.007	19.995	103.935	19.977	3.231	0.480
267.000	218.377	80.007	19.995	103.933	19.976	3.377	0.498
268.500	219.139	80.008	19.994	103.920	19.978	3.202	0.509
270.000	219.860	80.006	19.994	103.920	19.976	3.372	0.469
271.500	220.635	80.008	19.995	103.934	19.978	3.218	0.513
273.000	221.358	80.008	19.995	103.941	19.979	3.141	0.460
274.500	222.086	80.008	19.994	103.937	19.979	3.072	0.468
276.000	222.872	80.008	19.995	103.934	19.977	3.253	0.497
277.500	223.658	80.010	19.994	103.942	19.980	3.018	0.531
279.000	224.387	80.011	19.995	103.940	19.980	3.064	0.488
280.500	225.125	80.009	19.994	103.923	19.979	3.130	0.488
282.000	225.917	80.008	19.994	103.923	19.980	3.032	0.528
283.500	226.622	80.008	19.994	103.922	19.983	2.822	0.500
285.000	227.385	80.008	19.994	103.917	19.979	3.072	0.508
286.500	228.143	80.008	19.994	103.927	19.981	2.974	0.523
288.001	228.950	80.007	19.994	103.921	19.979	3.116	0.517
289.500	229.721	80.007	19.993	103.928	19.983	2.808	0.512
291.000	230.502	80.007	19.992	103.922	19.980	2.995	0.511
292.500	231.277	80.009	19.994	103.921	19.981	2.948	0.557
294.000	232.024	80.008	19.993	103.927	19.980	3.021	0.517
295.500	232.772	80.008	19.993	103.917	19.981	2.951	0.492
297.000	233.550	80.010	19.995	103.912	19.978	3.170	0.487
298.500	234.347	80.009	19.993	103.871	19.978	3.165	0.536
300.000	235.067	80.009	19.992	103.850	19.978	3.153	0.495
301.500	235.831	80.009	19.993	103.928	19.978	3.188	0.486
303.000	236.598	80.011	19.993	103.899	19.978	3.174	0.514
304.500	237.368	80.009	19.994	103.905	19.979	3.136	0.520
306.000	238.136	80.011	19.993	103.976	19.984	2.732	0.516
307.500	238.868	80.009	19.994	103.933	19.982	2.874	0.483
309.000	239.590	80.011	19.994	103.905	19.982	2.909	0.495
310.500	240.378	80.009	19.993	103.905	19.986	2.580	0.512
312.000	241.085	80.008	19.995	103.906	19.981	2.928	0.471
313.500	241.807	80.008	19.994	103.906	19.984	2.726	0.513
315.000	242.602	80.008	19.994	103.905	19.987	2.534	0.531
316.500	243.321	80.007	19.994	103.907	19.984	2.757	0.486
318.000	244.116	80.007	19.993	103.908	19.984	2.757	0.567
319.500	244.851	80.008	19.993	103.908	19.982	2.870	0.479
321.000	245.583	80.009	19.995	103.907	19.982	2.856	0.481
322.500	246.327	80.008	19.993	103.907	19.982	2.893	0.498
324.001	247.126	80.009	19.993	103.906	19.981	2.982	0.533
325.500	247.792	80.009	19.993	103.907	19.981	2.982	0.457
327.000	248.559	80.008	19.993	103.911	19.981	2.992	0.511
328.500	249.315	80.010	19.992	103.859	19.978	3.184	0.528
330.000	250.104	80.008	19.994	103.832	19.979	3.136	0.513
331.500	250.844	80.009	19.992	103.943	19.983	2.817	0.489
333.000	251.596	80.010	19.993	103.951	19.981	2.917	0.518
334.500	252.340	80.008	19.994	103.906	19.984	2.744	0.518
336.000	253.090	80.008	19.993	103.907	19.985	2.640	0.504
337.500	253.857	80.009	19.993	103.906	19.984	2.707	0.513
339.000	254.544	80.008	19.994	103.901	19.980	3.003	0.477
340.500	255.289	80.007	19.993	103.904	19.984	2.740	0.494
342.000	256.054	80.007	19.992	103.907	19.982	2.863	0.506
343.500	256.769	80.008	19.992	103.902	19.981	2.957	0.488
345.000	257.506	80.008	19.993	103.899	19.984	2.692	0.465
346.500	258.277	80.008	19.994	103.896	19.982	2.878	0.516
348.000	258.986	80.008	19.994	103.895	19.984	2.736	0.473
349.500	259.714	80.007	19.994	103.900	19.987	2.534	0.480
351.000	260.471	80.007	19.994	103.903	19.986	2.599	0.475
352.500	261.167	80.007	19.994	103.900	19.986	2.574	0.469
354.000	261.904	80.008	19.993	103.900	19.984	2.708	0.508
355.500	262.622	80.008	19.994	103.896	19.986	2.609	0.447
357.000	263.371	80.009	19.994	103.903	19.986	2.604	0.481
358.500	264.096	80.008	19.993	103.889	19.983	2.800	0.485
360.000	264.852	80.011	19.993	103.892	19.983	2.819	0.509
361.500	265.580	80.009	19.994	103.848	19.984	2.700	0.476
363.000	266.328	80.009	19.993	103.822	19.981	2.952	0.510
364.500	267.074	80.009	19.993	103.939	19.984	2.717	0.482
366.000	267.851	80.010	19.995	103.953	19.987	2.492	0.510
367.500	268.543	80.010	19.995	103.889	19.985	2.648	0.465
369.000	269.295	80.009	19.995	103.886	19.983	2.777	0.476
370.500	270.023	80.008	19.993	103.883	19.987	2.504	0.476
372.000	270.808	80.009	19.995	103.896	19.981	2.944	0.490
373.500	271.541	80.008	19.993	103.898	19.982	2.863	0.486
375.000	272.305	80.007	19.994	103.895	19.981	2.935	0.495
376.500	273.086	80.008	19.994	103.895	19.983	2.835	0.520
378.000	273.825	80.008	19.993	103.884	19.981	2.931	0.493
379.501	274.602	80.009	19.995	103.880	19.982	2.892	0.529
381.000	275.321	80.009	19.992	103.885	19.982	2.880	0.490
382.500	276.082	80.010	19.996	103.889	19.980	3.004	0.489
384.001	276.846	80.011	19.995	103.885	19.981	2.954	0.495
385.500	277.533	80.012	19.994	103.881	19.980	3.062	0.453
387.000	278.327	80.011	19.994	103.881	19.979	3.116	0.524
388.500	279.060	80.011	19.993	103.880	19.983	2.823	0.495
390.000	279.811	80.011	19.993	103.887	19.983	2.838	0.523
391.500	280.551	80.011	19.993	103.899	19.981	2.933	0.486
393.000	281.328	80.009	19.992	103.887	19.984	2.715	0.516
394.500	282.034	80.010	19.993	103.887	19.980	3.012	0.475
396.000	282.805	80.008	19.992	103.887	19.981	2.923	0.537
397.500	283.589	80.009	19.994	103.878	19.981	2.944	0.523
399.000	284.285	80.009	19.992	103.881	19.984	2.700	0.460
400.500	285.051	80.008	19.995	103.891	19.984	2.737	0.513
402.000	285.809	80.008	19.992	103.885	19.982	2.850	0.498
403.500	286.533	80.008	19.993	103.894	19.981	2.948	0.457
405.000	287.310	80.008	19.993	103.887	19.982	2.881	0.532
406.500	288.027	80.008	19.994	103.874	19.980	3.023	0.488
408.000	288.795	80.008	19.994	103.882	19.980	3.069	0.504
409.500	289.570	80.008	19.993	103.894	19.978	3.156	0.529
411.000	290.327	80.007	19.994	103.883	19.981	2.956	0.527
412.500	291.095	80.009	19.995	103.881	19.980	3.027	0.503
414.000	291.818	80.008	19.993	103.886	19.980	3.054	0.495
415.500	292.605	80.008	19.993	103.880	19.983	2.794	0.517
417.000	293.370	80.011	19.994	103.884	19.984	2.715	0.520
418.500	294.091	80.009	19.994	103.877	19.980	3.038	0.491
420.000	294.834	80.008	19.992	103.881	19.978	3.217	0.517
421.500	295.597	80.009	19.991	103.883	19.980	3.067	0.495
423.000	296.349	80.009	19.993	103.886	19.978	3.169	0.520
424.500	297.084	80.009	19.991	103.877	19.975	3.418	0.485
426.000	297.872	80.008	19.993	103.888	19.976	3.362	0.538
427.500	298.568	80.009	19.993	103.892	19.974	3.496	0.473
429.000	299.337	80.010	19.993	103.886	19.974	3.493	0.525
430.500	300.087	80.007	19.993	103.880	19.974	3.498	0.517
432.000	300.807	80.007	19.995	103.881	19.982	2.850	0.473
433.500	301.599	80.008	19.992	103.882	19.975	3.379	0.518
435.000	302.325	80.009	19.992	103.871	19.978	3.220	0.491
436.500	303.049	80.009	19.997	103.869	19.976	3.341	0.476
438.000	303.793	80.009	19.995	103.878	19.973	3.600	0.482
439.500	304.551	80.009	19.994	103.871	19.975	3.417	0.494
441.000	305.287	80.009	19.994	103.874	19.975	3.394	0.495
442.500	306.066	80.010	19.992	103.889	19.977	3.292	0.522
444.000	306.835	80.009	19.994	103.882	19.979	3.135	0.516
445.500	307.629	80.012	19.993	103.873	19.973	3.575	0.522
447.000	308.344	80.011	19.993	103.873	19.975	3.424	0.482
448.500	309.092	80.009	19.996	103.875	19.973	3.552	0.526
450.000	309.852	80.008	19.992	103.876	19.975	3.450	0.490
451.500	310.581	80.009	19.994	103.884	19.973	3.595	0.486
453.000	311.355	80.009	19.993	103.885	19.975	3.437	0.546
454.500	312.182	80.009	19.995	103.877	19.969	3.862	0.530
456.000	312.817	80.009	19.993	103.869	19.973	3.581	0.455
457.500	313.805	80.009	19.993	103.868	19.972	3.672	0.520
459.000	314.300	80.009	19.995	103.867	19.970	3.760	0.167
460.500	314.985	80.010	19.993	103.871	19.971	3.722	0.468
462.000	316.024	80.011	19.996	103.870	19.971	3.750	0.675
463.501	316.746	80.010	19.994	103.868	19.971	3.704	0.487
465.000	317.467	80.011	19.995	103.869	19.972	3.654	0.447
466.500	318.200	80.010	19.994	103.869	19.973	3.595	0.546
468.000	318.959	80.010	19.993	103.869	19.966	4.068	0.480
469.500	319.693	80.008	19.994	103.868	19.971	3.697	0.485
471.000	320.449	80.010	19.992	103.871	19.970	3.806	0.492
472.500	321.175	80.010	19.996	103.873	19.968	3.925	0.501
474.000	321.942	80.010	19.993	103.872	19.964	4.250	0.502
475.500	322.684	80.009	19.994	103.870	19.968	3.954	0.508
477.000	323.427	80.009	19.995	103.872	19.967	4.062	0.480
478.500	324.209	80.009	19.993	103.870	19.965	4.214	0.496
480.001	324.930	80.009	19.993	103.869	19.968	3.943	0.458
481.500	325.648	80.008	19.995	103.869	19.965	4.204	0.440
483.000	326.458	80.008	19.993	103.870	19.968	3.943	0.532
484.500	327.212	80.009	19.994	103.872	19.961	4.481	0.514
486.000	327.899	80.008	19.993	103.873	19.963	4.312	0.480
487.500	328.630	80.007	19.994	103.870	19.963	4.341	0.504
489.000	329.401	80.008	19.993	103.874	19.961	4.474	0.533
490.500	330.129	80.008	19.993	103.875	19.964	4.268	0.488
492.000	330.849	80.008	19.993	103.871	19.960	4.576	0.481
493.500	331.618	80.008	19.993	103.872	19.960	4.552	0.523
495.000	332.369	80.009	19.994	103.872	19.960	4.579	0.492
496.500	333.108	80.011	19.991	103.871	19.960	4.562	0.448
498.000	333.840	80.009	19.993	103.870	19.959	4.645	0.485
499.500	334.577	80.009	19.993	103.870	19.960	4.570	0.487
501.000	335.360	80.009	19.993	103.869	19.961	4.491	0.516
502.500	336.084	80.009	19.994	103.868	19.958	4.745	0.482
504.000	336.820	80.009	19.993	103.871	19.954	5.001	0.482
505.500	337.578	80.010	19.994	103.870	19.955	4.918	0.506
507.000	338.330	80.008	19.994	103.870	19.954	5.028	0.498
508.500	339.053	80.008	19.993	103.868	19.954	5.014	0.510
510.000	339.827	80.008	19.993	103.871	19.950	5.318	0.504
511.500	340.594	80.008	19.995	103.872	19.953	5.089	0.508
513.000	341.366	80.009	19.993	103.871	19.953	5.064	0.493
514.500	342.096	80.009	19.993	103.868	19.949	5.412	0.463
516.000	342.806	80.009	19.994	103.870	19.948	5.447	0.463
517.500	343.559	80.010	19.994	103.871	19.945	5.681	0.498
519.000	344.344	80.009	19.994	103.868	19.945	5.683	0.503
520.500	345.084	80.009	19.993	103.870	19.945	5.672	0.492
522.000	345.850	80.010	19.994	103.869	19.942	5.922	0.539
523.500	346.605	80.010	19.994	103.869	19.943	5.845	0.520
525.000	347.381	80.011	19.994	103.875	19.940	6.101	0.532
526.500	348.111	80.011	19.993	103.869	19.936	6.385	0.499
528.001	348.939	80.011	19.994	103.871	19.937	6.354	0.563
529.500	349.653	80.009	19.994	103.870	19.938	6.222	0.487
531.000	350.412	80.010	19.993	103.872	19.935	6.474	0.476
532.500	351.186	80.009	19.994	103.878	19.933	6.627	0.517
534.000	351.976	80.010	19.994	103.874	19.934	6.560	0.531
535.500	352.724	80.010	19.994	103.871	19.929	6.897	0.497
537.000	353.512	80.010	19.993	103.874	19.927	7.083	0.503
538.500	354.306	80.009	19.993	103.872	19.929	6.948	0.528
540.000	355.038	80.008	19.994	103.874	19.926	7.196	0.498
541.500	355.807	80.009	19.994	103.870	19.924	7.333	0.519
543.000	356.614	80.009	19.994	103.872	19.923	7.379	0.518
544.500	357.351	80.009	19.993	103.876	19.921	7.565	0.488
546.000	358.115	80.010	19.994	103.874	19.917	7.812	0.525
547.500	358.908	80.010	19.993	103.876	19.914	8.061	0.505
549.000	359.678	80.011	19.993	103.883	19.914	8.082	0.493
550.500	360.419	80.012	19.992	103.880	19.914	8.094	0.490
552.000	361.179	80.011	19.993	103.878	19.912	8.229	0.521
553.500	361.962	80.012	19.993	103.873	19.910	8.415	0.527
555.000	362.742	80.011	19.992	103.879	19.905	8.736	0.517
556.501	363.552	80.010	19.992	103.831	19.903	8.907	0.537
558.000	364.252	80.010	19.993	103.845	19.899	9.186	0.479
559.500	365.051	80.010	19.993	103.940	19.902	9.030	0.532
561.000	365.794	80.008	19.994	103.910	19.897	9.410	0.487
562.500	366.593	80.008	19.993	103.876	19.891	9.801	0.533
564.000	367.354	80.008	19.993	103.883	19.888	10.063	0.507
565.500	368.148	80.007	19.994	103.887	19.888	10.037	0.539
567.000	368.935	80.008	19.994	103.891	19.883	10.476	0.525
568.500	369.695	80.007	19.995	103.888	19.880	10.681	0.502
570.000	370.488	80.008	19.994	103.876	19.874	11.098	0.532
571.500	371.243	80.007	19.994	103.875	19.872	11.275	0.514
573.000	372.000	80.008	19.994	103.895	19.871	11.398	0.514
574.500	372.780	80.008	19.993	103.891	19.864	11.904	0.497
576.000	373.549	80.007	19.993	103.892	19.862	12.026	0.517
577.500	374.331	80.009	19.993	103.895	19.859	12.303	0.550
579.000	375.161	80.008	19.994	103.895	19.850	12.987	0.538
580.500	375.928	80.009	19.992	103.902	19.845	13.330	0.525
582.000	376.696	80.010	19.992	103.904	19.840	13.774	0.512
583.500	377.479	80.009	19.993	103.904	19.835	14.154	0.510
585.000	378.277	80.009	19.993	103.902	19.830	14.493	0.529
586.500	379.054	80.009	19.992	103.905	19.823	15.005	0.542
588.001	379.880	80.009	19.993	103.905	19.821	15.208	0.527
589.500	380.688	80.010	19.993	103.900	19.820	15.305	0.536
591.000	381.498	80.009	19.992	103.900	19.813	15.779	0.518
592.500	382.260	80.009	19.994	103.904	19.811	15.949	0.502
594.000	383.039	80.009	19.993	103.911	19.809	16.093	0.553
595.500	383.867	80.010	19.993	103.909	19.805	16.424	0.536
597.000	384.590	80.008	19.993	103.914	19.798	16.988	0.481
598.500	385.373	80.008	19.994	103.922	19.796	17.088	0.517
600.000	386.161	80.009	19.993	103.918	19.791	17.526	0.531
601.500	386.949	80.008	19.993	103.919	19.783	18.076	0.530
603.000	387.782	80.008	19.993	103.918	19.778	18.486	0.576
604.500	388.572	80.009	19.994	103.916	19.769	19.174	0.533
606.000	389.364	80.010	19.993	103.927	19.762	19.739	0.537
607.500	390.115	80.009	19.993	103.926	19.753	20.382	0.484
609.000	390.866	80.011	19.993	103.919	19.741	21.305	0.502
610.500	391.680	80.010	19.992	103.934	19.731	22.104	0.528
612.000	392.475	80.011	19.993	103.947	19.723	22.701	0.539
613.500	393.233	80.011	19.993	103.948	19.715	23.317	0.501
615.000	394.032	80.011	19.993	103.944	19.708	23.845	0.521
616.500	394.811	80.011	19.994	103.946	19.695	24.813	0.521
618.000	395.516	80.010	19.992	103.948	19.682	25.824	0.478
619.500	396.293	80.009	19.993	103.953	19.670	26.750	0.508
621.000	397.030	80.011	19.993	103.974	19.656	27.823	0.478
622.500	397.740	80.009	19.992	103.984	19.643	28.863	0.465
624.000	398.461	80.009	19.992	103.986	19.625	30.191	0.482
625.500	399.251	80.009	19.994	103.987	19.611	31.311	0.513
627.000	399.974	80.009	19.993	103.990	19.592	32.755	0.483
628.500	400.703	80.009	19.993	103.998	19.573	34.206	0.506
630.000	401.426	80.011	19.993	104.005	19.555	35.550	0.516
631.500	402.221	80.010	19.993	104.008	19.534	37.190	0.512
633.000	402.947	80.010	19.993	104.016	19.513	38.767	0.509
634.500	403.703	80.011	19.993	104.033	19.490	40.493	0.490
636.000	404.437	80.011	19.994	104.025	19.454	43.272	0.485
637.500	405.230	80.012	19.994	104.039	19.407	46.964	0.509
639.000	405.984	80.011	19.993	104.088	19.364	50.252	0.505
640.500	406.756	80.011	19.992	104.077	19.340	52.108	0.527
642.000	407.478	80.012	19.993	104.018	19.328	52.981	0.477
643.500	408.270	80.011	19.994	103.974	19.316	53.930	0.519
645.000	409.010	80.010	19.994	103.963	19.307	54.587	0.501
646.500	409.832	80.009	19.994	103.967	19.295	55.547	0.553
648.000	410.557	80.010	19.993	104.056	19.278	56.871	0.470
649.500	411.325	80.009	19.992	104.155	19.261	58.132	0.517
651.000	412.112	80.009	19.992	104.176	19.241	59.697	0.524
652.500	412.819	80.009	19.994	104.160	19.215	61.725	0.447
654.000	413.583	80.010	19.993	104.144	19.188	63.780	0.519
655.500	414.317	80.009	19.994	104.152	19.161	65.832	0.500
657.000	415.069	80.010	19.994	104.151	19.132	68.077	0.504
658.500	415.792	80.011	19.995	104.151	19.101	70.465	0.477
660.000	416.561	80.010	19.994	104.167	19.064	73.295	0.492
661.500	417.316	80.010	19.995	104.177	19.029	76.011	0.487
663.000	418.037	80.009	19.994	104.193	18.985	79.379	0.478
664.500	418.793	80.008	19.995	104.212	18.945	82.510	0.511
666.000	419.535	80.008	19.995	104.229	18.896	86.294	0.496
667.500	420.289	80.010	19.995	104.242	18.859	89.167	0.506
669.000	421.036	80.009	19.995	104.240	18.816	92.442	0.495
670.500	421.832	80.009	19.994	104.235	18.780	95.245	0.526
672.000	422.556	80.010	19.993	104.250	18.742	98.196	0.473
673.500	423.339	80.009	19.994	104.261	18.701	101.265	0.517
675.000	424.048	80.009	19.993	104.291	18.663	104.215	0.477
676.500	424.816	80.009	19.993	104.335	18.613	108.036	0.507
678.000	425.575	80.007	19.993	104.365	18.567	111.653	0.517
679.500	426.324	80.008	19.994	104.383	18.513	115.818	0.472
681.000	427.085	80.007	19.993	104.396	18.454	120.409	0.506
682.500	427.811	80.007	19.993	104.425	18.409	123.886	0.470
684.000	428.580	80.009	19.992	104.408	18.367	127.066	0.540
685.500	429.311	80.009	19.994	104.383	18.323	130.460	0.474
687.001	430.074	80.008	19.993	104.401	18.284	133.504	0.503
688.500	430.841	80.009	19.992	104.429	18.245	136.509	0.510
690.000	431.601	80.008	19.993	104.455	18.205	139.615	0.480
691.500	432.345	80.010	19.994	104.483	18.170	142.305	0.508
693.000	433.143	80.011	19.993	104.506	18.137	144.845	0.524
694.500	433.914	80.011	19.993	104.499	18.104	147.426	0.502
696.000	434.694	80.011	19.993	104.510	18.073	149.875	0.511
697.500	435.425	80.011	19.994	104.528	18.041	152.321	0.499
699.000	436.208	80.011	19.994	104.549	18.012	154.585	0.520
700.500	436.966	80.011	19.993	104.566	17.984	156.688	0.499
702.000	437.706	80.010	19.993	104.568	17.957	158.679	0.473
703.500	438.472	80.009	19.993	104.567	17.931	160.794	0.523
705.000	439.175	80.009	19.993	104.575	17.906	162.716	0.463
706.500	439.982	80.010	19.994	104.596	17.878	164.900	0.545
708.000	440.736	80.010	19.993	104.609	17.856	166.680	0.511
709.500	441.474	80.009	19.993	104.615	17.838	167.959	0.527
711.000	442.270	80.011	19.992	104.610	17.817	169.579	0.513
712.500	442.982	80.011	19.993	104.579	17.800	170.835	0.468
714.000	443.777	80.011	19.992	104.600	17.790	171.618	0.532
715.500	444.519	80.012	19.992	104.615	17.782	172.223	0.492
717.000	445.270	80.011	19.994	104.616	17.787	171.818	0.506
718.500	446.026	80.012	19.993	104.683	17.787	171.849	0.497
720.000	446.729	80.012	19.993	104.674	17.799	170.901	0.475
721.500	447.524	80.012	19.992	104.625	17.817	169.483	0.510
723.000	448.290	80.012	19.993	104.609	17.833	168.219	0.516
724.500	449.018	80.011	19.993	104.607	17.862	165.914	0.474
726.000	449.791	80.011	19.993	104.607	17.892	163.574	0.488
727.500	450.533	80.010	19.993	104.605	17.929	160.745	0.496
729.000	451.329	80.007	19.994	104.587	17.976	157.063	0.486
730.500	452.078	80.009	19.994	104.567	18.023	153.405	0.494
732.000	452.797	80.007	19.993	104.557	18.075	149.402	0.473
733.500	453.580	80.009	19.994	104.532	18.133	144.929	0.532
735.000	454.331	80.008	19.994	104.509	18.194	140.156	0.503
736.500	455.070	80.008	19.994	104.494	18.258	135.235	0.497
738.000	455.866	80.008	19.993	104.474	18.325	130.073	0.519
739.500	456.602	80.008	19.992	104.449	18.393	124.816	0.507
741.000	457.378	80.009	19.993	104.425	18.470	118.896	0.513
742.500	458.160	80.009	19.994	104.413	18.555	112.374	0.529
744.000	458.960	80.009	19.993	104.381	18.639	105.865	0.512
745.500	459.743	80.009	19.993	104.345	18.724	99.299	0.518
747.000	460.488	80.009	19.993	104.325	18.807	92.969	0.494
748.500	461.223	80.009	19.992	104.304	18.888	86.751	0.502
750.001	462.008	80.008	19.994	104.297	18.966	80.760	0.513
751.500	462.763	80.009	19.993	104.280	19.038	75.178	0.496
753.000	463.517	80.008	19.994	104.260	19.109	69.780	0.499
754.500	464.294	80.008	19.993	104.235	19.174	64.721	0.524
756.000	465.014	80.007	19.994	104.200	19.233	60.230	0.492
757.500	465.818	80.008	19.994	104.182	19.290	55.858	0.547
759.000	466.534	80.007	19.994	104.165	19.342	51.852	0.490
760.501	467.302	80.006	19.995	104.137	19.387	48.456	0.523
762.000	468.065	80.006	19.994	104.114	19.431	45.087	0.506
763.500	468.843	80.006	19.994	104.099	19.468	42.252	0.526
765.000	469.614	80.007	19.995	104.076	19.503	39.522	0.522
766.500	470.407	80.006	19.995	104.063	19.536	36.993	0.531
768.000	471.128	80.008	19.995	104.055	19.569	34.445	0.472
769.500	471.956	80.008	19.994	104.043	19.595	32.524	0.535
771.000	472.706	80.008	19.993	104.025	19.623	30.320	0.506
772.500	473.459	80.008	19.995	104.021	19.643	28.772	0.511
774.000	474.283	80.010	19.994	104.018	19.664	27.235	0.553
775.500	475.092	80.009	19.993	104.014	19.684	25.674	0.521
777.000	475.884	80.011	19.993	104.000	19.704	24.125	0.510
778.500	476.613	80.010	19.993	103.982	19.720	22.906	0.467
780.000	477.395	80.011	19.993	103.979	19.738	21.513	0.504
781.500	478.182	80.008	19.994	103.964	19.754	20.339	0.524
783.000	478.982	80.011	19.994	103.948	19.769	19.154	0.537
784.500	479.771	80.011	19.993	103.944	19.782	18.183	0.533
786.000	480.525	80.009	19.994	103.942	19.794	17.218	0.516
787.500	481.355	80.009	19.993	103.937	19.809	16.116	0.536
789.000	482.117	80.011	19.993	103.933	19.819	15.319	0.510
790.500	482.920	80.010	19.993	103.921	19.833	14.308	0.545
792.000	483.669	80.011	19.994	103.911	19.844	13.432	0.506
793.500	484.452	80.011	19.995	103.907	19.855	12.613	0.517
795.000	485.272	80.010	19.993	103.904	19.862	12.017	0.538
796.500	486.038	80.011	19.993	103.903	19.869	11.486	0.510
798.000	486.814	80.011	19.993	103.903	19.880	10.667	0.510
799.500	487.619	80.011	19.992	103.900	19.887	10.152	0.541
801.000	488.399	80.009	19.993	103.898	19.895	9.507	0.529
802.500	489.162	80.012	19.993	103.878	19.902	8.990	0.510
804.000	489.946	80.011	19.993	103.872	19.903	8.890	0.526
805.500	490.724	80.011	19.994	103.871	19.911	8.334	0.516
807.000	491.532	80.013	19.992	103.869	19.918	7.782	0.523
808.501	492.246	80.011	19.992	103.868	19.922	7.496	0.498
810.000	493.044	80.010	19.993	103.867	19.919	7.712	0.524
811.500	493.814	80.011	19.994	103.867	19.928	7.025	0.513
813.000	494.630	80.010	19.993	103.868	19.931	6.777	0.557
814.500	495.393	80.009	19.993	103.868	19.935	6.447	0.503
816.000	496.157	80.009	19.993	103.862	19.934	6.535	0.507
817.500	496.928	80.008	19.992	103.860	19.936	6.360	0.519
819.000	497.710	80.009	19.993	103.865	19.939	6.143	0.533
820.500	498.472	80.010	19.992	103.856	19.938	6.241	0.541
822.000	499.212	80.007	19.992	103.851	19.945	5.729	0.495
823.500	499.950	80.010	19.993	103.847	19.943	5.872	0.484
825.000	500.745	80.010	19.995	103.837	19.943	5.872	0.516
826.500	501.538	80.010	19.993	103.837	19.948	5.510	0.523
828.000	502.291	80.012	19.994	103.835	19.948	5.453	0.489
829.500	503.016	80.009	19.993	103.839	19.950	5.328	0.491
831.000	503.816	80.009	19.994	103.837	19.951	5.229	0.520
832.500	504.552	80.010	19.994	103.845	19.949	5.435	0.489
834.000	505.342	80.009	19.994	103.841	19.953	5.095	0.516
835.500	506.139	80.011	19.994	103.829	19.954	5.010	0.528
837.000	506.877	80.011	19.994	103.828	19.955	4.974	0.504
838.500	507.669	80.010	19.994	103.827	19.957	4.814	0.541
840.000	508.436	80.010	19.994	103.827	19.956	4.893	0.511
841.500	509.238	80.008	19.994	103.829	19.956	4.877	0.534
843.000	509.984	80.010	19.995	103.830	19.960	4.575	0.479
844.500	510.765	80.009	19.995	103.828	19.956	4.862	0.518
846.000	511.544	80.008	19.994	103.832	19.957	4.770	0.517
847.500	512.306	80.008	19.994	103.831	19.954	5.033	0.497
849.000	513.046	80.008	19.994	103.829	19.954	5.054	0.482
850.500	513.862	80.008	19.994	103.830	19.953	5.058	0.539
852.000	514.677	80.010	19.993	103.828	19.956	4.847	0.536
853.500	515.443	80.010	19.994	103.827	19.957	4.754	0.480
855.000	516.197	80.008	19.993	103.827	19.958	4.685	0.497
856.500	517.002	80.011	19.995	103.822	19.957	4.818	0.541
858.000	517.724	80.011	19.994	103.823	19.955	4.910	0.510
859.500	518.505	80.010	19.994	103.826	19.956	4.885	0.515
861.000	519.277	80.011	19.994	103.826	19.952	5.162	0.514
862.500	520.061	80.010	19.995	103.825	19.956	4.845	0.518
864.001	520.829	80.011	19.994	103.823	19.952	5.133	0.502
865.500	521.619	80.009	19.994	103.826	19.954	5.049	0.526
867.000	522.408	80.009	19.994	103.829	19.951	5.239	0.508
868.500	523.165	80.009	19.993	103.827	19.956	4.897	0.506
870.000	523.932	80.011	19.994	103.827	19.952	5.174	0.516
871.500	524.711	80.010	19.993	103.829	19.955	4.950	0.527
873.000	525.513	80.009	19.993	103.829	19.951	5.249	0.527
874.500	526.230	80.011	19.993	103.830	19.954	5.008	0.488
876.000	526.986	80.011	19.992	103.828	19.953	5.083	0.491
877.500	527.758	80.011	19.993	103.827	19.954	4.993	0.508
879.000	528.519	80.011	19.993	103.828	19.955	4.918	0.502
880.500	529.281	80.012	19.994	103.829	19.955	4.904	0.499
882.000	530.058	80.010	19.993	103.830	19.958	4.700	0.499
883.500	530.786	80.012	19.992	103.828	19.958	4.693	0.482
885.000	531.560	80.011	19.992	103.828	19.957	4.785	0.502
886.500	532.330	80.011	19.992	103.829	19.954	4.997	0.517
888.000	533.081	80.010	19.993	103.829	19.957	4.781	0.514
889.500	533.834	80.011	19.993	103.829	19.954	4.983	0.504
891.000	534.581	80.010	19.992	103.828	19.953	5.091	0.501
892.500	535.387	80.011	19.993	103.829	19.952	5.161	0.526
894.000	536.136	80.011	19.993	103.827	19.955	4.948	0.499
895.500	536.875	80.010	19.993	103.827	19.954	5.035	0.514
897.000	537.669	80.012	19.993	103.827	19.954	5.028	0.534
898.500	538.415	80.009	19.994	103.825	19.952	5.172	0.501
900.001	539.167	80.011	19.992	103.825	19.952	5.162	0.493
901.500	539.926	80.010	19.994	103.827	19.951	5.262	0.490
903.000	540.664	80.010	19.994	103.818	19.954	5.034	0.475
904.500	541.401	80.009	19.993	103.805	19.954	5.003	0.489
906.000	542.169	80.011	19.992	103.818	19.950	5.324	0.492
907.500	542.903	80.011	19.993	103.826	19.955	4.964	0.503
909.000	543.719	80.011	19.993	103.820	19.952	5.170	0.539
910.500	544.432	80.010	19.992	103.823	19.953	5.067	0.487
912.000	545.167	80.011	19.992	103.827	19.953	5.074	0.480
913.500	545.905	80.010	19.992	103.822	19.952	5.159	0.495
915.000	546.680	80.009	19.993	103.819	19.951	5.220	0.525
916.500	547.466	80.011	19.993	103.827	19.953	5.085	0.527
918.000	548.242	80.011	19.993	103.826	19.950	5.301	0.539
919.500	548.992	80.010	19.994	103.820	19.952	5.176	0.491
921.000	549.775	80.008	19.993	103.815	19.950	5.308	0.517
922.500	550.548	80.009	19.994	103.816	19.951	5.247	0.507
924.000	551.339	80.009	19.993	103.823	19.952	5.156	0.533
925.500	552.059	80.009	19.993	103.820	19.947	5.514	0.484
927.000	552.881	80.010	19.993	103.825	19.949	5.408	0.550
928.500	553.660	80.009	19.993	103.823	19.946	5.601	0.509
930.000	554.458	80.008	19.994	103.822	19.953	5.091	0.539
931.500	555.244	80.009	19.994	103.825	19.950	5.285	0.523
933.000	555.985	80.009	19.994	103.828	19.952	5.147	0.487
934.500	556.780	80.008	19.993	103.828	19.949	5.409	0.526
936.000	557.553	80.009	19.994	103.828	19.951	5.222	0.505
937.500	558.385	80.008	19.993	103.827	19.950	5.330	0.545
939.000	559.143	80.008	19.993	103.829	19.951	5.218	0.500
940.500	559.966	80.009	19.992	103.829	19.951	5.210	0.534
942.000	560.746	80.010	19.993	103.829	19.949	5.403	0.514
943.500	561.506	80.012	19.993	103.821	19.949	5.385	0.508
945.000	562.320	80.011	19.993	103.823	19.952	5.166	0.536
946.500	563.112	80.010	19.993	103.829	19.948	5.445	0.537
948.000	563.887	80.011	19.993	103.827	19.950	5.305	0.521
949.500	564.658	80.009	19.994	103.828	19.950	5.332	0.515
951.000	565.466	80.009	19.993	103.826	19.947	5.582	0.522
952.500	566.240	80.009	19.996	103.829	19.947	5.579	0.513
954.001	567.050	80.008	19.995	103.826	19.946	5.624	0.550
955.500	567.787	80.007	19.993	103.825	19.949	5.403	0.496
957.000	568.601	80.009	19.994	103.821	19.946	5.640	0.552
958.500	569.383	80.009	19.995	103.823	19.948	5.461	0.508
960.000	570.137	80.012	19.995	103.823	19.950	5.313	0.504
961.500	570.905	80.011	19.994	103.815	19.948	5.457	0.517
963.000	571.697	80.009	19.993	103.811	19.948	5.478	0.536
964.500	572.444	80.011	19.994	103.820	19.950	5.295	0.503
966.000	573.261	80.010	19.994	103.818	19.949	5.390	0.521
967.500	573.997	80.011	19.994	103.817	19.945	5.738	0.519
969.000	574.808	80.012	19.993	103.822	19.949	5.386	0.538
970.500	575.580	80.012	19.993	103.817	19.951	5.236	0.510
972.000	576.331	80.012	19.993	103.819	19.947	5.529	0.509
973.500	577.132	80.012	19.992	103.815	19.950	5.352	0.512
975.000	577.870	80.011	19.993	103.815	19.948	5.469	0.485
976.500	578.627	80.010	19.993	103.820	19.949	5.407	0.511
978.000	579.403	80.010	19.993	103.815	19.949	5.373	0.512
979.500	580.164	80.009	19.993	103.812	19.947	5.544	0.521
981.000	580.876	80.010	19.993	103.810	19.949	5.421	0.501
982.500	581.689	80.010	19.993	103.799	19.952	5.132	0.538
984.000	582.445	80.009	19.993	103.800	19.951	5.230	0.511
985.500	583.164	80.010	19.994	103.809	19.948	5.446	0.470
987.000	583.931	80.009	19.993	103.814	19.944	5.815	0.512
988.500	584.723	80.010	19.993	103.799	19.947	5.579	0.530
990.000	585.486	80.008	19.994	103.805	19.947	5.544	0.495
991.500	586.253	80.009	19.994	103.815	19.951	5.247	0.523
993.000	587.033	80.008	19.993	103.808	19.953	5.114	0.494
994.500	587.775	80.008	19.992	103.812	19.949	5.361	0.516
996.000	588.551	80.009	19.993	103.815	19.951	5.241	0.523
997.500	589.297	80.009	19.993	103.819	19.950	5.288	0.508
999.000	590.112	80.009	19.993	103.806	19.954	5.005	0.526
1000.500	590.845	80.008	19.993	103.799	19.947	5.515	0.511
1002.000	591.583	80.009	19.994	103.811	19.951	5.280	0.519
1003.500	592.343	80.008	19.992	103.820	19.951	5.260	0.503
1005.000	593.067	80.010	19.993	103.819	19.950	5.290	0.469
1006.501	593.896	80.009	19.994	103.818	19.950	5.345	0.543
1008.000	594.669	80.009	19.993	103.816	19.947	5.522	0.546
1009.500	595.408	80.009	19.993	103.814	19.948	5.499	0.494
1011.000	596.212	80.009	19.991	103.820	19.947	5.545	0.542
1012.500	596.942	80.009	19.993	103.826	19.947	5.550	0.492
1014.000	597.693	80.007	19.993	103.827	19.945	5.727	0.522
1015.500	598.487	80.009	19.993	103.821	19.945	5.730	0.506
1017.000	599.246	80.008	19.993	103.816	19.944	5.769	0.507
1018.500	599.968	80.009	19.994	103.824	19.943	5.819	0.485
1020.000	600.728	80.008	19.993	103.827	19.948	5.442	0.491
1021.500	601.476	80.009	19.993	103.827	19.945	5.680	0.517
1023.000	602.262	80.009	19.994	103.815	19.943	5.871	0.479
1024.500	603.001	80.010	19.993	103.809	19.944	5.765	0.489
1026.000	603.788	80.011	19.995	103.825	19.947	5.580	0.523
1027.500	604.499	80.011	19.994	103.817	19.944	5.780	0.492
1029.000	605.272	80.010	19.994	103.805	19.951	5.220	0.504
1030.500	606.004	80.011	19.993	103.815	19.947	5.579	0.480
1032.001	606.764	80.012	19.994	103.814	19.945	5.711	0.526
1033.501	607.526	80.011	19.993	103.818	19.945	5.725	0.501
1035.000	608.305	80.010	19.994	103.809	19.948	5.499	0.493
1036.500	609.064	80.011	19.993	103.810	19.949	5.363	0.487
1038.000	609.798	80.009	19.992	103.817	19.942	5.905	0.471
1039.500	610.538	80.010	19.994	103.820	19.946	5.609	0.486
1041.001	611.335	80.010	19.993	103.809	19.944	5.744	0.524
1042.500	612.117	80.010	19.993	103.818	19.943	5.875	0.536
1044.000	612.923	80.010	19.994	103.814	19.941	6.018	0.539
1045.500	613.698	80.010	19.993	103.797	19.947	5.564	0.517
1047.000	614.462	80.011	19.994	103.801	19.947	5.542	0.508
1048.500	615.216	80.010	19.993	103.813	19.943	5.846	0.518
1050.001	616.005	80.012	19.994	103.821	19.944	5.758	0.525
1051.501	616.787	80.012	19.994	103.821	19.945	5.724	0.512
1053.000	617.557	80.012	19.993	103.810	19.946	5.633	0.527
1054.500	618.335	80.011	19.994	103.808	19.946	5.654	0.535
1056.000	619.096	80.011	19.994	103.799	19.948	5.502	0.504
1057.500	619.909	80.011	19.995	103.804	19.946	5.623	0.537
1059.001	620.685	80.011	19.994	103.818	19.945	5.681	0.519
1060.500	621.482	80.009	19.994	103.798	19.943	5.862	0.530
1062.000	622.262	80.010	19.994	103.794	19.944	5.742	0.515
1063.500	623.054	80.009	19.994	103.792	19.944	5.767	0.543
1065.001	623.856	80.010	19.994	103.793	19.942	5.904	0.522
1066.500	624.648	80.010	19.993	103.797	19.944	5.742	0.532
1068.000	625.473	80.009	19.995	103.800	19.946	5.643	0.540
1069.501	626.191	80.009	19.993	103.806	19.943	5.853	0.482
1071.001	627.021	80.009	19.992	103.798	19.947	5.551	0.538
1072.501	627.852	80.009	19.994	103.805	19.947	5.558	0.533
1074.000	628.600	80.011	19.993	103.819	19.949	5.423	0.490
1075.501	629.418	80.010	19.993	103.808	19.948	5.504	0.548
1077.001	630.172	80.009	19.994	103.809	19.944	5.750	0.494
1078.500	630.974	80.009	19.993	103.800	19.943	5.830	0.563
1080.000	631.780	80.009	19.994	103.795	19.944	5.805	0.543
1081.500	632.542	80.009	19.993	103.792	19.942	5.962	0.511
1083.000	633.321	80.009	19.993	103.797	19.943	5.864	0.532
1084.500	634.099	80.009	19.993	103.795	19.942	5.928	0.536
1086.000	634.936	80.008	19.993	103.805	19.945	5.672	0.554
1087.501	635.666	80.008	19.994	103.804	19.945	5.739	0.492
1089.000	636.468	80.008	19.993	103.792	19.943	5.820	0.538
1090.501	637.211	80.010	19.994	103.794	19.942	5.928	0.507
1092.000	637.975	80.008	19.994	103.796	19.942	5.897	0.504
1093.500	638.762	80.009	19.993	103.794	19.942	5.901	0.505
1095.000	639.517	80.009	19.993	103.791	19.946	5.645	0.513
1096.501	640.250	80.010	19.993	103.793	19.946	5.647	0.479
1098.000	641.011	80.008	19.994	103.797	19.950	5.292	0.490
1099.500	641.797	80.008	19.993	103.791	19.950	5.354	0.520
1101.000	642.547	80.009	19.993	103.789	19.949	5.385	0.510
1102.500	643.300	80.010	19.993	103.797	19.949	5.376	0.486
1104.000	644.036	80.010	19.994	103.795	19.951	5.270	0.503
1105.500	644.771	80.010	19.993	103.791	19.952	5.194	0.506
1107.000	645.548	80.010	19.992	103.795	19.953	5.116	0.507
1108.500	646.281	80.011	19.993	103.805	19.949	5.395	0.493
1110.000	647.038	80.011	19.993	103.796	19.950	5.292	0.495
1111.500	647.805	80.012	19.993	103.788	19.950	5.327	0.527
1113.000	648.567	80.011	19.993	103.789	19.950	5.318	0.491
1114.500	649.314	80.012	19.992	103.789	19.949	5.370	0.506
1116.000	650.053	80.011	19.994	103.795	19.950	5.320	0.508
1117.500	650.821	80.010	19.993	103.794	19.952	5.179	0.520
1119.000	651.593	80.010	19.994	103.790	19.954	5.011	0.521
1120.500	652.301	80.009	19.994	103.798	19.952	5.194	0.473
1122.001	653.055	80.010	19.994	103.793	19.953	5.117	0.496
1123.500	653.818	80.009	19.995	103.795	19.949	5.374	0.509
1125.000	654.593	80.010	19.994	103.797	19.948	5.444	0.524
1126.500	655.317	80.010	19.993	103.793	19.951	5.250	0.499
1128.000	656.122	80.011	19.994	103.796	19.950	5.321	0.524
1129.500	656.846	80.010	19.994	103.803	19.951	5.266	0.500
1131.000	657.563	80.010	19.993	103.797	19.953	5.106	0.465
1132.500	658.377	80.011	19.993	103.807	19.952	5.166	0.529
1134.000	659.124	80.012	19.994	103.818	19.952	5.177	0.493
1135.500	659.846	80.011	19.993	103.804	19.948	5.483	0.487
1137.000	660.616	80.011	19.992	103.804	19.949	5.387	0.504
1138.500	661.336	80.012	19.993	103.800	19.949	5.412	0.466
1140.000	662.121	80.012	19.992	103.790	19.946	5.602	0.533
1141.500	662.883	80.010	19.993	103.795	19.951	5.266	0.497
1143.000	663.694	80.009	19.993	103.793	19.950	5.335	0.530
1144.501	664.470	80.009	19.994	103.791	19.950	5.356	0.535
1146.000	665.220	80.009	19.994	103.791	19.951	5.260	0.516
1147.500	665.967	80.007	19.994	103.790	19.954	4.987	0.508
1149.000	666.734	80.009	19.993	103.792	19.954	5.052	0.508
1150.500	667.498	80.007	19.994	103.797	19.950	5.345	0.495
1152.000	668.298	80.007	19.995	103.792	19.950	5.285	0.515
1153.500	669.084	80.008	19.995	103.791	19.951	5.208	0.503
1155.001	669.817	80.008	19.995	103.791	19.951	5.262	0.488
1156.501	670.602	80.007	19.994	103.793	19.947	5.537	0.511
1158.000	671.407	80.009	19.994	103.792	19.950	5.349	0.552
1159.500	672.186	80.008	19.993	103.791	19.951	5.281	0.531
1161.000	672.947	80.010	19.993	103.790	19.949	5.433	0.524
1162.500	673.747	80.009	19.994	103.787	19.951	5.243	0.533
1164.000	674.540	80.010	19.992	103.786	19.952	5.198	0.527
1165.500	675.295	80.010	19.993	103.787	19.949	5.430	0.500
1167.000	676.087	80.011	19.993	103.790	19.947	5.527	0.497
1168.500	676.882	80.010	19.992	103.790	19.949	5.379	0.546
1170.000	677.612	80.010	19.992	103.788	19.950	5.358	0.489
1171.501	678.385	80.010	19.993	103.791	19.949	5.364	0.525
1173.001	679.202	80.009	19.993	103.785	19.950	5.358	0.526
1174.500	679.947	80.008	19.993	103.794	19.948	5.468	0.510
1176.000	680.720	80.009	19.993	103.791	19.950	5.326	0.494
1177.500	681.493	80.010	19.993	103.793	19.950	5.354	0.500
1179.000	682.253	80.009	19.994	103.795	19.949	5.378	0.517
1180.500	683.014	80.010	19.993	103.797	19.950	5.337	0.494
1182.000	683.768	80.010	19.992	103.796	19.950	5.358	0.527
1183.500	684.583	80.009	19.993	103.789	19.952	5.200	0.544
1185.001	685.320	80.010	19.993	103.788	19.949	5.433	0.490
1186.501	686.147	80.011	19.994	103.787	19.949	5.374	0.569
1188.001	686.871	80.011	19.994	103.790	19.951	5.279	0.520
1189.500	687.635	80.011	19.993	103.790	19.947	5.585	0.489
1191.000	688.396	80.011	19.993	103.787	19.950	5.283	0.509
1192.500	689.212	80.011	19.993	103.791	19.946	5.626	0.531
1194.001	689.950	80.010	19.993	103.790	19.951	5.275	0.508
1195.500	690.705	80.012	19.993	103.789	19.950	5.302	0.489
1197.000	691.432	80.011	19.993	103.786	19.947	5.520	0.496
1198.501	692.186	80.011	19.992	103.786	19.951	5.214	0.518
1200.000	692.898	80.012	19.993	103.792	19.948	5.458	0.492
1201.501	693.703	80.012	19.992	103.795	19.953	5.127	0.520
1203.000	694.420	80.011	19.992	103.792	19.952	5.170	0.471
1204.500	695.192	80.012	19.991	103.792	19.953	5.116	0.524
1206.000	695.914	80.011	19.993	103.794	19.948	5.451	0.482
1207.501	696.680	80.010	19.994	103.792	19.948	5.460	0.495
1209.001	697.434	80.011	19.993	103.789	19.946	5.618	0.503
1210.501	698.117	80.011	19.993	103.790	19.951	5.264	0.463
1212.000	698.892	80.011	19.993	103.791	19.952	5.183	0.515
1213.500	699.610	80.011	19.994	103.792	19.952	5.191	0.482
1215.000	700.353	80.012	19.993	103.792	19.952	5.195	0.504
1216.500	701.113	80.012	19.994	103.792	19.950	5.335	0.512
1218.000	701.868	80.012	19.993	103.792	19.950	5.326	0.496
1219.501	702.601	80.012	19.993	103.791	19.952	5.164	0.472
1221.000	703.312	80.012	19.993	103.791	19.951	5.268	0.484
1222.500	704.051	80.012	19.993	103.790	19.948	5.495	0.482
1224.000	704.841	80.011	19.993	103.791	19.951	5.281	0.545
1225.500	705.554	80.011	19.992	103.791	19.950	5.289	0.487
1227.001	706.331	80.011	19.994	103.790	19.951	5.227	0.509
1228.500	707.128	80.011	19.993	103.788	19.945	5.712	0.527
1230.001	707.859	80.010	19.993	103.792	19.950	5.343	0.475
1231.500	708.608	80.009	19.992	103.796	19.947	5.543	0.511
1233.001	709.344	80.010	19.994	103.791	19.952	5.181	0.516
1234.501	710.110	80.010	19.994	103.795	19.949	5.385	0.512
1236.000	710.883	80.010	19.994	103.797	19.949	5.393	0.509
1237.500	711.695	80.011	19.994	103.794	19.948	5.452	0.549
1239.000	712.486	80.010	19.993	103.792	19.949	5.366	0.513
1240.500	713.222	80.009	19.995	103.788	19.951	5.262	0.501
1242.000	714.041	80.009	19.994	103.788	19.950	5.308	0.528
1243.501	714.800	80.008	19.994	103.796	19.947	5.524	0.529
1245.000	715.576	80.011	19.993	103.796	19.948	5.501	0.522
1246.500	716.388	80.011	19.994	103.791	19.950	5.331	0.562
1248.000	717.159	80.009	19.994	103.797	19.950	5.356	0.511
1249.500	717.973	80.010	19.994	103.800	19.952	5.168	0.527
1251.000	718.730	80.009	19.994	103.788	19.948	5.447	0.521
1252.500	719.521	80.009	19.995	103.787	19.951	5.241	0.529
1254.000	720.337	80.009	19.995	103.789	19.954	5.025	0.548
1255.500	721.082	80.011	19.995	103.789	19.952	5.193	0.501
1257.000	721.912	80.010	19.994	103.790	19.949	5.414	0.536
1258.500	722.687	80.011	19.994	103.793	19.951	5.233	0.534
1260.000	723.438	80.011	19.995	103.788	19.950	5.358	0.510
1261.500	724.203	80.010	19.993	103.790	19.948	5.449	0.502
1263.000	725.006	80.009	19.993	103.790	19.947	5.553	0.541
1264.500	725.800	80.009	19.992	103.790	19.953	5.108	0.535
1266.000	726.559	80.009	19.993	103.793	19.946	5.603	0.545
1267.500	727.334	80.009	19.994	103.794	19.948	5.464	0.502
1269.000	728.104	80.010	19.993	103.794	19.953	5.095	0.521
1270.500	728.875	80.011	19.993	103.792	19.947	5.526	0.535
1272.000	729.645	80.012	19.993	103.791	19.948	5.478	0.527
1273.500	730.401	80.012	19.994	103.793	19.947	5.570	0.502
1275.001	731.178	80.013	19.992	103.791	19.950	5.287	0.505
1276.500	731.978	80.011	19.992	103.789	19.945	5.676	0.514
1278.000	732.741	80.012	19.993	103.789	19.943	5.857	0.519
1279.500	733.500	80.011	19.992	103.788	19.943	5.870	0.522
1281.000	734.274	80.011	19.992	103.788	19.947	5.537	0.521
1282.500	735.024	80.010	19.992	103.791	19.943	5.868	0.497
1284.000	735.780	80.011	19.993	103.791	19.947	5.516	0.500
1285.500	736.526	80.011	19.993	103.791	19.947	5.512	0.515
1287.000	737.266	80.010	19.993	103.789	19.944	5.816	0.492
1288.500	738.055	80.011	19.993	103.791	19.945	5.718	0.521
1290.000	738.814	80.010	19.992	103.792	19.944	5.809	0.501
1291.500	739.524	80.010	19.993	103.791	19.944	5.801	0.489
1293.000	740.280	80.011	19.993	103.790	19.944	5.759	0.515
1294.500	741.067	80.011	19.993	103.790	19.945	5.699	0.516
1296.000	741.779	80.011	19.993	103.788	19.944	5.799	0.492
1297.500	742.592	80.011	19.993	103.790	19.946	5.632	0.543
1299.000	743.319	80.012	19.993	103.790	19.942	5.922	0.497
1299.500	743.531	80.012	19.994	103.789	19.947	5.547	0.519