File: 01_Data/Pine_Lap_Siding/STA/N2/30K_min/Pine_Lap_Siding_STA_N2_30KData_220323_R2.csv
##Temp./Â°C,Time/min,Mass loss(subtr.2)/mg,DSC(subtr.2)/(mW/mg),Sensit./(uV/mW)
48.746,10.01,0.0102,0.01369277,1.08893
49.446,10.55022,0.009573233,0.05622376,1.08834
50.146,10.67422,0.008533337,0.08957402,1.08775
50.846,10.76305,0.009361485,0.12367,1.08716
51.546,10.83545,0.007762316,0.15311,1.08657
52.246,10.89893,0.008635115,0.17986,1.08599
52.946,10.95554,0.01154426,0.2056,1.0854
53.646,11.00704,0.0119648,0.23173,1.08481
54.346,11.0549,0.008976344,0.2509,1.08423
55.046,11.09949,0.009092929,0.27182,1.08365
55.746,11.1419,0.01091919,0.29225,1.08306
56.446,11.18272,0.01196436,0.31167,1.08248
57.146,11.22162,0.01160245,0.32986,1.0819
57.846,11.25934,0.01151069,0.34729,1.08132
58.546,11.29547,0.01061863,0.36216,1.08074
59.246,11.33055,0.009973154,0.37867,1.08016
59.946,11.36485,0.01107874,0.39321,1.07958
60.646,11.39826,0.01042692,0.40495,1.079
61.346,11.43073,0.0101681,0.42151,1.07842
62.046,11.46261,0.009049148,0.43403,1.07785
62.746,11.4938,0.009040935,0.44753,1.07727
63.446,11.5245,0.007658759,0.46104,1.0767
64.146,11.55457,0.006268774,0.47356,1.07613
64.846,11.58445,0.006018132,0.48569,1.07555
65.546,11.61374,0.007988649,0.49606,1.07498
66.246,11.6428,0.00862,0.50844,1.07441
66.946,11.67146,0.008779103,0.51649,1.07384
67.646,11.6999,0.008760454,0.52985,1.07327
68.346,11.72805,0.01074154,0.5408,1.07271
69.046,11.7558,0.01205264,0.55098,1.07214
69.746,11.78332,0.01127541,0.56216,1.07157
70.446,11.81043,0.00996327,0.56953,1.07101
71.146,11.83738,0.008968705,0.58027,1.07044
71.846,11.86426,0.008725635,0.59198,1.06988
72.546,11.89108,0.00914737,0.5999,1.06931
73.246,11.91752,0.009201153,0.6127,1.06875
73.946,11.94383,0.008793131,0.6191,1.06819
74.646,11.97005,0.008342728,0.6292,1.06763
75.346,11.99613,0.008378987,0.63796,1.06707
76.046,12.02195,0.008395716,0.64737,1.06651
76.746,12.04767,0.008427845,0.65654,1.06595
77.446,12.0733,0.006697278,0.66412,1.0654
78.146,12.09902,0.006512549,0.67056,1.06484
78.846,12.12458,0.006514693,0.68139,1.06428
79.546,12.14991,0.00657995,0.68791,1.06373
80.246,12.17512,0.006580541,0.69509,1.06317
80.946,12.20017,0.006579263,0.70452,1.06262
81.646,12.22522,0.00517133,0.71111,1.06207
82.346,12.2502,0.005260979,0.72132,1.06152
83.046,12.27506,0.005029708,0.72884,1.06097
83.746,12.29987,0.00351886,0.7346,1.06042
84.446,12.3246,0.003723975,0.74199,1.05987
85.146,12.3492,0.004244887,0.74924,1.05932
85.846,12.37382,0.004284202,0.75373,1.05877
86.546,12.39828,0.003488683,0.76256,1.05823
87.246,12.42265,0.003834116,0.76916,1.05768
87.946,12.44697,0.005111221,0.7743,1.05714
88.646,12.47115,0.004811439,0.78234,1.05659
89.346,12.49538,0.004889588,0.78461,1.05605
90.046,12.51946,0.004778211,0.79506,1.05551
90.746,12.54352,0.005126987,0.7996,1.05497
91.446,12.56758,0.003793022,0.80529,1.05443
92.146,12.5916,0.003332781,0.81001,1.05389
92.846,12.61561,0.002341494,0.81489,1.05335
93.546,12.63953,0.00232344,0.82258,1.05281
94.246,12.66336,0.000933576,0.82553,1.05227
94.946,12.68719,0.002074828,0.83108,1.05174
95.646,12.71101,0.00230311,0.83525,1.0512
96.346,12.73479,0.002276884,0.83899,1.05067
97.046,12.75854,0.001445551,0.84269,1.05013
97.746,12.78223,0.0009817989,0.84781,1.0496
98.446,12.80589,0.000986143,0.85096,1.04907
99.146,12.8296,-0.0003055618,0.85258,1.04854
99.846,12.85325,-0.0003368871,0.85454,1.04801
100.546,12.87688,-0.000330281,0.86013,1.04748
101.246,12.90054,-0.00033017,0.86122,1.04695
101.946,12.92413,-0.00037449,0.86284,1.04642
102.646,12.94765,-0.00169539,0.864,1.04589
103.346,12.97125,-0.001642993,0.86775,1.04536
104.046,12.9948,-0.00121765,0.86701,1.04484
104.746,13.01823,-0.0005337401,0.86688,1.04431
105.446,13.0418,-0.001587801,0.86905,1.04379
106.146,13.06525,-0.00295463,0.87002,1.04327
106.846,13.08875,-0.003037925,0.86875,1.04274
107.546,13.11227,-0.004434463,0.86738,1.04222
108.246,13.1357,-0.004393104,0.87035,1.0417
108.946,13.1592,-0.004390038,0.86971,1.04118
109.646,13.18263,-0.004390045,0.86729,1.04066
110.346,13.206,-0.004391335,0.86638,1.04014
111.046,13.22936,-0.00439625,0.86518,1.03963
111.746,13.25276,-0.00328374,0.86312,1.03911
112.446,13.27617,-0.004464216,0.86265,1.03859
113.146,13.2995,-0.004390632,0.85945,1.03808
113.846,13.3228,-0.004389871,0.85764,1.03757
114.546,13.3461,-0.004389973,0.85657,1.03705
115.246,13.36935,-0.004389909,0.85237,1.03654
115.946,13.39238,-0.004396714,0.85002,1.03603
116.646,13.41549,-0.004689249,0.84785,1.03552
117.346,13.43873,-0.00572244,0.84583,1.03501
118.046,13.4617,-0.005709275,0.84236,1.0345
118.746,13.48506,-0.00571006,0.83983,1.03399
119.446,13.50836,-0.005711319,0.83683,1.03348
120.146,13.53154,-0.00618311,0.83332,1.03297
120.846,13.55499,-0.006995785,0.83117,1.03247
121.546,13.57818,-0.007019337,0.83098,1.03196
122.246,13.6013,-0.007020013,0.82765,1.03146
122.946,13.62442,-0.00701957,0.82367,1.03095
123.646,13.6474,-0.007013495,0.81974,1.03045
124.346,13.67029,-0.007037562,0.8197,1.02995
125.046,13.69328,-0.008346751,0.81644,1.02945
125.746,13.71628,-0.008340365,0.81445,1.02895
126.446,13.7393,-0.008339989,0.81403,1.02845
127.146,13.76244,-0.008341135,0.81376,1.02795
127.846,13.78536,-0.008371834,0.81109,1.02745
128.546,13.80821,-0.00797105,0.8076,1.02695
129.246,13.83111,-0.008335264,0.80792,1.02645
129.946,13.8539,-0.00833943,0.80622,1.02596
130.646,13.87677,-0.008341265,0.80728,1.02546
131.346,13.8995,-0.008345168,0.80458,1.02497
132.046,13.92221,-0.00907442,0.8062,1.02447
132.746,13.9449,-0.008631796,0.80597,1.02398
133.446,13.9675,-0.00865895,0.80345,1.02349
134.146,13.9903,-0.00866002,0.80325,1.023
134.846,14.01305,-0.00866155,0.80323,1.02251
135.546,14.0358,-0.008695206,0.80418,1.02202
136.246,14.0585,-0.00831974,0.80313,1.02153
136.946,14.08106,-0.008330352,0.8039,1.02104
137.646,14.1036,-0.008330035,0.80353,1.02055
138.346,14.12621,-0.008329735,0.8018,1.02007
139.046,14.1488,-0.008327886,0.80331,1.01958
139.746,14.17135,-0.00838022,0.80732,1.0191
140.446,14.1939,-0.009701556,0.80549,1.01861
141.146,14.2164,-0.00965268,0.80607,1.01813
141.846,14.23891,-0.009650048,0.80745,1.01765
142.546,14.2614,-0.009650137,0.8087,1.01716
143.246,14.28377,-0.0096558,0.80943,1.01668
143.946,14.30611,-0.009756426,0.80972,1.0162
144.646,14.3285,-0.008629566,0.8119,1.01572
145.346,14.3509,-0.008660985,0.81183,1.01524
146.046,14.37333,-0.008664948,0.81432,1.01476
146.746,14.39574,-0.007724558,0.81371,1.01429
147.446,14.41809,-0.00734842,0.81347,1.01381
148.146,14.44043,-0.006654794,0.81774,1.01333
148.846,14.4627,-0.00615851,0.81693,1.01286
149.546,14.4849,-0.007400053,0.81942,1.01238
150.246,14.50717,-0.007352186,0.81973,1.01191
150.946,14.5293,-0.00735005,0.82325,1.01144
151.646,14.55146,-0.00734929,0.82442,1.01097
152.346,14.57368,-0.007323788,0.82638,1.01049
153.046,14.5959,-0.007708517,0.82993,1.01002
153.746,14.61815,-0.00768091,0.82878,1.00955
154.446,14.64035,-0.00767999,0.83152,1.00908
155.146,14.6625,-0.007679994,0.83339,1.00861
155.846,14.68457,-0.00767994,0.83563,1.00815
156.546,14.7067,-0.00767904,0.83596,1.00768
157.246,14.72884,-0.00767254,0.84016,1.00721
157.946,14.75099,-0.00693454,0.8409,1.00675
158.646,14.77305,-0.006919316,0.84257,1.00628
159.346,14.79512,-0.007336696,0.84632,1.00582
160.046,14.81719,-0.007362539,0.84919,1.00536
160.746,14.83924,-0.007946324,0.85033,1.00489
161.446,14.86137,-0.00866122,0.85316,1.00443
162.146,14.8834,-0.00866889,0.85463,1.00397
162.846,14.9055,-0.008667783,0.85683,1.00351
163.546,14.92751,-0.00864239,0.85881,1.00305
164.246,14.9495,-0.009006987,0.85928,1.00259
164.946,14.9715,-0.0076349,0.86199,1.00213
165.646,14.9935,-0.00766623,0.866,1.00167
166.346,15.01555,-0.00766976,0.86608,1.00122
167.046,15.0375,-0.00766999,0.87036,1.00076
167.746,15.0595,-0.00767,0.87239,1.0003
168.446,15.08138,-0.00767,0.87378,0.99985
169.146,15.10331,-0.00767,0.87754,0.9994
169.846,15.12526,-0.00767,0.8789,0.99894
170.546,15.1471,-0.00767,0.87836,0.99849
171.246,15.169,-0.00767,0.8818,0.99804
171.946,15.19087,-0.00767,0.88405,0.99759
172.646,15.2127,-0.00767,0.88717,0.99714
173.346,15.2346,-0.00767,0.88924,0.99669
174.046,15.2565,-0.00767,0.89132,0.99624
174.746,15.2782,-0.00767,0.89498,0.99579
175.446,15.30003,-0.00767,0.89667,0.99534
176.146,15.3218,-0.00767,0.90056,0.99489
176.846,15.3436,-0.00767,0.89941,0.99445
177.546,15.36534,-0.007670001,0.90008,0.994
178.246,15.387,-0.007670009,0.90437,0.99356
178.946,15.40879,-0.00767008,0.90624,0.99311
179.646,15.4305,-0.007669416,0.90763,0.99267
180.346,15.45227,-0.00762694,0.90866,0.99222
181.046,15.474,-0.008893521,0.90923,0.99178
181.746,15.4957,-0.008988433,0.914,0.99134
182.446,15.51733,-0.00898993,0.91718,0.9909
183.146,15.53894,-0.008989998,0.91807,0.99046
183.846,15.56061,-0.00899,0.91963,0.99002
184.546,15.5822,-0.00899,0.92153,0.98958
185.246,15.6036,-0.00899,0.92517,0.98914
185.946,15.62496,-0.00899,0.92613,0.9887
186.646,15.64642,-0.00899,0.92716,0.98827
187.346,15.668,-0.00899,0.93147,0.98783
188.046,15.68971,-0.00899,0.9313,0.98739
188.746,15.7115,-0.008989963,0.93389,0.98696
189.446,15.7331,-0.00898883,0.93733,0.98652
190.146,15.7546,-0.008967019,0.93666,0.98609
190.846,15.7761,-0.008402011,0.9409,0.98566
191.546,15.79764,-0.007666664,0.94253,0.98523
192.246,15.8191,-0.00766992,0.94352,0.98479
192.946,15.8406,-0.007669952,0.94758,0.98436
193.646,15.86205,-0.007667185,0.94907,0.98393
194.346,15.8834,-0.007602618,0.95183,0.9835
195.046,15.90489,-0.00892112,0.95078,0.98307
195.746,15.9263,-0.00898809,0.95374,0.98264
196.446,15.94767,-0.008983871,0.95415,0.98222
197.146,15.96914,-0.01025412,0.95731,0.98179
197.846,15.99055,-0.01031205,0.96097,0.98136
198.546,16.01193,-0.01031038,0.96426,0.98094
199.246,16.03334,-0.01030973,0.96537,0.98051
199.946,16.05472,-0.01030421,0.96607,0.98009
200.646,16.076,-0.01127955,0.96839,0.97966
201.346,16.0974,-0.01161637,0.97127,0.97924
202.046,16.11873,-0.01162971,0.97329,0.97881
202.746,16.14014,-0.01162968,0.97571,0.97839
203.446,16.16165,-0.01156627,0.9777,0.97797
204.146,16.18294,-0.01025797,0.97893,0.97755
204.846,16.20436,-0.01026221,0.98254,0.97713
205.546,16.22568,-0.01141224,0.98476,0.97671
206.246,16.24696,-0.01162147,0.98584,0.97629
206.946,16.26833,-0.01162968,0.98734,0.97587
207.646,16.28967,-0.01163,0.98762,0.97545
208.346,16.311,-0.01162991,0.99022,0.97504
209.046,16.3323,-0.01162686,0.99266,0.97462
209.746,16.35354,-0.01156117,0.99721,0.9742
210.446,16.37485,-0.01288025,0.99802,0.97379
211.146,16.39611,-0.01294856,0.99784,0.97337
211.846,16.41733,-0.01294986,1.00229,0.97296
212.546,16.43864,-0.01294937,1.00422,0.97254
213.246,16.45991,-0.01294924,1.00889,0.97213
213.946,16.48118,-0.01219165,1.00765,0.97172
214.646,16.5026,-0.01164258,1.01119,0.9713
215.346,16.5239,-0.01163015,1.01201,0.97089
216.046,16.5452,-0.01161544,1.01536,0.97048
216.746,16.56644,-0.01241552,1.01762,0.97007
217.446,16.5877,-0.01260289,1.01848,0.96966
218.146,16.60885,-0.01261499,1.02072,0.96925
218.846,16.63005,-0.01294105,1.02252,0.96884
219.546,16.65135,-0.01294509,1.02472,0.96844
220.246,16.67261,-0.01305304,1.02939,0.96803
220.946,16.69381,-0.01430856,1.02992,0.96762
221.646,16.71497,-0.01420639,1.03052,0.96721
222.346,16.73613,-0.01518327,1.03226,0.96681
223.046,16.7573,-0.01524089,1.0372,0.9664
223.746,16.77844,-0.01644994,1.0365,0.966
224.446,16.79965,-0.01655851,1.04038,0.96559
225.146,16.82082,-0.01655921,1.03942,0.96519
225.846,16.84197,-0.01707863,1.04292,0.96479
226.546,16.86316,-0.01785468,1.0463,0.96439
227.246,16.8844,-0.01787814,1.04711,0.96398
227.946,16.90555,-0.01787939,1.04912,0.96358
228.646,16.92662,-0.01787305,1.05026,0.96318
229.346,16.9478,-0.01903033,1.0515,0.96278
230.046,16.96895,-0.0191951,1.05379,0.96238
230.746,16.9901,-0.01919997,1.05598,0.96198
231.446,17.01139,-0.01918694,1.05489,0.96158
232.146,17.03257,-0.02006142,1.05913,0.96118
232.846,17.0537,-0.02049586,1.0601,0.96079
233.546,17.0748,-0.0205088,1.06187,0.96039
234.246,17.096,-0.02050623,1.06227,0.95999
234.946,17.11715,-0.02046093,1.06762,0.9596
235.646,17.1383,-0.02176516,1.06727,0.9592
236.346,17.15955,-0.02183531,1.06902,0.95881
237.046,17.1808,-0.02288064,1.072,0.95841
237.746,17.2019,-0.02315812,1.0724,0.95802
238.446,17.2229,-0.02338248,1.07412,0.95762
239.146,17.24403,-0.02446164,1.07302,0.95723
239.846,17.26516,-0.02436761,1.07644,0.95684
240.546,17.28635,-0.02573811,1.07803,0.95645
241.246,17.3077,-0.02569775,1.08152,0.95605
241.946,17.3289,-0.02718583,1.08076,0.95566
242.646,17.35005,-0.0258801,1.08225,0.95527
243.346,17.37119,-0.0272058,1.08381,0.95488
244.046,17.39237,-0.02738466,1.08628,0.95449
244.746,17.41356,-0.02854542,1.08545,0.9541
245.446,17.43468,-0.02894362,1.08639,0.95371
246.146,17.45589,-0.02985004,1.0899,0.95333
246.846,17.47706,-0.0302487,1.0901,0.95294
247.546,17.49821,-0.03116497,1.09416,0.95255
248.246,17.51936,-0.03113292,1.09491,0.95216
248.946,17.54045,-0.03247253,1.09769,0.95178
249.646,17.56162,-0.03247054,1.09978,0.95139
250.346,17.58278,-0.03268322,1.10219,0.95101
251.046,17.6038,-0.0338059,1.10399,0.95062
251.746,17.62495,-0.03422249,1.10738,0.95024
252.446,17.6461,-0.03518034,1.1094,0.94985
253.146,17.66714,-0.03657776,1.11096,0.94947
253.846,17.68833,-0.03748238,1.11392,0.94909
254.546,17.70949,-0.03945745,1.11616,0.9487
255.246,17.73064,-0.04112088,1.11949,0.94832
255.946,17.7517,-0.04250923,1.12113,0.94794
256.646,17.77277,-0.04304655,1.12222,0.94756
257.346,17.7939,-0.04444583,1.12463,0.94718
258.046,17.81494,-0.04595893,1.12804,0.9468
258.746,17.83608,-0.04670664,1.13274,0.94642
259.446,17.8573,-0.04819144,1.13318,0.94604
260.146,17.87839,-0.04928653,1.13611,0.94566
260.846,17.8995,-0.04989982,1.13958,0.94528
261.546,17.9206,-0.05145173,1.14057,0.9449
262.246,17.9417,-0.05316116,1.14449,0.94452
262.946,17.96284,-0.05537582,1.14652,0.94415
263.646,17.98395,-0.05643794,1.15004,0.94377
264.346,18.00512,-0.05760732,1.15307,0.94339
265.046,18.02628,-0.05910921,1.1558,0.94302
265.746,18.04734,-0.06084006,1.15793,0.94264
266.446,18.06847,-0.06290748,1.16083,0.94227
267.146,18.0896,-0.06491816,1.16097,0.94189
267.846,18.11065,-0.06621333,1.16295,0.94152
268.546,18.13179,-0.06727519,1.16526,0.94114
269.246,18.15288,-0.06882401,1.17047,0.94077
269.946,18.174,-0.07077265,1.17413,0.9404
270.646,18.19516,-0.07160059,1.17501,0.94002
271.346,18.21629,-0.07389163,1.17775,0.93965
272.046,18.2375,-0.07595985,1.17823,0.93928
272.746,18.2586,-0.07793479,1.18156,0.93891
273.446,18.2797,-0.08036086,1.18097,0.93854
274.146,18.30085,-0.0829631,1.1834,0.93817
274.846,18.32199,-0.08636417,1.18818,0.9378
275.546,18.3431,-0.08819925,1.1888,0.93743
276.246,18.36422,-0.09005216,1.19248,0.93706
276.946,18.38533,-0.09238421,1.19446,0.93669
277.646,18.40644,-0.09451378,1.19634,0.93632
278.346,18.42756,-0.09724776,1.19715,0.93595
279.046,18.4487,-0.10058,1.20116,0.93558
279.746,18.46989,-0.10375,1.2026,0.93521
280.446,18.49109,-0.10631,1.20576,0.93484
281.146,18.5122,-0.11,1.20774,0.93448
281.846,18.5333,-0.1127,1.20898,0.93411
282.546,18.5545,-0.11563,1.21051,0.93374
283.246,18.5756,-0.11841,1.21199,0.93338
283.946,18.59675,-0.12161,1.2138,0.93301
284.646,18.61797,-0.12517,1.21913,0.93265
285.346,18.63915,-0.12876,1.21681,0.93228
286.046,18.66025,-0.13244,1.22135,0.93192
286.746,18.68144,-0.13508,1.2242,0.93155
287.446,18.70269,-0.13782,1.22445,0.93119
288.146,18.72395,-0.14087,1.22937,0.93083
288.846,18.74522,-0.14466,1.23005,0.93046
289.546,18.7665,-0.14787,1.23435,0.9301
290.246,18.78762,-0.15042,1.23616,0.92974
290.946,18.80878,-0.15348,1.23562,0.92937
291.646,18.82991,-0.15606,1.2377,0.92901
292.346,18.85098,-0.15948,1.23909,0.92865
293.046,18.87223,-0.16319,1.24507,0.92829
293.746,18.8934,-0.16721,1.24542,0.92793
294.446,18.91457,-0.17189,1.24805,0.92757
295.146,18.93577,-0.1757,1.25038,0.92721
295.846,18.957,-0.17843,1.25363,0.92685
296.546,18.97816,-0.18185,1.25378,0.92649
297.246,18.99939,-0.18619,1.2588,0.92613
297.946,19.02064,-0.19057,1.25774,0.92577
298.646,19.04178,-0.19432,1.26184,0.92541
299.346,19.0629,-0.19904,1.26641,0.92505
300.046,19.0841,-0.20317,1.26729,0.92469
300.746,19.10527,-0.20816,1.26988,0.92433
301.446,19.1265,-0.21301,1.2749,0.92397
302.146,19.1477,-0.21931,1.27633,0.92362
302.846,19.1689,-0.22566,1.27878,0.92326
303.546,19.19006,-0.23211,1.28178,0.9229
304.246,19.2113,-0.23704,1.2853,0.92255
304.946,19.23254,-0.24285,1.29075,0.92219
305.646,19.25369,-0.24749,1.29,0.92183
306.346,19.27486,-0.2557,1.29655,0.92148
307.046,19.29607,-0.26165,1.29443,0.92112
307.746,19.3172,-0.26795,1.29972,0.92077
308.446,19.33847,-0.2733,1.30419,0.92041
309.146,19.3597,-0.27972,1.3059,0.92006
309.846,19.38097,-0.28647,1.31036,0.9197
310.546,19.40225,-0.29203,1.31608,0.91935
311.246,19.42344,-0.2982,1.31839,0.91899
311.946,19.4447,-0.30483,1.32313,0.91864
312.646,19.46593,-0.31216,1.32777,0.91828
313.346,19.48715,-0.31795,1.33243,0.91793
314.046,19.5084,-0.32469,1.33745,0.91758
314.746,19.5297,-0.32996,1.34282,0.91723
315.446,19.55096,-0.33863,1.34676,0.91687
316.146,19.57218,-0.34562,1.35212,0.91652
316.846,19.59346,-0.35388,1.35619,0.91617
317.546,19.6147,-0.36053,1.36469,0.91582
318.246,19.636,-0.36911,1.36983,0.91546
318.946,19.65726,-0.37642,1.3779,0.91511
319.646,19.67853,-0.38426,1.3844,0.91476
320.346,19.69979,-0.39149,1.39082,0.91441
321.046,19.72099,-0.39934,1.39781,0.91406
321.746,19.7423,-0.4077,1.40636,0.91371
322.446,19.7635,-0.41584,1.41276,0.91336
323.146,19.7848,-0.42493,1.41799,0.91301
323.846,19.8061,-0.4331,1.42848,0.91266
324.546,19.8274,-0.44295,1.4382,0.91231
325.246,19.8487,-0.45166,1.44612,0.91196
325.946,19.87003,-0.46256,1.45166,0.91161
326.646,19.8913,-0.47138,1.46429,0.91126
327.346,19.91251,-0.48262,1.47081,0.91091
328.046,19.9338,-0.4914,1.48223,0.91056
328.746,19.95508,-0.50241,1.49117,0.91021
329.446,19.97636,-0.51173,1.5004,0.90986
330.146,19.99767,-0.52221,1.51105,0.90951
330.846,20.01902,-0.53207,1.5195,0.90917
331.546,20.04032,-0.54309,1.52908,0.90882
332.246,20.06167,-0.55419,1.54157,0.90847
332.946,20.083,-0.56492,1.55052,0.90812
333.646,20.10434,-0.57675,1.56029,0.90777
334.346,20.1256,-0.58798,1.57174,0.90743
335.046,20.14702,-0.60246,1.5821,0.90708
335.746,20.16835,-0.61356,1.59461,0.90673
336.446,20.1897,-0.62689,1.60385,0.90638
337.146,20.21106,-0.63835,1.61593,0.90604
337.846,20.23239,-0.65293,1.62801,0.90569
338.546,20.25374,-0.66467,1.63624,0.90534
339.246,20.27508,-0.67925,1.64813,0.905
339.946,20.29642,-0.69188,1.65582,0.90465
340.646,20.3178,-0.70576,1.66685,0.90431
341.346,20.3392,-0.71807,1.67947,0.90396
342.046,20.36059,-0.73193,1.68627,0.90361
342.746,20.38196,-0.74657,1.69622,0.90327
343.446,20.4034,-0.76031,1.70526,0.90292
344.146,20.42476,-0.77511,1.71641,0.90258
344.846,20.44613,-0.78881,1.72579,0.90223
345.546,20.4676,-0.80579,1.73294,0.90189
346.246,20.48893,-0.82001,1.74244,0.90154
346.946,20.51034,-0.83712,1.75095,0.9012
347.646,20.5318,-0.84921,1.75942,0.90085
348.346,20.5532,-0.86571,1.76673,0.90051
349.046,20.57469,-0.8795,1.77463,0.90016
349.746,20.59609,-0.89593,1.78048,0.89982
350.446,20.61746,-0.91033,1.78957,0.89947
351.146,20.63883,-0.92762,1.79412,0.89913
351.846,20.66019,-0.94436,1.80118,0.89878
352.546,20.6816,-0.96125,1.80961,0.89844
353.246,20.7031,-0.97824,1.81469,0.89809
353.946,20.72462,-0.99392,1.82306,0.89775
354.646,20.7462,-1.01215,1.82821,0.89741
355.346,20.76773,-1.02822,1.83447,0.89706
356.046,20.7893,-1.04786,1.84198,0.89672
356.746,20.81075,-1.06345,1.84836,0.89637
357.446,20.83224,-1.08192,1.85587,0.89603
358.146,20.85377,-1.09664,1.86123,0.89569
358.846,20.87528,-1.11531,1.86692,0.89534
359.546,20.89678,-1.13086,1.87362,0.895
360.246,20.91831,-1.14851,1.88225,0.89466
360.946,20.93974,-1.16571,1.89037,0.89431
361.646,20.96122,-1.18395,1.90356,0.89397
362.346,20.9827,-1.20279,1.9102,0.89363
363.046,21.00421,-1.22033,1.9191,0.89328
363.746,21.02577,-1.2398,1.93069,0.89294
364.446,21.04733,-1.25659,1.945,0.8926
365.146,21.0689,-1.27742,1.95385,0.89225
365.846,21.09059,-1.29416,1.96897,0.89191
366.546,21.11225,-1.31517,1.98307,0.89157
367.246,21.13391,-1.33262,1.99686,0.89122
367.946,21.15555,-1.35337,2.01289,0.89088
368.646,21.17716,-1.3712,2.02958,0.89054
369.346,21.19882,-1.39076,2.04853,0.8902
370.046,21.2204,-1.40922,2.06891,0.88985
370.746,21.24202,-1.4286,2.08988,0.88951
371.446,21.26364,-1.44943,2.10967,0.88917
372.146,21.28526,-1.46882,2.13447,0.88882
372.846,21.30689,-1.49134,2.15483,0.88848
373.546,21.3285,-1.51061,2.17708,0.88814
374.246,21.35029,-1.53279,2.20044,0.8878
374.946,21.37201,-1.55113,2.22787,0.88745
375.646,21.39375,-1.57418,2.25447,0.88711
376.346,21.41556,-1.59469,2.2782,0.88677
377.046,21.43727,-1.61852,2.30539,0.88642
377.746,21.45897,-1.63946,2.33175,0.88608
378.446,21.4807,-1.66215,2.35617,0.88574
379.146,21.50242,-1.68574,2.3838,0.8854
379.846,21.524,-1.70847,2.40792,0.88505
380.546,21.54564,-1.73288,2.43144,0.88471
381.246,21.56737,-1.75561,2.45521,0.88437
381.946,21.5891,-1.78227,2.47883,0.88403
382.646,21.61107,-1.80407,2.49979,0.88368
383.346,21.63296,-1.83135,2.51513,0.88334
384.046,21.65472,-1.85482,2.53377,0.883
384.746,21.67654,-1.88328,2.54781,0.88265
385.446,21.69835,-1.90724,2.55783,0.88231
386.146,21.72005,-1.93271,2.56614,0.88197
386.846,21.74182,-1.95865,2.5708,0.88162
387.546,21.76357,-1.98409,2.57121,0.88128
388.246,21.7853,-2.01329,2.56896,0.88094
388.946,21.80718,-2.03772,2.56255,0.88059
389.646,21.82909,-2.06667,2.55022,0.88025
390.346,21.85096,-2.08941,2.53165,0.87991
391.046,21.87278,-2.1172,2.51073,0.87956
391.746,21.89463,-2.13975,2.48295,0.87922
392.446,21.9164,-2.1665,2.44998,0.87888
393.146,21.93818,-2.18965,2.4133,0.87853
393.846,21.96,-2.21411,2.3675,0.87819
394.546,21.9817,-2.23725,2.3193,0.87785
395.246,22.00345,-2.25966,2.26092,0.8775
395.946,22.02529,-2.28433,2.20145,0.87716
396.646,22.0471,-2.3048,2.13634,0.87682
397.346,22.069,-2.32757,2.06704,0.87647
398.046,22.09072,-2.34541,1.99153,0.87613
398.746,22.1125,-2.36697,1.91389,0.87578
399.446,22.13428,-2.38366,1.83185,0.87544
400.146,22.156,-2.40285,1.74826,0.87509
400.846,22.17784,-2.41931,1.65808,0.87475
401.546,22.19965,-2.43593,1.57087,0.87441
402.246,22.2213,-2.45104,1.4851,0.87406
402.946,22.2431,-2.46503,1.38964,0.87372
403.646,22.26485,-2.47909,1.30084,0.87337
404.346,22.2866,-2.49015,1.21347,0.87303
405.046,22.30838,-2.5027,1.12915,0.87268
405.746,22.3302,-2.51244,1.04622,0.87234
406.446,22.3519,-2.52313,0.96018,0.87199
407.146,22.37359,-2.53105,0.88022,0.87165
407.846,22.3953,-2.53883,0.80674,0.8713
408.546,22.41701,-2.54511,0.73624,0.87095
409.246,22.43877,-2.5524,0.66924,0.87061
409.946,22.4605,-2.55917,0.60739,0.87026
410.646,22.48224,-2.5649,0.55415,0.86992
411.346,22.504,-2.56933,0.49992,0.86957
412.046,22.5257,-2.57317,0.45188,0.86922
412.746,22.54741,-2.57682,0.40816,0.86888
413.446,22.56915,-2.58062,0.36978,0.86853
414.146,22.5909,-2.58452,0.3368,0.86819
414.846,22.61264,-2.58801,0.30491,0.86784
415.546,22.6344,-2.59142,0.27434,0.86749
416.246,22.65616,-2.59566,0.2527,0.86714
416.946,22.67795,-2.5992,0.23176,0.8668
417.646,22.69979,-2.60183,0.2127,0.86645
418.346,22.72159,-2.60474,0.19803,0.8661
419.046,22.74342,-2.60758,0.18144,0.86576
419.746,22.76519,-2.61061,0.17013,0.86541
420.446,22.7869,-2.61264,0.16006,0.86506
421.146,22.80868,-2.61445,0.1486,0.86471
421.846,22.83042,-2.61636,0.13525,0.86436
422.546,22.85224,-2.61839,0.12817,0.86401
423.246,22.87408,-2.62045,0.12251,0.86367
423.946,22.89594,-2.62306,0.11525,0.86332
424.646,22.9178,-2.62669,0.11055,0.86297
425.346,22.9397,-2.63037,0.10332,0.86262
426.046,22.9616,-2.63248,0.0954891,0.86227
426.746,22.98353,-2.63498,0.09062614,0.86192
427.446,23.00542,-2.63727,0.0839669,0.86157
428.146,23.02731,-2.63926,0.07694725,0.86122
428.846,23.04918,-2.64107,0.07149794,0.86087
429.546,23.07108,-2.643,0.06588736,0.86052
430.246,23.09296,-2.64496,0.0619857,0.86017
430.946,23.11489,-2.64663,0.05881328,0.85982
431.646,23.13684,-2.64831,0.05271971,0.85947
432.346,23.15881,-2.6489,0.04546772,0.85912
433.046,23.18081,-2.65108,0.04175166,0.85877
433.746,23.20279,-2.65269,0.03811227,0.85841
434.446,23.22472,-2.65502,0.03304997,0.85806
435.146,23.2467,-2.65751,0.02643745,0.85771
435.846,23.26859,-2.65985,0.0227194,0.85736
436.546,23.2906,-2.66191,0.01555439,0.85701
437.246,23.31255,-2.66451,0.01421842,0.85665
437.946,23.3345,-2.66737,0.00871944,0.8563
438.646,23.35652,-2.66927,0.003435855,0.85595
439.346,23.37847,-2.67048,-0.0003625331,0.85559
440.046,23.40046,-2.6719,-0.007051991,0.85524
440.746,23.4224,-2.67399,-0.009538047,0.85489
441.446,23.44443,-2.67617,-0.01245971,0.85453
442.146,23.46647,-2.67785,-0.01784485,0.85418
442.846,23.48845,-2.67923,-0.02356027,0.85383
443.546,23.51044,-2.68023,-0.02699138,0.85347
444.246,23.5324,-2.68146,-0.03079515,0.85312
444.946,23.55442,-2.6832,-0.0364794,0.85276
445.646,23.57647,-2.68645,-0.03912142,0.85241
446.346,23.59855,-2.68893,-0.04417136,0.85205
447.046,23.62058,-2.69142,-0.04925871,0.85169
447.746,23.64264,-2.69357,-0.0513253,0.85134
448.446,23.66467,-2.69517,-0.05375443,0.85098
449.146,23.68668,-2.69663,-0.05609159,0.85062
449.846,23.70873,-2.69802,-0.06077329,0.85027
450.546,23.73075,-2.70012,-0.06346804,0.84991
451.246,23.75283,-2.70127,-0.0661081,0.84955
451.946,23.77487,-2.70243,-0.06837896,0.8492
452.646,23.79701,-2.70357,-0.07028408,0.84884
453.346,23.81908,-2.70556,-0.07050064,0.84848
454.046,23.84112,-2.70878,-0.07213743,0.84812
454.746,23.86324,-2.71111,-0.07202502,0.84776
455.446,23.8853,-2.71271,-0.07449749,0.8474
456.146,23.9074,-2.71463,-0.07422709,0.84704
456.846,23.9296,-2.71655,-0.07777415,0.84668
457.546,23.95176,-2.71809,-0.07580702,0.84632
458.246,23.97395,-2.71994,-0.07554412,0.84596
458.946,23.99607,-2.72236,-0.0763094,0.8456
459.646,24.0182,-2.72479,-0.07586874,0.84524
460.346,24.04028,-2.72668,-0.07497123,0.84488
461.046,24.06236,-2.72756,-0.07235658,0.84452
461.746,24.08448,-2.72799,-0.07112573,0.84416
462.446,24.10667,-2.72922,-0.06992144,0.8438
463.146,24.12882,-2.72886,-0.07008571,0.84344
463.846,24.15099,-2.72993,-0.06698517,0.84307
464.546,24.1732,-2.73155,-0.06498252,0.84271
465.246,24.1954,-2.73318,-0.06019182,0.84235
465.946,24.2177,-2.73381,-0.05941415,0.84198
466.646,24.2399,-2.73448,-0.05544011,0.84162
467.346,24.26211,-2.73599,-0.05266453,0.84126
468.046,24.2843,-2.7361,-0.0484802,0.84089
468.746,24.30647,-2.73757,-0.04574695,0.84053
469.446,24.32866,-2.7393,-0.04114311,0.84016
470.146,24.35089,-2.74141,-0.03497366,0.8398
470.846,24.37315,-2.74405,-0.03188124,0.83943
471.546,24.39539,-2.74578,-0.03117288,0.83906
472.246,24.4177,-2.74691,-0.02520191,0.8387
472.946,24.43996,-2.74841,-0.01779494,0.83833
473.646,24.4622,-2.75137,-0.01662026,0.83796
474.346,24.48447,-2.75319,-0.01342378,0.8376
475.046,24.5067,-2.75476,-0.007029434,0.83723
475.746,24.52895,-2.75522,-0.0002716982,0.83686
476.446,24.5512,-2.75644,0.003120711,0.83649
477.146,24.57338,-2.75816,0.009059514,0.83612
477.846,24.59556,-2.75983,0.01117269,0.83576
478.546,24.61777,-2.76076,0.0174743,0.83539
479.246,24.64,-2.76178,0.0213302,0.83502
479.946,24.66228,-2.76328,0.02560231,0.83465
480.646,24.6846,-2.76482,0.03264754,0.83428
481.346,24.70686,-2.76632,0.03813216,0.83391
482.046,24.72915,-2.76714,0.04134981,0.83353
482.746,24.7515,-2.7681,0.0477849,0.83316
483.446,24.7738,-2.76882,0.05064957,0.83279
484.146,24.7961,-2.77021,0.05481205,0.83242
484.846,24.8184,-2.77074,0.05699115,0.83205
485.546,24.8406,-2.77181,0.06278996,0.83167
486.246,24.8629,-2.77334,0.06761453,0.8313
486.946,24.8852,-2.77478,0.07028986,0.83093
487.646,24.90756,-2.77594,0.07548882,0.83055
488.346,24.9299,-2.77636,0.07953897,0.83018
489.046,24.9523,-2.77739,0.08122829,0.8298
489.746,24.97457,-2.77904,0.0837074,0.82943
490.446,24.99693,-2.78036,0.08763757,0.82905
491.146,25.01933,-2.78267,0.09136988,0.82868
491.846,25.04166,-2.78355,0.09608727,0.8283
492.546,25.064,-2.78496,0.0984431,0.82792
493.246,25.08632,-2.78623,0.10028,0.82755
493.946,25.10865,-2.78674,0.10245,0.82717
494.646,25.131,-2.78666,0.10806,0.82679
495.346,25.15338,-2.78847,0.10876,0.82641
496.046,25.17575,-2.78866,0.11216,0.82603
496.746,25.19811,-2.78966,0.11576,0.82565
497.446,25.22051,-2.78965,0.11593,0.82527
498.146,25.2428,-2.79125,0.11632,0.82489
498.846,25.26516,-2.79143,0.12256,0.82451
499.546,25.28749,-2.79167,0.12511,0.82413
500.246,25.3098,-2.79283,0.12362,0.82375
500.946,25.33226,-2.79319,0.12802,0.82337
501.646,25.3547,-2.79574,0.13262,0.82299
502.346,25.37708,-2.79728,0.13219,0.82261
503.046,25.39947,-2.79721,0.1328,0.82222
503.746,25.42172,-2.79872,0.13469,0.82184
504.446,25.44412,-2.79979,0.13441,0.82146
505.146,25.46644,-2.80113,0.13785,0.82107
505.846,25.48883,-2.80116,0.13804,0.82069
506.546,25.51135,-2.80278,0.13875,0.8203
507.246,25.5337,-2.80282,0.14203,0.81992
507.946,25.55624,-2.80281,0.14049,0.81953
508.646,25.57871,-2.80272,0.14398,0.81915
509.346,25.60115,-2.80377,0.14198,0.81876
510.046,25.6236,-2.80417,0.14896,0.81837
510.746,25.64602,-2.80539,0.14716,0.81798
511.446,25.66837,-2.80695,0.14819,0.8176
512.146,25.69083,-2.80856,0.14875,0.81721
512.846,25.71324,-2.80952,0.14986,0.81682
513.546,25.73573,-2.81066,0.15169,0.81643
514.246,25.75829,-2.81271,0.1534,0.81604
514.946,25.7807,-2.8127,0.15361,0.81565
515.646,25.80322,-2.81429,0.15561,0.81526
516.346,25.82573,-2.81522,0.15406,0.81487
517.046,25.84814,-2.81564,0.15559,0.81448
517.746,25.8706,-2.81598,0.15596,0.81408
518.446,25.89307,-2.81599,0.1577,0.81369
519.146,25.91544,-2.81551,0.15859,0.8133
519.846,25.93797,-2.81695,0.16202,0.81291
520.546,25.96049,-2.81696,0.16057,0.81251
521.246,25.9831,-2.8169,0.16225,0.81212
521.946,26.00562,-2.81813,0.16282,0.81172
522.646,26.02809,-2.81711,0.16265,0.81133
523.346,26.05049,-2.81838,0.16155,0.81093
524.046,26.07295,-2.81932,0.16144,0.81054
524.746,26.0955,-2.81988,0.1632,0.81014
525.446,26.11795,-2.82117,0.1646,0.80974
526.146,26.14051,-2.82113,0.16198,0.80934
526.846,26.16309,-2.82127,0.16474,0.80895
527.546,26.1856,-2.82249,0.16632,0.80855
528.246,26.2082,-2.82241,0.1657,0.80815
528.946,26.23071,-2.82378,0.16272,0.80775
529.646,26.25324,-2.82376,0.1638,0.80735
530.346,26.27583,-2.82376,0.16556,0.80695
531.046,26.29846,-2.82376,0.16685,0.80655
531.746,26.3212,-2.8242,0.16498,0.80615
532.446,26.34375,-2.82523,0.16625,0.80575
533.146,26.36631,-2.82751,0.16509,0.80534
533.846,26.38888,-2.82916,0.16467,0.80494
534.546,26.41137,-2.8305,0.16705,0.80454
535.246,26.434,-2.83283,0.16617,0.80413
535.946,26.4566,-2.83329,0.16284,0.80373
536.646,26.47921,-2.83496,0.16356,0.80332
537.346,26.50185,-2.83607,0.1617,0.80292
538.046,26.5244,-2.83553,0.16277,0.80251
538.746,26.5469,-2.83663,0.16216,0.80211
539.446,26.56958,-2.83755,0.16091,0.8017
540.146,26.5923,-2.83876,0.15911,0.80129
540.846,26.6149,-2.83921,0.15857,0.80088
541.546,26.63771,-2.83919,0.15771,0.80048
542.246,26.66033,-2.84054,0.15726,0.80007
542.946,26.6829,-2.83917,0.15627,0.79966
543.646,26.70562,-2.83921,0.15413,0.79925
544.346,26.7282,-2.84041,0.15187,0.79884
545.046,26.75086,-2.84054,0.15161,0.79843
545.746,26.77357,-2.84054,0.14917,0.79802
546.446,26.79627,-2.84054,0.15087,0.7976
547.146,26.819,-2.84054,0.1457,0.79719
547.846,26.8417,-2.84192,0.14707,0.79678
548.546,26.8644,-2.84186,0.14532,0.79637
549.246,26.8871,-2.84199,0.14609,0.79595
549.946,26.90973,-2.84317,0.14408,0.79554
550.646,26.93243,-2.84317,0.14305,0.79512
551.346,26.9551,-2.84343,0.14025,0.79471
552.046,26.9779,-2.84463,0.1401,0.79429
552.746,27.00055,-2.84617,0.14016,0.79387
553.446,27.02321,-2.84629,0.13991,0.79346
554.146,27.0459,-2.84749,0.13802,0.79304
554.846,27.06865,-2.84745,0.13797,0.79262
555.546,27.09145,-2.84753,0.13705,0.7922
556.246,27.1142,-2.85,0.13449,0.79178
556.946,27.13692,-2.85008,0.13714,0.79136
557.646,27.1596,-2.85038,0.13609,0.79094
558.346,27.18228,-2.85138,0.1365,0.79052
559.046,27.20502,-2.85166,0.13847,0.7901
559.746,27.2278,-2.85275,0.13907,0.78968
560.446,27.25052,-2.85342,0.13999,0.78926
561.146,27.27328,-2.85416,0.14039,0.78883
561.846,27.29608,-2.85571,0.13913,0.78841
562.546,27.3189,-2.85574,0.14432,0.78798
563.246,27.3418,-2.85712,0.14522,0.78756
563.946,27.36463,-2.85756,0.14291,0.78713
564.646,27.38743,-2.85865,0.14763,0.78671
565.346,27.4102,-2.8602,0.14852,0.78628
566.046,27.433,-2.8602,0.14932,0.78586
566.746,27.4558,-2.8605,0.14877,0.78543
567.446,27.47865,-2.8615,0.15081,0.785
568.146,27.50153,-2.86069,0.1514,0.78457
568.846,27.52435,-2.86119,0.15206,0.78414
569.546,27.5472,-2.86148,0.15313,0.78371
570.246,27.57003,-2.86149,0.15105,0.78328
570.946,27.59289,-2.86149,0.15434,0.78285
571.646,27.61583,-2.8615,0.15438,0.78242
572.346,27.63873,-2.86204,0.15452,0.78199
573.046,27.6616,-2.86279,0.15225,0.78156
573.746,27.6845,-2.8636,0.15325,0.78112
574.446,27.70737,-2.86412,0.15465,0.78069
575.146,27.73031,-2.86481,0.15384,0.78026
575.846,27.7533,-2.86542,0.15262,0.77982
576.546,27.77621,-2.86643,0.15385,0.77939
577.246,27.7992,-2.86672,0.15415,0.77895
577.946,27.8221,-2.86807,0.15936,0.77851
578.646,27.84501,-2.86798,0.15856,0.77808
579.346,27.86784,-2.86938,0.15637,0.77764
580.046,27.8907,-2.86939,0.15869,0.7772
580.746,27.9136,-2.86939,0.16002,0.77676
581.446,27.9366,-2.86938,0.16025,0.77632
582.146,27.9596,-2.87068,0.16028,0.77588
582.846,27.98252,-2.8707,0.16279,0.77544
583.546,28.00549,-2.87022,0.16376,0.775
584.246,28.02838,-2.87022,0.1633,0.77456
584.946,28.0513,-2.8707,0.16271,0.77412
585.646,28.0743,-2.87071,0.16473,0.77367
586.346,28.09722,-2.87113,0.16315,0.77323
587.046,28.1202,-2.87202,0.16567,0.77279
587.746,28.1431,-2.87323,0.16561,0.77234
588.446,28.1661,-2.87338,0.16812,0.7719
589.146,28.1891,-2.87473,0.16776,0.77145
589.846,28.21205,-2.87472,0.16513,0.771
590.546,28.23507,-2.87602,0.16449,0.77056
591.246,28.25814,-2.87628,0.16521,0.77011
591.946,28.2811,-2.87738,0.16458,0.76966
592.646,28.3041,-2.87738,0.16623,0.76921
593.346,28.32705,-2.87847,0.16559,0.76876
594.046,28.35,-2.87871,0.16155,0.76831
594.746,28.37305,-2.87865,0.1667,0.76786
595.446,28.39603,-2.87989,0.16702,0.76741
596.146,28.41909,-2.88134,0.16616,0.76696
596.846,28.4421,-2.88132,0.16364,0.76651
597.546,28.46514,-2.88241,0.16368,0.76606
598.246,28.48814,-2.88138,0.16182,0.7656
598.946,28.5111,-2.88122,0.16227,0.76515
599.646,28.5342,-2.87982,0.16237,0.76469
600.346,28.5573,-2.87991,0.16363,0.76424
601.046,28.5803,-2.88125,0.16256,0.76378
601.746,28.6034,-2.87988,0.16082,0.76333
602.446,28.62642,-2.87993,0.16203,0.76287
603.146,28.64947,-2.88054,0.16105,0.76241
603.846,28.67251,-2.88121,0.1607,0.76195
604.546,28.69548,-2.88214,0.16343,0.76149
605.246,28.71828,-2.88255,0.16234,0.76104
605.946,28.74108,-2.88331,0.15929,0.76058
606.646,28.764,-2.88531,0.15915,0.76011
607.346,28.7872,-2.88682,0.15769,0.75965
608.046,28.8104,-2.88839,0.15687,0.75919
608.746,28.83365,-2.88932,0.15938,0.75873
609.446,28.8568,-2.8893,0.15696,0.75827
610.146,28.87985,-2.89066,0.15457,0.7578
610.846,28.90297,-2.89066,0.15278,0.75734
611.546,28.9261,-2.89066,0.15326,0.75687
612.246,28.94919,-2.89066,0.15359,0.75641
612.946,28.97219,-2.89066,0.15297,0.75594
613.646,28.99529,-2.89067,0.15088,0.75547
614.346,29.0184,-2.89118,0.15177,0.75501
615.046,29.04143,-2.89197,0.15073,0.75454
615.746,29.06462,-2.89203,0.15032,0.75407
616.446,29.08775,-2.89334,0.14853,0.7536
617.146,29.11093,-2.89333,0.14826,0.75313
617.846,29.13403,-2.89466,0.15004,0.75266
618.546,29.1571,-2.89461,0.1483,0.75219
619.246,29.18018,-2.89461,0.14786,0.75172
619.946,29.20327,-2.89462,0.14986,0.75125
620.646,29.22645,-2.89483,0.14904,0.75077
621.346,29.24956,-2.89492,0.14957,0.7503
622.046,29.27265,-2.89595,0.15149,0.74983
622.746,29.29575,-2.89593,0.14952,0.74935
623.446,29.31883,-2.89593,0.14851,0.74887
624.146,29.3419,-2.89594,0.14694,0.7484
624.846,29.36497,-2.89718,0.14826,0.74792
625.546,29.3881,-2.89692,0.14981,0.74744
626.246,29.4112,-2.89662,0.15224,0.74697
626.946,29.4344,-2.89796,0.15247,0.74649
627.646,29.45754,-2.89808,0.15452,0.74601
628.346,29.48071,-2.89922,0.15386,0.74553
629.046,29.50388,-2.89927,0.15846,0.74505
629.746,29.52702,-2.9006,0.158,0.74457
630.446,29.55022,-2.90054,0.15907,0.74409
631.146,29.5734,-2.90055,0.15881,0.7436
631.846,29.5966,-2.90091,0.16422,0.74312
632.546,29.61976,-2.90197,0.16168,0.74264
633.246,29.6429,-2.90217,0.16553,0.74215
633.946,29.66607,-2.90274,0.16769,0.74167
634.646,29.68927,-2.90332,0.16942,0.74118
635.346,29.7125,-2.90317,0.17156,0.7407
636.046,29.73568,-2.90368,0.17329,0.74021
636.746,29.7589,-2.90404,0.17928,0.73972
637.446,29.78205,-2.90405,0.17656,0.73924
638.146,29.80525,-2.90405,0.1796,0.73875
638.846,29.8284,-2.90428,0.18124,0.73826
639.546,29.8516,-2.90614,0.18348,0.73777
640.246,29.8749,-2.90658,0.18369,0.73728
640.946,29.89807,-2.90809,0.18779,0.73679
641.646,29.92131,-2.90889,0.19109,0.73629
642.346,29.94443,-2.90952,0.19101,0.7358
643.046,29.96762,-2.91067,0.19253,0.73531
643.746,29.9909,-2.91085,0.1958,0.73482
644.446,30.0141,-2.91081,0.19992,0.73432
645.146,30.03738,-2.91206,0.20316,0.73383
645.846,30.06066,-2.91217,0.20765,0.73333
646.546,30.0839,-2.91356,0.21115,0.73283
647.246,30.10711,-2.91278,0.21407,0.73234
647.946,30.13032,-2.91216,0.2159,0.73184
648.646,30.1535,-2.91219,0.2202,0.73134
649.346,30.17667,-2.91354,0.22165,0.73084
650.046,30.1999,-2.91348,0.22668,0.73034
650.746,30.2231,-2.9135,0.23006,0.72984
651.446,30.2463,-2.91409,0.23401,0.72934
652.146,30.26957,-2.9148,0.23852,0.72884
652.846,30.29284,-2.91492,0.24139,0.72834
653.546,30.31607,-2.91626,0.2433,0.72784
654.246,30.3393,-2.91618,0.2512,0.72733
654.946,30.36246,-2.91755,0.25892,0.72683
655.646,30.3856,-2.91761,0.26206,0.72633
656.346,30.40877,-2.91899,0.27056,0.72582
657.046,30.43202,-2.91912,0.27462,0.72532
657.746,30.45523,-2.9203,0.27679,0.72481
658.446,30.47847,-2.92081,0.2813,0.7243
659.146,30.50174,-2.92159,0.28794,0.72379
659.846,30.5249,-2.9216,0.29678,0.72329
660.546,30.5481,-2.92161,0.30133,0.72278
661.246,30.57122,-2.92236,0.30798,0.72227
661.946,30.59433,-2.92293,0.31094,0.72176
662.646,30.6175,-2.92452,0.32071,0.72125
663.346,30.64064,-2.92599,0.32386,0.72074
664.046,30.6639,-2.92504,0.33494,0.72022
664.746,30.68715,-2.9262,0.34138,0.71971
665.446,30.71037,-2.92754,0.35021,0.7192
666.146,30.73364,-2.92768,0.35684,0.71868
666.846,30.75685,-2.929,0.36135,0.71817
667.546,30.77999,-2.92873,0.37235,0.71765
668.246,30.8032,-2.92907,0.37766,0.71714
668.946,30.82633,-2.92942,0.38447,0.71662
669.646,30.8496,-2.93038,0.39317,0.7161
670.346,30.87283,-2.93035,0.4029,0.71559
671.046,30.896,-2.93165,0.4093,0.71507
671.746,30.9193,-2.93308,0.41767,0.71455
672.446,30.94244,-2.93463,0.42655,0.71403
673.146,30.9656,-2.93653,0.43789,0.71351
673.846,30.98878,-2.93845,0.44698,0.71299
674.546,31.01193,-2.9393,0.4584,0.71247
675.246,31.0351,-2.94072,0.47098,0.71194
675.946,31.0584,-2.9415,0.47996,0.71142
676.646,31.0816,-2.94223,0.48898,0.7109
677.346,31.1048,-2.94391,0.49912,0.71037
678.046,31.128,-2.94534,0.51155,0.70985
678.746,31.15118,-2.94706,0.52017,0.70932
679.446,31.17437,-2.94744,0.52872,0.7088
680.146,31.19759,-2.94833,0.53806,0.70827
680.846,31.2208,-2.94988,0.54775,0.70774
681.546,31.244,-2.9494,0.56176,0.70722
682.246,31.2672,-2.95005,0.57241,0.70669
682.946,31.2904,-2.95167,0.58129,0.70616
683.646,31.31359,-2.95195,0.59639,0.70563
684.346,31.33672,-2.95308,0.60507,0.7051
685.046,31.35988,-2.95306,0.61832,0.70457
685.746,31.3829,-2.95439,0.62912,0.70403
686.446,31.4061,-2.95429,0.63638,0.7035
687.146,31.42936,-2.95593,0.64608,0.70297
687.846,31.45256,-2.95724,0.65771,0.70243
688.546,31.47598,-2.95808,0.67296,0.7019
689.246,31.49925,-2.95899,0.68386,0.70137
689.946,31.52246,-2.96054,0.69585,0.70083
690.646,31.54573,-2.96199,0.70757,0.70029
691.346,31.5689,-2.96352,0.72088,0.69976
692.046,31.59208,-2.96431,0.73036,0.69922
692.746,31.6153,-2.9652,0.74349,0.69868
693.446,31.63852,-2.96672,0.75281,0.69814
694.146,31.66174,-2.96842,0.76295,0.6976
694.846,31.685,-2.96963,0.77613,0.69706
695.546,31.70822,-2.97055,0.78504,0.69652
696.246,31.73145,-2.97246,0.79586,0.69598
696.946,31.7547,-2.97455,0.80399,0.69544
697.646,31.7779,-2.97607,0.8128,0.6949
698.346,31.8013,-2.97767,0.82287,0.69435
699.046,31.82453,-2.97962,0.82997,0.69381
699.746,31.8478,-2.98129,0.83749,0.69327
700.446,31.87104,-2.98272,0.84642,0.69272
701.146,31.8943,-2.98382,0.85251,0.69218
701.846,31.91767,-2.98515,0.85775,0.69163
702.546,31.94102,-2.98675,0.86211,0.69108
703.246,31.96439,-2.98793,0.86404,0.69053
703.946,31.9876,-2.98918,0.86735,0.68999
704.646,32.01083,-2.99093,0.87295,0.68944
705.346,32.03409,-2.99267,0.87249,0.68889
706.046,32.05731,-2.99433,0.87192,0.68834
706.746,32.08057,-2.99598,0.87534,0.68779
707.446,32.1039,-2.99751,0.87457,0.68724
708.146,32.12713,-2.99906,0.86673,0.68668
708.846,32.15041,-3.00019,0.86049,0.68613
709.546,32.17372,-3.00148,0.85429,0.68558
710.246,32.19697,-3.00303,0.84678,0.68502
710.946,32.22034,-3.0042,0.83861,0.68447
711.646,32.24369,-3.00605,0.82607,0.68392
712.346,32.26698,-3.00678,0.81617,0.68336
713.046,32.29034,-3.00839,0.80383,0.6828
713.746,32.31368,-3.00968,0.79128,0.68225
714.446,32.33701,-3.01115,0.7765,0.68169
715.146,32.36036,-3.01278,0.76244,0.68113
715.846,32.38371,-3.01356,0.74888,0.68057
716.546,32.407,-3.01502,0.73015,0.68001
717.246,32.43036,-3.01673,0.71812,0.67945
717.946,32.45366,-3.01796,0.70372,0.67889
718.646,32.47694,-3.02032,0.68789,0.67833
719.346,32.50031,-3.02197,0.67059,0.67777
720.046,32.52368,-3.02227,0.65848,0.67721
720.746,32.5471,-3.02436,0.63623,0.67664
721.446,32.57034,-3.02495,0.61714,0.67608
722.146,32.59368,-3.02585,0.58598,0.67552
722.846,32.61691,-3.02724,0.55887,0.67495
723.546,32.64028,-3.0278,0.51898,0.67439
724.246,32.6638,-3.02733,0.46871,0.67382
724.946,32.68717,-3.02864,0.41528,0.67325
725.646,32.7106,-3.02882,0.34187,0.67269
726.346,32.73395,-3.0294,0.26323,0.67212
727.046,32.7573,-3.0309,0.18453,0.67155
727.746,32.78067,-3.03249,0.12514,0.67098
728.446,32.80396,-3.0341,0.07352382,0.67041
729.146,32.8273,-3.03497,0.03700985,0.66984
729.846,32.8506,-3.0355,0.007776968,0.66927
730.546,32.8739,-3.03641,-0.01648332,0.6687
731.246,32.89733,-3.03644,-0.03219351,0.66813
731.946,32.9206,-3.03644,-0.04762591,0.66755
732.646,32.94397,-3.03644,-0.05735892,0.66698
733.346,32.9674,-3.03644,-0.06161404,0.66641
734.046,32.9907,-3.03644,-0.07204547,0.66583
734.746,33.01415,-3.0364,-0.07651264,0.66526
735.446,33.03759,-3.03507,-0.08407966,0.66468
736.146,33.061,-3.03512,-0.09102768,0.6641
736.846,33.08447,-3.03512,-0.09542357,0.66353
737.546,33.1079,-3.03512,-0.10046,0.66295
738.246,33.13129,-3.03512,-0.10254,0.66237
738.946,33.1547,-3.03514,-0.10103,0.66179
739.646,33.17812,-3.03593,-0.10695,0.66121
740.346,33.20151,-3.03644,-0.11378,0.66063
741.046,33.22489,-3.03645,-0.11126,0.66005
741.746,33.24828,-3.03695,-0.11663,0.65947
742.446,33.27173,-3.03774,-0.11652,0.65889
743.146,33.2952,-3.03775,-0.11822,0.65831
743.846,33.31862,-3.03775,-0.12307,0.65772
744.546,33.34206,-3.03775,-0.12396,0.65714
745.246,33.3655,-3.03773,-0.12546,0.65656
745.946,33.3889,-3.03715,-0.12801,0.65597
746.646,33.41237,-3.03707,-0.12629,0.65539
747.346,33.4358,-3.03821,-0.13287,0.6548
748.046,33.4593,-3.03841,-0.13413,0.65421
748.746,33.4828,-3.03725,-0.13672,0.65363
749.446,33.50629,-3.0371,-0.13673,0.65304
750.146,33.52977,-3.0371,-0.14273,0.65245
750.846,33.5532,-3.0371,-0.14211,0.65186
751.546,33.5766,-3.0371,-0.1441,0.65127
752.246,33.6001,-3.0371,-0.1446,0.65068
752.946,33.62353,-3.03848,-0.14743,0.65009
753.646,33.64705,-3.03892,-0.14683,0.6495
754.346,33.6706,-3.04011,-0.15107,0.64891
755.046,33.69413,-3.04039,-0.15121,0.64832
755.746,33.7177,-3.04039,-0.15218,0.64773
756.446,33.7412,-3.04039,-0.15241,0.64713
757.146,33.76458,-3.04039,-0.15691,0.64654
757.846,33.7881,-3.04059,-0.15539,0.64594
758.546,33.8116,-3.04169,-0.16202,0.64535
759.246,33.83514,-3.04169,-0.15983,0.64475
759.946,33.85865,-3.04236,-0.16353,0.64416
760.646,33.88216,-3.04204,-0.16256,0.64356
761.346,33.90562,-3.04202,-0.16194,0.64296
762.046,33.9291,-3.04199,-0.1662,0.64237
762.746,33.95268,-3.04336,-0.16252,0.64177
763.446,33.97618,-3.04335,-0.16688,0.64117
764.146,33.99973,-3.04335,-0.16459,0.64057
764.846,34.02322,-3.04335,-0.16504,0.63997
765.546,34.0467,-3.04347,-0.16607,0.63937
766.246,34.0702,-3.04467,-0.16915,0.63877
766.946,34.09377,-3.04467,-0.16794,0.63817
767.646,34.1173,-3.04466,-0.17392,0.63756
768.346,34.14091,-3.04432,-0.16967,0.63696
769.046,34.16451,-3.04434,-0.17328,0.63636
769.746,34.18805,-3.04431,-0.17391,0.63575
770.446,34.21161,-3.04463,-0.17432,0.63515
771.146,34.23516,-3.04555,-0.17439,0.63454
771.846,34.25868,-3.04564,-0.17484,0.63394
772.546,34.2823,-3.04493,-0.17335,0.63333
773.246,34.30583,-3.04499,-0.17956,0.63272
773.946,34.32942,-3.04499,-0.1808,0.63212
774.646,34.353,-3.04499,-0.18023,0.63151
775.346,34.37659,-3.04499,-0.18315,0.6309
776.046,34.40018,-3.04499,-0.18286,0.63029
776.746,34.42373,-3.04498,-0.182,0.62968
777.446,34.4473,-3.04449,-0.18207,0.62907
778.146,34.47084,-3.04434,-0.18304,0.62846
778.846,34.4944,-3.04436,-0.18559,0.62785
779.546,34.518,-3.04513,-0.18351,0.62724
780.246,34.5415,-3.04566,-0.18518,0.62663
780.946,34.5651,-3.04566,-0.18656,0.62601
781.646,34.5887,-3.04566,-0.18649,0.6254
782.346,34.61227,-3.04705,-0.18934,0.62479
783.046,34.6359,-3.04698,-0.18331,0.62417
783.746,34.65945,-3.04697,-0.18633,0.62356
784.446,34.68306,-3.04719,-0.18438,0.62294
785.146,34.70661,-3.04703,-0.18826,0.62233
785.846,34.73021,-3.04708,-0.18751,0.62171
786.546,34.75376,-3.04805,-0.18369,0.62109
787.246,34.77737,-3.04839,-0.1862,0.62048
787.946,34.80097,-3.0484,-0.18512,0.61986
788.646,34.8245,-3.0484,-0.18577,0.61924
789.346,34.8481,-3.0484,-0.18687,0.61862
790.046,34.87164,-3.0484,-0.18507,0.618
790.746,34.89528,-3.0484,-0.1844,0.61738
791.446,34.91885,-3.04841,-0.19025,0.61676
792.146,34.94242,-3.04918,-0.19038,0.61614
792.846,34.966,-3.04938,-0.18785,0.61552
793.546,34.98962,-3.04938,-0.18761,0.6149
794.246,35.01325,-3.04938,-0.19048,0.61427
794.946,35.0368,-3.04938,-0.19209,0.61365
795.646,35.06043,-3.04938,-0.18757,0.61303
796.346,35.08395,-3.04938,-0.19078,0.6124
797.046,35.10756,-3.04938,-0.19271,0.61178
797.746,35.13108,-3.04938,-0.19307,0.61115
798.446,35.15462,-3.04938,-0.19439,0.61053
799.146,35.17817,-3.04938,-0.1916,0.6099
799.846,35.20171,-3.04936,-0.19331,0.60928
800.546,35.22527,-3.04921,-0.19622,0.60865
801.246,35.24888,-3.04872,-0.19135,0.60802
801.946,35.27247,-3.05013,-0.19464,0.60739
802.646,35.2961,-3.05005,-0.19241,0.60676
803.346,35.31977,-3.05004,-0.19392,0.60613
804.046,35.3434,-3.05013,-0.19314,0.60551
804.746,35.36701,-3.05269,-0.18494,0.60488
805.446,35.39063,-3.05268,-0.18999,0.60424
806.146,35.41422,-3.05268,-0.18897,0.60361
806.846,35.43783,-3.05268,-0.19332,0.60298
807.546,35.46147,-3.05268,-0.18464,0.60235
808.246,35.48507,-3.05268,-0.18765,0.60172
808.946,35.50865,-3.0529,-0.18582,0.60108
809.646,35.53221,-3.05397,-0.18785,0.60045
810.346,35.5558,-3.05399,-0.18812,0.59982
811.046,35.5794,-3.05399,-0.19357,0.59918
811.746,35.60303,-3.05397,-0.18962,0.59855
812.446,35.62665,-3.05333,-0.18824,0.59791
813.146,35.6502,-3.05269,-0.18517,0.59728
813.846,35.67391,-3.05294,-0.18451,0.59664
814.546,35.69748,-3.05247,-0.18829,0.596
815.246,35.72104,-3.05246,-0.18182,0.59537
815.946,35.74462,-3.05287,-0.18649,0.59473
816.646,35.76818,-3.05377,-0.18486,0.59409
817.346,35.79186,-3.05376,-0.18188,0.59345
818.046,35.8155,-3.05325,-0.18373,0.59281
818.746,35.8391,-3.05245,-0.18557,0.59217
819.446,35.86272,-3.05245,-0.18073,0.59153
820.146,35.8863,-3.05246,-0.18432,0.59089
820.846,35.90997,-3.05311,-0.18274,0.59025
821.546,35.9337,-3.05376,-0.18517,0.58961
822.246,35.9574,-3.05377,-0.18397,0.58897
822.946,35.98108,-3.05377,-0.18294,0.58833
823.646,36.00473,-3.05377,-0.18243,0.58768
824.346,36.02837,-3.05379,-0.17871,0.58704
825.046,36.05198,-3.05438,-0.18159,0.5864
825.746,36.07565,-3.05379,-0.17851,0.58575
826.446,36.09932,-3.05377,-0.17684,0.58511
827.146,36.12303,-3.05377,-0.17718,0.58446
827.846,36.1467,-3.05377,-0.17865,0.58382
828.546,36.1704,-3.05377,-0.18002,0.58317
829.246,36.19408,-3.05394,-0.17813,0.58253
829.946,36.21772,-3.05274,-0.17552,0.58188
830.646,36.2415,-3.0531,-0.17866,0.58123
831.346,36.2652,-3.05309,-0.17759,0.58058
832.046,36.2889,-3.05376,-0.17394,0.57994
832.746,36.31265,-3.05493,-0.17371,0.57929
833.446,36.33635,-3.05509,-0.17565,0.57864
834.146,36.35998,-3.05574,-0.17421,0.57799
834.846,36.38367,-3.05639,-0.17293,0.57734
835.546,36.40733,-3.05655,-0.17335,0.57669
836.246,36.43095,-3.0577,-0.17006,0.57604
836.946,36.4546,-3.05771,-0.17094,0.57539
837.646,36.47828,-3.05771,-0.17274,0.57474
838.346,36.502,-3.05775,-0.17317,0.57409
839.046,36.5257,-3.05645,-0.17018,0.57343
839.746,36.5495,-3.0564,-0.17376,0.57278
840.446,36.57307,-3.05638,-0.17189,0.57213
841.146,36.59668,-3.05566,-0.17501,0.57147
841.846,36.62039,-3.0564,-0.17571,0.57082
842.546,36.6446,-3.0564,-0.1735,0.57017
843.146,36.66495,-3.0564,-0.17098,0.56961