File: 01_Data/Pine_Lap_Siding/STA/N2/30K_min/Pine_Lap_Siding_STA_N2_30KData_220323_R3.csv
##Temp./Â°C,Time/min,Mass loss(subtr.2)/mg,DSC(subtr.2)/(mW/mg),Sensit./(uV/mW)
48.74,10.00917,-0.04815,0.02283143,1.08894
49.44,10.5528,-0.05026962,0.05671025,1.08835
50.14,10.676,-0.04847922,0.09014693,1.08776
50.84,10.76515,-0.05052613,0.12014,1.08717
51.54,10.83816,-0.05305648,0.14542,1.08658
52.24,10.90116,-0.05145422,0.17177,1.08599
52.94,10.95757,-0.05174745,0.19615,1.08541
53.64,11.00891,-0.05315985,0.21614,1.08482
54.34,11.05637,-0.05283326,0.23841,1.08423
55.04,11.1014,-0.05184183,0.25811,1.08365
55.74,11.14407,-0.05359997,0.27708,1.08307
56.44,11.18478,-0.05224841,0.29526,1.08248
57.14,11.22387,-0.05228189,0.31497,1.0819
57.84,11.2613,-0.05159052,0.33244,1.08132
58.54,11.29734,-0.05156607,0.3472,1.08074
59.24,11.3324,-0.05202237,0.36199,1.08016
59.94,11.3664,-0.05197347,0.37782,1.07958
60.64,11.39964,-0.05166036,0.39203,1.07901
61.34,11.43219,-0.05190488,0.40488,1.07843
62.04,11.46412,-0.05165331,0.42089,1.07785
62.74,11.4955,-0.0526529,0.43371,1.07728
63.44,11.52629,-0.0541266,0.44491,1.07671
64.14,11.5566,-0.05432562,0.4615,1.07613
64.84,11.58639,-0.05437546,0.47392,1.07556
65.54,11.61577,-0.05484329,0.4861,1.07499
66.24,11.6447,-0.05567099,0.49732,1.07442
66.94,11.67332,-0.05604899,0.50806,1.07385
67.64,11.70166,-0.05554958,0.52014,1.07328
68.34,11.72988,-0.0544122,0.53082,1.07271
69.04,11.7578,-0.05486075,0.54188,1.07214
69.74,11.78543,-0.05515431,0.5528,1.07158
70.44,11.81269,-0.05583042,0.56429,1.07101
71.14,11.83977,-0.05715601,0.57364,1.07045
71.84,11.86657,-0.05787099,0.58126,1.06988
72.54,11.89315,-0.0577449,0.59419,1.06932
73.24,11.9197,-0.05791538,0.60233,1.06876
73.94,11.94608,-0.05779549,0.61105,1.06819
74.64,11.97233,-0.05693528,0.62142,1.06763
75.34,11.99859,-0.05700289,0.63222,1.06707
76.04,12.02455,-0.05852512,0.6423,1.06652
76.74,12.0505,-0.05837603,0.6511,1.06596
77.44,12.07616,-0.05805712,0.65772,1.0654
78.14,12.10176,-0.05901479,0.66816,1.06484
78.84,12.12728,-0.0590504,0.67679,1.06429
79.54,12.1527,-0.05915824,0.68558,1.06373
80.24,12.17804,-0.05898287,0.69257,1.06318
80.94,12.2033,-0.05947834,0.70019,1.06263
81.64,12.22837,-0.05865698,0.70853,1.06207
82.34,12.25344,-0.05948747,0.71707,1.06152
83.04,12.27838,-0.06057465,0.7263,1.06097
83.74,12.3032,-0.06041844,0.73167,1.06042
84.44,12.3281,-0.06108345,0.74235,1.05987
85.14,12.3528,-0.06110866,0.7481,1.05933
85.84,12.3774,-0.06157963,0.75898,1.05878
86.54,12.4018,-0.0627387,0.76324,1.05823
87.24,12.42623,-0.06301771,0.77034,1.05769
87.94,12.45065,-0.06422649,0.77636,1.05714
88.64,12.475,-0.06353829,0.78412,1.0566
89.34,12.49951,-0.06415069,0.79081,1.05606
90.04,12.52378,-0.06545979,0.7999,1.05551
90.74,12.54807,-0.06622516,0.80669,1.05497
91.44,12.5722,-0.06762092,0.81341,1.05443
92.14,12.59636,-0.0688457,0.8164,1.05389
92.84,12.62036,-0.06724581,0.82227,1.05335
93.54,12.64432,-0.06627615,0.82758,1.05281
94.24,12.66831,-0.06598649,0.83041,1.05228
94.94,12.69225,-0.06495469,0.83628,1.05174
95.64,12.71618,-0.06492347,0.84137,1.05121
96.34,12.74008,-0.06499904,0.84631,1.05067
97.04,12.76398,-0.06521067,0.85034,1.05014
97.74,12.78767,-0.06489972,0.85322,1.0496
98.44,12.81134,-0.06628984,0.85826,1.04907
99.14,12.83494,-0.0665516,0.86236,1.04854
99.84,12.85865,-0.06768163,0.86461,1.04801
100.54,12.88246,-0.0682992,0.86896,1.04748
101.24,12.9064,-0.06800161,0.86985,1.04695
101.94,12.93018,-0.0693672,0.87183,1.04642
102.64,12.95359,-0.06924585,0.87531,1.0459
103.34,12.97711,-0.07072883,0.87777,1.04537
104.04,13.0007,-0.071526,0.87979,1.04484
104.74,13.0242,-0.07204727,0.87959,1.04432
105.44,13.04798,-0.07206044,0.87997,1.04379
106.14,13.07156,-0.07203087,0.87833,1.04327
106.84,13.09511,-0.07297301,0.87819,1.04275
107.54,13.11865,-0.07304353,0.87861,1.04223
108.24,13.1423,-0.07395492,0.87757,1.04171
108.94,13.16575,-0.07435041,0.87636,1.04119
109.64,13.18924,-0.07436001,0.87518,1.04067
110.34,13.21274,-0.07436002,0.87336,1.04015
111.04,13.2362,-0.07436004,0.87018,1.03963
111.74,13.25976,-0.07435975,0.8683,1.03912
112.44,13.2832,-0.07433314,0.86591,1.0386
113.14,13.3066,-0.0748685,0.86527,1.03808
113.84,13.3301,-0.07598789,0.86158,1.03757
114.54,13.35343,-0.07599219,0.85873,1.03706
115.24,13.3768,-0.07713996,0.85662,1.03654
115.94,13.4002,-0.07732357,0.85472,1.03603
116.64,13.4236,-0.07732049,0.85088,1.03552
117.34,13.44694,-0.07732002,0.84857,1.03501
118.04,13.4702,-0.07732,0.84679,1.0345
118.74,13.4935,-0.07732,0.84338,1.03399
119.44,13.5167,-0.07731997,0.83971,1.03348
120.14,13.53992,-0.07732026,0.83687,1.03298
120.84,13.5631,-0.07736118,0.83348,1.03247
121.54,13.5863,-0.07869563,0.83259,1.03197
122.24,13.6095,-0.07863976,0.82958,1.03146
122.94,13.6327,-0.07865837,0.82872,1.03096
123.64,13.6558,-0.0792908,0.82348,1.03045
124.34,13.67893,-0.07996328,0.82301,1.02995
125.04,13.70196,-0.07863262,0.82227,1.02945
125.74,13.7251,-0.07863283,0.81835,1.02895
126.44,13.74815,-0.07989259,0.81695,1.02845
127.14,13.77109,-0.07992939,0.81749,1.02795
127.84,13.79405,-0.08119479,0.81356,1.02745
128.54,13.8169,-0.08118506,0.81203,1.02695
129.24,13.8398,-0.08259216,0.81122,1.02646
129.94,13.8627,-0.08259048,0.81016,1.02596
130.64,13.88561,-0.08259002,0.81159,1.02547
131.34,13.90845,-0.08259,0.8112,1.02497
132.04,13.93123,-0.08259,0.80975,1.02448
132.74,13.95401,-0.08259003,0.80769,1.02399
133.44,13.97666,-0.08259046,0.80985,1.02349
134.14,13.99947,-0.08258868,0.80922,1.023
134.84,14.02219,-0.08118682,0.80683,1.02251
135.54,14.0448,-0.08127412,0.80833,1.02202
136.24,14.0675,-0.08127984,0.80931,1.02153
136.94,14.09002,-0.08128001,0.8097,1.02105
137.64,14.11268,-0.0812806,0.81029,1.02056
138.34,14.13531,-0.08129178,0.80932,1.02007
139.04,14.15795,-0.08181412,0.81075,1.01959
139.74,14.1805,-0.08149461,0.81176,1.0191
140.44,14.203,-0.08127087,0.81355,1.01862
141.14,14.22536,-0.08127005,0.81361,1.01813
141.84,14.2478,-0.08127,0.81609,1.01765
142.54,14.27015,-0.08127,0.81806,1.01717
143.24,14.2925,-0.08127,0.81797,1.01669
143.94,14.3149,-0.08127,0.82079,1.01621
144.64,14.33733,-0.08126999,0.82193,1.01573
145.34,14.3598,-0.0812701,0.82501,1.01525
146.04,14.38212,-0.08127825,0.82421,1.01477
146.74,14.40446,-0.08155432,0.82843,1.01429
147.44,14.4268,-0.08261495,0.83095,1.01381
148.14,14.4491,-0.08259012,0.83342,1.01334
148.84,14.47136,-0.08256771,0.83374,1.01286
149.54,14.4935,-0.08359496,0.83782,1.01239
150.24,14.5157,-0.08389049,0.8387,1.01191
150.94,14.53791,-0.08389977,0.83991,1.01144
151.64,14.5601,-0.08390001,0.84482,1.01097
152.34,14.5825,-0.0839,0.8454,1.0105
153.04,14.60467,-0.0839,0.84786,1.01003
153.74,14.6269,-0.0839,0.84885,1.00956
154.44,14.649,-0.0839,0.85404,1.00909
155.14,14.6711,-0.08390001,0.85376,1.00862
155.84,14.6932,-0.0839004,0.85739,1.00815
156.54,14.71538,-0.0839069,0.85807,1.00768
157.24,14.73744,-0.08397118,0.86067,1.00722
157.94,14.7595,-0.08257885,0.86511,1.00675
158.64,14.78157,-0.08259186,0.86528,1.00629
159.34,14.80357,-0.08297601,0.86659,1.00582
160.04,14.82564,-0.08390666,0.87131,1.00536
160.74,14.8477,-0.08391637,0.87121,1.0049
161.44,14.86974,-0.08324199,0.87569,1.00443
162.14,14.8918,-0.08324755,0.8777,1.00397
162.84,14.91375,-0.08323305,0.88006,1.00351
163.54,14.93576,-0.08279811,0.88296,1.00305
164.24,14.9577,-0.08259539,0.88373,1.00259
164.94,14.97964,-0.08258991,0.88826,1.00214
165.64,15.00155,-0.08259046,0.89098,1.00168
166.34,15.02348,-0.08260197,0.89157,1.00122
167.04,15.04549,-0.08295319,0.89476,1.00076
167.74,15.06744,-0.08394645,0.89723,1.00031
168.44,15.08947,-0.08492441,0.89863,0.99985
169.14,15.1113,-0.0852186,0.90307,0.9994
169.84,15.13306,-0.08521996,0.90334,0.99895
170.54,15.1548,-0.08522136,0.90691,0.99849
171.24,15.1767,-0.0852373,0.90975,0.99804
171.94,15.19866,-0.08585699,0.91217,0.99759
172.64,15.22071,-0.08588349,0.91395,0.99714
173.34,15.24271,-0.08588067,0.9169,0.99669
174.04,15.2645,-0.0858858,0.91921,0.99624
174.74,15.2864,-0.08479418,0.92135,0.99579
175.44,15.30819,-0.08457463,0.92765,0.99534
176.14,15.33,-0.08456978,0.92594,0.9949
176.84,15.35174,-0.0845699,0.92847,0.99445
177.54,15.3734,-0.08456851,0.9313,0.994
178.24,15.39515,-0.08454524,0.9331,0.99356
178.94,15.4168,-0.08517004,0.93619,0.99311
179.64,15.4385,-0.08521905,0.94027,0.99267
180.34,15.46028,-0.08522579,0.94147,0.99223
181.04,15.48192,-0.08662033,0.94282,0.99179
181.74,15.50356,-0.08653523,0.94652,0.99134
182.44,15.5252,-0.08650436,0.94871,0.9909
183.14,15.54681,-0.08714064,0.94694,0.99046
183.84,15.56843,-0.08718911,0.95224,0.99002
184.54,15.5901,-0.08719006,0.95462,0.98958
185.24,15.61165,-0.08719001,0.95646,0.98914
185.94,15.6331,-0.08718997,0.95949,0.98871
186.64,15.65466,-0.08718952,0.95972,0.98827
187.34,15.6762,-0.0871833,0.96428,0.98783
188.04,15.69776,-0.08712806,0.96782,0.9874
188.74,15.7193,-0.08851063,0.96958,0.98696
189.44,15.7409,-0.08851037,0.97135,0.98653
190.14,15.7624,-0.08851004,0.97346,0.98609
190.84,15.78384,-0.08851,0.97636,0.98566
191.54,15.80529,-0.08851,0.9767,0.98523
192.24,15.8267,-0.08851,0.98122,0.9848
192.94,15.8481,-0.08851,0.98441,0.98437
193.64,15.86956,-0.08850999,0.9845,0.98394
194.34,15.8909,-0.08850936,0.98656,0.98351
195.04,15.9124,-0.08849327,0.99044,0.98308
195.74,15.9338,-0.0890252,0.99169,0.98265
196.44,15.95525,-0.08916455,0.9936,0.98222
197.14,15.97671,-0.08916973,0.99616,0.98179
197.84,15.99802,-0.08939917,0.99924,0.98137
198.54,16.01942,-0.08947573,1.00081,0.98094
199.24,16.04073,-0.08917052,1.00361,0.98051
199.94,16.0621,-0.08919313,1.00554,0.98009
200.64,16.08349,-0.09058644,1.00606,0.97966
201.34,16.10489,-0.09049562,1.01014,0.97924
202.04,16.1263,-0.09048646,1.01213,0.97882
202.74,16.1476,-0.09045069,1.01331,0.9784
203.44,16.1689,-0.09177867,1.01776,0.97797
204.14,16.1902,-0.09244617,1.02144,0.97755
204.84,16.2115,-0.09282007,1.02023,0.97713
205.54,16.23281,-0.09279251,1.02381,0.97671
206.24,16.25408,-0.09279063,1.02601,0.97629
206.94,16.27533,-0.09279691,1.02673,0.97587
207.64,16.29658,-0.09287814,1.02836,0.97546
208.34,16.31784,-0.09148773,1.03273,0.97504
209.04,16.33915,-0.09148007,1.03342,0.97462
209.74,16.36046,-0.09186598,1.03578,0.97421
210.44,16.38171,-0.09220415,1.03587,0.97379
211.14,16.4029,-0.09245031,1.03927,0.97337
211.84,16.42415,-0.09245999,1.04303,0.97296
212.54,16.4454,-0.09246964,1.04144,0.97255
213.24,16.46661,-0.0927171,1.04719,0.97213
213.94,16.48791,-0.09278775,1.0483,0.97172
214.64,16.5091,-0.09278998,1.04788,0.97131
215.34,16.53033,-0.09279612,1.0515,0.9709
216.04,16.5516,-0.09419645,1.0539,0.97049
216.74,16.57271,-0.09411697,1.05547,0.97008
217.44,16.59392,-0.09411054,1.06033,0.96967
218.14,16.61508,-0.09411103,1.06334,0.96926
218.84,16.63629,-0.09412333,1.06433,0.96885
219.54,16.6575,-0.09463119,1.06658,0.96844
220.24,16.67868,-0.09543453,1.06904,0.96803
220.94,16.69984,-0.09542532,1.07205,0.96762
221.64,16.72095,-0.09629723,1.07508,0.96722
222.34,16.74214,-0.09808662,1.07511,0.96681
223.04,16.76334,-0.09804966,1.07928,0.96641
223.74,16.7845,-0.09799987,1.08022,0.966
224.44,16.8057,-0.09920784,1.08436,0.9656
225.14,16.82688,-0.09936376,1.08616,0.96519
225.84,16.84804,-0.09937034,1.08676,0.96479
226.54,16.8691,-0.09937022,1.08867,0.96439
227.24,16.8903,-0.10012,1.09216,0.96399
227.94,16.9114,-0.10067,1.0919,0.96359
228.64,16.9325,-0.1007,1.09332,0.96318
229.34,16.9536,-0.10108,1.09543,0.96278
230.04,16.97472,-0.10201,1.09844,0.96238
230.74,16.99585,-0.10201,1.09949,0.96198
231.44,17.01701,-0.10248,1.09936,0.96159
232.14,17.03813,-0.10333,1.10294,0.96119
232.84,17.05931,-0.10332,1.10539,0.96079
233.54,17.08042,-0.10408,1.10875,0.96039
234.24,17.1015,-0.10458,1.10813,0.96
234.94,17.12259,-0.10599,1.10976,0.9596
235.64,17.14369,-0.10732,1.11359,0.9592
236.34,17.16483,-0.10727,1.11301,0.95881
237.04,17.18596,-0.10722,1.11607,0.95841
237.74,17.20704,-0.1085,1.11704,0.95802
238.44,17.2282,-0.10859,1.12111,0.95763
239.14,17.24932,-0.10859,1.12039,0.95723
239.84,17.2704,-0.10966,1.12127,0.95684
240.54,17.2915,-0.10987,1.12383,0.95645
241.24,17.31257,-0.11084,1.12733,0.95606
241.94,17.33361,-0.11116,1.13078,0.95567
242.64,17.35475,-0.11231,1.13295,0.95527
243.34,17.37586,-0.11252,1.13458,0.95488
244.04,17.39694,-0.11377,1.13627,0.9545
244.74,17.41797,-0.11395,1.13799,0.95411
245.44,17.43899,-0.11527,1.13823,0.95372
246.14,17.46002,-0.11529,1.13884,0.95333
246.84,17.48116,-0.11679,1.1416,0.95294
247.54,17.50231,-0.11684,1.14298,0.95255
248.24,17.52355,-0.11819,1.14476,0.95217
248.94,17.5447,-0.11905,1.14681,0.95178
249.64,17.56579,-0.11945,1.15008,0.9514
250.34,17.58691,-0.12021,1.1514,0.95101
251.04,17.60803,-0.12076,1.15416,0.95063
251.74,17.6291,-0.1223,1.15679,0.95024
252.44,17.65016,-0.12318,1.15699,0.94986
253.14,17.67126,-0.12421,1.16104,0.94947
253.84,17.69235,-0.12569,1.16292,0.94909
254.54,17.71341,-0.1249,1.16424,0.94871
255.24,17.7346,-0.12609,1.16756,0.94833
255.94,17.75561,-0.12744,1.16988,0.94794
256.64,17.77671,-0.1281,1.16887,0.94756
257.34,17.79785,-0.12904,1.17451,0.94718
258.04,17.81891,-0.13062,1.17709,0.9468
258.74,17.84003,-0.13223,1.1799,0.94642
259.44,17.86114,-0.13514,1.18232,0.94604
260.14,17.8821,-0.13616,1.18498,0.94566
260.84,17.90314,-0.13717,1.18756,0.94528
261.54,17.9242,-0.13858,1.18994,0.94491
262.24,17.94533,-0.14024,1.19377,0.94453
262.94,17.96645,-0.14155,1.19399,0.94415
263.64,17.98766,-0.14331,1.19873,0.94377
264.34,18.00874,-0.14529,1.19922,0.9434
265.04,18.02985,-0.14783,1.20312,0.94302
265.74,18.051,-0.14945,1.20431,0.94265
266.44,18.07207,-0.15094,1.2079,0.94227
267.14,18.09323,-0.15255,1.21049,0.9419
267.84,18.11439,-0.154,1.21048,0.94152
268.54,18.13549,-0.15556,1.21608,0.94115
269.24,18.1566,-0.15696,1.21732,0.94077
269.94,18.17769,-0.15905,1.2208,0.9404
270.64,18.1988,-0.16067,1.22201,0.94003
271.34,18.21995,-0.16285,1.2238,0.93965
272.04,18.24111,-0.16501,1.22451,0.93928
272.74,18.26224,-0.1673,1.22767,0.93891
273.44,18.28335,-0.16824,1.22891,0.93854
274.14,18.30444,-0.17038,1.23269,0.93817
274.84,18.32555,-0.17277,1.23217,0.9378
275.54,18.3467,-0.17499,1.23756,0.93743
276.24,18.36785,-0.17739,1.23766,0.93706
276.94,18.38898,-0.17996,1.24096,0.93669
277.64,18.41019,-0.18383,1.24125,0.93632
278.34,18.43141,-0.18636,1.24462,0.93595
279.04,18.45257,-0.18893,1.2454,0.93558
279.74,18.47379,-0.19197,1.24729,0.93522
280.44,18.4949,-0.1951,1.24964,0.93485
281.14,18.51604,-0.19773,1.25089,0.93448
281.84,18.53718,-0.19962,1.25325,0.93411
282.54,18.5583,-0.20246,1.25605,0.93375
283.24,18.5795,-0.20561,1.2581,0.93338
283.94,18.60066,-0.20966,1.25781,0.93302
284.64,18.62189,-0.21334,1.26194,0.93265
285.34,18.64305,-0.21633,1.26278,0.93229
286.04,18.66424,-0.21963,1.26448,0.93192
286.74,18.68543,-0.22241,1.26719,0.93156
287.44,18.70663,-0.22544,1.26806,0.93119
288.14,18.7279,-0.22898,1.26788,0.93083
288.84,18.74907,-0.23285,1.27153,0.93046
289.54,18.77024,-0.23663,1.2746,0.9301
290.24,18.7914,-0.23931,1.2754,0.92974
290.94,18.81251,-0.24258,1.27656,0.92938
291.64,18.83365,-0.24579,1.2808,0.92901
292.34,18.85483,-0.24863,1.28267,0.92865
293.04,18.87603,-0.2535,1.28371,0.92829
293.74,18.8973,-0.25809,1.28615,0.92793
294.44,18.91848,-0.26252,1.28871,0.92757
295.14,18.93968,-0.26734,1.28938,0.92721
295.84,18.96088,-0.27173,1.29261,0.92685
296.54,18.98205,-0.27602,1.29401,0.92649
297.24,19.00321,-0.28077,1.29584,0.92613
297.94,19.0244,-0.28574,1.29838,0.92577
298.64,19.0457,-0.29007,1.29976,0.92541
299.34,19.06702,-0.29435,1.29988,0.92505
300.04,19.08832,-0.29769,1.30379,0.92469
300.74,19.10947,-0.30227,1.30546,0.92434
301.44,19.1306,-0.30773,1.30734,0.92398
302.14,19.15178,-0.31346,1.31202,0.92362
302.84,19.17299,-0.31898,1.31364,0.92326
303.54,19.1942,-0.3248,1.31582,0.92291
304.24,19.21545,-0.33003,1.31705,0.92255
304.94,19.23666,-0.33653,1.32024,0.92219
305.64,19.25787,-0.34157,1.32135,0.92184
306.34,19.27911,-0.3479,1.32617,0.92148
307.04,19.30031,-0.35236,1.32753,0.92112
307.74,19.32163,-0.35789,1.33249,0.92077
308.44,19.3429,-0.36288,1.3346,0.92041
309.14,19.3642,-0.36994,1.33835,0.92006
309.84,19.38533,-0.37718,1.3424,0.9197
310.54,19.40646,-0.38486,1.34506,0.91935
311.24,19.42766,-0.39105,1.34709,0.919
311.94,19.44877,-0.39772,1.35386,0.91864
312.64,19.47009,-0.40421,1.35718,0.91829
313.34,19.49145,-0.41107,1.36205,0.91793
314.04,19.51265,-0.41854,1.36576,0.91758
314.74,19.534,-0.42514,1.37162,0.91723
315.44,19.5553,-0.43316,1.37759,0.91688
316.14,19.57658,-0.43991,1.38276,0.91652
316.84,19.59777,-0.4482,1.38633,0.91617
317.54,19.61905,-0.45515,1.39234,0.91582
318.24,19.6403,-0.46394,1.39492,0.91547
318.94,19.66155,-0.47112,1.40031,0.91512
319.64,19.68282,-0.47949,1.40612,0.91476
320.34,19.70413,-0.48667,1.41412,0.91441
321.04,19.72542,-0.49531,1.42115,0.91406
321.74,19.7468,-0.50286,1.42926,0.91371
322.44,19.76812,-0.51134,1.43534,0.91336
323.14,19.7894,-0.5199,1.44227,0.91301
323.84,19.8107,-0.5297,1.45012,0.91266
324.54,19.83193,-0.5399,1.45702,0.91231
325.24,19.85318,-0.54927,1.46454,0.91196
325.94,19.87451,-0.55945,1.47327,0.91161
326.64,19.89586,-0.5691,1.48141,0.91126
327.34,19.91718,-0.5791,1.48991,0.91091
328.04,19.9385,-0.5877,1.49838,0.91056
328.74,19.9599,-0.59922,1.50945,0.91021
329.44,19.98118,-0.6084,1.51647,0.90987
330.14,20.00248,-0.61969,1.52458,0.90952
330.84,20.02381,-0.62945,1.53486,0.90917
331.54,20.04513,-0.64125,1.54475,0.90882
332.24,20.06648,-0.65185,1.55384,0.90847
332.94,20.08788,-0.66442,1.56167,0.90812
333.64,20.10926,-0.6766,1.57181,0.90778
334.34,20.1307,-0.68891,1.58223,0.90743
335.04,20.15204,-0.70122,1.5943,0.90708
335.74,20.17336,-0.71187,1.60544,0.90673
336.44,20.19474,-0.72487,1.61538,0.90639
337.14,20.21606,-0.736,1.62353,0.90604
337.84,20.23741,-0.74986,1.63499,0.90569
338.54,20.2588,-0.76293,1.64506,0.90535
339.24,20.2801,-0.77769,1.65438,0.905
339.94,20.30144,-0.78937,1.66346,0.90465
340.64,20.32282,-0.80439,1.67368,0.90431
341.34,20.3443,-0.817,1.68433,0.90396
342.04,20.36572,-0.83228,1.69182,0.90362
342.74,20.38704,-0.84598,1.70254,0.90327
343.44,20.40846,-0.8613,1.71005,0.90293
344.14,20.42984,-0.87571,1.7175,0.90258
344.84,20.45119,-0.88996,1.72694,0.90223
345.54,20.47263,-0.90567,1.7341,0.90189
346.24,20.49409,-0.92053,1.74391,0.90154
346.94,20.51553,-0.93684,1.75156,0.9012
347.64,20.53705,-0.95038,1.75599,0.90085
348.34,20.5585,-0.96791,1.76587,0.90051
349.04,20.57998,-0.98252,1.7735,0.90016
349.74,20.60143,-1.00133,1.77893,0.89982
350.44,20.62288,-1.01543,1.78569,0.89947
351.14,20.6444,-1.0329,1.79109,0.89913
351.84,20.66582,-1.04804,1.79715,0.89879
352.54,20.68729,-1.06574,1.80386,0.89844
353.24,20.70879,-1.08214,1.80899,0.8981
353.94,20.7303,-1.09917,1.815,0.89775
354.64,20.75187,-1.11671,1.82115,0.89741
355.34,20.77339,-1.13345,1.82568,0.89707
356.04,20.79491,-1.1523,1.83198,0.89672
356.74,20.8164,-1.1684,1.83506,0.89638
357.44,20.83786,-1.18748,1.84445,0.89603
358.14,20.85941,-1.20279,1.84878,0.89569
358.84,20.88091,-1.22217,1.85603,0.89535
359.54,20.90247,-1.2378,1.86033,0.895
360.24,20.92406,-1.25699,1.86841,0.89466
360.94,20.9456,-1.27423,1.87751,0.89432
361.64,20.96715,-1.29383,1.88491,0.89397
362.34,20.98868,-1.31128,1.89235,0.89363
363.04,21.01024,-1.32893,1.90113,0.89329
363.74,21.03179,-1.34732,1.91266,0.89294
364.44,21.05341,-1.3648,1.9235,0.8926
365.14,21.07505,-1.3849,1.93364,0.89226
365.84,21.09669,-1.40239,1.94494,0.89191
366.54,21.11828,-1.42335,1.95736,0.89157
367.24,21.1399,-1.44034,1.97272,0.89123
367.94,21.16143,-1.46177,1.98947,0.89088
368.64,21.18303,-1.47955,2.00526,0.89054
369.34,21.2047,-1.50083,2.02251,0.8902
370.04,21.22645,-1.52059,2.0407,0.88986
370.74,21.24814,-1.54195,2.05945,0.88951
371.44,21.26974,-1.56189,2.08112,0.88917
372.14,21.29135,-1.58203,2.10104,0.88883
372.84,21.3129,-1.60367,2.12284,0.88848
373.54,21.33461,-1.62372,2.14835,0.88814
374.24,21.35633,-1.64659,2.17306,0.8878
374.94,21.3781,-1.66547,2.19676,0.88746
375.64,21.3998,-1.68982,2.22189,0.88711
376.34,21.4215,-1.70978,2.24971,0.88677
377.04,21.4433,-1.7344,2.27437,0.88643
377.74,21.46504,-1.75528,2.3025,0.88609
378.44,21.4868,-1.7797,2.32875,0.88574
379.14,21.50848,-1.80295,2.35207,0.8854
379.84,21.5302,-1.8284,2.3776,0.88506
380.54,21.55191,-1.85298,2.40263,0.88471
381.24,21.5736,-1.87619,2.42658,0.88437
381.94,21.59544,-1.90291,2.44992,0.88403
382.64,21.61734,-1.92523,2.46893,0.88369
383.34,21.63916,-1.95262,2.48882,0.88334
384.04,21.661,-1.97545,2.50564,0.883
384.74,21.6828,-2.00414,2.52141,0.88266
385.44,21.7045,-2.02786,2.53158,0.88231
386.14,21.72632,-2.05675,2.54049,0.88197
386.84,21.74815,-2.08193,2.54649,0.88163
387.54,21.76989,-2.10858,2.5499,0.88128
388.24,21.79168,-2.13637,2.54582,0.88094
388.94,21.81344,-2.16099,2.53733,0.8806
389.64,21.83524,-2.18907,2.52606,0.88025
390.34,21.857,-2.21353,2.51102,0.87991
391.04,21.8789,-2.24209,2.49015,0.87957
391.74,21.9008,-2.2657,2.46042,0.87922
392.44,21.92258,-2.29368,2.43077,0.87888
393.14,21.94443,-2.31485,2.39147,0.87854
393.84,21.9662,-2.34096,2.3454,0.87819
394.54,21.98794,-2.36361,2.29816,0.87785
395.24,22.0097,-2.3877,2.24571,0.87751
395.94,22.0315,-2.41313,2.18228,0.87716
396.64,22.0532,-2.43547,2.1164,0.87682
397.34,22.0749,-2.45923,2.04663,0.87647
398.04,22.09666,-2.47837,1.97365,0.87613
398.74,22.11833,-2.50007,1.8943,0.87579
399.44,22.14001,-2.51668,1.81122,0.87544
400.14,22.16156,-2.53681,1.7249,0.8751
400.84,22.18329,-2.55233,1.63441,0.87475
401.54,22.20502,-2.56944,1.54446,0.87441
402.24,22.22684,-2.58367,1.45131,0.87406
402.94,22.2487,-2.59888,1.35693,0.87372
403.64,22.27044,-2.61302,1.26532,0.87337
404.34,22.29213,-2.62566,1.17647,0.87303
405.04,22.3138,-2.63814,1.08488,0.87268
405.74,22.33546,-2.64819,0.99745,0.87234
406.44,22.35715,-2.66031,0.9123,0.87199
407.14,22.3789,-2.66854,0.8352,0.87165
407.84,22.4006,-2.67819,0.75602,0.8713
408.54,22.42227,-2.68532,0.6797,0.87096
409.24,22.44391,-2.6931,0.61382,0.87061
409.94,22.46557,-2.69915,0.54782,0.87027
410.64,22.48728,-2.70568,0.48732,0.86992
411.34,22.50899,-2.71084,0.43496,0.86957
412.04,22.53078,-2.71591,0.38313,0.86923
412.74,22.55244,-2.72085,0.33646,0.86888
413.44,22.5741,-2.72468,0.29819,0.86854
414.14,22.59574,-2.72809,0.26128,0.86819
414.84,22.6174,-2.73125,0.22861,0.86784
415.54,22.6391,-2.73447,0.20264,0.86749
416.24,22.66086,-2.73775,0.17776,0.86715
416.94,22.6826,-2.7401,0.15328,0.8668
417.64,22.70435,-2.74458,0.1338,0.86645
418.34,22.72604,-2.74799,0.11536,0.86611
419.04,22.7478,-2.75035,0.10249,0.86576
419.74,22.76963,-2.75237,0.08898264,0.86541
420.44,22.79141,-2.7545,0.07621884,0.86506
421.14,22.8133,-2.75658,0.06536382,0.86471
421.84,22.83512,-2.75945,0.05580053,0.86437
422.54,22.85696,-2.76224,0.04745407,0.86402
423.24,22.87875,-2.76448,0.03882923,0.86367
423.94,22.9006,-2.76533,0.03108333,0.86332
424.64,22.92237,-2.76723,0.02577468,0.86297
425.34,22.94418,-2.76892,0.01659443,0.86262
426.04,22.96606,-2.77118,0.01032505,0.86227
426.74,22.98791,-2.77264,0.00391205,0.86192
427.44,23.00979,-2.7752,-0.0004140079,0.86157
428.14,23.0317,-2.7777,-0.005378315,0.86122
428.84,23.05355,-2.77958,-0.01289597,0.86087
429.54,23.07545,-2.78169,-0.0170408,0.86052
430.24,23.09737,-2.78494,-0.02301022,0.86017
430.94,23.1193,-2.78691,-0.03026258,0.85982
431.64,23.1412,-2.78954,-0.03391608,0.85947
432.34,23.16301,-2.79198,-0.03801274,0.85912
433.04,23.18489,-2.79438,-0.04467305,0.85877
433.74,23.2068,-2.79658,-0.04876784,0.85842
434.44,23.22873,-2.79881,-0.05310291,0.85807
435.14,23.25069,-2.80081,-0.05994172,0.85771
435.84,23.27263,-2.80336,-0.06288554,0.85736
436.54,23.29451,-2.80557,-0.06741494,0.85701
437.24,23.3165,-2.80742,-0.07505169,0.85666
437.94,23.33844,-2.80952,-0.07846901,0.8563
438.64,23.3604,-2.81156,-0.08238832,0.85595
439.34,23.38235,-2.81361,-0.08649593,0.8556
440.04,23.40427,-2.81546,-0.08959963,0.85524
440.74,23.42619,-2.81749,-0.09546128,0.85489
441.44,23.44813,-2.8203,-0.10139,0.85454
442.14,23.47014,-2.82217,-0.1045,0.85418
442.84,23.49212,-2.82403,-0.10847,0.85383
443.54,23.51409,-2.82598,-0.11411,0.85347
444.24,23.53603,-2.828,-0.1163,0.85312
444.94,23.55799,-2.82989,-0.12033,0.85276
445.64,23.58,-2.83154,-0.12329,0.85241
446.34,23.60207,-2.83325,-0.12936,0.85205
447.04,23.62409,-2.83564,-0.132,0.8517
447.74,23.6461,-2.83811,-0.13373,0.85134
448.44,23.668,-2.84021,-0.13854,0.85098
449.14,23.69003,-2.84172,-0.13954,0.85063
449.84,23.71217,-2.84331,-0.14565,0.85027
450.54,23.7343,-2.8447,-0.14641,0.84991
451.24,23.75638,-2.84648,-0.14871,0.84956
451.94,23.77844,-2.84869,-0.15162,0.8492
452.64,23.80047,-2.85026,-0.15281,0.84884
453.34,23.82248,-2.85204,-0.15345,0.84848
454.04,23.84453,-2.85399,-0.1575,0.84812
454.74,23.86662,-2.8554,-0.15605,0.84777
455.44,23.8887,-2.85675,-0.15793,0.84741
456.14,23.91082,-2.85831,-0.15726,0.84705
456.84,23.93293,-2.86012,-0.15975,0.84669
457.54,23.95502,-2.86148,-0.15932,0.84633
458.24,23.97703,-2.8633,-0.15993,0.84597
458.94,23.99915,-2.86522,-0.15823,0.84561
459.64,24.0213,-2.86673,-0.16011,0.84525
460.34,24.04332,-2.86831,-0.16123,0.84489
461.04,24.06551,-2.86984,-0.15843,0.84452
461.74,24.08757,-2.8713,-0.15541,0.84416
462.44,24.10971,-2.87284,-0.15584,0.8438
463.14,24.13186,-2.87444,-0.15297,0.84344
463.84,24.154,-2.87629,-0.15367,0.84308
464.54,24.17609,-2.87791,-0.15006,0.84271
465.24,24.19812,-2.88017,-0.14922,0.84235
465.94,24.2201,-2.88147,-0.14247,0.84199
466.64,24.2423,-2.88335,-0.14386,0.84162
467.34,24.26449,-2.8862,-0.14057,0.84126
468.04,24.28668,-2.88786,-0.13364,0.84089
468.74,24.30903,-2.88933,-0.13237,0.84053
469.44,24.33126,-2.89078,-0.12742,0.84016
470.14,24.35342,-2.89182,-0.12332,0.8398
470.84,24.37559,-2.89307,-0.12248,0.83943
471.54,24.3977,-2.89451,-0.11577,0.83907
472.24,24.41984,-2.89616,-0.1134,0.8387
472.94,24.44213,-2.89735,-0.11038,0.83833
473.64,24.46441,-2.89732,-0.10717,0.83797
474.34,24.4867,-2.89802,-0.10391,0.8376
475.04,24.509,-2.89944,-0.09677567,0.83723
475.74,24.5312,-2.90098,-0.0902549,0.83686
476.44,24.5534,-2.90255,-0.08514625,0.8365
477.14,24.57568,-2.90569,-0.08335509,0.83613
477.84,24.5979,-2.90764,-0.07868573,0.83576
478.54,24.62012,-2.90854,-0.07514382,0.83539
479.24,24.64241,-2.90931,-0.07070277,0.83502
479.94,24.66467,-2.91073,-0.06579674,0.83465
480.64,24.687,-2.91018,-0.05997132,0.83428
481.34,24.70928,-2.91129,-0.05687837,0.83391
482.04,24.7316,-2.91317,-0.05200711,0.83354
482.74,24.7539,-2.91491,-0.04418879,0.83317
483.44,24.7761,-2.91594,-0.04040919,0.83279
484.14,24.7983,-2.91645,-0.03836347,0.83242
484.84,24.82036,-2.91805,-0.03114188,0.83205
485.54,24.84261,-2.91981,-0.02830953,0.83168
486.24,24.86494,-2.92134,-0.02225006,0.8313
486.94,24.88733,-2.92281,-0.01991314,0.83093
487.64,24.90992,-2.92426,-0.01542663,0.83055
488.34,24.9324,-2.92561,-0.0116232,0.83018
489.04,24.95474,-2.92575,-0.008721834,0.82981
489.74,24.9771,-2.92821,-0.004737403,0.82943
490.44,24.99946,-2.92982,-0.001772615,0.82905
491.14,25.02178,-2.93158,-0.0004359925,0.82868
491.84,25.04414,-2.93243,0.004939385,0.8283
492.54,25.06653,-2.93289,0.01184031,0.82793
493.24,25.08889,-2.93454,0.01597346,0.82755
493.94,25.1113,-2.93472,0.0150932,0.82717
494.64,25.13373,-2.93604,0.02020255,0.82679
495.34,25.15608,-2.93763,0.02049404,0.82641
496.04,25.17847,-2.93885,0.02495146,0.82604
496.74,25.20084,-2.93987,0.02660868,0.82566
497.44,25.22324,-2.94082,0.02862357,0.82528
498.14,25.24568,-2.94202,0.03049331,0.8249
498.84,25.2681,-2.94132,0.0339175,0.82452
499.54,25.29052,-2.94167,0.03633051,0.82414
500.24,25.31299,-2.94214,0.03605632,0.82375
500.94,25.33549,-2.94359,0.0396609,0.82337
501.64,25.35802,-2.94429,0.04156071,0.82299
502.34,25.38041,-2.94532,0.04178179,0.82261
503.04,25.40286,-2.9469,0.04482652,0.82223
503.74,25.42533,-2.94801,0.04792369,0.82184
504.44,25.44775,-2.94921,0.04784588,0.82146
505.14,25.47028,-2.95083,0.04915808,0.82108
505.84,25.49277,-2.95211,0.05148248,0.82069
506.54,25.51524,-2.95252,0.05092655,0.82031
507.24,25.53773,-2.95404,0.05431216,0.81992
507.94,25.5602,-2.95405,0.05465109,0.81953
508.64,25.5827,-2.95505,0.05903857,0.81915
509.34,25.60524,-2.9558,0.06075464,0.81876
510.04,25.6278,-2.9569,0.05983977,0.81837
510.74,25.6503,-2.95849,0.06111546,0.81799
511.44,25.67279,-2.95919,0.06229738,0.8176
512.14,25.69533,-2.95974,0.06239179,0.81721
512.84,25.71779,-2.95976,0.06429568,0.81682
513.54,25.74025,-2.95987,0.06611872,0.81643
514.24,25.76285,-2.96109,0.06686341,0.81604
514.94,25.7854,-2.9611,0.07075456,0.81565
515.64,25.80805,-2.9625,0.07123711,0.81526
516.34,25.83072,-2.96262,0.06994255,0.81487
517.04,25.85322,-2.96399,0.0721994,0.81448
517.74,25.8757,-2.96495,0.07056475,0.81409
518.44,25.89825,-2.96657,0.07483566,0.8137
519.14,25.92073,-2.96667,0.07379014,0.8133
519.84,25.94331,-2.96797,0.07732028,0.81291
520.54,25.96588,-2.96677,0.075978,0.81252
521.24,25.98846,-2.96829,0.07975462,0.81212
521.94,26.01108,-2.96887,0.07708203,0.81173
522.64,26.03375,-2.96973,0.0802112,0.81133
523.34,26.0564,-2.97114,0.08010673,0.81094
524.04,26.0791,-2.97117,0.08125917,0.81054
524.74,26.10175,-2.9725,0.08497081,0.81014
525.44,26.12436,-2.97455,0.08496777,0.80975
526.14,26.14697,-2.97528,0.08529802,0.80935
526.84,26.1696,-2.97667,0.08261624,0.80895
527.54,26.19223,-2.9766,0.08606217,0.80855
528.24,26.21485,-2.97792,0.0867376,0.80815
528.94,26.23756,-2.97794,0.08719844,0.80775
529.64,26.26016,-2.97943,0.08778537,0.80735
530.34,26.2828,-2.97937,0.08766199,0.80695
531.04,26.30548,-2.98054,0.08713895,0.80655
531.74,26.3281,-2.98093,0.08776321,0.80615
532.44,26.35087,-2.98349,0.08926363,0.80575
533.14,26.37355,-2.98346,0.08723439,0.80535
533.84,26.3962,-2.98345,0.08814876,0.80494
534.54,26.4189,-2.98445,0.08916876,0.80454
535.24,26.4415,-2.98358,0.08741294,0.80414
535.94,26.46422,-2.98493,0.08521623,0.80373
536.64,26.4869,-2.98602,0.08564913,0.80333
537.34,26.5096,-2.98623,0.08298175,0.80292
538.04,26.5323,-2.98754,0.0819631,0.80252
538.74,26.555,-2.98805,0.08436266,0.80211
539.44,26.5777,-2.98798,0.08427966,0.8017
540.14,26.60042,-2.98752,0.08338,0.8013
540.84,26.62316,-2.98893,0.08046009,0.80089
541.54,26.64592,-2.98894,0.08087539,0.80048
542.24,26.66873,-2.99038,0.0805038,0.80007
542.94,26.6915,-2.99165,0.0800634,0.79966
543.64,26.7142,-2.99181,0.07891117,0.79925
544.34,26.7369,-2.99323,0.07703729,0.79884
545.04,26.7596,-2.99425,0.07345773,0.79843
545.74,26.78237,-2.99463,0.07301103,0.79802
546.44,26.8052,-2.99661,0.071822,0.79761
547.14,26.82795,-2.99651,0.07253217,0.7972
547.84,26.85067,-2.99662,0.06918484,0.79678
548.54,26.87339,-2.99784,0.07047899,0.79637
549.24,26.89613,-2.99782,0.06827744,0.79595
549.94,26.91882,-2.99912,0.06753782,0.79554
550.64,26.94159,-2.99914,0.0677243,0.79513
551.34,26.96438,-3.00002,0.06887081,0.79471
552.04,26.9871,-3.00045,0.06808024,0.79429
552.74,27.00982,-3.00048,0.06880698,0.79388
553.44,27.0326,-3.00183,0.06831089,0.79346
554.14,27.05531,-3.00169,0.07161487,0.79304
554.84,27.07807,-3.00308,0.07104867,0.79262
555.54,27.1009,-3.0031,0.07037929,0.79221
556.24,27.12358,-3.00451,0.07239866,0.79179
556.94,27.1463,-3.00462,0.07567085,0.79137
557.64,27.16902,-3.00637,0.07796531,0.79095
558.34,27.19173,-3.00634,0.07624298,0.79052
559.04,27.2145,-3.00764,0.07854065,0.7901
559.74,27.23735,-3.00766,0.08136578,0.78968
560.44,27.2601,-3.00904,0.08160595,0.78926
561.14,27.2829,-3.00874,0.08231579,0.78884
561.84,27.3057,-3.00907,0.08440603,0.78841
562.54,27.3284,-3.00901,0.0847266,0.78799
563.24,27.35124,-3.00897,0.08632494,0.78756
563.94,27.37404,-3.01026,0.08891473,0.78714
564.64,27.3968,-3.01033,0.08890046,0.78671
565.34,27.4196,-3.01034,0.09150145,0.78629
566.04,27.4424,-3.01225,0.08714652,0.78586
566.74,27.4651,-3.01254,0.08913587,0.78543
567.44,27.48788,-3.01424,0.08846542,0.785
568.14,27.5107,-3.01428,0.08906187,0.78458
568.84,27.5335,-3.0142,0.0864198,0.78415
569.54,27.5563,-3.01559,0.08982954,0.78372
570.24,27.5792,-3.01626,0.08989232,0.78329
570.94,27.602,-3.01703,0.08998523,0.78286
571.64,27.6249,-3.01842,0.08941177,0.78242
572.34,27.6477,-3.01834,0.08993746,0.78199
573.04,27.6705,-3.01843,0.09366063,0.78156
573.74,27.69322,-3.01967,0.09190099,0.78113
574.44,27.71603,-3.01965,0.09486724,0.78069
575.14,27.73879,-3.02095,0.09337719,0.78026
575.84,27.7616,-3.02097,0.0946037,0.77982
576.54,27.7845,-3.02187,0.09487132,0.77939
577.24,27.80728,-3.02236,0.09849065,0.77895
577.94,27.8302,-3.02139,0.10042,0.77852
578.64,27.85302,-3.02226,0.09756988,0.77808
579.34,27.876,-3.02229,0.09829133,0.77764
580.04,27.8988,-3.02229,0.09873977,0.7772
580.74,27.92158,-3.02314,0.09845705,0.77677
581.44,27.94443,-3.02359,0.09994635,0.77633
582.14,27.9672,-3.02361,0.09779262,0.77589
582.84,27.9902,-3.02434,0.09783235,0.77545
583.54,28.0131,-3.02491,0.09871029,0.775
584.24,28.0359,-3.02495,0.09842136,0.77456
584.94,28.0587,-3.02587,0.10051,0.77412
585.64,28.0816,-3.02623,0.09964586,0.77368
586.34,28.1045,-3.0263,0.09895675,0.77323
587.04,28.12733,-3.02758,0.09899499,0.77279
587.74,28.15018,-3.02755,0.10006,0.77235
588.44,28.173,-3.02909,0.09998234,0.7719
589.14,28.1958,-3.0291,0.09869729,0.77145
589.84,28.2188,-3.03159,0.10046,0.77101
590.54,28.2417,-3.03162,0.09924447,0.77056
591.24,28.26469,-3.03169,0.09859918,0.77011
591.94,28.2877,-3.03296,0.09692864,0.76967
592.64,28.31062,-3.03293,0.09425152,0.76922
593.34,28.3335,-3.03445,0.09657048,0.76877
594.04,28.35639,-3.03426,0.09591687,0.76832
594.74,28.3793,-3.03567,0.09539354,0.76787
595.44,28.40216,-3.03565,0.09355554,0.76742
596.14,28.4251,-3.03506,0.09371845,0.76697
596.84,28.4481,-3.03593,0.08928398,0.76651
597.54,28.4711,-3.03601,0.08971266,0.76606
598.24,28.49403,-3.03601,0.08894908,0.76561
598.94,28.51697,-3.03648,0.08826193,0.76515
599.64,28.5399,-3.0373,0.08212463,0.7647
600.34,28.5629,-3.03831,0.08351717,0.76424
601.04,28.5859,-3.03872,0.08271684,0.76379
601.74,28.6089,-3.04004,0.07892604,0.76333
602.44,28.6319,-3.04006,0.07747152,0.76287
603.14,28.65488,-3.04098,0.07630924,0.76242
603.84,28.67783,-3.04134,0.07087395,0.76196
604.54,28.7008,-3.04166,0.07175207,0.7615
605.24,28.72383,-3.04294,0.07214161,0.76104
605.94,28.7468,-3.04302,0.0685822,0.76058
606.64,28.7699,-3.04305,0.06630497,0.76012
607.34,28.79298,-3.04438,0.06354102,0.75966
608.04,28.81597,-3.04435,0.06315356,0.7592
608.74,28.83902,-3.04498,0.06527353,0.75873
609.44,28.862,-3.04564,0.06013331,0.75827
610.14,28.88506,-3.04567,0.0576517,0.75781
610.84,28.9081,-3.04625,0.05889846,0.75734
611.54,28.9311,-3.04777,0.0552964,0.75688
612.24,28.95423,-3.04798,0.0567013,0.75641
612.94,28.9773,-3.04874,0.05215575,0.75595
613.64,29.0003,-3.04819,0.05451783,0.75548
614.34,29.02341,-3.04795,0.05205114,0.75501
615.04,29.0464,-3.04795,0.0526808,0.75454
615.74,29.06945,-3.0483,0.05054769,0.75407
616.44,29.0924,-3.04924,0.04844333,0.75361
617.14,29.1154,-3.04917,0.05014654,0.75314
617.84,29.13835,-3.05059,0.05134764,0.75267
618.54,29.1614,-3.05055,0.05356909,0.75219
619.24,29.18453,-3.05184,0.05075878,0.75172
619.94,29.2076,-3.05189,0.04848278,0.75125
620.64,29.2307,-3.05201,0.04875378,0.75078
621.34,29.25378,-3.05324,0.05078493,0.7503
622.04,29.27689,-3.05369,0.052467,0.74983
622.74,29.3001,-3.05452,0.05326188,0.74935
623.44,29.3231,-3.05455,0.05457917,0.74888
624.14,29.34623,-3.05411,0.0546557,0.7484
624.84,29.36935,-3.05486,0.05379799,0.74793
625.54,29.3924,-3.0548,0.05445147,0.74745
626.24,29.4155,-3.05615,0.05806631,0.74697
626.94,29.4386,-3.05618,0.0567533,0.74649
627.64,29.4617,-3.05762,0.05837019,0.74601
628.34,29.48485,-3.05878,0.0585277,0.74553
629.04,29.508,-3.05882,0.05968154,0.74505
629.74,29.5311,-3.05963,0.06326956,0.74457
630.44,29.55418,-3.06011,0.06091879,0.74409
631.14,29.57728,-3.06131,0.06395258,0.74361
631.84,29.60043,-3.06144,0.06482687,0.74313
632.54,29.6236,-3.06246,0.06647835,0.74264
633.24,29.6468,-3.06278,0.06750829,0.74216
633.94,29.67,-3.06382,0.07037115,0.74167
634.64,29.69309,-3.06418,0.0730583,0.74119
635.34,29.71622,-3.0641,0.07107211,0.7407
636.04,29.7393,-3.0655,0.07023877,0.74021
636.74,29.76245,-3.0655,0.07569827,0.73973
637.44,29.78558,-3.06553,0.07541597,0.73924
638.14,29.80872,-3.06645,0.07890726,0.73875
638.84,29.8318,-3.06683,0.07922516,0.73826
639.54,29.85485,-3.06737,0.0826917,0.73777
640.24,29.878,-3.0682,0.08408506,0.73728
640.94,29.90108,-3.06681,0.08542953,0.73679
641.64,29.92421,-3.06768,0.0890847,0.7363
642.34,29.94742,-3.06813,0.08895487,0.73581
643.04,29.9705,-3.06932,0.09535501,0.73531
643.74,29.9936,-3.07089,0.09837633,0.73482
644.44,30.0167,-3.07131,0.09752681,0.73433
645.14,30.0398,-3.07114,0.10376,0.73383
645.84,30.06302,-3.07087,0.10286,0.73333
646.54,30.0862,-3.07101,0.10741,0.73284
647.24,30.1094,-3.07219,0.10989,0.73234
647.94,30.13257,-3.07215,0.11299,0.73184
648.64,30.15574,-3.07335,0.11524,0.73135
649.34,30.17891,-3.07351,0.11786,0.73085
650.04,30.2021,-3.07581,0.12206,0.73035
650.74,30.2252,-3.07608,0.12752,0.72985
651.44,30.24822,-3.07743,0.13271,0.72935
652.14,30.27135,-3.07746,0.13547,0.72885
652.84,30.29448,-3.07655,0.1418,0.72834
653.54,30.31767,-3.07747,0.14495,0.72784
654.24,30.34092,-3.07825,0.14904,0.72734
654.94,30.36402,-3.07874,0.15473,0.72684
655.64,30.38715,-3.07966,0.15724,0.72633
656.34,30.41038,-3.07936,0.16369,0.72583
657.04,30.43358,-3.08052,0.1684,0.72532
657.74,30.4569,-3.08079,0.17393,0.72481
658.44,30.4802,-3.08216,0.1792,0.72431
659.14,30.50328,-3.08294,0.18734,0.7238
659.84,30.52641,-3.08358,0.19044,0.72329
660.54,30.54962,-3.08196,0.20042,0.72278
661.24,30.57276,-3.08198,0.20995,0.72227
661.94,30.59603,-3.08279,0.21431,0.72176
662.64,30.61925,-3.08547,0.22447,0.72125
663.34,30.64247,-3.08726,0.22991,0.72074
664.04,30.66569,-3.08875,0.23527,0.72023
664.74,30.68885,-3.0914,0.24564,0.71972
665.44,30.71207,-3.09229,0.2522,0.7192
666.14,30.7353,-3.09271,0.25959,0.71869
666.84,30.75855,-3.09331,0.27102,0.71817
667.54,30.7819,-3.09401,0.2765,0.71766
668.24,30.80515,-3.09402,0.28362,0.71714
668.94,30.8284,-3.094,0.29301,0.71663
669.64,30.85169,-3.09552,0.30187,0.71611
670.34,30.8749,-3.09599,0.31076,0.71559
671.04,30.89818,-3.09674,0.32262,0.71507
671.74,30.92142,-3.09782,0.33214,0.71455
672.44,30.9447,-3.09697,0.33529,0.71403
673.14,30.96785,-3.09825,0.35002,0.71351
673.84,30.99108,-3.09837,0.35852,0.71299
674.54,31.01427,-3.09981,0.36853,0.71247
675.24,31.0373,-3.10135,0.37471,0.71195
675.94,31.06032,-3.10298,0.38392,0.71143
676.64,31.08349,-3.10333,0.39758,0.7109
677.34,31.1068,-3.10435,0.40812,0.71038
678.04,31.13025,-3.10625,0.41615,0.70985
678.74,31.15366,-3.10777,0.42903,0.70933
679.44,31.1769,-3.10903,0.43908,0.7088
680.14,31.20022,-3.10931,0.44889,0.70828
680.84,31.2235,-3.11163,0.46053,0.70775
681.54,31.2469,-3.11307,0.47263,0.70722
682.24,31.27015,-3.11365,0.48054,0.70669
682.94,31.29345,-3.11491,0.49457,0.70616
683.64,31.3167,-3.11626,0.50278,0.70563
684.34,31.33997,-3.11795,0.51365,0.7051
685.04,31.3633,-3.11901,0.524,0.70457
685.74,31.38648,-3.11945,0.53653,0.70404
686.44,31.40979,-3.12083,0.54839,0.70351
687.14,31.43311,-3.12128,0.56035,0.70297
687.84,31.4565,-3.12265,0.57158,0.70244
688.54,31.47985,-3.12409,0.5832,0.70191
689.24,31.50317,-3.12511,0.59354,0.70137
689.94,31.52648,-3.1259,0.60627,0.70083
690.64,31.54975,-3.12706,0.61399,0.7003
691.34,31.57303,-3.12857,0.62943,0.69976
692.04,31.59635,-3.12994,0.63916,0.69922
692.74,31.61962,-3.13056,0.65073,0.69869
693.44,31.64292,-3.1319,0.66212,0.69815
694.14,31.66625,-3.13347,0.67205,0.69761
694.84,31.68954,-3.13543,0.67938,0.69707
695.54,31.7128,-3.13628,0.68836,0.69653
696.24,31.73613,-3.1376,0.70176,0.69599
696.94,31.75938,-3.13944,0.70906,0.69544
697.64,31.78264,-3.14121,0.71817,0.6949
698.34,31.8059,-3.14198,0.72506,0.69436
699.04,31.8292,-3.14393,0.73254,0.69381
699.74,31.85245,-3.14565,0.74326,0.69327
700.44,31.8757,-3.14735,0.7499,0.69273
701.14,31.899,-3.14853,0.75516,0.69218
701.84,31.9223,-3.15025,0.76259,0.69163
702.54,31.94567,-3.15165,0.76479,0.69109
703.24,31.96903,-3.15204,0.77062,0.69054
703.94,31.9923,-3.15326,0.771,0.68999
704.64,32.01566,-3.15511,0.77302,0.68944
705.34,32.0389,-3.15697,0.77311,0.68889
706.04,32.06224,-3.15902,0.77378,0.68834
706.74,32.08556,-3.15934,0.77211,0.68779
707.44,32.10884,-3.16081,0.77004,0.68724
708.14,32.13215,-3.16281,0.7667,0.68669
708.84,32.1554,-3.16416,0.76632,0.68614
709.54,32.17876,-3.16587,0.75691,0.68558
710.24,32.20205,-3.16587,0.74621,0.68503
710.94,32.22535,-3.16593,0.73588,0.68447
711.64,32.24862,-3.16489,0.72712,0.68392
712.34,32.27197,-3.16582,0.71883,0.68336
713.04,32.29535,-3.16903,0.70756,0.68281
713.74,32.31868,-3.17237,0.68991,0.68225
714.44,32.34202,-3.17539,0.67629,0.68169
715.14,32.36531,-3.17772,0.66143,0.68114
715.84,32.38857,-3.17975,0.64433,0.68058
716.54,32.41189,-3.18141,0.63174,0.68002
717.24,32.43521,-3.18293,0.61533,0.67946
717.94,32.45847,-3.18366,0.6032,0.6789
718.64,32.48178,-3.18614,0.58823,0.67834
719.34,32.5052,-3.18763,0.57599,0.67777
720.04,32.5285,-3.18918,0.55755,0.67721
720.74,32.55189,-3.19019,0.54103,0.67665
721.44,32.57525,-3.19145,0.52105,0.67609
722.14,32.59853,-3.19279,0.49388,0.67552
722.84,32.62193,-3.19397,0.46289,0.67496
723.54,32.6453,-3.19523,0.42341,0.67439
724.24,32.66861,-3.19511,0.37628,0.67382
724.94,32.69197,-3.19569,0.31861,0.67326
725.64,32.7153,-3.19677,0.24892,0.67269
726.34,32.7385,-3.1976,0.17073,0.67212
727.04,32.76178,-3.19867,0.09966582,0.67155
727.74,32.78494,-3.1988,0.03989382,0.67098
728.44,32.8082,-3.19855,-0.01047179,0.67042
729.14,32.83157,-3.1985,-0.04512024,0.66984
729.84,32.8549,-3.19982,-0.07319213,0.66927
730.54,32.87846,-3.19988,-0.09418331,0.6687
731.24,32.90197,-3.1985,-0.11254,0.66813
731.94,32.9253,-3.19855,-0.12597,0.66756
732.64,32.94872,-3.19854,-0.13703,0.66698
733.34,32.97209,-3.20109,-0.14736,0.66641
734.04,32.99544,-3.20118,-0.15228,0.66584
734.74,33.0188,-3.20118,-0.15567,0.66526
735.44,33.04211,-3.20105,-0.16301,0.66468
736.14,33.06545,-3.19983,-0.16742,0.66411
736.84,33.08887,-3.19987,-0.17158,0.66353
737.54,33.11234,-3.19983,-0.17368,0.66295
738.24,33.13581,-3.20081,-0.1785,0.66238
738.94,33.15922,-3.20086,-0.17895,0.6618
739.64,33.18258,-3.20123,-0.18038,0.66122
740.34,33.2059,-3.20119,-0.18432,0.66064
741.04,33.22935,-3.20119,-0.18839,0.66006
741.74,33.25275,-3.20119,-0.18984,0.65948
742.44,33.27616,-3.2011,-0.1914,0.65889
743.14,33.29957,-3.20116,-0.19554,0.65831
743.84,33.32302,-3.20117,-0.1963,0.65773
744.54,33.34652,-3.2012,-0.19951,0.65715
745.24,33.36997,-3.20223,-0.20366,0.65656
745.94,33.3934,-3.20249,-0.20644,0.65598
746.64,33.41681,-3.20364,-0.20487,0.65539
747.34,33.44021,-3.20383,-0.20878,0.65481
748.04,33.4636,-3.20452,-0.2127,0.65422
748.74,33.4869,-3.20661,-0.21136,0.65363
749.44,33.51032,-3.20803,-0.21243,0.65305
750.14,33.53375,-3.20799,-0.21391,0.65246
750.84,33.55726,-3.20798,-0.2192,0.65187
751.54,33.5809,-3.20798,-0.21918,0.65128
752.24,33.60433,-3.20798,-0.22147,0.65069
752.94,33.62782,-3.20798,-0.22016,0.6501
753.64,33.6513,-3.20753,-0.22514,0.64951
754.34,33.67475,-3.2066,-0.22498,0.64892
755.04,33.6982,-3.20796,-0.22685,0.64832
755.74,33.72177,-3.208,-0.22861,0.64773
756.44,33.74524,-3.20702,-0.2297,0.64714
757.14,33.76875,-3.20538,-0.23273,0.64654
757.84,33.79226,-3.20534,-0.2313,0.64595
758.54,33.8157,-3.20535,-0.23611,0.64535
759.24,33.83916,-3.20536,-0.23901,0.64476
759.94,33.8627,-3.20536,-0.24023,0.64416
760.64,33.88616,-3.20536,-0.2381,0.64357
761.34,33.90965,-3.20536,-0.23863,0.64297
762.04,33.9332,-3.20556,-0.24157,0.64237
762.74,33.95668,-3.20669,-0.24166,0.64177
763.44,33.98023,-3.20668,-0.2459,0.64117
764.14,34.00377,-3.20849,-0.24776,0.64057
764.84,34.02732,-3.20931,-0.2458,0.63997
765.54,34.05087,-3.2093,-0.24693,0.63937
766.24,34.07436,-3.2093,-0.24629,0.63877
766.94,34.0978,-3.2093,-0.25161,0.63817
767.64,34.12128,-3.2093,-0.24863,0.63757
768.34,34.1448,-3.20932,-0.2529,0.63697
769.04,34.16839,-3.20863,-0.25372,0.63636
769.74,34.19198,-3.21,-0.25785,0.63576
770.44,34.2155,-3.20978,-0.25424,0.63515
771.14,34.23904,-3.20931,-0.25963,0.63455
771.84,34.2626,-3.21024,-0.2596,0.63394
772.54,34.28613,-3.21061,-0.25753,0.63334
773.24,34.30968,-3.21062,-0.25948,0.63273
773.94,34.33321,-3.21058,-0.2622,0.63212
774.64,34.35673,-3.21184,-0.25864,0.63151
775.34,34.38021,-3.21195,-0.26033,0.63091
776.04,34.40375,-3.21236,-0.26543,0.6303
776.74,34.4272,-3.21325,-0.26347,0.62969
777.44,34.45085,-3.21325,-0.26563,0.62908
778.14,34.4744,-3.21325,-0.2679,0.62847
778.84,34.49787,-3.21325,-0.26676,0.62786
779.54,34.5214,-3.21326,-0.26969,0.62724
780.24,34.54492,-3.21357,-0.27159,0.62663
780.94,34.56843,-3.21458,-0.27061,0.62602
781.64,34.592,-3.21457,-0.27465,0.62541
782.34,34.61555,-3.21457,-0.27479,0.62479
783.04,34.63904,-3.21457,-0.27422,0.62418
783.74,34.6626,-3.21577,-0.27453,0.62356
784.44,34.68614,-3.21589,-0.27614,0.62295
785.14,34.70969,-3.21589,-0.27592,0.62233
785.84,34.73325,-3.21589,-0.27714,0.62172
786.54,34.75676,-3.21589,-0.27874,0.6211
787.24,34.78025,-3.21591,-0.27871,0.62048
787.94,34.8038,-3.21465,-0.28079,0.61986
788.64,34.8273,-3.21457,-0.28217,0.61925
789.34,34.85085,-3.21457,-0.28274,0.61863
790.04,34.8744,-3.21457,-0.28317,0.61801
790.74,34.8979,-3.21457,-0.28365,0.61739
791.44,34.92142,-3.21457,-0.28392,0.61677
792.14,34.94495,-3.21362,-0.28487,0.61615
792.84,34.96853,-3.21324,-0.28556,0.61552
793.54,34.99207,-3.21461,-0.28835,0.6149
794.24,35.01559,-3.21457,-0.2879,0.61428
794.94,35.03908,-3.21456,-0.29009,0.61366
795.64,35.06256,-3.21324,-0.29101,0.61303
796.34,35.0861,-3.21432,-0.28824,0.61241
797.04,35.1096,-3.21457,-0.2931,0.61178
797.74,35.13312,-3.21457,-0.29337,0.61116
798.44,35.15667,-3.21457,-0.2931,0.61053
799.14,35.18018,-3.21457,-0.28985,0.60991
799.84,35.20378,-3.21448,-0.29022,0.60928
800.54,35.22732,-3.21588,-0.29554,0.60865
801.24,35.2509,-3.21589,-0.29111,0.60803
801.94,35.2744,-3.21589,-0.29645,0.6074
802.64,35.29805,-3.21589,-0.2956,0.60677
803.34,35.32164,-3.21589,-0.29739,0.60614
804.04,35.34523,-3.21589,-0.2984,0.60551
804.74,35.36882,-3.21589,-0.30002,0.60488
805.44,35.39243,-3.21589,-0.29905,0.60425
806.14,35.41607,-3.21589,-0.29971,0.60362
806.84,35.43967,-3.21589,-0.29976,0.60299
807.54,35.46324,-3.21687,-0.30169,0.60236
808.24,35.4868,-3.21719,-0.3033,0.60172
808.94,35.51035,-3.2172,-0.30189,0.60109
809.64,35.534,-3.21715,-0.30273,0.60046
810.34,35.55762,-3.21846,-0.30152,0.59982
811.04,35.5812,-3.2186,-0.30328,0.59919
811.74,35.6048,-3.21999,-0.30275,0.59855
812.44,35.62832,-3.21994,-0.30194,0.59792
813.14,35.65187,-3.21994,-0.30574,0.59728
813.84,35.67544,-3.21997,-0.3011,0.59665
814.54,35.69892,-3.22091,-0.30437,0.59601
815.24,35.72249,-3.22126,-0.30624,0.59537
815.94,35.74612,-3.22126,-0.30301,0.59473
816.64,35.76972,-3.22125,-0.3046,0.5941
817.34,35.79336,-3.22094,-0.30323,0.59346
818.04,35.81698,-3.22091,-0.30656,0.59282
818.74,35.8405,-3.21987,-0.30671,0.59218
819.44,35.86411,-3.21993,-0.31081,0.59154
820.14,35.88771,-3.21994,-0.30909,0.5909
820.84,35.91125,-3.21995,-0.31022,0.59026
821.54,35.9347,-3.22024,-0.30886,0.58962
822.24,35.9583,-3.22127,-0.31285,0.58897
822.94,35.98192,-3.2213,-0.31511,0.58833
823.64,36.0055,-3.22073,-0.30899,0.58769
824.34,36.02925,-3.22126,-0.3084,0.58705
825.04,36.05288,-3.22126,-0.31423,0.5864
825.74,36.07647,-3.22147,-0.31189,0.58576
826.44,36.10011,-3.22154,-0.3098,0.58511
827.14,36.12375,-3.22126,-0.31139,0.58447
827.84,36.14734,-3.22125,-0.31442,0.58382
828.54,36.171,-3.22126,-0.31257,0.58318
829.24,36.19465,-3.22265,-0.31409,0.58253
829.94,36.2183,-3.22257,-0.31489,0.58188
830.64,36.242,-3.22257,-0.3164,0.58124
831.34,36.26565,-3.22257,-0.31632,0.58059
832.04,36.28934,-3.22257,-0.31906,0.57994
832.74,36.31295,-3.22329,-0.31804,0.57929
833.44,36.33662,-3.22388,-0.31854,0.57864
834.14,36.36031,-3.22389,-0.31702,0.578
834.84,36.384,-3.22389,-0.3154,0.57735
835.54,36.40772,-3.22389,-0.31806,0.5767
836.24,36.43148,-3.22389,-0.31794,0.57605
836.94,36.45513,-3.22294,-0.3179,0.57539
837.64,36.47882,-3.22258,-0.31969,0.57474
838.34,36.50248,-3.22258,-0.32244,0.57409
839.04,36.5261,-3.22258,-0.32245,0.57344
839.74,36.54981,-3.22258,-0.32628,0.57279
840.44,36.57351,-3.22222,-0.32569,0.57213
841.14,36.5972,-3.22225,-0.32524,0.57148
841.84,36.62095,-3.22225,-0.3265,0.57083
842.54,36.64517,-3.22225,-0.32521,0.57017
843.14,36.66511,-3.22225,-0.32346,0.56961