File: 01_Data/Pine_Lap_Siding/STA/N2/30K_min/Pine_Lap_Siding_STA_N2_30KData_220321_R1.csv
##Temp./Â°C,Time/min,Mass loss(subtr.2)/mg,DSC(subtr.2)/(mW/mg),Sensit./(uV/mW)
48.799,10.00917,-0.06845,0.02259075,1.08889
49.499,10.5486,-0.07136888,0.06324782,1.0883
50.199,10.67395,-0.0710881,0.09438465,1.08771
50.899,10.76331,-0.07025424,0.12558,1.08712
51.599,10.83665,-0.06968738,0.15195,1.08653
52.299,10.89997,-0.06961104,0.17835,1.08594
52.999,10.95593,-0.07173079,0.19953,1.08536
53.699,11.0073,-0.07539666,0.22401,1.08477
54.399,11.0548,-0.07490507,0.24532,1.08418
55.099,11.0996,-0.07366446,0.2651,1.0836
55.799,11.14227,-0.07521761,0.28613,1.08302
56.499,11.18266,-0.07558537,0.3021,1.08244
57.199,11.22141,-0.07637849,0.322,1.08185
57.899,11.25869,-0.07844322,0.33805,1.08127
58.599,11.2947,-0.07748982,0.35576,1.08069
59.299,11.3296,-0.07821329,0.3716,1.08011
59.999,11.36357,-0.07879141,0.38677,1.07954
60.699,11.39663,-0.07922747,0.40148,1.07896
61.399,11.42918,-0.07798993,0.4163,1.07838
62.099,11.46095,-0.07902785,0.43095,1.07781
62.799,11.49212,-0.07877672,0.44295,1.07723
63.499,11.52259,-0.07826743,0.45561,1.07666
64.199,11.5527,-0.07803575,0.46882,1.07608
64.899,11.58254,-0.07782683,0.48115,1.07551
65.599,11.61179,-0.07743953,0.49206,1.07494
66.299,11.64069,-0.07721028,0.50283,1.07437
66.999,11.6691,-0.07732953,0.51452,1.0738
67.699,11.69737,-0.07777331,0.52371,1.07323
68.399,11.72532,-0.07708374,0.53548,1.07266
69.099,11.75307,-0.07805853,0.54605,1.07209
69.799,11.7805,-0.07950699,0.55701,1.07153
70.499,11.80787,-0.08166546,0.56814,1.07096
71.199,11.83488,-0.0820329,0.57779,1.0704
71.899,11.86177,-0.08262317,0.58668,1.06983
72.599,11.88825,-0.08341554,0.59604,1.06927
73.299,11.91473,-0.08360522,0.60521,1.06871
73.999,11.94102,-0.08338377,0.61467,1.06815
74.699,11.9672,-0.08292615,0.62442,1.06759
75.399,11.9932,-0.08274642,0.63362,1.06703
76.099,12.01907,-0.08237631,0.64185,1.06647
76.799,12.04475,-0.08253536,0.65103,1.06591
77.499,12.07033,-0.08377973,0.65904,1.06535
78.199,12.09572,-0.08311051,0.66664,1.0648
78.899,12.1211,-0.08342491,0.67455,1.06424
79.599,12.14645,-0.08400092,0.68407,1.06369
80.299,12.17165,-0.08361415,0.69067,1.06313
80.999,12.1969,-0.08342331,0.69848,1.06258
81.699,12.22194,-0.0834613,0.7063,1.06203
82.399,12.24691,-0.08371037,0.71244,1.06148
83.099,12.27181,-0.0823881,0.71967,1.06093
83.799,12.29659,-0.08382402,0.72678,1.06038
84.499,12.32134,-0.08536511,0.73383,1.05983
85.199,12.34591,-0.08524177,0.74018,1.05928
85.899,12.3705,-0.08639655,0.74502,1.05873
86.599,12.39495,-0.08605991,0.75335,1.05819
87.299,12.41938,-0.08730607,0.75811,1.05764
87.999,12.4437,-0.08679811,0.76578,1.0571
88.699,12.46798,-0.08753977,0.77086,1.05655
89.399,12.49217,-0.08729666,0.77829,1.05601
90.099,12.51629,-0.08748145,0.78195,1.05547
90.799,12.54045,-0.0891136,0.78907,1.05493
91.499,12.56452,-0.08898526,0.79393,1.05439
92.199,12.5886,-0.09040302,0.79766,1.05385
92.899,12.61257,-0.08901827,0.80394,1.05331
93.599,12.63649,-0.08906156,0.80757,1.05277
94.299,12.66035,-0.08915139,0.81119,1.05223
94.999,12.68413,-0.08953208,0.81622,1.0517
95.699,12.708,-0.08906181,0.82012,1.05116
96.399,12.73172,-0.09046778,0.82298,1.05063
97.099,12.7555,-0.0903846,0.82507,1.05009
97.799,12.77927,-0.09038043,0.82893,1.04956
98.499,12.803,-0.09178555,0.83202,1.04903
99.199,12.8268,-0.09169277,0.83473,1.0485
99.899,12.8505,-0.09169734,0.83548,1.04797
100.599,12.87418,-0.09310304,0.83958,1.04744
101.299,12.8977,-0.09323441,0.84105,1.04691
101.999,12.9212,-0.09483421,0.84173,1.04638
102.699,12.94478,-0.09562552,0.84203,1.04585
103.399,12.96831,-0.09564654,0.84411,1.04532
104.099,12.99191,-0.09704678,0.8445,1.0448
104.799,13.0154,-0.09680171,0.84465,1.04427
105.499,13.03893,-0.09693929,0.84495,1.04375
106.199,13.0625,-0.09760654,0.84483,1.04323
106.899,13.08597,-0.09761913,0.8453,1.04271
107.599,13.10958,-0.09762092,0.84458,1.04218
108.299,13.13309,-0.09780505,0.84357,1.04166
108.999,13.15652,-0.09874634,0.84194,1.04114
109.699,13.18004,-0.09828167,0.84068,1.04062
110.399,13.20345,-0.09820523,0.83976,1.04011
111.099,13.22684,-0.09844267,0.8375,1.03959
111.799,13.25026,-0.09827648,0.83588,1.03907
112.499,13.2737,-0.09827351,0.83476,1.03856
113.199,13.297,-0.09819882,0.83344,1.03804
113.899,13.32039,-0.09960392,0.82829,1.03753
114.599,13.3437,-0.0996026,0.82801,1.03701
115.299,13.367,-0.09978727,0.82367,1.0365
115.999,13.3904,-0.09952081,0.82252,1.03599
116.699,13.4137,-0.09958149,0.8225,1.03548
117.399,13.437,-0.09959083,0.81821,1.03497
118.099,13.46026,-0.09957639,0.81536,1.03446
118.799,13.4834,-0.10037,0.81444,1.03395
119.499,13.5067,-0.10188,0.81104,1.03344
120.199,13.52994,-0.1019,0.81122,1.03293
120.899,13.55311,-0.1019,0.80816,1.03243
121.599,13.57634,-0.1019,0.80537,1.03192
122.299,13.59939,-0.1019,0.80118,1.03142
122.999,13.62246,-0.1019,0.79962,1.03091
123.699,13.6456,-0.1019,0.79933,1.03041
124.399,13.66867,-0.10219,0.79413,1.02991
125.099,13.69178,-0.10319,0.79329,1.02941
125.799,13.7148,-0.10291,0.79118,1.02891
126.499,13.7378,-0.10189,0.79281,1.02841
127.199,13.76084,-0.10239,0.78912,1.02791
127.899,13.7838,-0.10319,0.79108,1.02741
128.599,13.80679,-0.10321,0.78949,1.02691
129.299,13.82966,-0.10321,0.78753,1.02642
129.999,13.8525,-0.10311,0.7888,1.02592
130.699,13.87544,-0.10286,0.78727,1.02543
131.399,13.8983,-0.10196,0.78657,1.02493
132.099,13.92116,-0.10189,0.78887,1.02444
132.799,13.94399,-0.1019,0.78744,1.02394
133.499,13.96671,-0.1019,0.78709,1.02345
134.199,13.9895,-0.1019,0.78789,1.02296
134.899,14.0123,-0.10215,0.78918,1.02247
135.599,14.0349,-0.10323,0.79022,1.02198
136.299,14.05749,-0.10322,0.79005,1.02149
136.999,14.08,-0.10322,0.79103,1.021
137.699,14.10247,-0.10464,0.78891,1.02052
138.399,14.1251,-0.10455,0.79267,1.02003
139.099,14.14776,-0.10456,0.79389,1.01954
139.799,14.1703,-0.10561,0.79378,1.01906
140.499,14.19285,-0.10585,0.79291,1.01858
141.199,14.21535,-0.10585,0.79737,1.01809
141.899,14.23784,-0.10585,0.79689,1.01761
142.599,14.2604,-0.10585,0.80113,1.01713
143.299,14.28289,-0.10656,0.80037,1.01665
143.999,14.3053,-0.10715,0.80478,1.01617
144.699,14.3276,-0.10716,0.80481,1.01569
145.399,14.3499,-0.10722,0.80544,1.01521
146.099,14.3723,-0.10861,0.80977,1.01473
146.799,14.39463,-0.10867,0.81151,1.01425
147.499,14.4169,-0.10995,0.81024,1.01377
148.199,14.43919,-0.10991,0.81419,1.0133
148.899,14.4615,-0.10991,0.8166,1.01282
149.599,14.4838,-0.11072,0.81887,1.01235
150.299,14.506,-0.11118,0.82015,1.01187
150.999,14.52825,-0.11032,0.82082,1.0114
151.699,14.5504,-0.10981,0.82431,1.01093
152.399,14.57264,-0.10885,0.82588,1.01046
153.099,14.5949,-0.1085,0.82785,1.00999
153.799,14.61709,-0.10733,0.83083,1.00952
154.499,14.63925,-0.10783,0.83246,1.00905
155.199,14.66141,-0.10847,0.83366,1.00858
155.899,14.6835,-0.10845,0.8368,1.00811
156.599,14.7056,-0.10782,0.8387,1.00764
157.299,14.72775,-0.10751,0.83926,1.00718
157.999,14.74978,-0.10853,0.84392,1.00671
158.699,14.77186,-0.10881,0.84248,1.00625
159.399,14.79396,-0.1088,0.84729,1.00578
160.099,14.81601,-0.10871,0.84926,1.00532
160.799,14.83814,-0.11013,0.85342,1.00486
161.499,14.86025,-0.11056,0.85333,1.0044
162.199,14.88216,-0.11283,0.85781,1.00393
162.899,14.9042,-0.11276,0.85841,1.00347
163.599,14.92617,-0.11276,0.86175,1.00301
164.299,14.94811,-0.11276,0.86268,1.00256
164.999,14.9701,-0.11276,0.86565,1.0021
165.699,14.9918,-0.11276,0.86699,1.00164
166.399,15.0138,-0.11276,0.86995,1.00118
167.099,15.0359,-0.11276,0.8723,1.00073
167.799,15.0579,-0.11276,0.87292,1.00027
168.499,15.0802,-0.11277,0.87431,0.99982
169.199,15.1021,-0.1138,0.8766,0.99936
169.899,15.12396,-0.11374,0.88018,0.99891
170.599,15.1459,-0.11374,0.88047,0.99846
171.299,15.1678,-0.11373,0.88331,0.998
171.999,15.1897,-0.11138,0.88541,0.99755
172.699,15.2117,-0.11111,0.88771,0.9971
173.399,15.23355,-0.11102,0.88667,0.99665
174.099,15.25535,-0.11183,0.89049,0.9962
174.799,15.2772,-0.11156,0.89308,0.99575
175.499,15.29902,-0.11155,0.89591,0.99531
176.199,15.3208,-0.11155,0.89669,0.99486
176.899,15.34269,-0.11155,0.89895,0.99441
177.599,15.36452,-0.11155,0.9024,0.99397
178.299,15.38628,-0.11155,0.90243,0.99352
178.999,15.40805,-0.11155,0.90678,0.99308
179.699,15.42978,-0.11155,0.90877,0.99263
180.399,15.45145,-0.11153,0.90908,0.99219
181.099,15.4732,-0.11254,0.91188,0.99175
181.799,15.49484,-0.11286,0.91355,0.99131
182.499,15.51645,-0.11287,0.91561,0.99087
183.199,15.53805,-0.11287,0.91906,0.99042
183.899,15.55962,-0.11287,0.92012,0.98999
184.599,15.58131,-0.11287,0.92121,0.98955
185.299,15.60295,-0.11289,0.92263,0.98911
185.999,15.62457,-0.11326,0.92681,0.98867
186.699,15.6461,-0.11293,0.92933,0.98823
187.399,15.66766,-0.11287,0.93086,0.9878
188.099,15.68919,-0.11287,0.93212,0.98736
188.799,15.7107,-0.11346,0.93439,0.98693
189.499,15.7323,-0.11548,0.93453,0.98649
190.199,15.75376,-0.1155,0.93804,0.98606
190.899,15.77527,-0.1155,0.93918,0.98562
191.599,15.79675,-0.1155,0.9441,0.98519
192.299,15.81816,-0.11575,0.94489,0.98476
192.999,15.83965,-0.11681,0.94718,0.98433
193.699,15.86104,-0.11682,0.94702,0.9839
194.399,15.88245,-0.11682,0.94976,0.98347
195.099,15.9039,-0.11688,0.95283,0.98304
195.799,15.9254,-0.11589,0.95399,0.98261
196.499,15.94682,-0.11583,0.95525,0.98218
197.199,15.96832,-0.11583,0.95677,0.98176
197.899,15.98975,-0.11582,0.96063,0.98133
198.599,16.0111,-0.11661,0.96352,0.9809
199.299,16.03255,-0.11836,0.96369,0.98048
199.999,16.0539,-0.11856,0.96512,0.98005
200.699,16.07525,-0.11852,0.96726,0.97963
201.399,16.09667,-0.11978,0.96816,0.97921
202.099,16.11804,-0.11989,0.97277,0.97878
202.799,16.1394,-0.11989,0.97274,0.97836
203.499,16.1608,-0.11989,0.97443,0.97794
204.199,16.18222,-0.11989,0.97833,0.97752
204.899,16.2035,-0.11989,0.9799,0.9771
205.599,16.2247,-0.11989,0.98234,0.97668
206.299,16.24606,-0.1199,0.98407,0.97626
206.999,16.26739,-0.1204,0.98691,0.97584
207.699,16.2887,-0.12121,0.98717,0.97542
208.399,16.31026,-0.12121,0.99023,0.975
209.099,16.33156,-0.12121,0.99266,0.97459
209.799,16.35286,-0.12121,0.99523,0.97417
210.499,16.37418,-0.12121,0.99612,0.97376
211.199,16.39546,-0.12121,0.99708,0.97334
211.899,16.4168,-0.12121,0.99961,0.97293
212.599,16.43808,-0.12121,1.00245,0.97251
213.299,16.45934,-0.12121,1.00407,0.9721
213.999,16.4806,-0.12121,1.00581,0.97169
214.699,16.50186,-0.12119,1.00863,0.97127
215.399,16.5231,-0.12053,1.01147,0.97086
216.099,16.54448,-0.12116,1.01189,0.97045
216.799,16.5658,-0.12224,1.0139,0.97004
217.499,16.58711,-0.12251,1.01569,0.96963
218.199,16.60839,-0.12416,1.01739,0.96922
218.899,16.62968,-0.12526,1.0202,0.96881
219.599,16.65097,-0.12607,1.02378,0.9684
220.299,16.6722,-0.12656,1.02471,0.968
220.999,16.69357,-0.12653,1.02752,0.96759
221.699,16.71481,-0.12768,1.02751,0.96718
222.399,16.73605,-0.12789,1.0313,0.96678
223.099,16.75737,-0.1279,1.03333,0.96637
223.799,16.77861,-0.1279,1.03331,0.96597
224.499,16.7999,-0.12792,1.03466,0.96556
225.199,16.82114,-0.12925,1.03639,0.96516
225.899,16.84241,-0.12922,1.03881,0.96476
226.599,16.8636,-0.12932,1.03964,0.96435
227.299,16.88485,-0.12989,1.04201,0.96395
227.999,16.90614,-0.12987,1.04475,0.96355
228.699,16.92735,-0.12987,1.04458,0.96315
229.399,16.94856,-0.12987,1.04838,0.96275
230.099,16.96979,-0.12987,1.05121,0.96235
230.799,16.99094,-0.13027,1.05072,0.96195
231.499,17.01211,-0.13052,1.05305,0.96155
232.199,17.0334,-0.13053,1.05502,0.96115
232.899,17.05463,-0.13054,1.05657,0.96076
233.599,17.0758,-0.13091,1.05937,0.96036
234.299,17.09704,-0.13187,1.06061,0.95996
234.999,17.11825,-0.13242,1.06165,0.95957
235.699,17.13938,-0.13316,1.06427,0.95917
236.399,17.16056,-0.1331,1.0657,0.95878
237.099,17.1817,-0.13227,1.0678,0.95838
237.799,17.20298,-0.13353,1.06909,0.95799
238.499,17.2242,-0.13351,1.06962,0.95759
239.199,17.24548,-0.13409,1.07231,0.9572
239.899,17.26672,-0.13481,1.07747,0.95681
240.599,17.28792,-0.13482,1.07792,0.95642
241.299,17.3092,-0.13579,1.07946,0.95602
241.999,17.3304,-0.13613,1.08095,0.95563
242.699,17.35161,-0.13752,1.08112,0.95524
243.399,17.37285,-0.13741,1.08393,0.95485
244.099,17.39401,-0.13847,1.08531,0.95446
244.799,17.41516,-0.13874,1.08814,0.95407
245.499,17.4363,-0.13874,1.08876,0.95368
246.199,17.45743,-0.13868,1.09088,0.9533
246.899,17.47857,-0.14007,1.09125,0.95291
247.599,17.49972,-0.14011,1.09427,0.95252
248.299,17.521,-0.14138,1.09598,0.95213
248.999,17.54215,-0.14132,1.09944,0.95175
249.699,17.56334,-0.14261,1.10098,0.95136
250.399,17.58456,-0.14275,1.10302,0.95098
251.099,17.6057,-0.14427,1.10476,0.95059
251.799,17.62689,-0.14593,1.10821,0.95021
252.499,17.64805,-0.14766,1.10888,0.94982
253.199,17.66921,-0.14884,1.11346,0.94944
253.899,17.6904,-0.14974,1.11567,0.94906
254.599,17.7115,-0.15089,1.11902,0.94868
255.299,17.73264,-0.15256,1.12212,0.94829
255.999,17.7538,-0.15422,1.12313,0.94791
256.699,17.77486,-0.15616,1.12639,0.94753
257.399,17.796,-0.15825,1.12986,0.94715
258.099,17.8172,-0.16056,1.13252,0.94677
258.799,17.8384,-0.1638,1.13587,0.94639
259.499,17.85965,-0.16612,1.13962,0.94601
260.199,17.8808,-0.16789,1.14059,0.94563
260.899,17.90193,-0.16967,1.1449,0.94525
261.599,17.92306,-0.17191,1.14732,0.94487
262.299,17.94424,-0.17375,1.14976,0.9445
262.999,17.96544,-0.17552,1.15412,0.94412
263.699,17.9866,-0.17644,1.15519,0.94374
264.399,18.0078,-0.17757,1.15794,0.94337
265.099,18.02895,-0.1791,1.15978,0.94299
265.799,18.05011,-0.17999,1.16375,0.94261
266.499,18.07131,-0.18154,1.16441,0.94224
267.199,18.09241,-0.18375,1.16919,0.94186
267.899,18.11352,-0.18589,1.17224,0.94149
268.599,18.13472,-0.18784,1.17243,0.94112
269.299,18.15588,-0.18939,1.1774,0.94074
269.999,18.17706,-0.19001,1.17816,0.94037
270.699,18.19828,-0.19103,1.18265,0.94
271.399,18.21945,-0.19318,1.18568,0.93962
272.099,18.24063,-0.19616,1.18555,0.93925
272.799,18.26182,-0.19904,1.18958,0.93888
273.499,18.28304,-0.20173,1.19018,0.93851
274.199,18.30412,-0.20424,1.19332,0.93814
274.899,18.3253,-0.20691,1.19603,0.93777
275.599,18.34649,-0.20845,1.19893,0.9374
276.299,18.3677,-0.21046,1.20112,0.93703
276.999,18.38899,-0.21222,1.20064,0.93666
277.699,18.41018,-0.21367,1.20468,0.93629
278.399,18.43135,-0.21602,1.20681,0.93592
279.099,18.45259,-0.21877,1.21131,0.93555
279.799,18.47382,-0.22191,1.21183,0.93518
280.499,18.495,-0.2242,1.21589,0.93482
281.199,18.5162,-0.22522,1.21487,0.93445
281.899,18.53739,-0.22778,1.21801,0.93408
282.599,18.5586,-0.2308,1.21952,0.93372
283.299,18.57979,-0.234,1.22237,0.93335
283.999,18.60098,-0.2384,1.22433,0.93298
284.699,18.62217,-0.24228,1.2282,0.93262
285.399,18.6433,-0.24619,1.23097,0.93225
286.099,18.66454,-0.25077,1.2344,0.93189
286.799,18.68573,-0.25522,1.2364,0.93153
287.499,18.707,-0.26087,1.23783,0.93116
288.199,18.7283,-0.26407,1.24056,0.9308
288.899,18.74944,-0.26691,1.24418,0.93043
289.599,18.7707,-0.26964,1.24653,0.93007
290.299,18.79186,-0.27289,1.24885,0.92971
290.999,18.813,-0.27529,1.24995,0.92935
291.699,18.83427,-0.27741,1.25517,0.92898
292.399,18.8555,-0.28041,1.2565,0.92862
293.099,18.8768,-0.28343,1.25635,0.92826
293.799,18.89808,-0.28737,1.26051,0.9279
294.499,18.9193,-0.29115,1.26263,0.92754
295.199,18.94054,-0.2954,1.26598,0.92718
295.899,18.9617,-0.29917,1.26685,0.92682
296.599,18.98291,-0.30323,1.27179,0.92646
297.299,19.0042,-0.30771,1.27201,0.9261
297.999,19.0254,-0.31196,1.27674,0.92574
298.699,19.0467,-0.31753,1.27684,0.92538
299.399,19.06791,-0.322,1.28278,0.92502
300.099,19.08915,-0.32674,1.28483,0.92466
300.799,19.11044,-0.33173,1.28516,0.92431
301.499,19.13172,-0.33764,1.28939,0.92395
302.199,19.153,-0.34316,1.29302,0.92359
302.899,19.17426,-0.35072,1.29833,0.92323
303.599,19.1954,-0.35696,1.29959,0.92288
304.299,19.21665,-0.36317,1.30351,0.92252
304.999,19.23787,-0.36869,1.30856,0.92216
305.699,19.25913,-0.37424,1.30985,0.92181
306.399,19.28042,-0.37936,1.31255,0.92145
307.099,19.30171,-0.38509,1.31628,0.92109
307.799,19.32302,-0.39193,1.31959,0.92074
308.499,19.34432,-0.39857,1.32513,0.92038
309.199,19.36554,-0.40616,1.32818,0.92003
309.899,19.3868,-0.4128,1.33178,0.91967
310.599,19.40796,-0.41909,1.3368,0.91932
311.299,19.42916,-0.42448,1.34299,0.91897
311.999,19.45039,-0.43163,1.34777,0.91861
312.699,19.47165,-0.43718,1.35324,0.91826
313.399,19.4929,-0.44411,1.35699,0.9179
314.099,19.51426,-0.44865,1.36141,0.91755
314.799,19.53562,-0.45574,1.36802,0.9172
315.499,19.55692,-0.46203,1.3749,0.91685
316.199,19.57828,-0.46945,1.38265,0.91649
316.899,19.59954,-0.47664,1.38672,0.91614
317.599,19.62079,-0.48436,1.39437,0.91579
318.299,19.64207,-0.49281,1.3999,0.91544
318.999,19.66336,-0.50145,1.40638,0.91509
319.699,19.68469,-0.51145,1.41384,0.91473
320.399,19.706,-0.51986,1.42312,0.91438
321.099,19.72729,-0.52922,1.42904,0.91403
321.799,19.74858,-0.53659,1.43705,0.91368
322.499,19.76987,-0.54574,1.44601,0.91333
323.199,19.79119,-0.55343,1.45209,0.91298
323.899,19.8125,-0.56319,1.46071,0.91263
324.599,19.83379,-0.57126,1.46993,0.91228
325.299,19.85517,-0.58204,1.47868,0.91193
325.999,19.87656,-0.59201,1.48961,0.91158
326.699,19.89797,-0.60227,1.49712,0.91123
327.399,19.91934,-0.61204,1.50604,0.91088
328.099,19.94061,-0.62207,1.51796,0.91053
328.799,19.96187,-0.6326,1.52535,0.91018
329.499,19.98319,-0.64256,1.53912,0.90984
330.199,20.00453,-0.65423,1.54865,0.90949
330.899,20.02589,-0.66466,1.55976,0.90914
331.599,20.0473,-0.67784,1.56851,0.90879
332.299,20.0687,-0.68761,1.58292,0.90844
332.999,20.09001,-0.70002,1.59213,0.9081
333.699,20.11141,-0.70998,1.60613,0.90775
334.399,20.1328,-0.72321,1.61477,0.9074
335.099,20.1542,-0.73442,1.62858,0.90705
335.799,20.17558,-0.74823,1.63596,0.90671
336.499,20.19695,-0.76024,1.64909,0.90636
337.199,20.21827,-0.77374,1.66137,0.90601
337.899,20.23963,-0.78622,1.67294,0.90566
338.599,20.261,-0.79891,1.68371,0.90532
339.299,20.28246,-0.81254,1.69296,0.90497
339.999,20.3038,-0.82549,1.70352,0.90463
340.699,20.32509,-0.84017,1.71531,0.90428
341.399,20.3464,-0.85294,1.72442,0.90393
342.099,20.36792,-0.86829,1.73586,0.90359
342.799,20.38941,-0.88071,1.74538,0.90324
343.499,20.41108,-0.89633,1.75509,0.9029
344.199,20.43269,-0.90902,1.76248,0.90255
344.899,20.4541,-0.92518,1.77431,0.9022
345.599,20.47552,-0.93895,1.77979,0.90186
346.299,20.49686,-0.95508,1.79361,0.90151
346.999,20.5183,-0.96971,1.79767,0.90117
347.699,20.53969,-0.98696,1.80845,0.90082
348.399,20.5611,-1.00311,1.81518,0.90048
349.099,20.5826,-1.019,1.82251,0.90013
349.799,20.604,-1.03613,1.83015,0.89979
350.499,20.62548,-1.05081,1.83557,0.89945
351.199,20.64696,-1.06782,1.84225,0.8991
351.899,20.66846,-1.08146,1.84998,0.89876
352.599,20.69,-1.0982,1.85783,0.89841
353.299,20.7114,-1.1122,1.86294,0.89807
353.999,20.7329,-1.13003,1.86966,0.89772
354.699,20.75433,-1.14415,1.87471,0.89738
355.399,20.7758,-1.16152,1.88185,0.89704
356.099,20.7973,-1.17724,1.88611,0.89669
356.799,20.8188,-1.19468,1.89259,0.89635
357.499,20.84029,-1.21169,1.89647,0.896
358.199,20.86178,-1.22937,1.90485,0.89566
358.899,20.88328,-1.24956,1.90975,0.89532
359.599,20.90483,-1.26681,1.9173,0.89497
360.299,20.9263,-1.28525,1.92286,0.89463
360.999,20.94782,-1.29947,1.92934,0.89429
361.699,20.9692,-1.31625,1.93801,0.89394
362.399,20.99054,-1.3304,1.9449,0.8936
363.099,21.01209,-1.34927,1.95446,0.89326
363.799,21.03365,-1.3663,1.96676,0.89291
364.499,21.05529,-1.38724,1.97365,0.89257
365.199,21.07705,-1.40527,1.98991,0.89223
365.899,21.09864,-1.4252,2.00045,0.89188
366.599,21.1202,-1.44492,2.01657,0.89154
367.299,21.14172,-1.46456,2.0321,0.8912
367.999,21.16328,-1.48479,2.04728,0.89086
368.699,21.1848,-1.50287,2.0623,0.89051
369.399,21.20636,-1.52534,2.08385,0.89017
370.099,21.22789,-1.54302,2.10262,0.88983
370.799,21.24944,-1.56492,2.12404,0.88948
371.499,21.27103,-1.58287,2.14436,0.88914
372.199,21.29245,-1.60521,2.16595,0.8888
372.899,21.31394,-1.62283,2.19047,0.88846
373.599,21.33559,-1.64383,2.21498,0.88811
374.299,21.3572,-1.66331,2.23934,0.88777
374.999,21.37898,-1.68518,2.26538,0.88743
375.699,21.40083,-1.70794,2.29319,0.88708
376.399,21.42243,-1.72961,2.32136,0.88674
377.099,21.44405,-1.75371,2.3461,0.8864
377.799,21.46576,-1.77423,2.3741,0.88606
378.499,21.4874,-1.79844,2.40163,0.88571
379.199,21.50909,-1.81874,2.42944,0.88537
379.899,21.5308,-1.84471,2.45924,0.88503
380.599,21.55248,-1.86625,2.48736,0.88468
381.299,21.57418,-1.89255,2.51371,0.88434
381.999,21.59585,-1.91546,2.5379,0.884
382.699,21.6175,-1.9409,2.55868,0.88366
383.399,21.63926,-1.96538,2.58127,0.88331
384.099,21.661,-1.99075,2.59969,0.88297
384.799,21.68246,-2.01688,2.61812,0.88263
385.499,21.70404,-2.04079,2.6325,0.88228
386.199,21.7257,-2.06799,2.64448,0.88194
386.899,21.74737,-2.09149,2.65151,0.8816
387.599,21.7693,-2.12091,2.65587,0.88126
388.299,21.79123,-2.14558,2.65508,0.88091
388.999,21.81305,-2.17409,2.65284,0.88057
389.699,21.8348,-2.19738,2.64275,0.88023
390.399,21.85651,-2.22444,2.62577,0.87988
391.099,21.87819,-2.24868,2.61107,0.87954
391.799,21.89987,-2.27402,2.58683,0.8792
392.499,21.92158,-2.2982,2.5574,0.87885
393.199,21.94331,-2.32293,2.52051,0.87851
393.899,21.96501,-2.34993,2.47941,0.87816
394.599,21.9867,-2.3722,2.43027,0.87782
395.299,22.00842,-2.39791,2.37919,0.87748
395.999,22.0302,-2.41853,2.32371,0.87713
396.699,22.05189,-2.44349,2.25771,0.87679
397.399,22.0736,-2.46328,2.18636,0.87645
398.099,22.09528,-2.48545,2.11199,0.8761
398.799,22.1169,-2.5037,2.0321,0.87576
399.499,22.1386,-2.52315,1.94843,0.87541
400.199,22.16023,-2.54127,1.86283,0.87507
400.899,22.18192,-2.55817,1.77094,0.87472
401.599,22.20361,-2.57538,1.67967,0.87438
402.299,22.22523,-2.58954,1.58325,0.87403
402.999,22.24686,-2.60517,1.49146,0.87369
403.699,22.2684,-2.61741,1.3978,0.87335
404.399,22.28996,-2.63178,1.30355,0.873
405.099,22.31156,-2.64338,1.21002,0.87266
405.799,22.33312,-2.65604,1.12052,0.87231
406.499,22.3547,-2.66551,1.03374,0.87196
407.199,22.37635,-2.67496,0.94762,0.87162
407.899,22.39789,-2.68262,0.86864,0.87127
408.599,22.4195,-2.69002,0.79123,0.87093
409.299,22.44107,-2.698,0.71895,0.87058
409.999,22.46261,-2.70441,0.65013,0.87024
410.699,22.4843,-2.71077,0.58788,0.86989
411.399,22.50581,-2.71522,0.5286,0.86954
412.099,22.52746,-2.72108,0.47748,0.8692
412.799,22.549,-2.72501,0.43023,0.86885
413.499,22.5706,-2.72915,0.38521,0.86851
414.199,22.5923,-2.73304,0.34858,0.86816
414.899,22.6139,-2.7368,0.31281,0.86781
415.599,22.63564,-2.74047,0.2838,0.86747
416.299,22.65727,-2.74432,0.25407,0.86712
416.999,22.67896,-2.74726,0.23282,0.86677
417.699,22.70066,-2.75144,0.21128,0.86642
418.399,22.7223,-2.75377,0.1939,0.86608
419.099,22.7439,-2.75641,0.17592,0.86573
419.799,22.7656,-2.7591,0.16283,0.86538
420.499,22.78729,-2.76206,0.14942,0.86503
421.199,22.8091,-2.76463,0.14029,0.86468
421.899,22.83081,-2.7665,0.12921,0.86434
422.599,22.85254,-2.76936,0.11777,0.86399
423.299,22.87429,-2.7713,0.11256,0.86364
423.999,22.89602,-2.77335,0.10508,0.86329
424.699,22.91777,-2.77556,0.09527605,0.86294
425.399,22.93955,-2.77773,0.08782095,0.86259
426.099,22.96136,-2.77983,0.08344119,0.86224
426.799,22.9832,-2.78228,0.0740213,0.86189
427.499,23.00509,-2.78434,0.06848319,0.86154
428.199,23.0269,-2.78626,0.06266262,0.86119
428.899,23.04874,-2.7882,0.05606347,0.86084
429.599,23.0705,-2.79004,0.04953128,0.86049
430.299,23.09235,-2.79151,0.04664822,0.86014
430.999,23.1142,-2.79347,0.03936741,0.85979
431.699,23.13607,-2.79579,0.03146871,0.85944
432.399,23.158,-2.79779,0.02562587,0.85909
433.099,23.1798,-2.7997,0.02342454,0.85874
433.799,23.20166,-2.80213,0.01516216,0.85839
434.499,23.2235,-2.80426,0.01141747,0.85804
435.199,23.24537,-2.80592,0.00496829,0.85768
435.899,23.26727,-2.80757,0.00134929,0.85733
436.599,23.2892,-2.80961,-0.00471051,0.85698
437.299,23.31113,-2.81224,-0.01306582,0.85663
437.999,23.333,-2.81465,-0.01698159,0.85627
438.699,23.35492,-2.8162,-0.02312513,0.85592
439.399,23.3768,-2.81791,-0.03042932,0.85557
440.099,23.3987,-2.81934,-0.0344062,0.85521
440.799,23.42065,-2.81922,-0.03909425,0.85486
441.499,23.44258,-2.8215,-0.04677205,0.85451
442.199,23.46451,-2.82399,-0.05107282,0.85415
442.899,23.48646,-2.82596,-0.05633623,0.8538
443.599,23.50844,-2.82829,-0.06041444,0.85344
444.299,23.53045,-2.8303,-0.06209473,0.85309
444.999,23.5525,-2.83178,-0.07029225,0.85273
445.699,23.57457,-2.8337,-0.07314621,0.85238
446.399,23.5966,-2.83574,-0.07853549,0.85202
447.099,23.6187,-2.83779,-0.08111449,0.85167
447.799,23.64066,-2.83872,-0.08381644,0.85131
448.499,23.66265,-2.84098,-0.08667444,0.85095
449.199,23.68459,-2.84242,-0.09259204,0.8506
449.899,23.70648,-2.84523,-0.09592184,0.85024
450.599,23.72852,-2.84698,-0.09537416,0.84988
451.299,23.75054,-2.84902,-0.10139,0.84953
451.999,23.77271,-2.85052,-0.10493,0.84917
452.699,23.79489,-2.85202,-0.10546,0.84881
453.399,23.81692,-2.85362,-0.10476,0.84845
454.099,23.839,-2.85523,-0.10879,0.84809
454.799,23.86102,-2.85798,-0.11224,0.84774
455.499,23.88314,-2.86069,-0.11137,0.84738
456.199,23.90525,-2.86319,-0.11352,0.84702
456.899,23.92739,-2.86525,-0.11146,0.84666
457.599,23.9496,-2.86681,-0.11418,0.8463
458.299,23.9717,-2.86829,-0.11143,0.84594
458.999,23.99387,-2.8694,-0.11425,0.84558
459.699,24.016,-2.87129,-0.115,0.84522
460.399,24.03801,-2.87225,-0.1136,0.84486
461.099,24.06009,-2.87299,-0.1133,0.84449
461.799,24.08217,-2.87433,-0.11206,0.84413
462.499,24.10427,-2.87561,-0.10744,0.84377
463.199,24.12642,-2.87713,-0.10855,0.84341
463.899,24.14859,-2.87942,-0.10704,0.84305
464.599,24.17074,-2.88158,-0.10588,0.84268
465.299,24.19293,-2.88337,-0.10169,0.84232
465.999,24.21513,-2.88522,-0.10003,0.84196
466.699,24.2373,-2.88725,-0.09835846,0.84159
467.399,24.2595,-2.88927,-0.0946684,0.84123
468.099,24.2817,-2.89136,-0.09227296,0.84086
468.799,24.30382,-2.89315,-0.08990754,0.8405
469.499,24.32602,-2.89518,-0.08407966,0.84013
470.199,24.3482,-2.89674,-0.08183973,0.83977
470.899,24.37044,-2.89744,-0.07981607,0.8394
471.599,24.39262,-2.89867,-0.076872,0.83904
472.299,24.41483,-2.89879,-0.07224337,0.83867
472.999,24.43706,-2.8988,-0.06846592,0.8383
473.699,24.4592,-2.89945,-0.06398736,0.83794
474.399,24.48144,-2.9003,-0.06062006,0.83757
475.099,24.50365,-2.9023,-0.05739222,0.8372
475.799,24.52585,-2.90495,-0.05311842,0.83683
476.499,24.54816,-2.9088,-0.0496669,0.83647
477.199,24.5704,-2.91138,-0.0460267,0.8361
477.899,24.59273,-2.91272,-0.04127257,0.83573
478.599,24.615,-2.91262,-0.03620065,0.83536
479.299,24.63705,-2.91261,-0.03485578,0.83499
479.999,24.65934,-2.91261,-0.03034242,0.83462
480.699,24.68147,-2.91317,-0.02729801,0.83425
481.399,24.70373,-2.91431,-0.02478164,0.83388
482.099,24.72622,-2.91526,-0.01798304,0.83351
482.799,24.74849,-2.91611,-0.0145043,0.83313
483.499,24.77091,-2.91795,-0.01021926,0.83276
484.199,24.79324,-2.91802,-0.006411395,0.83239
484.899,24.81554,-2.91937,-0.00345115,0.83202
485.599,24.8378,-2.92083,0.0009627505,0.83164
486.299,24.86008,-2.92223,0.004212179,0.83127
486.999,24.88237,-2.92422,0.009133561,0.8309
487.699,24.90462,-2.92626,0.01152082,0.83052
488.399,24.92696,-2.92804,0.01440308,0.83015
489.099,24.94931,-2.92983,0.0173709,0.82977
489.799,24.97162,-2.93075,0.02170277,0.8294
490.499,24.994,-2.93188,0.02656593,0.82902
491.199,25.0164,-2.93361,0.02817722,0.82865
491.899,25.0387,-2.93516,0.03152823,0.82827
492.599,25.06104,-2.93675,0.03165138,0.82789
493.299,25.08332,-2.93759,0.03442187,0.82752
493.999,25.1056,-2.93834,0.03672237,0.82714
494.699,25.12794,-2.93935,0.04049603,0.82676
495.399,25.15031,-2.93869,0.04239035,0.82638
496.099,25.17269,-2.93993,0.04181078,0.826
496.799,25.19502,-2.93992,0.04622262,0.82562
497.499,25.2174,-2.94012,0.04679631,0.82525
498.199,25.2398,-2.94122,0.04864199,0.82487
498.899,25.26223,-2.93981,0.04919595,0.82448
499.599,25.2847,-2.93998,0.05093674,0.8241
500.299,25.30707,-2.94141,0.05401439,0.82372
500.999,25.3295,-2.94247,0.05629246,0.82334
501.699,25.3519,-2.94311,0.05619092,0.82296
502.399,25.37428,-2.94432,0.05497325,0.82258
503.099,25.3967,-2.94588,0.05736468,0.82219
503.799,25.41912,-2.94781,0.05869434,0.82181
504.499,25.4415,-2.9494,0.05943661,0.82143
505.199,25.46397,-2.95005,0.05977581,0.82104
505.899,25.48638,-2.95137,0.06252068,0.82066
506.599,25.50883,-2.95132,0.06157169,0.82027
507.299,25.53131,-2.95273,0.06220102,0.81989
507.999,25.5537,-2.95305,0.0652469,0.8195
508.699,25.5762,-2.95408,0.06554435,0.81912
509.399,25.5986,-2.95404,0.06469358,0.81873
510.099,25.62102,-2.95539,0.06590393,0.81834
510.799,25.6435,-2.95575,0.06460468,0.81795
511.499,25.66595,-2.95677,0.07000776,0.81757
512.199,25.68846,-2.9582,0.06890086,0.81718
512.899,25.71097,-2.95875,0.06887622,0.81679
513.599,25.73346,-2.95956,0.06910567,0.8164
514.299,25.75595,-2.96129,0.07011529,0.81601
514.999,25.7785,-2.96233,0.0691947,0.81562
515.699,25.80099,-2.96285,0.07066111,0.81523
516.399,25.82339,-2.96425,0.0693778,0.81484
517.099,25.84569,-2.9641,0.07057238,0.81445
517.799,25.86799,-2.96645,0.06937008,0.81405
518.499,25.8904,-2.96701,0.06897373,0.81366
519.199,25.91304,-2.96843,0.06948872,0.81327
519.899,25.9358,-2.96845,0.07281661,0.81288
520.599,25.95853,-2.97114,0.06980892,0.81248
521.299,25.9811,-2.97134,0.07074373,0.81209
521.999,26.00366,-2.97273,0.07184382,0.81169
522.699,26.02621,-2.97272,0.07177677,0.8113
523.399,26.04877,-2.97334,0.07071244,0.8109
524.099,26.0713,-2.97401,0.07375111,0.81051
524.799,26.09389,-2.97454,0.07016927,0.81011
525.499,26.11647,-2.97462,0.07087211,0.80971
526.199,26.1391,-2.97535,0.06839009,0.80931
526.899,26.16185,-2.97532,0.06782552,0.80892
527.599,26.1845,-2.97643,0.06991833,0.80852
528.299,26.2072,-2.97666,0.06694241,0.80812
528.999,26.2299,-2.97705,0.06964953,0.80772
529.699,26.25255,-2.97795,0.06624897,0.80732
530.399,26.27523,-2.97902,0.0696597,0.80692
531.099,26.2979,-2.9794,0.06767432,0.80652
531.799,26.3206,-2.98078,0.06756361,0.80612
532.499,26.34334,-2.9804,0.0637864,0.80572
533.199,26.36617,-2.98078,0.06395684,0.80531
533.899,26.38904,-2.98104,0.06113392,0.80491
534.599,26.41178,-2.98223,0.06011028,0.80451
535.299,26.43455,-2.98385,0.05958604,0.8041
535.999,26.45727,-2.98552,0.05588683,0.8037
536.699,26.48,-2.98757,0.05503675,0.80329
537.399,26.5028,-2.98906,0.05514398,0.80289
538.099,26.5256,-2.98938,0.05309104,0.80248
538.799,26.54842,-2.99061,0.0492901,0.80208
539.499,26.57119,-2.98989,0.04648342,0.80167
540.199,26.59395,-2.99097,0.04951976,0.80126
540.899,26.61676,-2.99124,0.04650724,0.80085
541.599,26.6395,-2.99125,0.04486903,0.80045
542.299,26.6624,-2.99164,0.04194495,0.80004
542.999,26.6853,-2.99418,0.04384351,0.79963
543.699,26.7081,-2.99467,0.03882602,0.79922
544.399,26.73103,-2.99554,0.03938329,0.79881
545.099,26.7538,-2.99666,0.03576923,0.7984
545.799,26.7766,-2.99803,0.03424623,0.79798
546.499,26.7995,-2.99805,0.03345405,0.79757
547.199,26.8223,-2.99799,0.03174919,0.79716
547.899,26.8452,-2.99933,0.03127799,0.79675
548.599,26.868,-2.99937,0.03058245,0.79633
549.299,26.89088,-3.00099,0.02990041,0.79592
549.999,26.9137,-3.00029,0.02718063,0.79551
550.699,26.93658,-3.00069,0.02664172,0.79509
551.399,26.95938,-2.99937,0.02779671,0.79467
552.099,26.98222,-2.99796,0.02723917,0.79426
552.799,27.0051,-2.99799,0.02982514,0.79384
553.499,27.0279,-2.99931,0.03392585,0.79342
554.199,27.0507,-2.99989,0.03557564,0.79301
554.899,27.07351,-3.00203,0.03639862,0.79259
555.599,27.0963,-3.00203,0.03547071,0.79217
556.299,27.1192,-3.00299,0.03762006,0.79175
556.999,27.14201,-3.00421,0.03583261,0.79133
557.699,27.16483,-3.00458,0.0398338,0.79091
558.399,27.18771,-3.00589,0.0403805,0.79049
559.099,27.21055,-3.00605,0.03993819,0.79007
559.799,27.2334,-3.00727,0.04041259,0.78965
560.499,27.2562,-3.00718,0.03865293,0.78922
561.199,27.279,-3.00858,0.0373126,0.7888
561.899,27.3018,-3.00858,0.03752085,0.78838
562.599,27.3246,-3.00858,0.03727143,0.78795
563.299,27.3475,-3.00858,0.03720488,0.78753
563.999,27.37043,-3.00867,0.03564278,0.7871
564.699,27.39327,-3.00986,0.03716617,0.78668
565.399,27.41613,-3.01147,0.03885033,0.78625
566.099,27.43895,-3.01273,0.03475561,0.78582
566.799,27.46172,-3.01321,0.03640343,0.7854
567.499,27.48456,-3.01459,0.03496006,0.78497
568.199,27.5074,-3.01444,0.03333392,0.78454
568.899,27.53023,-3.01604,0.03379522,0.78411
569.599,27.55305,-3.01704,0.03550175,0.78368
570.299,27.57593,-3.01872,0.03369494,0.78325
570.999,27.5987,-3.01867,0.03316711,0.78282
571.699,27.6216,-3.01865,0.03530759,0.78239
572.399,27.6445,-3.01981,0.03320038,0.78196
573.099,27.66729,-3.02009,0.03426787,0.78152
573.799,27.69005,-3.02157,0.036105,0.78109
574.499,27.71285,-3.02146,0.03468082,0.78066
575.199,27.73572,-3.02281,0.03535367,0.78022
575.899,27.7585,-3.02284,0.03120488,0.77979
576.599,27.7814,-3.02284,0.03464631,0.77935
577.299,27.80428,-3.02285,0.03303792,0.77892
577.999,27.82705,-3.02311,0.03388208,0.77848
578.699,27.84988,-3.02283,0.0321577,0.77804
579.399,27.8727,-3.02284,0.03051446,0.77761
580.099,27.8956,-3.02287,0.03139002,0.77717
580.799,27.9185,-3.02378,0.02808885,0.77673
581.499,27.9413,-3.02499,0.02580953,0.77629
582.199,27.9641,-3.02572,0.0265065,0.77585
582.899,27.987,-3.02681,0.02477918,0.77541
583.599,28.00975,-3.02679,0.02250105,0.77497
584.299,28.03267,-3.02754,0.02294526,0.77453
584.999,28.05548,-3.0268,0.02205797,0.77408
585.699,28.07832,-3.02679,0.02068174,0.77364
586.399,28.10117,-3.02679,0.01964393,0.7732
587.099,28.124,-3.0268,0.01501023,0.77275
587.799,28.14691,-3.02706,0.01303714,0.77231
588.499,28.16975,-3.02712,0.01093699,0.77186
589.199,28.1926,-3.02728,0.009623155,0.77142
589.899,28.2156,-3.02847,0.005638519,0.77097
590.599,28.23848,-3.0284,0.002892149,0.77052
591.299,28.26137,-3.02998,0.001274887,0.77008
591.999,28.2842,-3.03067,-0.00262966,0.76963
592.699,28.3071,-3.03095,-0.007406396,0.76918
593.399,28.33,-3.03096,-0.009310236,0.76873
594.099,28.353,-3.03096,-0.00966455,0.76828
594.799,28.3759,-3.03097,-0.01350038,0.76783
595.499,28.3988,-3.03159,-0.01879879,0.76738
596.199,28.4217,-3.03367,-0.02254219,0.76693
596.899,28.44456,-3.0336,-0.02512603,0.76647
597.599,28.46745,-3.03359,-0.02655612,0.76602
598.299,28.4903,-3.03359,-0.03108668,0.76557
598.999,28.5131,-3.03355,-0.03173491,0.76511
599.699,28.5361,-3.03477,-0.03513225,0.76466
600.399,28.55898,-3.03491,-0.03696296,0.7642
601.099,28.58192,-3.03492,-0.03893879,0.76375
601.799,28.6049,-3.03545,-0.03823164,0.76329
602.499,28.6278,-3.03624,-0.04232196,0.76283
603.199,28.65067,-3.037,-0.0434844,0.76238
603.899,28.6736,-3.03748,-0.04649222,0.76192
604.599,28.69646,-3.0385,-0.04547639,0.76146
605.299,28.71927,-3.03952,-0.04997042,0.761
605.999,28.74222,-3.03981,-0.04813727,0.76054
606.699,28.7652,-3.04096,-0.0509225,0.76008
607.399,28.78817,-3.04114,-0.05048294,0.75962
608.099,28.8113,-3.04131,-0.05429598,0.75916
608.799,28.8343,-3.04161,-0.05471564,0.75869
609.499,28.8573,-3.04136,-0.05359426,0.75823
610.199,28.8803,-3.04258,-0.05105918,0.75777
610.899,28.9032,-3.04413,-0.05509898,0.7573
611.599,28.92622,-3.04443,-0.05383082,0.75684
612.299,28.94916,-3.04533,-0.05589803,0.75637
612.999,28.97216,-3.04535,-0.05564159,0.75591
613.699,28.99515,-3.04673,-0.05672516,0.75544
614.399,29.01807,-3.04665,-0.05877765,0.75497
615.099,29.04113,-3.04679,-0.05890739,0.7545
615.799,29.0643,-3.04796,-0.06052826,0.75404
616.499,29.08734,-3.04789,-0.05707526,0.75357
617.199,29.1105,-3.04928,-0.06080255,0.7531
617.899,29.1336,-3.05012,-0.06013246,0.75263
618.599,29.15663,-3.05068,-0.06302327,0.75215
619.299,29.1797,-3.05205,-0.06151424,0.75168
619.999,29.20275,-3.05203,-0.06371237,0.75121
620.699,29.22584,-3.05205,-0.06151634,0.75074
621.399,29.249,-3.05298,-0.06198483,0.75026
622.099,29.27212,-3.05332,-0.05991848,0.74979
622.799,29.29529,-3.05323,-0.06329254,0.74931
623.499,29.31849,-3.05465,-0.06362495,0.74884
624.199,29.34168,-3.05465,-0.06064732,0.74836
624.899,29.36481,-3.05454,-0.06307518,0.74789
625.599,29.388,-3.05547,-0.06081077,0.74741
626.299,29.4111,-3.05511,-0.06380264,0.74693
626.999,29.43419,-3.0565,-0.06156064,0.74645
627.699,29.45735,-3.05641,-0.06202893,0.74597
628.399,29.4805,-3.05641,-0.06297599,0.74549
629.099,29.50367,-3.05641,-0.0583738,0.74501
629.799,29.52689,-3.05641,-0.06138818,0.74453
630.499,29.55,-3.05641,-0.06084472,0.74405
631.199,29.5732,-3.05633,-0.05883028,0.74357
631.899,29.59634,-3.0577,-0.05750823,0.74308
632.599,29.61941,-3.05772,-0.05585476,0.7426
633.299,29.6425,-3.05878,-0.05539161,0.74212
633.999,29.6657,-3.05908,-0.05433176,0.74163
634.699,29.6889,-3.06015,-0.05083812,0.74115
635.399,29.71213,-3.06103,-0.05363846,0.74066
636.099,29.7354,-3.06144,-0.04742881,0.74017
636.799,29.75856,-3.06146,-0.04754176,0.73969
637.499,29.7817,-3.06276,-0.04868735,0.7392
638.199,29.80497,-3.06329,-0.04591545,0.73871
638.899,29.82822,-3.06454,-0.04825895,0.73822
639.599,29.85146,-3.06539,-0.04344217,0.73773
640.299,29.87475,-3.06598,-0.0414997,0.73724
640.999,29.8979,-3.06591,-0.03907408,0.73675
641.699,29.9211,-3.06595,-0.03548843,0.73626
642.399,29.9444,-3.06595,-0.03679401,0.73576
643.099,29.9677,-3.06595,-0.03493582,0.73527
643.799,29.99098,-3.06595,-0.03420538,0.73478
644.499,30.01422,-3.06595,-0.02973035,0.73428
645.199,30.0374,-3.06591,-0.02810897,0.73379
645.899,30.0605,-3.0673,-0.02206297,0.73329
646.599,30.0837,-3.06771,-0.0169088,0.7328
647.299,30.10695,-3.06873,-0.01527706,0.7323
647.999,30.13025,-3.07021,-0.01383111,0.7318
648.699,30.1535,-3.0716,-0.007295645,0.7313
649.399,30.1767,-3.07237,-0.0030051,0.73081
650.099,30.19985,-3.07242,-0.0010773,0.73031
650.799,30.22302,-3.07235,-0.000172209,0.72981
651.499,30.2463,-3.07372,0.0047757,0.72931
652.199,30.26956,-3.07374,0.01202608,0.7288
652.899,30.29278,-3.07413,0.01659274,0.7283
653.599,30.31601,-3.07573,0.01970033,0.7278
654.299,30.3392,-3.07571,0.02563272,0.7273
654.999,30.3623,-3.07753,0.0303558,0.72679
655.699,30.38553,-3.07832,0.0372338,0.72629
656.399,30.40867,-3.07834,0.04469264,0.72578
657.099,30.43188,-3.07914,0.04890493,0.72528
657.799,30.4551,-3.07837,0.05168044,0.72477
658.499,30.4783,-3.0786,0.05927615,0.72426
659.199,30.50153,-3.07965,0.06787592,0.72376
659.899,30.5247,-3.08018,0.07018758,0.72325
660.599,30.5479,-3.08098,0.07669752,0.72274
661.299,30.5711,-3.08105,0.08416505,0.72223
661.999,30.59425,-3.08234,0.09201564,0.72172
662.699,30.6175,-3.08368,0.10276,0.72121
663.399,30.6408,-3.08435,0.11098,0.7207
664.099,30.66405,-3.08556,0.11598,0.72019
664.799,30.68729,-3.08694,0.1257,0.71967
665.499,30.71047,-3.08767,0.1323,0.71916
666.199,30.7337,-3.08817,0.14119,0.71865
666.899,30.757,-3.08965,0.14809,0.71813
667.599,30.78026,-3.09107,0.15754,0.71761
668.299,30.80354,-3.09279,0.163,0.7171
668.999,30.82678,-3.09408,0.17338,0.71658
669.699,30.8499,-3.09483,0.18161,0.71607
670.399,30.87312,-3.09651,0.1907,0.71555
671.099,30.89633,-3.09754,0.20147,0.71503
671.799,30.91954,-3.09776,0.21074,0.71451
672.499,30.94277,-3.099,0.2197,0.71399
673.199,30.966,-3.09908,0.22639,0.71347
673.899,30.98917,-3.1005,0.24125,0.71295
674.599,31.0123,-3.10148,0.24758,0.71243
675.299,31.03551,-3.10214,0.25985,0.7119
675.999,31.0588,-3.10336,0.26852,0.71138
676.699,31.08203,-3.10399,0.27578,0.71086
677.399,31.10525,-3.10471,0.28834,0.71033
678.099,31.1285,-3.10609,0.29927,0.70981
678.799,31.15178,-3.10568,0.30486,0.70928
679.499,31.17513,-3.10705,0.32087,0.70876
680.199,31.19847,-3.10851,0.32793,0.70823
680.899,31.2217,-3.11005,0.34226,0.7077
681.599,31.245,-3.11153,0.35411,0.70718
682.299,31.2683,-3.11258,0.36356,0.70665
682.999,31.29157,-3.11377,0.37536,0.70612
683.699,31.3149,-3.11519,0.38603,0.70559
684.399,31.33823,-3.11647,0.39335,0.70506
685.099,31.3615,-3.11816,0.40345,0.70453
685.799,31.38477,-3.11977,0.41247,0.70399
686.499,31.40805,-3.12134,0.42191,0.70346
687.199,31.4313,-3.12277,0.4349,0.70293
687.899,31.4547,-3.12365,0.44094,0.70239
688.599,31.47798,-3.12465,0.45443,0.70186
689.299,31.5014,-3.12559,0.46304,0.70133
689.999,31.52474,-3.12656,0.47443,0.70079
690.699,31.5481,-3.12759,0.48269,0.70025
691.399,31.57137,-3.12864,0.49322,0.69972
692.099,31.59468,-3.1302,0.50205,0.69918
692.799,31.618,-3.13108,0.5067,0.69864
693.499,31.6413,-3.13183,0.51604,0.6981
694.199,31.6645,-3.1332,0.52467,0.69756
694.899,31.68784,-3.13479,0.53156,0.69702
695.599,31.71118,-3.13661,0.53712,0.69648
696.299,31.7345,-3.13853,0.53944,0.69594
696.999,31.7578,-3.14051,0.54445,0.6954
697.699,31.78107,-3.14222,0.55068,0.69486
698.399,31.8043,-3.14402,0.55527,0.69431
699.099,31.8277,-3.14544,0.55562,0.69377
699.799,31.8511,-3.14703,0.55958,0.69322
700.499,31.87449,-3.1485,0.55884,0.69268
701.199,31.8978,-3.15007,0.5576,0.69213
701.899,31.92121,-3.15192,0.55895,0.69159
702.599,31.94455,-3.15164,0.55385,0.69104
703.299,31.9679,-3.15225,0.55262,0.69049
703.999,31.9912,-3.15357,0.54268,0.68994
704.699,32.0145,-3.15346,0.53677,0.6894
705.399,32.03783,-3.15391,0.52884,0.68885
706.099,32.06109,-3.15539,0.51769,0.6883
706.799,32.08443,-3.15767,0.50772,0.68775
707.499,32.10781,-3.16011,0.4979,0.68719
708.199,32.131,-3.16194,0.48383,0.68664
708.899,32.15439,-3.1633,0.46672,0.68609
709.599,32.17773,-3.16427,0.44942,0.68554
710.299,32.20104,-3.16725,0.43686,0.68498
710.999,32.2245,-3.16852,0.41418,0.68443
711.699,32.2479,-3.16942,0.40002,0.68387
712.399,32.2712,-3.17162,0.38203,0.68332
713.099,32.2945,-3.17292,0.36485,0.68276
713.799,32.3179,-3.17483,0.34594,0.6822
714.499,32.34118,-3.17614,0.33002,0.68165
715.199,32.36455,-3.17668,0.31571,0.68109
715.899,32.38793,-3.17786,0.29678,0.68053
716.599,32.41129,-3.17897,0.27976,0.67997
717.299,32.43461,-3.18029,0.25793,0.67941
717.999,32.45796,-3.18141,0.23542,0.67885
718.699,32.48129,-3.18129,0.20918,0.67829
719.399,32.50461,-3.18254,0.17263,0.67773
720.099,32.52793,-3.18341,0.1349,0.67716
720.799,32.55127,-3.18381,0.08712057,0.6766
721.499,32.57457,-3.18405,0.02753749,0.67604
722.199,32.59796,-3.18397,-0.04103675,0.67547
722.899,32.62128,-3.18397,-0.10869,0.67491
723.599,32.64461,-3.18488,-0.17082,0.67434
724.299,32.66793,-3.18529,-0.21758,0.67378
724.999,32.69128,-3.18614,-0.25309,0.67321
725.699,32.71461,-3.18664,-0.28415,0.67264
726.399,32.73791,-3.18798,-0.30519,0.67207
727.099,32.76123,-3.18811,-0.32037,0.67151
727.799,32.78459,-3.18965,-0.33734,0.67094
728.499,32.80793,-3.19044,-0.3493,0.67037
729.199,32.83129,-3.19089,-0.3592,0.6698
729.899,32.85461,-3.19131,-0.36553,0.66923
730.599,32.87789,-3.19107,-0.3761,0.66865
731.299,32.9012,-3.19111,-0.37708,0.66808
731.999,32.9245,-3.1926,-0.38336,0.66751
732.699,32.94784,-3.1925,-0.38965,0.66694
733.399,32.97116,-3.19413,-0.39214,0.66636
734.099,32.99452,-3.19434,-0.39385,0.66579
734.799,33.0179,-3.19551,-0.40061,0.66521
735.499,33.0413,-3.19545,-0.40301,0.66464
736.199,33.06456,-3.19674,-0.40849,0.66406
736.899,33.0878,-3.1968,-0.41057,0.66348
737.599,33.1111,-3.1968,-0.41099,0.66291
738.299,33.1344,-3.19689,-0.41692,0.66233
738.999,33.15791,-3.1955,-0.42017,0.66175
739.699,33.1813,-3.19549,-0.42176,0.66117
740.399,33.20472,-3.19549,-0.42385,0.66059
741.099,33.2281,-3.19549,-0.42456,0.66001
741.799,33.25148,-3.19549,-0.43073,0.65943
742.499,33.27492,-3.19549,-0.43088,0.65885
743.199,33.29833,-3.19549,-0.43326,0.65826
743.899,33.32178,-3.1953,-0.43329,0.65768
744.599,33.34515,-3.19555,-0.43658,0.6571
745.299,33.36849,-3.19549,-0.43932,0.65651
745.999,33.39186,-3.19636,-0.43909,0.65593
746.699,33.4152,-3.19679,-0.4399,0.65534
747.399,33.43868,-3.1982,-0.43967,0.65476
748.099,33.46205,-3.1992,-0.44294,0.65417
748.799,33.4854,-3.20035,-0.44291,0.65358
749.499,33.50885,-3.20108,-0.44759,0.653
750.199,33.53221,-3.20095,-0.44893,0.65241
750.899,33.5557,-3.19965,-0.44895,0.65182
751.599,33.57914,-3.19823,-0.45327,0.65123
752.299,33.60257,-3.19826,-0.45227,0.65064
752.999,33.626,-3.19705,-0.4561,0.65005
753.699,33.64942,-3.19691,-0.45837,0.64946
754.399,33.67288,-3.19691,-0.45947,0.64887
755.099,33.6963,-3.19691,-0.46074,0.64827
755.799,33.71973,-3.19729,-0.46504,0.64768
756.499,33.74317,-3.19818,-0.46632,0.64709
757.199,33.7667,-3.19741,-0.46563,0.64649
757.899,33.79014,-3.19665,-0.46934,0.6459
758.599,33.81358,-3.19631,-0.46742,0.6453
759.299,33.83699,-3.19647,-0.47035,0.64471
759.999,33.86038,-3.19691,-0.47438,0.64411
760.699,33.88377,-3.19774,-0.47203,0.64352
761.399,33.90721,-3.19698,-0.47607,0.64292
762.099,33.93067,-3.19786,-0.47497,0.64232
762.799,33.9542,-3.19786,-0.47886,0.64172
763.499,33.97764,-3.19916,-0.47827,0.64112
764.199,34.00104,-3.20022,-0.48146,0.64052
764.899,34.02432,-3.20042,-0.47891,0.63992
765.599,34.04776,-3.20065,-0.47809,0.63932
766.299,34.07124,-3.20225,-0.48145,0.63872
766.999,34.09482,-3.20304,-0.48151,0.63812
767.699,34.11848,-3.20306,-0.48589,0.63752
768.399,34.1419,-3.20306,-0.48655,0.63691
769.099,34.16537,-3.20306,-0.48832,0.63631
769.799,34.18885,-3.20306,-0.4882,0.63571
770.499,34.21217,-3.20306,-0.4894,0.6351
771.199,34.23571,-3.20307,-0.49086,0.6345
771.899,34.25922,-3.20372,-0.49174,0.63389
772.599,34.2828,-3.20436,-0.49095,0.63329
773.299,34.30643,-3.20437,-0.49106,0.63268
773.999,34.32992,-3.20437,-0.49038,0.63207
774.699,34.3534,-3.20579,-0.49516,0.63146
775.399,34.37693,-3.20587,-0.49741,0.63085
776.099,34.40043,-3.20654,-0.49937,0.63025
776.799,34.42392,-3.20643,-0.49987,0.62964
777.499,34.44746,-3.20688,-0.50253,0.62903
778.199,34.4709,-3.20688,-0.50153,0.62842
778.899,34.49457,-3.20638,-0.49897,0.6278
779.599,34.51813,-3.20557,-0.50368,0.62719
780.299,34.5416,-3.20558,-0.50163,0.62658
780.999,34.56514,-3.20614,-0.50304,0.62597
781.699,34.58866,-3.20689,-0.50558,0.62536
782.399,34.61221,-3.20689,-0.50605,0.62474
783.099,34.63583,-3.20689,-0.50245,0.62413
783.799,34.65938,-3.20689,-0.50432,0.62351
784.499,34.68292,-3.20691,-0.50492,0.6229
785.199,34.70646,-3.20629,-0.5059,0.62228
785.899,34.72998,-3.20619,-0.50971,0.62166
786.599,34.75355,-3.20559,-0.50655,0.62105
787.299,34.7771,-3.20557,-0.50873,0.62043
787.999,34.8007,-3.20557,-0.51027,0.61981
788.699,34.8243,-3.20557,-0.51465,0.61919
789.399,34.84783,-3.20554,-0.51158,0.61857
790.099,34.87138,-3.20684,-0.51333,0.61795
790.799,34.895,-3.20555,-0.51033,0.61733
791.499,34.91858,-3.20619,-0.51397,0.61671
792.199,34.9422,-3.20688,-0.5165,0.61609
792.899,34.96584,-3.2068,-0.51668,0.61547
793.599,34.98945,-3.20821,-0.51856,0.61485
794.299,35.013,-3.20821,-0.51581,0.61423
794.999,35.0366,-3.20821,-0.51799,0.6136
795.699,35.06012,-3.20863,-0.52183,0.61298
796.399,35.08374,-3.20951,-0.51788,0.61236
797.099,35.10735,-3.20955,-0.51893,0.61173
797.799,35.131,-3.21064,-0.51892,0.61111
798.499,35.15466,-3.21084,-0.51844,0.61048
799.199,35.1783,-3.21084,-0.52128,0.60985
799.899,35.20197,-3.21084,-0.52271,0.60923
800.599,35.2256,-3.21084,-0.52291,0.6086
801.299,35.24926,-3.21084,-0.52441,0.60797
801.999,35.27284,-3.21088,-0.52349,0.60734
802.699,35.29647,-3.20965,-0.5285,0.60672
803.399,35.31997,-3.20953,-0.52542,0.60609
804.099,35.3436,-3.20948,-0.52783,0.60546
804.799,35.36719,-3.20817,-0.52802,0.60483
805.499,35.39082,-3.20821,-0.52813,0.6042
806.199,35.41451,-3.20821,-0.5271,0.60357
806.899,35.4381,-3.20821,-0.52548,0.60293
807.599,35.46171,-3.20961,-0.52949,0.6023
808.299,35.4852,-3.20953,-0.52876,0.60167
808.999,35.50881,-3.20952,-0.52885,0.60104
809.699,35.53249,-3.20943,-0.52543,0.6004
810.399,35.5562,-3.20917,-0.53292,0.59977
811.099,35.5799,-3.20953,-0.53173,0.59913
811.799,35.60352,-3.20946,-0.53473,0.5985
812.499,35.62713,-3.21102,-0.53053,0.59786
813.199,35.65071,-3.21098,-0.52735,0.59723
813.899,35.67437,-3.21154,-0.52769,0.59659
814.599,35.698,-3.21271,-0.5289,0.59596
815.299,35.72164,-3.2127,-0.52578,0.59532
815.999,35.7453,-3.2127,-0.52692,0.59468
816.699,35.76885,-3.2127,-0.53123,0.59404
817.399,35.79253,-3.2127,-0.52613,0.5934
818.099,35.81623,-3.2127,-0.5259,0.59276
818.799,35.84,-3.2127,-0.52534,0.59212
819.499,35.86367,-3.2127,-0.52514,0.59148
820.199,35.88734,-3.2127,-0.5272,0.59084
820.899,35.91098,-3.21278,-0.52632,0.5902
821.599,35.9345,-3.2137,-0.52366,0.58956
822.299,35.95821,-3.21369,-0.52692,0.58892
822.999,35.98189,-3.21369,-0.52206,0.58828
823.699,36.00561,-3.21372,-0.52051,0.58763
824.399,36.0293,-3.2148,-0.52506,0.58699
825.099,36.05299,-3.21523,-0.52444,0.58635
825.799,36.07662,-3.21523,-0.52502,0.5857
826.499,36.10028,-3.21566,-0.52944,0.58506
827.199,36.12396,-3.21652,-0.52343,0.58441
827.899,36.1477,-3.21676,-0.52311,0.58377
828.599,36.17138,-3.21784,-0.52707,0.58312
829.299,36.19502,-3.21787,-0.5237,0.58248
829.999,36.2187,-3.21657,-0.5242,0.58183
830.699,36.24244,-3.21653,-0.52374,0.58118
831.399,36.26616,-3.21654,-0.52439,0.58054
832.099,36.28991,-3.21654,-0.52587,0.57989
832.799,36.31362,-3.21639,-0.52453,0.57924
833.499,36.33732,-3.21602,-0.52619,0.57859
834.199,36.36105,-3.2149,-0.52345,0.57794
834.899,36.38472,-3.2139,-0.52331,0.57729
835.599,36.40847,-3.21484,-0.52253,0.57664
836.299,36.4322,-3.21526,-0.52285,0.57599
836.999,36.45584,-3.21406,-0.52349,0.57534
837.699,36.47956,-3.21391,-0.52111,0.57469
838.399,36.50322,-3.21393,-0.5199,0.57404
839.099,36.52698,-3.21469,-0.51917,0.57338
839.799,36.5507,-3.21523,-0.51807,0.57273
840.499,36.57439,-3.21523,-0.51608,0.57208
841.199,36.59809,-3.21523,-0.51493,0.57142
841.899,36.6218,-3.21535,-0.51491,0.57077
842.599,36.64598,-3.21658,-0.51751,0.57012
843.199,36.66581,-3.21655,-0.51692,0.56956