File: 01_Data/PP/STA/N2/10K_min/PP_STA_N2_10KData_210824_R1.csv
##Temp./Â°C,Time/min,Mass loss(subtr.2)/mg,DSC(subtr.2)/(mW/mg),Sensit./(uV/mW)
49.735,10.00917,0.00987,0.03283151,1.03585
50.335,11.4832,0.01345135,0.06609166,1.03582
50.935,11.84895,0.01283033,0.09080918,1.03579
51.535,12.11115,0.01193628,0.10736,1.03576
52.135,12.32896,0.01436439,0.12405,1.03572
52.735,12.51999,0.01401584,0.13738,1.03569
53.335,12.69138,0.01386134,0.14863,1.03565
53.935,12.85094,0.01423757,0.15828,1.03561
54.535,13.0006,0.01519264,0.16733,1.03557
55.135,13.1419,0.0159558,0.17503,1.03553
55.735,13.27733,0.01534322,0.184,1.03549
56.335,13.40801,0.01448158,0.18847,1.03545
56.935,13.5326,0.01465901,0.19611,1.0354
57.535,13.65359,0.01737215,0.20238,1.03535
58.135,13.7714,0.01602427,0.21002,1.0353
58.735,13.88544,0.01600169,0.21471,1.03525
59.335,13.9955,0.01601255,0.21939,1.0352
59.935,14.10343,0.01644993,0.22272,1.03515
60.535,14.2104,0.01736839,0.23011,1.03509
61.135,14.315,0.01664104,0.23615,1.03504
61.735,14.41709,0.01563305,0.241,1.03498
62.335,14.5171,0.0161011,0.24782,1.03492
62.935,14.6157,0.01731004,0.24953,1.03486
63.535,14.7115,0.01605031,0.25529,1.0348
64.135,14.8065,0.01602964,0.26093,1.03473
64.735,14.90064,0.01717328,0.26635,1.03467
65.335,14.99296,0.01632798,0.2693,1.0346
65.935,15.08334,0.01748521,0.27331,1.03453
66.535,15.17256,0.01736355,0.27794,1.03446
67.135,15.26092,0.01762451,0.28251,1.03439
67.735,15.3486,0.01780988,0.28474,1.03431
68.335,15.4349,0.01771589,0.28923,1.03424
68.935,15.5198,0.01754202,0.29543,1.03416
69.535,15.60377,0.01886455,0.29561,1.03408
70.135,15.68635,0.01746315,0.29934,1.03401
70.735,15.7674,0.01857672,0.30117,1.03392
71.335,15.8495,0.01865199,0.30304,1.03384
71.935,15.93034,0.01941786,0.30738,1.03376
72.535,16.01085,0.01958341,0.30853,1.03367
73.135,16.08962,0.01843784,0.31327,1.03359
73.735,16.1681,0.01843081,0.31428,1.0335
74.335,16.24644,0.01999966,0.31789,1.03341
74.935,16.3242,0.01985494,0.31973,1.03332
75.535,16.40118,0.01974947,0.32216,1.03322
76.135,16.47741,0.01972103,0.32638,1.03313
76.735,16.5527,0.01813523,0.32708,1.03303
77.335,16.6274,0.01949185,0.32807,1.03294
77.935,16.70139,0.01906796,0.33246,1.03284
78.535,16.77509,0.02359116,0.33562,1.03274
79.135,16.84854,0.02017937,0.33864,1.03263
79.735,16.92062,0.02149878,0.33889,1.03253
80.335,16.99297,0.02159252,0.34403,1.03243
80.935,17.06472,0.02098757,0.34557,1.03232
81.535,17.1368,0.02008667,0.34659,1.03221
82.135,17.20769,0.02145683,0.34752,1.0321
82.735,17.27824,0.02115875,0.35215,1.03199
83.335,17.34863,0.01984847,0.35451,1.03188
83.935,17.41862,0.02124568,0.35689,1.03177
84.535,17.488,0.01989206,0.35981,1.03165
85.135,17.55694,0.01959896,0.36193,1.03154
85.735,17.62528,0.02228367,0.36284,1.03142
86.335,17.6935,0.02223098,0.36574,1.0313
86.935,17.7614,0.0221566,0.36763,1.03118
87.535,17.82916,0.02215979,0.36893,1.03106
88.135,17.89648,0.02208877,0.37224,1.03093
88.735,17.96329,0.02215226,0.37499,1.03081
89.335,18.0298,0.02216257,0.37775,1.03068
89.935,18.09591,0.02204357,0.37916,1.03055
90.535,18.1616,0.02074934,0.38009,1.03042
91.135,18.22695,0.02204829,0.3824,1.03029
91.735,18.29202,0.0220582,0.38443,1.03016
92.335,18.35699,0.0228702,0.38518,1.03003
92.935,18.4217,0.02201322,0.38822,1.02989
93.535,18.48626,0.02176156,0.38983,1.02976
94.135,18.55084,0.0218111,0.39112,1.02962
94.735,18.6148,0.02148625,0.39398,1.02948
95.335,18.67853,0.02210951,0.39754,1.02934
95.935,18.74224,0.02366298,0.39787,1.02919
96.535,18.80573,0.02465432,0.40162,1.02905
97.135,18.86865,0.0232492,0.40255,1.02891
97.735,18.93146,0.02285502,0.40275,1.02876
98.335,18.99409,0.02304722,0.40565,1.02861
98.935,19.05687,0.02353085,0.40815,1.02846
99.535,19.11925,0.02280991,0.40964,1.02831
100.135,19.18153,0.02413266,0.41242,1.02816
100.735,19.24326,0.02413802,0.41255,1.02801
101.335,19.30499,0.01820161,0.41586,1.02785
101.935,19.36673,0.0290127,0.41777,1.0277
102.535,19.42844,0.02298484,0.41998,1.02754
103.135,19.48988,0.02281994,0.42083,1.02738
103.735,19.55099,0.02414451,0.42397,1.02722
104.335,19.6121,0.0240767,0.42403,1.02706
104.935,19.67315,0.02400731,0.42603,1.02689
105.535,19.73416,0.02428229,0.42859,1.02673
106.135,19.79495,0.02449885,0.43103,1.02656
106.735,19.8552,0.02290453,0.4335,1.0264
107.335,19.91584,0.02402468,0.43472,1.02623
107.935,19.97639,0.02401644,0.43628,1.02606
108.535,20.0374,0.02384505,0.4382,1.02589
109.135,20.09765,0.02248543,0.43835,1.02571
109.735,20.15813,0.02347299,0.44397,1.02554
110.335,20.21825,0.02349223,0.446,1.02536
110.935,20.27835,0.02380261,0.44688,1.02519
111.535,20.33836,0.02506974,0.44713,1.02501
112.135,20.3984,0.02541781,0.45211,1.02483
112.735,20.4582,0.02478512,0.45206,1.02465
113.335,20.51782,0.0248811,0.45507,1.02447
113.935,20.5773,0.02358157,0.45905,1.02428
114.535,20.6367,0.0240651,0.4597,1.0241
115.135,20.69612,0.0248999,0.46184,1.02391
115.735,20.75531,0.02490046,0.46222,1.02373
116.335,20.81446,0.02355539,0.46648,1.02354
116.935,20.87355,0.02489663,0.46877,1.02335
117.535,20.93244,0.02620871,0.46979,1.02315
118.135,20.99139,0.02490475,0.47343,1.02296
118.735,21.05016,0.02390917,0.47602,1.02277
119.335,21.10879,0.02493148,0.47846,1.02257
119.935,21.1673,0.01660973,0.47941,1.02238
120.535,21.22587,0.03189985,0.48531,1.02218
121.135,21.2845,0.0275777,0.48613,1.02198
121.735,21.34294,0.02600536,0.48809,1.02178
122.335,21.40129,0.0253907,0.49064,1.02158
122.935,21.45939,0.02424,0.49558,1.02137
123.535,21.51768,0.02545475,0.49721,1.02117
124.135,21.57573,0.02555991,0.49992,1.02096
124.735,21.63355,0.0255592,0.50246,1.02075
125.335,21.691,0.0242746,0.50492,1.02055
125.935,21.74843,0.02555988,0.50747,1.02034
126.535,21.80611,0.02553497,0.51138,1.02012
127.135,21.86372,0.0241941,0.51519,1.01991
127.735,21.92144,0.0241562,0.52023,1.0197
128.335,21.97874,0.02554607,0.52364,1.01948
128.935,22.03595,0.02556936,0.52747,1.01927
129.535,22.09299,0.02587923,0.53213,1.01905
130.135,22.14984,0.02217863,0.53574,1.01883
130.735,22.20693,0.02638852,0.53949,1.01861
131.335,22.26369,0.02883071,0.54323,1.01839
131.935,22.32048,0.02482719,0.5505,1.01817
132.535,22.37741,0.02542113,0.55522,1.01794
133.135,22.4342,0.02654961,0.56158,1.01772
133.735,22.49076,0.02654799,0.56444,1.01749
134.335,22.5475,0.02734093,0.5692,1.01726
134.935,22.60396,0.02601874,0.57449,1.01703
135.535,22.6605,0.02588685,0.57837,1.0168
136.135,22.71681,0.02652162,0.58594,1.01657
136.735,22.77308,0.02775988,0.59232,1.01634
137.335,22.82923,0.02786096,0.5975,1.01611
137.935,22.88532,0.02653338,0.60377,1.01587
138.535,22.94087,0.02555898,0.61167,1.01564
139.135,22.99685,0.02512982,0.62058,1.0154
139.735,23.0529,0.02653984,0.62963,1.01516
140.335,23.10867,0.02653951,0.63627,1.01492
140.935,23.1648,0.02645995,0.64647,1.01468
141.535,23.22061,0.02621994,0.65391,1.01443
142.135,23.2763,0.02343351,0.66462,1.01419
142.735,23.3316,0.02006392,0.67458,1.01395
143.335,23.38734,0.03309798,0.68736,1.0137
143.935,23.44285,0.02704667,0.69814,1.01345
144.535,23.49819,0.02863362,0.70977,1.0132
145.135,23.55411,0.02731196,0.72569,1.01295
145.735,23.60963,0.02661067,0.73872,1.0127
146.335,23.66495,0.02735283,0.75521,1.01245
146.935,23.72084,0.02731002,0.76939,1.0122
147.535,23.77615,0.02615415,0.78913,1.01194
148.135,23.8315,0.02730999,0.80605,1.01169
148.735,23.8868,0.02731,0.82596,1.01143
149.335,23.94195,0.02731,0.84725,1.01117
149.935,23.997,0.02730844,0.8676,1.01091
150.535,24.05203,0.02796332,0.89003,1.01065
151.135,24.10715,0.02796589,0.91517,1.01039
151.735,24.16251,0.02863802,0.93983,1.01013
152.335,24.218,0.02846341,0.96838,1.00986
152.935,24.27358,0.02851991,0.99428,1.0096
153.535,24.32902,0.02852,1.02393,1.00933
154.135,24.3842,0.02852003,1.05482,1.00906
154.735,24.43921,0.02852,1.08433,1.00879
155.335,24.49417,0.02852001,1.11532,1.00852
155.935,24.5491,0.02697958,1.14752,1.00825
156.535,24.60414,0.02697971,1.17681,1.00798
157.135,24.65926,0.02764766,1.20659,1.00771
157.735,24.7145,0.02828845,1.23184,1.00743
158.335,24.7696,0.02697823,1.25458,1.00716
158.935,24.82469,0.02750127,1.27649,1.00688
159.535,24.8797,0.02829984,1.28852,1.0066
160.135,24.93444,0.02703719,1.29904,1.00632
160.735,24.98937,0.02698,1.29562,1.00604
161.335,25.0441,0.02693073,1.28301,1.00576
161.935,25.0988,0.02699247,1.25293,1.00548
162.535,25.1535,0.0283071,1.20949,1.00519
163.135,25.20821,0.0283,1.15209,1.00491
163.735,25.26275,0.0283,1.08741,1.00462
164.335,25.31736,0.0282998,1.01701,1.00434
164.935,25.37181,0.02917768,0.94602,1.00405
165.535,25.42599,0.02959537,0.88179,1.00376
166.135,25.48026,0.02862388,0.82018,1.00347
166.735,25.53443,0.02961166,0.76919,1.00318
167.335,25.58858,0.02960837,0.72355,1.00288
167.935,25.64242,0.02804194,0.68853,1.00259
168.535,25.6965,0.02834539,0.65822,1.00229
169.135,25.75052,0.02963332,0.63722,1.002
169.735,25.8048,0.02820507,0.61872,1.0017
170.335,25.85912,0.02960936,0.60447,1.0014
170.935,25.91326,0.02829948,0.59426,1.0011
171.535,25.96741,0.0283,0.58802,1.0008
172.135,26.02131,0.02829705,0.58188,1.0005
172.735,26.0754,0.02962534,0.57723,1.0002
173.335,26.12942,0.02963321,0.5732,0.99989
173.935,26.18345,0.02967601,0.57244,0.99959
174.535,26.23763,0.02960999,0.56947,0.99928
175.135,26.29165,0.02963694,0.57203,0.99898
175.735,26.3458,0.0295776,0.57099,0.99867
176.335,26.39968,0.02961001,0.56971,0.99836
176.935,26.45366,0.03041012,0.5709,0.99805
177.535,26.5078,0.03092952,0.57141,0.99774
178.135,26.5618,0.02957198,0.57103,0.99743
178.735,26.61597,0.02962005,0.57124,0.99711
179.335,26.66995,0.02962004,0.57328,0.9968
179.935,26.72392,0.0293738,0.57533,0.99648
180.535,26.77771,0.02883914,0.57279,0.99617
181.135,26.83152,0.03093345,0.57527,0.99585
181.735,26.88543,0.02992794,0.57534,0.99553
182.335,26.93927,0.03092914,0.57622,0.99521
182.935,26.9931,0.0310047,0.57831,0.99489
183.535,27.047,0.02961979,0.57896,0.99457
184.135,27.10071,0.02962033,0.57953,0.99425
184.735,27.15451,0.02439397,0.58016,0.99392
185.335,27.20846,0.03202939,0.57903,0.9936
185.935,27.2621,0.03223477,0.58002,0.99327
186.535,27.3158,0.03159352,0.58177,0.99294
187.135,27.36935,0.03038472,0.58175,0.99262
187.735,27.42298,0.0297218,0.58235,0.99229
188.335,27.47645,0.03106781,0.58416,0.99196
188.935,27.53013,0.03103965,0.58291,0.99163
189.535,27.5837,0.03094956,0.58412,0.99129
190.135,27.63748,0.03004971,0.5851,0.99096
190.735,27.6915,0.0313711,0.58516,0.99063
191.335,27.7454,0.03005729,0.58582,0.99029
191.935,27.79927,0.03006,0.5873,0.98996
192.535,27.85306,0.03009445,0.58903,0.98962
193.135,27.90662,0.0300644,0.58888,0.98928
193.735,27.96032,0.03137206,0.58825,0.98894
194.335,28.01401,0.03137012,0.58804,0.9886
194.935,28.0676,0.03257521,0.58903,0.98826
195.535,28.1211,0.0326899,0.58904,0.98792
196.135,28.1747,0.03267653,0.5893,0.98758
196.735,28.22835,0.031372,0.59063,0.98723
197.335,28.282,0.03136998,0.58959,0.98689
197.935,28.33575,0.03149055,0.58982,0.98654
198.535,28.3892,0.03269002,0.59262,0.9862
199.135,28.4427,0.03267278,0.5949,0.98585
199.735,28.4963,0.03244534,0.59436,0.9855
200.335,28.5499,0.0325703,0.59469,0.98515
200.935,28.6038,0.03224962,0.59432,0.9848
201.535,28.65737,0.03089661,0.59585,0.98445
202.135,28.711,0.03092997,0.59555,0.98409
202.735,28.76453,0.03092998,0.59791,0.98374
203.335,28.818,0.03093776,0.59834,0.98339
203.935,28.87152,0.0322533,0.59854,0.98303
204.535,28.92506,0.03224999,0.60071,0.98268
205.135,28.97863,0.03225014,0.59908,0.98232
205.735,29.0322,0.03095566,0.59865,0.98196
206.335,29.0859,0.03209689,0.60164,0.9816
206.935,29.13932,0.03224995,0.60295,0.98124
207.535,29.19278,0.03096566,0.6024,0.98088
208.135,29.2462,0.03093998,0.60169,0.98052
208.735,29.29982,0.03094,0.6055,0.98016
209.335,29.3534,0.03094143,0.60572,0.97979
209.935,29.40707,0.03223366,0.60312,0.97943
210.535,29.4609,0.03359097,0.60487,0.97906
211.135,29.51452,0.03224934,0.60424,0.97869
211.735,29.5682,0.03130119,0.60644,0.97833
212.335,29.62183,0.03214024,0.60525,0.97796
212.935,29.6754,0.03236739,0.60741,0.97759
213.535,29.729,0.03224992,0.60542,0.97722
214.135,29.7827,0.0308782,0.60843,0.97685
214.735,29.83645,0.03093004,0.61033,0.97648
215.335,29.89,0.03093,0.60857,0.9761
215.935,29.94357,0.03092945,0.61027,0.97573
216.535,29.99718,0.03235364,0.60853,0.97536
217.135,30.0507,0.03093012,0.61284,0.97498
217.735,30.1044,0.03093094,0.61125,0.97461
218.335,30.15816,0.03220361,0.61372,0.97423
218.935,30.2118,0.03203797,0.61156,0.97385
219.535,30.26538,0.03100655,0.61352,0.97347
220.135,30.31918,0.03126001,0.61521,0.97309
220.735,30.3729,0.0312614,0.61517,0.97271
221.335,30.4268,0.03256765,0.61473,0.97233
221.935,30.4806,0.03257998,0.61606,0.97195
222.535,30.53435,0.0326137,0.61478,0.97156
223.135,30.5876,0.03225021,0.61654,0.97118
223.735,30.6411,0.03224988,0.61344,0.9708
224.335,30.69463,0.032583,0.61699,0.97041
224.935,30.74826,0.03322995,0.61568,0.97002
225.535,30.80235,0.03322113,0.61861,0.96964
226.135,30.8559,0.03192827,0.6173,0.96925
226.735,30.90959,0.03223984,0.61887,0.96886
227.335,30.9633,0.03224165,0.61738,0.96847
227.935,31.0171,0.03327967,0.62156,0.96808
228.535,31.07109,0.03355949,0.61829,0.96769
229.135,31.1249,0.03355994,0.61957,0.96729
229.735,31.1785,0.03357492,0.61814,0.9669
230.335,31.23232,0.03356915,0.62065,0.96651
230.935,31.28593,0.03357,0.61845,0.96611
231.535,31.33945,0.03357,0.62271,0.96572
232.135,31.39285,0.03356963,0.62115,0.96532
232.735,31.44653,0.03493039,0.62234,0.96492
233.335,31.50024,0.03487499,0.62114,0.96452
233.935,31.55402,0.03353099,0.62252,0.96413
234.535,31.6079,0.03355926,0.62329,0.96373
235.135,31.6616,0.03356,0.62176,0.96333
235.735,31.71537,0.03356,0.62354,0.96292
236.335,31.76923,0.03356,0.62177,0.96252
236.935,31.82297,0.03356,0.62462,0.96212
237.535,31.87671,0.03356,0.62293,0.96172
238.135,31.9305,0.03356,0.62404,0.96131
238.735,31.9842,0.0335605,0.62477,0.96091
239.335,32.03815,0.03223311,0.62643,0.9605
239.935,32.09202,0.03357666,0.62446,0.96009
240.535,32.14586,0.03356999,0.62606,0.95969
241.135,32.1997,0.03356984,0.62785,0.95928
241.735,32.25349,0.03227564,0.62935,0.95887
242.335,32.30737,0.03224979,0.62914,0.95846
242.935,32.36119,0.03307764,0.6278,0.95805
243.535,32.41512,0.03357044,0.63,0.95764
244.135,32.46886,0.03294011,0.63009,0.95723
244.735,32.52252,0.03356016,0.62808,0.95681
245.335,32.57627,0.03356,0.62743,0.9564
245.935,32.6302,0.03356,0.63004,0.95599
246.535,32.68416,0.03355824,0.63038,0.95557
247.135,32.73819,0.03225154,0.62701,0.95516
247.735,32.7922,0.03356363,0.62955,0.95474
248.335,32.84599,0.03356013,0.63115,0.95432
248.935,32.89986,0.03360433,0.63154,0.9539
249.535,32.9537,0.03487825,0.63264,0.95349
250.135,33.00764,0.03356878,0.63234,0.95307
250.735,33.0617,0.03356093,0.63087,0.95265
251.335,33.11565,0.0348616,0.63374,0.95223
251.935,33.16977,0.03486622,0.63282,0.9518
252.535,33.22375,0.03454879,0.63143,0.95138
253.135,33.2776,0.0335892,0.63355,0.95096
253.735,33.33127,0.0335806,0.63617,0.95054
254.335,33.38505,0.03487697,0.63572,0.95011
254.935,33.43898,0.03421788,0.63473,0.94969
255.535,33.49282,0.03422024,0.63702,0.94926
256.135,33.54701,0.0336879,0.63561,0.94883
256.735,33.60092,0.03357007,0.63286,0.94841
257.335,33.65482,0.0335769,0.63697,0.94798
257.935,33.70893,0.03224972,0.6356,0.94755
258.535,33.7629,0.03225074,0.63646,0.94712
259.135,33.81689,0.03346085,0.63473,0.94669
259.735,33.8709,0.03487862,0.6356,0.94626
260.335,33.9246,0.03458306,0.63602,0.94583
260.935,33.97848,0.03356012,0.6364,0.9454
261.535,34.03255,0.03355975,0.63766,0.94497
262.135,34.0865,0.03406674,0.63843,0.94453
262.735,34.14067,0.03488174,0.63705,0.9441
263.335,34.19471,0.03355679,0.63829,0.94367
263.935,34.24859,0.03356,0.64126,0.94323
264.535,34.30253,0.03355965,0.63927,0.94279
265.135,34.3564,0.03493427,0.63899,0.94236
265.735,34.41029,0.03487988,0.64063,0.94192
266.335,34.4643,0.03451848,0.63935,0.94148
266.935,34.5184,0.03523371,0.64139,0.94104
267.535,34.57251,0.03488018,0.64027,0.94061
268.135,34.62656,0.0341471,0.64175,0.94017
268.735,34.6807,0.03356,0.64067,0.93973
269.335,34.73487,0.03350844,0.64186,0.93929
269.935,34.78917,0.03488,0.63879,0.93884
270.535,34.84344,0.03357185,0.64126,0.9384
271.135,34.8974,0.03357,0.64124,0.93796
271.735,34.95156,0.03357,0.64155,0.93752
272.335,35.00562,0.03357,0.64224,0.93707
272.935,35.05968,0.03357012,0.64193,0.93663
273.535,35.11374,0.03428756,0.64201,0.93618
274.135,35.1678,0.0342366,0.64098,0.93574
274.735,35.22169,0.0355304,0.64298,0.93529
275.335,35.27577,0.03550441,0.64149,0.93484
275.935,35.32986,0.03618982,0.64183,0.93439
276.535,35.384,0.03619,0.63864,0.93395
277.135,35.43842,0.03619,0.64107,0.9335
277.735,35.4927,0.03618947,0.63993,0.93305
278.335,35.5469,0.03477733,0.63719,0.9326
278.935,35.60116,0.03608835,0.64072,0.93215
279.535,35.65529,0.03619129,0.64046,0.9317
280.135,35.70947,0.03344978,0.64181,0.93125
280.735,35.7637,0.03477364,0.6409,0.93079
281.335,35.81783,0.03476938,0.64033,0.93034
281.935,35.87219,0.03341043,0.64138,0.92989
282.535,35.92649,0.03346095,0.6407,0.92943
283.135,35.9809,0.03480895,0.64053,0.92898
283.735,36.03529,0.03476991,0.64394,0.92852
284.335,36.08941,0.03476615,0.64175,0.92807
284.935,36.1436,0.0360788,0.642,0.92761
285.535,36.19762,0.0347777,0.64369,0.92715
286.135,36.2519,0.03477002,0.64206,0.9267
286.735,36.3063,0.03463356,0.64509,0.92624
287.335,36.3609,0.03345969,0.64396,0.92578
287.935,36.41551,0.03336157,0.64264,0.92532
288.535,36.47003,0.03476995,0.64284,0.92486
289.135,36.52448,0.03477014,0.64265,0.9244
289.735,36.5788,0.03475036,0.64171,0.92394
290.335,36.63316,0.03575054,0.64207,0.92348
290.935,36.68756,0.03575001,0.64041,0.92302
291.535,36.742,0.03577664,0.64225,0.92256
292.135,36.7966,0.03508855,0.64212,0.92209
292.735,36.85111,0.03508059,0.64411,0.92163
293.335,36.90552,0.03646538,0.64104,0.92117
293.935,36.95993,0.03510039,0.64362,0.9207
294.535,37.0144,0.0351,0.6463,0.92024
295.135,37.06906,0.0351,0.64519,0.91977
295.735,37.12377,0.03509832,0.64636,0.91931
296.335,37.17836,0.03378432,0.64623,0.91884
296.935,37.23284,0.03442211,0.64561,0.91837
297.535,37.28727,0.03574791,0.64624,0.91791
298.135,37.34179,0.03554879,0.64334,0.91744
298.735,37.39648,0.03576385,0.6431,0.91697
299.335,37.45117,0.03574718,0.64561,0.9165
299.935,37.50582,0.0344394,0.64538,0.91603
300.535,37.56051,0.03509581,0.64616,0.91556
301.135,37.6151,0.03510011,0.64526,0.91509
301.735,37.66976,0.03512726,0.64622,0.91462
302.335,37.7245,0.03586399,0.64821,0.91415
302.935,37.77926,0.03476997,0.64771,0.91368
303.535,37.83392,0.03477,0.64726,0.91321
304.135,37.88854,0.03477,0.64788,0.91273
304.735,37.94305,0.03476996,0.64751,0.91226
305.335,37.9975,0.03479554,0.6501,0.91179
305.935,38.05225,0.03443982,0.64954,0.91131
306.535,38.10703,0.03444,0.65121,0.91084
307.135,38.16193,0.03444938,0.65125,0.91037
307.735,38.21671,0.03345728,0.64989,0.90989
308.335,38.2716,0.03313849,0.65092,0.90941
308.935,38.3264,0.03313047,0.64922,0.90894
309.535,38.38134,0.03381224,0.64915,0.90846
310.135,38.43592,0.03378949,0.65068,0.90798
310.735,38.4906,0.03487478,0.64993,0.90751
311.335,38.54537,0.03510003,0.64944,0.90703
311.935,38.60009,0.03509989,0.64819,0.90655
312.535,38.6548,0.03473821,0.64888,0.90607
313.135,38.70966,0.0337975,0.64838,0.90559
313.735,38.76455,0.03378994,0.64912,0.90511
314.335,38.81957,0.03378489,0.65046,0.90463
314.935,38.87445,0.03575499,0.64913,0.90415
315.535,38.92921,0.03574984,0.64853,0.90367
316.135,38.9842,0.03444175,0.64823,0.90319
316.735,39.03926,0.03444,0.64742,0.90271
317.335,39.09429,0.03444901,0.64704,0.90223
317.935,39.14942,0.03476884,0.64927,0.90174
318.535,39.2042,0.03543175,0.64863,0.90126
319.135,39.25904,0.03542999,0.64898,0.90078
319.735,39.314,0.03498645,0.65023,0.90029
320.335,39.36891,0.03411,0.65172,0.89981
320.935,39.42396,0.03411,0.65021,0.89933
321.535,39.47906,0.03411,0.64982,0.89884
322.135,39.53387,0.03411,0.65032,0.89836
322.735,39.58869,0.03410999,0.64929,0.89787
323.335,39.64372,0.0340573,0.64998,0.89738
323.935,39.69855,0.03510013,0.65119,0.8969
324.535,39.75376,0.03510033,0.6511,0.89641
325.135,39.80895,0.03444925,0.65176,0.89592
325.735,39.86404,0.03282323,0.65381,0.89544
326.335,39.91924,0.03245838,0.65002,0.89495
326.935,39.97446,0.03377986,0.65113,0.89446
327.535,40.02952,0.03509958,0.65281,0.89397
328.135,40.0847,0.03400412,0.65182,0.89348
328.735,40.13998,0.0337801,0.65333,0.89299
329.335,40.19511,0.0323816,0.6537,0.8925
329.935,40.2502,0.03246,0.65337,0.89201
330.535,40.3054,0.03240798,0.65318,0.89152
331.135,40.36036,0.03377303,0.65372,0.89103
331.735,40.41496,0.03246149,0.65517,0.89054
332.335,40.47032,0.03244519,0.65517,0.89005
332.935,40.5255,0.03311899,0.65509,0.88956
333.535,40.58085,0.03312,0.65571,0.88907
334.135,40.63657,0.03312,0.656,0.88858
334.735,40.69173,0.0331193,0.65537,0.88808
335.335,40.74685,0.03242758,0.65456,0.88759
335.935,40.80207,0.03245998,0.65789,0.8871
336.535,40.85722,0.03246,0.65967,0.8866
337.135,40.91232,0.03246,0.65779,0.88611
337.735,40.96767,0.03245995,0.65616,0.88561
338.335,41.02292,0.03227417,0.65682,0.88512
338.935,41.07822,0.03049964,0.65709,0.88463
339.535,41.13354,0.03179607,0.65727,0.88413
340.135,41.18882,0.03181,0.65847,0.88363
340.735,41.24429,0.03181,0.6571,0.88314
341.335,41.2996,0.03180999,0.65583,0.88264
341.935,41.355,0.0319142,0.65819,0.88215
342.535,41.41032,0.0308297,0.6588,0.88165
343.135,41.46562,0.030829,0.65867,0.88115
343.735,41.52089,0.0294718,0.65827,0.88066
344.335,41.57628,0.02951004,0.65849,0.88016
344.935,41.63157,0.02951,0.65807,0.87966
345.535,41.68699,0.02951,0.6576,0.87916
346.135,41.7425,0.02951,0.65857,0.87866
346.735,41.79786,0.02951,0.66109,0.87817
347.335,41.85337,0.02950988,0.6597,0.87767
347.935,41.90875,0.02953455,0.65791,0.87717
348.535,41.96411,0.02851949,0.66095,0.87667
349.135,42.01963,0.02852,0.6603,0.87617
349.735,42.07497,0.02852,0.65697,0.87567
350.335,42.1305,0.02852,0.66014,0.87517
350.935,42.1861,0.02851068,0.66111,0.87467
351.535,42.24181,0.02819063,0.65986,0.87417
352.135,42.29764,0.02819505,0.65943,0.87367
352.735,42.35321,0.02691022,0.65937,0.87316
353.335,42.40869,0.02655936,0.66214,0.87266
353.935,42.46427,0.02532559,0.66161,0.87216
354.535,42.5197,0.02524827,0.65901,0.87166
355.135,42.5751,0.02665888,0.65809,0.87116
355.735,42.6308,0.0265442,0.65654,0.87066
356.335,42.68634,0.02533995,0.65795,0.87015
356.935,42.74221,0.02509021,0.65925,0.86965
357.535,42.7984,0.02403033,0.66006,0.86915
358.135,42.85419,0.02405428,0.65994,0.86864
358.735,42.91003,0.02402785,0.66089,0.86814
359.335,42.96569,0.02272001,0.65476,0.86764
359.935,43.0214,0.02186408,0.65967,0.86713
360.535,43.07707,0.02138989,0.65746,0.86663
361.135,43.13279,0.02139,0.66001,0.86612
361.735,43.18857,0.02139,0.66153,0.86562
362.335,43.24431,0.02139065,0.66051,0.86511
362.935,43.30007,0.0199844,0.66251,0.86461
363.535,43.356,0.01974368,0.66087,0.8641
364.135,43.41179,0.01844221,0.66145,0.8636
364.735,43.46771,0.01977719,0.66215,0.86309
365.335,43.52344,0.01851748,0.65998,0.86259
365.935,43.5791,0.01942651,0.66207,0.86208
366.535,43.6348,0.01841596,0.65908,0.86157
367.135,43.69057,0.01710763,0.65997,0.86107
367.735,43.7464,0.01711897,0.65999,0.86056
368.335,43.8024,0.01750191,0.66041,0.86006
368.935,43.85856,0.01611554,0.65901,0.85955
369.535,43.91466,0.01480673,0.6624,0.85904
370.135,43.9705,0.01480954,0.6615,0.85853
370.735,44.02637,0.01351191,0.66217,0.85803
371.335,44.08215,0.0134902,0.66202,0.85752
371.935,44.13805,0.01290541,0.66249,0.85701
372.535,44.19402,0.01215405,0.65986,0.8565
373.135,44.2499,0.01086189,0.65984,0.856
373.735,44.3054,0.01181908,0.66031,0.85549
374.335,44.36143,0.009203562,0.65998,0.85498
374.935,44.41745,0.009210366,0.65905,0.85447
375.535,44.4734,0.007990816,0.65794,0.85396
376.135,44.52982,0.007900787,0.65956,0.85345
376.735,44.586,0.00657556,0.65945,0.85294
377.335,44.6421,0.006564758,0.66072,0.85243
377.935,44.69818,0.005259877,0.65981,0.85193
378.535,44.75398,0.00377939,0.66063,0.85142
379.135,44.80992,0.00384004,0.66125,0.85091
379.735,44.866,0.00326373,0.66073,0.8504
380.335,44.9221,0.000962327,0.66505,0.84989
380.935,44.97849,-0.0001108182,0.66594,0.84938
381.535,45.0347,-0.000168025,0.66564,0.84887
382.135,45.0909,-0.000922754,0.66411,0.84836
382.735,45.14707,-0.002754715,0.66538,0.84785
383.335,45.20317,-0.002710401,0.66507,0.84734
383.935,45.2592,-0.004059945,0.66764,0.84683
384.535,45.3153,-0.00534051,0.66914,0.84631
385.135,45.37154,-0.005468926,0.67127,0.8458
385.735,45.42783,-0.007318091,0.67236,0.84529
386.335,45.48446,-0.008681795,0.67212,0.84478
386.935,45.54074,-0.01020225,0.67192,0.84427
387.535,45.59725,-0.01151947,0.67338,0.84376
388.135,45.65376,-0.01276387,0.67337,0.84325
388.735,45.7103,-0.01417867,0.67089,0.84274
389.335,45.76681,-0.01545322,0.67177,0.84223
389.935,45.82309,-0.01672801,0.67272,0.84171
390.535,45.87952,-0.01822871,0.67364,0.8412
391.135,45.93582,-0.01953114,0.67168,0.84069
391.735,45.9921,-0.02087731,0.67706,0.84018
392.335,46.04849,-0.02254663,0.6736,0.83967
392.935,46.1047,-0.02482348,0.67866,0.83915
393.535,46.16125,-0.02697637,0.6818,0.83864
394.135,46.21784,-0.02829951,0.68448,0.83813
394.735,46.2744,-0.02825045,0.6853,0.83762
395.335,46.33096,-0.02962378,0.6825,0.83711
395.935,46.38739,-0.0310452,0.68583,0.83659
396.535,46.44392,-0.03183718,0.68612,0.83608
397.135,46.50032,-0.03415545,0.68789,0.83557
397.735,46.55697,-0.0369729,0.69225,0.83506
398.335,46.61358,-0.03850527,0.69223,0.83454
398.935,46.66985,-0.04112338,0.69381,0.83403
399.535,46.72664,-0.04245346,0.6935,0.83352
400.135,46.78335,-0.04382339,0.69698,0.833
400.735,46.84015,-0.04694652,0.69786,0.83249
401.335,46.8972,-0.0490593,0.69585,0.83198
401.935,46.95386,-0.05115472,0.70156,0.83147
402.535,47.01075,-0.05418733,0.70351,0.83095
403.135,47.06756,-0.05600899,0.70737,0.83044
403.735,47.1246,-0.05893939,0.71115,0.82993
404.335,47.1815,-0.06160126,0.71364,0.82941
404.935,47.23826,-0.06346524,0.71534,0.8289
405.535,47.29486,-0.06634351,0.71767,0.82839
406.135,47.35177,-0.06848863,0.72294,0.82787
406.735,47.40866,-0.07072848,0.72572,0.82736
407.335,47.4657,-0.07409011,0.72791,0.82685
407.935,47.5227,-0.07797417,0.7312,0.82633
408.535,47.57958,-0.07956468,0.73463,0.82582
409.135,47.6364,-0.08164568,0.74482,0.82531
409.735,47.6933,-0.08423531,0.74957,0.82479
410.335,47.75012,-0.08981858,0.74886,0.82428
410.935,47.80692,-0.09239109,0.75561,0.82377
411.535,47.86392,-0.09655847,0.77362,0.82325
412.135,47.92068,-0.10077,0.77743,0.82274
412.735,47.9773,-0.10377,0.77912,0.82223
413.335,48.03399,-0.10852,0.78508,0.82171
413.935,48.09082,-0.11213,0.78825,0.8212
414.535,48.1477,-0.11691,0.79262,0.82069
415.135,48.2049,-0.12405,0.79705,0.82017
415.735,48.2618,-0.12872,0.80271,0.81966
416.335,48.31879,-0.13061,0.80982,0.81915
416.935,48.3757,-0.13656,0.8164,0.81863
417.535,48.4326,-0.14095,0.82854,0.81812
418.135,48.48959,-0.14571,0.83367,0.81761
418.735,48.54657,-0.1512,0.84583,0.81709
419.335,48.60345,-0.15669,0.90874,0.81658
419.935,48.66035,-0.1639,0.89989,0.81607
420.535,48.71732,-0.17144,0.88546,0.81555
421.135,48.77422,-0.1772,0.88189,0.81504
421.735,48.83141,-0.183,0.88098,0.81453
422.335,48.8885,-0.19146,0.88261,0.81402
422.935,48.94565,-0.19609,0.8899,0.8135
423.535,49.0027,-0.20357,0.89831,0.81299
424.135,49.05984,-0.21093,0.90572,0.81248
424.735,49.11694,-0.21568,0.91876,0.81196
425.335,49.174,-0.22469,0.93166,0.81145
425.935,49.23075,-0.23312,0.94423,0.81094
426.535,49.28783,-0.24006,0.95952,0.81042
427.135,49.34505,-0.25012,0.97388,0.80991
427.735,49.40217,-0.26008,0.98849,0.8094
428.335,49.45985,-0.26893,1.00542,0.80889
428.935,49.5172,-0.27867,1.02328,0.80837
429.535,49.57444,-0.28867,1.03963,0.80786
430.135,49.63169,-0.29982,1.05852,0.80735
430.735,49.68882,-0.31033,1.07914,0.80684
431.335,49.746,-0.32302,1.09721,0.80632
431.935,49.80314,-0.33551,1.11972,0.80581
432.535,49.8605,-0.34754,1.14097,0.8053
433.135,49.9179,-0.36198,1.16493,0.80479
433.735,49.97532,-0.37527,1.18963,0.80427
434.335,50.03249,-0.39066,1.21397,0.80376
434.935,50.08987,-0.40515,1.24271,0.80325
435.535,50.14718,-0.42304,1.26995,0.80274
436.135,50.20459,-0.43984,1.29805,0.80223
436.735,50.2618,-0.45787,1.33153,0.80171
437.335,50.31907,-0.47568,1.36205,0.8012
437.935,50.3765,-0.4945,1.39055,0.80069
438.535,50.43392,-0.51437,1.43257,0.80018
439.135,50.49134,-0.53539,1.4656,0.79967
439.735,50.54874,-0.56031,1.49113,0.79916
440.335,50.6059,-0.58246,1.51824,0.79865
440.935,50.66316,-0.60627,1.5495,0.79813
441.535,50.7205,-0.63063,1.58487,0.79762
442.135,50.7778,-0.65436,1.63091,0.79711
442.735,50.83522,-0.68171,1.66155,0.7966
443.335,50.89273,-0.70922,1.6957,0.79609
443.935,50.95023,-0.73928,1.75631,0.79558
444.535,51.00752,-0.76894,1.79043,0.79507
445.135,51.0644,-0.80002,1.83351,0.79456
445.735,51.12184,-0.83501,1.87095,0.79405
446.335,51.17938,-0.86973,1.91573,0.79354
446.935,51.23683,-0.90692,1.95231,0.79303
447.535,51.295,-0.946,1.98259,0.79252
448.135,51.35259,-0.98472,2.00755,0.79201
448.735,51.4101,-1.02345,2.04194,0.7915
449.335,51.46761,-1.06494,2.08039,0.79099
449.935,51.52459,-1.10358,2.09265,0.79048
450.535,51.58191,-1.14657,2.12609,0.78997
451.135,51.6395,-1.1878,2.15465,0.78946
451.735,51.69704,-1.23081,2.2024,0.78895
452.335,51.75516,-1.28034,2.24686,0.78844
452.935,51.8127,-1.32934,2.26867,0.78793
453.535,51.87027,-1.38524,2.29036,0.78743
454.135,51.9279,-1.43875,2.32196,0.78692
454.735,51.98545,-1.49495,2.33407,0.78641
455.335,52.04306,-1.55297,2.34384,0.7859
455.935,52.10073,-1.61051,2.36077,0.78539
456.535,52.15824,-1.672,2.36745,0.78488
457.135,52.21555,-1.736,2.36318,0.78438
457.735,52.27275,-1.80207,2.36857,0.78387
458.335,52.32998,-1.86462,2.37053,0.78336
458.935,52.3872,-1.9359,2.39478,0.78285
459.535,52.4447,-2.00296,2.35566,0.78235
460.135,52.50196,-2.07481,2.32918,0.78184
460.735,52.55928,-2.14624,2.3059,0.78133
461.335,52.6166,-2.21986,2.27585,0.78083
461.935,52.6741,-2.29786,2.25033,0.78032
462.535,52.7314,-2.37225,2.19887,0.77981
463.135,52.7887,-2.45322,2.15372,0.77931
463.735,52.846,-2.52615,2.10182,0.7788
464.335,52.90328,-2.60656,2.04205,0.7783
464.935,52.96066,-2.68425,1.97615,0.77779
465.535,53.01795,-2.76225,1.90583,0.77728
466.135,53.0752,-2.84284,1.83103,0.77678
466.735,53.1323,-2.91707,1.74793,0.77627
467.335,53.1895,-2.9961,1.65624,0.77577
467.935,53.2469,-3.06938,1.56498,0.77526
468.535,53.30435,-3.14502,1.47018,0.77476
469.135,53.362,-3.2156,1.36372,0.77425
469.735,53.41955,-3.28743,1.25738,0.77375
470.335,53.47719,-3.35695,1.15049,0.77325
470.935,53.5348,-3.4189,1.03867,0.77274
471.535,53.59239,-3.48338,0.92832,0.77224
472.135,53.65002,-3.51563,0.81258,0.77174
472.735,53.70751,-3.58225,0.70457,0.77123
473.335,53.7651,-3.64792,0.60012,0.77073
473.935,53.82278,-3.70156,0.49979,0.77023
474.535,53.8804,-3.74786,0.41416,0.76972
475.135,53.93826,-3.79159,0.33227,0.76922
475.735,53.99596,-3.8285,0.25742,0.76872
476.335,54.0537,-3.86448,0.19136,0.76822
476.935,54.1116,-3.8964,0.14031,0.76771
477.535,54.1694,-3.92835,0.0946308,0.76721
478.135,54.2273,-3.96138,0.05384577,0.76671
478.735,54.2854,-3.97351,0.02569554,0.76621
479.335,54.34333,-3.99195,0.006846281,0.76571
479.935,54.40158,-4.0099,-0.007618589,0.76521
480.535,54.45952,-4.02415,-0.01385816,0.76471
481.135,54.51755,-4.0372,-0.01572952,0.76421
481.735,54.57552,-4.04623,-0.01644227,0.76371
482.335,54.63351,-4.05295,-0.01412397,0.76321
482.935,54.69164,-4.05587,-0.01049872,0.76271
483.535,54.7495,-4.06261,-0.006127744,0.76221
484.135,54.80763,-4.06943,-0.004467426,0.76171
484.735,54.86575,-4.07486,-0.00287027,0.76121
485.335,54.9237,-4.07936,-0.00649051,0.76071
485.935,54.98203,-4.08524,-0.01328071,0.76021
486.535,55.04,-4.09107,-0.02231256,0.75971
487.135,55.098,-4.09467,-0.03610175,0.75922
487.735,55.15609,-4.09949,-0.04357536,0.75872
488.335,55.21409,-4.10726,-0.05267382,0.75822
488.935,55.2721,-4.1132,-0.06423668,0.75772
489.535,55.33,-4.11607,-0.07711937,0.75723
490.135,55.38796,-4.12999,-0.07706268,0.75673
490.735,55.4455,-4.13083,-0.09104763,0.75623
491.335,55.5035,-4.11835,-0.1003,0.75574
491.935,55.5613,-4.11012,-0.10872,0.75524
492.535,55.6192,-4.11093,-0.11873,0.75474
493.135,55.6777,-4.11026,-0.12686,0.75425
493.735,55.73531,-4.11034,-0.13163,0.75375
494.335,55.7934,-4.11027,-0.13671,0.75326
494.935,55.85134,-4.11027,-0.14046,0.75276
495.535,55.90945,-4.11127,-0.13949,0.75227
496.135,55.96755,-4.11158,-0.13727,0.75178
496.735,56.0256,-4.11122,-0.13787,0.75128
497.335,56.0837,-4.11134,-0.14802,0.75079
497.935,56.1418,-4.11027,-0.15856,0.75029
498.535,56.2,-4.11027,-0.16565,0.7498
499.135,56.25804,-4.11027,-0.1695,0.74931
499.735,56.31615,-4.11036,-0.16872,0.74881
500.335,56.37441,-4.10944,-0.16903,0.74832
500.935,56.43249,-4.1096,-0.17267,0.74783
501.535,56.4907,-4.11026,-0.17511,0.74734
502.135,56.54883,-4.11158,-0.17706,0.74685
502.735,56.60714,-4.11025,-0.17844,0.74636
503.335,56.6655,-4.11027,-0.17805,0.74586
503.935,56.72385,-4.10898,-0.18079,0.74537
504.535,56.78205,-4.11027,-0.18049,0.74488
505.135,56.8403,-4.10893,-0.18389,0.74439
505.735,56.8986,-4.10896,-0.18401,0.7439
506.335,56.9569,-4.10896,-0.18498,0.74341
506.935,57.0147,-4.10896,-0.18854,0.74292
507.535,57.0731,-4.10795,-0.18767,0.74244
508.135,57.13129,-4.10797,-0.18833,0.74195
508.735,57.1901,-4.10797,-0.18913,0.74146
509.335,57.2489,-4.10797,-0.18849,0.74097
509.935,57.3075,-4.10797,-0.19218,0.74048
510.535,57.36595,-4.10797,-0.19234,0.73999
511.135,57.4244,-4.10765,-0.19328,0.73951
511.735,57.48274,-4.10764,-0.19543,0.73902
512.335,57.5412,-4.10764,-0.19729,0.73853
512.935,57.59953,-4.10764,-0.19853,0.73805
513.535,57.65798,-4.10765,-0.19997,0.73756
514.135,57.71651,-4.10895,-0.19969,0.73708
514.735,57.77511,-4.10915,-0.19814,0.73659
515.335,57.83373,-4.10928,-0.20398,0.73611
515.935,57.89209,-4.10928,-0.20398,0.73562
516.535,57.95061,-4.10928,-0.20392,0.73514
517.135,58.00891,-4.10928,-0.20328,0.73465
517.735,58.06725,-4.10928,-0.20573,0.73417
518.335,58.1255,-4.10831,-0.20299,0.73368
518.935,58.18379,-4.107,-0.20414,0.7332
519.535,58.24215,-4.10798,-0.20353,0.73272
520.135,58.30049,-4.10796,-0.20664,0.73224
520.735,58.359,-4.10796,-0.21104,0.73175
521.335,58.41763,-4.10829,-0.21067,0.73127
521.935,58.4762,-4.10829,-0.20923,0.73079
522.535,58.53431,-4.10829,-0.20799,0.73031
523.135,58.5929,-4.10829,-0.20936,0.72983
523.735,58.6516,-4.10829,-0.20972,0.72935
524.335,58.7108,-4.10829,-0.21004,0.72887
524.935,58.76981,-4.10829,-0.21073,0.72839
525.535,58.8284,-4.10825,-0.2122,0.72791
526.135,58.88709,-4.10961,-0.21545,0.72743
526.735,58.94539,-4.10961,-0.21507,0.72695
527.335,59.00405,-4.10836,-0.21924,0.72647
527.935,59.06231,-4.10829,-0.21915,0.72599
528.535,59.12099,-4.10829,-0.22215,0.72551
529.135,59.1801,-4.10829,-0.22154,0.72504
529.735,59.2387,-4.10829,-0.22031,0.72456
530.335,59.29786,-4.10829,-0.22093,0.72408
530.935,59.35654,-4.10829,-0.22199,0.72361
531.535,59.4153,-4.10829,-0.22627,0.72313
532.135,59.47391,-4.10838,-0.22445,0.72265
532.735,59.53245,-4.10695,-0.22958,0.72218
533.335,59.59117,-4.10566,-0.22799,0.7217
533.935,59.65011,-4.10526,-0.22861,0.72123
534.535,59.7088,-4.10435,-0.22942,0.72075
535.135,59.76775,-4.10458,-0.22802,0.72028
535.735,59.82649,-4.10566,-0.22902,0.71981
536.335,59.88535,-4.10566,-0.23278,0.71933
536.935,59.9444,-4.10567,-0.23565,0.71886
537.535,60.00289,-4.10434,-0.23474,0.71839
538.135,60.06194,-4.10495,-0.23435,0.71791
538.735,60.12066,-4.10566,-0.23539,0.71744
539.335,60.1796,-4.10568,-0.23702,0.71697
539.935,60.2385,-4.10697,-0.23864,0.7165
540.535,60.2973,-4.10564,-0.24048,0.71603
541.135,60.3562,-4.10566,-0.2422,0.71556
541.735,60.41463,-4.10566,-0.2458,0.71509
542.335,60.47356,-4.10567,-0.2422,0.71462
542.935,60.53245,-4.10434,-0.24691,0.71415
543.535,60.59157,-4.10434,-0.24753,0.71368
544.135,60.6509,-4.10434,-0.24847,0.71321
544.735,60.70989,-4.10434,-0.25058,0.71274
545.335,60.7692,-4.10434,-0.25363,0.71227
545.935,60.82829,-4.10434,-0.25281,0.71181
546.535,60.8875,-4.10434,-0.25599,0.71134
547.135,60.9465,-4.10434,-0.25434,0.71087
547.735,61.00555,-4.10424,-0.25423,0.71041
548.335,61.06449,-4.10566,-0.25548,0.70994
548.935,61.1235,-4.10566,-0.25638,0.70948
549.535,61.18235,-4.10566,-0.26001,0.70901
550.135,61.2413,-4.10568,-0.26373,0.70855
550.735,61.30024,-4.10434,-0.26403,0.70808
551.335,61.3591,-4.105,-0.26394,0.70762
551.935,61.41806,-4.10566,-0.26899,0.70715
552.535,61.47694,-4.10697,-0.26502,0.70669
553.135,61.5359,-4.10698,-0.26687,0.70623
553.735,61.5947,-4.10698,-0.26758,0.70576
554.335,61.65365,-4.10633,-0.2685,0.7053
554.935,61.7126,-4.10632,-0.27035,0.70484
555.535,61.7713,-4.10548,-0.27173,0.70438
556.135,61.83024,-4.105,-0.26932,0.70392
556.735,61.88915,-4.105,-0.27241,0.70346
557.335,61.9483,-4.10633,-0.27323,0.703
557.935,62.00765,-4.10497,-0.27652,0.70254
558.535,62.067,-4.10492,-0.27341,0.70208
559.135,62.1263,-4.1063,-0.27411,0.70162
559.735,62.18554,-4.10511,-0.27227,0.70116
560.335,62.24481,-4.105,-0.27829,0.7007
560.935,62.30389,-4.105,-0.2758,0.70024
561.535,62.363,-4.105,-0.27759,0.69979
562.135,62.4223,-4.10468,-0.2777,0.69933
562.735,62.4816,-4.10597,-0.27763,0.69887
563.335,62.54081,-4.10599,-0.27958,0.69842
563.935,62.59986,-4.10599,-0.28447,0.69796
564.535,62.65885,-4.10568,-0.28169,0.69751
565.135,62.71824,-4.10505,-0.2803,0.69705
565.735,62.7777,-4.10501,-0.28885,0.6966
566.335,62.83706,-4.10501,-0.28287,0.69614
566.935,62.89655,-4.10501,-0.28927,0.69569
567.535,62.95567,-4.10501,-0.29172,0.69524
568.135,63.01494,-4.10501,-0.29066,0.69478
568.735,63.0742,-4.10586,-0.29074,0.69433
569.335,63.1335,-4.10628,-0.29326,0.69388
569.935,63.1928,-4.10369,-0.2922,0.69343
570.535,63.2521,-4.10369,-0.29438,0.69298
571.135,63.3115,-4.10369,-0.29432,0.69252
571.735,63.3711,-4.10369,-0.29511,0.69207
572.335,63.43049,-4.105,-0.29723,0.69162
572.935,63.49,-4.105,-0.29634,0.69117
573.535,63.54942,-4.105,-0.29692,0.69073
574.135,63.60864,-4.10369,-0.29763,0.69028
574.735,63.66796,-4.10241,-0.29376,0.68983
575.335,63.7272,-4.10237,-0.29184,0.68938
575.935,63.7862,-4.10237,-0.29035,0.68893
576.535,63.8453,-4.10236,-0.29159,0.68849
577.135,63.9044,-4.10368,-0.29611,0.68804
577.735,63.9636,-4.10368,-0.291,0.68759
578.335,64.02343,-4.10368,-0.29106,0.68715
578.935,64.08244,-4.10368,-0.29363,0.6867
579.535,64.14161,-4.10368,-0.29957,0.68626
580.135,64.20084,-4.10368,-0.30136,0.68581
580.735,64.26018,-4.10368,-0.3072,0.68537
581.335,64.3199,-4.10368,-0.30571,0.68493
581.935,64.3789,-4.10368,-0.30359,0.68448
582.535,64.43817,-4.10373,-0.30858,0.68404
583.135,64.4977,-4.10237,-0.30461,0.6836
583.735,64.55725,-4.10237,-0.30817,0.68316
584.335,64.61698,-4.10237,-0.31012,0.68271
584.935,64.6764,-4.10367,-0.30687,0.68227
585.535,64.73576,-4.10368,-0.30966,0.68183
586.135,64.79525,-4.10368,-0.30906,0.68139
586.735,64.85489,-4.10275,-0.30945,0.68095
587.335,64.91431,-4.10238,-0.31065,0.68051
587.935,64.97391,-4.10436,-0.31186,0.68008
588.535,65.03322,-4.10313,-0.31249,0.67964
589.135,65.0922,-4.10304,-0.3148,0.6792
589.735,65.1517,-4.10435,-0.31348,0.67876
590.335,65.21093,-4.10438,-0.31439,0.67833
590.935,65.2706,-4.10304,-0.3144,0.67789
591.535,65.3301,-4.10435,-0.31672,0.67745
592.135,65.3896,-4.10369,-0.31573,0.67702
592.735,65.44905,-4.10369,-0.31943,0.67658
593.335,65.50855,-4.10303,-0.32082,0.67615
593.935,65.56806,-4.10303,-0.32381,0.67571
594.535,65.62739,-4.10303,-0.32237,0.67528
595.135,65.68694,-4.10303,-0.32705,0.67485
595.735,65.74647,-4.10303,-0.32577,0.67441
596.335,65.80598,-4.10296,-0.3273,0.67398
596.935,65.86524,-4.10369,-0.32699,0.67355
597.535,65.9247,-4.10369,-0.32936,0.67312
598.135,65.98422,-4.10369,-0.32893,0.67269
598.735,66.04393,-4.10369,-0.33062,0.67226
599.335,66.10372,-4.10369,-0.33029,0.67183
599.935,66.16333,-4.10369,-0.33181,0.6714
600.535,66.22296,-4.10272,-0.33141,0.67097
601.135,66.28242,-4.10237,-0.33618,0.67054
601.735,66.34195,-4.10237,-0.33353,0.67011
602.335,66.40151,-4.10237,-0.33343,0.66968
602.935,66.4611,-4.10238,-0.33609,0.66925
603.535,66.52073,-4.10302,-0.33568,0.66883
604.135,66.58066,-4.10302,-0.33853,0.6684
604.735,66.64014,-4.10238,-0.33948,0.66797
605.335,66.69966,-4.10237,-0.33923,0.66755
605.935,66.75928,-4.10171,-0.33981,0.66712
606.535,66.81916,-4.10303,-0.3398,0.6667
607.135,66.8789,-4.10239,-0.34,0.66628
607.735,66.93913,-4.10204,-0.33861,0.66585
608.335,66.99902,-4.10204,-0.34209,0.66543
608.935,67.05889,-4.10204,-0.34119,0.66501
609.535,67.11855,-4.10337,-0.34225,0.66458
610.135,67.17823,-4.10336,-0.34268,0.66416
610.735,67.23799,-4.10341,-0.34353,0.66374
611.335,67.29774,-4.10204,-0.34409,0.66332
611.935,67.35738,-4.10204,-0.3452,0.6629
612.535,67.4171,-4.10204,-0.34699,0.66248
613.135,67.4768,-4.10204,-0.3447,0.66206
613.735,67.53661,-4.10199,-0.34595,0.66164
614.335,67.59636,-4.10336,-0.3478,0.66122
614.935,67.65581,-4.10197,-0.34652,0.6608
615.535,67.7153,-4.10334,-0.34887,0.66039
616.135,67.77498,-4.10204,-0.34874,0.65997
616.735,67.8347,-4.10204,-0.34742,0.65955
617.335,67.8944,-4.10204,-0.35004,0.65914
617.935,67.9541,-4.10204,-0.3578,0.65872
618.535,68.01379,-4.10099,-0.35355,0.65831
619.135,68.07369,-4.10104,-0.35276,0.65789
619.735,68.1336,-4.10237,-0.35422,0.65748
620.335,68.1934,-4.10232,-0.36024,0.65706
620.935,68.25323,-4.10104,-0.35807,0.65665
621.535,68.31314,-4.10237,-0.35713,0.65624
622.135,68.37307,-4.10206,-0.3582,0.65582
622.735,68.43301,-4.10123,-0.35912,0.65541
623.335,68.49303,-4.10071,-0.36478,0.655
623.935,68.5531,-4.10014,-0.36493,0.65459
624.535,68.61316,-4.10073,-0.36346,0.65418
625.135,68.67313,-4.10075,-0.36571,0.65377
625.735,68.73308,-4.10204,-0.36468,0.65336
626.335,68.79293,-4.10073,-0.36455,0.65295
626.935,68.85271,-4.10209,-0.36432,0.65254
627.535,68.9124,-4.10204,-0.36886,0.65213
628.135,68.97233,-4.10072,-0.3672,0.65173
628.735,69.03248,-4.10073,-0.36577,0.65132
629.335,69.09259,-4.10073,-0.37342,0.65091
629.935,69.15286,-4.10073,-0.37176,0.65051
630.535,69.2128,-4.10202,-0.37689,0.6501
631.135,69.27265,-4.10138,-0.37694,0.6497
631.735,69.3326,-4.10138,-0.37973,0.64929
632.335,69.39271,-4.10009,-0.38093,0.64889
632.935,69.45285,-4.09944,-0.38124,0.64848
633.535,69.51298,-4.10072,-0.38162,0.64808
634.135,69.57313,-4.10072,-0.38065,0.64768
634.735,69.63309,-4.10072,-0.38295,0.64728
635.335,69.69311,-4.10072,-0.38583,0.64687
635.935,69.75301,-4.10072,-0.38235,0.64647
636.535,69.81299,-4.10072,-0.38351,0.64607
637.135,69.87292,-4.10072,-0.38938,0.64567
637.735,69.9329,-4.10072,-0.38919,0.64527
638.335,69.9932,-4.09928,-0.39016,0.64487