File: 01_Data/PP/STA/N2/10K_min/PP_STA_N2_10KData_210825_R2.csv
##Temp./Â°C,Time/min,Mass loss(subtr.2)/mg,DSC(subtr.2)/(mW/mg),Sensit./(uV/mW)
49.226,10.01,-0.00593,0.03889283,1.03587
49.826,11.402,-0.00585783,0.06567952,1.03584
50.426,11.78172,-0.004866142,0.08659809,1.03581
51.026,12.0529,-0.005000384,0.10278,1.03578
51.626,12.27256,-0.004636945,0.11714,1.03575
52.226,12.4636,-0.006061891,0.13131,1.03572
52.826,12.63898,-0.00530226,0.14137,1.03568
53.426,12.79829,-0.006682114,0.14855,1.03565
54.026,12.9474,-0.0055536,0.15767,1.03561
54.626,13.08992,-0.005927432,0.16521,1.03557
55.226,13.22417,-0.005647167,0.1725,1.03553
55.826,13.3541,-0.00587205,0.18052,1.03548
56.426,13.4796,-0.006283382,0.18769,1.03544
57.026,13.5995,-0.00593616,0.19463,1.03539
57.626,13.7165,-0.004495774,0.19903,1.03535
58.226,13.8309,-0.00601651,0.207,1.0353
58.826,13.94289,-0.007825301,0.2102,1.03525
59.426,14.05226,-0.005443293,0.21532,1.03519
60.026,14.15885,-0.005395974,0.22097,1.03514
60.626,14.26288,-0.00668406,0.22668,1.03509
61.226,14.3651,-0.005128608,0.22946,1.03503
61.826,14.4656,-0.005316977,0.23599,1.03497
62.426,14.56425,-0.004970307,0.23878,1.03491
63.026,14.66068,-0.0063323,0.2422,1.03485
63.626,14.75554,-0.00590189,0.24654,1.03479
64.226,14.849,-0.006712868,0.25003,1.03472
64.826,14.94111,-0.005907901,0.25189,1.03466
65.426,15.03183,-0.0054914,0.25637,1.03459
66.026,15.1212,-0.005081859,0.25766,1.03452
66.626,15.20943,-0.00538379,0.26138,1.03445
67.226,15.29689,-0.009245266,0.26532,1.03438
67.826,15.38296,0.001287307,0.26723,1.0343
68.426,15.46836,-0.00383161,0.27028,1.03423
69.026,15.5527,-0.00547254,0.27437,1.03415
69.626,15.63589,-0.006901265,0.27715,1.03407
70.226,15.71866,-0.005489686,0.27804,1.03399
70.826,15.8003,-0.005139751,0.2797,1.03391
71.426,15.8812,-0.004061552,0.2879,1.03383
72.026,15.96025,-0.004067337,0.28787,1.03375
72.626,16.03963,-0.005385956,0.29048,1.03366
73.226,16.11862,-0.004356532,0.29449,1.03357
73.826,16.19726,-0.003945275,0.29523,1.03348
74.426,16.27484,-0.00375878,0.29941,1.03339
75.026,16.35142,-0.003962103,0.30089,1.0333
75.626,16.42765,-0.004127432,0.30175,1.03321
76.226,16.5031,-0.004326691,0.30654,1.03311
76.826,16.5784,-0.005460358,0.30719,1.03302
77.426,16.6526,-0.004260515,0.31079,1.03292
78.026,16.72666,-0.005579574,0.31286,1.03282
78.626,16.80002,-0.004180447,0.31567,1.03272
79.226,16.87301,-0.005481604,0.31865,1.03262
79.826,16.94493,-0.00551394,0.32062,1.03252
80.426,17.01676,-0.004138108,0.32319,1.03241
81.026,17.0876,-0.004331279,0.32677,1.0323
81.626,17.15887,-0.004394245,0.32983,1.0322
82.226,17.2293,-0.00436791,0.32884,1.03209
82.826,17.2998,-0.004389726,0.33268,1.03198
83.426,17.36916,-0.003025939,0.33672,1.03186
84.026,17.43852,-0.004279908,0.33517,1.03175
84.626,17.50759,-0.00313892,0.33902,1.03164
85.226,17.5764,-0.00437607,0.34289,1.03152
85.826,17.64455,-0.00291472,0.34321,1.0314
86.426,17.71228,-0.00296385,0.34704,1.03128
87.026,17.77961,-0.00308037,0.348,1.03116
87.626,17.84659,-0.004408227,0.35015,1.03104
88.226,17.91292,-0.004500015,0.35206,1.03091
88.826,17.97958,-0.004391851,0.35447,1.03079
89.426,18.0459,-0.003634548,0.35686,1.03066
90.026,18.11226,-0.00299758,0.35764,1.03053
90.626,18.17759,-0.004401748,0.35787,1.0304
91.226,18.24269,-0.00286697,0.36339,1.03027
91.826,18.30786,-0.001717664,0.36195,1.03014
92.426,18.37276,-0.0033222,0.36549,1.03001
93.026,18.43719,-0.00417207,0.36832,1.02987
93.626,18.50121,-0.003075365,0.37101,1.02973
94.226,18.56532,-0.00442445,0.37102,1.0296
94.826,18.62922,-0.003189902,0.37344,1.02946
95.426,18.693,-0.00229295,0.37673,1.02932
96.026,18.75621,-0.001934674,0.37801,1.02917
96.626,18.8196,-0.003180035,0.37879,1.02903
97.226,18.88279,-0.00381622,0.37965,1.02888
97.826,18.9454,-0.00311357,0.3843,1.02874
98.426,19.0081,-0.003323428,0.38731,1.02859
99.026,19.07033,-0.003298905,0.38529,1.02844
99.626,19.13285,-0.00329881,0.38983,1.02829
100.226,19.19557,-0.00198144,0.39156,1.02814
100.826,19.25759,-0.00189326,0.38995,1.02798
101.426,19.31954,-0.003283745,0.39461,1.02783
102.026,19.38109,-0.00436002,0.39584,1.02767
102.626,19.4425,-0.003296677,0.39751,1.02751
103.226,19.5039,-0.00328884,0.40081,1.02736
103.826,19.56512,-0.003272021,0.40158,1.02719
104.426,19.62619,-0.003686004,0.40431,1.02703
105.026,19.68749,-0.003288253,0.40558,1.02687
105.626,19.74857,-0.00197927,0.40891,1.0267
106.226,19.80955,-0.003300538,0.40715,1.02654
106.826,19.87041,-0.004616867,0.40943,1.02637
107.426,19.9309,-0.003300161,0.41342,1.0262
108.026,19.99142,-0.004183737,0.41268,1.02603
108.626,20.05172,-0.001999294,0.41739,1.02586
109.226,20.11187,-0.001979862,0.41964,1.02569
109.826,20.172,-0.002656902,0.42025,1.02551
110.426,20.23179,-0.001977553,0.42529,1.02534
111.026,20.2917,-0.00332045,0.42788,1.02516
111.626,20.35162,-0.001980117,0.4312,1.02498
112.226,20.4115,-0.002037117,0.43111,1.0248
112.826,20.4711,-0.001927965,0.4327,1.02462
113.426,20.5307,-0.00197767,0.43476,1.02444
114.026,20.59019,-0.001978291,0.4384,1.02426
114.626,20.64979,-0.0006697828,0.43922,1.02407
115.226,20.70917,-0.001994335,0.44041,1.02388
115.826,20.7683,-0.000783096,0.44133,1.0237
116.426,20.8273,-0.000660044,0.44694,1.02351
117.026,20.88617,-0.001656092,0.44838,1.02332
117.626,20.94497,-0.00066807,0.4505,1.02313
118.226,21.00365,-0.001966728,0.45308,1.02293
118.826,21.06236,-0.00112542,0.45424,1.02274
119.426,21.12092,-0.001982969,0.45465,1.02254
120.026,21.1796,-0.00133121,0.4595,1.02235
120.626,21.23801,-0.001967535,0.46244,1.02215
121.226,21.296,-0.00206272,0.46606,1.02195
121.826,21.35369,-0.00197701,0.46609,1.02175
122.426,21.41181,-0.00116967,0.46998,1.02154
123.026,21.46973,-0.000659989,0.47349,1.02134
123.626,21.52826,-0.0006796194,0.47491,1.02114
124.226,21.5866,-0.00198038,0.4787,1.02093
124.826,21.6444,-0.001194221,0.4837,1.02072
125.426,21.70225,-0.0006747955,0.48799,1.02051
126.026,21.75986,-0.001979957,0.49155,1.0203
126.626,21.81737,-0.00198,0.49539,1.02009
127.226,21.8749,-0.001980458,0.49782,1.01988
127.826,21.93225,-0.0006824089,0.50094,1.01967
128.426,21.9896,-0.0006874301,0.50167,1.01945
129.026,22.0469,-0.0006840208,0.5076,1.01923
129.626,22.1039,-0.001994492,0.51177,1.01902
130.226,22.16095,-0.0033076,0.51637,1.0188
130.826,22.21781,-0.002010435,0.51883,1.01858
131.426,22.27456,-0.001968561,0.52319,1.01836
132.026,22.3313,-0.0020092,0.52835,1.01813
132.626,22.38781,-0.001979965,0.53485,1.01791
133.226,22.44448,-0.001963434,0.53953,1.01768
133.826,22.50105,-0.001326564,0.54467,1.01746
134.426,22.55753,-0.001988245,0.54805,1.01723
135.026,22.61403,-0.0019819,0.55132,1.017
135.626,22.67052,-0.001605589,0.55943,1.01677
136.226,22.7268,-0.001979983,0.56473,1.01654
136.826,22.7828,-0.00197818,0.56911,1.01631
137.426,22.83877,-0.002433159,0.5782,1.01607
138.026,22.8948,-0.0006533208,0.58492,1.01584
138.626,22.95097,-0.000640786,0.58949,1.0156
139.226,23.0072,-0.0006782145,0.59881,1.01536
139.826,23.06311,-0.0006970947,0.60489,1.01512
140.426,23.11899,-0.001972707,0.61368,1.01488
141.026,23.17473,-0.0005684782,0.62421,1.01464
141.626,23.23035,-0.00265392,0.63208,1.0144
142.226,23.28603,-0.00264362,0.64364,1.01415
142.826,23.34156,-0.001329648,0.65449,1.01391
143.426,23.39706,-0.00132037,0.66408,1.01366
144.026,23.4526,-0.000662164,0.67561,1.01341
144.626,23.50806,-0.001319748,0.68914,1.01317
145.226,23.56345,-0.001029115,0.70127,1.01292
145.826,23.61886,4.097842e-08,0.71728,1.01266
146.426,23.6742,0.0003533486,0.73181,1.01241
147.026,23.72965,-8.60979e-08,0.75008,1.01216
147.626,23.78514,-0.001366987,0.76499,1.0119
148.226,23.84049,-0.001320005,0.78149,1.01165
148.826,23.89574,-0.001320026,0.79991,1.01139
149.426,23.9508,-0.000930182,0.82024,1.01113
150.026,24.006,-0.00132524,0.84042,1.01087
150.626,24.06081,-0.001316184,0.86409,1.01061
151.226,24.1155,5.19422e-06,0.88605,1.01035
151.826,24.17064,-0.00131941,0.91104,1.01009
152.426,24.22555,8.42434e-05,0.93783,1.00982
153.026,24.28118,6.91567e-05,0.96344,1.00956
153.626,24.33623,-0.0001037175,0.99005,1.00929
154.226,24.39128,-1.002164e-05,1.02194,1.00902
154.826,24.44633,-1.18683e-05,1.05129,1.00875
155.426,24.5013,-0.0013308,1.08194,1.00848
156.026,24.5565,-2.03849e-05,1.11552,1.00821
156.626,24.61175,0.001099535,1.14852,1.00794
157.226,24.66674,0.000655372,1.17713,1.00767
157.826,24.7217,1.4098e-05,1.20713,1.00739
158.426,24.7767,5.786329e-07,1.23593,1.00711
159.026,24.83147,-0.001022361,1.25916,1.00684
159.626,24.88628,-1.4902e-05,1.27617,1.00656
160.226,24.94107,-1.00527e-05,1.29041,1.00628
160.826,24.9958,0.0003110858,1.29165,1.006
161.426,25.0506,-1.893629e-06,1.28415,1.00572
162.026,25.10528,7.465515e-09,1.26181,1.00543
162.626,25.1601,1.682618e-10,1.22483,1.00515
163.226,25.2147,-4.20331e-05,1.17788,1.00487
163.826,25.26912,-0.000326319,1.12061,1.00458
164.426,25.32374,2.55998e-05,1.0528,1.00429
165.026,25.37818,0.001309346,0.98022,1.004
165.626,25.43271,0.001313779,0.91501,1.00371
166.226,25.48709,-1.454822e-05,0.84951,1.00342
166.826,25.5411,0.001063129,0.7934,1.00313
167.426,25.59516,0.00131051,0.74308,1.00284
168.026,25.64926,-2.258136e-05,0.7002,1.00254
168.626,25.70337,-1.037846e-05,0.66894,1.00225
169.226,25.7575,0.001358271,0.63943,1.00195
169.826,25.81159,0.00131018,0.6184,1.00166
170.426,25.86565,-8.348089e-05,0.60286,1.00136
171.026,25.9197,0.00152841,0.58975,1.00106
171.626,25.97382,-6.548212e-06,0.57798,1.00076
172.226,26.0277,-0.000464633,0.57165,1.00046
172.826,26.08174,-9.918834e-06,0.56721,1.00015
173.426,26.13567,-1.00193e-05,0.56218,0.99985
174.026,26.18971,-7.71819e-06,0.55866,0.99954
174.626,26.24367,0.00131359,0.55583,0.99924
175.226,26.29758,0.001571964,0.55339,0.99893
175.826,26.3517,0.001639934,0.55695,0.99862
176.426,26.40575,0.00177045,0.55471,0.99831
177.026,26.45979,0.00130974,0.55422,0.998
177.626,26.51395,0.001302355,0.5556,0.99769
178.226,26.56796,0.0009788719,0.55447,0.99738
178.826,26.62197,0.0009799992,0.55796,0.99707
179.426,26.6761,0.000980049,0.55813,0.99675
180.026,26.72982,0.0009763487,0.55725,0.99644
180.626,26.7836,0.001291534,0.56065,0.99612
181.226,26.8373,-9.259875e-06,0.55673,0.9958
181.826,26.8912,0.0007512632,0.55688,0.99548
182.426,26.94525,-8.736403e-05,0.55931,0.99516
183.026,26.99901,2.401471e-08,0.56015,0.99484
183.626,27.05288,4.941064e-11,0.56069,0.99452
184.226,27.1067,-2.55443e-09,0.56082,0.9942
184.826,27.1604,-5.04051e-07,0.56226,0.99387
185.426,27.21423,0.00131678,0.5648,0.99355
186.026,27.26793,0.001389107,0.56327,0.99322
186.626,27.32157,-1.10243e-05,0.56577,0.99289
187.226,27.3753,0.00135583,0.56637,0.99257
187.826,27.42897,0.002224366,0.56782,0.99224
188.426,27.4827,0.00230189,0.56869,0.99191
189.026,27.53642,0.000942956,0.56938,0.99158
189.626,27.58995,0.0009800008,0.56881,0.99124
190.226,27.6436,0.0009908051,0.56933,0.99091
190.826,27.697,0.001024514,0.57129,0.99058
191.426,27.75035,0.0009800041,0.57374,0.99024
192.026,27.8038,0.0009801012,0.57266,0.98991
192.626,27.8574,0.0008904517,0.57434,0.98957
193.226,27.9111,0.002294987,0.57663,0.98923
193.826,27.96469,0.00360652,0.57788,0.98889
194.426,28.01827,0.00230027,0.5792,0.98855
195.026,28.07191,0.002286436,0.57764,0.98821
195.626,28.1254,0.001942058,0.5812,0.98787
196.226,28.17898,0.0009323858,0.57926,0.98752
196.826,28.2326,0.002297172,0.57902,0.98718
197.426,28.2861,0.0029452,0.57998,0.98684
198.026,28.33955,0.002961464,0.58123,0.98649
198.626,28.39323,0.002250298,0.58286,0.98614
199.226,28.44677,0.002300045,0.58398,0.98579
199.826,28.50041,0.002299995,0.58421,0.98545
200.426,28.55398,0.002341558,0.58308,0.9851
201.026,28.6075,0.0009877291,0.58604,0.98475
201.626,28.66105,0.0020491,0.58614,0.98439
202.226,28.7144,0.001067024,0.58715,0.98404
202.826,28.7679,0.0009896382,0.5862,0.98369
203.426,28.82143,0.002283014,0.58518,0.98333
204.026,28.8748,0.002299934,0.58768,0.98298
204.626,28.9285,0.00255473,0.58552,0.98262
205.226,28.98208,0.00230124,0.58828,0.98226
205.826,29.03554,0.0023,0.58965,0.98191
206.426,29.0891,0.0023,0.58786,0.98155
207.026,29.14269,0.00230007,0.59031,0.98119
207.626,29.1961,0.00327954,0.59197,0.98082
208.226,29.24973,0.00361118,0.59339,0.98046
208.826,29.3033,0.001105837,0.59122,0.9801
209.426,29.3568,0.00165036,0.59301,0.97974
210.026,29.41044,0.002290007,0.59182,0.97937
210.626,29.46401,0.002289971,0.59322,0.97901
211.226,29.5176,0.002457736,0.59375,0.97864
211.826,29.57119,0.00353013,0.59549,0.97827
212.426,29.62475,0.002300136,0.59401,0.9779
213.026,29.67823,0.002299999,0.59613,0.97753
213.626,29.7316,0.00229941,0.59501,0.97716
214.226,29.785,0.00297333,0.59687,0.97679
214.826,29.8386,0.00295879,0.5982,0.97642
215.426,29.89211,0.004260611,0.59936,0.97605
216.026,29.94582,0.002961573,0.60034,0.97567
216.626,29.9996,0.002661348,0.5999,0.9753
217.226,30.0533,0.001639506,0.59907,0.97492
217.826,30.10697,0.00163998,0.59818,0.97455
218.426,30.16044,0.001636168,0.59984,0.97417
219.026,30.214,0.003149115,0.60306,0.97379
219.626,30.26747,0.004256884,0.60166,0.97341
220.226,30.32102,0.00295298,0.60578,0.97303
220.826,30.3747,0.004244605,0.60172,0.97265
221.426,30.4284,0.001754691,0.60245,0.97227
222.026,30.48198,0.002307128,0.60436,0.97189
222.626,30.53564,0.004244844,0.60745,0.97151
223.226,30.5892,0.002960262,0.60532,0.97112
223.826,30.6428,0.00296,0.60554,0.97074
224.426,30.6964,0.00296118,0.60796,0.97035
225.026,30.75011,0.00395103,0.60862,0.96996
225.626,30.8037,0.004680639,0.60561,0.96958
226.226,30.85724,0.00341099,0.60753,0.96919
226.826,30.9108,0.003289088,0.60657,0.9688
227.426,30.9643,0.004619919,0.60778,0.96841
228.026,31.018,0.00326962,0.60983,0.96802
228.626,31.07167,0.003289979,0.61173,0.96763
229.226,31.1255,0.003305607,0.60959,0.96723
229.826,31.1792,0.004280349,0.60952,0.96684
230.426,31.2327,0.003610453,0.61122,0.96645
231.026,31.28639,0.00361953,0.61188,0.96605
231.626,31.3399,0.003940062,0.61332,0.96566
232.226,31.39357,0.003574662,0.61283,0.96526
232.826,31.4472,0.00356141,0.61143,0.96486
233.426,31.5007,0.00492962,0.61302,0.96446
234.026,31.55439,0.004921878,0.61343,0.96407
234.626,31.60802,0.00459912,0.61391,0.96367
235.226,31.6617,0.004199012,0.61365,0.96327
235.826,31.7155,0.00322781,0.61766,0.96286
236.426,31.76916,0.001999242,0.61923,0.96246
237.026,31.8229,0.00314821,0.61971,0.96206
237.626,31.8767,0.003290004,0.61894,0.96166
238.226,31.93044,0.003286134,0.61978,0.96125
238.826,31.9842,0.004603643,0.62123,0.96085
239.426,32.03801,0.004600013,0.62059,0.96044
240.026,32.09187,0.00461883,0.6223,0.96003
240.626,32.14563,0.003276732,0.62176,0.95963
241.226,32.1994,0.00328373,0.62183,0.95922
241.826,32.25315,0.00616803,0.6214,0.95881
242.426,32.30696,0.009708856,0.62257,0.9584
243.026,32.36098,0.01104171,0.62123,0.95799
243.626,32.4147,0.01361683,0.62305,0.95758
244.226,32.46852,0.01444265,0.62142,0.95716
244.826,32.52221,0.00742244,0.6227,0.95675
245.426,32.57585,0.00405591,0.6246,0.95634
246.026,32.62976,0.00405,0.6234,0.95592
246.626,32.68355,0.00405362,0.62674,0.95551
247.226,32.73738,0.00339997,0.62632,0.95509
247.826,32.7913,0.00338989,0.62708,0.95468
248.426,32.84506,0.002870995,0.62836,0.95426
249.026,32.89884,0.002739935,0.62981,0.95384
249.626,32.95264,0.00263806,0.63118,0.95342
250.226,33.00646,0.001201038,0.63266,0.953
250.826,33.0601,0.001200002,0.63051,0.95258
251.426,33.1139,0.001126639,0.6298,0.95216
252.026,33.16762,0.003729465,0.62987,0.95174
252.626,33.22144,0.004273242,0.63136,0.95132
253.226,33.27538,0.003791952,0.63133,0.9509
253.826,33.32927,0.002520731,0.63286,0.95047
254.426,33.38304,0.00382819,0.63312,0.95005
255.026,33.43691,0.00383,0.63318,0.94962
255.626,33.4908,0.00383,0.63419,0.9492
256.226,33.54485,0.00383,0.63494,0.94877
256.826,33.59892,0.003830001,0.63609,0.94834
257.426,33.65283,0.00383214,0.63482,0.94791
258.026,33.70665,0.00248549,0.63576,0.94749
258.626,33.76038,0.002519996,0.63643,0.94706
259.226,33.81426,0.00251997,0.63952,0.94663
259.826,33.86808,0.002540654,0.63567,0.9462
260.426,33.92191,0.00384038,0.63892,0.94577
261.026,33.97573,0.003867901,0.63969,0.94533
261.626,34.02962,0.004820482,0.63786,0.9449
262.226,34.08376,0.004820017,0.63766,0.94447
262.826,34.1378,0.004808178,0.63884,0.94403
263.426,34.1918,0.003516364,0.63907,0.9436
264.026,34.2458,0.005364992,0.64174,0.94316
264.626,34.2996,0.00484125,0.63938,0.94273
265.226,34.3536,0.004820132,0.6401,0.94229
265.826,34.40766,0.00482,0.64105,0.94185
266.426,34.46168,0.00482,0.64299,0.94142
267.026,34.51582,0.00482,0.64321,0.94098
267.626,34.56994,0.00482,0.64231,0.94054
268.226,34.62392,0.00482,0.64227,0.9401
268.826,34.67814,0.00482,0.64579,0.93966
269.426,34.73217,0.004819997,0.64485,0.93922
270.026,34.78614,0.004824473,0.64466,0.93878
270.626,34.84,0.00581,0.64466,0.93833
271.226,34.89399,0.00580999,0.64794,0.93789
271.826,34.94805,0.005810003,0.64988,0.93745
272.426,35.0021,0.00581396,0.64699,0.937
273.026,35.0565,0.00619322,0.65016,0.93656
273.626,35.11052,0.004802828,0.64866,0.93611
274.226,35.1646,0.003739055,0.65127,0.93567
274.826,35.21866,0.00481976,0.64908,0.93522
275.426,35.2727,0.004834159,0.65095,0.93477
276.026,35.3268,0.006136984,0.65093,0.93433
276.626,35.38087,0.004816908,0.65204,0.93388
277.226,35.43513,0.0051595,0.65469,0.93343
277.826,35.4893,0.00548306,0.65245,0.93298
278.426,35.54356,0.004803133,0.65418,0.93253
279.026,35.59774,0.004341538,0.6537,0.93208
279.626,35.65202,0.004818275,0.65565,0.93163
280.226,35.7063,0.004820002,0.65446,0.93118
280.826,35.76051,0.004819895,0.65196,0.93072
281.426,35.8148,0.005857711,0.6528,0.93027
282.026,35.86885,0.00579998,0.65616,0.92982
282.626,35.92301,0.005799182,0.65647,0.92936
283.226,35.97723,0.005110972,0.65675,0.92891
283.826,36.03148,0.005149842,0.65834,0.92845
284.426,36.0858,0.004599207,0.65651,0.928
285.026,36.14022,0.004500004,0.65827,0.92754
285.626,36.19451,0.004500003,0.657,0.92708
286.226,36.2489,0.00449873,0.65811,0.92663
286.826,36.30332,0.004821675,0.65899,0.92617
287.426,36.35767,0.00583833,0.65979,0.92571
288.026,36.41222,0.005809577,0.66049,0.92525
288.626,36.46665,0.004652612,0.66047,0.92479
289.226,36.52115,0.003825636,0.66144,0.92433
289.826,36.5756,0.004211171,0.66257,0.92387
290.426,36.63008,0.004490233,0.66456,0.92341
291.026,36.68442,0.00515504,0.66146,0.92295
291.626,36.73891,0.00515,0.66361,0.92249
292.226,36.79332,0.005151233,0.66413,0.92202
292.826,36.84776,0.00644446,0.66037,0.92156
293.426,36.9023,0.005907728,0.66322,0.9211
294.026,36.9568,0.00558318,0.66427,0.92063
294.626,37.01132,0.006140053,0.66311,0.92017
295.226,37.06582,0.00614,0.66525,0.9197
295.826,37.1203,0.00614,0.66529,0.91924
296.426,37.17476,0.00614,0.66629,0.91877
297.026,37.22933,0.006139937,0.66615,0.9183
297.626,37.28383,0.006505337,0.66584,0.91784
298.226,37.3385,0.00702914,0.66405,0.91737
298.826,37.39318,0.007458891,0.6684,0.9169
299.426,37.44785,0.006154144,0.66565,0.91643
300.026,37.50257,0.006132215,0.66534,0.91596
300.626,37.55712,0.006099509,0.66496,0.91549
301.226,37.61176,0.00613999,0.66645,0.91502
301.826,37.6663,0.00613281,0.6668,0.91455
302.426,37.721,0.007382103,0.66989,0.91408
303.026,37.77572,0.006130115,0.66763,0.91361
303.626,37.83039,0.00613,0.66906,0.91314
304.226,37.88516,0.00613,0.66788,0.91266
304.826,37.93995,0.00613,0.66952,0.91219
305.426,37.99481,0.00613,0.66973,0.91172
306.026,38.04957,0.00613,0.67229,0.91124
306.626,38.10426,0.00613,0.67157,0.91077
307.226,38.1588,0.00613,0.67354,0.91029
307.826,38.21349,0.00613,0.67047,0.90982
308.426,38.2682,0.00613,0.673,0.90934
309.026,38.32295,0.00613,0.67252,0.90887
309.626,38.37769,0.00613,0.67289,0.90839
310.226,38.43233,0.006130229,0.67293,0.90791
310.826,38.487,0.005444785,0.675,0.90743
311.426,38.54167,0.005151833,0.67441,0.90696
312.026,38.59633,0.005149998,0.67368,0.90648
312.626,38.65102,0.00515,0.67397,0.906
313.226,38.70544,0.00515,0.6752,0.90552
313.826,38.7601,0.00515,0.67502,0.90504
314.426,38.8147,0.00515,0.67576,0.90456
315.026,38.86955,0.00515,0.67648,0.90408
315.626,38.92459,0.00515,0.67517,0.9036
316.226,38.9797,0.00515,0.67704,0.90312
316.826,39.0344,0.005151778,0.67701,0.90264
317.426,39.0892,0.006154889,0.67829,0.90215
318.026,39.14403,0.00614542,0.67797,0.90167
318.626,39.19876,0.004518849,0.67813,0.90119
319.226,39.2536,0.005784126,0.67886,0.9007
319.826,39.3085,0.00581001,0.67997,0.90022
320.426,39.36338,0.00581,0.67831,0.89974
321.026,39.41843,0.005810002,0.6821,0.89925
321.626,39.4733,0.00581504,0.68032,0.89877
322.226,39.52825,0.004829642,0.68363,0.89828
322.826,39.5833,0.004818653,0.68153,0.8978
323.426,39.63821,0.00379319,0.684,0.89731
324.026,39.69321,0.00382964,0.68458,0.89682
324.626,39.74817,0.005184702,0.68428,0.89634
325.226,39.803,0.005150035,0.68531,0.89585
325.826,39.85805,0.005150045,0.68542,0.89536
326.426,39.91297,0.00641138,0.68421,0.89487
327.026,39.96771,0.005486045,0.6853,0.89439
327.626,40.02262,0.004161709,0.68701,0.8939
328.226,40.07767,0.00415997,0.68682,0.89341
328.826,40.1327,0.004107151,0.68823,0.89292
329.426,40.18782,0.00548025,0.68898,0.89243
330.026,40.24264,0.00537352,0.69044,0.89194
330.626,40.29744,0.005596294,0.68934,0.89145
331.226,40.35245,0.004271667,0.68866,0.89096
331.826,40.4076,0.004266639,0.69187,0.89047
332.426,40.46285,0.005576099,0.68824,0.88998
333.026,40.51809,0.004348147,0.69105,0.88948
333.626,40.57301,0.005592672,0.69075,0.88899
334.226,40.628,0.00611534,0.69205,0.8885
334.826,40.683,0.004465787,0.69288,0.88801
335.426,40.73802,0.002949409,0.69177,0.88751
336.026,40.79322,0.004244155,0.69203,0.88702
336.626,40.84827,0.004269777,0.69267,0.88653
337.226,40.90331,0.005101517,0.69239,0.88603
337.826,40.9585,0.00525866,0.692,0.88554
338.426,41.01367,0.004298463,0.69498,0.88504
339.026,41.06893,0.004269992,0.69914,0.88455
339.626,41.12409,0.00427,0.69629,0.88405
340.226,41.1792,0.004270075,0.69982,0.88356
340.826,41.23438,0.003905025,0.69819,0.88306
341.426,41.28957,0.003940004,0.69616,0.88257
342.026,41.3448,0.003940002,0.69706,0.88207
342.626,41.40003,0.003940021,0.69809,0.88157
343.226,41.45536,0.003306805,0.69609,0.88108
343.826,41.5107,0.003289835,0.69816,0.88058
344.426,41.56597,0.002571018,0.6989,0.88008
345.026,41.62123,0.001305949,0.6997,0.87958
345.626,41.67657,0.001319445,0.70151,0.87909
346.226,41.7318,0.001641081,0.70178,0.87859
346.826,41.7872,0.002611102,0.70079,0.87809
347.426,41.84259,0.002623195,0.70419,0.87759
348.026,41.8979,0.001305516,0.70554,0.87709
348.626,41.95306,0.001962719,0.70304,0.87659
349.226,42.00853,0.0006084467,0.70536,0.87609
349.826,42.06382,0.0005400878,0.70855,0.87559
350.426,42.1192,0.0005400738,0.70744,0.87509
351.026,42.17455,0.0001752487,0.70571,0.87459
351.626,42.22992,0.0002100095,0.70739,0.87409
352.226,42.28529,-0.0001522511,0.70855,0.87359
352.826,42.34057,-0.000120004,0.70906,0.87309
353.426,42.396,-0.000120135,0.70891,0.87259
354.026,42.45126,-0.000206973,0.7115,0.87209
354.626,42.50677,-0.001429925,0.71273,0.87158
355.226,42.56227,-0.00143,0.7123,0.87108
355.826,42.6179,-0.001430001,0.71371,0.87058
356.426,42.6734,-0.001431292,0.7136,0.87008
357.026,42.72876,-0.00273409,0.71412,0.86957
357.626,42.7843,-0.002745767,0.7184,0.86907
358.226,42.83967,-0.00142892,0.71909,0.86857
358.826,42.89529,-0.002737507,0.71811,0.86806
359.426,42.95089,-0.002749918,0.7178,0.86756
360.026,43.00646,-0.00337872,0.71703,0.86706
360.626,43.06204,-0.004072831,0.72044,0.86655
361.226,43.1176,-0.004726812,0.71919,0.86605
361.826,43.1732,-0.0049927,0.72134,0.86554
362.426,43.22883,-0.00603997,0.72335,0.86504
363.026,43.28438,-0.00604,0.7245,0.86453
363.626,43.3401,-0.00604,0.72489,0.86403
364.226,43.3957,-0.006039965,0.72528,0.86352
364.826,43.45148,-0.006508221,0.72605,0.86302
365.426,43.50736,-0.007375505,0.72584,0.86251
366.026,43.56305,-0.00835117,0.72586,0.862
366.626,43.619,-0.00833215,0.73016,0.8615
367.226,43.67465,-0.008696719,0.72965,0.86099
367.826,43.73046,-0.009325722,0.73049,0.86049
368.426,43.78617,-0.01064288,0.73022,0.85998
369.026,43.84198,-0.01064,0.73376,0.85947
369.626,43.89764,-0.01063997,0.73659,0.85896
370.226,43.95341,-0.01131671,0.73583,0.85846
370.826,44.0092,-0.01195996,0.73532,0.85795
371.426,44.06498,-0.01337712,0.73791,0.85744
372.026,44.12089,-0.01470022,0.73824,0.85693
372.626,44.17668,-0.0147,0.74227,0.85643
373.226,44.23251,-0.0147,0.74309,0.85592
373.826,44.28849,-0.01469998,0.74493,0.85541
374.426,44.3444,-0.01549118,0.74431,0.8549
375.026,44.40025,-0.01734342,0.74549,0.85439
375.626,44.45624,-0.01727314,0.74853,0.85388
376.226,44.51222,-0.01778461,0.74955,0.85338
376.826,44.5682,-0.01873817,0.75256,0.85287
377.426,44.62449,-0.01903898,0.7517,0.85236
378.026,44.6806,-0.02171928,0.75263,0.85185
378.626,44.7368,-0.02301472,0.75481,0.85134
379.226,44.79295,-0.0243568,0.75509,0.85083
379.826,44.8489,-0.02410099,0.75471,0.85032
380.426,44.90501,-0.02301639,0.75504,0.84981
381.026,44.96114,-0.02704315,0.75988,0.8493
381.626,45.0173,-0.02698993,0.76162,0.84879
382.226,45.07355,-0.02698982,0.76159,0.84828
382.826,45.12979,-0.02809997,0.76309,0.84777
383.426,45.186,-0.02841786,0.76399,0.84726
384.026,45.24214,-0.02925615,0.76612,0.84675
384.626,45.29845,-0.03093222,0.76663,0.84624
385.226,45.3547,-0.03186707,0.7686,0.84573
385.826,45.41086,-0.03370641,0.77213,0.84522
386.426,45.46702,-0.03499061,0.77349,0.8447
387.026,45.52313,-0.03631773,0.77492,0.84419
387.626,45.57927,-0.03762657,0.77683,0.84368
388.226,45.63544,-0.03770486,0.78213,0.84317
388.826,45.69171,-0.0390014,0.78575,0.84266
389.426,45.74795,-0.04036974,0.78823,0.84215
390.026,45.80441,-0.04172491,0.79325,0.84164
390.626,45.86091,-0.04443401,0.79782,0.84112
391.226,45.91725,-0.04573852,0.80183,0.84061
391.826,45.9734,-0.04697727,0.8022,0.8401
392.426,46.02916,-0.04847338,0.80441,0.83959
393.026,46.0854,-0.05034343,0.80291,0.83908
393.626,46.14186,-0.05293661,0.80156,0.83856
394.226,46.19834,-0.05429466,0.80483,0.83805
394.826,46.25533,-0.05586442,0.80195,0.83754
395.426,46.31147,-0.0587904,0.80113,0.83703
396.026,46.36788,-0.06002152,0.8019,0.83652
396.626,46.42419,-0.06128339,0.80604,0.836
397.226,46.4806,-0.06278449,0.80625,0.83549
397.826,46.5373,-0.06411919,0.80673,0.83498
398.426,46.5937,-0.06680168,0.81028,0.83447
399.026,46.6503,-0.06986247,0.80986,0.83395
399.626,46.7067,-0.07028242,0.81281,0.83344
400.226,46.76324,-0.07332015,0.81305,0.83293
400.826,46.8198,-0.07634411,0.81625,0.83241
401.426,46.87621,-0.0776895,0.81679,0.8319
402.026,46.93277,-0.0796303,0.81925,0.83139
402.626,46.98943,-0.0832518,0.82314,0.83088
403.226,47.046,-0.08765715,0.82663,0.83036
403.826,47.10263,-0.09081474,0.827,0.82985
404.426,47.1592,-0.09367375,0.83072,0.82934
405.026,47.2158,-0.09514611,0.8341,0.82882
405.626,47.2724,-0.09703898,0.83831,0.82831
406.226,47.32908,-0.09989572,0.84122,0.8278
406.826,47.38597,-0.10294,0.84551,0.82728
407.426,47.44277,-0.10498,0.85006,0.82677
408.026,47.4992,-0.1085,0.85157,0.82626
408.626,47.55587,-0.11024,0.85986,0.82574
409.226,47.61237,-0.11371,0.86198,0.82523
409.826,47.66894,-0.11665,0.86687,0.82472
410.426,47.72602,-0.11962,0.87195,0.8242
411.026,47.7829,-0.12449,0.87884,0.82369
411.626,47.8397,-0.12723,0.88506,0.82318
412.226,47.89655,-0.12911,0.88903,0.82266
412.826,47.95316,-0.13195,0.89569,0.82215
413.426,48.01001,-0.13372,0.90084,0.82164
414.026,48.06694,-0.13983,0.90628,0.82112
414.626,48.12378,-0.14459,0.91417,0.82061
415.226,48.18072,-0.14749,0.92156,0.8201
415.826,48.23724,-0.15308,0.9307,0.81958
416.426,48.2941,-0.15894,0.93935,0.81907
417.026,48.35116,-0.16336,0.94297,0.81856
417.626,48.40845,-0.16838,0.95429,0.81804
418.226,48.46575,-0.17169,0.96172,0.81753
418.826,48.52285,-0.17902,0.97248,0.81702
419.426,48.57985,-0.18548,0.98633,0.8165
420.026,48.63686,-0.18924,0.99485,0.81599
420.626,48.69399,-0.1969,1.00564,0.81548
421.226,48.75105,-0.20052,1.01772,0.81496
421.826,48.8082,-0.20793,1.0307,0.81445
422.426,48.86525,-0.21373,1.04025,0.81394
423.026,48.92233,-0.21976,1.05462,0.81342
423.626,48.97936,-0.2148,1.06952,0.81291
424.226,49.03658,-0.24328,1.08339,0.8124
424.826,49.0936,-0.24208,1.09823,0.81189
425.426,49.15058,-0.2495,1.11065,0.81137
426.026,49.20771,-0.25624,1.1264,0.81086
426.626,49.2648,-0.26332,1.14155,0.81035
427.226,49.3217,-0.2729,1.16135,0.80983
427.826,49.37871,-0.28144,1.18028,0.80932
428.426,49.43568,-0.28973,1.19935,0.80881
429.026,49.49256,-0.29739,1.21775,0.8083
429.626,49.5494,-0.29301,1.23652,0.80778
430.226,49.6064,-0.32681,1.25683,0.80727
430.826,49.66353,-0.3278,1.27623,0.80676
431.426,49.72068,-0.33742,1.30223,0.80625
432.026,49.77796,-0.35106,1.32741,0.80573
432.626,49.83511,-0.36093,1.34919,0.80522
433.226,49.8922,-0.37446,1.37274,0.80471
433.826,49.94936,-0.38652,1.3975,0.8042
434.426,50.00658,-0.3993,1.42435,0.80368
435.026,50.06387,-0.41441,1.45235,0.80317
435.626,50.1213,-0.4281,1.48337,0.80266
436.226,50.17876,-0.44362,1.51492,0.80215
436.826,50.2361,-0.4589,1.54774,0.80164
437.426,50.29319,-0.47487,1.582,0.80113
438.026,50.35053,-0.49373,1.62232,0.80061
438.626,50.40791,-0.51145,1.65855,0.8001
439.226,50.46523,-0.53243,1.69162,0.79959
439.826,50.52248,-0.55094,1.73378,0.79908
440.426,50.57974,-0.57159,1.77238,0.79857
441.026,50.63714,-0.59537,1.80739,0.79806
441.626,50.69469,-0.6188,1.85172,0.79755
442.226,50.75223,-0.64115,1.89442,0.79704
442.826,50.80975,-0.66798,1.93772,0.79652
443.426,50.86715,-0.69433,1.98067,0.79601
444.026,50.92457,-0.72153,2.01602,0.7955
444.626,50.9821,-0.753,2.0568,0.79499
445.226,51.03979,-0.78142,2.09524,0.79448
445.826,51.09749,-0.81345,2.12216,0.79397
446.426,51.15515,-0.84143,2.16847,0.79346
447.026,51.21265,-0.87395,2.21658,0.79295
447.626,51.26981,-0.90866,2.2557,0.79244
448.226,51.32725,-0.94208,2.30083,0.79193
448.826,51.3847,-0.98148,2.33897,0.79142
449.426,51.44231,-1.01839,2.37562,0.79091
450.026,51.50026,-1.06141,2.40265,0.7904
450.626,51.55789,-1.10127,2.42705,0.78989
451.226,51.61561,-1.14145,2.4545,0.78938
451.826,51.67344,-1.18561,2.47846,0.78888
452.426,51.73117,-1.23005,2.51108,0.78837
453.026,51.78875,-1.27784,2.5522,0.78786
453.626,51.84615,-1.32501,2.54544,0.78735
454.226,51.90345,-1.37154,2.54345,0.78684
454.826,51.96095,-1.42206,2.54736,0.78633
455.426,52.01817,-1.47581,2.55388,0.78582
456.026,52.07568,-1.53214,2.55867,0.78532
456.626,52.1331,-1.59,2.56401,0.78481
457.226,52.19055,-1.646,2.56649,0.7843
457.826,52.2481,-1.70822,2.56533,0.78379
458.426,52.30559,-1.77173,2.5642,0.78328
459.026,52.36309,-1.83566,2.55513,0.78278
459.626,52.42069,-1.90375,2.54278,0.78227
460.226,52.478,-1.96738,2.53066,0.78176
460.826,52.53524,-2.03806,2.50572,0.78126
461.426,52.59268,-2.10748,2.47958,0.78075
462.026,52.64996,-2.17876,2.44281,0.78024
462.626,52.7075,-2.25278,2.40533,0.77974
463.226,52.76491,-2.32302,2.36162,0.77923
463.826,52.82235,-2.40008,2.30867,0.77872
464.426,52.8798,-2.47315,2.24411,0.77822
465.026,52.9372,-2.54883,2.17137,0.77771
465.626,52.99455,-2.62208,2.09291,0.77721
466.226,53.05195,-2.69554,2.00804,0.7767
466.826,53.1093,-2.769,1.92374,0.7762
467.426,53.167,-2.84,1.83189,0.77569
468.026,53.2245,-2.91496,1.73489,0.77519
468.626,53.2821,-2.97892,1.63578,0.77468
469.226,53.3396,-3.04948,1.5303,0.77418
469.826,53.39715,-3.11079,1.42133,0.77367
470.426,53.45479,-3.1774,1.30635,0.77317
471.026,53.51236,-3.23576,1.19154,0.77267
471.626,53.56991,-3.29356,1.08375,0.77216
472.226,53.62754,-3.34995,0.97149,0.77166
472.826,53.68495,-3.40043,0.86487,0.77116
473.426,53.7426,-3.4522,0.76239,0.77065
474.026,53.80021,-3.49235,0.66551,0.77015
474.626,53.8577,-3.53775,0.57541,0.76965
475.226,53.9157,-3.57338,0.49167,0.76914
475.826,53.97341,-3.61053,0.41535,0.76864
476.426,54.0312,-3.64111,0.34598,0.76814
477.026,54.0889,-3.66942,0.28826,0.76764
477.626,54.1468,-3.69502,0.23384,0.76714
478.226,54.20469,-3.71826,0.19211,0.76664
478.826,54.26302,-3.73866,0.1652,0.76613
479.426,54.32095,-3.75583,0.14146,0.76563
480.026,54.379,-3.77314,0.12997,0.76513
480.626,54.4368,-3.78379,0.12562,0.76463
481.226,54.49475,-3.79577,0.12826,0.76413
481.826,54.55262,-3.80584,0.13092,0.76363
482.426,54.6105,-3.8167,0.13844,0.76313
483.026,54.66854,-3.82355,0.14623,0.76263
483.626,54.72662,-3.82973,0.14923,0.76213
484.226,54.7848,-3.83602,0.15771,0.76163
484.826,54.8429,-3.83966,0.16027,0.76113
485.426,54.90121,-3.84617,0.16325,0.76064
486.026,54.95927,-3.84955,0.15818,0.76014
486.626,55.0174,-3.85289,0.15572,0.75964
487.226,55.07552,-3.85635,0.14392,0.75914
487.826,55.1336,-3.86001,0.13607,0.75864
488.426,55.1917,-3.86139,0.12402,0.75815
489.026,55.2497,-3.8627,0.11328,0.75765
489.626,55.3077,-3.86461,0.10411,0.75715
490.226,55.36575,-3.86545,0.09143739,0.75665
490.826,55.42364,-3.86783,0.08477786,0.75616
491.426,55.48145,-3.8682,0.07637232,0.75566
492.026,55.5395,-3.87012,0.06797059,0.75517
492.626,55.59745,-3.87083,0.05926466,0.75467
493.226,55.6557,-3.87078,0.05445432,0.75417
493.826,55.7139,-3.87299,0.04662166,0.75368
494.426,55.772,-3.87313,0.04080943,0.75318
495.026,55.83005,-3.87444,0.03360907,0.75269
495.626,55.8881,-3.87444,0.02998799,0.75219
496.226,55.9461,-3.87411,0.03209746,0.7517
496.826,56.00415,-3.87313,0.03002731,0.75121
497.426,56.0621,-3.87313,0.03157464,0.75071
498.026,56.1202,-3.87313,0.03372948,0.75022
498.626,56.1781,-3.87313,0.02970482,0.74973
499.226,56.2363,-3.8727,0.02038002,0.74923
499.826,56.2945,-3.87182,0.01011396,0.74874
500.426,56.35275,-3.8705,0.009121809,0.74825
501.026,56.41084,-3.87181,0.00611625,0.74776
501.626,56.46889,-3.8718,0.001122628,0.74726
502.226,56.52692,-3.8705,0.000445197,0.74677
502.826,56.58492,-3.87095,-0.00097525,0.74628
503.426,56.64291,-3.87181,-0.0002867254,0.74579
504.026,56.7012,-3.87216,0.000887345,0.7453
504.626,56.7593,-3.87214,0.002276409,0.74481
505.226,56.81768,-3.87167,-0.00140035,0.74432
505.826,56.87601,-3.87082,0.001755408,0.74383
506.426,56.9343,-3.87082,0.001914717,0.74334
507.026,56.9926,-3.87103,-0.0003808188,0.74285
507.626,57.05086,-3.87214,-0.002653933,0.74236
508.226,57.10912,-3.87155,-0.001850145,0.74187
508.826,57.16737,-3.87179,-0.002731361,0.74138
509.426,57.22577,-3.87182,-0.003465155,0.7409
510.026,57.2841,-3.8705,-0.004076873,0.74041
510.626,57.34271,-3.8718,-0.004864625,0.73992
511.226,57.4012,-3.87183,-0.001308949,0.73943
511.826,57.45975,-3.87051,-0.00582076,0.73895
512.426,57.5182,-3.86919,-0.004467677,0.73846
513.026,57.57649,-3.8692,-0.004080792,0.73797
513.626,57.63479,-3.8705,-0.006473119,0.73749
514.226,57.69314,-3.8705,-0.00825378,0.737
514.826,57.75155,-3.8705,-0.00470807,0.73652
515.426,57.8102,-3.8705,-0.0050605,0.73603
516.026,57.8688,-3.86912,-0.00614653,0.73555
516.626,57.92748,-3.87017,-0.00214775,0.73506
517.226,57.98588,-3.87017,-0.004925001,0.73458
517.826,58.044,-3.87017,-0.005527371,0.73409
518.426,58.1024,-3.87017,-0.00494412,0.73361
519.026,58.16084,-3.87017,-0.008256811,0.73313
519.626,58.2194,-3.87049,-0.00642619,0.73265
520.226,58.278,-3.8705,-0.00846881,0.73216
520.826,58.3364,-3.8705,-0.007341416,0.73168
521.426,58.39485,-3.87016,-0.00547355,0.7312
522.026,58.45341,-3.86776,-0.005587955,0.73072
522.626,58.512,-3.86717,-0.006206305,0.73024
523.226,58.57062,-3.86853,-0.0049806,0.72975
523.826,58.62933,-3.86951,-0.005672174,0.72927
524.426,58.688,-3.87083,-0.00334901,0.72879
525.026,58.74666,-3.86951,-0.00546374,0.72831
525.626,58.80529,-3.86951,-0.00579605,0.72783
526.226,58.86387,-3.86951,-0.004574875,0.72736
526.826,58.9222,-3.8682,-0.003302044,0.72688
527.426,58.9808,-3.86819,-0.002261039,0.7264
528.026,59.03938,-3.86945,-0.00281624,0.72592
528.626,59.09828,-3.87083,-0.004215769,0.72544
529.226,59.1571,-3.86951,-0.002147032,0.72496
529.826,59.2159,-3.86962,-0.002082562,0.72449
530.426,59.27466,-3.86852,-0.002533553,0.72401
531.026,59.33339,-3.86855,-0.002981578,0.72353
531.626,59.3922,-3.86984,-0.00270967,0.72306
532.226,59.4511,-3.86984,-0.003986986,0.72258
532.826,59.5099,-3.87116,-0.002438277,0.72211
533.426,59.5686,-3.87116,-0.00398308,0.72163
534.026,59.6273,-3.87116,-0.00525808,0.72116
534.626,59.68615,-3.86985,-0.004704661,0.72068
535.226,59.7452,-3.86953,-0.003731532,0.72021
535.826,59.80398,-3.86818,-0.0053247,0.71973
536.426,59.8628,-3.86721,-0.007591499,0.71926
537.026,59.92161,-3.86853,-0.00152516,0.71879
537.626,59.98045,-3.86856,-0.004766,0.71831
538.226,60.03931,-3.86984,-0.006201745,0.71784
538.826,60.09808,-3.86984,-0.00352244,0.71737
539.426,60.1569,-3.86854,-0.005121883,0.7169
540.026,60.21584,-3.86853,-0.00825233,0.71643
540.626,60.27496,-3.86853,-0.007509583,0.71596
541.226,60.334,-3.86854,-0.004810822,0.71549
541.826,60.39294,-3.86721,-0.004613094,0.71502
542.426,60.4519,-3.86722,-0.0046159,0.71455
543.026,60.5107,-3.86853,-0.003936454,0.71408
543.626,60.5696,-3.86854,-0.00281514,0.71361
544.226,60.6285,-3.86918,-0.006216824,0.71314
544.826,60.68741,-3.86896,-0.00287708,0.71267
545.426,60.74637,-3.86852,-0.004623217,0.7122
546.026,60.805,-3.86852,-0.002000845,0.71174
546.626,60.86405,-3.86851,-0.001308219,0.71127
547.226,60.9229,-3.86715,-0.00242683,0.7108
547.826,60.9819,-3.86852,-0.002133558,0.71034
548.426,61.04084,-3.86819,-0.0002640893,0.70987
549.026,61.09978,-3.86819,-0.000883501,0.7094
549.626,61.15889,-3.86818,-0.0001881316,0.70894
550.226,61.21799,-3.86753,-0.00118025,0.70847
550.826,61.27718,-3.86753,-0.002422791,0.70801
551.426,61.33644,-3.86752,-0.002409338,0.70755
552.026,61.39538,-3.86885,-0.0001778154,0.70708
552.626,61.45457,-3.86885,0.000637659,0.70662
553.226,61.51375,-3.86885,-0.002157751,0.70616
553.826,61.573,-3.86867,0.002469441,0.70569
554.426,61.63216,-3.86819,-0.00176331,0.70523
555.026,61.6913,-3.86819,0.00151125,0.70477
555.626,61.75043,-3.86951,0.0007393991,0.70431
556.226,61.80973,-3.86855,-0.00170574,0.70385
556.826,61.869,-3.8672,-0.002211214,0.70339
557.426,61.9282,-3.86853,0.002473082,0.70293
558.026,61.9874,-3.86748,0.00186925,0.70247
558.626,62.04655,-3.86754,0.00151116,0.70201
559.226,62.1057,-3.86753,0.005096759,0.70155
559.826,62.16496,-3.86886,0.003838115,0.70109
560.426,62.2242,-3.86886,0.004363886,0.70063
561.026,62.28337,-3.86886,0.00399868,0.70017
561.626,62.34256,-3.86886,0.004750598,0.69972
562.226,62.4018,-3.86886,0.00577741,0.69926
562.826,62.46094,-3.86883,0.005437395,0.6988
563.426,62.5202,-3.86754,0.004476492,0.69835
564.026,62.5794,-3.86886,0.005661148,0.69789
564.626,62.6385,-3.86754,0.006116557,0.69744
565.226,62.6978,-3.86754,0.005422754,0.69698
565.826,62.7569,-3.86754,0.0059856,0.69653
566.426,62.81624,-3.86754,0.00600124,0.69607
567.026,62.87575,-3.86754,0.005760917,0.69562
567.626,62.93498,-3.86754,0.00877979,0.69517
568.226,62.99423,-3.86793,0.00503916,0.69471
568.826,63.0533,-3.86885,0.006682339,0.69426
569.426,63.11241,-3.86887,0.00555844,0.69381
570.026,63.17155,-3.86853,0.006226904,0.69336
570.626,63.23066,-3.86853,0.007795283,0.69291
571.226,63.28986,-3.86721,0.009519277,0.69246
571.826,63.34887,-3.86721,0.00889998,0.69201
572.426,63.4078,-3.86853,0.007599184,0.69156
573.026,63.46679,-3.86748,0.005655735,0.69111
573.626,63.5259,-3.86684,0.008467196,0.69066
574.226,63.58515,-3.86709,0.00814609,0.69021
574.826,63.6444,-3.86753,0.00670405,0.68976
575.426,63.7035,-3.86753,0.006134805,0.68931
576.026,63.76251,-3.86785,0.00291521,0.68887
576.626,63.8218,-3.86786,0.00432866,0.68842
577.226,63.8811,-3.86786,0.004610115,0.68797
577.826,63.94036,-3.86784,0.003337633,0.68753
578.426,63.99964,-3.86655,0.005396245,0.68708
579.026,64.0586,-3.86888,0.004460164,0.68664
579.626,64.11791,-3.86885,0.007660359,0.68619
580.226,64.17718,-3.86885,0.01017662,0.68575
580.826,64.23674,-3.8675,0.00864428,0.6853
581.426,64.29586,-3.86754,0.006753985,0.68486
582.026,64.35499,-3.8659,0.006571464,0.68442
582.626,64.41426,-3.86622,0.00873378,0.68397
583.226,64.47365,-3.86753,0.006813026,0.68353
583.826,64.5332,-3.86754,0.0076256,0.68309
584.426,64.5926,-3.86752,0.01239328,0.68265
585.026,64.65186,-3.86772,0.00794091,0.68221
585.626,64.7111,-3.86757,0.008018901,0.68177
586.226,64.7705,-3.86754,0.005572304,0.68133
586.826,64.82987,-3.86754,0.006017708,0.68089
587.426,64.88901,-3.86695,0.006927745,0.68045
588.026,64.94827,-3.86655,0.007160459,0.68001
588.626,65.00749,-3.86655,0.005168422,0.67957
589.226,65.06671,-3.86655,0.00487438,0.67913
589.826,65.12612,-3.86788,0.007037375,0.6787
590.426,65.18542,-3.86787,0.006702404,0.67826
591.026,65.24472,-3.86787,0.006451804,0.67782
591.626,65.30422,-3.86787,0.00941907,0.67739
592.226,65.36366,-3.86787,0.008490339,0.67695
592.826,65.42285,-3.86787,0.00742356,0.67652
593.426,65.48223,-3.86787,0.01084498,0.67608
594.026,65.5416,-3.86787,0.008425607,0.67565
594.626,65.60114,-3.86883,0.01166816,0.67521
595.226,65.6606,-3.86715,0.01299538,0.67478
595.826,65.72014,-3.86819,0.01186095,0.67435
596.426,65.7796,-3.86787,0.01369637,0.67392
597.026,65.8391,-3.86687,0.00725498,0.67348
597.626,65.8986,-3.86687,0.01311518,0.67305
598.226,65.95796,-3.86687,0.01371828,0.67262
598.826,66.0177,-3.86687,0.01465769,0.67219
599.426,66.07733,-3.86686,0.01518303,0.67176
600.026,66.13717,-3.86551,0.01626244,0.67133
600.626,66.19685,-3.86819,0.01343834,0.6709
601.226,66.25622,-3.86819,0.01915842,0.67047
601.826,66.31572,-3.8668,0.01576988,0.67004
602.426,66.37515,-3.86688,0.0143007,0.66962
603.026,66.43466,-3.86538,0.01764154,0.66919
603.626,66.4941,-3.86824,0.01568957,0.66876
604.226,66.5536,-3.86819,0.01574737,0.66834
604.826,66.61315,-3.86793,0.0144594,0.66791
605.426,66.67273,-3.86805,0.01773981,0.66748
606.026,66.73252,-3.86575,0.01670062,0.66706
606.626,66.79223,-3.86644,0.01660525,0.66663
607.226,66.85209,-3.86721,0.01624285,0.66621
607.826,66.91175,-3.86721,0.01546162,0.66579
608.426,66.9714,-3.86711,0.01375663,0.66536
609.026,67.03106,-3.86589,0.01842518,0.66494
609.626,67.0907,-3.8672,0.01716071,0.66452
610.226,67.15058,-3.86721,0.01543692,0.6641
610.826,67.21044,-3.8672,0.01182546,0.66368
611.426,67.27015,-3.86688,0.01936809,0.66326
612.026,67.32986,-3.86688,0.01554688,0.66283
612.626,67.3896,-3.86689,0.01578342,0.66242
613.226,67.44919,-3.86685,0.01719793,0.662
613.826,67.509,-3.86688,0.01853709,0.66158
614.426,67.5688,-3.86688,0.01374205,0.66116
615.026,67.62885,-3.86555,0.01817259,0.66074
615.626,67.68871,-3.86551,0.01644514,0.66032
616.226,67.74856,-3.86688,0.01517824,0.65991
616.826,67.8084,-3.86688,0.01764535,0.65949
617.426,67.868,-3.86761,0.0168011,0.65907
618.026,67.92775,-3.86605,0.01611129,0.65866
618.626,67.9872,-3.86619,0.01321288,0.65824
619.226,68.04698,-3.86516,0.01440074,0.65783
619.826,68.10683,-3.86515,0.01638549,0.65741
620.426,68.16679,-3.86634,0.0170161,0.657
621.026,68.22684,-3.86634,0.01190586,0.65659
621.626,68.28665,-3.86641,0.01370017,0.65617
622.226,68.3465,-3.86568,0.01165042,0.65576
622.826,68.40607,-3.86575,0.01161854,0.65535
623.426,68.46575,-3.86502,0.01504644,0.65494
624.026,68.5253,-3.86566,0.01239916,0.65453
624.626,68.58514,-3.86567,0.0140657,0.65412
625.226,68.64499,-3.86709,0.00967267,0.65371
625.826,68.7047,-3.86545,0.01227692,0.6533
626.426,68.7646,-3.86539,0.01144124,0.65289
627.026,68.82435,-3.86684,0.01412296,0.65248
627.626,68.8841,-3.86677,0.008810377,0.65207
628.226,68.94408,-3.8658,0.009740805,0.65167
628.826,69.00401,-3.86445,0.009873171,0.65126
629.426,69.0638,-3.86579,0.01432061,0.65085
630.026,69.12355,-3.86578,0.0128325,0.65045
630.626,69.18349,-3.86578,0.00998282,0.65004
631.226,69.24356,-3.86567,0.01286449,0.64964
631.826,69.30357,-3.86545,0.01449548,0.64923
632.426,69.3638,-3.86545,0.01378301,0.64883
633.026,69.4237,-3.86545,0.01293427,0.64842
633.626,69.48375,-3.8659,0.01557311,0.64802
634.226,69.54387,-3.86611,0.01484935,0.64762
634.826,69.6039,-3.86611,0.01912844,0.64722
635.426,69.66404,-3.8661,0.01649267,0.64681
636.026,69.72415,-3.86578,0.01355479,0.64641
636.626,69.78421,-3.86579,0.01451228,0.64601
637.226,69.84435,-3.86579,0.01941619,0.64561
637.826,69.90438,-3.86579,0.01691874,0.64521
638.426,69.96441,-3.86715,0.02187018,0.64481
638.726,69.99416,-3.8671,0.02191744,0.64461