File: 01_Data/PP/STA/N2/10K_min/PP_STA_N2_10KData_210825_R3.csv
##Temp./Â°C,Time/min,Mass loss(subtr.2)/mg,DSC(subtr.2)/(mW/mg),Sensit./(uV/mW)
49.655,10.00917,-0.02961,0.0007185706,1.03585
50.255,11.44235,-0.03440557,0.02943187,1.03582
50.855,11.8122,-0.03286389,0.04851522,1.03579
51.455,12.07542,-0.03429429,0.06611966,1.03576
52.055,12.29427,-0.03408764,0.07983028,1.03573
52.655,12.48508,-0.03468178,0.09269976,1.03569
53.255,12.65725,-0.0347332,0.10417,1.03566
53.855,12.81585,-0.0344255,0.11473,1.03562
54.455,12.96469,-0.03770249,0.12154,1.03558
55.055,13.10617,-0.03500188,0.13112,1.03554
55.655,13.24001,-0.03541649,0.13785,1.0355
56.255,13.3698,-0.03662215,0.14501,1.03545
56.855,13.49424,-0.03491841,0.15125,1.03541
57.455,13.6139,-0.03641541,0.15663,1.03536
58.055,13.73124,-0.03535526,0.16249,1.03531
58.655,13.8455,-0.03525901,0.16686,1.03526
59.255,13.95565,-0.03654153,0.17295,1.03521
59.855,14.0648,-0.03716276,0.17892,1.03516
60.455,14.1722,-0.03667543,0.18227,1.0351
61.055,14.276,-0.03650723,0.18612,1.03504
61.655,14.3778,-0.03743499,0.1912,1.03499
62.255,14.4779,-0.03763027,0.19738,1.03493
62.855,14.5766,-0.03748196,0.20078,1.03487
63.455,14.6735,-0.03731281,0.20131,1.0348
64.055,14.7686,-0.03762215,0.20662,1.03474
64.655,14.86201,-0.03643001,0.21027,1.03467
65.255,14.9537,-0.03822313,0.21446,1.03461
65.855,15.04439,-0.03743371,0.21634,1.03454
66.455,15.1339,-0.03854026,0.22065,1.03447
67.055,15.2221,-0.03731819,0.22226,1.0344
67.655,15.3093,-0.03881292,0.2256,1.03432
68.255,15.39485,-0.03765637,0.23131,1.03425
68.855,15.47954,-0.03835898,0.23307,1.03417
69.455,15.5637,-0.03847825,0.23712,1.0341
70.055,15.64674,-0.03819115,0.24006,1.03402
70.655,15.7294,-0.03994401,0.24372,1.03394
71.255,15.81122,-0.03942006,0.24556,1.03385
71.855,15.8922,-0.03979915,0.24686,1.03377
72.455,15.97192,-0.04047395,0.25029,1.03368
73.055,16.05061,-0.04044893,0.2566,1.0336
73.655,16.12894,-0.04101363,0.2573,1.03351
74.255,16.2068,-0.04032259,0.25966,1.03342
74.855,16.28443,-0.04147139,0.26287,1.03333
75.455,16.36082,-0.04058134,0.26606,1.03324
76.055,16.43711,-0.04174518,0.26911,1.03314
76.655,16.5122,-0.0419689,0.27376,1.03305
77.255,16.58736,-0.04062372,0.27585,1.03295
77.855,16.66173,-0.0405531,0.27503,1.03285
78.455,16.73625,-0.03962259,0.27721,1.03275
79.055,16.8093,-0.0405791,0.28022,1.03265
79.655,16.88154,-0.04188439,0.28303,1.03255
80.255,16.9536,-0.04069053,0.28523,1.03244
80.855,17.02546,-0.04175485,0.28856,1.03233
81.455,17.09702,-0.04040453,0.28988,1.03223
82.055,17.16831,-0.04058944,0.2912,1.03212
82.655,17.23882,-0.04056924,0.29496,1.03201
83.255,17.30933,-0.0405803,0.30012,1.0319
83.855,17.37892,-0.03926098,0.29974,1.03178
84.455,17.44841,-0.04078683,0.30123,1.03167
85.055,17.51724,-0.04061324,0.30292,1.03155
85.655,17.5858,-0.04082656,0.30718,1.03143
86.255,17.654,-0.04379883,0.30768,1.03132
86.855,17.72206,-0.04235509,0.31285,1.03119
87.455,17.78967,-0.0423401,0.31345,1.03107
88.055,17.85666,-0.04099148,0.31485,1.03095
88.655,17.92334,-0.04360285,0.31717,1.03082
89.255,17.98986,-0.04129443,0.31847,1.0307
89.855,18.05615,-0.04246245,0.3223,1.03057
90.455,18.122,-0.04277557,0.32187,1.03044
91.055,18.18761,-0.04373716,0.32422,1.03031
91.655,18.25285,-0.042172,0.32658,1.03018
92.255,18.31802,-0.04242093,0.3288,1.03004
92.855,18.3825,-0.04259543,0.33159,1.02991
93.455,18.44659,-0.04223438,0.33459,1.02977
94.055,18.51081,-0.04466348,0.33524,1.02964
94.655,18.57484,-0.04373792,0.33587,1.0295
95.255,18.63935,-0.0449706,0.3395,1.02936
95.855,18.70288,-0.04497551,0.34104,1.02921
96.455,18.7663,-0.04494523,0.34336,1.02907
97.055,18.82923,-0.04365281,0.34381,1.02893
97.655,18.89215,-0.04497199,0.344,1.02878
98.255,18.9549,-0.04368933,0.34901,1.02863
98.855,19.01768,-0.04365552,0.34895,1.02848
99.455,19.0804,-0.04370602,0.35231,1.02833
100.055,19.14249,-0.04365003,0.35208,1.02818
100.655,19.20461,-0.04462464,0.35457,1.02803
101.255,19.26661,-0.04509038,0.35805,1.02787
101.855,19.3284,-0.04376335,0.36073,1.02772
102.455,19.39035,-0.04375994,0.36141,1.02756
103.055,19.45166,-0.04462257,0.3626,1.0274
103.655,19.51304,-0.04635846,0.3646,1.02724
104.255,19.57414,-0.04593437,0.36615,1.02708
104.855,19.6352,-0.04508135,0.36527,1.02692
105.455,19.69618,-0.04508016,0.37017,1.02675
106.055,19.7572,-0.04651613,0.37243,1.02659
106.655,19.81816,-0.04418218,0.371,1.02642
107.255,19.87886,-0.04508066,0.37575,1.02625
107.855,19.93949,-0.0450625,0.37597,1.02608
108.455,19.99996,-0.04507991,0.37913,1.02591
109.055,20.06031,-0.04615144,0.38254,1.02574
109.655,20.12057,-0.04517869,0.38268,1.02556
110.255,20.1807,-0.04640546,0.38683,1.02539
110.855,20.24106,-0.04507939,0.38775,1.02521
111.455,20.301,-0.04639861,0.38821,1.02503
112.055,20.36095,-0.04772292,0.39182,1.02485
112.655,20.42022,-0.04633498,0.39372,1.02467
113.255,20.47993,-0.04640013,0.39478,1.02449
113.855,20.5395,-0.04740376,0.39818,1.02431
114.455,20.5991,-0.04639092,0.39919,1.02412
115.055,20.65864,-0.04709354,0.40021,1.02394
115.655,20.71784,-0.04641586,0.40188,1.02375
116.255,20.777,-0.04771943,0.40513,1.02356
116.855,20.83611,-0.04676981,0.40653,1.02337
117.455,20.89516,-0.04898847,0.40933,1.02318
118.055,20.9542,-0.04856652,0.41051,1.02299
118.655,21.01321,-0.04769629,0.4142,1.02279
119.255,21.07214,-0.04969414,0.4147,1.0226
119.855,21.13095,-0.04832378,0.41879,1.0224
120.455,21.18944,-0.04768581,0.42031,1.0222
121.055,21.24772,-0.04738422,0.42288,1.022
121.655,21.30603,-0.04735596,0.42672,1.0218
122.255,21.3644,-0.04878648,0.42887,1.0216
122.855,21.42279,-0.04870004,0.43166,1.0214
123.455,21.48102,-0.04870019,0.43411,1.02119
124.055,21.53913,-0.04738978,0.43669,1.02099
124.655,21.59702,-0.04739539,0.44178,1.02078
125.255,21.65494,-0.04792977,0.44577,1.02057
125.855,21.71264,-0.04886343,0.44762,1.02036
126.455,21.77029,-0.04871407,0.44831,1.02015
127.055,21.8279,-0.04873053,0.45122,1.01994
127.655,21.88532,-0.04738717,0.45578,1.01973
128.255,21.94255,-0.04868619,0.4591,1.01951
128.855,21.99975,-0.04870248,0.4637,1.0193
129.455,22.05658,-0.0502167,0.46688,1.01908
130.055,22.11368,-0.04858057,0.47032,1.01886
130.655,22.17096,-0.04757079,0.47606,1.01864
131.255,22.22778,-0.04880975,0.47851,1.01842
131.855,22.28471,-0.04881004,0.48298,1.0182
132.455,22.34145,-0.04885459,0.48624,1.01797
133.055,22.398,-0.04880388,0.49171,1.01775
133.655,22.4547,-0.04881182,0.4969,1.01752
134.255,22.5112,-0.05013504,0.50302,1.01729
134.855,22.5679,-0.04971968,0.50711,1.01707
135.455,22.6239,-0.05153177,0.51075,1.01684
136.055,22.6801,-0.05143683,0.52113,1.0166
136.655,22.73629,-0.0500749,0.52353,1.01637
137.255,22.7922,-0.04939695,0.53102,1.01614
137.855,22.84839,-0.04979605,0.53828,1.0159
138.455,22.90409,-0.04947438,0.54392,1.01567
139.055,22.9602,-0.05012189,0.55109,1.01543
139.655,23.01623,-0.05013005,0.55924,1.01519
140.255,23.07242,-0.05019211,0.56703,1.01495
140.855,23.12827,-0.05077928,0.57646,1.01471
141.455,23.1839,-0.05013832,0.58403,1.01447
142.055,23.23953,-0.05012,0.59214,1.01422
142.655,23.29512,-0.05011976,0.60249,1.01398
143.255,23.35081,-0.05062174,0.61432,1.01373
143.855,23.40639,-0.05016866,0.62266,1.01349
144.455,23.46206,-0.05128599,0.63542,1.01324
145.055,23.51748,-0.05034088,0.64852,1.01299
145.655,23.5729,-0.04869015,0.66246,1.01274
146.255,23.62816,-0.05013006,0.67793,1.01248
146.855,23.68337,-0.05069058,0.69148,1.01223
147.455,23.73865,-0.05206779,0.70717,1.01198
148.055,23.7939,-0.05179746,0.72714,1.01172
148.655,23.8491,-0.05079367,0.74288,1.01146
149.255,23.90423,-0.05012971,0.76117,1.01121
149.855,23.95938,-0.05047809,0.78039,1.01095
150.455,24.01445,-0.05144044,0.80273,1.01069
151.055,24.0698,-0.05144033,0.82634,1.01042
151.655,24.12486,-0.05147776,0.85277,1.01016
152.255,24.17991,-0.05144003,0.87775,1.0099
152.855,24.2351,-0.05239546,0.90468,1.00963
153.455,24.29025,-0.05274955,0.93419,1.00937
154.055,24.3456,-0.05145853,0.95937,1.0091
154.655,24.4008,-0.05144003,0.98994,1.00883
155.255,24.45579,-0.05138834,1.02217,1.00856
155.855,24.51081,-0.05235657,1.0504,1.00829
156.455,24.56589,-0.05118143,1.08288,1.00802
157.055,24.62084,-0.05252977,1.11327,1.00774
157.655,24.67582,-0.05152109,1.14264,1.00747
158.255,24.73092,-0.05254284,1.17281,1.00719
158.855,24.78588,-0.05251461,1.19624,1.00692
159.455,24.8409,-0.05121964,1.21791,1.00664
160.055,24.89591,-0.05122,1.23236,1.00636
160.655,24.9508,-0.05122007,1.23904,1.00608
161.255,25.00566,-0.05096185,1.23431,1.0058
161.855,25.0606,-0.05122015,1.21677,1.00552
162.455,25.11532,-0.05122,1.18805,1.00523
163.055,25.17003,-0.05122,1.14127,1.00495
163.655,25.22467,-0.05121808,1.08238,1.00466
164.255,25.27921,-0.04990982,1.01727,1.00437
164.855,25.33338,-0.05132638,0.94602,1.00409
165.455,25.38745,-0.05122995,0.87809,1.0038
166.055,25.44172,-0.05122137,0.81604,1.00351
166.655,25.49584,-0.05165278,0.75691,1.00321
167.255,25.5502,-0.05121995,0.70308,1.00292
167.855,25.6044,-0.05210805,0.66239,1.00263
168.455,25.65853,-0.05253943,0.62472,1.00233
169.055,25.7124,-0.0531994,0.59294,1.00204
169.655,25.76654,-0.0524194,0.57256,1.00174
170.255,25.8204,-0.05221008,0.5561,1.00144
170.855,25.87441,-0.05220983,0.5413,1.00114
171.455,25.92845,-0.05251386,0.52656,1.00084
172.055,25.98239,-0.05267785,0.52246,1.00054
172.655,26.03647,-0.05385284,0.51456,1.00024
173.255,26.0904,-0.05254819,0.51006,0.99994
173.855,26.1444,-0.05281758,0.50589,0.99963
174.455,26.1985,-0.05452284,0.50569,0.99932
175.055,26.25266,-0.05452263,0.50136,0.99902
175.655,26.30671,-0.05317374,0.50264,0.99871
176.255,26.3608,-0.05184308,0.50111,0.9984
176.855,26.4147,-0.05188006,0.50182,0.99809
177.455,26.4688,-0.05188042,0.50242,0.99778
178.055,26.5229,-0.05319689,0.50323,0.99747
178.655,26.57695,-0.05319,0.50425,0.99715
179.255,26.631,-0.05319005,0.50156,0.99684
179.855,26.6849,-0.05412719,0.50202,0.99653
180.455,26.7389,-0.05320127,0.50436,0.99621
181.055,26.7927,-0.05320755,0.50302,0.99589
181.655,26.84647,-0.05448172,0.50332,0.99557
182.255,26.9001,-0.05451999,0.50647,0.99525
182.855,26.95383,-0.05451992,0.50769,0.99493
183.455,27.0076,-0.05456573,0.50619,0.99461
184.055,27.0614,-0.05451406,0.50596,0.99429
184.655,27.115,-0.05451,0.50901,0.99396
185.255,27.16858,-0.05451,0.51147,0.99364
185.855,27.2221,-0.05450592,0.51052,0.99331
186.455,27.2757,-0.05583461,0.51184,0.99299
187.055,27.3293,-0.05582996,0.51175,0.99266
187.655,27.38295,-0.05577372,0.51075,0.99233
188.255,27.4367,-0.05582002,0.51398,0.992
188.855,27.49033,-0.05581497,0.5138,0.99167
189.455,27.54396,-0.05451179,0.51237,0.99134
190.055,27.59774,-0.05451555,0.51416,0.99101
190.655,27.65131,-0.05487502,0.51588,0.99067
191.255,27.7049,-0.05357865,0.51496,0.99034
191.855,27.7585,-0.05352982,0.51508,0.99
192.455,27.8119,-0.05468837,0.51532,0.98966
193.055,27.8654,-0.05483993,0.51791,0.98933
193.655,27.91889,-0.05483994,0.51953,0.98899
194.255,27.9725,-0.05484,0.52007,0.98865
194.855,28.0261,-0.05484,0.51911,0.98831
195.455,28.07971,-0.05484,0.52122,0.98797
196.055,28.13343,-0.05483994,0.52304,0.98762
196.655,28.1871,-0.05493949,0.5213,0.98728
197.255,28.2408,-0.05495999,0.52105,0.98693
197.855,28.2943,-0.05496174,0.52174,0.98659
198.455,28.3478,-0.05626189,0.52222,0.98624
199.055,28.40118,-0.05626978,0.52469,0.98589
199.655,28.4546,-0.05576092,0.52394,0.98555
200.255,28.5081,-0.05528011,0.52554,0.9852
200.855,28.56151,-0.05529587,0.52729,0.98485
201.455,28.615,-0.05623902,0.52693,0.98449
202.055,28.6686,-0.05627,0.52647,0.98414
202.655,28.7221,-0.05624805,0.52726,0.98379
203.255,28.77569,-0.05601627,0.52779,0.98343
203.855,28.82915,-0.05594,0.52943,0.98308
204.455,28.8826,-0.05593988,0.52997,0.98272
205.055,28.936,-0.05616877,0.53223,0.98237
205.655,28.98963,-0.05626008,0.53117,0.98201
206.255,29.0431,-0.05711557,0.53216,0.98165
206.855,29.09652,-0.05725049,0.53038,0.98129
207.455,29.1501,-0.0561921,0.53327,0.98093
208.055,29.2036,-0.05626929,0.53685,0.98057
208.655,29.25715,-0.05627,0.53745,0.9802
209.255,29.3106,-0.05626996,0.53454,0.97984
209.855,29.36406,-0.05635812,0.53806,0.97948
210.455,29.4174,-0.05494987,0.53843,0.97911
211.055,29.47086,-0.0550162,0.53545,0.97874
211.655,29.5245,-0.05634442,0.53523,0.97838
212.255,29.57817,-0.05758965,0.53573,0.97801
212.855,29.63174,-0.05756163,0.53905,0.97764
213.455,29.6853,-0.05724554,0.53826,0.97727
214.055,29.73882,-0.05725,0.5393,0.9769
214.655,29.7921,-0.05724989,0.54162,0.97653
215.255,29.8457,-0.0574753,0.54173,0.97615
215.855,29.8991,-0.05889975,0.54234,0.97578
216.455,29.95265,-0.05795956,0.54341,0.97541
217.055,30.0061,-0.05758983,0.54357,0.97503
217.655,30.0594,-0.05758999,0.54525,0.97466
218.255,30.1129,-0.05775165,0.54384,0.97428
218.855,30.1664,-0.05759037,0.54628,0.9739
219.455,30.2202,-0.05759,0.54801,0.97352
220.055,30.274,-0.05759001,0.54597,0.97314
220.655,30.3277,-0.05758612,0.54791,0.97276
221.255,30.38133,-0.05889843,0.54645,0.97238
221.855,30.43487,-0.05890007,0.54923,0.972
222.455,30.4883,-0.05887727,0.55006,0.97162
223.055,30.54177,-0.06021909,0.54907,0.97123
223.655,30.5954,-0.06022,0.55147,0.97085
224.255,30.64899,-0.06021999,0.54994,0.97046
224.855,30.70259,-0.05994901,0.55145,0.97007
225.455,30.7562,-0.05823896,0.55201,0.96969
226.055,30.8098,-0.05823909,0.55218,0.9693
226.655,30.8635,-0.05964069,0.55187,0.96891
227.255,30.91716,-0.05989183,0.55509,0.96852
227.855,30.9709,-0.05989,0.55514,0.96813
228.455,31.02461,-0.05988986,0.5553,0.96774
229.055,31.0782,-0.05864333,0.55469,0.96735
229.655,31.1319,-0.05916989,0.55472,0.96695
230.255,31.1854,-0.05989037,0.55622,0.96656
230.855,31.23906,-0.05989007,0.55545,0.96616
231.455,31.2927,-0.05913916,0.55597,0.96577
232.055,31.34627,-0.05890048,0.55547,0.96537
232.655,31.4001,-0.05890019,0.55605,0.96498
233.255,31.45376,-0.05977774,0.55668,0.96458
233.855,31.5074,-0.06123316,0.55604,0.96418
234.455,31.56135,-0.05991236,0.55679,0.96378
235.055,31.6151,-0.05988997,0.55767,0.96338
235.655,31.66866,-0.05989,0.55693,0.96298
236.255,31.72229,-0.05989,0.5608,0.96258
236.855,31.7755,-0.05988986,0.55907,0.96217
237.455,31.82922,-0.05856687,0.55762,0.96177
238.055,31.88291,-0.05858236,0.56088,0.96137
238.655,31.9368,-0.05955794,0.56176,0.96096
239.255,31.9908,-0.05956056,0.56329,0.96056
239.855,32.04461,-0.0608639,0.56069,0.96015
240.455,32.0985,-0.05956241,0.55929,0.95974
241.055,32.15221,-0.05987935,0.56323,0.95933
241.655,32.20579,-0.05987975,0.56336,0.95892
242.255,32.2595,-0.06057027,0.56238,0.95852
242.855,32.31328,-0.06131033,0.564,0.9581
243.455,32.3671,-0.06130999,0.56682,0.95769
244.055,32.421,-0.06130071,0.56313,0.95728
244.655,32.4748,-0.06000163,0.56577,0.95687
245.255,32.52823,-0.05999999,0.56622,0.95646
245.855,32.58194,-0.05996723,0.56879,0.95604
246.455,32.6357,-0.06228448,0.56719,0.95563
247.055,32.68947,-0.06361117,0.56785,0.95521
247.655,32.7435,-0.06365328,0.56832,0.95479
248.255,32.79732,-0.06229867,0.56823,0.95438
248.855,32.85118,-0.06229995,0.57092,0.95396
249.455,32.90502,-0.06239651,0.56862,0.95354
250.055,32.95877,-0.06097998,0.56949,0.95312
250.655,33.01238,-0.06112731,0.57068,0.9527
251.255,33.06612,-0.06223045,0.57063,0.95228
251.855,33.1198,-0.06296012,0.57317,0.95186
252.455,33.17362,-0.06294146,0.57084,0.95144
253.055,33.2275,-0.06262533,0.57262,0.95102
253.655,33.28133,-0.06262999,0.57397,0.95059
254.255,33.33508,-0.06263,0.57231,0.95017
254.855,33.3887,-0.06263,0.57306,0.94974
255.455,33.4425,-0.06263,0.57584,0.94932
256.055,33.49627,-0.06262983,0.57593,0.94889
256.655,33.55017,-0.06298404,0.57638,0.94846
257.255,33.60416,-0.06263029,0.57556,0.94804
257.855,33.65797,-0.06321314,0.5775,0.94761
258.455,33.71181,-0.06231264,0.57634,0.94718
259.055,33.76538,-0.06229628,0.57944,0.94675
259.655,33.8192,-0.06360976,0.57989,0.94632
260.255,33.87314,-0.06229317,0.57996,0.94589
260.855,33.92685,-0.06230001,0.57849,0.94546
261.455,33.98104,-0.06230938,0.57954,0.94502
262.055,34.0349,-0.06361845,0.58061,0.94459
262.655,34.08886,-0.06362009,0.57863,0.94416
263.255,34.143,-0.06167864,0.57901,0.94372
263.855,34.19688,-0.06097976,0.58037,0.94329
264.455,34.25079,-0.06097815,0.57822,0.94285
265.055,34.3047,-0.06237579,0.57986,0.94242
265.655,34.35857,-0.06164152,0.58165,0.94198
266.255,34.41251,-0.06263438,0.58082,0.94154
266.855,34.4664,-0.06262999,0.58146,0.9411
267.455,34.52029,-0.06263,0.58208,0.94066
268.055,34.57396,-0.06263158,0.58203,0.94023
268.655,34.62809,-0.06400391,0.58394,0.93978
269.255,34.68215,-0.06163898,0.58291,0.93934
269.855,34.73646,-0.06298804,0.5832,0.9389
270.455,34.79078,-0.06375241,0.58617,0.93846
271.055,34.84469,-0.06318373,0.58684,0.93802
271.655,34.89853,-0.06295988,0.58631,0.93757
272.255,34.95245,-0.06387745,0.58281,0.93713
272.855,35.00646,-0.06427014,0.58673,0.93669
273.455,35.06054,-0.06427,0.58369,0.93624
274.055,35.1148,-0.06427,0.58733,0.9358
274.655,35.16887,-0.06427,0.58823,0.93535
275.255,35.22291,-0.06426949,0.58815,0.9349
275.855,35.27698,-0.06392622,0.5881,0.93445
276.455,35.3309,-0.06526514,0.58992,0.93401
277.055,35.38453,-0.06525992,0.59179,0.93356
277.655,35.43867,-0.06527514,0.58815,0.93311
278.255,35.49293,-0.06296518,0.59111,0.93266
278.855,35.54717,-0.06295953,0.59395,0.93221
279.455,35.60179,-0.06399217,0.5907,0.93176
280.055,35.65592,-0.06329023,0.5921,0.93131
280.655,35.71,-0.06329007,0.59124,0.93085
281.255,35.76409,-0.06187808,0.59203,0.9304
281.855,35.81823,-0.06327199,0.59365,0.92995
282.455,35.87254,-0.06527077,0.59385,0.92949
283.055,35.92678,-0.06462275,0.59434,0.92904
283.655,35.9811,-0.06425159,0.59351,0.92858
284.255,36.03532,-0.06428004,0.59515,0.92813
284.855,36.08954,-0.06428,0.59627,0.92767
285.455,36.14383,-0.06433721,0.59761,0.92722
286.055,36.19813,-0.06558966,0.59647,0.92676
286.655,36.25247,-0.06559459,0.59615,0.9263
287.255,36.30662,-0.06625286,0.59612,0.92584
287.855,36.36098,-0.06494139,0.59656,0.92538
288.455,36.4153,-0.06493946,0.59722,0.92492
289.055,36.46979,-0.06624135,0.59599,0.92446
289.655,36.52427,-0.06499156,0.59623,0.924
290.255,36.57846,-0.06626183,0.5998,0.92354
290.855,36.63292,-0.06625003,0.5988,0.92308
291.455,36.68724,-0.06625001,0.60258,0.92262
292.055,36.74179,-0.06626833,0.60118,0.92216
292.655,36.7962,-0.06592041,0.59951,0.92169
293.255,36.85072,-0.06592004,0.60131,0.92123
293.855,36.9052,-0.06582285,0.60309,0.92076
294.455,36.95963,-0.06724409,0.59905,0.9203
295.055,37.01421,-0.06591652,0.6013,0.91983
295.655,37.06857,-0.06592001,0.60192,0.91937
296.255,37.12312,-0.06596097,0.6012,0.9189
296.855,37.1776,-0.06723945,0.60476,0.91844
297.455,37.2322,-0.06724,0.60352,0.91797
298.055,37.28675,-0.06724335,0.60368,0.9175
298.655,37.34126,-0.06593153,0.60221,0.91703
299.255,37.39588,-0.06591306,0.60356,0.91656
299.855,37.4505,-0.06723888,0.60274,0.9161
300.455,37.50516,-0.06724005,0.60266,0.91563
301.055,37.55992,-0.06725778,0.60478,0.91516
301.655,37.6147,-0.06756341,0.60438,0.91468
302.255,37.6693,-0.06887944,0.60391,0.91421
302.855,37.72382,-0.06756192,0.60616,0.91374
303.455,37.77835,-0.06756,0.60509,0.91327
304.055,37.83297,-0.0675545,0.60535,0.9128
304.655,37.8873,-0.06888243,0.60845,0.91232
305.255,37.9419,-0.06888,0.60771,0.91185
305.855,37.99665,-0.06887999,0.60769,0.91138
306.455,38.05131,-0.06886383,0.6098,0.9109
307.055,38.10624,-0.06755391,0.60907,0.91043
307.655,38.161,-0.06752203,0.60633,0.90995
308.255,38.21539,-0.06854947,0.60867,0.90948
308.855,38.27004,-0.06989283,0.60876,0.909
309.455,38.32472,-0.06987044,0.60871,0.90852
310.055,38.37952,-0.06885156,0.61022,0.90805
310.655,38.4345,-0.06854997,0.60989,0.90757
311.255,38.4893,-0.06855,0.61071,0.90709
311.855,38.54415,-0.06855884,0.60999,0.90661
312.455,38.59898,-0.06888008,0.6091,0.90614
313.055,38.65343,-0.06888512,0.60959,0.90566
313.655,38.7078,-0.0711701,0.61208,0.90518
314.255,38.76263,-0.06904685,0.61204,0.9047
314.855,38.81759,-0.06856779,0.61074,0.90422
315.455,38.87293,-0.06788672,0.61055,0.90374
316.055,38.92812,-0.07052564,0.61058,0.90325
316.655,38.98292,-0.07020874,0.61269,0.90277
317.255,39.0375,-0.06923115,0.60944,0.90229
317.855,39.09219,-0.06921003,0.61124,0.90181
318.455,39.147,-0.06920417,0.61501,0.90133
319.055,39.20195,-0.07052817,0.61329,0.90084
319.655,39.25691,-0.07054103,0.61357,0.90036
320.255,39.31183,-0.07195426,0.61408,0.89987
320.855,39.3668,-0.07195044,0.61409,0.89939
321.455,39.4218,-0.07078512,0.61532,0.89891
322.055,39.47655,-0.07063003,0.61573,0.89842
322.655,39.53147,-0.07069528,0.61554,0.89793
323.255,39.5862,-0.07202721,0.61539,0.89745
323.855,39.641,-0.07327684,0.61278,0.89696
324.455,39.69594,-0.07059198,0.61632,0.89648
325.055,39.75088,-0.07063004,0.61493,0.89599
325.655,39.80576,-0.07051156,0.61595,0.8955
326.255,39.86076,-0.07312915,0.61847,0.89501
326.855,39.91591,-0.07006829,0.61633,0.89453
327.455,39.9709,-0.0709407,0.61756,0.89404
328.055,40.026,-0.07096002,0.61821,0.89355
328.655,40.0809,-0.07095991,0.61936,0.89306
329.255,40.13596,-0.07135747,0.61961,0.89257
329.855,40.19097,-0.0722802,0.62104,0.89208
330.455,40.24608,-0.07227322,0.62021,0.89159
331.055,40.3012,-0.07360423,0.62182,0.8911
331.655,40.35615,-0.07422041,0.62233,0.89061
332.255,40.41124,-0.07236637,0.62554,0.89012
332.855,40.46633,-0.07359943,0.62299,0.88962
333.455,40.52143,-0.07359999,0.62342,0.88913
334.055,40.57652,-0.0736238,0.62637,0.88864
334.655,40.6315,-0.07491613,0.62739,0.88815
335.255,40.68645,-0.07294661,0.62706,0.88766
335.855,40.74154,-0.07294329,0.62891,0.88716
336.455,40.79678,-0.07161681,0.62662,0.88667
337.055,40.8521,-0.07316488,0.62995,0.88617
337.655,40.90733,-0.07405988,0.63042,0.88568
338.255,40.96252,-0.0729395,0.63044,0.88519
338.855,41.01775,-0.07293968,0.63037,0.88469
339.455,41.07289,-0.07415218,0.63123,0.8842
340.055,41.12812,-0.07483304,0.62984,0.8837
340.655,41.18318,-0.0767931,0.63195,0.8832
341.255,41.23843,-0.07689001,0.63266,0.88271
341.855,41.29352,-0.07694776,0.63378,0.88221
342.455,41.34864,-0.07458925,0.63084,0.88172
343.055,41.40383,-0.07459171,0.63147,0.88122
343.655,41.45904,-0.07589948,0.63235,0.88072
344.255,41.5143,-0.07585018,0.63313,0.88022
344.855,41.56975,-0.0772097,0.63584,0.87973
345.455,41.62513,-0.07721,0.63628,0.87923
346.055,41.68065,-0.07721,0.63697,0.87873
346.655,41.73588,-0.07721,0.63614,0.87823
347.255,41.7912,-0.07721002,0.6367,0.87773
347.855,41.84646,-0.07718537,0.63512,0.87723
348.455,41.9017,-0.07589568,0.63789,0.87673
349.055,41.9574,-0.07803233,0.63783,0.87623
349.655,42.0127,-0.07853004,0.63798,0.87573
350.255,42.06827,-0.07853084,0.63554,0.87523
350.855,42.12366,-0.07985691,0.64085,0.87473
351.455,42.179,-0.07984718,0.64071,0.87423
352.055,42.23448,-0.07846074,0.63958,0.87373
352.655,42.2901,-0.07919017,0.64401,0.87323
353.255,42.34577,-0.07920386,0.64431,0.87273
353.855,42.40147,-0.08051325,0.64188,0.87223
354.455,42.45722,-0.08051,0.64083,0.87173
355.055,42.51279,-0.0805101,0.64232,0.87122
355.655,42.5685,-0.08177825,0.64679,0.87072
356.255,42.6242,-0.08290971,0.64579,0.87022
356.855,42.6799,-0.08281006,0.64756,0.86972
357.455,42.73561,-0.08237071,0.64801,0.86921
358.055,42.79118,-0.08279486,0.64892,0.86871
358.655,42.84685,-0.08281001,0.6491,0.86821
359.255,42.90238,-0.0828056,0.65371,0.8677
359.855,42.958,-0.08413149,0.65187,0.8672
360.455,43.0137,-0.08412976,0.65204,0.8667
361.055,43.0695,-0.08481792,0.65582,0.86619
361.655,43.1254,-0.0854402,0.65087,0.86569
362.255,43.18142,-0.08544,0.6539,0.86518
362.855,43.23708,-0.0854396,0.65836,0.86468
363.455,43.2928,-0.08674415,0.65824,0.86417
364.055,43.3486,-0.08679394,0.66108,0.86367
364.655,43.40443,-0.08676105,0.65809,0.86316
365.255,43.46032,-0.08854447,0.66181,0.86265
365.855,43.51612,-0.08934927,0.6646,0.86215
366.455,43.5717,-0.08930092,0.66568,0.86164
367.055,43.6274,-0.08939006,0.66892,0.86114
367.655,43.68323,-0.08945888,0.6678,0.86063
368.255,43.7391,-0.09005093,0.66808,0.86012
368.855,43.7952,-0.09041237,0.67061,0.85962
369.455,43.851,-0.09269061,0.67403,0.85911
370.055,43.90698,-0.09269083,0.67273,0.8586
370.655,43.96294,-0.09405309,0.67505,0.85809
371.255,44.0188,-0.09399923,0.67524,0.85759
371.855,44.0747,-0.09530696,0.67671,0.85708
372.455,44.1306,-0.09396948,0.67812,0.85657
373.055,44.18628,-0.09676276,0.67963,0.85606
373.655,44.2421,-0.09817823,0.68221,0.85555
374.255,44.29801,-0.09937009,0.68442,0.85505
374.855,44.354,-0.09810827,0.68215,0.85454
375.455,44.41018,-0.09937709,0.68525,0.85403
376.055,44.46633,-0.10173,0.68731,0.85352
376.655,44.5225,-0.10165,0.68841,0.85301
377.255,44.57844,-0.10096,0.69025,0.8525
377.855,44.6344,-0.10201,0.68976,0.85199
378.455,44.69041,-0.10387,0.69285,0.85148
379.055,44.7465,-0.10606,0.69209,0.85097
379.655,44.80279,-0.10607,0.69244,0.85046
380.255,44.85884,-0.10738,0.69554,0.84995
380.855,44.91496,-0.10878,0.69516,0.84944
381.455,44.97103,-0.11001,0.6996,0.84893
382.055,45.0269,-0.11001,0.69888,0.84842
382.655,45.08303,-0.11156,0.69863,0.84791
383.255,45.1392,-0.11286,0.69918,0.8474
383.855,45.19543,-0.11286,0.70273,0.84689
384.455,45.25183,-0.11418,0.7034,0.84638
385.055,45.30798,-0.11551,0.70268,0.84587
385.655,45.3643,-0.11679,0.70185,0.84536
386.255,45.42057,-0.11759,0.70725,0.84485
386.855,45.47692,-0.11958,0.70871,0.84434
387.455,45.53322,-0.11824,0.70889,0.84383
388.055,45.5895,-0.12003,0.71719,0.84332
388.655,45.64561,-0.12243,0.72534,0.84281
389.255,45.7019,-0.1237,0.73253,0.84229
389.855,45.75828,-0.1253,0.73165,0.84178
390.455,45.8147,-0.12773,0.73185,0.84127
391.055,45.8712,-0.12917,0.73018,0.84076
391.655,45.92763,-0.12913,0.72723,0.84025
392.255,45.98387,-0.13035,0.72436,0.83973
392.855,46.04029,-0.1318,0.72559,0.83922
393.455,46.09665,-0.13482,0.72446,0.83871
394.055,46.15303,-0.13763,0.72465,0.8382
394.655,46.20946,-0.13885,0.72855,0.83769
395.255,46.2659,-0.1404,0.72776,0.83717
395.855,46.32228,-0.14023,0.72838,0.83666
396.455,46.37876,-0.11766,0.72151,0.83615
397.055,46.43548,-0.12217,0.72453,0.83564
397.655,46.49227,-0.14345,0.72708,0.83512
398.255,46.549,-0.14697,0.73307,0.83461
398.855,46.6055,-0.14831,0.73702,0.8341
399.455,46.66206,-0.15116,0.74141,0.83359
400.055,46.71855,-0.15523,0.74629,0.83307
400.655,46.7752,-0.15833,0.75056,0.83256
401.255,46.83183,-0.16848,0.75767,0.83205
401.855,46.88832,-0.16797,0.76104,0.83153
402.455,46.9448,-0.16719,0.76298,0.83102
403.055,47.00128,-0.17062,0.76639,0.83051
403.655,47.0578,-0.17505,0.77213,0.83
404.255,47.11463,-0.177,0.77203,0.82948
404.855,47.17147,-0.17694,0.7753,0.82897
405.455,47.22844,-0.17894,0.77968,0.82846
406.055,47.2853,-0.18371,0.78175,0.82794
406.655,47.34211,-0.18755,0.78366,0.82743
407.255,47.39907,-0.18931,0.78623,0.82692
407.855,47.45599,-0.18814,0.78739,0.8264
408.455,47.51294,-0.18881,0.79303,0.82589
409.055,47.56993,-0.19163,0.79321,0.82538
409.655,47.62684,-0.19458,0.79939,0.82486
410.255,47.68365,-0.19985,0.80407,0.82435
410.855,47.74051,-0.2043,0.80824,0.82384
411.455,47.79687,-0.21107,0.81691,0.82332
412.055,47.85366,-0.22172,0.82459,0.82281
412.655,47.91084,-0.22558,0.83095,0.8223
413.255,47.96782,-0.22921,0.8341,0.82178
413.855,48.02513,-0.23594,0.8472,0.82127
414.455,48.08211,-0.24672,0.85435,0.82076
415.055,48.1389,-0.26276,0.86414,0.82024
415.655,48.1959,-0.25733,0.87003,0.81973
416.255,48.25297,-0.25114,0.87494,0.81922
416.855,48.30981,-0.25215,0.87784,0.8187
417.455,48.36672,-0.25739,0.88256,0.81819
418.055,48.4238,-0.26118,0.8917,0.81768
418.655,48.48068,-0.26756,0.8999,0.81716
419.255,48.53764,-0.27141,0.90921,0.81665
419.855,48.59453,-0.27389,0.91925,0.81614
420.455,48.65132,-0.28093,0.92771,0.81562
421.055,48.7082,-0.2851,0.93776,0.81511
421.655,48.76536,-0.29023,0.94695,0.8146
422.255,48.8223,-0.29705,0.9575,0.81408
422.855,48.87932,-0.30637,0.96823,0.81357
423.455,48.93638,-0.31287,0.98173,0.81306
424.055,48.99357,-0.32071,0.99589,0.81254
424.655,49.05064,-0.32607,1.0131,0.81203
425.255,49.10763,-0.33629,1.02616,0.81152
425.855,49.16476,-0.34453,1.03952,0.81101
426.455,49.2218,-0.35084,1.05459,0.81049
427.055,49.2793,-0.35879,1.07059,0.80998
427.655,49.3366,-0.3683,1.08791,0.80947
428.255,49.39378,-0.37598,1.10394,0.80895
428.855,49.45091,-0.38572,1.12243,0.80844
429.455,49.50804,-0.39555,1.13971,0.80793
430.055,49.56514,-0.40783,1.15991,0.80742
430.655,49.62234,-0.41911,1.18097,0.8069
431.255,49.67942,-0.43076,1.20417,0.80639
431.855,49.73658,-0.44197,1.22314,0.80588
432.455,49.79378,-0.45411,1.24891,0.80537
433.055,49.85109,-0.46617,1.27182,0.80485
433.655,49.90852,-0.47927,1.29745,0.80434
434.255,49.966,-0.49487,1.32345,0.80383
434.855,50.02328,-0.50657,1.34992,0.80332
435.455,50.08044,-0.52207,1.37823,0.80281
436.055,50.13749,-0.53683,1.40625,0.80229
436.655,50.19465,-0.55553,1.43722,0.80178
437.255,50.25193,-0.57351,1.46784,0.80127
437.855,50.30925,-0.58969,1.50008,0.80076
438.455,50.36658,-0.61004,1.53755,0.80025
439.055,50.42391,-0.6299,1.56792,0.79974
439.655,50.48133,-0.6488,1.60194,0.79923
440.255,50.53884,-0.66832,1.63414,0.79871
440.855,50.5965,-0.69186,1.673,0.7982
441.455,50.65401,-0.715,1.7085,0.79769
442.055,50.71164,-0.73577,1.74636,0.79718
442.655,50.76919,-0.76277,1.78802,0.79667
443.255,50.82677,-0.79013,1.8416,0.79616
443.855,50.88409,-0.82001,1.89418,0.79565
444.455,50.94146,-0.85028,1.9378,0.79514
445.055,50.9987,-0.88215,1.97988,0.79463
445.655,51.05618,-0.91495,2.0189,0.79412
446.255,51.11379,-0.94723,2.05675,0.79361
446.855,51.17135,-0.98366,2.09866,0.7931
447.455,51.22907,-1.02024,2.13242,0.79259
448.055,51.28667,-1.05869,2.17275,0.79208
448.655,51.3441,-1.09693,2.235,0.79157
449.255,51.40189,-1.13899,2.26692,0.79106
449.855,51.45936,-1.17979,2.30703,0.79055
450.455,51.51701,-1.2234,2.30938,0.79004
451.055,51.57459,-1.26818,2.33194,0.78953
451.655,51.63213,-1.30794,2.36477,0.78902
452.255,51.68957,-1.35738,2.38506,0.78851
452.855,51.74703,-1.40365,2.39658,0.788
453.455,51.8046,-1.45543,2.42319,0.78749
454.055,51.8622,-1.50481,2.46366,0.78699
454.655,51.91984,-1.5569,2.45393,0.78648
455.255,51.9775,-1.61,2.44349,0.78597
455.855,52.03502,-1.66217,2.44318,0.78546
456.455,52.0923,-1.72171,2.44524,0.78495
457.055,52.14956,-1.77915,2.44233,0.78444
457.655,52.20686,-1.84251,2.4412,0.78394
458.255,52.2643,-1.90396,2.43915,0.78343
458.855,52.322,-1.97238,2.43417,0.78292
459.455,52.3795,-2.04272,2.43226,0.78241
460.055,52.43682,-2.1148,2.39606,0.78191
460.655,52.4942,-2.1889,2.36382,0.7814
461.255,52.5515,-2.25915,2.32897,0.78089
461.855,52.60866,-2.3366,2.3083,0.78039
462.455,52.66601,-2.40795,2.25303,0.77988
463.055,52.72325,-2.48546,2.19853,0.77937
463.655,52.78054,-2.56148,2.13446,0.77887
464.255,52.838,-2.63782,2.07113,0.77836
464.855,52.89516,-2.7171,1.98983,0.77786
465.455,52.95254,-2.79214,1.90765,0.77735
466.055,53.0098,-2.87155,1.81461,0.77685
466.655,53.067,-2.94565,1.71732,0.77634
467.255,53.1241,-3.02505,1.60754,0.77584
467.855,53.18135,-3.09884,1.49842,0.77533
468.455,53.23848,-3.17339,1.38148,0.77483
469.055,53.2959,-3.24545,1.26114,0.77432
469.655,53.3534,-3.3145,1.14432,0.77382
470.255,53.41098,-3.38347,1.02743,0.77331
470.855,53.4685,-3.44747,0.90922,0.77281
471.455,53.52613,-3.51314,0.7953,0.77231
472.055,53.5837,-3.57275,0.68384,0.7718
472.655,53.64125,-3.62882,0.58189,0.7713
473.255,53.69869,-3.6827,0.48096,0.7708
473.855,53.75643,-3.73202,0.38479,0.77029
474.455,53.8141,-3.77933,0.29552,0.76979
475.055,53.872,-3.82154,0.21812,0.76929
475.655,53.9299,-3.86238,0.1485,0.76879
476.255,53.98777,-3.89677,0.08808316,0.76828
476.855,54.0459,-3.93109,0.03683144,0.76778
477.455,54.1039,-3.95999,-0.00247726,0.76728
478.055,54.16175,-3.98641,-0.036011,0.76678
478.655,54.21971,-4.00794,-0.0551294,0.76628
479.255,54.27756,-4.02814,-0.06317725,0.76578
479.855,54.3356,-4.04429,-0.06831851,0.76528
480.455,54.3936,-4.05873,-0.0642715,0.76477
481.055,54.4516,-4.07194,-0.04685499,0.76427
481.655,54.5096,-4.08216,-0.0317492,0.76377
482.255,54.56762,-4.09536,-0.01292545,0.76327
482.855,54.6257,-4.10363,0.00772319,0.76277
483.455,54.6836,-4.11041,0.02988598,0.76227
484.055,54.7419,-4.11658,0.04608479,0.76178
484.655,54.80013,-4.12117,0.0625238,0.76128
485.255,54.8582,-4.12617,0.07894863,0.76078
485.855,54.91658,-4.13025,0.08921755,0.76028
486.455,54.9746,-4.1358,0.0938171,0.75978
487.055,55.0328,-4.13877,0.09632558,0.75928
487.655,55.09089,-4.14316,0.09255866,0.75878
488.255,55.14904,-4.14526,0.08935745,0.75829
488.855,55.2073,-4.14886,0.08373388,0.75779
489.455,55.2653,-4.1488,0.07706666,0.75729
490.055,55.3236,-4.15025,0.07088782,0.7568
490.655,55.38169,-4.15163,0.06477731,0.7563
491.255,55.4398,-4.15436,0.05543416,0.7558
491.855,55.4982,-4.15478,0.04485383,0.75531
492.455,55.5564,-4.15568,0.03846001,0.75481
493.055,55.6146,-4.1557,0.02934669,0.75432
493.655,55.67278,-4.15469,0.02130153,0.75382
494.255,55.7309,-4.15609,0.01877595,0.75332
494.855,55.78904,-4.15832,0.007186714,0.75283
495.455,55.84704,-4.15732,0.001994327,0.75234
496.055,55.9051,-4.15732,0.002760344,0.75184
496.655,55.963,-4.15732,-0.0003093641,0.75135
497.255,56.02098,-4.15732,-0.001116008,0.75085
497.855,56.0791,-4.15601,-0.006701734,0.75036
498.455,56.1372,-4.15601,-0.00808196,0.74987
499.055,56.1953,-4.15591,-0.01031898,0.74937
499.655,56.2533,-4.15732,-0.01708154,0.74888
500.255,56.31135,-4.15732,-0.02020917,0.74839
500.855,56.36956,-4.15761,-0.02446929,0.7479
501.455,56.42784,-4.15733,-0.02571122,0.7474
502.055,56.48604,-4.15615,-0.02663078,0.74691
502.655,56.5443,-4.15601,-0.02601561,0.74642
503.255,56.60247,-4.15601,-0.026286,0.74593
503.855,56.66086,-4.15745,-0.02434812,0.74544
504.455,56.7192,-4.15864,-0.02648808,0.74495
505.055,56.7775,-4.15929,-0.02622933,0.74446
505.655,56.8359,-4.1593,-0.02874714,0.74397
506.255,56.8941,-4.15798,-0.02763609,0.74348
506.855,56.95242,-4.15796,-0.02790067,0.74299
507.455,57.0107,-4.15667,-0.02942362,0.7425
508.055,57.06912,-4.15799,-0.0288414,0.74201
508.655,57.12749,-4.15667,-0.02862453,0.74152
509.255,57.186,-4.15596,-0.02764337,0.74103
509.855,57.2444,-4.15601,-0.0303351,0.74055
510.455,57.3027,-4.15582,-0.028721,0.74006
511.055,57.361,-4.15502,-0.02636551,0.73957
511.655,57.41953,-4.15634,-0.02942983,0.73909
512.255,57.4779,-4.15634,-0.02537232,0.7386
512.855,57.53635,-4.15765,-0.0284464,0.73811
513.455,57.59474,-4.15675,-0.03021718,0.73763
514.055,57.6532,-4.15555,-0.02800814,0.73714
514.655,57.7117,-4.15667,-0.02755865,0.73665
515.255,57.77024,-4.15731,-0.02911226,0.73617
515.855,57.82874,-4.15798,-0.02725949,0.73568
516.455,57.8873,-4.1583,-0.02972088,0.7352
517.055,57.94559,-4.15961,-0.02893723,0.73472
517.655,58.0041,-4.15837,-0.02725253,0.73423
518.255,58.06267,-4.15628,-0.02858984,0.73375
518.855,58.1212,-4.15633,-0.02708394,0.73327
519.455,58.17965,-4.15633,-0.02874689,0.73278
520.055,58.2379,-4.15633,-0.02628832,0.7323
520.655,58.2963,-4.15741,-0.02732517,0.73182
521.255,58.3547,-4.15765,-0.02702266,0.73134
521.855,58.41319,-4.15831,-0.02680938,0.73085
522.455,58.4718,-4.15963,-0.02838678,0.73037
523.055,58.5305,-4.15963,-0.02881441,0.72989
523.655,58.589,-4.15963,-0.03032445,0.72941
524.255,58.6475,-4.15704,-0.02905563,0.72893
524.855,58.7059,-4.15738,-0.02578659,0.72845
525.455,58.76439,-4.1583,-0.02913731,0.72797
526.055,58.8226,-4.15562,-0.02895238,0.72749
526.655,58.88126,-4.15609,-0.03233829,0.72701
527.255,58.93994,-4.15633,-0.03066196,0.72653
527.855,58.99869,-4.15633,-0.03467998,0.72606
528.455,59.0575,-4.15634,-0.03095123,0.72558
529.055,59.1162,-4.15723,-0.02918596,0.7251
529.655,59.17488,-4.15732,-0.03342035,0.72462
530.255,59.2336,-4.15732,-0.03131593,0.72415
530.855,59.2925,-4.15732,-0.03197279,0.72367
531.455,59.3512,-4.15798,-0.03013597,0.72319
532.055,59.4101,-4.15798,-0.03002851,0.72272
532.655,59.469,-4.1593,-0.0319648,0.72224
533.255,59.52783,-4.1593,-0.02873316,0.72177
533.855,59.5867,-4.15795,-0.03159529,0.72129
534.455,59.64536,-4.15798,-0.03275434,0.72082
535.055,59.704,-4.15753,-0.02979335,0.72034
535.655,59.76269,-4.15797,-0.02997563,0.71987
536.255,59.82139,-4.15798,-0.02960513,0.7194
536.855,59.8803,-4.15798,-0.0308934,0.71892
537.455,59.93925,-4.15798,-0.03160758,0.71845
538.055,59.99805,-4.15798,-0.02874721,0.71798
538.655,60.0569,-4.15798,-0.02738613,0.71751
539.255,60.11585,-4.15798,-0.02599823,0.71703
539.855,60.17481,-4.15798,-0.02664936,0.71656
540.455,60.2339,-4.15798,-0.02492782,0.71609
541.055,60.2927,-4.15798,-0.02764256,0.71562
541.655,60.35156,-4.15876,-0.02700001,0.71515
542.255,60.41044,-4.15765,-0.02593655,0.71468
542.855,60.4696,-4.15765,-0.02628755,0.71421
543.455,60.52875,-4.15798,-0.02434784,0.71374
544.055,60.58766,-4.15798,-0.02619801,0.71327
544.655,60.6465,-4.15785,-0.02628871,0.71281
545.255,60.7053,-4.15798,-0.02689,0.71234
545.855,60.76435,-4.1593,-0.02889008,0.71187
546.455,60.82323,-4.15929,-0.02754256,0.7114
547.055,60.8821,-4.15929,-0.02439335,0.71094
547.655,60.9409,-4.15798,-0.02610355,0.71047
548.255,60.99986,-4.15727,-0.02551772,0.71
548.855,61.05882,-4.15764,-0.0258927,0.70954
549.455,61.1177,-4.15666,-0.02435419,0.70907
550.055,61.17665,-4.15643,-0.03030944,0.70861
550.655,61.23568,-4.15599,-0.02788195,0.70814
551.255,61.2948,-4.15732,-0.02566519,0.70768
551.855,61.3539,-4.15732,-0.0267263,0.70721
552.455,61.41284,-4.15863,-0.02419907,0.70675
553.055,61.47189,-4.15864,-0.02241147,0.70629
553.655,61.53099,-4.15797,-0.02621134,0.70583
554.255,61.5902,-4.15929,-0.02629583,0.70536
554.855,61.64931,-4.15798,-0.02351404,0.7049
555.455,61.7084,-4.15798,-0.02516475,0.70444
556.055,61.76746,-4.15798,-0.02743296,0.70398
556.655,61.8265,-4.15798,-0.02667503,0.70352
557.255,61.8856,-4.15798,-0.02721921,0.70306
557.855,61.9445,-4.15795,-0.0243607,0.7026
558.455,62.00365,-4.15666,-0.02553264,0.70214
559.055,62.06279,-4.15795,-0.02386856,0.70168
559.655,62.12189,-4.15746,-0.02281775,0.70122
560.255,62.1807,-4.15831,-0.02386263,0.70076
560.855,62.2399,-4.15831,-0.02092513,0.70031
561.455,62.2987,-4.15832,-0.02499548,0.69985
562.055,62.35804,-4.15696,-0.02295674,0.69939
562.655,62.41725,-4.15835,-0.01837388,0.69893
563.255,62.47651,-4.15701,-0.02065214,0.69848
563.855,62.5364,-4.15721,-0.01614131,0.69802
564.455,62.59562,-4.15839,-0.01778703,0.69757
565.055,62.65478,-4.15831,-0.01662502,0.69711
565.655,62.71369,-4.15831,-0.01565255,0.69666
566.255,62.77267,-4.1583,-0.01600149,0.6962
566.855,62.8318,-4.15699,-0.01886142,0.69575
567.455,62.891,-4.15699,-0.01786353,0.6953
568.055,62.9501,-4.15705,-0.01854156,0.69484
568.655,63.0093,-4.15831,-0.01818869,0.69439
569.255,63.0685,-4.15831,-0.01986583,0.69394
569.855,63.1279,-4.15831,-0.02077036,0.69349
570.455,63.18719,-4.15805,-0.02122735,0.69304
571.055,63.2466,-4.15812,-0.0191413,0.69258
571.655,63.30575,-4.15821,-0.01946814,0.69213
572.255,63.3652,-4.15892,-0.01804477,0.69168
572.855,63.4247,-4.1577,-0.01874675,0.69123
573.455,63.4842,-4.15829,-0.0195904,0.69079
574.055,63.5436,-4.15688,-0.01858141,0.69034
574.655,63.60305,-4.15669,-0.01900722,0.68989
575.255,63.6623,-4.15724,-0.02167466,0.68944
575.855,63.7217,-4.15913,-0.01903839,0.68899
576.455,63.7812,-4.15845,-0.01909073,0.68855
577.055,63.8407,-4.15843,-0.01619584,0.6881
577.655,63.90034,-4.15978,-0.0173828,0.68765
578.255,63.9598,-4.15852,-0.01725577,0.68721
578.855,64.0192,-4.15852,-0.02276522,0.68676
579.455,64.07879,-4.15754,-0.02111007,0.68632
580.055,64.13826,-4.15886,-0.02091128,0.68587
580.655,64.19768,-4.15886,-0.02078842,0.68543
581.255,64.25721,-4.15858,-0.02207694,0.68498
581.855,64.31654,-4.15854,-0.02081296,0.68454
582.455,64.37612,-4.15721,-0.01998386,0.6841
583.055,64.43563,-4.15721,-0.01862048,0.68366
583.655,64.49497,-4.15861,-0.01848394,0.68321
584.255,64.55451,-4.15853,-0.02204775,0.68277
584.855,64.61397,-4.15853,-0.02044141,0.68233
585.455,64.67334,-4.15853,-0.02379909,0.68189
586.055,64.73275,-4.15853,-0.02104225,0.68145
586.655,64.79205,-4.15853,-0.02118843,0.68101
587.255,64.85116,-4.15855,-0.02010472,0.68057
587.855,64.91032,-4.15721,-0.02264445,0.68013
588.455,64.96955,-4.15723,-0.02242298,0.6797
589.055,65.02905,-4.15754,-0.0205562,0.67926
589.655,65.0886,-4.15754,-0.02125466,0.67882
590.255,65.148,-4.15754,-0.02061049,0.67838
590.855,65.20746,-4.15754,-0.01848521,0.67795
591.455,65.26702,-4.15754,-0.02571053,0.67751
592.055,65.32683,-4.15755,-0.01833001,0.67708
592.655,65.38635,-4.15897,-0.0194015,0.67664
593.255,65.44586,-4.16026,-0.01707356,0.67621
593.855,65.5052,-4.16028,-0.01783687,0.67577
594.455,65.56483,-4.16029,-0.01921989,0.67534
595.055,65.6246,-4.15928,-0.01846405,0.6749
595.655,65.68428,-4.16066,-0.01478187,0.67447
596.255,65.7439,-4.1593,-0.02100514,0.67404
596.855,65.80374,-4.15764,-0.01737879,0.67361
597.455,65.86339,-4.15845,-0.01374801,0.67317
598.055,65.92316,-4.15973,-0.01364028,0.67274
598.655,65.98278,-4.1571,-0.01771292,0.67231
599.255,66.0424,-4.15711,-0.01508661,0.67188
599.855,66.10211,-4.15847,-0.01738175,0.67145
600.455,66.16213,-4.15844,-0.01574359,0.67102
601.055,66.22195,-4.15854,-0.01752222,0.67059
601.655,66.28156,-4.15908,-0.01636973,0.67017
602.255,66.34103,-4.15808,-0.01489035,0.66974
602.855,66.40057,-4.15753,-0.01523269,0.66931
603.455,66.4602,-4.15754,-0.01435085,0.66888
604.055,66.51999,-4.15754,-0.02037243,0.66846
604.655,66.5797,-4.15754,-0.0201307,0.66803
605.255,66.63927,-4.15754,-0.01838035,0.66761
605.855,66.69904,-4.15753,-0.01815617,0.66718
606.455,66.75868,-4.15753,-0.01901314,0.66676
607.055,66.81849,-4.15754,-0.01585363,0.66633
607.655,66.87833,-4.15754,-0.01819719,0.66591
608.255,66.9381,-4.15753,-0.01607237,0.66548
608.855,66.99803,-4.15853,-0.01616752,0.66506
609.455,67.05779,-4.15853,-0.01445493,0.66464
610.055,67.1177,-4.16115,-0.01697637,0.66422
610.655,67.17748,-4.16065,-0.01584087,0.6638
611.255,67.2372,-4.15985,-0.01705518,0.66338
611.855,67.29695,-4.15851,-0.01597434,0.66295
612.455,67.35669,-4.15719,-0.01688925,0.66253
613.055,67.41609,-4.15721,-0.02090991,0.66212
613.655,67.47575,-4.1572,-0.02203773,0.6617
614.255,67.5357,-4.15716,-0.0205774,0.66128
614.855,67.5958,-4.15853,-0.02030713,0.66086
615.455,67.6562,-4.15853,-0.01891916,0.66044
616.055,67.71615,-4.15853,-0.01766123,0.66002
616.655,67.776,-4.15853,-0.02042868,0.65961
617.255,67.8361,-4.15716,-0.0228173,0.65919
617.855,67.89613,-4.15722,-0.01949488,0.65878
618.455,67.95609,-4.15759,-0.02066832,0.65836
619.055,68.01563,-4.14743,-0.02108157,0.65795
619.655,68.0754,-4.1709,-0.01812805,0.65753
620.255,68.13506,-4.15915,-0.0193637,0.65712
620.855,68.19534,-4.15744,-0.0176069,0.6567
621.455,68.25548,-4.15882,-0.01823637,0.65629
622.055,68.31545,-4.15771,-0.02148867,0.65588
622.655,68.3753,-4.15779,-0.0197293,0.65547
623.255,68.43526,-4.15933,-0.01999265,0.65506
623.855,68.4951,-4.16003,-0.01597385,0.65464
624.455,68.55499,-4.15875,-0.01752567,0.65423
625.055,68.61489,-4.15875,-0.01651327,0.65382
625.655,68.67483,-4.15875,-0.01391019,0.65341
626.255,68.73467,-4.15875,-0.01530645,0.65301
626.855,68.7946,-4.15875,-0.01565185,0.6526
627.455,68.85444,-4.15874,-0.01878033,0.65219
628.055,68.9147,-4.16007,-0.02359741,0.65178
628.655,68.97482,-4.16007,-0.01759442,0.65137
629.255,69.0352,-4.16007,-0.01811608,0.65097
629.855,69.09538,-4.15986,-0.01887249,0.65056
630.455,69.15547,-4.1587,-0.02024574,0.65016
631.055,69.21561,-4.15838,-0.02051583,0.64975
631.655,69.2756,-4.15743,-0.02443731,0.64935
632.255,69.3355,-4.15754,-0.02090145,0.64894
632.855,69.39526,-4.15875,-0.02049525,0.64854
633.455,69.4551,-4.16015,-0.02503533,0.64813
634.055,69.51515,-4.16007,-0.02476169,0.64773
634.655,69.5753,-4.15908,-0.02590315,0.64733
635.255,69.63547,-4.15908,-0.02386432,0.64693
635.855,69.69544,-4.15908,-0.02422097,0.64653
636.455,69.75542,-4.15908,-0.02251992,0.64613
637.055,69.8155,-4.15908,-0.02440511,0.64573
637.655,69.87555,-4.15908,-0.02714416,0.64533
638.255,69.93559,-4.15908,-0.02745246,0.64493
638.855,69.99566,-4.15908,-0.02592915,0.64453