File: 01_Data/Rayon_Bamboo_Pillowcase/STA/N2/3K_min/Rayon_Bamboo_Pillowcase_STA_N2_3KData_220523_R1.csv
##Temp./Â°C,Time/min,Mass loss(subtr.2)/mg,DSC(subtr.2)/(mW/mg),Sensit./(uV/mW)
50.171,10.01667,-0.03821,0.03888903,1.05675
50.771,11.08382,-0.03856575,0.06389172,1.05669
51.371,11.44866,-0.03988518,0.07738241,1.05662
51.971,11.7411,-0.03996089,0.08578246,1.05655
52.571,12.00482,-0.04138736,0.09213035,1.05648
53.171,12.2493,-0.04260992,0.0972392,1.05642
53.771,12.48557,-0.04260896,0.10017,1.05635
54.371,12.7154,-0.04390128,0.10192,1.05628
54.971,12.9417,-0.04391996,0.10481,1.05621
55.571,13.1655,-0.04523998,0.10688,1.05614
56.171,13.3865,-0.04524,0.11046,1.05606
56.771,13.607,-0.04657622,0.11267,1.05599
57.371,13.82605,-0.04523835,0.11443,1.05592
57.971,14.0434,-0.04645279,0.11732,1.05585
58.571,14.259,-0.04754864,0.11841,1.05577
59.171,14.47216,-0.04852999,0.12024,1.0557
59.771,14.6841,-0.04919177,0.12219,1.05562
60.371,14.89379,-0.05049096,0.12397,1.05555
60.971,15.1035,-0.05104608,0.12775,1.05547
61.571,15.31144,-0.05182002,0.12987,1.0554
62.171,15.51891,-0.05215267,0.13033,1.05532
62.771,15.72507,-0.05356878,0.13375,1.05524
63.371,15.92942,-0.0534824,0.13576,1.05516
63.971,16.13383,-0.05445958,0.1356,1.05509
64.571,16.338,-0.05577025,0.13689,1.05501
65.171,16.5421,-0.05576756,0.13835,1.05493
65.771,16.74679,-0.05741679,0.14114,1.05485
66.371,16.95065,-0.05840983,0.14071,1.05476
66.971,17.1534,-0.05877118,0.14304,1.05468
67.571,17.35564,-0.05905501,0.14248,1.0546
68.171,17.5575,-0.05972993,0.14451,1.05452
68.771,17.76014,-0.06250102,0.14346,1.05443
69.371,17.9617,-0.06104197,0.14516,1.05435
69.971,18.16341,-0.06236,0.14737,1.05427
70.571,18.3648,-0.06238952,0.14618,1.05418
71.171,18.56622,-0.06467283,0.14602,1.0541
71.771,18.7679,-0.0659919,0.15013,1.05401
72.371,18.96995,-0.06599008,0.14655,1.05392
72.971,19.17126,-0.06730508,0.14624,1.05383
73.571,19.3734,-0.06814146,0.14705,1.05375
74.171,19.57602,-0.06889836,0.14883,1.05366
74.771,19.77787,-0.06979366,0.14873,1.05357
75.371,19.9787,-0.0703059,0.15064,1.05348
75.971,20.1785,-0.07224103,0.15084,1.05339
76.571,20.37821,-0.07200888,0.15064,1.0533
77.171,20.57806,-0.07323629,0.14859,1.05321
77.771,20.7786,-0.07466331,0.14849,1.05311
78.371,20.97883,-0.0742824,0.14884,1.05302
78.971,21.1795,-0.07619915,0.14733,1.05293
79.571,21.3796,-0.07620001,0.14715,1.05283
80.171,21.58016,-0.07717925,0.1452,1.05274
80.771,21.78105,-0.07850095,0.1436,1.05264
81.371,21.9822,-0.07850005,0.14494,1.05255
81.971,22.18372,-0.07981534,0.14227,1.05245
82.571,22.3842,-0.0808001,0.14225,1.05236
83.171,22.58482,-0.08219147,0.14094,1.05226
83.771,22.78526,-0.08139165,0.14001,1.05216
84.371,22.9861,-0.08245957,0.14073,1.05206
84.971,23.18579,-0.08377395,0.14078,1.05196
85.571,23.3856,-0.08372373,0.137,1.05186
86.171,23.5837,-0.08639966,0.13767,1.05176
86.771,23.78351,-0.0864,0.13588,1.05166
87.371,23.983,-0.08770146,0.13477,1.05156
87.971,24.18419,-0.08837961,0.13407,1.05146
88.571,24.38387,-0.08970173,0.13085,1.05135
89.171,24.58351,-0.08936838,0.13049,1.05125
89.771,24.78278,-0.08969665,0.12907,1.05115
90.371,24.9813,-0.09035001,0.12857,1.05104
90.971,25.18035,-0.09035001,0.12737,1.05094
91.571,25.37961,-0.0929933,0.12707,1.05083
92.171,25.5798,-0.09298989,0.12431,1.05073
92.771,25.7791,-0.09166075,0.12231,1.05062
93.371,25.979,-0.09429918,0.12195,1.05051
93.971,26.1779,-0.09464137,0.12046,1.0504
94.571,26.37675,-0.0946401,0.11963,1.05029
95.171,26.5757,-0.09694052,0.11828,1.05019
95.771,26.77464,-0.09548436,0.11798,1.05008
96.371,26.9739,-0.09703306,0.11716,1.04997
96.971,27.17325,-0.09828949,0.11707,1.04985
97.571,27.3719,-0.09826071,0.11596,1.04974
98.171,27.57027,-0.09560904,0.11677,1.04963
98.771,27.76823,-0.09958164,0.11555,1.04952
99.371,27.9658,-0.09728303,0.1128,1.0494
99.971,28.1638,-0.09990975,0.11164,1.04929
100.571,28.36122,-0.09980185,0.11202,1.04917
101.171,28.5592,-0.09905472,0.11214,1.04906
101.771,28.757,-0.10023,0.10857,1.04894
102.371,28.955,-0.10164,0.10924,1.04883
102.971,29.1527,-0.10156,0.10694,1.04871
103.571,29.35125,-0.1009,0.10675,1.04859
104.171,29.5505,-0.10157,0.1069,1.04847
104.771,29.7497,-0.10189,0.10671,1.04835
105.371,29.94885,-0.10156,0.10714,1.04824
105.971,30.14695,-0.10177,0.10804,1.04812
106.571,30.3445,-0.10286,0.10676,1.04799
107.171,30.5421,-0.10155,0.10935,1.04787
107.771,30.7392,-0.10287,0.10768,1.04775
108.371,30.93539,-0.10287,0.10479,1.04763
108.971,31.1316,-0.1022,0.10601,1.04751
109.571,31.3275,-0.10353,0.10656,1.04738
110.171,31.52433,-0.10353,0.1047,1.04726
110.771,31.72281,-0.10421,0.10445,1.04713
111.371,31.92085,-0.10274,0.10455,1.04701
111.971,32.11869,-0.10346,0.10512,1.04688
112.571,32.3159,-0.10254,0.10434,1.04675
113.171,32.51397,-0.10487,0.10344,1.04663
113.771,32.71217,-0.10354,0.10457,1.0465
114.371,32.91073,-0.10622,0.10479,1.04637
114.971,33.10904,-0.10485,0.1053,1.04624
115.571,33.30702,-0.10484,0.1064,1.04611
116.171,33.5043,-0.10633,0.1071,1.04598
116.771,33.70193,-0.10551,0.10622,1.04585
117.371,33.8984,-0.10607,0.10596,1.04572
117.971,34.0956,-0.1065,0.10643,1.04558
118.571,34.29335,-0.10551,0.1068,1.04545
119.171,34.4915,-0.10537,0.10636,1.04532
119.771,34.68958,-0.10782,0.10636,1.04518
120.371,34.88711,-0.10682,0.10731,1.04505
120.971,35.08489,-0.10682,0.10869,1.04491
121.571,35.28188,-0.10715,0.10897,1.04478
122.171,35.47876,-0.1085,0.1066,1.04464
122.771,35.6764,-0.10682,0.10869,1.0445
123.371,35.87342,-0.10813,0.10642,1.04436
123.971,36.0702,-0.10682,0.10792,1.04423
124.571,36.26665,-0.10814,0.10733,1.04409
125.171,36.46372,-0.10951,0.10722,1.04395
125.771,36.66065,-0.10946,0.10716,1.04381
126.371,36.85716,-0.10806,0.1083,1.04367
126.971,37.0535,-0.10814,0.10825,1.04352
127.571,37.2496,-0.11077,0.10741,1.04338
128.171,37.44693,-0.10945,0.10553,1.04324
128.771,37.6436,-0.11078,0.10681,1.0431
129.371,37.84268,-0.10971,0.10691,1.04295
129.971,38.0409,-0.11002,0.10659,1.04281
130.571,38.23928,-0.10986,0.10731,1.04266
131.171,38.43677,-0.10976,0.10783,1.04252
131.771,38.6336,-0.1111,0.10697,1.04237
132.371,38.8309,-0.11111,0.10695,1.04222
132.971,39.02783,-0.11108,0.10565,1.04207
133.571,39.22501,-0.112,0.10924,1.04192
134.171,39.42168,-0.11111,0.10685,1.04178
134.771,39.61898,-0.11111,0.10843,1.04163
135.371,39.8157,-0.11012,0.10923,1.04148
135.971,40.0121,-0.1111,0.10825,1.04132
136.571,40.2081,-0.11209,0.10919,1.04117
137.171,40.4039,-0.11113,0.11043,1.04102
137.771,40.60013,-0.11045,0.1084,1.04087
138.371,40.7972,-0.11175,0.10882,1.04071
138.971,40.99343,-0.11143,0.1102,1.04056
139.571,41.18918,-0.11055,0.1091,1.04041
140.171,41.38479,-0.11143,0.10886,1.04025
140.771,41.58098,-0.11025,0.11044,1.04009
141.371,41.77751,-0.11183,0.10883,1.03994
141.971,41.97477,-0.11211,0.10777,1.03978
142.571,42.17137,-0.11281,0.10709,1.03962
143.171,42.36765,-0.11108,0.1089,1.03946
143.771,42.56414,-0.11242,0.10731,1.0393
144.371,42.76173,-0.11109,0.10849,1.03914
144.971,42.9591,-0.11242,0.10796,1.03898
145.571,43.15665,-0.11242,0.10582,1.03882
146.171,43.35374,-0.11314,0.10582,1.03866
146.771,43.55048,-0.11374,0.10729,1.0385
147.371,43.74661,-0.11292,0.10789,1.03834
147.971,43.9429,-0.11243,0.10846,1.03817
148.571,44.1377,-0.11113,0.10606,1.03801
149.171,44.33324,-0.11243,0.10779,1.03784
149.771,44.52883,-0.11341,0.10776,1.03768
150.371,44.72445,-0.11252,0.1078,1.03751
150.971,44.92046,-0.1134,0.10735,1.03734
151.571,45.1158,-0.11275,0.10788,1.03718
152.171,45.31118,-0.11207,0.1079,1.03701
152.771,45.50655,-0.11352,0.10803,1.03684
153.371,45.7023,-0.11406,0.1072,1.03667
153.971,45.8989,-0.11246,0.10556,1.0365
154.571,46.09532,-0.11308,0.10693,1.03633
155.171,46.29124,-0.11397,0.10839,1.03616
155.771,46.48708,-0.11308,0.10783,1.03599
156.371,46.68199,-0.11407,0.10907,1.03581
156.971,46.87782,-0.11275,0.1091,1.03564
157.571,47.07399,-0.11275,0.10968,1.03547
158.171,47.26951,-0.11275,0.10895,1.03529
158.771,47.46685,-0.11308,0.10899,1.03512
159.371,47.66287,-0.11406,0.11029,1.03494
159.971,47.85935,-0.11407,0.11123,1.03477
160.571,48.05523,-0.11405,0.10998,1.03459
161.171,48.2504,-0.11376,0.11,1.03441
161.771,48.44489,-0.11473,0.10992,1.03423
162.371,48.63957,-0.11308,0.10867,1.03405
162.971,48.8343,-0.11275,0.11026,1.03387
163.571,49.03033,-0.11407,0.1103,1.03369
164.171,49.226,-0.11274,0.11026,1.03351
164.771,49.42139,-0.11275,0.1108,1.03333
165.371,49.6167,-0.11308,0.11197,1.03315
165.971,49.81286,-0.11302,0.11171,1.03297
166.571,50.00943,-0.11374,0.11132,1.03278
167.171,50.2066,-0.11374,0.11321,1.0326
167.771,50.40365,-0.11275,0.11387,1.03241
168.371,50.60028,-0.11407,0.1117,1.03223
168.971,50.79631,-0.11467,0.11561,1.03204
169.571,50.99194,-0.11394,0.11348,1.03186
170.171,51.1877,-0.11407,0.11396,1.03167
170.771,51.38324,-0.1144,0.11288,1.03148
171.371,51.5781,-0.1144,0.11415,1.03129
171.971,51.77261,-0.1133,0.11401,1.0311
172.571,51.96671,-0.11341,0.11368,1.03091
173.171,52.16169,-0.1144,0.1128,1.03072
173.771,52.35624,-0.1144,0.11336,1.03053
174.371,52.5511,-0.11312,0.1129,1.03034
174.971,52.74615,-0.1144,0.11535,1.03015
175.571,52.9403,-0.1144,0.11345,1.02995
176.171,53.13476,-0.1144,0.11411,1.02976
176.771,53.32946,-0.1144,0.11531,1.02957
177.371,53.52406,-0.11407,0.11593,1.02937
177.971,53.71861,-0.1144,0.11507,1.02917
178.571,53.9134,-0.11537,0.11311,1.02898
179.171,54.108,-0.11325,0.11386,1.02878
179.771,54.3036,-0.11308,0.114,1.02858
180.371,54.5,-0.11308,0.11545,1.02838
180.971,54.69653,-0.1144,0.11512,1.02819
181.571,54.89252,-0.11439,0.11601,1.02799
182.171,55.08869,-0.1144,0.11396,1.02779
182.771,55.28414,-0.1137,0.11477,1.02758
183.371,55.4796,-0.11374,0.11617,1.02738
183.971,55.6746,-0.11374,0.11496,1.02718
184.571,55.86916,-0.11274,0.11779,1.02698
185.171,56.0638,-0.11275,0.11804,1.02677
185.771,56.25881,-0.11372,0.11752,1.02657
186.371,56.45414,-0.1121,0.11878,1.02636
186.971,56.6494,-0.11341,0.11829,1.02616
187.571,56.84424,-0.11341,0.11705,1.02595
188.171,57.03866,-0.11341,0.11841,1.02575
188.771,57.2334,-0.11341,0.11818,1.02554
189.371,57.42875,-0.11342,0.11843,1.02533
189.971,57.62379,-0.11479,0.11932,1.02512
190.571,57.8188,-0.11344,0.11861,1.02491
191.171,58.01373,-0.11209,0.11905,1.0247
191.771,58.20788,-0.1144,0.12048,1.02449
192.371,58.4018,-0.11309,0.12134,1.02428
192.971,58.5947,-0.11342,0.12194,1.02407
193.571,58.78875,-0.11276,0.12181,1.02385
194.171,58.9832,-0.11408,0.12119,1.02364
194.771,59.17845,-0.11277,0.12154,1.02343
195.371,59.3734,-0.11421,0.12051,1.02321
195.971,59.56776,-0.11308,0.12177,1.023
196.571,59.76268,-0.11373,0.12259,1.02278
197.171,59.95711,-0.11505,0.12386,1.02256
197.771,60.152,-0.11406,0.12311,1.02235
198.371,60.3464,-0.11398,0.12107,1.02213
198.971,60.54039,-0.11539,0.12173,1.02191
199.571,60.73517,-0.1144,0.12258,1.02169
200.171,60.9299,-0.1144,0.12198,1.02147
200.771,61.125,-0.11507,0.12176,1.02125
201.371,61.31977,-0.11505,0.12212,1.02103
201.971,61.51401,-0.11536,0.12266,1.02081
202.571,61.7086,-0.11506,0.12411,1.02058
203.171,61.903,-0.11638,0.12273,1.02036
203.771,62.09711,-0.11767,0.12347,1.02014
204.371,62.29093,-0.11632,0.12448,1.01991
204.971,62.485,-0.11769,0.12426,1.01969
205.571,62.67938,-0.11604,0.12227,1.01946
206.171,62.87466,-0.11801,0.12381,1.01923
206.771,63.06935,-0.1167,0.12204,1.01901
207.371,63.26472,-0.11802,0.12186,1.01878
207.971,63.4596,-0.11769,0.12236,1.01855
208.571,63.6541,-0.11638,0.12061,1.01832
209.171,63.8482,-0.11769,0.12217,1.01809
209.771,64.04268,-0.11809,0.12245,1.01786
210.371,64.23706,-0.11839,0.12069,1.01763
210.971,64.432,-0.11901,0.12037,1.0174
211.571,64.62653,-0.12033,0.12021,1.01716
212.171,64.82032,-0.11967,0.12211,1.01693
212.771,65.01409,-0.11966,0.12026,1.0167
213.371,65.20742,-0.12065,0.12329,1.01646
213.971,65.4017,-0.12132,0.12195,1.01623
214.571,65.5941,-0.121,0.12108,1.01599
215.171,65.78792,-0.1211,0.12119,1.01575
215.771,65.98176,-0.1219,0.12081,1.01552
216.371,66.1758,-0.12223,0.12257,1.01528
216.971,66.37006,-0.12161,0.12247,1.01504
217.571,66.56469,-0.12296,0.12322,1.0148
218.171,66.7595,-0.12223,0.12417,1.01456
218.771,66.95326,-0.12466,0.12145,1.01432
219.371,67.14756,-0.12579,0.12244,1.01408
219.971,67.34263,-0.12565,0.12293,1.01384
220.571,67.538,-0.12627,0.12325,1.01359
221.171,67.73281,-0.12626,0.12183,1.01335
221.771,67.9278,-0.12781,0.12091,1.01311
222.371,68.1219,-0.12791,0.12186,1.01286
222.971,68.31656,-0.12725,0.12194,1.01262
223.571,68.51051,-0.1299,0.11969,1.01237
224.171,68.70447,-0.13128,0.12111,1.01212
224.771,68.89887,-0.13087,0.12164,1.01188
225.371,69.09245,-0.13254,0.12034,1.01163
225.971,69.28721,-0.13204,0.11964,1.01138
226.571,69.48098,-0.13541,0.1227,1.01113
227.171,69.67487,-0.13581,0.12223,1.01088
227.771,69.8692,-0.13569,0.12294,1.01063
228.371,70.06345,-0.1378,0.12145,1.01038
228.971,70.2585,-0.13839,0.12246,1.01013
229.571,70.4533,-0.13976,0.12312,1.00987
230.171,70.64843,-0.14246,0.12126,1.00962
230.771,70.84235,-0.14174,0.12384,1.00937
231.371,71.0374,-0.14453,0.12251,1.00911
231.971,71.2324,-0.14566,0.12452,1.00886
232.571,71.42758,-0.14582,0.12479,1.0086
233.171,71.62297,-0.14967,0.12479,1.00834
233.771,71.81737,-0.14964,0.12585,1.00809
234.371,72.01138,-0.15216,0.12721,1.00783
234.971,72.2046,-0.15493,0.12847,1.00757
235.571,72.3985,-0.15489,0.13116,1.00731
236.171,72.59309,-0.15886,0.13244,1.00705
236.771,72.78823,-0.15988,0.13396,1.00679
237.371,72.98325,-0.16314,0.13326,1.00653
237.971,73.17774,-0.16481,0.13599,1.00627
238.571,73.37187,-0.16634,0.13803,1.006
239.171,73.5661,-0.17266,0.14168,1.00574
239.771,73.7603,-0.17445,0.14506,1.00548
240.371,73.95514,-0.17796,0.1481,1.00521
240.971,74.14984,-0.18157,0.15372,1.00495
241.571,74.34404,-0.18466,0.15757,1.00468
242.171,74.53832,-0.18912,0.1618,1.00441
242.771,74.7324,-0.19153,0.16599,1.00415
243.371,74.92737,-0.19686,0.17037,1.00388
243.971,75.12278,-0.20278,0.17571,1.00361
244.571,75.3178,-0.20645,0.18021,1.00334
245.171,75.51314,-0.21313,0.18528,1.00307
245.771,75.70736,-0.21883,0.18822,1.0028
246.371,75.9016,-0.22698,0.19305,1.00253
246.971,76.0954,-0.23227,0.19653,1.00225
247.571,76.28846,-0.24034,0.19928,1.00198
248.171,76.4824,-0.2473,0.20244,1.00171
248.771,76.6761,-0.25421,0.20324,1.00143
249.371,76.87004,-0.26161,0.20551,1.00116
249.971,77.06496,-0.27035,0.20238,1.00088
250.571,77.25893,-0.27731,0.20101,1.00061
251.171,77.45365,-0.28709,0.20297,1.00033
251.771,77.64754,-0.29526,0.20177,1.00005
252.371,77.84188,-0.3042,0.20181,0.99977
252.971,78.03608,-0.31429,0.20296,0.9995
253.571,78.2298,-0.32178,0.2061,0.99922
254.171,78.42376,-0.33222,0.20368,0.99894
254.771,78.61759,-0.34081,0.19912,0.99865
255.371,78.81134,-0.35174,0.19895,0.99837
255.971,79.005,-0.36031,0.19947,0.99809
256.571,79.19918,-0.37037,0.20061,0.99781
257.171,79.39346,-0.381,0.19921,0.99752
257.771,79.5883,-0.39009,0.20174,0.99724
258.371,79.78272,-0.40047,0.20342,0.99695
258.971,79.97737,-0.41289,0.20483,0.99667
259.571,80.17194,-0.4231,0.20639,0.99638
260.171,80.3665,-0.43352,0.20513,0.9961
260.771,80.5608,-0.44376,0.20896,0.99581
261.371,80.75498,-0.45552,0.2096,0.99552
261.971,80.94802,-0.46679,0.21182,0.99523
262.571,81.1416,-0.47888,0.21121,0.99494
263.171,81.33535,-0.49135,0.21425,0.99465
263.771,81.53033,-0.50309,0.21549,0.99436
264.371,81.72453,-0.51436,0.21615,0.99407
264.971,81.91855,-0.52677,0.21573,0.99377
265.571,82.11267,-0.53802,0.2176,0.99348
266.171,82.30721,-0.55211,0.21789,0.99319
266.771,82.50139,-0.56364,0.21861,0.99289
267.371,82.69564,-0.57778,0.2197,0.9926
267.971,82.88939,-0.59049,0.21974,0.9923
268.571,83.08366,-0.6034,0.21866,0.99201
269.171,83.27811,-0.61499,0.22035,0.99171
269.771,83.47315,-0.62766,0.22052,0.99141
270.371,83.66759,-0.64222,0.2213,0.99111
270.971,83.86184,-0.65621,0.22113,0.99081
271.571,84.05611,-0.66889,0.2229,0.99051
272.171,84.25,-0.68385,0.2225,0.99021
272.771,84.44362,-0.69487,0.22276,0.98991
273.371,84.63735,-0.70953,0.2213,0.98961
273.971,84.83168,-0.72309,0.22214,0.98931
274.571,85.0265,-0.7377,0.22374,0.989
275.171,85.22099,-0.75119,0.2227,0.9887
275.771,85.41622,-0.76482,0.226,0.9884
276.371,85.61077,-0.77856,0.22456,0.98809
276.971,85.80581,-0.79343,0.22124,0.98778
277.571,86.00066,-0.80914,0.22192,0.98748
278.171,86.19615,-0.82427,0.22446,0.98717
278.771,86.3915,-0.83906,0.22558,0.98686
279.371,86.58654,-0.8561,0.22555,0.98655
279.971,86.78075,-0.87112,0.22575,0.98624
280.571,86.97539,-0.88531,0.22653,0.98593
281.171,87.16897,-0.89923,0.22803,0.98562
281.771,87.36346,-0.91718,0.22608,0.98531
282.371,87.55882,-0.93283,0.22513,0.985
282.971,87.75417,-0.94927,0.2264,0.98469
283.571,87.95006,-0.96753,0.22594,0.98437
284.171,88.14595,-0.9826,0.22614,0.98406
284.771,88.34199,-0.99963,0.22571,0.98375
285.371,88.53769,-1.01748,0.2269,0.98343
285.971,88.73227,-1.03458,0.23087,0.98311
286.571,88.92583,-1.05271,0.23009,0.9828
287.171,89.1195,-1.0685,0.23299,0.98248
287.771,89.3134,-1.08676,0.23258,0.98216
288.371,89.5079,-1.10588,0.23331,0.98184
288.971,89.70265,-1.12367,0.23145,0.98152
289.571,89.89681,-1.14321,0.23087,0.9812
290.171,90.09116,-1.16109,0.23245,0.98088
290.771,90.28591,-1.17971,0.23298,0.98056
291.371,90.48098,-1.19995,0.23307,0.98024
291.971,90.67654,-1.21817,0.23272,0.97992
292.571,90.87193,-1.23843,0.23317,0.97959
293.171,91.06772,-1.2588,0.23299,0.97927
293.771,91.26348,-1.28054,0.23426,0.97894
294.371,91.45817,-1.29904,0.23449,0.97862
294.971,91.65244,-1.32056,0.2336,0.97829
295.571,91.84645,-1.34048,0.23474,0.97796
296.171,92.0409,-1.36378,0.23645,0.97764
296.771,92.2362,-1.38505,0.23777,0.97731
297.371,92.4308,-1.4054,0.23799,0.97698
297.971,92.62602,-1.42949,0.23705,0.97665
298.571,92.821,-1.44923,0.23629,0.97632
299.171,93.01581,-1.47423,0.23823,0.97599
299.771,93.211,-1.49485,0.23823,0.97566
300.371,93.40632,-1.51742,0.23739,0.97532
300.971,93.6019,-1.54058,0.23765,0.97499
301.571,93.7974,-1.56411,0.23588,0.97466
302.171,93.99257,-1.58928,0.23811,0.97432
302.771,94.18842,-1.61232,0.23655,0.97399
303.371,94.38407,-1.63695,0.23764,0.97365
303.971,94.57996,-1.6591,0.23828,0.97332
304.571,94.77476,-1.68429,0.2379,0.97298
305.171,94.96948,-1.70926,0.23901,0.97264
305.771,95.16391,-1.73298,0.23824,0.9723
306.371,95.3582,-1.75862,0.23786,0.97196
306.971,95.55242,-1.78317,0.23869,0.97162
307.571,95.7466,-1.80924,0.24057,0.97128
308.171,95.94139,-1.83423,0.23757,0.97094
308.771,96.13551,-1.85945,0.23639,0.9706
309.371,96.33004,-1.88439,0.23538,0.97026
309.971,96.52445,-1.90945,0.23295,0.96992
310.571,96.7178,-1.93634,0.23572,0.96957
311.171,96.91221,-1.9633,0.2345,0.96923
311.771,97.10631,-1.98633,0.23428,0.96888
312.371,97.3011,-2.01337,0.2333,0.96854
312.971,97.4964,-2.03967,0.23357,0.96819
313.571,97.6913,-2.06584,0.23154,0.96784
314.171,97.8871,-2.09209,0.23081,0.9675
314.771,98.08296,-2.11954,0.22898,0.96715
315.371,98.27861,-2.14733,0.22848,0.9668
315.971,98.47394,-2.17214,0.22554,0.96645
316.571,98.6687,-2.19892,0.22645,0.9661
317.171,98.86354,-2.22462,0.22242,0.96575
317.771,99.05837,-2.25107,0.22135,0.96539
318.371,99.25378,-2.2768,0.21917,0.96504
318.971,99.4497,-2.30399,0.21853,0.96469
319.571,99.64528,-2.32945,0.21516,0.96434
320.171,99.84136,-2.35621,0.21337,0.96398
320.771,100.038,-2.38016,0.21125,0.96363
321.371,100.234,-2.40618,0.20581,0.96327
321.971,100.43,-2.43091,0.20288,0.96291
322.571,100.625,-2.4555,0.2016,0.96256
323.171,100.82,-2.47811,0.1953,0.9622
323.771,101.014,-2.50339,0.19386,0.96184
324.371,101.209,-2.52378,0.19014,0.96148
324.971,101.404,-2.54642,0.18523,0.96112
325.571,101.6,-2.56935,0.17707,0.96076
326.171,101.795,-2.58909,0.17331,0.9604
326.771,101.99,-2.61025,0.1646,0.96004
327.371,102.185,-2.6273,0.15738,0.95967
327.971,102.38,-2.64555,0.14975,0.95931
328.571,102.575,-2.66466,0.14421,0.95895
329.171,102.77,-2.68105,0.13704,0.95858
329.771,102.965,-2.69602,0.13072,0.95822
330.371,103.159,-2.70989,0.1247,0.95785
330.971,103.354,-2.7248,0.11577,0.95749
331.571,103.549,-2.73677,0.11135,0.95712
332.171,103.746,-2.74801,0.10455,0.95675
332.771,103.943,-2.7596,0.09872393,0.95638
333.371,104.14,-2.77019,0.09042695,0.95601
333.971,104.3377,-2.78014,0.08624541,0.95564
334.571,104.535,-2.78845,0.08263831,0.95527
335.171,104.732,-2.79752,0.08028972,0.9549
335.771,104.928,-2.80458,0.07460688,0.95453
336.371,105.124,-2.81177,0.07182132,0.95416
336.971,105.319,-2.81861,0.06968047,0.95378
337.571,105.515,-2.82516,0.06816003,0.95341
338.171,105.711,-2.8317,0.06724744,0.95303
338.771,105.905,-2.83529,0.06723967,0.95266
339.371,106.098,-2.84141,0.06385744,0.95228
339.971,106.292,-2.84676,0.06468049,0.95191
340.571,106.4861,-2.84965,0.06122905,0.95153
341.171,106.6809,-2.85629,0.05868886,0.95115
341.771,106.877,-2.85867,0.05690595,0.95077
342.371,107.0737,-2.86274,0.05548025,0.95039
342.971,107.27,-2.86676,0.05737606,0.95001
343.571,107.466,-2.86941,0.05508544,0.94963
344.171,107.662,-2.87344,0.05492174,0.94925
344.771,107.859,-2.87734,0.05631645,0.94887
345.371,108.055,-2.87973,0.05365845,0.94849
345.971,108.251,-2.88269,0.05153893,0.94811
346.571,108.447,-2.88533,0.05305509,0.94772
347.171,108.642,-2.88907,0.0528484,0.94734
347.771,108.839,-2.89158,0.05247807,0.94695
348.371,109.035,-2.8953,0.05140433,0.94657
348.971,109.231,-2.89817,0.05220751,0.94618
349.571,109.427,-2.90064,0.05089881,0.94579
350.171,109.622,-2.90344,0.04807374,0.94541
350.771,109.8176,-2.90509,0.04754058,0.94502
351.371,110.014,-2.90639,0.04508503,0.94463
351.971,110.21,-2.91037,0.04623578,0.94424
352.571,110.406,-2.91299,0.04736069,0.94385
353.171,110.602,-2.91668,0.04750918,0.94346
353.771,110.798,-2.9173,0.04707244,0.94307
354.371,110.994,-2.91988,0.04563162,0.94267
354.971,111.19,-2.92176,0.04683572,0.94228
355.571,111.386,-2.92515,0.04561512,0.94189
356.171,111.583,-2.92681,0.04871184,0.94149
356.771,111.779,-2.92875,0.04933113,0.9411
357.371,111.976,-2.93154,0.0479781,0.9407
357.971,112.173,-2.9314,0.04592041,0.94031
358.571,112.3705,-2.93402,0.04749335,0.93991
359.171,112.568,-2.93671,0.04892183,0.93951
359.771,112.765,-2.93892,0.0467969,0.93911
360.371,112.961,-2.94198,0.04740729,0.93871
360.971,113.156,-2.94295,0.04673281,0.93831
361.571,113.352,-2.94462,0.04964888,0.93791
362.171,113.547,-2.94728,0.04806285,0.93751
362.771,113.743,-2.94988,0.04731709,0.93711
363.371,113.94,-2.95056,0.04742595,0.93671
363.971,114.137,-2.95207,0.04513853,0.93631
364.571,114.334,-2.9558,0.04694725,0.9359
365.171,114.53,-2.95581,0.04759347,0.9355
365.771,114.727,-2.95755,0.04663371,0.93509
366.371,114.923,-2.95843,0.0460438,0.93469
366.971,115.121,-2.96105,0.04541798,0.93428
367.571,115.318,-2.96373,0.04662892,0.93388
368.171,115.515,-2.96373,0.04585584,0.93347
368.771,115.712,-2.96602,0.04745429,0.93306
369.371,115.9088,-2.96848,0.04628915,0.93265
369.971,116.106,-2.9684,0.04686466,0.93224
370.571,116.302,-2.97196,0.04608656,0.93183
371.171,116.4985,-2.97195,0.04677768,0.93142
371.771,116.695,-2.97456,0.04566847,0.93101
372.371,116.892,-2.97591,0.0461614,0.9306
372.971,117.088,-2.97721,0.04826851,0.93019
373.571,117.284,-2.97989,0.04398592,0.92977
374.171,117.481,-2.97735,0.04470934,0.92936
374.771,117.677,-2.98246,0.04792305,0.92895
375.371,117.873,-2.98377,0.04847432,0.92853
375.971,118.07,-2.98513,0.05017603,0.92811
376.571,118.265,-2.98644,0.04904562,0.9277
377.171,118.461,-2.98776,0.04815033,0.92728
377.771,118.658,-2.98998,0.04997918,0.92686
378.371,118.855,-2.99053,0.0499203,0.92645
378.971,119.052,-2.9917,0.05236201,0.92603
379.571,119.249,-2.99431,0.05562646,0.92561
380.171,119.4461,-2.9954,0.05792241,0.92519
380.771,119.643,-2.99575,0.05903606,0.92477
381.371,119.84,-2.99764,0.05708479,0.92434
381.971,120.037,-2.99896,0.05685082,0.92392
382.571,120.2335,-3.00062,0.05563283,0.9235
383.171,120.431,-3.0016,0.05572072,0.92308
383.771,120.628,-3.00291,0.05880737,0.92265
384.371,120.825,-3.00429,0.056187,0.92223
384.971,121.021,-3.00701,0.06018006,0.9218
385.571,121.218,-3.0062,0.05921447,0.92138
386.171,121.415,-3.00885,0.05577129,0.92095
386.771,121.612,-3.01113,0.05862295,0.92052
387.371,121.81,-3.01181,0.0585605,0.92009
387.971,122.0073,-3.01219,0.05903109,0.91967
388.571,122.206,-3.01447,0.05534414,0.91924
389.171,122.4036,-3.01468,0.05690824,0.91881
389.771,122.601,-3.01707,0.05671129,0.91838
390.371,122.799,-3.01968,0.05726787,0.91794
390.971,122.995,-3.01968,0.05733971,0.91751
391.571,123.19,-3.02,0.0593585,0.91708
392.171,123.386,-3.02102,0.05836679,0.91665
392.771,123.5815,-3.02334,0.05816016,0.91621
393.371,123.778,-3.02352,0.06051492,0.91578
393.971,123.975,-3.02394,0.05768689,0.91534
394.571,124.171,-3.02491,0.0582966,0.91491
395.171,124.367,-3.02827,0.05554689,0.91447
395.771,124.563,-3.02994,0.05671585,0.91404
396.371,124.759,-3.02979,0.05751638,0.9136
396.971,124.956,-3.03161,0.05686579,0.91316
397.571,125.152,-3.03396,0.05747179,0.91272
398.171,125.3489,-3.03322,0.05682546,0.91228
398.771,125.547,-3.03654,0.05664528,0.91184
399.371,125.744,-3.03606,0.05603402,0.9114
399.971,125.942,-3.03815,0.05682774,0.91096
400.571,126.14,-3.03956,0.05623702,0.91052
401.171,126.338,-3.03941,0.05520321,0.91008
401.771,126.535,-3.04209,0.05665228,0.90963
402.371,126.732,-3.04401,0.05769491,0.90919
402.971,126.93,-3.04408,0.05759503,0.90875
403.571,127.128,-3.0436,0.05683447,0.9083
404.171,127.326,-3.04609,0.05565111,0.90786
404.771,127.523,-3.04751,0.05550225,0.90741
405.371,127.719,-3.04734,0.05616509,0.90696
405.971,127.916,-3.04902,0.05561391,0.90652
406.571,128.113,-3.04902,0.05585273,0.90607
407.171,128.311,-3.05163,0.05299676,0.90562
407.771,128.508,-3.05294,0.05391519,0.90517
408.371,128.706,-3.05198,0.05087862,0.90472
408.971,128.905,-3.05597,0.05182615,0.90427
409.571,129.103,-3.05462,0.05072526,0.90382
410.171,129.3017,-3.0559,0.05239771,0.90337
410.771,129.5,-3.05725,0.05204594,0.90291
411.371,129.698,-3.05973,0.05186633,0.90246
411.971,129.8967,-3.06051,0.05319406,0.90201
412.571,130.095,-3.06187,0.05370705,0.90155
413.171,130.293,-3.06255,0.05314814,0.9011
413.771,130.491,-3.06416,0.05308408,0.90064
414.371,130.69,-3.06383,0.05182631,0.90019
414.971,130.887,-3.06516,0.05555244,0.89973
415.571,131.084,-3.06646,0.05233009,0.89927
416.171,131.281,-3.06685,0.05226988,0.89882
416.771,131.479,-3.06779,0.0517568,0.89836
417.371,131.677,-3.07039,0.05204178,0.8979
417.971,131.875,-3.07042,0.05248235,0.89744
418.571,132.073,-3.07174,0.05258061,0.89698
419.171,132.271,-3.07158,0.05250009,0.89652
419.771,132.469,-3.07446,0.05152638,0.89606
420.371,132.6653,-3.07571,0.05385903,0.89559
420.971,132.863,-3.07773,0.05480849,0.89513
421.571,133.059,-3.07834,0.05203763,0.89467
422.171,133.2554,-3.07833,0.05329626,0.8942
422.771,133.452,-3.07965,0.05362084,0.89374
423.371,133.649,-3.08096,0.05393323,0.89327
423.971,133.8459,-3.08128,0.05335295,0.89281
424.571,134.043,-3.08357,0.05159064,0.89234
425.171,134.241,-3.08348,0.0505524,0.89188
425.771,134.439,-3.08557,0.0497788,0.89141
426.371,134.637,-3.08722,0.05027997,0.89094
426.971,134.834,-3.08751,0.05012924,0.89047
427.571,135.033,-3.08755,0.05090181,0.89
428.171,135.231,-3.08881,0.04974706,0.88953
428.771,135.429,-3.09155,0.05027299,0.88906
429.371,135.6279,-3.09013,0.04915041,0.88859
429.971,135.826,-3.09225,0.05262315,0.88812
430.571,136.024,-3.09349,0.05118145,0.88765
431.171,136.222,-3.09479,0.05052275,0.88717
431.771,136.42,-3.09578,0.05061287,0.8867
432.371,136.617,-3.09743,0.05218241,0.88623
432.971,136.814,-3.09743,0.05305599,0.88575
433.571,137.011,-3.09939,0.05152239,0.88528
434.171,137.208,-3.09975,0.052597,0.8848
434.771,137.405,-3.10176,0.0517335,0.88432
435.371,137.602,-3.10174,0.05165272,0.88385
435.971,137.799,-3.1027,0.05082283,0.88337
436.571,137.997,-3.10434,0.05156662,0.88289
437.171,138.195,-3.10502,0.05348734,0.88241
437.771,138.393,-3.1065,0.05326817,0.88193
438.371,138.592,-3.10503,0.05521255,0.88145
438.971,138.791,-3.10878,0.05435467,0.88097
439.571,138.9897,-3.11028,0.05436249,0.88049
440.171,139.188,-3.11165,0.05199209,0.88001
440.771,139.388,-3.11258,0.05220347,0.87953
441.371,139.586,-3.11127,0.05164966,0.87904
441.971,139.784,-3.11321,0.05193726,0.87856
442.571,139.982,-3.11456,0.05276833,0.87808
443.171,140.18,-3.11589,0.05238077,0.87759
443.771,140.378,-3.11552,0.05365425,0.87711
444.371,140.5753,-3.11686,0.05206846,0.87662
444.971,140.7729,-3.11851,0.05201394,0.87613
445.571,140.97,-3.11712,0.05333265,0.87565
446.171,141.168,-3.11889,0.0509549,0.87516
446.771,141.366,-3.12114,0.04985433,0.87467
447.371,141.563,-3.12258,0.05090656,0.87418
447.971,141.7609,-3.12323,0.04853137,0.87369
448.571,141.958,-3.12377,0.05032913,0.8732
449.171,142.156,-3.12576,0.04855659,0.87271
449.771,142.3533,-3.12575,0.0485772,0.87222
450.371,142.551,-3.12575,0.04879756,0.87173
450.971,142.75,-3.12707,0.04564269,0.87124
451.571,142.949,-3.12938,0.04804228,0.87074
452.171,143.148,-3.12848,0.04630079,0.87025
452.771,143.347,-3.13114,0.04664596,0.86976
453.371,143.546,-3.13036,0.04772788,0.86926
453.971,143.745,-3.13168,0.04696634,0.86877
454.571,143.944,-3.1343,0.04588701,0.86827
455.171,144.143,-3.13369,0.04617435,0.86777
455.771,144.341,-3.13497,0.04828804,0.86728
456.371,144.54,-3.13431,0.04855128,0.86678
456.971,144.738,-3.13465,0.04718729,0.86628
457.571,144.937,-3.13696,0.04759161,0.86578
458.171,145.136,-3.1363,0.04728322,0.86528
458.771,145.333,-3.13827,0.04818106,0.86478
459.371,145.531,-3.13729,0.05050285,0.86428
459.971,145.728,-3.13855,0.04711653,0.86378
460.571,145.926,-3.13855,0.04897993,0.86328
461.171,146.125,-3.14035,0.04916655,0.86278
461.771,146.323,-3.14088,0.04946226,0.86228
462.371,146.521,-3.14089,0.0483828,0.86178
462.971,146.718,-3.14387,0.04947844,0.86127
463.571,146.915,-3.14257,0.05115728,0.86077
464.171,147.113,-3.14519,0.05087781,0.86026
464.771,147.312,-3.14518,0.05273967,0.85976
465.371,147.5104,-3.14509,0.04889569,0.85925
465.971,147.709,-3.14793,0.05041094,0.85875
466.571,147.908,-3.14815,0.04863029,0.85824
467.171,148.1068,-3.14769,0.05061472,0.85773
467.771,148.306,-3.14979,0.04929712,0.85722
468.371,148.506,-3.15107,0.04754755,0.85671
468.971,148.706,-3.1498,0.04814476,0.85621
469.571,148.9061,-3.15112,0.04930829,0.8557
470.171,149.105,-3.15112,0.04868848,0.85519
470.771,149.304,-3.1511,0.04951768,0.85467
471.371,149.502,-3.15145,0.04815167,0.85416
471.971,149.7,-3.15277,0.04992855,0.85365
472.571,149.897,-3.15345,0.04778814,0.85314
473.171,150.0952,-3.15463,0.04759508,0.85263
473.771,150.293,-3.15343,0.04780721,0.85211
474.371,150.492,-3.15605,0.04729583,0.8516
474.971,150.692,-3.15468,0.05033546,0.85108
475.571,150.891,-3.15738,0.04983203,0.85057
476.171,151.091,-3.15737,0.04921444,0.85005
476.771,151.2903,-3.15737,0.04874901,0.84954
477.371,151.489,-3.1587,0.05000023,0.84902
477.971,151.687,-3.15869,0.04813669,0.8485
478.571,151.884,-3.15868,0.04803986,0.84798
479.171,152.082,-3.15944,0.04752304,0.84747
479.771,152.279,-3.16133,0.04765341,0.84695
480.371,152.4765,-3.16248,0.04801639,0.84643
480.971,152.675,-3.16283,0.04795125,0.84591
481.571,152.875,-3.16254,0.0478118,0.84539
482.171,153.075,-3.16264,0.04655839,0.84487
482.771,153.275,-3.16409,0.04735872,0.84434
483.371,153.476,-3.16541,0.04671388,0.84382
483.971,153.675,-3.16653,0.04699883,0.8433
484.571,153.875,-3.16528,0.04710949,0.84278
485.171,154.074,-3.16738,0.04669874,0.84225
485.771,154.272,-3.1666,0.04819338,0.84173
486.371,154.471,-3.1666,0.04669474,0.8412
486.971,154.67,-3.16791,0.0480319,0.84068
487.571,154.869,-3.16791,0.04871298,0.84015
488.171,155.069,-3.16792,0.04571891,0.83963
488.771,155.268,-3.16923,0.04899272,0.8391
489.371,155.466,-3.17088,0.04670963,0.83857
489.971,155.664,-3.16847,0.04838389,0.83804
490.571,155.863,-3.17054,0.04546962,0.83751
491.171,156.061,-3.17187,0.0477038,0.83699
491.771,156.26,-3.1723,0.04577864,0.83646
492.371,156.459,-3.17351,0.04619179,0.83593
492.971,156.658,-3.17343,0.04534125,0.8354
493.571,156.856,-3.1734,0.04785721,0.83486
494.171,157.055,-3.17351,0.04664765,0.83433
494.771,157.253,-3.17361,0.0471799,0.8338
495.371,157.452,-3.17482,0.04646668,0.83327
495.971,157.653,-3.17582,0.04621378,0.83273
496.571,157.853,-3.17614,0.04716036,0.8322
497.171,158.054,-3.17734,0.0444851,0.83167
497.771,158.254,-3.17681,0.04680661,0.83113
498.371,158.453,-3.17821,0.04448083,0.8306
498.971,158.652,-3.17845,0.04635426,0.83006
499.571,158.851,-3.1778,0.04473699,0.82953
500.171,159.05,-3.17944,0.04499886,0.82899
500.771,159.248,-3.1801,0.04629999,0.82845
501.371,159.446,-3.18139,0.04829679,0.82791
501.971,159.644,-3.18012,0.04707986,0.82738
502.571,159.843,-3.18075,0.04624262,0.82684
503.171,160.041,-3.1801,0.0477836,0.8263
503.771,160.24,-3.18045,0.04664588,0.82576
504.371,160.4381,-3.18273,0.04769302,0.82522
504.971,160.637,-3.18279,0.04630952,0.82468
505.571,160.837,-3.18405,0.04703025,0.82413
506.171,161.037,-3.18275,0.04531789,0.82359
506.771,161.238,-3.18537,0.04613835,0.82305
507.371,161.438,-3.18471,0.04977312,0.82251
507.971,161.639,-3.18498,0.04817489,0.82196
508.571,161.84,-3.18599,0.04991732,0.82142
509.171,162.04,-3.18602,0.04857279,0.82088
509.771,162.2403,-3.18611,0.04830113,0.82033
510.371,162.439,-3.18734,0.04872407,0.81979
510.971,162.638,-3.18734,0.04854325,0.81924
511.571,162.837,-3.18805,0.05000131,0.81869
512.171,163.034,-3.18669,0.0483871,0.81815
512.771,163.233,-3.18931,0.05010975,0.8176
513.371,163.43,-3.18798,0.0504115,0.81705
513.971,163.629,-3.18958,0.05158398,0.81651
514.571,163.828,-3.18932,0.05081416,0.81596
515.171,164.028,-3.19031,0.04818263,0.81541
515.771,164.228,-3.19096,0.04964892,0.81486
516.371,164.428,-3.18998,0.04866727,0.81431
516.971,164.628,-3.19051,0.04916426,0.81376
517.571,164.827,-3.19134,0.04996831,0.81321
518.171,165.026,-3.19326,0.051732,0.81265
518.771,165.226,-3.19269,0.05203611,0.8121
519.371,165.426,-3.19295,0.05037322,0.81155
519.971,165.625,-3.1913,0.05107889,0.811
520.571,165.825,-3.19163,0.04913569,0.81044
521.171,166.025,-3.19297,0.0490368,0.80989
521.771,166.225,-3.19459,0.04971724,0.80933
522.371,166.425,-3.19558,0.04968952,0.80878
522.971,166.626,-3.19463,0.04782748,0.80822
523.571,166.825,-3.19591,0.04917593,0.80767
524.171,167.0257,-3.1959,0.05188759,0.80711
524.771,167.226,-3.19591,0.05148617,0.80656
525.371,167.426,-3.19737,0.04818351,0.806
525.971,167.626,-3.1959,0.04908483,0.80544
526.571,167.826,-3.19754,0.05027468,0.80488
527.171,168.026,-3.19758,0.05143171,0.80432
527.771,168.225,-3.19854,0.05008346,0.80376
528.371,168.425,-3.19855,0.0504724,0.8032
528.971,168.623,-3.1993,0.05124146,0.80264
529.571,168.8223,-3.19934,0.05185574,0.80208
530.171,169.023,-3.19857,0.05249766,0.80152
530.771,169.224,-3.19953,0.05147544,0.80096
531.371,169.425,-3.19953,0.05024564,0.8004
531.971,169.626,-3.20031,0.04909342,0.79984
532.571,169.827,-3.20122,0.05120471,0.79927
533.171,170.027,-3.20118,0.04965994,0.79871
533.771,170.226,-3.20181,0.05123307,0.79815
534.371,170.426,-3.20218,0.05017975,0.79758
534.971,170.627,-3.20176,0.04861652,0.79702
535.571,170.827,-3.20116,0.04965688,0.79645
536.171,171.027,-3.2023,0.05127626,0.79589
536.771,171.226,-3.2025,0.05084754,0.79532
537.371,171.425,-3.20358,0.0494682,0.79476
537.971,171.624,-3.20412,0.05248775,0.79419
538.571,171.823,-3.20381,0.05271557,0.79362
539.171,172.02,-3.20381,0.0517547,0.79305
539.771,172.218,-3.20448,0.05088171,0.79249
540.371,172.416,-3.20448,0.05239719,0.79192
540.971,172.615,-3.20547,0.04931409,0.79135
541.571,172.815,-3.20549,0.05068902,0.79078
542.171,173.014,-3.20677,0.04966303,0.79021
542.771,173.214,-3.20676,0.0514743,0.78964
543.371,173.414,-3.20644,0.05034945,0.78907
543.971,173.615,-3.20425,0.05069014,0.7885
544.571,173.816,-3.20645,0.04908857,0.78792
545.171,174.016,-3.20688,0.05386662,0.78735
545.771,174.217,-3.20556,0.04959403,0.78678
546.371,174.419,-3.20755,0.0529857,0.78621
546.971,174.621,-3.20755,0.05523969,0.78563
547.571,174.822,-3.20787,0.05222053,0.78506
548.171,175.0237,-3.2092,0.05317877,0.78448
548.771,175.225,-3.2092,0.05414763,0.78391
549.371,175.426,-3.2092,0.05262099,0.78333
549.971,175.625,-3.2087,0.05254155,0.78276
550.571,175.824,-3.21083,0.05361676,0.78218
551.171,176.023,-3.21083,0.05223215,0.78161
551.771,176.224,-3.21083,0.05156729,0.78103
552.371,176.424,-3.20952,0.05443908,0.78045
552.971,176.623,-3.21215,0.05470639,0.77987
553.571,176.823,-3.21545,0.05419176,0.7793
554.171,177.022,-3.21062,0.05486073,0.77872
554.771,177.22,-3.21219,0.0572038,0.77814
555.371,177.4194,-3.2136,0.05531172,0.77756
555.971,177.618,-3.21358,0.05463331,0.77698
556.571,177.82,-3.21227,0.05321773,0.7764
557.171,178.02,-3.21327,0.05191774,0.77582
557.771,178.222,-3.21194,0.05117366,0.77524
558.371,178.422,-3.21326,0.05050788,0.77465
558.971,178.622,-3.21434,0.05007598,0.77407
559.571,178.822,-3.21723,0.05205443,0.77349
560.171,179.023,-3.2137,0.05226633,0.77291
560.771,179.225,-3.21341,0.04935786,0.77232
561.371,179.426,-3.21567,0.05178843,0.77174
561.971,179.627,-3.21468,0.05061298,0.77116
562.571,179.826,-3.21611,0.04963811,0.77057
563.171,180.027,-3.21468,0.05239702,0.76999
563.771,180.227,-3.21565,0.05366664,0.7694
564.371,180.428,-3.21567,0.051799,0.76882
564.971,180.629,-3.21565,0.05343454,0.76823
565.571,180.83,-3.21534,0.05162698,0.76764
566.171,181.0299,-3.21522,0.05349725,0.76706
566.771,181.23,-3.21666,0.05301879,0.76647
567.371,181.43,-3.21666,0.05383862,0.76588
567.971,181.629,-3.217,0.05302396,0.76529
568.571,181.83,-3.21699,0.054168,0.76471
569.171,182.03,-3.21731,0.05227603,0.76412
569.771,182.23,-3.2183,0.05124058,0.76353
570.371,182.43,-3.21698,0.05230686,0.76294
570.971,182.63,-3.21644,0.05255458,0.76235
571.571,182.83,-3.21831,0.05609113,0.76176
572.171,183.031,-3.2183,0.05207273,0.76117
572.771,183.233,-3.2183,0.0547667,0.76058
573.371,183.434,-3.21861,0.05406933,0.75999
573.971,183.636,-3.21859,0.05448577,0.75939
574.571,183.839,-3.21924,0.05523196,0.7588
575.171,184.041,-3.21928,0.05536099,0.75821
575.771,184.242,-3.21926,0.05877855,0.75762
576.371,184.4429,-3.22061,0.05707604,0.75702
576.971,184.6431,-3.22059,0.05681236,0.75643
577.571,184.8427,-3.21903,0.05508017,0.75583
578.171,185.043,-3.21995,0.05652542,0.75524
578.771,185.243,-3.21864,0.05504209,0.75464
579.371,185.443,-3.221,0.05163458,0.75405
579.971,185.644,-3.22089,0.0524162,0.75345
580.571,185.845,-3.2212,0.05207052,0.75286
581.171,186.0448,-3.22061,0.05314816,0.75226
581.771,186.245,-3.22015,0.05409182,0.75166
582.371,186.445,-3.22292,0.0543406,0.75107
582.971,186.646,-3.22094,0.05303406,0.75047
583.571,186.846,-3.22028,0.05395276,0.74987
584.171,187.046,-3.2203,0.05505752,0.74927
584.771,187.246,-3.22094,0.05552387,0.74868
585.371,187.446,-3.22323,0.05689689,0.74808
585.971,187.648,-3.22325,0.05434335,0.74748
586.571,187.85,-3.22424,0.05402973,0.74688
587.171,188.051,-3.2216,0.05574645,0.74628
587.771,188.253,-3.22259,0.0532473,0.74568
588.371,188.454,-3.22291,0.05606064,0.74508
588.971,188.656,-3.22443,0.05912144,0.74448
589.571,188.857,-3.22527,0.05769534,0.74387
590.171,189.059,-3.22391,0.05994782,0.74327
590.771,189.26,-3.22454,0.05909323,0.74267
591.371,189.462,-3.22328,0.05410367,0.74207
591.971,189.663,-3.22456,0.05515759,0.74146
592.571,189.864,-3.22718,0.05642726,0.74086
593.171,190.065,-3.22555,0.05569752,0.74026
593.771,190.265,-3.22423,0.05482477,0.73965
594.371,190.466,-3.22552,0.05380486,0.73905
594.971,190.667,-3.22588,0.05333336,0.73844
595.571,190.868,-3.22561,0.05785499,0.73784
596.171,191.068,-3.22687,0.05731178,0.73723
596.771,191.2688,-3.22555,0.05496361,0.73663
597.371,191.47,-3.22555,0.05637634,0.73602
597.971,191.671,-3.22654,0.05725142,0.73542
598.571,191.872,-3.22793,0.05510554,0.73481
599.171,192.073,-3.22662,0.05735795,0.7342
599.771,192.273,-3.2264,0.057624,0.7336
600.371,192.474,-3.22654,0.05586831,0.73299
600.971,192.676,-3.2275,0.05797598,0.73238
601.571,192.878,-3.22769,0.05903246,0.73177
602.171,193.079,-3.22785,0.05779056,0.73116
602.771,193.28,-3.22653,0.05998368,0.73055
603.371,193.481,-3.22653,0.0573565,0.72995
603.971,193.682,-3.22909,0.05948776,0.72934
604.571,193.883,-3.22785,0.05952607,0.72873
605.171,194.084,-3.22818,0.05983525,0.72812
605.771,194.285,-3.22719,0.0601996,0.7275
606.371,194.486,-3.22998,0.06049061,0.72689
606.971,194.687,-3.22884,0.06035981,0.72628
607.571,194.888,-3.22883,0.05875431,0.72567
608.171,195.089,-3.22884,0.05788852,0.72506
608.771,195.29,-3.22884,0.05483366,0.72445
609.371,195.492,-3.22996,0.05638825,0.72383
609.971,195.694,-3.22979,0.0580842,0.72322
610.571,195.896,-3.23045,0.05803348,0.72261
611.171,196.097,-3.22977,0.05771933,0.722
611.771,196.299,-3.23016,0.05700145,0.72138
612.371,196.4996,-3.22982,0.05831515,0.72077
612.971,196.701,-3.22852,0.05783772,0.72015
613.571,196.902,-3.23115,0.05610718,0.71954
614.171,197.103,-3.22978,0.05554367,0.71892
614.771,197.304,-3.23102,0.05497227,0.71831
615.371,197.505,-3.22914,0.05655268,0.71769
615.971,197.705,-3.23114,0.05637501,0.71708
616.571,197.906,-3.23114,0.05352877,0.71646
617.171,198.108,-3.22984,0.05398746,0.71584
617.771,198.309,-3.23155,0.05318453,0.71523
618.371,198.511,-3.23114,0.05189429,0.71461
618.971,198.713,-3.23115,0.04994497,0.71399
619.571,198.915,-3.23115,0.05069076,0.71338
620.171,199.116,-3.23148,0.05149485,0.71276
620.771,199.318,-3.23314,0.05164107,0.71214
621.371,199.518,-3.23182,0.05145516,0.71152
621.971,199.718,-3.23154,0.04702427,0.7109
622.571,199.918,-3.23312,0.04527247,0.71028
623.171,200.1188,-3.23168,0.04854822,0.70966
623.771,200.32,-3.23177,0.04579287,0.70904
624.371,200.52,-3.22863,0.04431373,0.70842
624.971,200.7213,-3.22453,0.04471996,0.7078
625.571,200.922,-3.22859,0.04759573,0.70718
626.171,201.123,-3.23517,0.04954047,0.70656
626.771,201.325,-3.23537,0.04704014,0.70594
627.371,201.527,-3.23313,0.04851657,0.70532
627.971,201.73,-3.2318,0.04999571,0.7047
628.571,201.932,-3.23324,0.04535303,0.70408
629.171,202.135,-3.23315,0.04452782,0.70345
629.771,202.337,-3.22879,0.0411166,0.70283
630.371,202.538,-3.23036,0.04158789,0.70221
630.971,202.739,-3.24193,0.04694294,0.70159
631.571,202.94,-3.24844,0.05178562,0.70096
632.171,203.142,-3.23636,0.04583894,0.70034
632.771,203.344,-3.23488,0.04656288,0.69971
633.371,203.546,-3.23621,0.04844047,0.69909
633.971,203.749,-3.23388,0.04699944,0.69847
634.571,203.952,-3.23358,0.04634619,0.69784
635.171,204.153,-3.23455,0.04842101,0.69722
635.771,204.354,-3.23554,0.04880063,0.69659
636.371,204.554,-3.23411,0.0477476,0.69597
636.971,204.755,-3.23455,0.04546015,0.69534
637.571,204.956,-3.23455,0.04208512,0.69471
638.171,205.157,-3.23455,0.04508714,0.69409
638.771,205.357,-3.23587,0.04478289,0.69346
639.371,205.558,-3.23571,0.04585799,0.69284
639.971,205.759,-3.23554,0.04542947,0.69221
640.571,205.96,-3.23553,0.04634993,0.69158
641.171,206.161,-3.23685,0.04384328,0.69095
641.771,206.362,-3.23552,0.04355734,0.69033
642.371,206.5642,-3.23456,0.04350612,0.6897
642.971,206.766,-3.23652,0.04308209,0.68907
643.571,206.968,-3.23587,0.04540204,0.68844
644.171,207.169,-3.23716,0.0428396,0.68781
644.771,207.371,-3.23619,0.04520706,0.68718
645.371,207.573,-3.23553,0.04271186,0.68655
645.971,207.776,-3.23652,0.04210818,0.68593
646.571,207.979,-3.23652,0.0404099,0.6853
647.171,208.182,-3.2352,0.03834091,0.68467
647.771,208.384,-3.23686,0.0384571,0.68404
648.371,208.586,-3.23719,0.03947619,0.68341
648.971,208.787,-3.23817,0.04301535,0.68278
649.571,208.988,-3.23817,0.03930714,0.68214
650.171,209.1898,-3.23721,0.03838817,0.68151
650.771,209.391,-3.23918,0.0380288,0.68088
651.371,209.593,-3.23784,0.03642979,0.68025
651.971,209.794,-3.23785,0.03637446,0.67962
652.571,209.996,-3.23924,0.03393027,0.67899
653.171,210.197,-3.24068,0.03757946,0.67835
653.771,210.399,-3.24052,0.03678548,0.67772
654.371,210.601,-3.23883,0.03424587,0.67709
654.971,210.803,-3.23986,0.03696597,0.67646
655.571,211.006,-3.23804,0.03808627,0.67582
656.171,211.208,-3.23957,0.0359338,0.67519
656.771,211.41,-3.24093,0.03628775,0.67456
657.371,211.612,-3.23953,0.03820621,0.67392
657.971,211.8131,-3.24048,0.03908348,0.67329
658.571,212.014,-3.23945,0.03406562,0.67266
659.171,212.216,-3.24175,0.03232147,0.67202
659.771,212.417,-3.24213,0.03037314,0.67139
660.371,212.619,-3.23983,0.02761848,0.67075
660.971,212.821,-3.24121,0.02841872,0.67012
661.571,213.022,-3.24116,0.02813177,0.66948
662.171,213.223,-3.24256,0.0273182,0.66885
662.771,213.424,-3.24246,0.02604825,0.66821
663.371,213.6248,-3.24082,0.02517087,0.66757
663.971,213.826,-3.24252,0.02122264,0.66694
664.571,214.028,-3.24278,0.02036334,0.6663
665.171,214.23,-3.24278,0.01974911,0.66567
665.771,214.431,-3.24278,0.01602986,0.66503
666.371,214.634,-3.24278,0.01283669,0.66439
666.971,214.835,-3.24146,0.0130126,0.66376
667.571,215.038,-3.24378,0.009472735,0.66312
668.171,215.241,-3.24377,0.008865599,0.66248
668.771,215.444,-3.24247,0.01053333,0.66184
669.371,215.646,-3.24311,0.008541524,0.66121
669.971,215.8488,-3.24383,0.00726206,0.66057
670.571,216.051,-3.24377,0.007197475,0.65993
671.171,216.253,-3.24483,0.006652298,0.65929
671.771,216.455,-3.2441,0.00692397,0.65865
672.371,216.657,-3.2426,0.004213585,0.65801
672.971,216.8591,-3.2451,0.00535413,0.65738
673.571,217.062,-3.24393,0.00643179,0.65674
674.171,217.265,-3.24509,0.008786232,0.6561
674.771,217.4681,-3.24582,0.00784069,0.65546
675.371,217.67,-3.24544,0.00600167,0.65482
675.971,217.871,-3.24411,0.005118687,0.65418
676.571,218.072,-3.24608,0.003357118,0.65354
677.171,218.274,-3.2464,0.00227377,0.6529
677.771,218.476,-3.2464,0.001583279,0.65226
678.371,218.678,-3.2464,0.000703075,0.65162
678.971,218.88,-3.2465,-0.001553545,0.65098
679.571,219.083,-3.24772,-0.001720239,0.65034
680.171,219.284,-3.24641,-0.002592376,0.6497
680.771,219.485,-3.24641,-0.000807831,0.64906
681.371,219.687,-3.24707,-0.002530451,0.64841
681.971,219.888,-3.24707,-0.001019432,0.64777
682.571,220.09,-3.24773,0.000272093,0.64713
683.171,220.292,-3.24703,-0.000466848,0.64649
683.771,220.493,-3.2491,-0.002550728,0.64585
684.371,220.696,-3.24905,-0.005263706,0.64521
684.971,220.898,-3.24904,-0.007945331,0.64456
685.571,221.101,-3.24872,-0.00936929,0.64392
686.171,221.304,-3.24868,-0.007948035,0.64328
686.771,221.5067,-3.25003,-0.007333477,0.64264
687.371,221.709,-3.24903,-0.006598849,0.64199
687.971,221.912,-3.24987,-0.0072077,0.64135
688.571,222.115,-3.25036,-0.008681132,0.64071
689.171,222.3163,-3.25036,-0.01104576,0.64006
689.771,222.518,-3.2497,-0.01152889,0.63942
690.371,222.719,-3.24971,-0.01226253,0.63878
690.971,222.92,-3.24926,-0.007093928,0.63813
691.571,223.121,-3.25142,-0.007940324,0.63749
692.171,223.322,-3.25245,-0.006652975,0.63685
692.771,223.525,-3.25102,-0.001989608,0.6362
693.371,223.726,-3.25234,-0.00446357,0.63556
693.971,223.9276,-3.2532,-0.003836575,0.63491
694.571,224.129,-3.25168,-0.001005905,0.63427
695.171,224.332,-3.25102,-0.0007913264,0.63362
695.771,224.534,-3.25069,0.002399542,0.63298
696.371,224.736,-3.25337,0.005486836,0.63233
696.971,224.938,-3.25332,0.003154728,0.63169
697.571,225.14,-3.25335,0.004485404,0.63104
698.171,225.341,-3.25266,0.00590628,0.6304
698.771,225.543,-3.25364,0.002640967,0.62975
699.371,225.745,-3.25531,0.00346787,0.62911
699.971,225.947,-3.25431,0.00543047,0.62846
700.571,226.149,-3.25498,0.002450125,0.62782
701.171,226.351,-3.254,-1.26708e-05,0.62717
701.771,226.553,-3.25463,0.0007166546,0.62652
702.071,226.655,-3.25529,0.001390098,0.6262