File: 01_Data/Latex_Pillow_Outer_Fabric/STA/N2/10K_min/Latex_Pillow_Outer_Fabric_A_STA_N2_10KData_220801_R1.csv
##Temp./Â°C,Time/min,Mass loss(subtr.2)/mg,DSC(subtr.2)/mW,Sensit./(uV/mW)
49.387,10.00917,0.00396,3.21E-02,1.07026
49.887,10.69117,0.005236073,8.77E-02,1.07013
50.387,10.86957,0.004848278,0.14699,1.06999
50.887,11.00031,0.005486915,0.18418,1.06985
51.387,11.10843,0.007072755,0.21146,1.06971
51.887,11.20394,0.004866591,0.25584,1.06958
52.387,11.29087,0.005215792,0.27357,1.06944
52.887,11.37214,0.005242514,0.29699,1.0693
53.387,11.44895,0.005391132,0.31335,1.06916
53.887,11.52165,0.005419129,0.33298,1.06902
54.387,11.59132,0.0056626,0.34951,1.06888
54.887,11.65849,0.005540991,0.3682,1.06874
55.387,11.724,0.005013892,0.37237,1.0686
55.887,11.78813,0.005839811,0.38816,1.06846
56.387,11.85126,0.005686372,0.39254,1.06832
56.887,11.91272,0.006186392,0.3981,1.06818
57.387,11.9731,0.005817757,0.4104,1.06804
57.887,12.03263,0.005396322,0.41979,1.0679
58.387,12.09139,0.004316322,0.42284,1.06776
58.887,12.15018,0.00442493,0.42625,1.06761
59.387,12.20789,0.004849147,0.42903,1.06747
59.887,12.26536,0.00569061,0.43397,1.06733
60.387,12.32233,0.005455524,0.44097,1.06719
60.887,12.37876,0.005600563,0.43971,1.06704
61.387,12.43512,0.006667991,0.44306,1.0669
61.887,12.49089,0.006414026,0.44421,1.06676
62.387,12.54656,0.006479444,0.44736,1.06661
62.887,12.60165,0.007059354,0.44838,1.06647
63.387,12.65684,0.006237998,0.45001,1.06633
63.887,12.71178,0.005600076,0.45214,1.06618
64.387,12.76656,0.005696875,0.46367,1.06604
64.887,12.82127,0.006533091,0.46219,1.06589
65.387,12.87578,0.005612886,0.46568,1.06575
65.887,12.93012,0.005685864,0.47045,1.0656
66.387,12.98436,0.005917099,0.473,1.06546
66.887,13.03832,0.005708286,0.47655,1.06531
67.387,13.09216,0.006732072,0.48019,1.06516
67.887,13.14603,0.005713381,0.48777,1.06502
68.387,13.19972,0.00702814,0.48871,1.06487
68.887,13.25364,0.005747076,0.49145,1.06472
69.387,13.30731,0.005847344,0.49127,1.06458
69.887,13.36054,0.006965745,0.49317,1.06443
70.387,13.41382,0.005710195,0.49118,1.06428
70.887,13.46706,0.006869536,0.49395,1.06413
71.387,13.52032,0.006461448,0.48505,1.06399
71.887,13.57366,0.007025529,0.4895,1.06384
72.387,13.62692,0.007068698,0.49143,1.06369
72.887,13.67986,0.007029907,0.48482,1.06354
73.387,13.73237,0.006762555,0.47643,1.06339
73.887,13.7852,0.006552255,0.46895,1.06324
74.387,13.8375,0.007019452,0.45261,1.06309
74.887,13.88986,0.007018559,0.44668,1.06294
75.387,13.94229,0.006911609,0.43891,1.06279
75.887,13.99445,0.007031814,0.42577,1.06264
76.387,14.04668,0.008332812,0.41298,1.06249
76.887,14.09884,0.007388404,0.40713,1.06234
77.387,14.15078,0.007022665,0.39918,1.06219
77.887,14.20248,0.007006128,0.38219,1.06203
78.387,14.25418,0.007030101,0.37631,1.06188
78.887,14.30578,0.006977255,0.36896,1.06173
79.387,14.35748,0.006696248,0.36451,1.06158
79.887,14.40905,0.007031584,0.36083,1.06142
80.387,14.46066,0.006966438,0.35352,1.06127
80.887,14.51197,0.007919111,0.34357,1.06112
81.387,14.56323,0.007056802,0.34204,1.06096
81.887,14.61401,0.006941908,0.33793,1.06081
82.387,14.66486,0.008350284,0.33965,1.06066
82.887,14.71595,0.007299164,0.32572,1.0605
83.387,14.76668,0.008327263,0.32836,1.06035
83.887,14.81784,0.008340309,0.33134,1.06019
84.387,14.86859,0.007019272,0.3281,1.06004
84.887,14.9191,0.008350712,0.32825,1.05988
85.387,14.96986,0.007078782,0.31913,1.05973
85.887,15.02048,0.008350035,0.3196,1.05957
86.387,15.07101,0.006953141,0.3186,1.05941
86.887,15.12131,0.008355469,0.323,1.05926
87.387,15.17142,0.008349964,0.31516,1.0591
87.887,15.22135,0.0083698,0.31624,1.05894
88.387,15.27141,0.008342817,0.30929,1.05879
88.887,15.32138,0.00833978,0.31419,1.05863
89.387,15.37174,0.008540263,0.31108,1.05847
89.887,15.42161,0.008517008,0.30281,1.05831
90.387,15.47125,0.008348439,0.30549,1.05816
90.887,15.52094,0.009708565,0.30345,1.058
91.387,15.57069,0.00969837,0.29742,1.05784
91.887,15.62027,0.008348206,0.29422,1.05768
92.387,15.67018,0.009301059,0.29613,1.05752
92.887,15.72013,0.009006616,0.29039,1.05736
93.387,15.76984,0.008347365,0.29065,1.0572
93.887,15.81956,0.009664911,0.29017,1.05704
94.387,15.86888,0.008340672,0.29158,1.05688
94.887,15.91839,0.008339963,0.28609,1.05672
95.387,15.96773,0.008587066,0.28579,1.05656
95.887,16.01711,0.009329974,0.28633,1.0564
96.387,16.06693,0.008534544,0.28764,1.05624
96.887,16.11645,0.008391658,0.28904,1.05607
97.387,16.16582,0.008352199,0.28592,1.05591
97.887,16.21492,0.008350005,0.28576,1.05575
98.387,16.2643,0.008343625,0.28888,1.05559
98.887,16.3135,0.009677344,0.29565,1.05542
99.387,16.36277,0.00949949,0.29455,1.05526
99.887,16.41207,0.008351524,0.2985,1.0551
100.387,16.46127,0.009173844,0.29603,1.05493
100.887,16.51022,0.009661502,0.2989,1.05477
101.387,16.55907,0.008340398,0.29872,1.05461
101.887,16.60816,0.008338966,0.30335,1.05444
102.387,16.65714,0.007040078,0.3047,1.05428
102.887,16.70626,0.007170755,0.30533,1.05411
103.387,16.75605,0.008348328,0.30453,1.05395
103.887,16.80492,0.008881476,0.30712,1.05378
104.387,16.85396,0.008684172,0.31304,1.05362
104.887,16.90302,0.008599525,0.31406,1.05345
105.387,16.95187,0.00932822,0.31671,1.05328
105.887,17.0008,0.009660672,0.32472,1.05312
106.387,17.0497,0.008327444,0.32172,1.05295
106.887,17.09853,0.009660747,0.33051,1.05278
107.387,17.14728,0.009660024,0.32725,1.05262
107.887,17.19604,0.0095274,0.33144,1.05245
108.387,17.24514,0.008339831,0.33621,1.05228
108.887,17.29389,0.008881404,0.33129,1.05211
109.387,17.34292,0.00867979,0.33911,1.05194
109.887,17.39189,0.008674888,0.34429,1.05177
110.387,17.44082,0.008348173,0.3363,1.05161
110.887,17.48974,0.0083501,0.3462,1.05144
111.387,17.53857,0.008959914,0.35202,1.05127
111.887,17.58726,0.008425741,0.35069,1.0511
112.387,17.63597,0.008349985,0.35611,1.05093
112.887,17.68463,0.00823928,0.35786,1.05076
113.387,17.73335,0.008674699,0.35526,1.05059
113.887,17.78211,0.008691275,0.36078,1.05042
114.387,17.83094,0.008340688,0.36593,1.05024
114.887,17.87962,0.00699656,0.36342,1.05007
115.387,17.92834,0.007017011,0.36811,1.0499
115.887,17.97704,0.008342853,0.36897,1.04973
116.387,18.02579,0.008340451,0.36867,1.04956
116.887,18.07448,0.007922437,0.36826,1.04938
117.387,18.12312,0.00834828,0.37827,1.04921
117.887,18.17183,0.008349638,0.37255,1.04904
118.387,18.22055,0.007997537,0.37582,1.04887
118.887,18.26927,0.008019941,0.37829,1.04869
119.387,18.31797,0.009310686,0.37532,1.04852
119.887,18.36671,0.0083324,0.37933,1.04834
120.387,18.41551,0.007735528,0.37537,1.04817
120.887,18.46422,0.006524325,0.38238,1.04799
121.387,18.51293,0.007411187,0.36931,1.04782
121.887,18.56144,0.007360836,0.3719,1.04764
122.387,18.60995,0.008521461,0.37098,1.04747
122.887,18.65854,0.009905103,0.38218,1.04729
123.387,18.70731,0.00852567,0.38772,1.04712
123.887,18.75613,0.00788637,0.39198,1.04694
124.387,18.80481,0.008558285,0.39449,1.04676
124.887,18.85349,0.008570856,0.40231,1.04659
125.387,18.90211,0.009471358,0.40399,1.04641
125.887,18.95057,0.009892015,0.40932,1.04623
126.387,18.99909,0.008570327,0.4055,1.04606
126.887,19.04763,0.008569989,0.41279,1.04588
127.387,19.09588,0.00857001,0.41503,1.0457
127.887,19.14415,0.008563098,0.42657,1.04552
128.387,19.19269,0.009896921,0.42383,1.04534
128.887,19.24112,0.009889942,0.4205,1.04516
129.387,19.2895,0.009895276,0.42704,1.04498
129.887,19.33801,0.008570939,0.42402,1.0448
130.387,19.38626,0.009749918,0.42701,1.04462
130.887,19.43452,0.009788471,0.43403,1.04444
131.387,19.48275,0.01014881,0.42725,1.04426
131.887,19.53094,0.01021006,0.43048,1.04408
132.387,19.57943,0.01020997,0.43422,1.0439
132.887,19.62787,0.009912742,0.43248,1.04372
133.387,19.67626,0.009880378,0.43839,1.04354
133.887,19.72479,0.008487576,0.43922,1.04336
134.387,19.77285,0.008571518,0.44832,1.04318
134.887,19.82101,0.00987017,0.44415,1.04299
135.387,19.86908,0.009893617,0.44782,1.04281
135.887,19.91725,0.009230118,0.44481,1.04263
136.387,19.96534,0.00866245,0.4448,1.04245
136.887,20.01344,0.008569651,0.44557,1.04226
137.387,20.06172,0.008672249,0.44776,1.04208
137.887,20.10994,0.008575154,0.45202,1.04189
138.387,20.15827,0.00857001,0.45783,1.04171
138.887,20.20649,0.00857,0.45131,1.04153
139.387,20.25468,0.008569973,0.45115,1.04134
139.887,20.30271,0.008583856,0.45586,1.04116
140.387,20.35088,0.009569736,0.45226,1.04097
140.887,20.39896,0.01087221,0.45671,1.04079
141.387,20.44711,0.01086999,0.45188,1.0406
141.887,20.49541,0.01076311,0.45029,1.04041
142.387,20.54344,0.009557686,0.45499,1.04023
142.887,20.59156,0.008224089,0.45794,1.04004
143.387,20.63964,0.008230153,0.4585,1.03985
143.887,20.68802,0.009114978,0.45497,1.03967
144.387,20.73607,0.009549919,0.46185,1.03948
144.887,20.78435,0.009549064,0.45362,1.03929
145.387,20.83254,0.008626071,0.46367,1.0391
145.887,20.88096,0.008246333,0.45256,1.03891
146.387,20.92923,0.008900189,0.45834,1.03873
146.887,20.97747,0.008706245,0.46703,1.03854
147.387,21.02542,0.008245177,0.46241,1.03835
147.887,21.07337,0.00823988,0.45933,1.03816
148.387,21.12115,0.008277567,0.46628,1.03797
148.887,21.169,0.006920053,0.47268,1.03778
149.387,21.21714,0.006920004,0.47166,1.03759
149.887,21.26519,0.006915645,0.46281,1.0374
150.387,21.31304,0.007926731,0.46748,1.03721
150.887,21.36129,0.007910001,0.46671,1.03701
151.387,21.40909,0.007910452,0.47386,1.03682
151.887,21.45672,0.008239574,0.46555,1.03663
152.387,21.50497,0.006934554,0.47371,1.03644
152.887,21.55291,0.008237535,0.47504,1.03625
153.387,21.60078,0.008229993,0.47242,1.03605
153.887,21.64909,0.00823,0.478,1.03586
154.387,21.69686,0.00823,0.46989,1.03567
154.887,21.74488,0.00822999,0.47172,1.03548
155.387,21.79273,0.008234933,0.47812,1.03528
155.887,21.84067,0.006894912,0.4747,1.03509
156.387,21.88865,0.007580415,0.47254,1.03489
156.887,21.93644,0.006477722,0.47988,1.0347
157.387,21.98427,0.006254327,0.48257,1.0345
157.887,22.03205,0.00831441,0.47044,1.03431
158.387,22.0798,0.00823995,0.4767,1.03411
158.887,22.12758,0.008222185,0.477,1.03392
159.387,22.17548,0.006869305,0.47899,1.03372
159.887,22.22331,0.00824372,0.46622,1.03353
160.387,22.27108,0.008239996,0.47126,1.03333
160.887,22.31906,0.00824,0.4741,1.03313
161.387,22.36711,0.008239993,0.47344,1.03294
161.887,22.41507,0.008246947,0.46827,1.03274
162.387,22.46308,0.006932912,0.47438,1.03254
162.887,22.51088,0.008228862,0.47274,1.03234
163.387,22.55861,0.008229999,0.4716,1.03215
163.887,22.60628,0.008230351,0.47008,1.03195
164.387,22.65405,0.007909689,0.4729,1.03175
164.887,22.70146,0.007144797,0.47139,1.03155
165.387,22.74946,0.006909979,0.47351,1.03135
165.887,22.79738,0.006910014,0.47122,1.03115
166.387,22.84534,0.006896245,0.47264,1.03095
166.887,22.89364,0.005613597,0.47274,1.03075
167.387,22.94146,0.005632024,0.47465,1.03055
167.887,22.98904,0.006590086,0.47316,1.03035
168.387,23.03702,0.006589997,0.46958,1.03015
168.887,23.08475,0.00658999,0.469,1.02995
169.387,23.13251,0.006594859,0.47213,1.02975
169.887,23.1807,0.007245206,0.47505,1.02954
170.387,23.22849,0.007249706,0.46765,1.02934
170.887,23.27612,0.006994211,0.46208,1.02914
171.387,23.32397,0.005599557,0.47161,1.02894
171.887,23.37202,0.0056,0.47232,1.02873
172.387,23.41995,0.005600005,0.47397,1.02853
172.887,23.46792,0.005603993,0.46714,1.02833
173.387,23.51582,0.00427544,0.47151,1.02812
173.887,23.56347,0.004280005,0.47373,1.02792
174.387,23.61122,0.004281487,0.47542,1.02771
174.887,23.65898,0.002965048,0.47378,1.02751
175.387,23.70682,0.004283058,0.47324,1.02731
175.887,23.75487,0.004279992,0.47642,1.0271
176.387,23.80277,0.00428,0.48157,1.02689
176.887,23.85073,0.004279997,0.48011,1.02669
177.387,23.89861,0.004279419,0.48015,1.02648
177.887,23.94616,0.002975616,0.47709,1.02628
178.387,23.99387,0.00295182,0.48189,1.02607
178.887,24.04156,0.003145253,0.4785,1.02586
179.387,24.08928,0.002969997,0.47754,1.02566
179.887,24.13721,0.00297,0.47634,1.02545
180.387,24.18491,0.002970001,0.48038,1.02524
180.887,24.23263,0.002969528,0.48372,1.02503
181.387,24.28048,0.002618603,0.48381,1.02482
181.887,24.32824,0.002640202,0.48358,1.02462
182.387,24.37616,0.00195075,0.47675,1.02441
182.887,24.42408,0.001320128,0.47752,1.0242
183.387,24.47175,0.001319833,0.48416,1.02399
183.887,24.51951,0.000968228,0.48145,1.02378
184.387,24.56673,0.000330583,0.48258,1.02357
184.887,24.61412,0.000330011,0.48383,1.02336
185.387,24.66177,0.000325,0.48054,1.02315
185.887,24.70955,2.80E-06,0.48922,1.02294
186.387,24.75738,-0.001315037,0.48841,1.02272
186.887,24.80569,-0.000518189,0.48319,1.02251
187.387,24.85361,-0.000374742,0.49063,1.0223
187.887,24.90142,0.0009932,0.49047,1.02209
188.387,24.94893,0.000990001,0.48825,1.02188
188.887,24.99649,0.000989933,0.49234,1.02166
189.387,25.04399,0.001037516,0.4917,1.02145
189.887,25.09161,-0.000333321,0.49171,1.02124
190.387,25.13933,-0.00033,0.49612,1.02102
190.887,25.18702,-0.000329571,0.49234,1.02081
191.387,25.23419,-0.001738372,0.49531,1.0206
191.887,25.28172,-0.001649943,0.49809,1.02038
192.387,25.32925,-0.001648815,0.49582,1.02017
192.887,25.37695,-0.002267498,0.49652,1.01995
193.387,25.42488,-0.002388006,0.49535,1.01974
193.887,25.47259,-0.003643158,0.4919,1.01952
194.387,25.52044,-0.003290415,0.49189,1.01931
194.887,25.56773,-0.003290024,0.48823,1.01909
195.387,25.61548,-0.003264028,0.4988,1.01887
195.887,25.663,-0.001971848,0.49277,1.01866
196.387,25.71045,-0.001969999,0.49808,1.01844
196.887,25.75812,-0.001970036,0.49679,1.01822
197.387,25.80565,-0.00191792,0.49969,1.01801
197.887,25.8531,-0.003287663,0.4938,1.01779
198.387,25.90098,-0.004258048,0.49962,1.01757
198.887,25.9487,-0.004279988,0.49584,1.01735
199.387,25.99636,-0.004280475,0.50064,1.01713
199.887,26.04393,-0.003845017,0.49532,1.01691
200.387,26.09155,-0.00296012,0.49602,1.01669
200.887,26.13924,-0.00296,0.4954,1.01647
201.387,26.18654,-0.002959543,0.50517,1.01625
201.887,26.23408,-0.004371505,0.5037,1.01603
202.387,26.28165,-0.004279879,0.50591,1.01581
202.887,26.32904,-0.00428,0.50332,1.01559
203.387,26.37666,-0.00428,0.50461,1.01537
203.887,26.42424,-0.00428,0.49856,1.01515
204.387,26.47178,-0.00428,0.49666,1.01493
204.887,26.51942,-0.00428,0.49465,1.01471
205.387,26.56697,-0.004279971,0.49365,1.01448
205.887,26.61471,-0.004304565,0.4935,1.01426
206.387,26.66244,-0.004671536,0.49277,1.01404
206.887,26.70997,-0.004281896,0.49661,1.01382
207.387,26.75742,-0.005617207,0.49388,1.01359
207.887,26.805,-0.005594299,0.4932,1.01337
208.387,26.85215,-0.006910198,0.49125,1.01315
208.887,26.89961,-0.00589199,0.4942,1.01292
209.387,26.94733,-0.005590108,0.49837,1.0127
209.887,26.99499,-0.00559,0.50356,1.01247
210.387,27.04282,-0.005589984,0.49812,1.01225
210.887,27.09075,-0.005595005,0.49869,1.01202
211.387,27.13835,-0.004602406,0.49369,1.0118
211.887,27.18596,-0.004600107,0.50104,1.01157
212.387,27.2335,-0.005385189,0.50025,1.01134
212.887,27.28122,-0.006997264,0.50476,1.01112
213.387,27.32875,-0.006906212,0.49897,1.01089
213.887,27.37643,-0.005922363,0.4968,1.01066
214.387,27.42407,-0.005919994,0.50842,1.01044
214.887,27.47174,-0.005919999,0.50199,1.01021
215.387,27.51939,-0.005920068,0.5098,1.00998
215.887,27.56696,-0.007282258,0.50642,1.00975
216.387,27.61464,-0.007239882,0.51397,1.00952
216.887,27.66213,-0.00724,0.49653,1.00929
217.387,27.70973,-0.00724,0.49588,1.00907
217.887,27.75731,-0.007239999,0.50857,1.00884
218.387,27.80487,-0.007240969,0.50498,1.00861
218.887,27.85232,-0.008162889,0.50415,1.00838
219.387,27.89983,-0.007589933,0.50908,1.00815
219.887,27.94728,-0.007580054,0.53118,1.00791
220.387,27.99484,-0.00758,0.53278,1.00768
220.887,28.04242,-0.007580007,0.52691,1.00745
221.387,28.09005,-0.007578836,0.53791,1.00722
221.887,28.13761,-0.008882545,0.51854,1.00699
222.387,28.18511,-0.008662303,0.53814,1.00676
222.887,28.2326,-0.007251744,0.54073,1.00652
223.387,28.2803,-0.007249226,0.54642,1.00629
223.887,28.32795,-0.008516134,0.53205,1.00606
224.387,28.37554,-0.008560228,0.52933,1.00583
224.887,28.42304,-0.008520364,0.53255,1.00559
225.387,28.47046,-0.007241124,0.54554,1.00536
225.887,28.51783,-0.00723998,0.54384,1.00512
226.387,28.56546,-0.007348057,0.54693,1.00489
226.887,28.61312,-0.008558134,0.55046,1.00465
227.387,28.66074,-0.008560002,0.54853,1.00442
227.887,28.7084,-0.00856,0.56153,1.00418
228.387,28.75593,-0.008559691,0.56469,1.00395
228.887,28.80328,-0.007933705,0.57755,1.00371
229.387,28.85088,-0.007569766,0.57654,1.00348
229.887,28.89835,-0.00757,0.58128,1.00324
230.387,28.94568,-0.00757,0.58611,1.003
230.887,28.99335,-0.00757,0.59277,1.00277
231.387,29.04081,-0.007569989,0.59556,1.00253
231.887,29.0883,-0.007567039,0.59978,1.00229
232.387,29.13602,-0.00889441,0.61962,1.00205
232.887,29.18353,-0.008889999,0.61987,1.00181
233.387,29.23102,-0.008887516,0.6332,1.00158
233.887,29.2785,-0.01020684,0.6392,1.00134
234.387,29.32605,-0.01021003,0.64525,1.0011
234.887,29.37352,-0.01020827,0.65844,1.00086
235.387,29.42119,-0.00913061,0.65829,1.00062
235.887,29.46901,-0.008890226,0.67566,1.00038
236.387,29.51666,-0.008890281,0.67663,1.00014
236.887,29.56427,-0.009589544,0.70083,0.9999
237.387,29.61186,-0.008980301,0.70232,0.99966
237.887,29.65942,-0.01001371,0.71616,0.99941
238.387,29.70702,-0.01042831,0.73795,0.99917
238.887,29.7547,-0.009132429,0.74684,0.99893
239.387,29.80236,-0.009109965,0.76309,0.99869
239.887,29.85003,-0.00911,0.76584,0.99845
240.387,29.89772,-0.009110002,0.79213,0.9982
240.887,29.94537,-0.00910817,0.80923,0.99796
241.387,29.99305,-0.007817384,0.82331,0.99772
241.887,30.04071,-0.008951854,0.85818,0.99747
242.387,30.08839,-0.01043049,0.87868,0.99723
242.887,30.13606,-0.01043,0.90097,0.99699
243.387,30.18384,-0.01042984,0.93607,0.99674
243.887,30.23158,-0.01049521,0.96201,0.9965
244.387,30.27913,-0.009762262,1.00013,0.99625
244.887,30.32683,-0.009759751,1.03258,0.99601
245.387,30.3744,-0.00975765,1.07847,0.99576
245.887,30.42189,-0.01004207,1.1364,0.99551
246.387,30.46948,-0.01074977,1.20848,0.99527
246.887,30.51701,-0.01075,1.27264,0.99502
247.387,30.56468,-0.01075,1.35582,0.99477
247.887,30.61245,-0.01075,1.46568,0.99453
248.387,30.66029,-0.01075053,1.64356,0.99428
248.887,30.70798,-0.01041235,1.90981,0.99403
249.387,30.75595,-0.01042248,2.20752,0.99378
249.887,30.80409,-0.01010873,2.52972,0.99353
250.387,30.8521,-0.01009999,2.8718,0.99329
250.887,30.90047,-0.01009831,3.20063,0.99304
251.387,30.94838,-0.01139159,3.51169,0.99279
251.887,30.99669,-0.01174016,3.77314,0.99254
252.387,31.04494,-0.01035078,4.03102,0.99229
252.887,31.09334,-0.01043013,4.24583,0.99204
253.387,31.14169,-0.01042998,4.4385,0.99179
253.887,31.19023,-0.01043682,4.56677,0.99154
254.387,31.23843,-0.01009967,4.62602,0.99129
254.887,31.2865,-0.0101,4.60615,0.99103
255.387,31.33461,-0.0101,4.49732,0.99078
255.887,31.3826,-0.01009953,4.26079,0.99053
256.387,31.43039,-0.009749435,3.92599,0.99028
256.887,31.47817,-0.009769967,3.4947,0.99002
257.387,31.52564,-0.009770001,3.04439,0.98977
257.887,31.57311,-0.00977,2.61016,0.98952
258.387,31.62053,-0.009770001,2.22457,0.98927
258.887,31.66791,-0.009770216,1.89596,0.98901
259.387,31.71521,-0.009358732,1.6455,0.98876
259.887,31.76234,-0.009373661,1.42736,0.9885
260.387,31.80954,-0.01042997,1.27059,0.98825
260.887,31.85647,-0.01043,1.14522,0.98799
261.387,31.9035,-0.01043,1.04994,0.98774
261.887,31.95075,-0.01043,0.9722,0.98748
262.387,31.99797,-0.01043,0.90684,0.98723
262.887,32.04527,-0.01043,0.87405,0.98697
263.387,32.0924,-0.01043,0.83807,0.98671
263.887,32.13983,-0.01043,0.80118,0.98646
264.387,32.18709,-0.01043,0.78998,0.9862
264.887,32.23431,-0.01043179,0.76862,0.98594
265.387,32.28171,-0.009746399,0.75029,0.98568
265.887,32.32905,-0.009769511,0.74013,0.98543
266.387,32.37646,-0.01108415,0.73302,0.98517
266.887,32.42396,-0.009675892,0.71848,0.98491
267.387,32.4716,-0.009425509,0.71889,0.98465
267.887,32.51923,-0.009109507,0.71379,0.98439
268.387,32.56665,-0.01041309,0.70861,0.98413
268.887,32.61408,-0.01041876,0.69949,0.98387
269.387,32.66135,-0.009071636,0.70312,0.98361
269.887,32.70869,-0.008775143,0.70425,0.98335
270.387,32.75608,-0.008116825,0.7106,0.98309
270.887,32.80358,-0.008120081,0.68882,0.98283
271.387,32.85123,-0.0080951,0.69121,0.98257
271.887,32.89887,-0.009109782,0.69742,0.98231
272.387,32.9465,-0.009110003,0.69075,0.98204
272.887,32.99419,-0.00911,0.69621,0.98178
273.387,33.04201,-0.00911,0.68856,0.98152
273.887,33.08958,-0.00911,0.68494,0.98126
274.387,33.13718,-0.009110529,0.69305,0.98099
274.887,33.18461,-0.009460023,0.69748,0.98073
275.387,33.23209,-0.009431028,0.69372,0.98047
275.887,33.27947,-0.01074554,0.69199,0.9802
276.387,33.32713,-0.01074994,0.68764,0.97994
276.887,33.37479,-0.0107525,0.6885,0.97967
277.387,33.42245,-0.01042942,0.68319,0.97941
277.887,33.47013,-0.01041998,0.68532,0.97914
278.387,33.5178,-0.01040816,0.6856,0.97888
278.887,33.56547,-0.009766296,0.68012,0.97861
279.387,33.61332,-0.009770007,0.6838,0.97834
279.887,33.66111,-0.00977,0.67942,0.97808
280.387,33.7087,-0.00977,0.68106,0.97781
280.887,33.75637,-0.00977,0.67861,0.97754
281.387,33.80407,-0.00977,0.67636,0.97728
281.887,33.85185,-0.00977,0.67919,0.97701
282.387,33.89985,-0.00977,0.68774,0.97674
282.887,33.94781,-0.00977,0.68224,0.97647
283.387,33.99559,-0.009769902,0.67789,0.9762
283.887,34.04325,-0.009827542,0.68361,0.97594
284.387,34.09087,-0.009111005,0.68818,0.97567
284.887,34.13847,-0.009110001,0.68385,0.9754
285.387,34.18598,-0.009109736,0.68557,0.97513
285.887,34.23377,-0.009345915,0.67639,0.97486
286.387,34.28158,-0.01042913,0.68977,0.97459
286.887,34.32953,-0.01042841,0.68296,0.97432
287.387,34.37753,-0.009108508,0.67513,0.97404
287.887,34.42532,-0.01024371,0.67511,0.97377
288.387,34.47293,-0.01043027,0.68373,0.9735
288.887,34.52071,-0.01043,0.68788,0.97323
289.387,34.5684,-0.01042997,0.68216,0.97296
289.887,34.61607,-0.01048019,0.68931,0.97268
290.387,34.66381,-0.009106122,0.6904,0.97241
290.887,34.7115,-0.009208143,0.68855,0.97214
291.387,34.75932,-0.01109929,0.68056,0.97187
291.887,34.80708,-0.01141982,0.68548,0.97159
292.387,34.85485,-0.01145757,0.69431,0.97132
292.887,34.90226,-0.01076987,0.69547,0.97104
293.387,34.95004,-0.01075999,0.69464,0.97077
293.887,34.99776,-0.01076,0.69245,0.97049
294.387,35.04565,-0.01076,0.69373,0.97022
294.887,35.09399,-0.01076,0.6919,0.96994
295.387,35.14198,-0.01076,0.69694,0.96967
295.887,35.18998,-0.01076,0.69958,0.96939
296.387,35.23791,-0.01076,0.69941,0.96911
296.887,35.28573,-0.01076,0.69805,0.96884
297.387,35.33352,-0.01075976,0.70054,0.96856
297.887,35.38126,-0.01084715,0.70044,0.96828
298.387,35.42915,-0.01042999,0.70145,0.968
298.887,35.47692,-0.01043,0.70016,0.96773
299.387,35.52476,-0.01043,0.70114,0.96745
299.887,35.57277,-0.01043,0.70666,0.96717
300.387,35.62077,-0.01043,0.70506,0.96689
300.887,35.66891,-0.01043,0.7049,0.96661
301.387,35.71709,-0.01043,0.69913,0.96633
301.887,35.76506,-0.01043,0.70739,0.96605
302.387,35.81297,-0.01043,0.70644,0.96577
302.887,35.861,-0.01043,0.70951,0.96549
303.387,35.90868,-0.01043,0.71224,0.96521
303.887,35.95646,-0.01043002,0.70303,0.96493
304.387,36.0043,-0.01041674,0.70502,0.96465
304.887,36.05204,-0.009081808,0.71531,0.96437
305.387,36.09999,-0.009769417,0.70561,0.96408
305.887,36.148,-0.009769999,0.70589,0.9638
306.387,36.1959,-0.00977,0.71252,0.96352
306.887,36.24389,-0.00977,0.70984,0.96324
307.387,36.29185,-0.009769967,0.71237,0.96295
307.887,36.33989,-0.009775677,0.71575,0.96267
308.387,36.38777,-0.009765948,0.71175,0.96239
308.887,36.43571,-0.009678282,0.71494,0.9621
309.387,36.48364,-0.009770108,0.7129,0.96182
309.887,36.53141,-0.009766913,0.71706,0.96153
310.387,36.57931,-0.01108058,0.71988,0.96125
310.887,36.62729,-0.01105975,0.71314,0.96096
311.387,36.6751,-0.01174137,0.71222,0.96068
311.887,36.72301,-0.01101422,0.70945,0.96039
312.387,36.77095,-0.01041963,0.71393,0.9601
312.887,36.81877,-0.01042003,0.71521,0.95982
313.387,36.86658,-0.01033075,0.71557,0.95953
313.887,36.91447,-0.01174051,0.72276,0.95924
314.387,36.96186,-0.01172478,0.73515,0.95896
314.887,37.00971,-0.01038011,0.74022,0.95867
315.387,37.05768,-0.009440516,0.73517,0.95838
315.887,37.10575,-0.009441988,0.73916,0.95809
316.387,37.15426,-0.01073564,0.74,0.9578
316.887,37.20245,-0.01103077,0.74916,0.95751
317.387,37.25044,-0.01209528,0.74297,0.95722
317.887,37.29847,-0.01107998,0.74539,0.95693
318.387,37.34639,-0.01075525,0.73684,0.95664
318.887,37.39439,-0.01074999,0.74796,0.95635
319.387,37.44245,-0.01075,0.74516,0.95606
319.887,37.49053,-0.01075,0.74886,0.95577
320.387,37.5386,-0.01075,0.74727,0.95548
320.887,37.5868,-0.01075,0.74301,0.95519
321.387,37.63506,-0.01075001,0.75032,0.9549
321.887,37.68318,-0.01074447,0.74314,0.95461
322.387,37.73116,-0.01207561,0.74237,0.95431
322.887,37.77917,-0.01207,0.73653,0.95402
323.387,37.82717,-0.01207041,0.74072,0.95373
323.887,37.8752,-0.01148256,0.73726,0.95344
324.387,37.92336,-0.01207536,0.74109,0.95314
324.887,37.97155,-0.01093138,0.73377,0.95285
325.387,38.01981,-0.01206935,0.74142,0.95255
325.887,38.06793,-0.01207,0.74294,0.95226
326.387,38.116,-0.01207,0.74529,0.95196
326.887,38.16412,-0.01206874,0.73487,0.95167
327.387,38.21223,-0.01133593,0.74405,0.95137
327.887,38.26024,-0.01075364,0.74285,0.95108
328.387,38.30843,-0.01074982,0.74622,0.95078
328.887,38.35658,-0.01148502,0.73543,0.95049
329.387,38.40461,-0.01206989,0.7423,0.95019
329.887,38.45259,-0.01207,0.74522,0.94989
330.387,38.50053,-0.01207,0.7269,0.94959
330.887,38.5485,-0.01207066,0.72768,0.9493
331.387,38.59654,-0.01139629,0.73232,0.949
331.887,38.64478,-0.01141003,0.72817,0.9487
332.387,38.69305,-0.01141,0.73336,0.9484
332.887,38.74103,-0.01141,0.73288,0.9481
333.387,38.78911,-0.01141,0.73411,0.9478
333.887,38.83698,-0.01158977,0.72643,0.94751
334.387,38.88499,-0.01272852,0.728,0.94721
334.887,38.93327,-0.01270143,0.7441,0.94691
335.387,38.98135,-0.01305942,0.73602,0.9466
335.887,39.02954,-0.01305994,0.73121,0.9463
336.387,39.07775,-0.01251793,0.74211,0.946
336.887,39.12584,-0.01173398,0.73804,0.9457
337.387,39.1736,-0.01306689,0.74593,0.9454
337.887,39.2218,-0.01305999,0.74275,0.9451
338.387,39.26978,-0.01306,0.7462,0.9448
338.887,39.31808,-0.01305999,0.74632,0.94449
339.387,39.36639,-0.0130726,0.75133,0.94419
339.887,39.41419,-0.01436728,0.74267,0.94389
340.387,39.4625,-0.01436286,0.74522,0.94358
340.887,39.51065,-0.01306126,0.74737,0.94328
341.387,39.55873,-0.01306,0.75017,0.94298
341.887,39.60721,-0.01306,0.74721,0.94267
342.387,39.65568,-0.01306,0.75023,0.94237
342.887,39.70396,-0.01306,0.74956,0.94206
343.387,39.75236,-0.01306,0.75644,0.94176
343.887,39.80066,-0.01306,0.74986,0.94145
344.387,39.8487,-0.01305999,0.74992,0.94115
344.887,39.8969,-0.0130721,0.76027,0.94084
345.387,39.94512,-0.01436884,0.74957,0.94053
345.887,39.99346,-0.01438002,0.75184,0.94023
346.387,40.04205,-0.01437745,0.76236,0.93992
346.887,40.09044,-0.01341657,0.75751,0.93961
347.387,40.13881,-0.0127299,0.75854,0.93931
347.887,40.18718,-0.01396975,0.7757,0.939
348.387,40.23547,-0.01466065,0.78544,0.93869
348.887,40.28361,-0.01542205,0.77868,0.93838
349.387,40.33155,-0.01528424,0.78674,0.93807
349.887,40.37982,-0.01536712,0.78258,0.93776
350.387,40.4281,-0.01404842,0.78763,0.93745
350.887,40.47635,-0.01542482,0.79035,0.93714
351.387,40.52492,-0.01536298,0.79348,0.93683
351.887,40.57315,-0.01669729,0.78644,0.93652
352.387,40.62131,-0.01652674,0.7865,0.93621
352.887,40.66959,-0.01537003,0.79124,0.9359
353.387,40.71778,-0.01537,0.79008,0.93559
353.887,40.76594,-0.01537013,0.79159,0.93528
354.387,40.81414,-0.01622541,0.80326,0.93497
354.887,40.8623,-0.0166905,0.79874,0.93465
355.387,40.91046,-0.01669001,0.79664,0.93434
355.887,40.95876,-0.01669084,0.8038,0.93403
356.387,41.00708,-0.01534312,0.80365,0.93372
356.887,41.05526,-0.01669504,0.81016,0.9334
357.387,41.10365,-0.01822701,0.81194,0.93309
357.887,41.15192,-0.01811986,0.80852,0.93277
358.387,41.20013,-0.01811953,0.8167,0.93246
358.887,41.24857,-0.01811001,0.81105,0.93214
359.387,41.29673,-0.01810571,0.81786,0.93183
359.887,41.34506,-0.01841973,0.82963,0.93151
360.387,41.39338,-0.01812323,0.82347,0.9312
360.887,41.44169,-0.01942805,0.82987,0.93088
361.387,41.49007,-0.01947479,0.82832,0.93057
361.887,41.53848,-0.02140608,0.83029,0.93025
362.387,41.58676,-0.02139997,0.83562,0.92993
362.887,41.63498,-0.0214,0.84338,0.92962
363.387,41.68319,-0.02139989,0.84961,0.9293
363.887,41.73153,-0.0214457,0.85204,0.92898
364.387,41.78,-0.02081953,0.85701,0.92866
364.887,41.82841,-0.02140986,0.86078,0.92834
365.387,41.87682,-0.0214139,0.86286,0.92803
365.887,41.92526,-0.02238719,0.86489,0.92771
366.387,41.97369,-0.02240003,0.87215,0.92739
366.887,42.02214,-0.02239588,0.87245,0.92707
367.387,42.07073,-0.02371477,0.88691,0.92675
367.887,42.11909,-0.02370853,0.90012,0.92643
368.387,42.16752,-0.0240541,0.89128,0.92611
368.887,42.2159,-0.02403996,0.89674,0.92579
369.387,42.26423,-0.02403998,0.90489,0.92547
369.887,42.31274,-0.02404996,0.90086,0.92515
370.387,42.36117,-0.02535419,0.90351,0.92482
370.887,42.40936,-0.02666824,0.91514,0.9245
371.387,42.45774,-0.02798232,0.91254,0.92418
371.887,42.50596,-0.02789402,0.9325,0.92386
372.387,42.55448,-0.02929905,0.93052,0.92353
372.887,42.60303,-0.0304739,0.91369,0.92321
373.387,42.65164,-0.02994733,0.91358,0.92289
373.887,42.70024,-0.03127664,0.89894,0.92256
374.387,42.74883,-0.03129034,0.90023,0.92224
374.887,42.7973,-0.03259848,0.88933,0.92191
375.387,42.8458,-0.0325583,0.88352,0.92159
375.887,42.8943,-0.03392615,0.87615,0.92126
376.387,42.94291,-0.03616777,0.88253,0.92094
376.887,42.9915,-0.03663122,0.88814,0.92061
377.387,43.04002,-0.03659017,0.89707,0.92029
377.887,43.08857,-0.03787815,0.89811,0.91996
378.387,43.13708,-0.03918707,0.9026,0.91964
378.887,43.18554,-0.04050786,0.90735,0.91931
379.387,43.23408,-0.04183625,0.91335,0.91898
379.887,43.28257,-0.0435889,0.91597,0.91865
380.387,43.3311,-0.04610337,0.93661,0.91833
380.887,43.37963,-0.04744441,0.94009,0.918
381.387,43.42813,-0.04887768,0.95025,0.91767
381.887,43.47663,-0.05006475,0.9547,0.91734
382.387,43.52521,-0.05205714,0.95392,0.91701
382.887,43.57375,-0.05419211,0.95491,0.91668
383.387,43.62223,-0.05751752,0.95963,0.91635
383.887,43.67068,-0.05976677,0.95386,0.91602
384.387,43.719,-0.06191551,0.959,0.91569
384.887,43.76755,-0.06396523,0.95565,0.91536
385.387,43.8161,-0.06630689,0.95623,0.91503
385.887,43.86506,-0.06796955,0.97026,0.9147
386.387,43.91381,-0.07036841,0.96547,0.91437
386.887,43.96259,-0.07303768,0.98109,0.91404
387.387,44.01119,-0.07609316,0.98415,0.91371
387.887,44.0597,-0.07938142,0.97243,0.91337
388.387,44.10808,-0.08258611,0.97921,0.91304
388.887,44.1566,-0.08518632,0.9884,0.91271
389.387,44.20514,-0.08821022,0.98562,0.91238
389.887,44.25372,-0.09126742,0.98966,0.91204
390.387,44.30237,-0.09435495,1.00371,0.91171
390.887,44.35093,-0.09818757,1.00138,0.91137
391.387,44.39954,-0.10238,0.99814,0.91104
391.887,44.44817,-0.1061,1.00245,0.91071
392.387,44.49671,-0.11081,1.00692,0.91037
392.887,44.54556,-0.11475,1.02186,0.91004
393.387,44.5942,-0.11795,1.02302,0.9097
393.887,44.6429,-0.12236,1.04495,0.90936
394.387,44.69157,-0.12704,1.05162,0.90903
394.887,44.74007,-0.13128,1.06942,0.90869
395.387,44.7885,-0.13539,1.06471,0.90835
395.887,44.8371,-0.14031,1.07923,0.90802
396.387,44.88581,-0.14476,1.0872,0.90768
396.887,44.93444,-0.14938,1.09602,0.90734
397.387,44.98325,-0.15544,1.12986,0.907
397.887,45.03207,-0.161,1.1448,0.90667
398.387,45.08068,-0.16739,1.15008,0.90633
398.887,45.12942,-0.17271,1.15381,0.90599
399.387,45.17797,-0.17816,1.17548,0.90565
399.887,45.22658,-0.18452,1.19897,0.90531
400.387,45.27536,-0.19149,1.218,0.90497
400.887,45.32399,-0.1982,1.23397,0.90463
401.387,45.37277,-0.20476,1.25229,0.90429
401.887,45.42173,-0.21183,1.10049,0.90395
402.387,45.47078,-0.21783,1.11038,0.90361
402.887,45.51994,-0.22568,1.10758,0.90327
403.387,45.56863,-0.23417,1.12731,0.90293
403.887,45.61776,-0.2418,1.13985,0.90258
404.387,45.66627,-0.25008,1.17645,0.90224
404.887,45.715,-0.25898,1.18831,0.9019
405.387,45.76375,-0.2675,1.19755,0.90156
405.887,45.81263,-0.27691,1.21346,0.90121
406.387,45.86162,-0.28716,1.27255,0.90087
406.887,45.91065,-0.29627,1.28706,0.90053
407.387,45.95951,-0.30646,1.32297,0.90018
407.887,46.00845,-0.31674,1.35098,0.89984
408.387,46.05734,-0.3279,1.36658,0.89949
408.887,46.10615,-0.33939,1.4044,0.89915
409.387,46.15514,-0.35228,1.44072,0.8988
409.887,46.2041,-0.3642,1.47219,0.89846
410.387,46.25298,-0.37837,1.48793,0.89811
410.887,46.30177,-0.39014,1.52788,0.89777
411.387,46.35068,-0.4028,1.55729,0.89742
411.887,46.39954,-0.41529,1.57267,0.89707
412.387,46.44832,-0.42938,1.60697,0.89673
412.887,46.49719,-0.44425,1.63694,0.89638
413.387,46.54618,-0.45806,1.6699,0.89603
413.887,46.59506,-0.47321,1.6979,0.89568
414.387,46.64401,-0.48714,1.72207,0.89534
414.887,46.69311,-0.50331,1.73434,0.89499
415.387,46.74206,-0.52041,1.76207,0.89464
415.887,46.79098,-0.53628,1.79511,0.89429
416.387,46.83988,-0.55223,1.83943,0.89394
416.887,46.88884,-0.57041,1.86952,0.89359
417.387,46.9379,-0.58926,1.90109,0.89324
417.887,46.98692,-0.60752,1.89092,0.89289
418.387,47.0358,-0.62455,1.91224,0.89254
418.887,47.08478,-0.64389,1.91032,0.89219
419.387,47.13361,-0.66404,1.93963,0.89184
419.887,47.18252,-0.68509,1.96701,0.89149
420.387,47.23168,-0.70566,2.00437,0.89114
420.887,47.28066,-0.72639,2.04417,0.89078
421.387,47.32979,-0.74873,2.06528,0.89043
421.887,47.37885,-0.7713,2.10501,0.89008
422.387,47.42775,-0.7934,2.10172,0.88973
422.887,47.47672,-0.8162,2.11433,0.88937
423.387,47.52566,-0.83977,2.14201,0.88902
423.887,47.57456,-0.86404,2.17037,0.88867
424.387,47.6235,-0.88818,2.23758,0.88831
424.887,47.67218,-0.91278,2.31545,0.88796
425.387,47.72118,-0.93917,2.34904,0.8876
425.887,47.77019,-0.96656,2.41505,0.88725
426.387,47.81905,-0.9961,2.44818,0.88689
426.887,47.86827,-1.02498,2.46313,0.88654
427.387,47.91671,-1.05225,2.52124,0.88618
427.887,47.96565,-1.08122,2.51856,0.88583
428.387,48.01457,-1.11182,2.53327,0.88547
428.887,48.06364,-1.142,2.54696,0.88511
429.387,48.11296,-1.17133,2.5335,0.88476
429.887,48.16213,-1.20357,2.58013,0.8844
430.387,48.21118,-1.23562,2.63834,0.88404
430.887,48.26013,-1.26942,2.65578,0.88368
431.387,48.30892,-1.30221,2.6802,0.88333
431.887,48.35787,-1.33604,2.67353,0.88297
432.387,48.40679,-1.3704,2.66367,0.88261
432.887,48.4558,-1.40583,2.67321,0.88225
433.387,48.50475,-1.44075,2.6794,0.88189
433.887,48.55375,-1.47631,2.69604,0.88153
434.387,48.60281,-1.51311,2.69999,0.88117
434.887,48.65189,-1.55161,2.70271,0.88081
435.387,48.70094,-1.59052,2.69305,0.88045
435.887,48.75,-1.62631,2.69094,0.88009
436.387,48.79911,-1.66229,2.68585,0.87973
436.887,48.84815,-1.70092,2.69062,0.87937
437.387,48.89683,-1.74143,2.69962,0.87901
437.887,48.94553,-1.78032,2.69189,0.87865
438.387,48.99437,-1.82025,2.69148,0.87828
438.887,49.04333,-1.85974,2.67927,0.87792
439.387,49.09261,-1.90134,2.6683,0.87756
439.887,49.14196,-1.94285,2.66006,0.8772
440.387,49.1914,-1.98256,2.63477,0.87683
440.887,49.24047,-2.02306,2.61729,0.87647
441.387,49.28952,-2.06449,2.59044,0.8761
441.887,49.33869,-2.1069,2.55541,0.87574
442.387,49.38775,-2.14467,2.52765,0.87538
442.887,49.43683,-2.1836,2.4904,0.87501
443.387,49.48588,-2.22306,2.44546,0.87465
443.887,49.53476,-2.26373,2.40681,0.87428
444.387,49.58348,-2.30189,2.36088,0.87392
444.887,49.63215,-2.33922,2.30694,0.87355
445.387,49.68096,-2.37684,2.24886,0.87318
445.887,49.72996,-2.41352,2.18971,0.87282
446.387,49.77904,-2.45093,2.1295,0.87245
446.887,49.82794,-2.4848,2.0698,0.87208
447.387,49.87716,-2.51812,1.99645,0.87172
447.887,49.92607,-2.55223,1.93599,0.87135
448.387,49.97484,-2.58457,1.85199,0.87098
448.887,50.02372,-2.61602,1.79326,0.87061
449.387,50.07216,-2.64411,1.71665,0.87024
449.887,50.12087,-2.67208,1.63698,0.86987
450.387,50.16972,-2.69971,1.55925,0.86951
450.887,50.2184,-2.72616,1.47419,0.86914
451.387,50.26775,-2.75113,1.39024,0.86877
451.887,50.31668,-2.77405,1.31399,0.8684
452.387,50.36547,-2.79749,1.23484,0.86803
452.887,50.41426,-2.81854,1.15324,0.86766
453.387,50.46305,-2.83809,1.0665,0.86729
453.887,50.51178,-2.85622,1.00689,0.86691
454.387,50.56054,-2.87273,0.92926,0.86654
454.887,50.60943,-2.8905,0.85515,0.86617
455.387,50.65816,-2.90697,0.78631,0.8658
455.887,50.70707,-2.92158,0.72969,0.86543
456.387,50.75595,-2.9349,0.66056,0.86506
456.887,50.80505,-2.94735,0.59751,0.86468
457.387,50.85408,-2.95998,0.53872,0.86431
457.887,50.90307,-2.97217,0.49111,0.86394
458.387,50.95211,-2.98229,0.43435,0.86356
458.887,51.00112,-2.99278,0.39618,0.86319
459.387,51.05012,-3.00226,0.34054,0.86281
459.887,51.0991,-3.01221,0.28666,0.86244
460.387,51.148,-3.02192,0.25073,0.86207
460.887,51.19688,-3.03037,0.20552,0.86169
461.387,51.24574,-3.03932,0.16499,0.86132
461.887,51.29468,-3.04493,0.12875,0.86094
462.387,51.34351,-3.05287,8.29E-02,0.86056
462.887,51.39238,-3.05984,4.80E-02,0.86019
463.387,51.44117,-3.06707,1.33E-02,0.85981
463.887,51.48982,-3.07247,-2.61E-02,0.85943
464.387,51.53887,-3.07816,-5.92E-02,0.85906
464.887,51.58798,-3.08485,-9.78E-02,0.85868
465.387,51.63707,-3.09008,-0.12998,0.8583
465.887,51.68637,-3.09584,-0.17178,0.85793
466.387,51.73554,-3.10157,-0.19039,0.85755
466.887,51.78468,-3.10803,-0.22872,0.85717
467.387,51.83374,-3.11343,-0.28515,0.85679
467.887,51.88265,-3.11755,-0.31967,0.85641
468.387,51.93179,-3.12111,-0.36053,0.85603
468.887,51.98076,-3.12558,-0.38602,0.85565
469.387,52.02986,-3.12966,-0.41765,0.85527
469.887,52.07882,-3.13514,-0.44704,0.85489
470.387,52.12778,-3.1394,-0.47527,0.85451
470.887,52.17687,-3.14351,-0.50423,0.85413
471.387,52.22587,-3.14474,-0.53609,0.85375
471.887,52.2751,-3.1477,-0.56269,0.85337
472.387,52.32436,-3.15154,-0.58405,0.85299
472.887,52.37357,-3.15574,-0.61402,0.85261
473.387,52.42263,-3.15823,-0.64025,0.85223
473.887,52.47179,-3.16151,-0.65977,0.85184
474.387,52.52112,-3.16438,-0.68159,0.85146
474.887,52.57025,-3.16692,-0.7043,0.85108
475.387,52.61941,-3.17055,-0.71587,0.85069
475.887,52.6685,-3.17191,-0.74348,0.85031
476.387,52.71752,-3.17465,-0.75546,0.84993
476.887,52.76669,-3.17731,-0.77453,0.84954
477.387,52.81581,-3.17936,-0.78635,0.84916
477.887,52.86489,-3.18213,-0.80078,0.84878
478.387,52.91373,-3.1834,-0.80514,0.84839
478.887,52.96246,-3.18657,-0.79878,0.84801
479.387,53.01131,-3.18798,-0.78347,0.84762
479.887,53.06028,-3.19102,-0.76749,0.84723
480.387,53.10946,-3.19227,-0.76134,0.84685
480.887,53.15864,-3.19239,-0.74905,0.84646
481.387,53.20777,-3.19365,-0.74399,0.84608
481.887,53.25673,-3.19635,-0.74436,0.84569
482.387,53.3059,-3.19752,-0.7446,0.8453
482.887,53.35501,-3.19949,-0.74111,0.84492
483.387,53.40436,-3.20073,-0.74473,0.84453
483.887,53.45372,-3.20266,-0.73992,0.84414
484.387,53.50314,-3.20397,-0.74148,0.84375
484.887,53.55243,-3.20529,-0.7446,0.84336
485.387,53.60133,-3.20658,-0.74199,0.84298
485.887,53.65045,-3.20819,-0.73982,0.84259
486.387,53.69953,-3.20951,-0.74835,0.8422
486.887,53.7488,-3.21083,-0.74503,0.84181
487.387,53.79816,-3.21208,-0.7572,0.84142
487.887,53.84771,-3.21205,-0.74655,0.84103
488.387,53.89686,-3.21345,-0.76156,0.84064
488.887,53.94605,-3.21482,-0.75853,0.84025
489.387,53.99521,-3.21479,-0.76465,0.83986
489.887,54.04446,-3.21663,-0.76364,0.83947
490.387,54.0938,-3.21784,-0.76904,0.83908
490.887,54.14315,-3.21884,-0.76996,0.83868
491.387,54.19252,-3.21921,-0.77965,0.83829
491.887,54.24182,-3.22062,-0.77788,0.8379
492.387,54.29101,-3.22147,-0.78637,0.83751
492.887,54.34004,-3.2229,-0.78827,0.83712
493.387,54.38933,-3.22291,-0.79237,0.83672
493.887,54.4387,-3.22423,-0.78988,0.83633
494.387,54.48805,-3.22448,-0.79384,0.83594
494.887,54.53766,-3.22554,-0.79524,0.83554
495.387,54.58687,-3.22668,-0.80593,0.83515
495.887,54.636,-3.22792,-0.79875,0.83475
496.387,54.68542,-3.22861,-0.80929,0.83436
496.887,54.7347,-3.22936,-0.81177,0.83397
497.387,54.78415,-3.23011,-0.8251,0.83357
497.887,54.83351,-3.23147,-0.83097,0.83318
498.387,54.88293,-3.23147,-0.82991,0.83278
498.887,54.93235,-3.23173,-0.83882,0.83238
499.387,54.9816,-3.23289,-0.84128,0.83199
499.887,55.03107,-3.23411,-0.84572,0.83159
500.387,55.08047,-3.2342,-0.85735,0.8312
500.887,55.12985,-3.23543,-0.86416,0.8308
501.387,55.1793,-3.23674,-0.8673,0.8304
501.887,55.22875,-3.23737,-0.87231,0.83
502.387,55.27812,-3.2374,-0.87677,0.82961
502.887,55.32756,-3.2374,-0.87925,0.82921
503.387,55.37701,-3.23871,-0.8864,0.82881
503.887,55.42646,-3.23872,-0.889,0.82841
504.387,55.47592,-3.23918,-0.89216,0.82801
504.887,55.52521,-3.23938,-0.89873,0.82761
505.387,55.57445,-3.23938,-0.8969,0.82722
505.887,55.62359,-3.2396,-0.90374,0.82682
506.387,55.6729,-3.24073,-0.91747,0.82642
506.887,55.72174,-3.24342,-0.91733,0.82602
507.387,55.77112,-3.24333,-0.93032,0.82562
507.887,55.82044,-3.24463,-0.92907,0.82522
508.387,55.86971,-3.24465,-0.94456,0.82481
508.887,55.91925,-3.24333,-0.95039,0.82441
509.387,55.96868,-3.24333,-0.95199,0.82401
509.887,56.01802,-3.24463,-0.96401,0.82361
510.387,56.06739,-3.24464,-0.96175,0.82321
510.887,56.11673,-3.24463,-0.97037,0.82281
511.387,56.16625,-3.24596,-0.98555,0.82241
511.887,56.2158,-3.24634,-0.98275,0.822
512.387,56.26552,-3.24728,-0.99842,0.8216
512.887,56.31542,-3.24728,-1.00236,0.8212
513.387,56.3651,-3.24728,-1.00354,0.82079
513.887,56.41474,-3.24728,-1.00947,0.82039
514.387,56.46422,-3.24728,-1.01522,0.81999
514.887,56.51357,-3.24865,-1.02771,0.81958
515.387,56.56269,-3.2486,-1.03547,0.81918
515.887,56.61201,-3.24873,-1.03008,0.81877
516.387,56.6614,-3.24991,-1.04131,0.81837
516.887,56.7109,-3.25131,-1.04363,0.81796
517.387,56.76056,-3.2509,-1.04416,0.81756
517.887,56.81011,-3.2506,-1.03728,0.81715
518.387,56.85957,-3.25123,-1.04733,0.81675
518.887,56.90924,-3.25123,-1.06078,0.81634
519.387,56.95898,-3.25122,-1.07431,0.81593
519.887,57.00855,-3.25255,-1.07199,0.81553
520.387,57.05825,-3.25255,-1.06892,0.81512
520.887,57.10788,-3.25256,-1.07799,0.81471
521.387,57.15747,-3.25387,-1.08194,0.81431
521.887,57.20719,-3.2527,-1.09644,0.8139
522.387,57.25682,-3.25255,-1.09619,0.81349
522.887,57.30636,-3.25255,-1.10204,0.81308
523.387,57.356,-3.25254,-1.11421,0.81267
523.887,57.40559,-3.25386,-1.11334,0.81226
524.387,57.45528,-3.25382,-1.12694,0.81186
524.887,57.50498,-3.25419,-1.12904,0.81145
525.387,57.55471,-3.25419,-1.13213,0.81104
525.887,57.60442,-3.25549,-1.13418,0.81063
526.387,57.65429,-3.25638,-1.13293,0.81022
526.887,57.70401,-3.25683,-1.13992,0.80981
527.387,57.75374,-3.25685,-1.13656,0.8094
527.887,57.8034,-3.25617,-1.14408,0.80899
528.387,57.85296,-3.25617,-1.14794,0.80858
528.887,57.90272,-3.25617,-1.15374,0.80816
529.387,57.95247,-3.25617,-1.15654,0.80775
529.887,58.00225,-3.25674,-1.15518,0.80734
530.387,58.05195,-3.25782,-1.16167,0.80693
530.887,58.10158,-3.25782,-1.16661,0.80652
531.387,58.15116,-3.25793,-1.16585,0.80611
531.887,58.20072,-3.25918,-1.166,0.80569
532.387,58.25027,-3.25913,-1.17193,0.80528
532.887,58.29988,-3.25912,-1.18104,0.80487
533.387,58.34957,-3.26045,-1.18749,0.80445
533.887,58.39913,-3.26045,-1.18706,0.80404
534.387,58.44878,-3.26177,-1.19051,0.80363
534.887,58.49834,-3.26276,-1.19009,0.80321
535.387,58.54787,-3.26276,-1.20058,0.8028
535.887,58.59758,-3.26276,-1.20246,0.80238
536.387,58.64737,-3.26142,-1.20719,0.80197
536.887,58.69716,-3.26242,-1.22041,0.80155
537.387,58.74709,-3.26243,-1.2119,0.80114
537.887,58.79683,-3.26237,-1.21725,0.80072
538.387,58.8463,-3.2631,-1.21586,0.80031
538.887,58.89578,-3.26342,-1.21409,0.79989
539.387,58.94519,-3.26453,-1.21943,0.79947
539.887,58.99472,-3.26473,-1.22103,0.79906
540.387,59.04444,-3.26614,-1.22697,0.79864
540.887,59.09408,-3.26605,-1.23285,0.79822
541.387,59.14377,-3.26742,-1.23334,0.79781
541.887,59.19334,-3.26737,-1.23471,0.79739
542.387,59.24293,-3.26755,-1.23834,0.79697
542.887,59.29245,-3.26869,-1.24095,0.79655
543.387,59.34189,-3.26869,-1.24816,0.79613
543.887,59.39149,-3.26869,-1.25262,0.79572
544.387,59.44099,-3.26872,-1.25077,0.7953
544.887,59.49078,-3.26868,-1.24676,0.79488
545.387,59.54059,-3.26879,-1.25157,0.79446
545.887,59.5903,-3.26971,-1.26411,0.79404
546.387,59.63985,-3.27099,-1.26338,0.79362
546.887,59.68939,-3.27099,-1.26588,0.7932
547.387,59.73888,-3.27097,-1.27411,0.79278
547.887,59.78837,-3.27124,-1.2644,0.79236
548.387,59.83801,-3.27231,-1.27161,0.79194
548.887,59.88757,-3.27231,-1.27309,0.79152
549.387,59.9371,-3.27358,-1.28148,0.7911
549.887,59.98677,-3.27494,-1.28742,0.79068
550.387,60.03636,-3.27494,-1.29528,0.79025
550.887,60.08596,-3.27365,-1.29317,0.78983
551.387,60.13559,-3.27362,-1.29059,0.78941
551.887,60.18518,-3.27362,-1.29837,0.78899
552.387,60.2349,-3.27362,-1.29098,0.78857
552.887,60.28461,-3.27489,-1.30293,0.78814
553.387,60.33426,-3.27494,-1.29324,0.78772
553.887,60.38396,-3.27485,-1.30769,0.7873
554.387,60.43356,-3.27626,-1.30657,0.78687
554.887,60.48316,-3.27626,-1.30677,0.78645
555.387,60.53272,-3.27754,-1.31625,0.78603
555.887,60.5825,-3.27757,-1.31257,0.7856
556.387,60.6322,-3.27759,-1.31863,0.78518
556.887,60.68199,-3.27978,-1.32471,0.78475
557.387,60.73178,-3.27905,-1.32889,0.78433
557.887,60.78154,-3.27889,-1.32181,0.7839
558.387,60.83144,-3.27898,-1.31787,0.78348
558.887,60.88121,-3.28021,-1.33,0.78305
559.387,60.93114,-3.28021,-1.33286,0.78263
559.887,60.98097,-3.28021,-1.34213,0.7822
560.387,61.03082,-3.28021,-1.33359,0.78178
560.887,61.08073,-3.2802,-1.33692,0.78135
561.387,61.13051,-3.28085,-1.34744,0.78092
561.887,61.18043,-3.28087,-1.34993,0.7805
562.387,61.23033,-3.28095,-1.35823,0.78007
562.887,61.27996,-3.2835,-1.3592,0.77964
563.387,61.32991,-3.2829,-1.3655,0.77921
563.887,61.3798,-3.28485,-1.37063,0.77879
564.387,61.42975,-3.28616,-1.37102,0.77836
564.887,61.47991,-3.28614,-1.38021,0.77793
565.387,61.5298,-3.28614,-1.3813,0.7775
565.887,61.57971,-3.28715,-1.37379,0.77707
566.387,61.62971,-3.28751,-1.38094,0.77664
566.887,61.67956,-3.28844,-1.38182,0.77622
567.387,61.72954,-3.28714,-1.37508,0.77579
567.887,61.7794,-3.28713,-1.38633,0.77536
568.387,61.82925,-3.28713,-1.39507,0.77493
568.887,61.87916,-3.28713,-1.39094,0.7745
569.387,61.92845,-3.28845,-1.39553,0.77407
569.887,61.97835,-3.28845,-1.40496,0.77364
570.387,62.02817,-3.28976,-1.41274,0.77321
570.887,62.0781,-3.29165,-1.40608,0.77277
571.387,62.12828,-3.29215,-1.40846,0.77234
571.887,62.17801,-3.29086,-1.41461,0.77191
572.387,62.22781,-3.28956,-1.42502,0.77148
572.887,62.27753,-3.28975,-1.42198,0.77105
573.387,62.3273,-3.29185,-1.43113,0.77062
573.887,62.37717,-3.29185,-1.42867,0.77018
574.387,62.42706,-3.29185,-1.43759,0.76975
574.887,62.47689,-3.29299,-1.43463,0.76932
575.387,62.52666,-3.29196,-1.4418,0.76889
575.887,62.57635,-3.29185,-1.44515,0.76845
576.387,62.62599,-3.29185,-1.45077,0.76802
576.887,62.67565,-3.29221,-1.44773,0.76759
577.387,62.72536,-3.29212,-1.44519,0.76715
577.887,62.77517,-3.29317,-1.44734,0.76672
578.387,62.82495,-3.29317,-1.44408,0.76629
578.887,62.87481,-3.29312,-1.45164,0.76585
579.387,62.92474,-3.29449,-1.45138,0.76542
579.887,62.97455,-3.29448,-1.4505,0.76498
580.387,63.02443,-3.29582,-1.45825,0.76455
580.887,63.07441,-3.2971,-1.46961,0.76411
581.387,63.12426,-3.29848,-1.47578,0.76368
581.887,63.17397,-3.29843,-1.47552,0.76324
582.387,63.22379,-3.29843,-1.48756,0.76281
582.887,63.27364,-3.29883,-1.47229,0.76237
583.387,63.32343,-3.29975,-1.48657,0.76193
583.887,63.37344,-3.29919,-1.48441,0.7615
584.387,63.42331,-3.29976,-1.48804,0.76106
584.887,63.47317,-3.29976,-1.48679,0.76062
585.387,63.52328,-3.29975,-1.48943,0.76019
585.887,63.57337,-3.30109,-1.4964,0.75975
586.387,63.62341,-3.3007,-1.49855,0.75931
586.887,63.6736,-3.29976,-1.49346,0.75887
587.387,63.7236,-3.29998,-1.49418,0.75844
587.887,63.77344,-3.30236,-1.49541,0.758
588.387,63.82306,-3.30239,-1.49738,0.75756
588.887,63.87319,-3.30239,-1.50413,0.75712
589.387,63.92327,-3.30239,-1.50855,0.75668
589.887,63.97346,-3.30298,-1.51038,0.75624
590.387,64.02388,-3.30239,-1.52072,0.7558
590.887,64.07407,-3.30241,-1.51312,0.75536
591.387,64.12417,-3.30371,-1.51397,0.75492
591.887,64.17423,-3.30371,-1.52438,0.75449
592.387,64.22442,-3.30507,-1.53324,0.75405
592.887,64.27434,-3.30546,-1.5313,0.7536
593.387,64.32426,-3.30502,-1.53624,0.75316
593.887,64.37424,-3.30502,-1.542,0.75272
594.387,64.42413,-3.30502,-1.54329,0.75228
594.887,64.47419,-3.30502,-1.53914,0.75184
595.387,64.52436,-3.30628,-1.54485,0.7514
595.887,64.57452,-3.30634,-1.54759,0.75096
596.387,64.62476,-3.30634,-1.54243,0.75052
596.887,64.67482,-3.30634,-1.541,0.75008
597.387,64.72488,-3.30691,-1.5491,0.74963
597.887,64.77497,-3.30667,-1.5581,0.74919
598.387,64.82483,-3.30667,-1.55583,0.74875
598.887,64.87481,-3.30799,-1.56137,0.74831
599.387,64.9248,-3.30931,-1.56265,0.74786
599.887,64.97461,-3.30923,-1.56338,0.74742
600.387,65.02459,-3.30802,-1.57038,0.74698
600.887,65.07451,-3.30899,-1.57038,0.74653
601.387,65.12434,-3.31039,-1.57038,0.74609
601.887,65.17423,-3.31031,-1.57038,0.74565
602.387,65.22432,-3.30958,-1.57038,0.7452
602.887,65.27434,-3.31062,-1.57038,0.74476
603.387,65.32448,-3.31062,-1.57038,0.74431
603.887,65.37457,-3.3107,-1.57038,0.74387
604.387,65.4245,-3.31194,-1.57038,0.74343
604.887,65.47462,-3.31193,-1.57038,0.74298
605.387,65.52459,-3.31291,-1.57038,0.74254
605.587,65.54462,-3.31293,-1.57038,0.74236