File: 01_Data/PE_Foam_Pipe_Insulation/Cone/PE_Foam_Pipe_Insulation_Cone_HF25Scan_220316_R2.csv
Names,Time,Stack TC,Smoke TC,Exh Press,Smoke Comp,Smoke Meas,CO Meter,CO2 Meter,O2 Meter,Sample Mass,Ext Coeff,Start Test,Flame Verif
Chan Gain,,500,500,1,1,1,1,1,1,1,1,1.0,1.0
Offset,,0,0,0.136382,0,0,0,0,0,0,0,0.0,0.0
Gain,,1,1,25.011,13.0548,13.4146,1,1,1,1.00087,1.01298,1.0,1.0
Units,sec,C,C,Pa,%,%,%,%,%,g,/m,,
Baseline,,19.2269,19.5991,158.828,98.8587,97.3561,0.000249293,0.0422321,21.0344,-832.995,0.136137,,
3,0.5,18.4636,19.518,160.843,99.1542,97.2174,0.000230328,0.0501391,21.0229,-339.004,0.175289,0.0,0.0
6,1.25,18.4066,18.3777,154.948,99.1614,97.8785,0.000194739,0.051197,21.0226,-338.834,0.115706,0.0,0.0
9,2,18.4174,18.9247,161.64,99.1642,97.8401,0.000177453,0.0520627,21.0222,-338.914,0.119451,0.0,0.0
12,2.75,18.0691,18.6784,157.101,99.1658,97.6911,0.000180291,0.0526915,21.0219,-338.944,0.133136,0.0,0.0
15,3.5,18.2922,18.9409,156.423,99.1586,97.1539,0.00019078,0.0530769,21.0216,-338.874,0.181483,0.0,0.0
18,4.25,18.3222,18.8691,160.021,99.1678,97.3975,0.000202018,0.0532355,21.0215,-338.884,0.160054,0.0,0.0
21,5,18.4421,18.8446,155.989,99.1638,97.2207,0.00023669,0.0532208,21.0213,-338.904,0.175846,0.0,0.0
24,5.75,18.4009,18.805,157.7,99.1594,97.2706,0.000291007,0.0529625,21.0212,-338.884,0.170891,0.0,0.0
27,6.5,18.4127,18.4249,158.237,99.163,96.7208,0.000360962,0.0525797,21.0212,-338.914,0.221579,0.0,0.0
30,7.25,18.6077,19.206,155.293,99.1626,96.4244,0.000461833,0.0521521,21.0211,-338.924,0.248814,0.0,0.0
33,8,18.8938,19.1368,159.264,99.1606,96.9259,0.000561918,0.0517771,21.0211,-338.934,0.202541,0.0,0.0
36,8.75,18.2694,18.5975,159.155,99.1594,97.33,0.000646199,0.051369,21.0211,-338.934,0.165469,0.0,0.0
39,9.5,18.2274,18.9064,157.214,99.1558,96.9349,0.000724863,0.05095,21.021,-338.944,0.201287,0.0,0.0
42,10.25,18.4072,18.7444,158.831,99.1475,96.4858,0.000793079,0.0505927,21.0213,-338.944,0.2418,0.0,0.0
45,11,17.8209,18.9497,155.253,99.157,96.5341,0.000847443,0.0500821,21.0218,-338.944,0.238209,0.0,0.0
48,11.75,18.9282,18.8948,157.43,99.1686,97.1437,0.000908737,0.0495481,21.0222,-338.934,0.183313,0.0,0.0
51,12.5,18.6663,18.9701,156.229,99.1491,96.1964,0.000972201,0.0490046,21.0225,-338.964,0.268638,0.0,0.0
54,13.25,18.6881,19.0724,159.059,99.1463,96.205,0.00103479,0.0484628,21.023,-338.974,0.267594,0.0,0.0
57,14,18.675,19.164,160.933,99.1582,96.1878,0.00109594,0.0479759,21.0235,-339.074,0.270254,0.0,0.0
60,14.75,18.175,18.9968,159.234,99.1582,96.6631,0.00114243,0.047464,21.0243,-338.434,0.226454,0.0,0.0
63,15.5,18.2367,19.3243,157.208,99.1471,96.4252,0.00117959,0.0469695,21.0249,-339.305,0.247346,0.0,0.0
66,16.25,18.6102,19.0051,161.725,99.1451,97.8568,0.00117735,0.0465289,21.0258,-339.685,0.116212,0.0,0.0
69,17,18.1846,19.2266,158.196,99.1471,96.8375,0.00114309,0.0461593,21.0266,-340.005,0.209438,0.0,0.0
72,17.75,18.6004,19.0834,161.286,99.1507,96.9759,0.00111582,0.0458898,21.027,-340.436,0.197071,0.0,0.0
75,18.5,18.3604,18.7782,157.007,99.1511,97.7013,0.00106779,0.0457742,21.0275,-340.766,0.130885,0.0,0.0
78,19.25,18.4519,19.0929,160.795,99.1391,96.9501,0.00100453,0.0457811,21.0278,-340.816,0.1984,0.0,0.0
81,20,18.5572,19.0008,155.179,99.1455,96.5157,0.000949795,0.0458831,21.0281,-340.406,0.23887,0.0,0.0
84,20.75,18.4434,18.5741,161.692,99.1431,97.6968,0.000909897,0.046063,21.0276,-339.945,0.130581,0.0,0.0
87,21.5,18.3296,19.2516,160.489,99.1371,96.5976,0.000886845,0.0464348,21.0272,-339.935,0.230585,0.0,0.0
90,22.25,18.4817,18.6261,164.159,99.1212,96.9771,0.000878332,0.0469215,21.0265,-339.815,0.194317,0.0,0.0
93,23,18.7933,18.9316,160.071,99.1391,96.8052,0.000881904,0.0473684,21.0261,-339.665,0.211692,0.0,0.0
96,23.75,18.5599,19.3816,157.722,99.1347,97.2448,0.000891397,0.0478006,21.0253,-339.445,0.171032,0.0,0.0
99,24.5,18.7998,19.2235,157.861,99.1291,96.6676,0.000903148,0.0482979,21.0245,-339.184,0.223433,0.0,0.0
102,25.25,18.3932,18.7714,157.864,99.1184,96.9501,0.000913773,0.0489574,21.0234,-339.064,0.196542,0.0,0.0
105,26,18.8526,18.7797,162.506,99.1244,96.7552,0.000934237,0.0496927,21.0225,-339.014,0.214955,0.0,0.0
108,26.75,18.1786,18.9564,158.95,99.1319,96.849,0.000970902,0.0505115,21.0219,-339.014,0.207029,0.0,0.0
111,27.5,18.591,18.8022,156.431,99.1339,96.8842,0.00101142,0.0512178,21.0214,-338.994,0.203978,0.0,0.0
114,28.25,18.7698,18.8184,159.944,99.1279,96.2312,0.00103492,0.0517398,21.0211,-338.994,0.263531,0.0,0.0
117,29,17.9119,18.6775,159.247,99.1164,96.7446,0.00103749,0.0521326,21.0209,-338.974,0.21522,0.0,0.0
120,29.75,18.2225,18.7161,156.366,99.1076,96.964,0.00103066,0.0522702,21.0207,-338.964,0.194303,0.0,0.0
123,30.5,18.9035,19.1146,163.468,99.1224,96.0331,0.000999839,0.0522504,21.0206,-338.984,0.281346,0.0,0.0
126,31.25,18.6207,19.2981,152.713,99.0917,97.1896,0.000964091,0.0521387,21.0205,-338.984,0.172226,0.0,0.0
129,32,18.8157,19.2789,157.675,99.1048,96.7867,0.000932368,0.052014,21.0204,-338.994,0.210311,0.0,0.0
132,32.75,18.9464,18.9555,156.094,99.0997,96.5775,0.000911148,0.051762,21.0203,-338.994,0.229074,0.0,0.0
135,33.5,18.328,18.9127,154.321,99.0929,96.4539,0.000898939,0.0515323,21.0203,-338.974,0.239849,0.0,0.0
138,34.25,19.035,18.8102,159.138,99.0929,96.8981,0.000914151,0.0513648,21.0198,-338.974,0.199023,0.0,0.0
141,35,18.8846,19.2384,161.163,99.0893,96.8162,0.000943362,0.0514275,21.0187,-338.984,0.206212,0.0,0.0
144,35.75,18.4892,19.4733,161.185,99.0965,97.0062,0.000985744,0.0517893,21.0156,-338.984,0.189439,0.0,1.0
147,36.5,18.6955,18.9263,155.974,99.0825,97.4438,0.00103949,0.0536735,21.0106,-339.014,0.148192,0.0,1.0
150,37.25,18.7842,19.2884,156.897,99.0853,96.867,0.00109318,0.0568379,21.0038,-339.014,0.201198,0.0,1.0
153,38,18.7977,19.2031,151.41,99.0821,96.2034,0.00113978,0.0599083,20.9926,-339.044,0.261995,0.0,1.0
156,38.75,18.9056,18.9663,153.105,99.0797,96.1415,0.00117593,0.0655876,20.9828,-339.014,0.267491,0.0,1.0
159,39.5,19.4402,19.0272,153.271,99.0833,95.7215,0.00119987,0.0719066,20.9729,-339.034,0.306719,0.0,1.0
162,40.25,18.5953,19.1694,149.307,99.0762,95.6638,0.00121628,0.0782825,20.9635,-339.044,0.311436,0.0,1.0
165,41,18.8097,18.9676,157.469,99.0642,95.4341,0.00124378,0.0843677,20.9553,-339.064,0.331722,0.0,1.0
168,41.75,19.2919,19.6454,153.905,99.0817,95.4378,0.00128683,0.0899919,20.9485,-339.084,0.332951,0.0,0.0
171,42.5,18.999,19.254,152.009,99.0742,94.6616,0.00132802,0.0945984,20.9435,-339.084,0.404835,0.0,0.0
174,43.25,19.2207,19.6714,152.051,99.0734,95.0092,0.00136956,0.0987663,20.9386,-339.104,0.372197,0.0,0.0
177,44,18.8211,19.3842,155.494,99.0519,96.1669,0.00141955,0.102027,20.9354,-339.104,0.262646,0.0,0.0
180,44.75,19.1833,19.6886,154.66,99.063,96.0457,0.0014439,0.104498,20.9336,-339.114,0.27485,0.0,0.0
183,45.5,20.1506,20.4433,156.584,99.0686,95.959,0.00143501,0.106418,20.9323,-339.114,0.283383,0.0,0.0
186,46.25,19.8181,20.2277,155.217,99.063,96.6217,0.00141717,0.107818,20.9314,-339.124,0.22172,0.0,0.0
189,47,19.6571,20.0409,153.843,99.0511,96.6074,0.00136787,0.108955,20.9307,-339.144,0.221964,0.0,0.0
192,47.75,20.2352,20.3262,151.586,99.0714,95.8787,0.00131646,0.10988,20.9297,-339.144,0.291066,0.0,0.0
195,48.5,20.3744,20.3941,153.979,99.0598,96.0052,0.0012945,0.110716,20.9284,-339.154,0.278314,0.0,0.0
198,49.25,20.2582,20.3037,155.136,99.0554,95.7051,0.00134064,0.111839,20.9266,-339.184,0.305738,0.0,0.0
201,50,20.08,20.3362,155.709,99.0495,95.7211,0.00146285,0.112877,20.921,-339.204,0.303719,0.0,0.0
204,50.75,19.9586,20.2711,161.344,99.0515,94.7447,0.00155922,0.115242,20.9146,-339.265,0.395,0.0,0.0
207,51.5,20.1244,21.3947,155.546,99.059,94.8307,0.00172224,0.11888,20.9039,-339.295,0.38762,0.0,0.0
210,52.25,20.6762,20.7232,152.439,99.0542,93.9223,0.00197995,0.123696,20.8906,-339.305,0.472721,0.0,0.0
213,53,20.7689,21.1342,153.339,99.0399,91.4177,0.00216782,0.132822,20.8777,-339.335,0.711605,0.0,0.0
216,53.75,20.9174,20.9537,147.81,99.0491,92.5476,0.0024953,0.138484,20.8599,-339.355,0.603275,0.0,0.0
219,54.5,21.1346,21.9118,147.818,99.053,91.6891,0.00281525,0.148422,20.8418,-339.375,0.686441,0.0,0.0
222,55.25,22.0606,22.0424,149.295,99.0534,91.9343,0.00319897,0.157114,20.8225,-339.435,0.662744,0.0,0.0
225,56,21.5952,22.1994,150.106,99.0415,91.5245,0.00355761,0.167293,20.8049,-339.475,0.701368,0.0,0.0
228,56.75,22.1393,22.3286,147.667,99.0319,90.4827,0.00384108,0.176351,20.7861,-339.485,0.802242,0.0,0.0
231,57.5,22.318,22.5496,147.626,99.0379,89.5595,0.0040854,0.186668,20.7687,-339.565,0.8939,0.0,0.0
234,58.25,22.2451,22.6567,151.597,99.0391,90.9068,0.00431799,0.196693,20.7538,-339.575,0.761333,0.0,0.0
237,59,22.6989,23.1619,144.896,99.0307,90.1814,0.00454801,0.205574,20.7385,-339.585,0.831774,0.0,0.0
240,59.75,22.9181,23.3658,143.165,99.026,88.48,0.00474147,0.215558,20.7215,-339.625,1.00059,0.0,0.0
243,60.5,23.1895,23.8231,145.17,99.0287,87.8757,0.00502602,0.224957,20.7033,-339.695,1.06173,0.0,0.0
246,61.25,23.17,23.4709,143.914,99.0379,85.227,0.00536261,0.238356,20.6801,-339.705,1.3345,0.0,0.0
249,62,23.8239,24.2456,140.796,99.0279,82.7028,0.0057242,0.253121,20.6451,-339.825,1.60076,0.0,0.0
252,62.75,24.2627,24.6752,137.391,99.0307,81.7023,0.00620645,0.270866,20.6145,-339.855,1.70916,0.0,0.0
255,63.5,24.607,24.6916,138.457,99.0355,81.1381,0.00665224,0.286778,20.5835,-339.865,1.77116,0.0,0.0
258,64.25,24.5869,24.922,139.712,99.0256,80.2322,0.00713838,0.307802,20.5428,-339.925,1.87004,0.0,0.0
261,65,25.8351,25.992,131.531,99.0196,77.6183,0.00768996,0.32559,20.513,-339.945,2.16381,0.0,0.0
264,65.75,26.2893,26.5698,142.941,99.0116,77.2195,0.00809206,0.342767,20.4846,-339.995,2.20886,0.0,0.0
267,66.5,26.8266,27.2636,141.893,99.0275,79.8093,0.00847551,0.361256,20.4611,-340.095,1.91718,0.0,0.0
270,67.25,27.1117,27.4809,138.088,99.0168,79.44,0.00890949,0.376487,20.4378,-340.125,1.95742,0.0,0.0
273,68,27.2323,27.526,134.485,99.0072,76.7856,0.00927784,0.390588,20.4208,-340.135,2.25854,0.0,0.0
276,68.75,27.9598,28.5527,134.364,99.0084,77.8025,0.00963526,0.40306,20.4015,-340.235,2.14175,0.0,0.0
279,69.5,28.5871,29.1287,133.061,98.9901,77.9429,0.00993199,0.415899,20.3817,-340.315,2.12408,0.0,0.0
282,70.25,29.364,29.7248,127.546,98.9905,76.9952,0.010147,0.42718,20.3619,-340.345,2.23282,0.0,0.0
285,71,30.0116,30.4698,135.08,98.9949,78.8538,0.0102939,0.438689,20.3423,-340.406,2.02127,0.0,0.0
288,71.75,30.7475,31.1755,132.666,98.9766,79.9026,0.010385,0.449116,20.3242,-340.446,1.90221,0.0,0.0
291,72.5,30.7723,31.3096,135.578,98.967,80.2821,0.0104189,0.458347,20.3084,-340.536,1.85925,0.0,0.0
294,73.25,32.3816,32.7984,131.268,98.9698,79.7995,0.0104316,0.466381,20.2958,-340.616,1.91308,0.0,0.0
297,74,32.7783,33.3701,134.052,98.9582,79.6844,0.0104203,0.473837,20.2828,-340.626,1.92487,0.0,0.0
300,74.75,33.082,33.8144,129.503,98.9658,81.6372,0.0104061,0.480686,20.2734,-340.726,1.71042,0.0,0.0
303,75.5,34.1423,34.9264,129.965,98.9527,81.4177,0.0103855,0.486934,20.2646,-340.736,1.73315,0.0,0.0
306,76.25,35.0037,35.2744,132.46,98.9479,79.7442,0.0103957,0.492459,20.2578,-340.776,1.91727,0.0,0.0
309,77,35.3954,36.3356,132.376,98.9415,79.1043,0.0104299,0.496856,20.2519,-340.856,1.98829,0.0,0.0
312,77.75,35.8666,36.8646,130.188,98.9335,79.7274,0.0105004,0.500693,20.2465,-340.916,1.91786,0.0,0.0
315,78.5,37.0273,38.0272,129.564,98.9212,76.8466,0.0106496,0.50442,20.2344,-340.986,2.24376,0.0,0.0
318,79.25,37.4573,38.597,132.163,98.9244,78.2119,0.0108309,0.508729,20.2211,-341.056,2.08757,0.0,0.0
321,80,37.9253,39.0346,128.126,98.914,77.4316,0.0110436,0.514564,20.2075,-341.146,2.17573,0.0,0.0
324,80.75,38.4858,39.6244,130.716,98.9196,76.438,0.0112198,0.521308,20.1941,-341.166,2.29099,0.0,0.0
327,81.5,39.1018,40.3619,133.684,98.912,76.3971,0.0113687,0.528343,20.1824,-341.236,2.29507,0.0,0.0
330,82.25,39.435,40.7215,134.58,98.9009,76.8654,0.0114839,0.535281,20.1707,-341.276,2.23976,0.0,0.0
333,83,40.1488,41.6801,131.971,98.8913,76.524,0.0115645,0.543041,20.1585,-341.356,2.27846,0.0,0.0
336,83.75,40.8536,42.3542,129.237,98.8793,76.7385,0.0116214,0.550549,20.1493,-341.436,2.25251,0.0,0.0
339,84.5,41.4233,43.0701,125.182,98.8734,76.8368,0.0116763,0.556811,20.1422,-341.516,2.2406,0.0,0.0
342,85.25,42.3021,43.8558,126.917,98.8602,77.5335,0.0117392,0.562296,20.1371,-341.577,2.15921,0.0,0.0
345,86,42.9581,44.5808,131.144,98.8582,78.7568,0.0118416,0.566648,20.1333,-341.647,2.01993,0.0,0.0
348,86.75,43.4779,45.1504,129.009,98.855,79.2235,0.0119507,0.569752,20.132,-341.657,1.96715,0.0,0.0
351,87.5,43.3885,45.3138,133.949,98.8451,78.148,0.012045,0.570945,20.1333,-341.717,2.0877,0.0,0.0
354,88.25,44.4295,46.4653,135.013,98.8319,75.3589,0.0121175,0.569659,20.1343,-341.797,2.40945,0.0,0.0
357,89,44.6496,46.6107,131.399,98.826,78.2753,0.012172,0.566941,20.1395,-341.847,2.07152,0.0,0.0
360,89.75,45.1777,47.4138,133.301,98.8044,80.0484,0.0121721,0.563156,20.1451,-341.927,1.87055,0.0,0.0
363,90.5,46.1358,48.3007,132.136,98.8076,77.172,0.0121044,0.557799,20.1558,-341.957,2.196,0.0,0.0
366,91.25,45.5327,47.6918,129.003,98.7941,74.9552,0.0119768,0.552787,20.1667,-342.037,2.45377,0.0,0.0
369,92,46.8834,48.9241,134.263,98.7754,78.7244,0.0118765,0.549134,20.1783,-342.137,2.01613,0.0,0.0
372,92.75,47.2479,49.5574,131.393,98.7718,76.996,0.0118505,0.542023,20.1907,-342.167,2.21307,0.0,0.0
375,93.5,47.4895,49.9626,140.945,98.7634,78.9504,0.0118826,0.535663,20.1997,-342.207,1.98959,0.0,0.0
378,94.25,47.3946,50.05,135.433,98.7534,75.7278,0.0119589,0.530297,20.2063,-342.287,2.359,0.0,0.0
381,95,48.1258,50.6364,132.358,98.7303,75.32,0.0120145,0.525996,20.2111,-342.307,2.4049,0.0,0.0
384,95.75,47.8951,50.8065,134.262,98.7272,73.7476,0.012117,0.523761,20.2133,-342.377,2.59208,0.0,0.0
387,96.5,48.4725,51.0846,131.821,98.7136,73.8426,0.01217,0.523019,20.2143,-342.447,2.57943,0.0,0.0
390,97.25,49.0716,51.8595,134.93,98.7037,75.571,0.0121993,0.522856,20.2151,-342.527,2.37294,0.0,0.0
393,98,48.8376,51.599,130.437,98.6981,75.8444,0.0121315,0.522484,20.2156,-342.587,2.34034,0.0,0.0
396,98.75,49.5266,52.2958,128.529,98.6805,76.9285,0.0119928,0.52159,20.2179,-342.617,2.21266,0.0,0.0
399,99.5,50.034,52.9102,137.042,98.6742,77.6555,0.0118121,0.52006,20.2227,-342.708,2.1285,0.0,0.0
402,100.25,50.6111,53.4022,131.364,98.6288,79.0728,0.0116095,0.517396,20.233,-342.718,1.9637,0.0,0.0
405,101,50.3378,53.2947,131.309,98.6423,78.6012,0.0113477,0.513543,20.245,-342.768,2.01807,0.0,0.0
408,101.75,50.3689,53.3507,130.366,98.6283,77.2122,0.0111568,0.508595,20.2556,-342.828,2.17525,0.0,0.0
411,102.5,49.3507,52.2033,140.44,98.614,79.9255,0.0108624,0.501599,20.2664,-342.878,1.86706,0.0,0.0
414,103.25,51.3371,54.3333,134.958,98.612,79.5968,0.0105757,0.495915,20.2758,-342.938,1.9035,0.0,0.0
417,104,51.8544,54.9342,131.134,98.5893,77.9405,0.0103008,0.490773,20.2831,-342.998,2.08831,0.0,0.0
420,104.75,52.0767,55.1046,128.234,98.5933,80.8241,0.0101182,0.485323,20.2882,-343.038,1.76584,0.0,0.0
423,105.5,51.161,54.2214,137.677,98.5754,79.3884,0.00987136,0.480275,20.2958,-343.078,1.92349,0.0,0.0
426,106.25,50.7869,53.9615,128.685,98.5638,79.2992,0.00963025,0.474759,20.3089,-343.108,1.93244,0.0,0.0
429,107,51.8952,55.0356,131.163,98.5622,79.5538,0.00940606,0.469057,20.3211,-343.158,1.90381,0.0,0.0
432,107.75,52.3051,55.4217,128.828,98.5774,80.8331,0.00923257,0.46564,20.3334,-343.208,1.76342,0.0,0.0
435,108.5,52.6869,55.9403,137.635,98.5754,80.0463,0.00910181,0.45843,20.3464,-343.258,1.85016,0.0,0.0
438,109.25,53.5008,56.8767,129.419,98.5558,78.6077,0.00898262,0.451261,20.3574,-343.298,2.00954,0.0,0.0
441,110,53.6665,57.2335,133.376,98.5734,77.6297,0.00887103,0.444185,20.3682,-343.338,2.12237,0.0,0.0
444,110.75,52.9435,56.7456,134.381,98.5829,78.2438,0.00876482,0.437256,20.3811,-343.388,2.05322,0.0,0.0
447,111.5,51.4041,55.0657,139.095,98.5869,80.4356,0.00865478,0.42975,20.3905,-343.408,1.80809,0.0,0.0
450,112.25,51.9727,55.5811,136.593,98.5837,80.0283,0.00856066,0.423231,20.4018,-343.468,1.85291,0.0,0.0
453,113,52.9449,56.6543,134.941,98.5861,79.5395,0.0084507,0.416228,20.412,-343.508,1.90756,0.0,0.0
456,113.75,53.2329,56.8892,138.673,98.5941,78.6319,0.00834368,0.409291,20.4228,-343.558,2.01026,0.0,0.0
459,114.5,53.441,57.1807,139.25,98.6013,78.7408,0.00824989,0.402745,20.4344,-343.588,1.99861,0.0,0.0
462,115.25,53.0362,56.6878,138.763,98.6017,80.0111,0.00816367,0.396683,20.4469,-343.648,1.85644,0.0,0.0
465,116,53.6193,57.3338,145.663,98.6021,77.9437,0.00810081,0.390061,20.4577,-343.658,2.08908,0.0,0.0
468,116.75,53.5023,57.0456,141.243,98.6303,77.9867,0.00802455,0.383952,20.4659,-343.708,2.08673,0.0,0.0
471,117.5,53.5228,57.5093,141.262,98.6299,81.0251,0.00792397,0.378945,20.4725,-343.768,1.74708,0.0,0.0
474,118.25,53.5742,57.0661,144.853,98.6228,80.7926,0.00778614,0.375058,20.4778,-343.798,1.77197,0.0,0.0
477,119,52.6612,56.636,138.082,98.628,78.3719,0.00760816,0.370191,20.4867,-343.809,2.04274,0.0,0.0
480,119.75,53.2986,57.1355,139.221,98.6435,78.8988,0.00733907,0.364914,20.4987,-343.869,1.9846,0.0,0.0
483,120.5,53.2413,57.1858,142.552,98.6447,79.492,0.00700522,0.358113,20.5169,-343.879,1.91815,0.0,0.0
486,121.25,53.1987,57.0594,145.023,98.6483,82.9251,0.00662797,0.346233,20.5478,-343.919,1.54277,0.0,0.0
489,122,52.9855,56.9276,141.849,98.6515,85.9619,0.00614516,0.334066,20.5838,-343.939,1.22347,0.0,0.0
492,122.75,52.4209,56.4599,154.926,98.6594,87.5126,0.00579318,0.319199,20.616,-343.939,1.06532,0.0,0.0
495,123.5,52.3425,56.218,151.651,98.659,90.5191,0.0052701,0.300683,20.6607,-343.949,0.765142,0.0,0.0
498,124.25,52.4747,56.5725,153.345,98.6714,92.5517,0.00475903,0.277379,20.6988,-343.939,0.568935,0.0,0.0
501,125,52.0348,56.1337,156.963,98.6754,92.9091,0.00426118,0.257605,20.7361,-343.959,0.535047,0.0,0.0
504,125.75,51.5428,55.874,152.953,98.6801,93.9661,0.0037786,0.233068,20.7764,-343.959,0.434955,0.0,0.0
507,126.5,51.2955,55.4623,151.602,98.6921,94.5581,0.0033017,0.212056,20.8109,-343.939,0.380229,0.0,0.0
510,127.25,50.7532,54.8858,153.388,98.6917,95.4055,0.00285606,0.191396,20.8447,-343.939,0.300914,0.0,0.0
513,128,50.222,54.714,154.082,98.7088,95.9876,0.00257477,0.169945,20.8676,-343.949,0.248403,0.0,0.0
516,128.75,49.8641,53.8515,157.608,98.6961,96.3671,0.0021881,0.152178,20.8988,-343.959,0.212194,0.0,0.0
519,129.5,49.4299,53.3655,155.01,98.71,96.3827,0.00187992,0.135586,20.9236,-343.959,0.212015,0.0,0.0
522,130.25,48.6397,52.5658,156.545,98.7184,95.9344,0.0015812,0.121013,20.9447,-343.929,0.254192,0.0,0.0
525,131,47.8708,52.3287,154.761,98.7156,96.4711,0.00133931,0.111885,20.9622,-343.929,0.204368,0.0,0.0
528,131.75,47.4871,51.9091,153.358,98.72,96.4203,0.00114697,0.100134,20.9761,-343.929,0.20944,0.0,0.0
531,132.5,46.7842,51.1341,156.517,98.7371,97.0029,0.000996996,0.0896497,20.9881,-343.919,0.157458,0.0,0.0
534,133.25,46.2045,50.5904,153.599,98.7435,96.686,0.000865315,0.082007,20.9977,-343.909,0.187104,0.0,0.0
537,134,45.9036,50.0569,158.056,98.7519,96.6373,0.000754738,0.0749869,21.0051,-343.919,0.192335,0.0,0.0
540,134.75,45.15,49.3907,159.053,98.7554,96.9984,0.000649195,0.0694095,21.0109,-343.929,0.159519,0.0,0.0
543,135.5,44.5527,48.6995,157.917,98.7742,96.598,0.000549454,0.064977,21.016,-343.929,0.197957,0.0,0.0
546,136.25,44.3827,48.9957,156.709,98.7718,96.413,0.000437756,0.0614538,21.0192,-343.909,0.214779,0.0,0.0
549,137,44.2374,48.1052,157.083,98.7877,96.5829,0.000341726,0.0584425,21.0215,-343.919,0.200569,0.0,0.0
552,137.75,43.9286,47.9351,157.397,98.777,96.8555,0.000246754,0.0562473,21.0232,-343.909,0.174553,0.0,0.0
555,138.5,43.2553,47.9107,152.473,98.7885,96.2111,0.000194608,0.0541658,21.0243,-343.909,0.234905,0.0,0.0
558,139.25,42.2228,46.8043,157.829,98.7925,96.9533,0.000136893,0.0525353,21.0261,-343.929,0.166979,0.0,0.0
561,140,42.4771,46.75,153.047,98.7921,97.1212,9.91447e-05,0.051153,21.0274,-343.939,0.151573,0.0,0.0
564,140.75,42.2664,46.6173,148.965,98.7929,95.9708,8.19113e-05,0.0500106,21.0283,-343.929,0.257521,0.0,0.0
567,141.5,42.014,46.2966,158.799,98.8076,96.284,8.137e-05,0.0493864,21.029,-343.919,0.229897,0.0,0.0
570,142.25,40.9882,45.0822,158.938,98.8256,96.6279,9.49619e-05,0.0485114,21.0295,-343.889,0.19983,0.0,0.0
573,143,40.6959,44.6603,156.863,98.8184,96.2664,0.000120023,0.0478062,21.0305,-343.919,0.23249,0.0,0.0
576,143.75,40.0814,44.1352,158.01,98.8184,96.3442,0.000138293,0.0472208,21.0312,-343.919,0.225313,0.0,0.0
579,144.5,40.9793,44.5933,152.689,98.8276,96.431,0.000189373,0.0467213,21.0317,-343.899,0.218136,0.0,0.0
582,145.25,39.7864,43.9085,156.778,98.8323,97.2063,0.000230045,0.0462226,21.0321,-343.909,0.147404,0.0,0.0
585,146,39.8935,43.7239,160.934,98.8276,97.1097,0.000252471,0.0458591,21.0324,-343.909,0.15581,0.0,0.0
588,146.75,39.3743,43.5358,159.358,98.8459,97.4094,0.000265741,0.0454788,21.0326,-343.919,0.13008,0.0,0.0
591,147.5,38.6859,42.6458,156.587,98.8339,96.5902,0.000268548,0.0451733,21.0328,-343.909,0.204047,0.0,0.0
594,148.25,38.7293,42.7416,157.123,98.8439,96.598,0.000264578,0.044902,21.0329,-343.909,0.204227,0.0,0.0
597,149,38.5336,42.1484,158.322,98.8423,96.1121,0.000254685,0.0447043,21.0329,-343.899,0.248896,0.0,0.0
600,149.75,38.8833,42.1991,162.578,98.8503,97.1191,0.000239894,0.0445531,21.0336,-343.919,0.15699,0.0,0.0
603,150.5,37.8872,41.7997,155.27,98.8515,96.4568,0.000223413,0.0444236,21.0341,-343.919,0.217909,0.0,0.0
606,151.25,37.419,41.1844,153.983,98.8694,96.4592,0.000201656,0.0443171,21.0345,-343.919,0.219294,0.0,0.0
609,152,37.2333,40.7288,154.637,98.8766,96.8637,0.000186998,0.0441626,21.0348,-343.919,0.182757,0.0,0.0
612,152.75,36.5976,40.6736,154.437,98.8734,96.7315,0.000181256,0.0440217,21.035,-343.929,0.194608,0.0,0.0
615,153.5,36.9512,40.8499,154.215,98.8762,96.4158,0.000184648,0.0438705,21.0351,-343.929,0.2239,0.0,0.0
618,154.25,36.4198,40.1992,154.598,98.8909,96.8711,0.000192269,0.0437531,21.0352,-343.909,0.18337,0.0,0.0
621,155,35.9098,39.6116,157.232,98.9017,96.5018,0.000202636,0.0436555,21.0353,-343.909,0.218272,0.0,0.0
624,155.75,36.0793,39.7865,158.968,98.8889,96.7978,0.000213513,0.0434883,21.0353,-343.929,0.189915,0.0,0.0
627,156.5,35.5697,39.1549,158.383,98.8909,96.5395,0.000223608,0.0433529,21.0354,-343.949,0.213838,0.0,0.0
630,157.25,35.5249,38.9704,155.782,98.9005,96.598,0.000230967,0.0432698,21.0354,-343.909,0.209311,0.0,0.0
633,158,35.0061,38.905,159.164,98.9033,96.6058,0.000236332,0.0432455,21.0354,-343.929,0.208846,0.0,0.0
636,158.75,34.7439,38.4184,155.333,98.9136,96.4007,0.000234544,0.0431894,21.0354,-343.929,0.228662,0.0,0.0
639,159.5,34.6032,38.3362,158.06,98.9228,96.8977,0.000223495,0.0431273,21.035,-343.949,0.183792,0.0,0.0
642,160.25,34.245,37.7946,156.948,98.9172,97.1863,0.000210629,0.0430456,21.0347,-343.949,0.156863,0.0,0.0
645,161,34.2548,37.5982,160.124,98.9216,96.8551,0.000204263,0.0429861,21.0345,-343.929,0.187591,0.0,0.0
648,161.75,33.7431,37.1299,155.633,98.9184,96.9935,0.000208283,0.0429427,21.0344,-343.919,0.174618,0.0,0.0
651,162.5,33.9172,37.3561,156.207,98.9279,97.3861,0.000228062,0.0428898,21.0343,-343.919,0.139583,0.0,0.0
654,163.25,33.6096,37.6741,160.401,98.9287,97.1609,0.000249029,0.0428149,21.0342,-343.899,0.160223,0.0,0.0
657,164,33.1504,36.5899,158.231,98.9415,96.5923,0.000263232,0.0427987,21.0341,-343.919,0.213525,0.0,0.0
660,164.75,32.8864,36.7554,159.037,98.9439,97.0708,0.000259653,0.0427515,21.0341,-343.939,0.169824,0.0,0.0
663,165.5,32.834,36.5253,154.842,98.9395,96.5104,0.000233222,0.0426565,21.0334,-343.939,0.220881,0.0,0.0
666,166.25,32.5406,35.9958,157,98.9395,96.8138,0.000198515,0.042568,21.0329,-343.929,0.192995,0.0,0.0
669,167,32.7919,35.9965,161.356,98.9475,97.3062,0.000172581,0.0425036,21.0326,-343.939,0.148623,0.0,0.0
672,167.75,32.1384,35.7085,158.754,98.9523,97.2301,0.000152593,0.0424374,21.0323,-343.939,0.156009,0.0,0.0
675,168.5,32.1602,35.6178,158.206,98.9558,96.6394,0.000174049,0.0423749,21.0326,-343.929,0.210483,0.0,0.0
678,169.25,31.7278,35.2919,154.068,98.9634,96.7487,0.000213762,0.0423052,21.033,-343.919,0.201117,0.0,0.0
681,170,31.4778,34.8888,156.847,98.9574,97.1679,0.00026185,0.0422544,21.0332,-343.919,0.162163,0.0,0.0
684,170.75,31.3756,34.6221,157.769,98.9666,96.5198,0.000312079,0.0422173,21.0334,-343.939,0.222447,0.0,0.0
687,171.5,31.1927,34.6239,158.765,98.9614,96.7777,0.000353516,0.0421903,21.0336,-343.929,0.19827,0.0,0.0
690,172.25,30.9072,33.8631,156.149,98.9542,96.9664,0.000385777,0.0421514,21.0337,-343.929,0.180314,0.0,0.0
693,173,31.1153,34.1098,157.111,98.9674,96.9034,0.00040414,0.0420655,21.0338,-343.939,0.187275,0.0,0.0
696,173.75,30.7642,33.9376,155.336,98.9698,97.0017,0.000399463,0.0419887,21.0338,-343.939,0.178483,0.0,0.0
699,174.5,30.5035,33.3517,153.266,98.9789,97.2239,0.000388351,0.0419085,21.0339,-343.919,0.158967,0.0,0.0
702,175.25,30.5234,33.3752,157.716,98.9742,97.147,0.000339053,0.0418358,21.0339,-343.929,0.165574,0.0,0.0
705,176,30.9473,33.3584,154.904,98.9841,97.0798,0.000265839,0.0417586,21.0339,-343.919,0.172611,0.0,0.0
708,176.75,30.3468,32.6993,156.791,98.9957,96.8981,0.000186455,0.0417408,21.0339,-343.919,0.190303,0.0,0.0
711,177.5,29.8764,32.9882,154.85,98.9929,97.0954,0.000111278,0.0417412,21.0339,-343.929,0.171974,0.0,0.0
714,178.25,29.3263,32.0285,157.042,98.9853,96.8756,5.07822e-05,0.0417543,21.0339,-343.919,0.191437,0.0,0.0
717,179,29.8625,32.5499,160.379,98.9965,97.2641,-3.05306e-06,0.041776,21.0339,-343.919,0.156875,0.0,0.0
720,179.75,29.8254,33.02,156.011,99.0164,97.219,-4.91556e-05,0.0417918,21.034,-343.909,0.162778,0.0,0.0
723,180.5,29.3139,32.0911,160.059,98.9997,97.4446,-8.63695e-05,0.0418175,21.034,-343.909,0.140683,0.0,0.0
726,181.25,28.7938,31.4374,155.737,99.0132,97.1187,-0.000115035,0.0418604,21.034,-343.919,0.171663,0.0,0.0
729,182,28.5652,31.3824,155.466,99.0005,96.3925,-0.000139095,0.0418563,21.034,-343.929,0.237215,0.0,0.0
732,182.75,28.8459,31.1311,159.37,99.0236,97.4692,-0.000162043,0.0417928,21.0343,-343.939,0.140588,0.0,0.0
735,183.5,28.9501,31.8707,155.269,99.0224,97.233,-0.00016435,0.0417465,21.0346,-343.929,0.162042,0.0,0.0
738,184.25,28.665,30.9278,157.783,99.0279,97.3865,-0.000149765,0.0417127,21.0348,-343.929,0.148523,0.0,0.0
741,185,27.9124,31.127,158.758,99.0236,97.7349,-0.000121827,0.0416689,21.0349,-343.939,0.1164,0.0,0.0
744,185.75,28.3535,30.7897,156.415,99.0391,97.1515,-9.57681e-05,0.0416511,21.035,-343.929,0.170992,0.0,0.0
747,186.5,28.4841,30.9649,155.866,99.0367,97.2375,-6.70366e-05,0.0416624,21.0351,-343.929,0.162917,0.0,0.0
750,187.25,28.4452,30.7429,158.474,99.0491,97.2637,-2.89478e-05,0.0416706,21.0351,-343.939,0.161631,0.0,0.0
753,188,28.07,31.026,156.951,99.0471,97.167,1.80592e-05,0.0416695,21.0352,-343.929,0.170283,0.0,0.0
756,188.75,27.964,30.4941,151.309,99.063,97.1826,6.05298e-05,0.0416566,21.0352,-343.929,0.17029,0.0,0.0
759,189.5,27.652,30.7506,160.263,99.0642,97.3701,0.000132813,0.0416337,21.0352,-343.919,0.15327,0.0,0.0
762,190.25,28.0616,30.3904,156.213,99.0746,96.955,0.000198752,0.0416042,21.0351,-343.909,0.192162,0.0,0.0
765,191,27.3181,29.8301,160.808,99.0861,97.217,0.0002512,0.0415706,21.0349,-343.909,0.169219,0.0,0.0
768,191.75,27.9097,30.2403,154.404,99.0845,97.3005,0.000287268,0.0415596,21.0348,-343.929,0.161446,0.0,0.0
771,192.5,27.4816,29.6252,154.836,99.0925,97.2612,0.000312294,0.0415923,21.0347,-343.929,0.165751,0.0,0.0
774,193.25,27.0983,30.0812,157.904,99.0989,97.0545,0.00032837,0.0416761,21.0346,-343.909,0.185229,0.0,0.0
777,194,27.6645,29.7027,158.178,99.1032,97.2022,0.000335273,0.0417564,21.0346,-343.919,0.172102,0.0,0.0
780,194.75,27.0148,29.6493,157.13,99.1212,96.9181,0.00033464,0.0417866,21.0345,-343.929,0.199719,0.0,0.0
783,195.5,26.4398,29.3373,161.729,99.1228,96.9382,0.000330106,0.0417602,21.0345,-343.939,0.198024,0.0,0.0
786,196.25,26.4139,29.3404,156.204,99.1335,97.0893,0.000322467,0.0417005,21.0345,-343.939,0.185152,0.0,0.0
789,197,27.2857,29.2313,158.867,99.1319,97.3034,0.000315695,0.0416398,21.0345,-343.949,0.165435,0.0,0.0
792,197.75,26.4052,29.0999,157.777,99.1311,97.3071,0.000308978,0.0415956,21.0344,-343.949,0.165027,0.0,0.0
795,198.5,26.85,29.4176,159.157,99.1499,97.1408,0.000301915,0.0415768,21.0351,-343.919,0.181895,0.0,0.0
798,199.25,26.5084,28.9307,155.057,99.1542,97.3811,0.000294817,0.0415618,21.0355,-343.929,0.160335,0.0,0.0
801,200,26.7147,28.6239,156.866,99.153,97.0156,0.000286312,0.0415387,21.0358,-343.919,0.193648,0.0,0.0
804,200.75,26.3408,28.7184,157.999,99.1686,96.8395,0.000278395,0.0414643,21.0362,-343.929,0.211178,0.0,0.0
807,201.5,26.1579,28.7513,157.192,99.1774,96.9116,0.000273827,0.0414171,21.0366,-343.919,0.205355,0.0,0.0
810,202.25,25.6478,28.5975,156.99,99.1845,97.0041,0.00027101,0.0413949,21.0369,-343.919,0.197518,0.0,0.0
813,203,25.9692,28.3615,156.006,99.1873,97.6996,0.000274105,0.041379,21.0371,-343.929,0.134283,0.0,0.0
816,203.75,25.6682,27.9812,159.977,99.1905,97.4082,0.000276362,0.0413681,21.0372,-343.909,0.161118,0.0,0.0
819,204.5,26.0847,28.0405,157.838,99.2064,97.2653,0.000278007,0.0413985,21.0373,-343.909,0.175588,0.0,0.0
822,205.25,25.6621,28.126,154.561,99.2264,96.6504,0.000277306,0.0414072,21.0374,-343.919,0.233724,0.0,0.0
825,206,25.7761,27.4746,161.014,99.2208,97.2825,0.000273546,0.041429,21.0376,-343.909,0.175302,0.0,0.0
828,206.75,25.6111,28.0986,157.405,99.2156,96.7413,0.000274606,0.0414813,21.0378,-343.919,0.22441,0.0,0.0
831,207.5,25.7587,27.498,154.361,99.2271,97.321,0.000281877,0.0415194,21.0379,-343.919,0.172359,0.0,0.0
834,208.25,25.2244,27.4616,155.682,99.2427,97.35,0.000282027,0.041528,21.038,-343.919,0.171097,0.0,0.0
837,209,25.0078,26.6311,156.735,99.2347,97.0356,0.000273271,0.0415413,21.0381,-343.919,0.199127,0.0,0.0
840,209.75,24.911,27.1143,156.475,99.2511,96.8068,0.000251727,0.0415631,21.0381,-343.939,0.22157,0.0,0.0
843,210.5,25.4121,27.7952,156.56,99.2507,97.156,0.000217151,0.041579,21.0381,-343.939,0.189539,0.0,0.0
846,211.25,24.9001,27.2195,156.333,99.2598,97.4053,0.000191944,0.0415906,21.0382,-343.929,0.167587,0.0,0.0
849,212,25.3382,27.2908,154.658,99.2726,97.5187,0.000175468,0.0415991,21.0382,-343.919,0.15839,0.0,0.0
852,212.75,24.7433,26.4509,152.196,99.2634,97.3144,0.000166704,0.0415649,21.0382,-343.899,0.176202,0.0,0.0
855,213.5,24.7713,26.6788,156.835,99.2889,97.5113,0.000160315,0.0415228,21.0382,-343.899,0.160523,0.0,0.0
858,214.25,24.6741,26.6289,158.592,99.2813,97.567,0.000155658,0.0414921,21.0382,-343.909,0.154773,0.0,0.0
861,215,24.5808,26.5932,156.055,99.2837,97.969,0.000142642,0.0415081,21.0382,-343.909,0.118449,0.0,0.0
864,215.75,25.016,26.6511,154.67,99.2905,97.6526,0.00012842,0.0415197,21.0382,-343.909,0.147805,0.0,0.0
867,216.5,24.8616,26.8945,156.161,99.2897,97.4569,0.00011697,0.0415666,21.0382,-343.919,0.165557,0.0,0.0
870,217.25,23.9689,26.4895,158.204,99.3104,97.5981,0.000136067,0.0415738,21.0382,-343.919,0.154543,0.0,0.0
873,218,24.587,26.3913,159.369,99.3048,97.2338,0.000165824,0.0415677,21.0382,-343.899,0.187278,0.0,0.0
876,218.75,24.4755,26.5182,155.913,99.3076,97.4651,0.000214594,0.0415248,21.0382,-343.919,0.166414,0.0,0.0
879,219.5,24.7018,26.1231,156.593,99.3084,98.0182,0.000272476,0.0415289,21.0382,-343.919,0.116206,0.0,0.0
882,220.25,24.7656,26.8428,155.296,99.3244,97.8962,0.000314672,0.0415925,21.0382,-343.909,0.128697,0.0,0.0
885,221,23.9225,25.507,158.461,99.3196,97.5371,0.000331691,0.041658,21.0382,-343.919,0.160918,0.0,0.0
888,221.75,24.0548,25.4054,155.922,99.3228,97.5429,0.000321227,0.0416654,21.0382,-343.929,0.160681,0.0,0.0
891,222.5,24.144,26.1075,154.856,99.3176,97.689,0.000289919,0.0416536,21.0382,-343.919,0.146915,0.0,0.0
894,223.25,24.6085,26.0086,157.679,99.3248,97.3038,0.000243278,0.0416258,21.0382,-343.939,0.182665,0.0,0.0
897,224,24.382,25.4387,155.056,99.3299,97.714,0.000181842,0.0416268,21.0382,-343.939,0.145748,0.0,0.0
900,224.75,24.3155,25.2726,159.444,99.3291,96.9701,0.00013345,0.0416639,21.0382,-343.929,0.213578,0.0,0.0
903,225.5,24.5927,25.8166,153.267,99.3136,97.7103,9.66348e-05,0.0416717,21.0382,-343.919,0.144621,0.0,0.0
906,226.25,24.3658,26.0664,155.072,99.3491,97.2289,7.32251e-05,0.041649,21.0382,-343.909,0.191682,0.0,0.0
909,227,23.9065,25.5053,159.309,99.3419,96.8739,5.61595e-05,0.0415841,21.0382,-343.919,0.223539,0.0,0.0
912,227.75,24.0222,25.4324,154.407,99.3471,97.3852,9.43727e-06,0.0414984,21.0382,-343.919,0.177224,0.0,0.0
915,228.5,24.0468,25.5836,157.561,99.3244,96.4506,-2.46232e-05,0.0414628,21.0382,-343.909,0.260882,0.0,0.0
918,229.25,23.5048,25.6157,159.181,99.3423,97.3111,-6.74795e-05,0.0414484,21.0382,-343.899,0.18356,0.0,0.0
921,230,23.6612,25.3887,155.403,99.3371,96.9611,-9.03439e-05,0.0414244,21.0382,-343.899,0.215116,0.0,0.0
924,230.75,23.4504,25.3939,153.802,99.3343,97.3038,-0.000111076,0.0414011,21.0382,-343.909,0.18352,0.0,0.0
927,231.5,23.6596,25.6784,157.575,99.3271,97.2166,-9.36231e-05,0.0414125,21.0382,-343.899,0.190845,0.0,0.0
930,232.25,23.2534,25.2457,158.296,99.3319,97.2354,-6.95138e-05,0.0414692,21.0382,-343.919,0.189552,0.0,0.0
933,233,23.1343,25.0511,157.803,99.3463,97.6509,-3.2468e-05,0.0415251,21.0382,-343.909,0.152944,0.0,0.0
936,233.75,23.8946,24.9473,158.445,99.3479,97.8835,9.97222e-06,0.0416039,21.0382,-343.909,0.131953,0.0,0.0
939,234.5,23.883,25.319,159.81,99.3232,97.7099,4.09112e-05,0.0416855,21.0382,-343.919,0.145514,0.0,0.0
942,235.25,23.7336,24.6142,157.755,99.3283,97.3746,2.74596e-05,0.0416683,21.0382,-343.909,0.176521,0.0,0.0
945,236,23.7042,24.816,157.268,99.3279,97.6784,4.37111e-06,0.0416019,21.0382,-343.919,0.14881,0.0,0.0
948,236.75,23.3293,24.8598,159.31,99.3236,97.4593,-3.51731e-05,0.0415305,21.0382,-343.909,0.168363,0.0,0.0
951,237.5,22.9756,24.947,154.762,99.3212,97.6943,-7.42848e-05,0.0414785,21.0382,-343.909,0.146751,0.0,0.0
954,238.25,23.5979,24.9438,155.655,99.3164,97.6006,,0.0414477,,-343.909,0.154854,0.0,0.0
957,239,23.3994,24.4375,163.898,99.3256,97.9395,,0.0414373,,-343.929,0.124867,0.0,0.0
960,239.75,23.9213,24.5662,158.679,99.3168,96.8363,,0.0414029,,-343.939,0.224747,0.0,0.0
963,240.5,23.0671,24.6552,153.141,99.3088,96.9075,,0.0414017,,-343.929,0.217501,0.0,0.0
966,241.25,23.4389,24.5147,153.691,99.31,97.6554,,,,-343.919,0.149291,0.0,0.0
969,242,23.2575,24.7081,158.205,99.3096,98.2847,,,,-343.929,0.0921857,0.0,0.0
972,242.75,23.0862,24.475,155.594,99.3084,97.9846,,,,-343.939,0.119249,0.0,0.0
975,243.5,22.9831,24.712,154.493,99.3104,97.6399,,,,-343.919,0.150742,0.0,0.0
978,244.25,23.0438,24.3331,154.101,99.2901,97.838,,,,-343.939,0.13091,0.0,0.0
981,245,22.5876,24.1838,157.494,99.3124,96.9059,,,,-343.929,0.217973,0.0,0.0
984,245.75,22.7132,24.2609,156.35,99.2925,97.4913,,,,-343.929,0.162672,0.0,0.0
987,246.5,22.7492,24.1515,156.989,99.2857,97.2882,,,,-343.929,0.180592,0.0,0.0
990,247.25,22.7724,24.0723,158.598,99.2634,97.6206,,,,-343.929,0.148286,0.0,0.0
993,248,22.6504,24.0139,158.839,99.2754,98.0505,,,,-343.929,0.110315,0.0,0.0
996,248.75,22.7508,23.9526,157.327,99.2674,97.7365,,,,-343.919,0.138103,0.0,0.0