File: 01_Data/PE_Foam_Pipe_Insulation/Cone/PE_Foam_Pipe_Insulation_Cone_HF50Scan_220316_R2.csv
Names,Time,Stack TC,Smoke TC,Exh Press,Smoke Comp,Smoke Meas,CO Meter,CO2 Meter,O2 Meter,Sample Mass,Ext Coeff,Start Test,Flame Verif
Chan Gain,,500,500,1,1,1,1,1,1,1,1,1.0,1.0
Offset,,0,0,0.136382,0,0,0,0,0,0,0,0.0,0.0
Gain,,1,1,25.011,13.0548,13.4146,1,1,1,1.00087,1.01298,1.0,1.0
Units,sec,C,C,Pa,%,%,%,%,%,g,/m,,
Baseline,,32.4909,33.5211,151.211,98.0725,94.985,0.000197727,0.0439272,21.0274,-833.424,0.28431,,
2,0.25,30.7204,31.5618,149.797,98.3017,95.3731,0.000250558,0.0499194,21.019,-334.641,0.268741,0.0,0.0
4,0.75,30.3752,31.289,151.23,98.2925,95.299,0.000318048,0.0495417,21.0191,-339.695,0.274819,0.0,0.0
6,1.25,30.7529,31.6078,149.052,98.2921,94.5032,0.000372714,0.0491861,21.0195,-339.745,0.349298,0.0,0.0
8,1.75,30.4045,30.9261,146.924,98.3037,94.2297,0.000495442,0.0488534,21.0201,-339.775,0.376093,0.0,0.0
10,2.25,30.5394,31.4786,151.441,98.2973,94.459,0.000594852,0.0488536,21.0202,-339.855,0.353925,0.0,0.0
12,2.75,30.3798,31.534,151.77,98.3045,93.327,0.00070019,0.0490966,21.0198,-339.835,0.461698,0.0,0.0
14,3.25,30.4963,31.5633,155.95,98.2933,94.0238,0.000807849,0.0492935,21.0195,-339.875,0.394596,0.0,0.0
16,3.75,30.5394,31.1361,145.615,98.3228,93.6885,0.000895053,0.049453,21.0145,-339.875,0.429003,0.0,0.0
18,4.25,30.3206,31.0346,147.484,98.308,94.7415,0.000993523,0.0534848,21.0104,-339.905,0.328365,0.0,1.0
20,4.75,30.7609,31.7779,145.073,98.3112,94.4283,0.00107328,0.0567505,21.0029,-339.925,0.358074,0.0,1.0
22,5.25,30.8308,31.5309,145.039,98.2969,94.1847,0.00113426,0.062619,20.993,-339.775,0.379729,0.0,1.0
24,5.75,30.817,31.8491,141.984,98.3136,94.0259,0.00118365,0.0673725,20.9851,-339.715,0.396239,0.0,1.0
26,6.25,30.7034,31.9713,150.531,98.3168,94.7398,0.00120066,0.0720759,20.9786,-339.875,0.329311,0.0,1.0
28,6.75,31.2407,32.2979,147.914,98.318,94.6625,0.00121444,0.0766535,20.9734,-339.865,0.336678,0.0,1.0
30,7.25,31.0405,31.781,149.013,98.2997,94.8888,0.00120269,0.0803613,20.9692,-339.885,0.313797,0.0,1.0
32,7.75,31.1849,32.5693,146.706,98.3144,94.9871,0.00117256,0.0829657,20.9658,-339.885,0.305933,0.0,1.0
34,8.25,31.4109,31.7397,146.334,98.3116,94.5065,0.00114815,0.0850753,20.963,-339.895,0.350755,0.0,1.0
36,8.75,31.159,32.0418,148.908,98.3232,94.136,0.00110059,0.0864679,20.9607,-339.905,0.386702,0.0,1.0
38,9.25,30.9941,31.9355,149.141,98.312,94.7668,0.00106081,0.0875959,20.9589,-339.895,0.326344,0.0,1.0
40,9.75,31.101,32.2674,147.18,98.328,94.2961,0.00102743,0.0886615,20.9574,-339.915,0.372039,0.0,1.0
42,10.25,31.0803,32.3289,153.611,98.3112,93.3962,0.0010004,0.0896613,20.9555,-339.945,0.455726,0.0,1.0
44,10.75,31.2975,32.066,145.979,98.3228,93.5035,0.000978505,0.0908261,20.9534,-339.925,0.446571,0.0,0.0
46,11.25,31.6249,32.6182,143.647,98.3208,94.3231,0.000993383,0.092089,20.9516,-339.915,0.368844,0.0,0.0
48,11.75,31.7725,32.5587,151.17,98.3435,94.3059,0.00100543,0.0934746,20.9498,-339.945,0.372517,0.0,0.0
50,12.25,31.4869,32.6304,147.508,98.3156,94.2772,0.0010538,0.0949235,20.9478,-339.935,0.372697,0.0,0.0
52,12.75,31.447,32.7585,142.125,98.3363,92.5066,0.00109297,0.0960971,20.9457,-339.955,0.543035,0.0,0.0
54,13.25,31.5933,32.9662,146.178,98.3224,92.6266,0.00116102,0.0978487,20.9433,-339.955,0.53026,0.0,0.0
56,13.75,31.7911,32.8818,146.236,98.3351,93.3287,0.00121613,0.0992675,20.9405,-339.965,0.464314,0.0,0.0
58,14.25,32.2758,32.7633,147.393,98.3375,91.73,0.00130925,0.100417,20.9374,-339.975,0.618054,0.0,0.0
60,14.75,32.1861,33.0125,150.193,98.3435,92.1083,0.00138467,0.102623,20.9331,-339.975,0.582027,0.0,0.0
62,15.25,32.2998,33.1471,152.153,98.3315,91.5765,0.00151859,0.104409,20.9279,-339.995,0.632397,0.0,0.0
64,15.75,32.0848,33.1287,143.911,98.3447,91.3158,0.00162707,0.107274,20.9218,-339.995,0.658925,0.0,0.0
66,16.25,32.1057,33.6516,144.016,98.3331,91.1594,0.00179764,0.109594,20.9152,-340.025,0.673111,0.0,0.0
68,16.75,32.2384,33.357,148.392,98.3487,89.9046,0.00193581,0.113205,20.9099,-340.055,0.797671,0.0,0.0
70,17.25,32.2785,33.1976,148.537,98.3272,88.9585,0.00204773,0.116129,20.9016,-340.075,0.88973,0.0,0.0
72,17.75,32.3291,33.6228,147.753,98.3407,89.2058,0.00219615,0.120617,20.8949,-340.085,0.866289,0.0,0.0
74,18.25,32.8404,33.7413,149.619,98.3451,88.5533,0.00236837,0.124251,20.8872,-340.105,0.931925,0.0,0.0
76,18.75,32.5607,33.781,150.184,98.3443,88.0075,0.00258367,0.129398,20.8788,-340.095,0.986781,0.0,0.0
78,19.25,32.6324,34.2091,146.648,98.3415,86.9329,0.00275806,0.133567,20.8697,-340.125,1.0957,0.0,0.0
80,19.75,32.9862,34.197,148.397,98.3558,87.7095,0.00300226,0.138494,20.8603,-340.135,1.01797,0.0,0.0
82,20.25,32.9323,34.3378,145.831,98.3447,85.6638,0.00325311,0.14388,20.8526,-340.165,1.22666,0.0,0.0
84,20.75,33.592,34.3664,149.828,98.3491,84.7562,0.00350403,0.148243,20.8376,-340.185,1.3217,0.0,0.0
86,21.25,33.4902,33.9756,144.977,98.3483,82.0097,0.00379556,0.156398,20.8255,-340.195,1.61434,0.0,0.0
88,21.75,33.8876,34.0974,144.187,98.3539,81.7137,0.00411115,0.163003,20.8096,-340.205,1.64697,0.0,0.0
90,22.25,33.7734,35.0731,140.331,98.3554,80.6387,0.00436678,0.173265,20.7914,-340.275,1.76479,0.0,0.0
92,22.75,33.9993,34.6387,144.337,98.3582,80.6882,0.00480328,0.181577,20.7766,-340.305,1.75959,0.0,0.0
94,23.25,34.0963,35.4345,136.297,98.3582,78.5766,0.00515685,0.194444,20.7646,-340.335,1.99522,0.0,0.0
96,23.75,33.8584,35.6876,131.479,98.3582,75.0736,0.00544324,0.204867,20.7417,-340.366,2.40047,0.0,0.0
98,24.25,34.2831,36.0308,134.262,98.3558,76.1392,0.00567522,0.220887,20.7232,-340.406,2.27501,0.0,0.0
100,24.75,35.0141,35.412,138.605,98.361,76.5494,0.00620037,0.233864,20.6994,-340.446,2.22774,0.0,0.0
102,25.25,34.5523,36.5503,134.115,98.3634,75.3822,0.00662574,0.250274,20.6724,-340.506,2.36448,0.0,0.0
104,25.75,35.2644,36.4888,132.94,98.3825,75.5738,0.00713372,0.268876,20.6387,-340.556,2.34365,0.0,0.0
106,26.25,36.0205,37.1234,131.919,98.3754,75.9095,0.00754519,0.283943,20.6007,-340.616,2.30362,0.0,0.0
108,26.75,36.2478,37.8058,132.084,98.3646,76.6775,0.00799818,0.296147,20.5609,-340.656,2.2132,0.0,0.0
110,27.25,37.2498,37.9008,130.568,98.375,73.0975,0.00847283,0.321795,20.5206,-340.656,2.639,0.0,0.0
112,27.75,37.7585,38.5659,127.97,98.3738,74.9413,0.00899112,0.342569,20.4879,-340.746,2.41754,0.0,0.0
114,28.25,38.4061,39.2308,125.23,98.3925,73.3939,0.00953137,0.364265,20.4377,-340.796,2.60463,0.0,0.0
116,28.75,38.8014,39.1131,128.401,98.3718,72.3819,0.00996897,0.386222,20.397,-340.826,2.72613,0.0,0.0
118,29.25,39.0114,39.9535,126.334,98.3798,70.2015,0.0105703,0.4078,20.3575,-340.926,2.99863,0.0,0.0
120,29.75,39.858,40.8842,124.641,98.375,70.4164,0.0110574,0.428694,20.3197,-340.906,2.97104,0.0,0.0
122,30.25,40.3375,41.1653,121.96,98.4005,67.8394,0.0116721,0.448663,20.2845,-341.006,3.30464,0.0,0.0
124,30.75,40.8461,41.8253,125.637,98.3829,71.0289,0.0121699,0.46758,20.2518,-341.026,2.89481,0.0,0.0
126,31.25,41.7298,42.4778,127.969,98.3889,71.4681,0.0125731,0.482903,20.2253,-341.056,2.84057,0.0,0.0
128,31.75,41.8771,43.0917,127.089,98.3933,68.7838,0.0131171,0.501898,20.1978,-341.086,3.18114,0.0,0.0
130,32.25,42.1623,43.3869,124.472,98.4029,68.7077,0.0135577,0.517285,20.1701,-341.176,3.19184,0.0,0.0
132,32.75,42.9565,44.0466,116.87,98.3993,69.4556,0.0140276,0.534656,20.1435,-341.226,3.09531,0.0,0.0
134,33.25,43.791,45.1567,115.956,98.4053,69.7733,0.0144083,0.548726,20.1182,-341.286,3.0553,0.0,0.0
136,33.75,44.3978,45.8695,124.393,98.3869,71.0678,0.0147508,0.563109,20.0977,-341.366,2.8903,0.0,0.0
138,34.25,45.5451,46.4644,124.547,98.412,71.471,0.0150591,0.577447,20.0729,-341.306,2.8423,0.0,0.0
140,34.75,45.5487,47.0384,119.424,98.4001,67.7825,0.0153301,0.589061,20.0528,-341.406,3.31206,0.0,0.0
142,35.25,45.9501,47.5815,115.548,98.4132,70.687,0.0155688,0.602998,20.0291,-341.466,2.94041,0.0,0.0
144,35.75,46.1399,49.1696,119.935,98.4136,69.8122,0.0157758,0.614287,20.0098,-341.506,3.05111,0.0,0.0
146,36.25,47.2423,48.7568,120.778,98.4232,71.4039,0.0159559,0.624586,19.9929,-341.597,2.85166,0.0,0.0
148,36.75,48.5337,49.3208,124.789,98.4124,69.7446,0.0161155,0.633968,19.9792,-341.627,3.0596,0.0,0.0
150,37.25,48.6728,50.0646,120.826,98.4284,68.4178,0.0162571,0.642495,19.9637,-341.677,3.23171,0.0,0.0
152,37.75,48.9711,51.5978,116.063,98.424,66.1024,0.0163719,0.650238,19.9512,-341.717,3.53724,0.0,0.0
154,38.25,49.8814,51.3652,127.194,98.4367,71.0055,0.0164854,0.65789,19.941,-341.837,2.90259,0.0,0.0
156,38.75,49.7223,53.1108,121.084,98.4292,69.6599,0.016596,0.665332,19.927,-341.857,3.07191,0.0,0.0
158,39.25,50.5556,52.7381,115.374,98.4423,69.899,0.0166924,0.672827,19.9157,-341.927,3.04266,0.0,0.0
160,39.75,51.4225,53.5301,117.992,98.4435,69.1621,0.0167767,0.68022,19.9022,-341.937,3.13694,0.0,0.0
162,40.25,52.1069,54.2361,118.432,98.455,72.1145,0.016845,0.686208,19.8912,-342.027,2.76653,0.0,0.0
164,40.75,52.8105,54.9889,114.191,98.4431,66.5891,0.0168885,0.693398,19.8823,-342.057,3.47377,0.0,0.0
166,41.25,53.3302,55.5479,119.012,98.4582,69.7819,0.0169059,0.699223,19.8751,-342.117,3.05899,0.0,0.0
168,41.75,53.9447,56.3207,115.427,98.4447,70.2076,0.0169039,0.70394,19.8692,-342.167,3.00372,0.0,0.0
170,42.25,54.6458,57.1211,127.642,98.4638,74.0382,0.0168748,0.708256,19.8645,-342.247,2.5334,0.0,0.0
172,42.75,54.9156,57.8571,120.109,98.4519,70.8594,0.0168265,0.711752,19.8621,-342.277,2.92226,0.0,0.0
174,43.25,55.8212,58.4849,124.704,98.467,71.5983,0.0167873,0.71378,19.8614,-342.327,2.83144,0.0,0.0
176,43.75,56.2942,58.6851,121.52,98.4531,71.3773,0.0167214,0.715423,19.8642,-342.357,2.85766,0.0,0.0
178,44.25,56.8931,59.8893,123.391,98.4678,70.669,0.016637,0.714293,19.8697,-342.367,2.9476,0.0,0.0
180,44.75,57.4449,60.2522,128.694,98.4678,71.9381,0.0165687,0.713378,19.8741,-342.437,2.78945,0.0,0.0
182,45.25,57.4169,60.4183,123.752,98.4774,71.1423,0.0164548,0.708841,19.8819,-342.497,2.88916,0.0,0.0
184,45.75,58.0886,61.1626,119.475,98.4694,74.5107,0.0163626,0.705166,19.8919,-342.547,2.47738,0.0,0.0
186,46.25,58.3415,61.5005,129.936,98.4901,75.6532,0.0162527,0.697981,19.9001,-342.567,2.34402,0.0,0.0
188,46.75,59.2155,61.89,113.354,98.4893,73.1916,0.0161638,0.692161,19.9067,-342.617,2.63789,0.0,0.0
190,47.25,59.8665,63.4291,120.18,98.4849,76.0061,0.0160917,0.685262,19.9186,-342.657,2.30221,0.0,0.0
192,47.75,59.7981,62.9553,120.618,98.4905,72.397,0.0159889,0.677707,19.9283,-342.698,2.73499,0.0,0.0
194,48.25,60.9795,63.3865,128.621,98.506,73.931,0.0158657,0.671588,19.943,-342.768,2.55009,0.0,0.0
196,48.75,60.7884,63.9093,122.599,98.4969,70.4422,0.0157257,0.665079,19.955,-342.838,2.97879,0.0,0.0
198,49.25,61.1039,64.0071,118.594,98.5072,72.9804,0.0155761,0.658409,19.9647,-342.858,2.66519,0.0,0.0
200,49.75,61.2432,64.6691,123.584,98.5216,72.3184,0.0154549,0.653006,19.9726,-342.938,2.74745,0.0,0.0
202,50.25,61.579,65.0515,118.535,98.5156,75.8502,0.0153062,0.64866,19.9789,-342.958,2.32323,0.0,0.0
204,50.75,61.8152,65.3887,120.243,98.5124,76.872,0.0151858,0.645168,19.9841,-343.008,2.20403,0.0,0.0
206,51.25,61.7897,65.6613,116.374,98.5244,75.5116,0.0150935,0.642954,19.9871,-343.048,2.36377,0.0,0.0
208,51.75,62.5603,66.7201,119.601,98.52,73.9101,0.0150187,0.641715,19.9885,-343.058,2.55385,0.0,0.0
210,52.25,63.4366,66.5257,121.644,98.5252,73.7504,0.0149581,0.640712,19.9896,-343.158,2.57354,0.0,0.0
212,52.75,63.7556,66.4467,117.209,98.524,73.2981,0.0149647,0.641523,19.9889,-343.188,2.6281,0.0,0.0
214,53.25,63.3405,67.3087,124.86,98.5295,74.9683,0.01497,0.642181,19.9869,-343.218,2.42839,0.0,0.0
216,53.75,64.4275,67.6729,113.318,98.5295,73.3411,0.0150029,0.644999,19.9853,-343.268,2.62339,0.0,0.0
218,54.25,64.1947,68.5245,126.347,98.5371,73.7992,0.0150554,0.647282,19.9782,-343.328,2.56875,0.0,0.0
220,54.75,65.1465,68.183,118.779,98.5387,72.7221,0.0151163,0.651627,19.9725,-343.388,2.69953,0.0,0.0
222,55.25,65.1842,69.3136,117.493,98.5439,74.2859,0.0151822,0.657393,19.9595,-343.438,2.51094,0.0,0.0
224,55.75,65.563,69.3914,119.801,98.5471,73.9076,0.0152466,0.662064,19.949,-343.478,2.55659,0.0,0.0
226,56.25,65.6445,70.1329,118.434,98.5606,73.4434,0.0153085,0.672075,19.9286,-343.548,2.6138,0.0,0.0
228,56.75,66.3936,70.4077,112.466,98.5586,74.3981,0.0153539,0.680184,19.912,-343.608,2.49887,0.0,0.0
230,57.25,66.9399,70.9521,114.958,98.5666,73.3009,0.0153864,0.689272,19.8986,-343.638,2.6316,0.0,0.0
232,57.75,67.261,71.5033,117.854,98.5805,72.4154,0.0154127,0.698902,19.8878,-343.698,2.74085,0.0,0.0
234,58.25,67.4421,71.9336,112.426,98.573,68.3859,0.0153769,0.707669,19.879,-343.768,3.2489,0.0,0.0
236,58.75,68.3858,72.4223,117.268,98.5774,71.4305,0.0153479,0.715639,19.8719,-343.879,2.86225,0.0,0.0
238,59.25,68.493,73.3887,114.895,98.5778,73.5875,0.0152353,0.722095,19.8661,-343.869,2.59793,0.0,0.0
240,59.75,69.2712,73.5903,119.111,98.5897,73.2964,0.0150638,0.724223,19.8667,-343.899,2.63423,0.0,0.0
242,60.25,69.4997,73.612,122.364,98.5734,72.6214,0.0149249,0.725946,19.8672,-343.989,2.71497,0.0,0.0
244,60.75,70.2413,74.6657,125.605,98.5881,71.2123,0.0145987,0.720214,19.8764,-343.979,2.89041,0.0,0.0
246,61.25,70.0233,75.0123,124.283,98.5909,74.1381,0.0143345,0.715571,19.8918,-344.059,2.53288,0.0,0.0
248,61.75,70.3172,75.353,122.816,98.5917,74.4939,0.0138901,0.705598,19.9138,-344.059,2.49041,0.0,0.0
250,62.25,71.1307,75.1194,122.469,98.5893,73.4254,0.0135301,0.69193,19.9401,-344.099,2.61857,0.0,0.0
252,62.75,70.7754,75.7525,126.839,98.5913,74.0002,0.0129688,0.680859,19.9615,-344.109,2.54946,0.0,0.0
254,63.25,70.6402,75.893,129.117,98.5941,73.3562,0.0125142,0.657456,20.0078,-344.179,2.62738,0.0,0.0
256,63.75,70.9422,76.0835,129.334,98.5961,76.1461,0.0118807,0.6385,20.0453,-344.199,2.29588,0.0,0.0
258,64.25,70.716,76.0832,126.945,98.6152,75.4289,0.0113675,0.611971,20.1,-344.239,2.38169,0.0,0.0
260,64.75,71.3473,76.0545,134.327,98.5889,77.3853,0.0108072,0.590484,20.1442,-344.229,2.15179,0.0,0.0
262,65.25,70.9506,76.2415,132.923,98.6029,76.5224,0.0102233,0.56221,20.1976,-344.209,2.25269,0.0,0.0
264,65.75,70.6979,75.873,136.303,98.6037,78.5705,0.00975029,0.539309,20.2409,-344.209,2.01806,0.0,0.0
266,66.25,71.09,75.8162,136.407,98.6192,79.8408,0.00922554,0.51502,20.2852,-344.289,1.87695,0.0,0.0
268,66.75,70.4433,75.8252,138.671,98.6096,79.7892,0.00867303,0.490181,20.3293,-344.319,1.88183,0.0,0.0
270,67.25,70.5319,75.5457,135.445,98.6068,81.9868,0.00813293,0.470061,20.365,-344.369,1.64016,0.0,0.0
272,67.75,69.8815,74.9965,141.897,98.6192,81.0825,0.00761213,0.444341,20.4089,-344.369,1.73982,0.0,0.0
274,68.25,69.8714,75.2534,142.152,98.6136,82.336,0.00710916,0.423507,20.4445,-344.349,1.603,0.0,0.0
276,68.75,69.5436,75.1926,141.737,98.626,82.3176,0.00662874,0.398123,20.4843,-344.359,1.6061,0.0,0.0
278,69.25,69.2006,74.9905,141.829,98.6168,83.551,0.00616977,0.377563,20.5166,-344.349,1.47312,0.0,0.0
280,69.75,69.5702,74.9743,140.522,98.6196,85.6049,0.00573516,0.357108,20.5427,-344.349,1.25758,0.0,0.0
282,70.25,69.0393,74.4568,138.681,98.61,84.1852,0.00538313,0.33712,20.5766,-344.359,1.40532,0.0,0.0
284,70.75,68.8313,74.3999,143,98.62,86.2726,0.00509798,0.317976,20.6041,-344.339,1.18858,0.0,0.0
286,71.25,68.3375,73.8256,144.19,98.6212,88.7092,0.00466401,0.29981,20.6314,-344.359,0.941197,0.0,0.0
288,71.75,68.136,73.2386,142.614,98.6339,88.9454,0.0043125,0.282112,20.6581,-344.359,0.918717,0.0,0.0
290,72.25,67.5386,73.344,143.229,98.6283,90.373,0.00394371,0.265091,20.6797,-344.359,0.776736,0.0,0.0
292,72.75,67.6227,73.167,144.837,98.6303,91.5024,0.003645,0.251304,20.7073,-344.389,0.666551,0.0,0.0
294,73.25,67.2507,72.5959,144.886,98.6268,91.6993,0.00340304,0.240137,20.7297,-344.409,0.647126,0.0,0.0
296,73.75,67.0286,72.2508,145.957,98.6359,92.8644,0.00310984,0.222939,20.7527,-344.459,0.535764,0.0,0.0
298,74.25,66.3867,71.976,145.234,98.6248,92.8595,0.00287235,0.209009,20.7757,-344.449,0.535228,0.0,0.0
300,74.75,65.6338,71.5287,149.509,98.6347,93.3442,0.00260846,0.194777,20.7943,-344.419,0.489864,0.0,0.0
302,75.25,64.8878,70.1814,145.313,98.6379,93.8973,0.0023947,0.180596,20.8204,-344.429,0.437658,0.0,0.0
304,75.75,64.6005,69.664,147.173,98.6419,95.0047,0.00218971,0.16911,20.8444,-344.399,0.333837,0.0,0.0
306,76.25,64.4328,69.8856,147.805,98.6311,95.4808,0.00199501,0.155843,20.8663,-344.379,0.288448,0.0,0.0
308,76.75,64.2884,69.6519,150.86,98.6407,95.0706,0.00181568,0.145097,20.884,-344.409,0.327566,0.0,0.0
310,77.25,63.2812,69.3572,146.077,98.6339,94.5073,0.00165095,0.13476,20.9027,-344.389,0.379762,0.0,0.0
312,77.75,63.1889,68.1605,150.86,98.6407,94.0697,0.00149847,0.124916,20.9179,-344.399,0.421615,0.0,0.0
314,78.25,62.2751,68.8278,149.24,98.6367,94.0328,0.0013578,0.115916,20.9324,-344.369,0.424737,0.0,0.0
316,78.75,62.4706,67.8509,145.931,98.6491,94.8585,0.0012318,0.107701,20.9442,-344.379,0.348162,0.0,0.0
318,79.25,62.066,67.4101,143.329,98.6351,95.2839,0.00111888,0.100403,20.9555,-344.369,0.307151,0.0,0.0
320,79.75,62.1756,67.3451,152.157,98.6491,94.7734,0.00102742,0.093911,20.9646,-344.369,0.356142,0.0,0.0
322,80.25,61.2657,67.0159,150.009,98.6383,94.9691,0.000923199,0.0881673,20.9725,-344.369,0.336845,0.0,0.0
324,80.75,61.1793,66.6069,148.696,98.6527,94.9003,0.000838782,0.0830778,20.9792,-344.379,0.344575,0.0,0.0
326,81.25,60.9036,66.5049,149.757,98.6407,94.7275,0.000757727,0.0785775,20.9847,-344.379,0.359689,0.0,0.0
328,81.75,59.9186,65.9735,147.84,98.6519,94.6989,0.000680662,0.0745921,20.9905,-344.379,0.363382,0.0,0.0
330,82.25,60.2787,66.1114,150.742,98.6411,94.8184,0.00061824,0.071364,20.9952,-344.359,0.351202,0.0,0.0
332,82.75,59.9394,65.3954,148.491,98.6447,95.0133,0.000548419,0.0681541,20.999,-344.359,0.333283,0.0,0.0
334,83.25,59.649,65.1804,152.478,98.6363,95.5758,0.000491865,0.065554,21.0021,-344.379,0.28008,0.0,0.0
336,83.75,59.1246,64.8787,151.274,98.6519,95.227,0.000434024,0.063263,21.005,-344.379,0.313966,0.0,0.0
338,84.25,58.7131,64.3241,151.35,98.6391,95.4898,0.000387173,0.0612408,21.0078,-344.379,0.288327,0.0,0.0
340,84.75,58.4858,63.8623,149.92,98.655,95.0383,0.000342007,0.0596029,21.0101,-344.399,0.331881,0.0,0.0
342,85.25,58.1952,63.5487,150.439,98.6491,94.6219,0.000305423,0.0578981,21.0124,-344.379,0.370355,0.0,0.0
344,85.75,58.6032,63.1687,147.934,98.6805,94.8258,0.000272625,0.0565171,21.0142,-344.379,0.354065,0.0,0.0
346,86.25,57.9556,63.3845,152.344,98.6475,95.0677,0.00024321,0.0551557,21.0161,-344.379,0.328443,0.0,0.0
348,86.75,57.6805,63.1114,145.39,98.6682,95.1038,0.000219384,0.0540529,21.0177,-344.379,0.326944,0.0,0.0
350,87.25,57.4501,62.2748,149.241,98.6467,95.0698,0.000197554,0.053046,21.019,-344.389,0.328181,0.0,0.0
352,87.75,57.3781,62.739,150.201,98.6634,95.6208,0.000177592,0.0521282,21.02,-344.369,0.278335,0.0,0.0
354,88.25,56.3678,61.4702,149.994,98.6543,95.0117,0.000165221,0.0512641,21.0209,-344.379,0.334298,0.0,0.0
356,88.75,56.4229,61.534,147.885,98.6658,94.9371,0.000158618,0.0504557,21.0215,-344.369,0.34231,0.0,0.0
358,89.25,56.432,61.5159,147.576,98.655,95.2311,0.000162133,0.0498008,21.0221,-344.379,0.313871,0.0,0.0
360,89.75,55.9353,61.1585,149.096,98.669,95.2024,0.000172957,0.0491625,21.023,-344.399,0.317802,0.0,0.0
362,90.25,55.7509,60.5186,152.795,98.6543,94.9236,0.000187424,0.0486455,21.0237,-344.369,0.342533,0.0,0.0
364,90.75,55.6159,60.4032,144.935,98.6666,95.0047,0.000204272,0.0481487,21.0243,-344.379,0.33606,0.0,0.0
366,91.25,54.9094,60.3715,149.868,98.6586,94.931,0.000215386,0.0476761,21.0247,-344.379,0.342238,0.0,0.0
368,91.75,55.1986,59.9337,155.059,98.6782,94.92,0.000222108,0.0472933,21.0251,-344.379,0.34503,0.0,0.0
370,92.25,54.7199,59.5929,149.02,98.661,95.0178,0.000227552,0.0468889,21.0254,-344.379,0.334333,0.0,0.0
372,92.75,54.5241,59.3917,154.097,98.6801,95.6102,0.000209106,0.0465613,21.0257,-344.399,0.28083,0.0,0.0
374,93.25,54.3253,59.4345,150.371,98.661,94.5392,0.000194165,0.0461613,21.0259,-344.409,0.3792,0.0,0.0
376,93.75,54.1739,59.2174,150.132,98.6821,95.6749,0.000182063,0.0458373,21.026,-344.409,0.275001,0.0,0.0
378,94.25,53.574,59.1087,152.532,98.6574,95.0493,0.00017226,0.0454805,21.0262,-344.409,0.331062,0.0,0.0
380,94.75,53.3773,58.5993,150.292,98.6718,95.0276,0.000121049,0.0451916,21.0265,-344.409,0.334383,0.0,0.0
382,95.25,53.2747,58.2718,149.621,98.6543,94.9633,7.95678e-05,0.0449441,21.0271,-344.409,0.338817,0.0,0.0
384,95.75,53.1577,58.1036,146.637,98.6738,94.9187,3.7113e-05,0.0447436,21.0275,-344.399,0.34475,0.0,0.0
386,96.25,52.567,57.4282,148.654,98.6738,95.0333,-5.24502e-06,0.0445812,21.0279,-344.399,0.334026,0.0,0.0
388,96.75,52.2912,57.4224,146.922,98.6718,95.6904,-4.52473e-05,0.0443788,21.0282,-344.419,0.272623,0.0,0.0
390,97.25,52.2186,57.3539,148.768,98.6782,95.4722,-8.27721e-05,0.044151,21.0284,-344.399,0.293483,0.0,0.0
392,97.75,52.1668,56.7913,151.045,98.6698,95.0141,-0.00011633,0.0439666,21.0286,-344.389,0.335468,0.0,0.0
394,98.25,51.897,56.9272,150.11,98.6825,95.3781,-0.000146358,0.0437903,21.0287,-344.389,0.302644,0.0,0.0
396,98.75,51.6002,56.7328,149.355,98.6849,94.9523,-0.000164672,0.0436474,21.0289,-344.369,0.342614,0.0,0.0
398,99.25,51.2899,56.3526,149.481,98.6674,95.1238,-0.000179506,0.0435176,21.029,-344.379,0.324997,0.0,0.0
400,99.75,51.4852,56.1895,151.967,98.6766,95.3306,-0.000180706,0.0433996,21.029,-344.389,0.306532,0.0,0.0
402,100.25,50.8749,55.3471,150.039,98.6666,94.7877,-0.000181679,0.0432828,21.0291,-344.369,0.356377,0.0,0.0
404,100.75,50.3863,55.5729,150.51,98.6626,94.9838,-0.000182466,0.0431691,21.0292,-344.389,0.337654,0.0,0.0
406,101.25,50.6142,55.40625,148.246,98.6642,95.6319,-0.000161472,0.0430487,21.0294,-344.389,0.277379,0.0,0.0
408,101.75,51.1048,55.237,149.601,98.6782,95.0616,-0.000144467,0.0429256,21.0299,-344.399,0.331781,0.0,0.0
410,102.25,50.0534,55.1212,151.433,98.6726,95.105,-0.000132158,0.0428188,21.03,-344.379,0.327223,0.0,0.0
412,102.75,50.3003,54.8103,152.382,98.6774,95.2004,-0.000111109,0.042726,21.0304,-344.379,0.318746,0.0,0.0
414,103.25,50.4506,54.4988,148.598,98.673,95.5754,-9.40587e-05,0.0426508,21.0306,-344.379,0.283419,0.0,0.0
416,103.75,50.1947,54.4249,150.202,98.6718,95.2847,-8.02484e-05,0.0425898,21.0308,-344.379,0.310376,0.0,0.0
418,104.25,49.3156,54.078,145.164,98.667,94.6862,-6.52671e-05,0.0425405,21.031,-344.379,0.365937,0.0,0.0
420,104.75,49.3398,53.7173,146.799,98.6686,95.0276,-4.97169e-05,0.0424467,21.0311,-344.389,0.334097,0.0,0.0
422,105.25,49.4053,53.8145,150.391,98.6654,95.4869,-2.95293e-05,0.0424067,21.0312,-344.399,0.290962,0.0,0.0
424,105.75,48.6594,53.4497,149.237,98.6778,94.4885,-6.34468e-06,0.0423171,21.0313,-344.399,0.38548,0.0,0.0
426,106.25,48.656,53.0382,149.961,98.6742,95.7268,1.24349e-05,0.0422253,21.0314,-344.389,0.269455,0.0,0.0
428,106.75,48.6185,53.1632,150.272,98.6742,95.0718,4.67971e-05,0.042151,21.0315,-344.409,0.330465,0.0,0.0
430,107.25,48.7945,53.8454,155.226,98.6726,94.9421,7.46305e-05,0.0420909,21.0315,-344.409,0.342459,0.0,0.0
432,107.75,48.2818,53.0245,149.684,98.6694,94.4688,0.000107942,0.0420421,21.0315,-344.409,0.386574,0.0,0.0
434,108.25,48.1212,52.4089,148.251,98.6694,95.2323,0.000144615,0.0420026,21.0322,-344.409,0.315049,0.0,0.0
436,108.75,47.6037,52.3002,146.695,98.663,95.2282,0.000178121,0.0419707,21.0327,-344.409,0.314856,0.0,0.0
438,109.25,48.086,52.3409,149.26,98.675,94.5036,0.000208683,0.041932,21.0331,-344.399,0.383804,0.0,0.0
440,109.75,47.0726,52.3814,148.443,98.6662,95.1709,0.000233437,0.0419007,21.0334,-344.399,0.320494,0.0,0.0
442,110.25,47.7875,51.9974,150.967,98.6702,94.5728,0.000248673,0.0418753,21.0337,-344.389,0.376871,0.0,0.0
444,110.75,47.6589,51.8767,149.642,98.6638,95.3887,0.000261014,0.0418547,21.0339,-344.369,0.299967,0.0,0.0
446,111.25,47.6428,51.3689,144.673,98.6754,95.252,0.000258975,0.0418381,21.0341,-344.369,0.313754,0.0,0.0
448,111.75,47.2426,51.7302,151.396,98.6654,95.2434,0.000247826,0.0418381,21.0343,-344.379,0.313659,0.0,0.0
450,112.25,46.7801,50.9565,151.45,98.6734,94.8254,0.000230247,0.041838,21.0344,-344.369,0.353457,0.0,0.0
452,112.75,46.5484,51.0222,148.322,98.6817,94.9539,0.000216008,0.0417977,21.0345,-344.379,0.342174,0.0,0.0
454,113.25,46.7365,51.0189,151.848,98.665,95.0186,0.00018163,0.0417649,21.0345,-344.379,0.334616,0.0,0.0
456,113.75,46.7342,50.9604,150.649,98.6606,94.8512,0.000153783,0.041725,21.0346,-344.389,0.349892,0.0,0.0
458,114.25,46.7674,50.7882,152.547,98.6698,95.2102,0.000131227,0.0416926,21.0347,-344.369,0.317147,0.0,0.0
460,114.75,46.5143,50.8105,145.657,98.655,94.9842,7.57022e-05,0.0416395,21.0345,-344.379,0.336935,0.0,0.0
462,115.25,45.9807,49.9933,147.246,98.6646,94.1077,3.07268e-05,0.0415965,21.0341,-344.389,0.420171,0.0,0.0
464,115.75,46.046,50.1072,149.916,98.6483,95.3039,-2.97389e-05,0.0415829,21.0338,-344.399,0.306465,0.0,0.0
466,116.25,45.6434,50.031,146.484,98.6586,95.349,-7.8716e-05,0.041591,21.0336,-344.389,0.3032,0.0,0.0
468,116.75,45.6951,50.118,150.809,98.6586,95.7723,-0.000118388,0.0415905,21.0334,-344.379,0.263839,0.0,0.0
470,117.25,45.684,49.6856,150.197,98.6698,94.7742,-0.000153684,0.0415837,21.0332,-344.379,0.357931,0.0,0.0
472,117.75,45.6991,49.677,148.291,98.6519,94.8082,-0.00018512,0.0415782,21.0335,-344.379,0.353131,0.0,0.0
474,118.25,45.2808,49.6532,145.334,98.6507,95.4861,-0.000208686,0.0415468,21.0337,-344.369,0.289712,0.0,0.0
476,118.75,45.6367,49.2334,147.984,98.6487,95.4431,-0.000226066,0.0415214,21.0339,-344.379,0.293533,0.0,0.0
478,119.25,45.1724,49.1266,151.885,98.6487,95.6933,-0.000237614,0.0415008,21.0341,-344.379,0.270275,0.0,0.0
480,119.75,45.293,48.8801,150.022,98.6359,95.6798,-0.000244691,0.041477,21.0342,-344.389,0.270382,0.0,0.0
482,120.25,45.1624,48.531,150.709,98.6515,94.4856,-0.000244731,0.0414514,21.0343,-344.399,0.383381,0.0,0.0
484,120.75,43.9894,48.9508,149.531,98.6431,94.6547,-0.00023964,0.0414307,21.0348,-344.409,0.366742,0.0,0.0
486,121.25,44.5691,48.6731,151.632,98.6503,95.3809,-0.000235517,0.0414273,21.0352,-344.399,0.299471,0.0,0.0
488,121.75,44.6669,48.3104,148.476,98.6415,94.8446,-0.000218894,0.0414246,21.0355,-344.399,0.348784,0.0,0.0
490,122.25,44.7688,48.813,149.059,98.6427,95.0383,-0.000193475,0.0413955,21.0358,-344.409,0.330768,0.0,0.0
492,122.75,44.5326,48.2432,147.35,98.6307,95.2929,-0.000172886,0.041372,21.036,-344.409,0.305917,0.0,0.0
494,123.25,44.5852,48.4434,148.85,98.6427,95.8738,-0.00013097,0.041326,21.0362,-344.399,0.252989,0.0,0.0
496,123.75,44.3806,48.1685,150.961,98.6224,94.7206,-9.70186e-05,0.0412887,21.0364,-344.409,0.35869,0.0,0.0
498,124.25,43.7758,47.7341,147.017,98.6435,94.7918,-5.86975e-05,0.041272,21.0365,-344.409,0.353912,0.0,0.0
500,124.75,44.0891,47.7535,149.087,98.628,95.046,-2.76574e-05,0.0412584,21.0366,-344.409,0.328713,0.0,0.0
502,125.25,43.6718,47.7149,151.366,98.6327,95.6675,2.29466e-06,0.0412616,21.0367,-344.419,0.271236,0.0,0.0
504,125.75,43.8944,47.5919,148.172,98.6367,95.2311,2.65558e-05,0.0412769,21.0367,-344.429,0.312221,0.0,0.0
506,126.25,43.4059,47.509,150.361,98.6295,95.6487,4.13978e-05,0.0412893,21.0368,-344.429,0.272697,0.0,0.0
508,126.75,43.6807,47.4023,147.819,98.6168,95.4783,5.34198e-05,0.0412923,21.0368,-344.409,0.287384,0.0,0.0
510,127.25,43.2698,47.0155,148.502,98.6264,94.7771,5.3539e-05,0.0412883,21.0368,-344.409,0.35375,0.0,0.0
512,127.75,43.4424,46.4322,146.779,98.618,94.9973,5.36356e-05,0.0412717,21.0369,-344.399,0.332373,0.0,0.0
514,128.25,42.857,46.7722,148.972,98.62,95.2028,5.37139e-05,0.0412582,21.0369,-344.409,0.31335,0.0,0.0
516,128.75,43.4792,46.7172,149.791,98.6132,94.8786,3.93547e-05,0.0412543,21.0369,-344.389,0.343053,0.0,0.0
518,129.25,43.0162,46.9176,152.434,98.6228,95.7944,2.77238e-05,0.0412576,21.0369,-344.379,0.258558,0.0,0.0
520,129.75,43.168,46.5609,149.5,98.6116,95.5631,1.71013e-05,0.0412199,21.0369,-344.409,0.279035,0.0,0.0
522,130.25,42.9009,46.2901,148.523,98.6096,95.0931,8.49712e-06,0.0411893,21.037,-344.399,0.322662,0.0,0.0
524,130.75,42.4932,46.5768,151.113,98.5945,94.6035,1.35457e-05,0.0411645,21.037,-344.399,0.367167,0.0,0.0
526,131.25,42.3479,45.8635,152.025,98.6224,95.3654,1.76351e-05,0.0411176,21.037,-344.389,0.298409,0.0,0.0
528,131.75,42.0814,46.2245,149.549,98.6017,95.044,3.4172e-05,0.0410796,21.037,-344.409,0.326536,0.0,0.0
530,132.25,42.4919,45.9249,150.459,98.6064,94.764,4.75669e-05,0.0410622,21.037,-344.399,0.353184,0.0,0.0
532,132.75,42.6295,45.8429,153.401,98.5977,94.5916,7.16455e-05,0.0410481,21.037,-344.389,0.36857,0.0,0.0
534,133.25,42.3356,45.9219,150.317,98.6017,96.2582,9.11491e-05,0.0410368,21.037,-344.389,0.213736,0.0,0.0
536,133.75,41.8533,45.8027,148.707,98.6017,95.1906,0.000113912,0.0410275,21.037,-344.389,0.312845,0.0,0.0
538,134.25,41.6512,45.5583,147.572,98.604,95.096,0.00013862,0.041013,21.037,-344.389,0.321891,0.0,0.0
540,134.75,42.3625,45.2711,154.046,98.5885,95.4648,0.000158632,0.0409948,21.037,-344.389,0.286093,0.0,0.0
542,135.25,41.1088,44.7226,146.429,98.6025,95.0898,0.000180543,0.0409872,21.037,-344.379,0.322322,0.0,0.0
544,135.75,41.5068,44.8601,151.221,98.5829,95.0473,0.000203421,0.0409874,21.037,-344.389,0.324542,0.0,0.0
546,136.25,41.733,44.7142,146.058,98.5933,94.8348,0.000220686,0.0409875,21.037,-344.389,0.345361,0.0,0.0
548,136.75,42.2212,44.6629,150.258,98.5805,94.4606,0.000233531,0.0410011,21.0365,-344.389,0.379341,0.0,0.0
550,137.25,41.7252,44.7273,147.114,98.5758,95.2237,0.000237601,0.0410121,21.0362,-344.389,0.307416,0.0,0.0
552,137.75,41.6659,44.671,148.009,98.5698,94.4786,0.000235198,0.0409672,21.0359,-344.389,0.376677,0.0,0.0
554,138.25,41.5192,45.1463,149.49,98.5674,94.999,0.000233251,0.0409309,21.0357,-344.389,0.327658,0.0,0.0
556,138.75,41.2644,44.2468,154.55,98.5726,94.6182,0.000216036,0.0409014,21.0355,-344.369,0.363808,0.0,0.0
558,139.25,41.2198,44.1955,154.303,98.5682,95.8562,0.000202092,0.0408775,21.0353,-344.379,0.247907,0.0,0.0
560,139.75,40.999,44.1873,146.531,98.5686,95.3559,0.000190797,0.0408795,21.0352,-344.379,0.294439,0.0,0.0
562,140.25,41.2092,44.1235,149.942,98.561,94.6592,0.000188864,0.0409001,21.0351,-344.379,0.358923,0.0,0.0
564,140.75,41.3933,44.0221,151.009,98.5634,94.4422,0.000187299,0.0409169,21.035,-344.379,0.379529,0.0,0.0
566,141.25,40.7807,44.1206,148.701,98.5503,94.6882,0.000196859,0.0409573,21.035,-344.369,0.355225,0.0,0.0
568,141.75,40.8004,44.2175,147.25,98.5582,95.1983,0.000204603,0.0409901,21.0349,-344.389,0.308204,0.0,0.0
570,142.25,41.1127,44.2232,148.69,98.5487,94.8516,0.000210875,0.0410167,21.0349,-344.379,0.339766,0.0,0.0
572,142.75,40.8121,43.9901,148.643,98.5395,96.3041,0.000200317,0.0410098,21.0348,-344.399,0.203901,0.0,0.0
574,143.25,40.9455,43.6414,149.081,98.5455,94.6735,0.000191765,0.0409788,21.0348,-344.389,0.356178,0.0,0.0
576,143.75,40.0653,42.9533,152.286,98.5403,95.0546,0.000163326,0.0409537,21.0348,-344.379,0.32001,0.0,0.0
578,144.25,40.5662,43.4137,148.621,98.5311,94.7161,0.00012093,0.0409334,21.0348,-344.389,0.350888,0.0,0.0
580,144.75,40.0825,43.5654,149.121,98.5347,95.0694,7.26745e-05,0.0409169,21.0347,-344.369,0.318129,0.0,0.0
582,145.25,39.9758,43.5599,148.543,98.5315,95.6294,2.10635e-05,0.0409035,21.0347,-344.379,0.265651,0.0,0.0
584,145.75,39.6963,43.1655,150.368,98.5459,95.3862,-2.26389e-05,0.0408927,21.0347,-344.389,0.289569,0.0,0.0
586,146.25,40.4811,43.2634,151.822,98.5256,95.6245,-5.97454e-05,0.0408974,21.0347,-344.389,0.265569,0.0,0.0
588,146.75,40.3334,43.4026,153.462,98.5272,94.59,-8.15794e-05,0.0409012,21.0347,-344.389,0.362367,0.0,0.0
590,147.25,39.5246,42.8714,150.238,98.52,95.3039,-9.18647e-05,0.0408972,21.0347,-344.389,0.294902,0.0,0.0
592,147.75,39.452,42.7366,147.627,98.5164,95.2806,-8.50154e-05,0.0408876,21.0347,-344.409,0.296754,0.0,0.0
594,148.25,39.7487,43.1019,148.672,98.5132,94.8176,-7.49046e-05,0.0408798,21.0347,-344.389,0.339752,0.0,0.0
596,148.75,39.8134,42.8304,152.676,98.524,95.2176,-5.76153e-05,0.0408735,21.0347,-344.399,0.303319,0.0,0.0
598,149.25,39.7388,43.0162,150.9,98.5048,94.8917,-4.36109e-05,0.0408613,21.0347,-344.399,0.332056,0.0,0.0
600,149.75,39.767,42.3101,146.611,98.514,94.7975,-5.7254e-06,0.0408451,21.0347,-344.379,0.341704,0.0,0.0
602,150.25,39.552,42.8417,151.078,98.4993,94.1876,2.49618e-05,0.0408319,21.0347,-344.389,0.397734,0.0,0.0
604,150.75,39.6609,42.6398,148.684,98.5033,94.5515,4.15911e-05,0.0407809,21.0347,-344.389,0.363826,0.0,0.0
606,151.25,39.8399,42.6445,145.86,98.4889,94.3984,4.76562e-05,0.0407592,21.0345,-344.399,0.376933,0.0,0.0
608,151.75,39.6954,42.4706,147.394,98.4953,94.7386,3.54903e-05,0.040757,21.0344,-344.379,0.345542,0.0,0.0
610,152.25,39.4807,42.0334,151.613,98.4821,95.2278,1.02653e-05,0.0407868,21.0343,-344.379,0.29859,0.0,0.0
612,152.75,39.5611,42.3976,152.132,98.4798,95.175,-1.96544e-05,0.0408109,21.0342,-344.379,0.303304,0.0,0.0
614,153.25,39.4097,42.2554,148.217,98.4726,94.617,-5.24281e-05,0.0408234,21.0341,-344.369,0.354904,0.0,0.0
616,153.75,39.1909,42.2186,149.775,98.4949,94.9261,-8.01763e-05,0.0408271,21.0341,-344.379,0.327938,0.0,0.0
618,154.25,39.4705,42.16,146.93,98.4722,94.0164,-0.000102652,0.0408443,21.034,-344.369,0.411449,0.0,0.0
620,154.75,39.0254,42.0981,144.525,98.4798,95.2065,-0.000113268,0.040871,21.034,-344.389,0.300361,0.0,0.0
622,155.25,38.9211,42.1413,149.534,98.4881,95.2835,-0.000115036,0.0408855,21.0339,-344.389,0.293936,0.0,0.0
624,155.75,39.7256,41.7663,150.326,98.477,94.6887,-0.000116469,0.0408909,21.0339,-344.389,0.348575,0.0,0.0
626,156.25,39.1063,41.7104,149.484,98.4566,95.4751,-0.000110671,0.0408811,21.0339,-344.379,0.273247,0.0,0.0
628,156.75,38.7461,42.3146,151.364,98.4746,94.4004,-9.9713e-05,0.0408604,21.0339,-344.369,0.375446,0.0,0.0
630,157.25,38.8341,41.9192,149.136,98.4483,95.3179,-9.08371e-05,0.0408436,21.0339,-344.379,0.287134,0.0,0.0
632,157.75,39.2318,41.8371,149.971,98.4742,95.2077,-8.36476e-05,0.04083,21.0339,-344.399,0.299743,0.0,0.0
634,158.25,39.2221,41.6043,152.126,98.4554,94.2543,-7.59266e-05,0.0408191,21.0339,-344.389,0.387487,0.0,0.0
636,158.75,38.4941,41.9712,151.293,98.4682,94.5773,-6.7965e-05,0.0408314,21.0338,-344.379,0.358239,0.0,0.0
638,159.25,38.4269,41.4268,150.69,98.459,94.7881,-6.15161e-05,0.0408605,21.0338,-344.379,0.337626,0.0,0.0
640,159.75,39.0793,41.7994,151.207,98.4598,95.1218,-4.18712e-05,0.0408841,21.0338,-344.379,0.306477,0.0,0.0
642,160.25,38.8244,41.4112,146.889,98.4375,95.0943,-2.59589e-05,0.0409166,21.0338,-344.359,0.307025,0.0,0.0
644,160.75,38.3978,41.136,146.131,98.4614,95.5348,6.16787e-06,0.040943,21.0338,-344.379,0.268117,0.0,0.0
646,161.25,38.4429,41.7492,148.43,98.4319,94.2989,3.21905e-05,0.0409509,21.0338,-344.389,0.38116,0.0,0.0
648,161.75,38.6935,41.2717,150.063,98.4455,94.6002,7.61263e-05,0.0409573,21.0338,-344.379,0.354036,0.0,0.0
650,162.25,38.8799,40.7643,149.483,98.4272,95.0243,0.000111714,0.0409356,21.0338,-344.399,0.312634,0.0,0.0
652,162.75,38.3453,41.2234,148.269,98.4387,95.1877,0.00014054,0.040918,21.0338,-344.399,0.298416,0.0,0.0
654,163.25,37.796,41.5682,152.215,98.4327,95.1885,0.00016389,0.0409038,21.0338,-344.379,0.297799,0.0,0.0
656,163.75,38.4633,40.8397,152.221,98.4367,95.3367,0.000194839,0.0408922,21.0341,-344.389,0.284336,0.0,0.0
658,164.25,38.2296,40.6272,153.281,98.416,95.0456,0.000219908,0.0408156,21.0345,-344.399,0.309636,0.0,0.0
660,164.75,38.1907,40.7775,148.175,98.4272,95.4661,0.000240847,0.0407536,21.0349,-344.369,0.271424,0.0,0.0
662,165.25,38.2188,40.7505,150.383,98.4232,95.1668,0.000258378,0.0407033,21.0351,-344.369,0.298962,0.0,0.0
664,165.75,37.839,40.4917,143.728,98.4252,94.845,0.00026941,0.0406909,21.0354,-344.369,0.329237,0.0,0.0
666,166.25,37.5373,40.1724,153.712,98.4124,95.0084,0.000275495,0.0407064,21.0356,-344.369,0.312797,0.0,0.0
668,166.75,37.9659,40.4051,152.412,98.4188,95.0722,0.000273457,0.0407189,21.0357,-344.379,0.307401,0.0,0.0
670,167.25,37.6794,40.3194,148.294,98.3969,94.9044,0.000265535,0.040729,21.0358,-344.369,0.321123,0.0,0.0
672,167.75,38.1045,40.3863,149.5,98.4176,94.7226,0.000254686,0.0407372,21.0359,-344.379,0.340028,0.0,0.0
674,168.25,38.1773,40.4767,152.365,98.3929,95.3408,0.00024191,0.0407722,21.0356,-344.389,0.279998,0.0,0.0
676,168.75,38.2907,40.5171,146.874,98.3961,95.1717,0.000230927,0.040826,21.0353,-344.369,0.296057,0.0,0.0
678,169.25,37.8068,40.6238,150.711,98.3901,95.1304,0.000221462,0.0408413,21.035,-344.369,0.299379,0.0,0.0
680,169.75,38.121,40.239,147.328,98.3961,94.7832,0.000213795,0.0408281,21.0348,-344.359,0.332404,0.0,0.0
682,170.25,37.9995,40.0639,151.042,98.377,94.958,0.000207585,0.0408175,21.0347,-344.359,0.314305,0.0,0.0
684,170.75,37.8966,40.2994,150.519,98.3873,94.976,0.000197743,0.0408089,21.0346,-344.369,0.313554,0.0,0.0
686,171.25,38.3156,40.5866,151.433,98.3686,95.6405,0.000189772,0.040809,21.0345,-344.379,0.249916,0.0,0.0
688,171.75,37.3704,40.0827,145.994,98.3782,94.8045,0.000170087,0.0408155,21.0344,-344.379,0.328789,0.0,0.0
690,172.25,37.3236,39.4811,151.728,98.3674,94.425,0.000154142,0.0408207,21.0343,-344.409,0.363458,0.0,0.0
692,172.75,37.4792,39.7868,151.999,98.3694,95.0575,0.000125601,0.040832,21.0343,-344.449,0.304317,0.0,0.0
694,173.25,37.3147,40.0732,148.881,98.3602,94.8901,0.000102483,0.0408476,21.0342,-344.439,0.319154,0.0,0.0
696,173.75,37.0574,40.247,150.698,98.363,94.2383,7.86968e-05,0.0408601,21.0342,-344.409,0.380647,0.0,0.0
698,174.25,37.0558,39.5519,153.064,98.3499,94.8037,5.48763e-05,0.0408972,21.0341,-344.429,0.32631,0.0,0.0
700,174.75,36.7728,39.4945,151.52,98.3479,94.9486,3.49494e-05,0.0409273,21.0341,-344.429,0.312558,0.0,0.0
702,175.25,36.603,39.4407,151.483,98.3415,94.5568,1.82395e-05,0.0409658,21.0341,-344.419,0.348722,0.0,0.0
704,175.75,37.2981,39.9986,148.396,98.3562,95.313,9.76437e-06,0.0410097,21.0341,-344.409,0.279282,0.0,0.0
706,176.25,37.6284,39.3092,153.609,98.3431,94.7562,7.45342e-06,0.0410382,21.0345,-344.409,0.330151,0.0,0.0
708,176.75,37.2248,39.9449,149.44,98.3375,94.8221,5.58155e-06,0.0410549,21.0349,-344.389,0.323468,0.0,0.0
710,177.25,37.3142,39.6035,150.945,98.3499,94.3972,2.115e-05,0.0410543,21.0351,-344.409,0.364495,0.0,0.0
712,177.75,36.9975,39.9608,150.139,98.3307,95.7706,4.91366e-05,0.0410411,21.0349,-344.389,0.234411,0.0,0.0
714,178.25,36.7398,39.3261,150.925,98.3415,94.9331,8.5738e-05,0.0410304,21.0348,-344.379,0.313438,0.0,0.0
716,178.75,36.7596,39.1163,152.204,98.326,95.2307,0.000127924,0.0411293,21.0346,-344.399,0.28422,0.0,0.0
718,179.25,37.2117,39.4326,152.613,98.3252,94.4942,0.00016653,0.0412094,21.0345,-344.379,0.353134,0.0,0.0
720,179.75,37.0141,39.4396,148.581,98.3148,94.4271,0.000201793,0.0414762,21.0342,-344.399,0.358514,0.0,0.0
722,180.25,36.8511,38.7225,147.324,98.318,94.5486,0.000230356,0.0416923,21.0337,-344.389,0.347368,0.0,0.0
724,180.75,36.7822,39.0741,145.745,98.3156,94.5994,0.000251084,0.0420019,21.0333,-344.389,0.342382,0.0,0.0
726,181.25,36.8965,39.0153,149.649,98.3152,94.7083,0.000267874,0.0423739,21.033,-344.399,0.332124,0.0,0.0
728,181.75,37.3289,39.4066,149.983,98.3104,94.9814,0.00028629,0.0426752,21.0328,-344.389,0.306109,0.0,0.0
730,182.25,36.3189,38.5306,145.438,98.3108,94.5204,0.000301206,0.0431078,21.0326,-344.399,0.349375,0.0,0.0
732,182.75,36.2678,38.6943,152.208,98.3005,94.3779,0.000318106,0.0434583,21.0322,-344.409,0.361842,0.0,0.0
734,183.25,37.2879,39.0586,150.29,98.3116,94.9973,0.000331794,0.0439038,21.0316,-344.419,0.304724,0.0,0.0
736,183.75,36.6123,39.4784,149.79,98.308,94.8655,0.000342882,0.0442646,21.0312,-344.419,0.316739,0.0,0.0
738,184.25,37.0269,39.287,150.435,98.306,94.4717,,0.0445853,,-344.409,0.353523,0.0,0.0
740,184.75,37.064,39.1809,153.04,98.2861,94.2441,,0.0448706,,-344.429,0.373157,0.0,0.0
742,185.25,36.923,38.6854,151.281,98.2941,94.915,,0.04513,,-344.419,0.310839,0.0,0.0
744,185.75,37.0891,38.8139,147.201,98.2889,95.2159,,0.0453657,,-344.409,0.282246,0.0,0.0
746,186.25,36.2082,38.3202,153.05,98.2805,95.0178,,0.0455566,,-344.409,0.3,0.0,0.0
748,186.75,36.3297,38.5488,150.745,98.2694,94.8794,,0.0457113,,-344.399,0.311942,0.0,0.0
750,187.25,36.6718,38.8626,152.595,98.2746,94.5388,,,,-344.399,0.344366,0.0,0.0
752,187.75,36.6625,38.7012,151.536,98.2746,95.3699,,,,-344.409,0.266597,0.0,0.0
754,188.25,36.623,39.0747,151.57,98.2825,94.9826,,,,-344.399,0.303474,0.0,0.0
756,188.75,36.317,39.1257,151.087,98.2606,94.626,,,,-344.419,0.334913,0.0,0.0
758,189.25,36.593,38.3276,149.242,98.2726,94.7394,,,,-344.429,0.325352,0.0,0.0
760,189.75,36.3043,38.5733,149.345,98.2519,95.4968,,,,-344.419,0.252726,0.0,0.0
762,190.25,36.3723,38.2609,148.285,98.2682,94.9134,,,,-344.419,0.308652,0.0,0.0
764,190.75,36.7042,38.1164,149.836,98.2463,94.976,,,,-344.429,0.300808,0.0,0.0
766,191.25,36.7298,38.4821,151.507,98.2614,94.9146,,,,-344.419,0.307924,0.0,0.0
768,191.75,36.4847,38.631,148.335,98.2395,95.2823,,,,-344.419,0.271592,0.0,0.0
770,192.25,36.96,38.4704,152.039,98.2427,94.9048,,,,-344.409,0.307151,0.0,0.0
772,192.75,36.2262,38.5402,148.688,98.2331,94.405,,,,-344.419,0.35321,0.0,0.0
774,193.25,36.6809,38.5705,148.565,98.2479,95.6957,,,,-344.419,0.233873,0.0,0.0
776,193.75,36.8066,38.435,151.661,98.2248,95.7051,,,,-344.419,0.230908,0.0,0.0
778,194.25,37.057,38.5672,150.589,98.2399,95.2131,,,,-344.429,0.278083,0.0,0.0
780,194.75,36.7001,38.5747,149.986,98.2228,94.5671,,,,-344.439,0.337027,0.0,0.0