File: 01_Data/PE_Foam_Pipe_Insulation/Cone/PE_Foam_Pipe_Insulation_Cone_HF75Scan_220316_R1.csv
Names,Time,Stack TC,Smoke TC,Exh Press,Smoke Comp,Smoke Meas,CO Meter,CO2 Meter,O2 Meter,Sample Mass,Ext Coeff,Start Test,Flame Verif
Chan Gain,,500,500,1,1,1,1,1,1,1,1,1.0,1.0
Offset,,0,0,0.135167,0,0,0,0,0,0,0,0.0,0.0
Gain,,1,1,25.011,13.0486,13.2841,1,1,1,1.00089,1.0079,1.0,1.0
Units,sec,C,C,Pa,%,%,%,%,%,g,/m,,
Baseline,,37.5775,39.0256,151.993,99.0594,95.4444,0.000660779,0.0604723,20.9913,-491.991,0.328767,,
2,0.25,36.0921,37.4024,155.665,98.3087,92.9416,0.00104425,0.0683283,20.9768,2.242,0.496355,0.0,0.0
4,0.75,35.0612,37.2649,147.605,98.3015,93.8744,0.00116263,0.0722646,20.9693,2.242,0.407416,0.0,0.0
6,1.25,36.1457,37.4187,148.217,98.3087,93.5448,0.00125852,0.0754529,20.9586,2.1319,0.439157,0.0,1.0
8,1.75,36.0678,37.3991,143.659,98.2907,93.4123,0.00140106,0.0818497,20.9416,2.18194,0.450083,0.0,1.0
10,2.25,35.3714,36.9914,139.782,98.2931,92.6445,0.00151653,0.0904639,20.9203,2.0218,0.523271,0.0,1.0
12,2.75,35.8535,37.4818,135.761,98.2844,91.0046,0.00167995,0.101203,20.899,2.22198,0.680379,0.0,1.0
14,3.25,35.5555,36.8138,138.905,98.2816,90.1796,0.00181233,0.113289,20.8783,2.0218,0.760644,0.0,1.0
16,3.75,36.1978,37.6166,139.388,98.2696,89.7653,0.00199697,0.123077,20.8612,2.12189,0.800281,0.0,1.0
18,4.25,36.4646,37.8294,137.04,98.2688,88.7327,0.00214653,0.134427,20.8472,2.12189,0.902498,0.0,1.0
20,4.75,37.063,37.9839,143.136,98.2533,90.5222,0.00236867,0.14362,20.8356,2.12189,0.724578,0.0,1.0
22,5.25,37.4162,38.5948,148.063,98.2613,91.8669,0.00254861,0.151181,20.826,2.09186,0.594923,0.0,1.0
24,5.75,37.3775,38.5368,146.308,98.2521,90.3138,0.00278937,0.157409,20.8182,2.07185,0.744845,0.0,1.0
26,6.25,37.1868,38.4905,143.359,98.2489,87.626,0.00306989,0.162965,20.8119,2.07185,1.01168,0.0,1.0
28,6.75,37.0921,38.548,139.508,98.2338,86.8107,0.00329711,0.167465,20.8042,2.0218,1.09296,0.0,1.0
30,7.25,37.3666,38.6046,141.562,98.2422,84.6613,0.00348116,0.173396,20.7979,2.03181,1.31537,0.0,0.0
32,7.75,37.6301,38.7917,143.285,98.229,83.0904,0.00391271,0.178201,20.7928,2.01179,1.47979,0.0,0.0
34,8.25,37.7871,39.2809,141.184,98.235,81.0492,0.0045165,0.187045,20.7854,1.98177,1.70023,0.0,0.0
36,8.75,38.1984,39.3327,139.876,98.2187,78.6367,0.00500558,0.194209,20.7795,1.93172,1.96593,0.0,0.0
38,9.25,38.1391,39.8647,138.622,98.2306,76.722,0.00581875,0.200012,20.7676,1.89169,2.18494,0.0,0.0
40,9.75,38.7334,39.8582,137.393,98.2143,78.6095,0.00647741,0.204712,20.7518,1.85165,1.96859,0.0,0.0
42,10.25,39.426,40.3462,133.336,98.2238,75.7839,0.00742602,0.227913,20.7228,1.77158,2.2931,0.0,0.0
44,10.75,39.1701,40.4939,129.832,98.2027,74.5981,0.00819439,0.246705,20.6849,1.65147,2.43064,0.0,0.0
46,11.25,39.877,41.2774,131.297,98.2191,71.305,0.00932973,0.261927,20.6261,1.65147,2.83127,0.0,0.0
48,11.75,39.7909,41.1095,131.532,98.1948,68.7745,0.0102494,0.291559,20.553,1.61144,3.14855,0.0,0.0
50,12.25,40.4258,41.6992,123.538,98.1968,65.7401,0.0115098,0.315561,20.4734,1.50134,3.54769,0.0,0.0
52,12.75,40.598,41.898,120.955,98.19,62.1807,0.0125308,0.354248,20.3904,1.45129,4.03922,0.0,0.0
54,13.25,41.2969,41.9868,133.479,98.1968,63.3515,0.0138626,0.385585,20.3011,1.37122,3.87491,0.0,0.0
56,13.75,41.9635,43.3971,125.746,98.1765,64.2377,0.0149413,0.432693,20.2088,1.30116,3.75026,0.0,0.0
58,14.25,43.0827,44.0165,112.544,98.1904,64.0402,0.0158151,0.47085,20.1341,1.22109,3.77873,0.0,0.0
60,14.75,43.5991,44.8662,123.384,98.1697,65.2463,0.0171743,0.528107,20.0449,1.15103,3.61191,0.0,0.0
62,15.25,44.6198,45.7021,108.299,98.1824,62.5431,0.0182753,0.574485,19.9469,1.08096,3.98716,0.0,0.0
64,15.75,45.3108,46.5111,115.584,98.1697,63.2027,0.0196106,0.627295,19.8675,0.980874,3.89326,0.0,0.0
66,16.25,46.5838,47.6232,110.104,98.1693,65.7518,0.0206923,0.683789,19.7536,0.910812,3.54363,0.0,0.0
68,16.75,47.4709,48.6457,99.4913,98.1542,61.0151,0.0218094,0.746496,19.6614,0.820731,4.20329,0.0,0.0
70,17.25,48.8093,50.0643,101.608,98.1609,63.5529,0.0229311,0.812542,19.5438,0.770687,3.84361,0.0,0.0
72,17.75,50.6561,51.5819,95.0925,98.1398,63.9916,0.0238397,0.866039,19.4485,0.640571,3.78089,0.0,0.0
74,18.25,51.6607,53.0433,101.172,98.1426,61.5243,0.0249352,0.9428,19.3406,0.530473,4.12877,0.0,0.0
76,18.75,53.3259,54.8692,104.918,98.1267,62.6205,0.0258225,1.00498,19.2255,0.420375,3.9712,0.0,0.0
78,19.25,54.617,56.2801,92.3386,98.1354,63.197,0.0267424,1.06974,19.1125,0.340303,3.89097,0.0,0.0
80,19.75,56.2428,58.5093,92.4806,98.1159,63.3482,0.0274875,1.13516,19.0031,0.230205,3.86808,0.0,0.0
82,20.25,57.5759,60.21,98.7959,98.1398,63.3012,0.0281302,1.18816,18.9146,0.120107,3.8768,0.0,0.0
84,20.75,59.6616,62.1791,116.47,98.1072,61.723,0.0286859,1.24605,18.8428,0.0300268,4.09708,0.0,0.0
86,21.25,61.6437,64.0451,94.8895,98.1127,62.1685,0.029136,1.29295,18.7847,-0.0600535,4.03399,0.0,0.0
88,21.75,63.0561,65.5651,103.286,98.0897,65.5593,0.0294942,1.33411,18.7176,-0.130116,3.56239,0.0,0.0
90,22.25,64.8791,67.745,102.505,98.1024,63.9888,0.0295972,1.36745,18.6833,-0.230205,3.77791,0.0,0.0
92,22.75,66.1684,69.7861,97.4526,98.0909,64.1687,0.0296085,1.39366,18.6568,-0.300268,3.75204,0.0,0.0
94,23.25,67.7613,71.4384,109.616,98.0904,65.4429,0.0296177,1.41418,18.6353,-0.37033,3.57816,0.0,0.0
96,23.75,68.039,72.2557,93.7301,98.0733,63.5655,0.0294595,1.43081,18.6233,-0.470419,3.83397,0.0,0.0
98,24.25,69.6425,73.9318,100.018,98.0893,64.5498,0.0293314,1.43963,18.6184,-0.580517,3.69954,0.0,0.0
100,24.75,70.8664,75.0559,97.422,98.059,64.1075,0.0289935,1.44982,18.6274,-0.590526,3.7576,0.0,0.0
102,25.25,72.7089,77.0832,110.033,98.0729,64.6277,0.0287532,1.448,18.6363,-0.720642,3.68742,0.0,0.0
104,25.75,74.2662,79.4461,103.698,98.049,67.3138,0.0284976,1.44652,18.6524,-0.770687,3.32522,0.0,0.0
106,26.25,74.8112,80.1483,106.856,98.0554,66.619,0.0282905,1.43981,18.6654,-0.840749,3.41753,0.0,0.0
108,26.75,75.6934,81.1161,107.471,98.0399,65.6708,0.027963,1.43437,18.6811,-0.940838,3.54288,0.0,0.0
110,27.25,77.1395,82.8627,105.179,98.0494,64.9285,0.0276977,1.42462,18.6984,-1.00089,3.64424,0.0,0.0
112,27.75,77.8757,83.6508,108.442,98.0208,66.4455,0.0273911,1.40964,18.7124,-1.07095,3.43746,0.0,0.0
114,28.25,78.3274,84.0903,108.835,98.0343,67.566,0.0270601,1.39753,18.7397,-1.17104,3.29083,0.0,0.0
116,28.75,79.2512,85.3647,108.109,98.0104,70.971,0.0267921,1.38771,18.7618,-1.27113,2.85399,0.0,0.0
118,29.25,80.6891,87.1198,104.165,98.0172,68.2345,0.0263263,1.37043,18.7873,-1.31117,3.20224,0.0,0.0
120,29.75,81.67,87.826,111.673,98.0104,70.2497,0.0260882,1.35643,18.8181,-1.36121,2.94429,0.0,0.0
122,30.25,82.4128,89.2183,108.521,98.0212,70.9957,0.0258954,1.33923,18.843,-1.42127,2.85188,0.0,0.0
124,30.75,82.9845,89.9043,107.797,97.9969,70.9114,0.0256068,1.32002,18.8712,-1.52136,2.86019,0.0,0.0
126,31.25,84.4758,91.3781,109.284,97.9833,69.0765,0.0253731,1.30445,18.9012,-1.59142,3.09075,0.0,0.0
128,31.75,84.9232,92.0501,103.489,97.9742,70.4529,0.0251239,1.28488,18.9366,-1.66148,2.9155,0.0,0.0
130,32.25,85.2519,92.0245,109.635,97.9845,69.9104,0.0249221,1.26227,18.9652,-1.70152,2.98476,0.0,0.0
132,32.75,85.4854,92.5844,109.121,97.9674,69.8212,0.0246865,1.25071,18.9922,-1.83163,2.99451,0.0,0.0
134,33.25,86.4679,94.064,108.366,97.9555,68.449,0.0244958,1.2348,19.0173,-1.9117,3.16893,0.0,0.0
136,33.75,87.5621,94.9608,108.128,97.9463,68.6148,0.0242531,1.22192,19.0377,-1.93172,3.14671,0.0,0.0
138,34.25,88.6059,96.0119,107.636,97.9423,68.0683,0.0240565,1.20852,19.06,-2.01179,3.21705,0.0,0.0
140,34.75,88.8817,96.6041,110.131,97.9423,70.78,0.0238972,1.19767,19.0781,-2.11188,2.87166,0.0,0.0
142,35.25,89.4159,97.3287,106.02,97.9352,67.4553,0.0236059,1.18586,19.0957,-2.19195,3.29638,0.0,0.0
144,35.75,90.5171,98.2503,116.923,97.9359,70.1245,0.02337,1.1763,19.1127,-2.28203,2.95335,0.0,0.0
146,36.25,91.2779,99.1464,108.499,97.9288,69.143,0.0230212,1.16611,19.1307,-2.34209,3.07732,0.0,0.0
148,36.75,91.6031,99.4506,107.735,97.9236,68.9594,0.0227387,1.15567,19.149,-2.37211,3.10037,0.0,0.0
150,37.25,92.4493,100.275,108.596,97.9113,70.3738,0.0223843,1.14721,19.1639,-2.43217,2.91974,0.0,0.0
152,37.75,92.8965,101.086,106.797,97.9136,69.3335,0.0219841,1.13471,19.1874,-2.54227,3.05163,0.0,0.0
154,38.25,93.3371,101.453,117.154,97.8941,70.2749,0.0215399,1.12458,19.2065,-2.5823,2.93063,0.0,0.0
156,38.75,93.5178,101.949,107.834,97.8989,71.6362,0.021072,1.10799,19.2322,-2.62234,2.76143,0.0,0.0
158,39.25,94.2044,102.444,107.911,97.8874,69.8634,0.0205507,1.09456,19.2622,-2.71242,2.98194,0.0,0.0
160,39.75,94.9966,103.432,110.606,97.8858,71.2969,0.0200004,1.07799,19.3069,-2.78248,2.80222,0.0,0.0
162,40.25,95.6757,104.478,116.005,97.8937,72.8605,0.0195546,1.05946,19.3431,-2.8025,2.61114,0.0,0.0
164,40.75,96.0069,104.548,116.75,97.8766,70.596,0.0188055,1.04445,19.3923,-2.89258,2.88875,0.0,0.0
166,41.25,95.8308,104.716,119.636,97.8742,74.2863,0.0181987,1.01596,19.4499,-2.9226,2.43804,0.0,0.0
168,41.75,96.1181,104.954,119.21,97.873,72.9603,0.0177072,0.99288,19.4966,-2.98266,2.59718,0.0,0.0
170,42.25,96.14,104.937,122.536,97.8583,74.2685,0.0167281,0.952404,19.5628,-2.98266,2.43872,0.0,0.0
172,42.75,97.0158,106.046,126.555,97.8535,78.4161,0.015935,0.919619,19.642,-2.98266,1.95783,0.0,0.0
174,43.25,96.1384,105.434,138.029,97.8643,87.6017,0.0148792,0.866086,19.7615,-2.98266,0.979447,0.0,0.0
176,43.75,97.1966,106.373,142.337,97.8511,92.6672,0.0144291,0.822723,19.8583,-2.99267,0.481257,0.0,0.0
178,44.25,96.056,105.32,144.334,97.8579,92.9116,0.0134475,0.7876,19.9257,-2.99267,0.458576,0.0,0.0
180,44.75,95.9662,105.541,149.243,97.8364,93.1901,0.0124615,0.721606,20.0409,-2.98266,0.43017,0.0,0.0
182,45.25,95.2994,104.757,145.159,97.844,92.7653,0.0113519,0.668152,20.1538,-2.97265,0.471254,0.0,0.0
184,45.75,94.6167,104.5,143.903,97.8332,93.184,0.0104531,0.601085,20.2628,-2.97265,0.43046,0.0,0.0
186,46.25,94.1126,103.997,146.218,97.842,92.9915,0.00948879,0.54676,20.3596,-2.98266,0.44954,0.0,0.0
188,46.75,92.9895,102.852,144.95,97.8193,93.36,0.0087077,0.516563,20.4454,-3.00268,0.412523,0.0,0.0
190,47.25,92.53,102.432,147.226,97.8197,92.8204,0.00795926,0.464925,20.515,-2.98266,0.463806,0.0,0.0
192,47.75,91.9179,102.003,147.936,97.8025,93.8858,0.00724882,0.41824,20.582,-2.99267,0.361356,0.0,0.0
194,48.25,91.194,100.748,149.218,97.8125,92.6745,0.00667337,0.376054,20.6362,-2.98266,0.47707,0.0,0.0
196,48.75,90.0741,100.235,145.683,97.8029,93.8274,0.00611097,0.335672,20.6837,-2.99267,0.366891,0.0,0.0
198,49.25,89.8955,99.4245,148.38,97.8029,93.6746,0.00556877,0.302963,20.7252,-2.98266,0.381304,0.0,0.0
200,49.75,89.3199,98.8141,147.261,97.7926,94.1213,0.00508422,0.272103,20.7589,-2.99267,0.338303,0.0,0.0
202,50.25,88.687,98.1611,147.085,97.7826,93.8136,0.00465089,0.247106,20.7906,-2.97265,0.366354,0.0,0.0
204,50.75,88.0478,97.3438,149.461,97.7783,93.5367,0.00429989,0.226859,20.8163,-2.97265,0.392091,0.0,0.0
206,51.25,86.8561,96.4887,147.562,97.7679,93.3284,0.0039308,0.206202,20.8392,-2.98266,0.410874,0.0,0.0
208,51.75,86.8619,96.198,152.477,97.7627,93.1682,0.00363183,0.18947,20.8596,-2.98266,0.425588,0.0,0.0
210,52.25,86.0544,95.3996,151.889,97.7607,93.3932,0.00332835,0.174641,20.8762,-2.99267,0.404082,0.0,0.0
212,52.75,85.4595,94.8601,147.285,97.7496,93.379,0.00308253,0.161481,20.8915,-2.99267,0.404417,0.0,0.0
214,53.25,85.1969,94.1604,151.268,97.7655,92.2642,0.00288341,0.150022,20.9115,-2.99267,0.512049,0.0,0.0
216,53.75,84.346,93.9418,147.578,97.7392,93.9924,0.00266336,0.14002,20.9163,-2.99267,0.345596,0.0,0.0
218,54.25,83.7429,93.325,149.593,97.7396,93.6531,0.00248512,0.131918,20.9245,-2.97265,0.377607,0.0,0.0
220,54.75,83.7133,92.5134,148.672,97.7229,93.78,0.00232722,0.124036,20.9312,-2.98266,0.364123,0.0,0.0
222,55.25,82.7431,91.7231,151.646,97.7281,93.2598,0.00218716,0.117651,20.9384,-2.98266,0.413765,0.0,0.0
224,55.75,81.9881,91.4414,149.928,97.7094,93.3507,0.00207371,0.11248,20.9442,-2.98266,0.403466,0.0,0.0
226,56.25,81.1412,90.6452,146.915,97.7205,93.3717,0.00196227,0.107613,20.9493,-2.97265,0.402479,0.0,0.0
228,56.75,81.0413,89.9419,145.786,97.7086,94.3788,0.00187199,0.10306,20.9539,-2.99267,0.306556,0.0,0.0
230,57.25,80.532,89.5681,150.019,97.7074,93.5785,0.00178987,0.0990091,20.9577,-2.99267,0.381733,0.0,0.0
232,57.75,79.6907,88.8866,145.58,97.6998,93.3004,0.00171525,0.0954004,20.9616,-3.00268,0.407364,0.0,0.0
234,58.25,79.4647,88.8601,150.115,97.7054,93.2412,0.00164195,0.0924773,20.9647,-3.01268,0.413478,0.0,0.0
236,58.75,79.3121,88.247,153.3,97.6883,92.9878,0.00157102,0.0895024,20.9677,-3.00268,0.435987,0.0,0.0
238,59.25,78.7418,87.6724,150.67,97.7141,93.4938,0.00150393,0.0870928,20.9702,-3.00268,0.390356,0.0,0.0
240,59.75,78.1629,87.1366,148.861,97.6946,93.7621,0.00144092,0.0848871,20.973,-2.99267,0.363247,0.0,0.0
242,60.25,77.6318,86.6001,152.325,97.7102,93.3357,0.00137832,0.082872,20.9753,-3.00268,0.404959,0.0,0.0
244,60.75,77.9684,85.947,152.539,97.6823,93.259,0.00131722,0.0809861,20.9777,-3.00268,0.409696,0.0,0.0
246,61.25,76.8059,85.36,146.85,97.6918,93.4398,0.00126773,0.0792304,20.9795,-3.01268,0.393438,0.0,0.0
248,61.75,75.8001,85.1532,150.135,97.6779,92.7766,0.00120692,0.0776344,20.9813,-3.02269,0.455155,0.0,0.0
250,62.25,76.111,84.8872,149.367,97.6902,93.8457,0.00115767,0.0761854,20.9829,-3.00268,0.354979,0.0,0.0
252,62.75,75.4382,83.8933,148.429,97.6795,93.358,0.00111777,0.0750116,20.9842,-3.01268,0.400073,0.0,0.0
254,63.25,74.6019,82.7,145.355,97.6859,93.853,0.00106231,0.0737997,20.9855,-3.00268,0.353895,0.0,0.0
256,63.75,74.1522,82.1765,147.873,97.6679,92.7855,0.00101739,0.0728181,20.9868,-3.01268,0.453404,0.0,0.0
258,64.25,73.9914,82.8061,145.815,97.6691,93.9977,0.000962744,0.0718168,20.9878,-3.00268,0.338758,0.0,0.0
260,64.75,73.6956,82.692,148.384,97.6648,93.2363,0.00091848,0.0710058,20.9887,-3.00268,0.410264,0.0,0.0
262,65.25,73.4564,81.6806,148.813,97.6592,92.9254,0.00086559,0.0702333,20.9893,-3.00268,0.439294,0.0,0.0
264,65.75,73.0521,81.2012,148.704,97.6504,93.208,0.000822749,0.0695034,20.9899,-3.01268,0.411657,0.0,0.0
266,66.25,73.2321,81.1464,147.886,97.648,93.2274,0.000778318,0.0689123,20.9905,-3.01268,0.409596,0.0,0.0
268,66.75,72.5383,80.9555,147.276,97.6417,93.8144,0.000742328,0.0683034,20.9913,-3.00268,0.353522,0.0,0.0
270,67.25,71.4115,80.1805,152.277,97.6445,93.9316,0.000713177,0.0676932,20.9921,-2.99267,0.34274,0.0,0.0
272,67.75,71.2397,79.2324,149.081,97.6345,93.4569,0.000689564,0.0670891,20.993,-3.00268,0.386636,0.0,0.0
274,68.25,71.4799,79.3787,147.282,97.6309,93.4431,0.000667925,0.0665998,20.9938,-3.00268,0.387615,0.0,0.0
276,68.75,71.0634,79.0793,152.35,97.6277,93.0434,0.000648136,0.0660938,20.9944,-2.99267,0.425228,0.0,0.0
278,69.25,70.5436,78.5668,144.947,97.6381,93.0726,0.000632107,0.0656838,20.9948,-3.01268,0.423393,0.0,0.0
280,69.75,70.2289,78.0847,151.534,97.6369,93.4492,0.000615284,0.0652558,20.9951,-3.02269,0.387581,0.0,0.0
282,70.25,69.5993,78.2222,150.488,97.6289,93.6896,0.000598202,0.0649091,20.9953,-3.01268,0.364144,0.0,0.0
284,70.75,69.4718,77.4039,151.09,97.6114,93.6559,0.000581806,0.064546,20.9954,-3.01268,0.365733,0.0,0.0
286,71.25,68.8763,76.603,152.744,97.6114,93.0316,0.000566223,0.0642519,20.9955,-3.02269,0.424868,0.0,0.0
288,71.75,68.0863,76.3382,150.73,97.6106,92.8605,0.0005536,0.0640137,20.9956,-3.02269,0.441068,0.0,0.0
290,72.25,68.6031,76.8623,151.444,97.6182,93.0203,0.000530006,0.0636965,20.9957,-3.02269,0.426558,0.0,0.0
292,72.75,67.9033,76.079,147.615,97.6018,92.9963,0.000510894,0.0634397,20.9957,-3.0327,0.427353,0.0,0.0
294,73.25,67.8162,75.9025,149.375,97.6003,92.7073,0.000494199,0.0631667,20.9958,-3.02269,0.454732,0.0,0.0
296,73.75,67.2595,75.3343,150.211,97.5935,93.4038,0.000480676,0.0628871,20.9958,-3.01268,0.387946,0.0,0.0
298,74.25,67.4246,75.1137,147.185,97.5951,93.5574,0.00047823,0.0626607,20.9961,-3.01268,0.373558,0.0,0.0
300,74.75,67.1899,74.778,147.239,97.5803,92.5832,0.000476248,0.0624088,20.9965,-3.00268,0.464767,0.0,0.0
302,75.25,66.9974,74.5943,150.267,97.5927,92.8176,0.00048072,0.0622047,20.9969,-3.00268,0.443538,0.0,0.0
304,75.75,66.0975,74.0909,146.468,97.5648,92.8228,0.000484343,0.0620034,20.9971,-2.99267,0.44051,0.0,0.0
306,76.25,66.0606,73.9294,148.357,97.5696,93.6904,0.000487278,0.0618078,20.9974,-3.01268,0.358693,0.0,0.0
308,76.75,65.8418,73.3061,150.317,97.5517,93.6348,0.000489654,0.061622,20.9975,-3.01268,0.362311,0.0,0.0
310,77.25,65.6099,72.9907,150.59,97.5533,93.4354,0.000493499,0.0614715,20.9978,-3.02269,0.381309,0.0,0.0
312,77.75,64.9409,72.5775,147.089,97.5469,93.8274,0.00049834,0.0613208,20.9981,-3.04271,0.343715,0.0,0.0
314,78.25,64.9137,72.304,147.86,97.5417,93.2489,0.000519286,0.0611728,20.9984,-3.04271,0.397926,0.0,0.0
316,78.75,64.5571,72.1809,149.117,97.5302,93.409,0.000536252,0.0610528,20.9986,-3.04271,0.381709,0.0,0.0
318,79.25,64.4356,71.7017,148.208,97.5357,93.75,0.000569113,0.0609557,20.9988,-3.0327,0.350004,0.0,0.0
320,79.75,64.3363,71.5717,148.536,97.5202,93.0649,0.000612939,0.0608086,20.9989,-3.0327,0.413444,0.0,0.0
322,80.25,63.4108,71.0565,146.098,97.517,92.8467,0.000659975,0.0606894,20.9991,-3.05272,0.433901,0.0,0.0
324,80.75,63.3059,70.9458,147.53,97.5206,92.6092,0.00070846,0.0605856,20.9993,-3.05272,0.456876,0.0,0.0
326,81.25,63.1589,70.4338,154.106,97.5031,93.1289,0.000747732,0.0604951,20.9997,-3.04271,0.40581,0.0,0.0
328,81.75,62.7851,70.2863,152.007,97.5015,93.7378,0.000791727,0.0603721,21,-3.0327,0.348045,0.0,0.0
330,82.25,62.8973,70.089,145.408,97.4899,92.8107,0.000827364,0.0602278,21.0002,-3.02269,0.434881,0.0,0.0
332,82.75,62.9112,69.7421,145.567,97.4816,93.409,0.000858795,0.0601109,21.0004,-3.04271,0.377304,0.0,0.0
334,83.25,61.9448,69.5162,149.88,97.4669,93.9742,0.000886564,0.0599889,21.001,-3.05272,0.322639,0.0,0.0
336,83.75,61.8065,69.274,154.835,97.4669,93.1488,0.000909057,0.05989,21.0015,-3.05272,0.400637,0.0,0.0
338,84.25,61.5794,69.015,146.935,97.4481,93.0572,0.000930484,0.0597963,21.0019,-3.05272,0.40764,0.0,0.0
340,84.75,61.3451,68.6213,148.956,97.4505,93.0393,0.000950726,0.0597203,21.0022,-3.0327,0.409551,0.0,0.0
342,85.25,61.3127,68.1078,149.129,97.4342,93.1249,0.000970973,0.0596227,21.0025,-3.0327,0.399945,0.0,0.0
344,85.75,60.9894,67.6926,151.389,97.4442,93.4585,0.000990838,0.0595113,21.0027,-3.0327,0.369229,0.0,0.0
346,86.25,60.7931,67.8589,152.42,97.4358,92.8022,0.00100565,0.059421,21.0029,-3.0327,0.430779,0.0,0.0
348,86.75,61.1516,67.6843,151.756,97.4246,93.3353,0.00101648,0.0593205,21.003,-3.02269,0.379125,0.0,0.0
350,87.25,60.1689,67.186,148.266,97.4039,92.8699,0.00102205,0.0592391,21.0031,-3.0327,0.421441,0.0,0.0
352,87.75,60.2251,66.9325,149.525,97.4151,92.9307,0.00102368,0.0591804,21.0032,-3.0327,0.416666,0.0,0.0
354,88.25,60.06,66.5065,148.951,97.3976,92.3749,0.00102179,0.0591393,21.0033,-3.02269,0.468112,0.0,0.0
356,88.75,59.1704,66.4843,148.71,97.396,92.8362,0.00101737,0.0591133,21.0033,-3.0327,0.423921,0.0,0.0
358,89.25,59.7197,65.6664,151.009,97.3709,92.5678,0.00101379,0.0590986,21.0034,-3.04271,0.44724,0.0,0.0
360,89.75,59.1403,65.7132,147.066,97.3792,93.0057,0.000991395,0.0590868,21.0034,-3.0327,0.40628,0.0,0.0
362,90.25,58.9671,65.7957,145.547,97.3665,93.1808,0.000973255,0.0590772,21.0035,-3.01268,0.38849,0.0,0.0
364,90.75,58.9375,65.5768,150.946,97.3741,93.8294,0.000958561,0.0590694,21.0035,-3.02269,0.327846,0.0,0.0
366,91.25,58.5369,64.9056,147.242,97.3585,93.1885,0.000916218,0.0590083,21.0035,-3.0327,0.387036,0.0,0.0
368,91.75,58.4451,64.7141,151.84,97.3577,93.6024,0.000881919,0.0589589,21.0035,-3.0327,0.347781,0.0,0.0
370,92.25,58.427,64.8267,151.866,97.337,93.6575,0.00082737,0.0588777,21.0035,-3.0327,0.340694,0.0,0.0
372,92.75,58.1541,64.7657,148.868,97.3454,94.4225,0.000783186,0.058812,21.0035,-3.05272,0.269532,0.0,0.0
374,93.25,57.8723,64.2438,151.067,97.3323,93.4544,0.000735237,0.0587444,21.0036,-3.02269,0.359454,0.0,0.0
376,93.75,57.6371,64.2088,152.161,97.3331,92.7073,0.000685457,0.0586767,21.0036,-3.02269,0.430495,0.0,0.0
378,94.25,57.3603,63.6096,154.168,97.3167,93.2809,0.000628121,0.0586218,21.0036,-3.04271,0.374474,0.0,0.0
380,94.75,57.632,63.4843,147.512,97.3175,93.1516,0.000581679,0.0586321,21.0036,-3.04271,0.386811,0.0,0.0
382,95.25,57.0506,62.9276,149.781,97.292,93.3024,0.000538307,0.0586404,21.0036,-3.05272,0.370193,0.0,0.0
384,95.75,56.7899,63.1667,145.598,97.3115,92.7884,0.000497998,0.0586335,21.0036,-3.05272,0.420812,0.0,0.0
386,96.25,56.6892,63.0413,149.524,97.2932,93.4236,0.000468543,0.0586279,21.0036,-3.05272,0.358823,0.0,0.0
388,96.75,56.0941,63.0615,149.398,97.3,92.4965,0.000447562,0.0586233,21.0036,-3.07274,0.44762,0.0,0.0
390,97.25,56.6965,62.3231,148.558,97.2753,92.7831,0.000430567,0.0586196,21.0036,-3.07274,0.418021,0.0,0.0
392,97.75,56.7757,62.3126,147.758,97.2873,92.8099,0.000432152,0.0586311,21.0036,-3.07274,0.416557,0.0,0.0
394,98.25,55.2494,61.8534,146.846,97.2685,93.5023,0.000447251,0.0586533,21.0036,-3.07274,0.34914,0.0,0.0
396,98.75,55.1462,61.6402,146.576,97.2881,93.2817,0.000477722,0.0586713,21.0036,-3.05272,0.371791,0.0,0.0
398,99.25,55.7404,61.5984,150.172,97.2574,93.2104,0.000502403,0.0586859,21.0036,-3.06273,0.37577,0.0,0.0
400,99.75,55.6114,61.7988,149.187,97.2685,93.8667,0.000522394,0.0586977,21.0036,-3.05272,0.314745,0.0,0.0
402,100.25,55.2089,61.3119,153.562,97.247,92.3972,0.000536075,0.0586936,21.0036,-3.06273,0.452303,0.0,0.0
404,100.75,55.3537,61.0509,150.106,97.2546,92.837,0.000544895,0.0586902,21.0028,-3.06273,0.411003,0.0,0.0
406,101.25,55.0119,60.9068,149.139,97.2327,92.8451,0.000542441,0.0586947,21.0022,-3.06273,0.408239,0.0,0.0
408,101.75,55.1148,60.7245,154.436,97.2462,93.0527,0.000531814,0.0587049,21.0015,-3.06273,0.389726,0.0,0.0
410,102.25,54.1909,59.9029,151.425,97.2204,93.135,0.000509776,0.0587131,21.001,-3.05272,0.379558,0.0,0.0
412,102.75,54.2401,60.2913,146.901,97.2307,93.058,0.000479838,0.0587413,21.0005,-3.05272,0.387814,0.0,0.0
414,103.25,55.0164,60.622,153.207,97.2192,92.9842,0.000455588,0.0587837,21.0002,-3.06273,0.393777,0.0,0.0
416,103.75,54.1333,60.1379,150.302,97.2303,93.5076,0.000408018,0.058818,20.9999,-3.04271,0.345166,0.0,0.0
418,104.25,54.1862,59.6922,151.075,97.2088,93.317,0.000369487,0.0588313,20.9997,-3.06273,0.361244,0.0,0.0
420,104.75,53.6854,59.9379,150.421,97.218,92.49,0.000338276,0.0588421,20.9995,-3.06273,0.440782,0.0,0.0
422,105.25,53.9718,59.4283,151.549,97.206,92.9445,0.000296007,0.0588782,20.9993,-3.04271,0.39636,0.0,0.0
424,105.75,54.0468,59.1784,149.412,97.2012,92.4118,0.000261769,0.0589075,20.9992,-3.05272,0.446744,0.0,0.0
426,106.25,53.1881,58.2953,149.864,97.1853,92.8018,0.00024617,0.0589859,20.9991,-3.04271,0.408061,0.0,0.0
428,106.75,53.0646,58.6132,146.373,97.1945,92.2103,0.000233535,0.0590495,20.999,-3.04271,0.465425,0.0,0.0
430,107.25,53.6436,58.8776,149.623,97.1821,93.0539,0.000260941,0.0591009,20.9987,-3.05272,0.38378,0.0,0.0
432,107.75,53.2843,58.3188,152.35,97.1829,92.7916,0.000292604,0.0591426,20.9981,-3.05272,0.40881,0.0,0.0
434,108.25,52.861,58.6704,152.526,97.1766,93.0717,0.000320954,0.0591764,20.9979,-3.04271,0.381578,0.0,0.0
436,108.75,53.1959,58.4266,150.91,97.1789,92.8808,0.000369431,0.0592312,20.9976,-3.04271,0.399953,0.0,0.0
438,109.25,52.1963,57.7752,147.026,97.1674,93.0985,0.000434245,0.0592755,20.9974,-3.06273,0.378204,0.0,0.0
440,109.75,52.0311,57.1676,152.53,97.1642,92.5451,0.000486745,0.0593186,20.9972,-3.06273,0.430623,0.0,0.0
442,110.25,52.9211,57.8598,151.146,97.159,92.7077,0.000531703,0.05936,20.9968,-3.06273,0.414635,0.0,0.0
444,110.75,52.6304,57.2667,150.028,97.15625,92.3335,0.00056812,0.0594216,20.9963,-3.06273,0.450138,0.0,0.0
446,111.25,52.3726,57.5451,150.219,97.1527,92.7389,0.000597617,0.0594403,20.9958,-3.07274,0.411078,0.0,0.0
448,111.75,52.4856,57.5887,148.606,97.1507,92.4418,0.000603583,0.0594579,20.9955,-3.06273,0.439273,0.0,0.0
450,112.25,52.6008,57.0311,150.983,97.1391,93.6134,0.00059228,0.0594591,20.9952,-3.07274,0.326872,0.0,0.0
452,112.75,51.9105,57.2858,149.954,97.1435,92.8646,0.000570969,0.0594738,20.995,-3.07274,0.398271,0.0,0.0
454,113.25,51.9641,57.1126,151.491,97.1359,92.4665,0.000542768,0.0594858,20.9948,-3.08275,0.435567,0.0,0.0
456,113.75,52.0444,56.9852,148.494,97.1391,93.2258,0.000519925,0.0594954,20.9946,-3.07274,0.36355,0.0,0.0
458,114.25,51.4162,56.8105,145.826,97.128,92.9339,0.000501423,0.059558,20.9945,-3.04271,0.390261,0.0,0.0
460,114.75,51.2556,57.0066,146.38,97.1244,92.6457,0.000493535,0.0596087,20.9942,-3.04271,0.417399,0.0,0.0
462,115.25,51.5062,56.4808,145.94,97.1192,93.0122,0.000486443,0.0596714,20.9938,-3.04271,0.382023,0.0,0.0
464,115.75,52.0353,56.5317,150.073,97.132,93.2124,0.000486456,0.0597416,20.9934,-3.05272,0.364167,0.0,0.0
466,116.25,51.1592,55.8829,150.544,97.1252,92.9282,0.000494145,0.0597985,20.993,-3.06273,0.390546,0.0,0.0
468,116.75,50.6837,56.4542,151.75,97.1124,93.3515,0.000507283,0.0598446,20.9928,-3.05272,0.349212,0.0,0.0
470,117.25,51.0069,55.9873,150.929,97.1132,93.332,0.000521125,0.059882,20.9926,-3.06273,0.351127,0.0,0.0
472,117.75,51.0561,55.9112,148.039,97.1148,93.3344,0.000535218,0.0599195,20.9924,-3.06273,0.351041,0.0,0.0
474,118.25,50.4111,55.9704,148.078,97.1192,92.3534,0.000546633,0.0599837,20.9925,-3.05272,0.444866,0.0,0.0
476,118.75,50.436,56.0158,148.699,97.1021,93.2651,0.00055652,0.0600768,20.9928,-3.05272,0.356451,0.0,0.0
478,119.25,50.4929,55.51,150.315,97.1085,93.0786,0.000565104,0.0601522,20.993,-3.07274,0.374726,0.0,0.0
480,119.75,50.6375,55.8603,150.136,97.1049,93.7788,0.000575898,0.0601772,20.9932,-3.07274,0.308147,0.0,0.0
482,120.25,50.0368,55.0831,151.774,97.1105,93.4484,0.000588099,0.060165,20.9934,-3.08275,0.339858,0.0,0.0
484,120.75,49.9602,54.8947,145.959,97.0961,92.8455,0.000605026,0.0601552,20.9935,-3.07274,0.395772,0.0,0.0
486,121.25,50.1623,54.8694,149.974,97.1057,92.5678,0.000625077,0.0601472,20.9936,-3.07274,0.423127,0.0,0.0
488,121.75,50.2237,54.4371,150.174,97.0965,92.8796,0.000641319,0.0601407,20.9937,-3.07274,0.392566,0.0,0.0
490,122.25,50.2797,54.6845,148.958,97.0973,93.285,0.000654474,0.0601355,20.9937,-3.08275,0.354132,0.0,0.0
492,122.75,49.9852,54.7472,152.866,97.0921,93.0389,0.000669998,0.0601313,20.9938,-3.08275,0.377014,0.0,0.0
494,123.25,49.9688,54.1754,151.328,97.1057,92.713,0.000682573,0.0601206,20.9946,-3.08275,0.409275,0.0,0.0
496,123.75,49.5208,54.1397,147.229,97.0997,93.2716,0.000680589,0.0601055,20.9953,-3.09276,0.355618,0.0,0.0
498,124.25,49.3804,54.3328,151.402,97.0949,93.2051,0.000678981,0.0600933,20.9958,-3.08275,0.361487,0.0,0.0
500,124.75,48.8009,54.0335,150.165,97.0846,92.9886,0.000670636,0.0601655,20.9963,-3.08275,0.381104,0.0,0.0
502,125.25,49.4261,53.8478,151.996,97.0925,92.8508,0.000657538,0.0602241,20.9966,-3.07274,0.394944,0.0,0.0
504,125.75,48.7722,53.9991,150.288,97.0802,92.8828,0.000646928,0.0602715,20.9969,-3.06273,0.390771,0.0,0.0
506,126.25,49.5081,53.564,149.824,97.0925,93.5769,0.000634494,0.0602551,20.9972,-3.08275,0.326077,0.0,0.0
508,126.75,49.432,53.3819,147.772,97.0969,93.6588,0.000620966,0.0602418,20.9974,-3.09276,0.318742,0.0,0.0
510,127.25,49.0398,53.3888,148.306,97.0854,92.7247,0.000606809,0.0602174,20.9975,-3.08275,0.406305,0.0,0.0
512,127.75,49.1473,53.5122,149.476,97.081,94.0159,0.000592462,0.0601976,20.9976,-3.09276,0.283641,0.0,0.0
514,128.25,49.0385,53.3816,151.26,97.0782,92.8326,0.00058212,0.0601816,20.9977,-3.09276,0.395376,0.0,0.0
516,128.75,49.2102,53.1105,150.809,97.0786,93.4062,0.000574895,0.0601823,20.9978,-3.09276,0.340948,0.0,0.0
518,129.25,48.4744,52.7673,152.138,97.0882,92.6639,0.000578645,0.0601828,20.9979,-3.09276,0.412359,0.0,0.0
520,129.75,48.6629,52.479,144.516,97.0639,93.0373,0.000590324,0.0601833,20.9979,-3.09276,0.374594,0.0,0.0
522,130.25,48.9135,52.8632,146.915,97.0814,93.0458,0.000610672,0.0601837,20.998,-3.09276,0.375381,0.0,0.0
524,130.75,48.0497,52.7597,146.49,97.0746,93.2797,0.000636952,0.060184,20.998,-3.10276,0.352565,0.0,0.0
526,131.25,48.3043,52.5373,149.323,97.089,93.4293,0.00065824,0.0601842,20.998,-3.11277,0.339703,0.0,0.0
528,131.75,48.3319,52.4821,151.153,97.0762,92.6911,0.000675483,0.0601844,20.9981,-3.11277,0.40868,0.0,0.0
530,132.25,48.3463,52.5836,151.579,97.0786,93.1463,0.00068945,0.0601846,20.9983,-3.10276,0.365579,0.0,0.0
532,132.75,47.7589,52.1069,148.622,97.0714,93.2635,0.000700763,0.0601775,20.9987,-3.09276,0.353812,0.0,0.0
534,133.25,48.3969,52.2447,149.146,97.085,93.0786,0.000686806,0.0601653,20.9991,-3.08275,0.372587,0.0,0.0
536,133.75,48.118,51.6594,151.775,97.0766,93.1127,0.000675502,0.0601482,20.9993,-3.10276,0.368592,0.0,0.0
538,134.25,48.3647,52.1742,146.953,97.0937,93.3016,0.000654182,0.0601278,20.9996,-3.08275,0.352231,0.0,0.0
540,134.75,48.0109,51.7709,151.115,97.0726,92.747,0.000636913,0.0601113,20.9997,-3.08275,0.403019,0.0,0.0
542,135.25,47.6519,51.4159,146.203,97.0878,92.8082,0.000613328,0.0601254,20.9999,-3.09276,0.398564,0.0,0.0
544,135.75,47.3148,52.0154,152.237,97.0838,92.267,0.000585586,0.0601368,20.9998,-3.10276,0.449909,0.0,0.0
546,136.25,47.1907,51.1269,145.178,97.0913,93.4196,0.00055544,0.060146,20.9995,-3.09276,0.340842,0.0,0.0
548,136.75,46.7663,51.2322,146.24,97.0794,93.0503,0.000524114,0.0601808,20.9992,-3.09276,0.374775,0.0,0.0
550,137.25,47.9109,51.3746,150.164,97.1164,92.8974,0.000493626,0.0602091,20.999,-3.09276,0.392682,0.0,0.0
552,137.75,47.6058,51.1544,150.988,97.0726,93.8157,0.000464327,0.0601771,20.9989,-3.09276,0.301731,0.0,0.0
554,138.25,47.7257,51.3744,155.828,97.0933,92.8317,0.000440595,0.0601513,20.9987,-3.10276,0.396832,0.0,0.0
556,138.75,47.1883,51.0199,148.855,97.0794,93.6328,0.000421372,0.0600482,20.9986,-3.09276,0.319595,0.0,0.0
558,139.25,47.4065,51.5254,150.873,97.1077,93.0551,0.000405801,0.0599647,20.9985,-3.10276,0.376888,0.0,0.0
560,139.75,46.9449,51.3986,151.524,97.0826,93.0839,0.000399583,0.0599115,20.9985,-3.10276,0.371869,0.0,0.0
562,140.25,47.0051,50.7512,152.982,97.0945,93.6413,0.0004003,0.0598813,20.9984,-3.11277,0.320169,0.0,0.0
564,140.75,47.2771,51.1336,148.687,97.0846,92.6445,0.000409835,0.0598713,20.9984,-3.10276,0.41389,0.0,0.0
566,141.25,46.9803,50.6071,145.679,97.0925,93.0661,0.000425619,0.0598762,20.9983,-3.11277,0.37447,0.0,0.0
568,141.75,46.8304,50.7692,149.923,97.0862,93.184,0.000438403,0.0598801,20.9983,-3.11277,0.362689,0.0,0.0
570,142.25,46.6996,50.5281,149.525,97.1021,93.3077,0.000465781,0.0598696,20.9983,-3.11277,0.352417,0.0,0.0
572,142.75,46.4489,50.5571,150.202,97.1009,92.5358,0.000487957,0.0598611,20.9983,-3.10276,0.425751,0.0,0.0
574,143.25,46.5055,50.3581,148.479,97.1045,93.0762,0.000512001,0.0598254,20.9982,-3.11277,0.374595,0.0,0.0
576,143.75,46.6521,50.42,149.706,97.1021,92.6238,0.000531477,0.0597705,20.9982,-3.10276,0.417458,0.0,0.0
578,144.25,46.7811,50.0699,151.799,97.1108,94.1209,0.000530227,0.0597333,20.9982,-3.09276,0.276491,0.0,0.0
580,144.75,46.5136,50.4164,150.804,97.0985,93.4707,0.000529214,0.0597096,20.9982,-3.09276,0.336661,0.0,0.0
582,145.25,46.7848,50.2187,150.854,97.1116,93.5161,0.000528394,0.0596904,20.9982,-3.09276,0.333564,0.0,0.0
584,145.75,46.3379,50.1569,153.86,97.1105,94.0212,0.000475489,0.0597023,20.9982,-3.09276,0.285828,0.0,0.0
586,146.25,46.7433,50.1861,151.678,97.1164,93.7658,0.000432635,0.0597119,20.9982,-3.10276,0.31042,0.0,0.0
588,146.75,45.8519,49.8185,151.115,97.1212,92.8236,0.000397924,0.0596786,20.9977,-3.09276,0.400141,0.0,0.0
590,147.25,46.2743,49.3606,147.299,97.1252,93.165,0.000353202,0.0596516,20.9973,-3.10276,0.368051,0.0,0.0
592,147.75,46.2917,49.7962,152.133,97.1252,92.9927,0.000302031,0.0596708,20.9972,-3.10276,0.384416,0.0,0.0
594,148.25,46.1821,49.6987,147.631,97.1304,92.9862,0.000263137,0.0596864,20.9973,-3.10276,0.385505,0.0,0.0
596,148.75,46.6031,49.5542,151.445,97.1276,93.5781,0.000233931,0.059699,20.9974,-3.10276,0.329153,0.0,0.0
598,149.25,46.2606,49.7252,153.435,97.1443,93.8234,0.000218576,0.0597236,20.9975,-3.11277,0.307532,0.0,0.0
600,149.75,46.5268,49.249,152.177,97.1343,93.9685,0.000213612,0.0597566,20.9976,-3.11277,0.29296,0.0,0.0
602,150.25,46.3823,49.6043,149.404,97.1539,93.377,0.00022237,0.0597832,20.9976,-3.10276,0.350562,0.0,0.0
604,150.75,45.837,49.4445,149.454,97.1471,92.8686,0.000240966,0.0597501,20.9977,-3.11277,0.398212,0.0,0.0
606,151.25,45.8192,49.4976,153.467,97.1503,92.387,0.000266898,0.0597232,20.9977,-3.13279,0.444472,0.0,0.0
608,151.75,45.7935,49.2903,149.65,97.1507,93.9089,0.000297686,0.0597151,20.9977,-3.11277,0.300054,0.0,0.0
610,152.25,45.9856,49.3001,145.36,97.1531,93.1399,0.000327742,0.0597086,20.9978,-3.12278,0.372973,0.0,0.0
612,152.75,45.4533,49.2643,148.779,97.1638,93.0077,0.000369034,0.0597033,20.9978,-3.11277,0.386506,0.0,0.0
614,153.25,46.4291,49.5564,150.24,97.1714,93.7232,0.000390138,0.059699,20.9974,-3.10276,0.319437,0.0,0.0
616,153.75,45.7617,49.3783,145.661,97.175,93.7958,0.000392739,0.0596955,20.9972,-3.11277,0.31292,0.0,0.0
618,154.25,45.742,49.7118,153.73,97.1849,92.6112,0.000397186,0.0596927,20.9969,-3.10276,0.426196,0.0,0.0
620,154.75,45.6841,48.6918,148.251,97.1762,93.3709,0.000396952,0.0596494,20.9966,-3.10276,0.353167,0.0,0.0
622,155.25,45.5891,48.9621,148.764,97.1905,93.1707,0.000393309,0.0596143,20.9964,-3.12278,0.373455,0.0,0.0
624,155.75,45.7361,48.7628,150.151,97.1961,93.7163,0.000392916,0.0595858,20.9962,-3.11277,0.322333,0.0,0.0
626,156.25,45.787,48.6702,153.891,97.212,92.458,0.0003949,0.0596506,20.9961,-3.11277,0.443301,0.0,0.0
628,156.75,45.4319,48.9516,152.005,97.2068,93.0632,,0.059668,,-3.11277,0.38514,0.0,0.0
630,157.25,45.5249,48.7102,149.66,97.2132,93.5278,,0.059705,,-3.11277,0.341692,0.0,0.0
632,157.75,45.2755,48.5812,151.815,97.2275,93.3766,,0.0597415,,-3.11277,0.357302,0.0,0.0
634,158.25,45.0023,48.103,149.521,97.2144,92.9359,,0.0597854,,-3.11277,0.397931,0.0,0.0
636,158.75,45.0421,48.5287,149.938,97.2315,93.2327,,0.059834,,-3.12278,0.371301,0.0,0.0
638,159.25,45.3404,48.4862,151.264,97.2311,93.2822,,0.0598734,,-3.11277,0.366576,0.0,0.0
640,159.75,45.0767,48.3651,152.878,97.2395,93.0831,,,,-3.11277,0.386222,0.0,0.0
642,160.25,44.9,48.2422,152.414,97.2458,92.9976,,,,-3.11277,0.394931,0.0,0.0
644,160.75,44.7595,48.377,147.039,97.2582,93.2343,,,,-3.10276,0.373572,0.0,0.0
646,161.25,44.7729,48.2661,151.466,97.2578,94.0402,,,,-3.11277,0.29744,0.0,0.0
648,161.75,44.8611,48.6557,150.861,97.2741,93.2282,,,,-3.11277,0.375598,0.0,0.0
650,162.25,44.8636,48.4645,149.946,97.2677,93.0182,,,,-3.09276,0.394956,0.0,0.0
652,162.75,44.9456,48.1618,146.428,97.2896,93.3576,,,,-3.09276,0.364754,0.0,0.0
654,163.25,45.126,47.8448,155.112,97.2944,92.9826,,,,-3.11277,0.400773,0.0,0.0
656,163.75,44.8301,47.6516,147.062,97.2952,94.1238,,,,-3.11277,0.292994,0.0,0.0
658,164.25,44.3769,48.1465,156.31,97.2948,93.4848,,,,-3.13279,0.353177,0.0,0.0
660,164.75,44.6113,47.6611,150.855,97.3235,92.942,,,,-3.1428,0.407269,0.0,0.0
662,165.25,44.784,47.5375,150.668,97.3179,93.2428,,,,-3.13279,0.378194,0.0,0.0
664,165.75,44.9276,47.8139,149.854,97.3219,93.2971,,,,-3.13279,0.373407,0.0,0.0
666,166.25,44.4258,47.584,152.787,97.3287,93.1147,,,,-3.13279,0.391327,0.0,0.0
668,166.75,44.7843,47.3617,153.422,97.3502,93.1155,,,,-3.13279,0.393202,0.0,0.0
670,167.25,45.0676,47.5409,148.354,97.3394,94.2515,,,,-3.13279,0.285023,0.0,0.0