File: 01_Data/PE_Foam_Pipe_Insulation/Cone/PE_Foam_Pipe_Insulation_Cone_HF25Scan_220316_R3.csv
Names,Time,Stack TC,Smoke TC,Exh Press,Smoke Comp,Smoke Meas,CO Meter,CO2 Meter,O2 Meter,Sample Mass,Ext Coeff,Start Test,Flame Verif
Chan Gain,,500,500,1,1,1,1,1,1,1,1,1.0,1.0
Offset,,0,0,0.136382,0,0,0,0,0,0,0,0.0,0.0
Gain,,1,1,25.011,13.0548,13.4146,1,1,1,1.00087,1.01298,1.0,1.0
Units,sec,C,C,Pa,%,%,%,%,%,g,/m,,
Baseline,,19.7104,20.0484,157.777,98.4488,97.3684,0.000179045,0.0419453,21.0357,-832.983,0.098103,,
3,0.5,18.5195,18.831,157.755,99.0913,97.8929,0.000527942,0.0477039,21.0293,-336.772,0.10812,0.0,0.0
6,1.25,18.1144,19.3417,159.015,99.1056,98.2163,0.000493953,0.0475569,21.0292,-336.722,0.0800986,0.0,0.0
9,2,18.4928,18.5991,156.736,99.106,98.073,0.000457364,0.0472921,21.0295,-336.712,0.0931061,0.0,0.0
12,2.75,18.6855,18.8298,159.658,99.1096,97.5113,0.000380159,0.0470181,21.0301,-336.782,0.144463,0.0,0.0
15,3.5,18.6167,19.2683,155.065,99.1164,97.167,0.000302333,0.0468539,21.0308,-336.752,0.1765,0.0,0.0
18,4.25,18.3007,18.9099,159.135,99.1152,98.3628,0.000216454,0.0466066,21.03125,-336.732,0.0677059,0.0,0.0
21,5,18.6336,19.1029,154.069,99.1299,97.3504,0.000156251,0.0464263,21.0316,-336.732,0.160959,0.0,0.0
24,5.75,18.2184,19.1602,156.561,99.1275,97.3685,0.000113388,0.046218,21.0318,-336.742,0.1591,0.0,0.0
27,6.5,18.8019,19.133,158.217,99.1092,97.5867,0.000106183,0.046093,21.032,-336.762,0.137566,0.0,0.0
30,7.25,18.6091,19.1833,155.265,99.126,97.8143,0.000123209,0.0460702,21.0322,-336.752,0.118365,0.0,0.0
33,8,18.4628,19.0734,159.646,99.1327,97.4651,0.000146333,0.0461506,21.0322,-336.742,0.150752,0.0,0.0
36,8.75,19.1127,19.1598,157.624,99.1196,97.6386,0.000200734,0.0462226,21.0321,-336.752,0.133763,0.0,0.0
39,9.5,18.9019,19.3909,158.58,99.126,97.6157,0.000266778,0.0462809,21.0316,-336.772,0.136421,0.0,0.0
42,10.25,18.5257,19.2639,154.734,99.1224,97.0123,0.000339861,0.0462657,21.0312,-336.752,0.191198,0.0,0.0
45,11,18.9818,18.5519,158.19,99.1287,97.036,0.000424087,0.0462367,21.0305,-336.792,0.189595,0.0,0.0
48,11.75,19.0769,19.4398,154.854,99.1096,97.1392,0.000496343,0.0461758,21.0298,-336.732,0.178439,0.0,0.0
51,12.5,18.7762,18.7899,153.741,99.1168,97.1638,0.000553645,0.0460506,21.0293,-336.812,0.176834,0.0,0.0
54,13.25,19.0601,19.2271,157.442,99.114,97.0729,0.000593006,0.0458682,21.0289,-336.752,0.184901,0.0,0.0
57,14,19.3012,18.6602,161.689,99.1248,97.3079,0.000618132,0.0456381,21.0286,-336.963,0.164382,0.0,0.0
60,14.75,18.8068,19.3019,156.862,99.1252,96.9906,0.000632106,0.0453552,21.0291,-337.453,0.193436,0.0,0.0
63,15.5,18.9246,18.999,159.28,99.1208,97.429,0.000638676,0.0451276,21.0294,-338.494,0.152965,0.0,0.0
66,16.25,18.9854,19.5959,153.917,99.1299,97.2645,0.000641924,0.0449254,21.0298,-339.044,0.168809,0.0,0.0
69,17,18.3492,18.6226,161.386,99.1335,97.429,0.000644291,0.0447971,21.0306,-339.335,0.154108,0.0,0.0
72,17.75,18.7484,19.0719,154.626,99.1144,97.4552,0.000646016,0.044647,21.0311,-339.315,0.150005,0.0,0.0
75,18.5,19.1205,19.9221,156.89,99.1152,96.7871,0.000659335,0.0444405,21.0315,-339.485,0.211202,0.0,0.0
78,19.25,19.0318,19.3021,157.395,99.11,96.9656,0.000674187,0.0442516,21.0318,-339.575,0.194367,0.0,0.0
81,20,19.0857,19.479,160.142,99.1184,97.0205,0.000713975,0.0441004,21.032,-339.685,0.190091,0.0,0.0
84,20.75,18.819,19.2047,161.807,99.1184,97.0397,0.000758504,0.0439845,21.0321,-339.655,0.188329,0.0,0.0
87,21.5,19.225,19.8232,155.118,99.1228,96.9181,0.000796399,0.0439,21.0322,-339.605,0.199862,0.0,0.0
90,22.25,18.6967,19.3527,155.992,99.1084,97.3144,0.000811971,0.0438249,21.0319,-339.545,0.162318,0.0,0.0
93,23,18.8843,19.2563,157.125,99.1044,97.1945,0.000817287,0.0437644,21.0314,-339.395,0.17292,0.0,0.0
96,23.75,19.3065,19.3854,158.901,99.1032,97.0266,0.000816684,0.0437203,21.0311,-339.054,0.188172,0.0,0.0
99,24.5,18.107,19.5181,153.945,99.1092,96.8788,0.000812986,0.043742,21.0309,-338.704,0.202252,0.0,0.0
102,25.25,18.7132,18.6631,155.846,99.0977,97.1376,0.00080394,0.0438092,21.0307,-338.444,0.177518,0.0,0.0
105,26,18.904,19.5357,157.262,99.108,97.1707,0.000786486,0.0439066,21.0298,-338.244,0.175413,0.0,0.0
108,26.75,18.6957,19.4702,156.238,99.1005,96.8264,0.00078197,0.0439968,21.0291,-338.043,0.206274,0.0,0.0
111,27.5,18.9953,19.2398,157.413,99.1088,97.0753,0.000792717,0.0440626,21.0288,-337.773,0.184211,0.0,0.0
114,28.25,18.8728,19.6791,155.787,99.0881,97.3128,0.000845713,0.044149,21.0286,-337.623,0.160647,0.0,0.0
117,29,18.5633,19.4166,157.215,99.0949,97.1916,0.000878318,0.044212,21.0285,-337.493,0.172326,0.0,0.0
120,29.75,18.631,19.3097,154.852,99.0993,96.677,0.000924965,0.0442012,21.0284,-337.383,0.21989,0.0,0.0
123,30.5,18.7359,19.237,160.509,99.0953,96.6885,0.000940015,0.0441799,21.0287,-337.263,0.218479,0.0,0.0
126,31.25,19.209,19.5612,156.023,99.0877,97.5629,0.000913096,0.0441587,21.0292,-337.183,0.1378,0.0,0.0
129,32,19.4081,19.0012,159.678,99.0885,96.7761,0.000882674,0.0440856,21.0293,-337.073,0.209824,0.0,0.0
132,32.75,18.7436,19.3966,156.224,99.0901,96.9022,0.000842034,0.0441265,21.029,-337.023,0.198398,0.0,0.0
135,33.5,19.4575,19.5517,157.874,99.0897,96.833,0.000803963,0.0442178,21.0287,-336.963,0.204708,0.0,0.0
138,34.25,19.0718,19.4605,158.761,99.0789,97.6878,0.00077388,0.0443208,21.0286,-336.923,0.125649,0.0,0.0
141,35,19.3679,19.6351,156.53,99.0789,97.1515,0.000754121,0.0443766,21.0291,-336.892,0.174564,0.0,0.0
144,35.75,18.6662,19.3694,155.569,99.0781,97.1924,0.000746598,0.0444315,21.0292,-336.872,0.170749,0.0,0.0
147,36.5,19.2141,19.7728,159.17,99.0742,96.3704,0.000745559,0.0444957,21.0289,-336.862,0.245866,0.0,0.0
150,37.25,19.2883,19.5616,155.952,99.0698,96.8952,0.000752402,0.044583,21.0287,-336.862,0.197212,0.0,0.0
153,38,18.6947,19.3249,159.278,99.067,96.9259,0.000755671,0.044756,21.0281,-336.852,0.194148,0.0,0.0
156,38.75,18.9311,19.6872,157.199,99.0885,96.8318,0.000751704,0.0450398,21.0275,-336.832,0.204713,0.0,0.0
159,39.5,19.0757,19.1745,159.245,99.0746,97.504,0.000737954,0.0460735,21.0245,-336.842,0.141991,0.0,1.0
162,40.25,19.1631,19.6899,152.83,99.0686,97.461,0.000722852,0.0479481,21.0224,-336.832,0.145374,0.0,1.0
165,41,18.9349,19.5818,158.661,99.0499,97.1343,0.000703159,0.0497925,21.0177,-336.872,0.173529,0.0,1.0
168,41.75,18.4333,19.4265,158.54,99.0722,97.558,0.000688803,0.0528979,21.0116,-336.882,0.136854,0.0,1.0
171,42.5,19.3888,19.653,154.508,99.0527,96.8522,0.000692811,0.0570866,21.0044,-336.842,0.199619,0.0,1.0
174,43.25,19.5956,19.9675,151.053,99.0634,96.6148,0.000710794,0.0621481,20.9964,-336.892,0.222395,0.0,1.0
177,44,18.1954,19.0699,152.813,99.0511,95.9242,0.000739108,0.067018,20.985,-336.902,0.285033,0.0,1.0
180,44.75,18.6159,18.7904,151.922,99.0554,95.5533,0.000783854,0.0725863,20.974,-336.902,0.319851,0.0,0.0
183,45.5,18.6258,19.482,150.478,99.0511,96.266,0.000830967,0.07882,20.9639,-336.912,0.253424,0.0,0.0
186,46.25,19.0443,19.709,154.701,99.0602,96.5186,0.00087149,0.0846599,20.955,-336.923,0.230962,0.0,0.0
189,47,19.5489,19.3607,151.074,99.0383,95.7706,0.000908027,0.0899497,20.9485,-336.943,0.298121,0.0,0.0
192,47.75,18.746,19.5444,147.919,99.0391,94.5204,0.000946623,0.0946269,20.9436,-336.933,0.414957,0.0,0.0
195,48.5,19.2119,19.3288,151.643,99.0459,94.9687,0.00097476,0.0988068,20.9395,-336.963,0.373523,0.0,0.0
198,49.25,19.8212,20.0002,156.017,99.0367,95.8693,0.000984931,0.101978,20.9371,-336.973,0.288829,0.0,0.0
201,50,19.9256,19.868,149.184,99.024,96.0245,0.000993554,0.104502,20.9352,-336.963,0.273316,0.0,0.0
204,50.75,20.665,20.3495,151.087,99.0387,95.9205,0.00100799,0.106342,20.9335,-336.983,0.284267,0.0,0.0
207,51.5,20.0294,20.6998,156.3,99.0359,95.9766,0.00103156,0.107739,20.9322,-336.983,0.278822,0.0,0.0
210,52.25,20.3637,20.4971,152.022,99.0315,96.1338,0.00106944,0.108817,20.9309,-336.983,0.263886,0.0,0.0
213,53,21.1874,20.8008,151.693,99.0279,95.6421,0.00111156,0.109666,20.9294,-336.993,0.309127,0.0,0.0
216,53.75,20.7695,20.8695,156.06,99.0335,96.851,0.00114846,0.110451,20.928,-337.023,0.198016,0.0,0.0
219,54.5,20.3441,21.3462,151.149,99.026,95.5684,0.00116206,0.111524,20.9263,-337.023,0.315796,0.0,0.0
222,55.25,20.0905,21.1242,154.83,99.0323,95.6028,0.00116311,0.113003,20.9238,-337.063,0.313172,0.0,0.0
225,56,20.5792,20.9505,153.573,99.0136,95.453,0.00115844,0.114957,20.9183,-337.063,0.325428,0.0,0.0
228,56.75,20.5143,21.2312,148.269,99.012,93.7901,0.00120162,0.118702,20.9099,-337.103,0.481451,0.0,0.0
231,57.5,21.2115,21.7873,149.703,99.02,93.8281,0.00127832,0.12242,20.9018,-337.133,0.47856,0.0,0.0
234,58.25,21.142,21.7267,148.178,99.016,94.1474,0.00141157,0.13068,20.8828,-337.183,0.448014,0.0,0.0
237,59,21.6096,21.3733,148.768,99.0017,91.5876,0.00166987,0.139107,20.8635,-337.203,0.691675,0.0,0.0
240,59.75,21.7089,21.6725,148.049,99.0072,90.9604,0.00194481,0.149361,20.8401,-337.223,0.753231,0.0,0.0
243,60.5,21.5338,22.1956,142.759,99.0033,88.0784,0.00229341,0.16566,20.8086,-337.283,1.03897,0.0,0.0
246,61.25,22.2807,22.2308,148.2,99.0136,87.7533,0.00276696,0.183483,20.7794,-337.283,1.07275,0.0,0.0
249,62,22.9266,22.4196,143.051,98.9953,86.0753,0.00330042,0.199008,20.7475,-337.383,1.24267,0.0,0.0
252,62.75,23.1189,23.6769,141.088,98.9897,84.0022,0.00385125,0.220241,20.706,-337.373,1.4588,0.0,0.0
255,63.5,23.2203,23.6256,139.001,99.0052,82.1444,0.00447527,0.239272,20.6653,-337.473,1.65892,0.0,0.0
258,64.25,23.6095,23.8468,135.32,98.9885,79.9583,0.0050507,0.25922,20.6234,-337.533,1.8971,0.0,0.0
261,65,24.4963,24.6247,136.177,99.0021,77.9585,0.00557468,0.284019,20.5799,-337.573,2.12338,0.0,0.0
264,65.75,24.445,24.8921,135.731,98.9849,79.0581,0.0060475,0.306534,20.5419,-337.643,1.99738,0.0,0.0
267,66.5,25.2387,25.9148,134.546,98.9965,78.8427,0.00647767,0.326008,20.5137,-337.743,2.02266,0.0,0.0
270,67.25,25.9389,26.3477,138.425,98.9885,82.8395,0.00679126,0.342202,20.493,-337.763,1.58254,0.0,0.0
273,68,27.0732,26.8336,134.417,98.9881,81.943,0.00706488,0.3551,20.4772,-337.783,1.6792,0.0,0.0
276,68.75,27.1996,27.5703,135.214,98.9758,81.4579,0.00730726,0.365782,20.4645,-337.863,1.73085,0.0,0.0
279,69.5,27.6615,27.6224,135.382,98.9913,80.6149,0.00752451,0.374961,20.449,-337.923,1.82467,0.0,0.0
282,70.25,28.25,28.402,137.723,98.9913,79.5714,0.00776816,0.383627,20.4377,-337.943,1.94044,0.0,0.0
285,71,28.5309,28.9853,137.3,98.9702,81.1123,0.00798212,0.390786,20.4268,-337.953,1.76812,0.0,0.0
288,71.75,29.4108,29.692,135.984,98.9758,77.1434,0.00828147,0.399373,20.4159,-338.053,2.21441,0.0,0.0
291,72.5,29.9623,30.4432,140.19,98.9582,78.6982,0.00856082,0.406841,20.4048,-338.084,2.03552,0.0,0.0
294,73.25,30.4503,31.147,130.363,98.9698,78.1501,0.00887059,0.414352,20.3928,-338.134,2.09867,0.0,0.0
297,74,31.0315,31.6875,140.046,98.9722,78.4485,0.00918471,0.419828,20.3744,-338.184,2.06502,0.0,0.0
300,74.75,31.3263,32.1995,129.948,98.9754,78.0408,0.00941371,0.429982,20.3576,-338.224,2.11161,0.0,0.0
303,75.5,31.9955,33.1723,131.261,98.9622,77.5217,0.00966727,0.440525,20.3379,-338.294,2.16973,0.0,0.0
306,76.25,32.6349,33.4636,142.75,98.9774,78.6982,0.00990788,0.451146,20.3204,-338.324,2.03724,0.0,0.0
309,77,34.0678,34.1996,133.971,98.9686,77.0955,0.010107,0.46162,20.3013,-338.404,2.21929,0.0,0.0
312,77.75,34.2716,35.2022,133.298,98.975,78.5476,0.0103355,0.472107,20.283,-338.474,2.05405,0.0,0.0
315,78.5,34.5847,35.4972,128.955,98.9582,77.3788,0.0105517,0.480969,20.2667,-338.544,2.18576,0.0,0.0
318,79.25,34.9233,35.2567,127.987,98.9634,76.653,0.0107485,0.491383,20.2497,-338.574,2.26997,0.0,0.0
321,80,35.2809,37.228,124.097,98.9678,77.6924,0.0109229,0.5009,20.2349,-338.674,2.15069,0.0,0.0
324,80.75,35.9802,37.5067,134.484,98.9463,78.0854,0.0110755,0.508658,20.2215,-338.694,2.10392,0.0,0.0
327,81.5,36.968,38.4277,134.193,98.9666,76.8454,0.0111976,0.516576,20.2089,-338.794,2.24798,0.0,0.0
330,82.25,38.0939,38.8678,130.514,98.9702,77.3808,0.0112847,0.523743,20.1976,-338.894,2.1866,0.0,0.0
333,83,38.2487,39.4097,126.994,98.9566,78.9574,0.0113416,0.530369,20.1884,-338.944,2.00617,0.0,0.0
336,83.75,38.6443,39.6157,130.899,98.9622,78.8538,0.0113716,0.536578,20.1786,-338.954,2.01834,0.0,0.0
339,84.5,39.7901,40.9292,131.421,98.9554,76.7954,0.0113971,0.541883,20.1714,-339.054,2.25276,0.0,0.0
342,85.25,40.2888,41.7811,130.351,98.9491,76.1236,0.0114361,0.546081,20.1661,-339.104,2.33026,0.0,0.0
345,86,40.7343,42.4375,134.148,98.9606,76.976,0.0114812,0.549169,20.1623,-339.204,2.23236,0.0,0.0
348,86.75,41.2694,42.9361,126.662,98.9546,76.8634,0.0115279,0.551438,20.1596,-339.245,2.24483,0.0,0.0
351,87.5,41.9793,43.2866,135.913,98.9598,76.4376,0.0115517,0.552847,20.1587,-339.295,2.29465,0.0,0.0
354,88.25,42.0485,44.5975,131.999,98.9578,77.9482,0.0115647,0.55344,20.16,-339.345,2.12058,0.0,0.0
357,89,42.8463,44.9171,128.892,98.963,78.1005,0.0115067,0.553133,20.161,-339.435,2.1037,0.0,0.0
360,89.75,43.3722,45.441,129.154,98.9578,76.8228,0.0114103,0.552763,20.1617,-339.495,2.2498,0.0,0.0
363,90.5,43.8241,46.3517,131.567,98.9622,80.2817,0.0112965,0.552244,20.1631,-339.525,1.85887,0.0,0.0
366,91.25,44.1649,46.07,123.558,98.9586,80.6399,0.0111704,0.551238,20.1652,-339.595,1.81899,0.0,0.0
369,92,44.8322,46.5119,126.084,98.959,76.9031,0.0110534,0.550238,20.17,-339.685,2.24063,0.0,0.0
372,92.75,44.8125,47.4015,135.239,98.9606,78.1521,0.01096,0.547567,20.177,-339.715,2.09762,0.0,0.0
375,93.5,45.9116,47.5855,129.054,98.9594,80.2142,0.0108977,0.54509,20.1822,-339.755,1.8661,0.0,0.0
378,94.25,45.7817,48.0256,133.964,98.9527,76.9604,0.0108522,0.542378,20.1866,-339.825,2.23344,0.0,0.0
381,95,46.8549,48.8752,127.259,98.9586,78.9881,0.0108589,0.539984,20.1908,-339.885,2.00289,0.0,0.0
384,95.75,47.0683,48.8902,127.246,98.9523,80.8397,0.0108638,0.537855,20.1944,-339.935,1.79643,0.0,0.0
387,96.5,47.6138,49.7824,131.077,98.9686,80.0721,0.0109035,0.536139,20.197,-339.995,1.88267,0.0,0.0
390,97.25,47.7893,49.9561,133.623,98.9622,79.0421,0.0109554,0.534652,20.1989,-340.055,1.99714,0.0,0.0
393,98,47.9898,50.7918,136.538,98.9678,80.407,0.011013,0.533467,20.2003,-340.135,1.84551,0.0,0.0
396,98.75,48.5359,50.839,129.866,98.9634,78.9664,0.0110722,0.534061,20.1975,-340.205,2.00577,0.0,0.0
399,99.5,48.6843,51.3668,130.104,98.9606,79.0143,0.0111229,0.534494,20.1941,-340.275,2.00013,0.0,0.0
402,100.25,48.7327,51.6261,130.353,98.965,77.9953,0.0111632,0.537059,20.1893,-340.325,2.11585,0.0,0.0
405,101,49.4897,52.3907,128.569,98.9574,76.4679,0.0111925,0.53939,20.1858,-340.426,2.29091,0.0,0.0
408,101.75,50.0023,52.56,133.077,98.9666,77.2912,0.0112114,0.541358,20.1829,-340.456,2.19658,0.0,0.0
411,102.5,50.3256,53.0866,130.541,98.9574,80.1765,0.011224,0.542825,20.1805,-340.516,1.87009,0.0,0.0
414,103.25,50.6534,53.4461,129.937,98.963,77.3743,0.0112104,0.544762,20.1778,-340.586,2.18671,0.0,0.0
417,104,51.1065,53.9369,125.484,98.9634,77.1946,0.0111706,0.546993,20.1742,-340.666,2.20741,0.0,0.0
420,104.75,51.6453,54.3628,124.143,98.9534,76.2055,0.0111073,0.550018,20.1716,-340.726,2.3211,0.0,0.0
423,105.5,51.8602,54.7528,132.719,98.9566,79.8412,0.0109887,0.553228,20.1698,-340.756,1.90726,0.0,0.0
426,106.25,52.4148,55.4537,123.943,98.9638,78.4399,0.0108402,0.555996,20.1698,-340.826,2.06524,0.0,0.0
429,107,52.489,55.9818,135.365,98.9666,79.2947,0.0106708,0.556,20.1721,-340.876,1.96918,0.0,0.0
432,107.75,53.1496,56.0651,126.259,98.9714,77.8258,0.0104882,0.553621,20.1808,-340.916,2.13576,0.0,0.0
435,108.5,53.3448,56.6268,127.559,98.9718,79.6214,0.0102703,0.549667,20.1901,-340.996,1.93311,0.0,0.0
438,109.25,53.9591,56.875,134.337,98.9658,78.6749,0.0101115,0.544725,20.1983,-341.006,2.03884,0.0,0.0
441,110,53.9686,57.1654,129.086,98.957,79.3463,0.00993275,0.537342,20.2104,-341.076,1.96255,0.0,0.0
444,110.75,54.0565,57.5715,133.406,98.9586,80.3714,0.00976212,0.529369,20.2237,-341.146,1.84863,0.0,0.0
447,111.5,54.4721,57.945,132.463,98.9546,77.3317,0.00962053,0.522453,20.2365,-341.206,2.19085,0.0,0.0
450,112.25,54.7533,58.3669,133.317,98.9534,74.3461,0.00941418,0.513598,20.2481,-341.256,2.5406,0.0,0.0
453,113,54.9797,58.3489,131.226,98.9578,79.0081,0.00907309,0.507144,20.2653,-341.306,2.00057,0.0,0.0
456,113.75,54.6379,58.1074,130.922,98.9658,80.208,0.00867449,0.49502,20.2913,-341.326,1.86735,0.0,0.0
459,114.5,55.1446,58.6078,138.602,98.9754,80.4389,0.00823445,0.481902,20.3354,-341.336,1.84266,0.0,0.0
462,115.25,54.8177,58.933,142.587,98.969,79.0761,0.00764419,0.46502,20.3868,-341.366,1.99393,0.0,0.0
465,116,54.7911,58.8522,141.32,98.9578,82.9816,0.0072139,0.439928,20.4325,-341.386,1.56456,0.0,0.0
468,116.75,55.4472,58.7657,145.838,98.9646,85.123,0.00656702,0.412718,20.4659,-341.436,1.33877,0.0,0.0
471,117.5,54.711,58.8752,146.472,98.957,87.7414,0.00609545,0.380546,20.5134,-341.406,1.06888,0.0,0.0
474,118.25,54.2676,58.122,146.717,98.9554,89.4125,0.00543103,0.353455,20.5608,-341.406,0.901092,0.0,0.0
477,119,54.1318,58.2066,147.544,98.9614,91.8132,0.0048134,0.323163,20.6082,-341.396,0.666205,0.0,0.0
480,119.75,53.8519,57.5918,148.955,98.9586,94.6498,0.0044579,0.296586,20.6413,-341.406,0.395581,0.0,0.0
483,120.5,53.5876,57.4377,155.861,98.9742,94.021,0.00389423,0.271182,20.6962,-341.376,0.456206,0.0,0.0
486,121.25,53.2762,57.3006,153.719,98.9666,95.5795,0.00338498,0.242354,20.7487,-341.366,0.309441,0.0,0.0
489,122,52.5552,56.6662,147.772,98.9606,94.7026,0.0029718,0.213804,20.7961,-341.386,0.390803,0.0,0.0
492,122.75,51.6639,56.413,154.099,98.9558,96.216,0.00255994,0.195438,20.8353,-341.396,0.24949,0.0,0.0
495,123.5,51.1059,55.1225,154.546,98.9678,96.0826,0.00225969,0.174218,20.8658,-341.406,0.262896,0.0,0.0
498,124.25,51.2022,55.5591,155.325,98.957,97.3054,0.00196142,0.153635,20.8944,-341.406,0.149558,0.0,0.0
501,125,50.2453,54.7005,156.888,98.9507,96.5481,0.00172464,0.135318,20.9168,-341.396,0.218416,0.0,0.0
504,125.75,50.0982,54.4365,154.648,98.9602,97.3136,0.00152916,0.121966,20.9359,-341.396,0.149095,0.0,0.0
507,126.5,49.6935,53.7595,153.182,98.9602,97.2285,0.00136165,0.108452,20.9536,-341.396,0.156874,0.0,0.0
510,127.25,47.8741,52.3584,156.44,98.9558,96.9685,0.00118962,0.097743,20.9687,-341.396,0.18027,0.0,0.0
513,128,47.7517,52.0989,157.931,98.9507,96.8923,0.00100574,0.0884679,20.9815,-341.376,0.186786,0.0,0.0
516,128.75,47.2776,51.455,153.545,98.9407,97.5195,0.000851403,0.0804691,20.9913,-341.376,0.12856,0.0,0.0
519,129.5,47.0917,50.8466,156.018,98.9658,97.4643,0.000704209,0.0740425,20.9996,-341.366,0.13585,0.0,0.0
522,130.25,46.4239,50.7172,153.063,98.9566,97.2895,0.000593104,0.0688688,21.0059,-341.366,0.150979,0.0,0.0
525,131,46.1545,50.211,156.983,98.9471,97.1572,0.000505609,0.0646956,21.0109,-341.356,0.162206,0.0,0.0
528,131.75,45.1982,49.6505,155.363,98.9423,97.2477,0.000455429,0.0611139,21.0145,-341.356,0.153505,0.0,0.0
531,132.5,44.809,49.4059,151.872,98.9515,97.2108,0.000422015,0.0583394,21.0172,-341.366,0.157696,0.0,0.0
534,133.25,44.2926,48.9177,155.12,98.961,96.9488,0.000403075,0.0560374,21.02,-341.366,0.182537,0.0,0.0
537,134,44.0198,48.2863,153.709,98.9415,97.5339,0.000382399,0.0542101,21.022,-341.366,0.127326,0.0,0.0
540,134.75,44.0098,47.7896,156.152,98.9287,96.4604,0.000361307,0.052623,21.0237,-341.356,0.224515,0.0,0.0
543,135.5,44.0464,47.6252,158.07,98.9503,96.9664,0.000344633,0.0512939,21.0254,-341.346,0.179957,0.0,0.0
546,136.25,43.1049,47.3425,155.767,98.9347,96.9316,0.000334643,0.0501228,21.0266,-341.356,0.181751,0.0,0.0
549,137,42.5142,46.7883,150.557,98.9367,97.0221,0.000343013,0.0491828,21.0277,-341.366,0.17364,0.0,0.0
552,137.75,42.4738,46.3216,156.981,98.9303,97.1302,0.000355787,0.0482861,21.0289,-341.356,0.163174,0.0,0.0
555,138.5,41.7162,45.6212,155.252,98.9415,97.49,0.000383996,0.0476055,21.0298,-341.366,0.131319,0.0,0.0
558,139.25,41.5326,45.6234,157.713,98.9331,96.8817,0.000425045,0.0470695,21.0304,-341.386,0.186188,0.0,0.0
561,140,41.1738,45.3357,153.689,98.9287,97.1883,0.000463703,0.0466302,21.0309,-341.376,0.157716,0.0,0.0
564,140.75,40.4507,45.0565,152.889,98.9192,97.0717,0.000508764,0.0461348,21.0312,-341.386,0.167531,0.0,0.0
567,141.5,40.3321,44.36,156.154,98.9335,97.6599,0.000548809,0.0456565,21.0315,-341.396,0.11513,0.0,0.0
570,142.25,40.2889,44.0797,153.537,98.9455,97.0717,0.000584882,0.0452351,21.0317,-341.396,0.169892,0.0,0.0
573,143,39.5628,43.7463,156.619,98.9459,97.1634,0.000600417,0.0449208,21.0317,-341.396,0.161537,0.0,0.0
576,143.75,39.7119,43.827,153.069,98.9236,97.429,0.000607154,0.0446796,21.0316,-341.406,0.135269,0.0,0.0
579,144.5,38.9877,43.6293,156.343,98.9272,97.102,0.000574707,0.0444364,21.0317,-341.396,0.165473,0.0,0.0
582,145.25,39.067,43.1574,158.695,98.9256,97.1916,0.000520554,0.0442088,21.0322,-341.406,0.15713,0.0,0.0
585,146,38.9514,42.0054,154.766,98.9319,97.515,0.000456153,0.0440058,21.0326,-341.416,0.128183,0.0,0.0
588,146.75,37.752,41.765,152.369,98.9212,97.4127,0.000378316,0.0438437,21.0329,-341.396,0.136548,0.0,0.0
591,147.5,38.0983,41.7459,157.586,98.9248,97.1003,0.000309546,0.0437013,21.0331,-341.406,0.165408,0.0,0.0
594,148.25,37.7071,41.7875,159.771,98.9287,97.1953,0.000254287,0.0435302,21.0332,-341.406,0.157079,0.0,0.0
597,149,37.0216,41.0555,157.648,98.9327,97.3517,0.000214003,0.0433697,21.0333,-341.416,0.143151,0.0,0.0
600,149.75,36.7802,41.1523,156.126,98.9168,97.4041,0.000191851,0.0432406,21.0334,-341.416,0.136938,0.0,0.0
603,150.5,36.0921,40.1735,154.808,98.9307,97.402,0.000178777,0.0431272,21.0334,-341.396,0.138378,0.0,0.0
606,151.25,36.8803,40.0601,154.044,98.9379,97.1973,0.000165816,0.0430715,21.0335,-341.386,0.157715,0.0,0.0
609,152,35.866,39.9478,154.8,98.9447,97.2551,0.000146244,0.043007,21.0335,-341.366,0.153048,0.0,0.0
612,152.75,35.6758,39.2861,153.96,98.9383,97.1462,0.000114664,0.0428993,21.0335,-341.366,0.16243,0.0,0.0
615,153.5,35.1914,39.3802,154.544,98.9307,97.1187,6.15062e-05,0.042767,21.0336,-341.376,0.164259,0.0,0.0
618,154.25,35.0165,38.2213,155.777,98.9439,97.2907,1.6843e-06,0.0426476,21.0339,-341.366,0.149722,0.0,0.0
621,155,34.9603,38.2269,156.711,98.9403,97.486,-5.59861e-05,0.0425414,21.034,-341.396,0.131584,0.0,0.0
624,155.75,35.2751,38.5756,156.868,98.9176,97.2264,-0.000106598,0.0424785,21.0341,-341.376,0.153234,0.0,0.0
627,156.5,34.878,38.1577,158.104,98.9331,97.2935,-0.000136284,0.0424575,21.0342,-341.386,0.148495,0.0,0.0
630,157.25,34.762,38.1359,157.566,98.9463,97.1155,-0.000154851,0.0423846,21.0343,-341.376,0.165954,0.0,0.0
633,158,33.1141,37.0267,155.527,98.9431,97.3791,-0.000138343,0.0423314,21.0343,-341.386,0.141579,0.0,0.0
636,158.75,33.7602,37.097,157.671,98.9507,96.8543,-0.000100217,0.0422927,21.0344,-341.386,0.190278,0.0,0.0
639,159.5,33.6103,37.3217,154.851,98.9391,97.4164,-4.97064e-05,0.0422452,21.0344,-341.376,0.137822,0.0,0.0
642,160.25,33.4172,36.9262,157.814,98.9562,97.4147,4.26712e-06,0.0421837,21.0348,-341.366,0.13951,0.0,0.0
645,161,32.937,36.2196,153.343,98.9578,97.2379,3.27909e-05,0.0421274,21.0354,-341.376,0.155799,0.0,0.0
648,161.75,32.5733,36.4147,157.995,98.9507,96.9157,3.94813e-05,0.0420864,21.0357,-341.386,0.184646,0.0,0.0
651,162.5,32.9553,36.2882,156.653,98.9387,97.5027,2.81319e-05,0.0420494,21.036,-341.396,0.12991,0.0,0.0
654,163.25,32.5409,36.4366,154.572,98.9662,97.1085,1.98581e-05,0.0420103,21.0362,-341.416,0.168379,0.0,0.0
657,164,33.1226,35.7201,157.042,98.9554,97.7652,-5.94468e-07,0.0419242,21.0363,-341.406,0.10753,0.0,0.0
660,164.75,32.2291,35.7882,154.653,98.9491,97.0213,-2.16523e-05,0.0419018,21.0361,-341.416,0.174824,0.0,0.0
663,165.5,31.9109,35.3244,153.841,98.9574,97.0815,-3.94072e-05,0.0419027,21.0358,-341.396,0.170066,0.0,0.0
666,166.25,31.9424,34.9793,153.734,98.953,96.8919,-5.27424e-05,0.0418963,21.0352,-341.396,0.187038,0.0,0.0
669,167,31.7939,35.3498,155.597,98.9734,97.0983,-6.13819e-05,0.0418795,21.0347,-341.376,0.16996,0.0,0.0
672,167.75,31.3623,34.64,154.746,98.9726,97.0565,-5.56626e-05,0.0418531,21.0344,-341.396,0.17371,0.0,0.0
675,168.5,31.1451,34.2398,157.777,98.9618,97.1732,-1.63177e-05,0.0418096,21.0341,-341.396,0.16207,0.0,0.0
678,169.25,31.1777,34.1312,154.43,98.9626,97.1269,2.51765e-05,0.0417971,21.0339,-341.376,0.166373,0.0,0.0
681,170,31.0678,34.1458,154.24,98.9746,96.8768,9.83265e-05,0.0417207,21.0342,-341.376,0.190359,0.0,0.0
684,170.75,30.6819,33.4065,156.99,98.9817,97.5122,0.000167303,0.0416364,21.0346,-341.376,0.132916,0.0,0.0
687,171.5,30.3436,33.5181,158.448,98.9706,97.1503,0.000224259,0.0415557,21.0349,-341.396,0.164954,0.0,0.0
690,172.25,30.4845,33.87,155.414,98.9682,97.4159,0.000255158,0.0415641,21.0352,-341.396,0.14047,0.0,0.0
693,173,30.2486,33.2526,151.346,98.9742,97.3742,0.000241089,0.0415919,21.0353,-341.416,0.144817,0.0,0.0
696,173.75,30.5112,33.0698,156.758,98.9778,97.7999,0.000224835,0.0416,21.0354,-341.406,0.106372,0.0,0.0
699,174.5,29.8257,33.2854,151.949,98.9598,97.3549,0.000174606,0.0416059,21.0355,-341.406,0.145285,0.0,0.0
702,175.25,29.8497,32.9283,152.715,98.9662,97.4638,0.000112772,0.0416185,21.0356,-341.416,0.135924,0.0,0.0
705,176,29.4295,32.9949,156.658,98.9989,97.9408,5.25537e-05,0.0416326,21.0354,-341.396,0.095481,0.0,0.0
708,176.75,29.4022,32.9216,160.479,98.9909,97.4933,6.93991e-06,0.0416347,21.0353,-341.406,0.135455,0.0,0.0
711,177.5,29.2723,32.4216,154.401,98.9853,97.6292,-1.54966e-05,0.0416303,21.0352,-341.416,0.122575,0.0,0.0
714,178.25,29.6775,32.2127,153.19,98.9738,97.2682,-2.72418e-05,0.0416078,21.0351,-341.406,0.154462,0.0,0.0
717,179,29.5683,32.0497,157.609,98.9825,96.989,-1.65762e-05,0.0415844,21.035,-341.406,0.180791,0.0,0.0
720,179.75,28.7577,31.5651,160.602,98.9869,97.4037,1.29404e-06,0.0415552,21.035,-341.406,0.143273,0.0,0.0
723,180.5,29.1024,31.6603,157.334,98.9805,97.5138,1.7567e-05,0.0415339,21.035,-341.406,0.132659,0.0,0.0
726,181.25,28.8366,31.8227,156.733,98.9825,97.4278,2.46221e-05,0.0414914,21.035,-341.396,0.140676,0.0,0.0
729,182,28.6528,31.63,156.294,98.959,97.7647,2.0758e-05,0.041449,21.0349,-341.386,0.107889,0.0,0.0
732,182.75,28.0987,31.5686,155.182,98.9642,97.4213,6.04347e-06,0.0414373,21.0349,-341.376,0.139627,0.0,0.0
735,183.5,28.1971,31.155,154.801,98.9698,97.8004,-2.69661e-05,0.0414429,21.0349,-341.386,0.105619,0.0,0.0
738,184.25,28.622,30.9241,151.804,98.965,96.8485,-5.22315e-05,0.0414713,21.0349,-341.376,0.192091,0.0,0.0
741,185,27.9657,30.8721,153.249,98.961,97.5265,-7.11622e-05,0.0414919,21.0349,-341.376,0.129751,0.0,0.0
744,185.75,27.0581,30.1556,156.596,98.9658,98.1803,-7.10964e-05,0.04148,21.0349,-341.386,0.0708117,0.0,0.0
747,186.5,27.9337,30.6609,155.02,98.9662,97.1973,-4.73371e-05,0.0414528,21.035,-341.406,0.160255,0.0,0.0
750,187.25,28.3128,30.4596,154.065,98.9622,97.4446,-3.00166e-05,0.0414209,21.0352,-341.376,0.137321,0.0,0.0
753,188,27.5082,30.2111,159.797,98.9618,97.0934,2.37673e-05,0.041398,21.0358,-341.386,0.169373,0.0,0.0
756,188.75,26.895,30.5499,159.246,98.9698,97.4188,6.77876e-05,0.0413819,21.0362,-341.366,0.140353,0.0,0.0
759,189.5,26.8453,30.0006,156.152,98.973,97.3288,9.62322e-05,0.0413702,21.0363,-341.386,0.148858,0.0,0.0
762,190.25,27.5134,30.3547,154.582,98.9686,97.1912,9.89988e-05,0.0413751,21.0368,-341.376,0.161031,0.0,0.0
765,191,27.4484,29.8738,152.366,98.9586,97.391,8.69483e-05,0.0413702,21.0371,-341.366,0.14189,0.0,0.0
768,191.75,26.8725,29.5606,155.331,98.9606,97.1519,6.44489e-05,0.0413425,21.0374,-341.366,0.163908,0.0,0.0
771,192.5,26.8685,29.6705,160.261,98.9586,97.4528,4.80469e-05,0.0413222,21.0376,-341.406,0.136252,0.0,0.0
774,193.25,26.4616,28.6453,154.687,98.9538,97.2129,4.46611e-05,0.0413075,21.0377,-341.406,0.157724,0.0,0.0
777,194,27.2883,29.2235,155.033,98.9387,97.6571,5.78217e-05,0.0412967,21.0378,-341.386,0.115856,0.0,0.0
780,194.75,26.8081,29.113,154.833,98.9363,97.4675,7.40787e-05,0.0412889,21.0379,-341.386,0.132905,0.0,0.0
783,195.5,26.5399,28.9428,153.041,98.9479,97.585,0.000106378,0.0413216,21.0379,-341.376,0.123237,0.0,0.0
786,196.25,26.9436,29.2704,157.502,98.9264,97.5629,0.000146242,0.0413454,21.038,-341.406,0.123318,0.0,0.0
789,197,25.8927,28.6373,154.776,98.9208,97.0782,0.000188299,0.0413052,21.038,-341.386,0.167073,0.0,0.0
792,197.75,26.0298,28.2616,155.088,98.922,97.5781,0.00023613,0.0413028,21.038,-341.386,0.121546,0.0,0.0
795,198.5,25.8993,28.8841,157.209,98.9248,97.2911,0.000269796,0.0413125,21.038,-341.386,0.147968,0.0,0.0
798,199.25,26.2443,28.234,156.462,98.9152,97.479,0.000293824,0.0413196,21.038,-341.386,0.129963,0.0,0.0
801,200,26.7476,28.1947,153.585,98.9084,97.5727,0.000302914,0.0413113,21.038,-341.406,0.120813,0.0,0.0
804,200.75,25.4101,27.984,152.687,98.9096,97.5936,0.000305947,0.0412995,21.0381,-341.416,0.119019,0.0,0.0
807,201.5,25.5859,28.0857,156.416,98.9072,97.19,0.000325331,0.0412909,21.0381,-341.396,0.155632,0.0,0.0
810,202.25,26.1599,28.0957,156.74,98.9052,97.4053,0.000363552,0.0412981,21.0381,-341.396,0.135789,0.0,0.0
813,203,25.7391,27.7058,156.464,98.8965,97.4012,0.000412469,0.0413091,21.0381,-341.396,0.135375,0.0,0.0
816,203.75,25.8375,28.0886,153.2,98.8837,97.5478,0.000466572,0.0412902,21.0381,-341.366,0.120869,0.0,0.0
819,204.5,25.0773,27.2183,157.313,98.8853,97.479,0.000507732,0.0412508,21.0381,-341.376,0.127278,0.0,0.0
822,205.25,25.6094,28.1168,156.635,98.8797,97.4769,0.000524417,0.0411978,21.0381,-341.376,0.126964,0.0,0.0
825,206,25.4184,27.3872,153.909,98.8722,97.1818,0.000513801,0.0411784,21.0381,-341.376,0.153231,0.0,0.0
828,206.75,25.7838,27.3695,159.112,98.863,97.7164,0.000506063,0.0411713,21.0381,-341.366,0.103656,0.0,0.0
831,207.5,25.3433,26.8813,154.432,98.865,97.2362,0.000438593,0.0411783,21.0381,-341.366,0.14761,0.0,0.0
834,208.25,25.2913,27.0133,154.74,98.859,97.698,0.000380986,0.0411834,21.0381,-341.376,0.104972,0.0,0.0
837,209,24.8404,27.628,156.134,98.8539,96.9853,0.000334766,0.0411871,21.0381,-341.366,0.169569,0.0,0.0
840,209.75,25.3033,27.1444,157.627,98.8391,97.0168,0.000299989,0.0411898,21.0381,-341.366,0.165356,0.0,0.0
843,210.5,25.0725,27.0871,154.069,98.8467,97.6362,0.000274636,0.0411988,21.0381,-341.366,0.109487,0.0,0.0
846,211.25,24.8328,27.1689,154.91,98.8268,97.3017,0.000254438,0.0412175,21.0379,-341.366,0.138189,0.0,0.0
849,212,25.1477,26.704,157.271,98.8335,97.6067,0.000243513,0.0412503,21.0378,-341.356,0.110988,0.0,0.0
852,212.75,24.7569,26.8927,158.327,98.8108,97.1372,0.000246478,0.0412743,21.0377,-341.376,0.151797,0.0,0.0
855,213.5,24.8822,26.953,151.457,98.8124,96.9452,0.000256222,0.041211,21.0376,-341.396,0.169521,0.0,0.0
858,214.25,24.4924,26.6257,156.633,98.8056,97.4245,0.000263325,0.0411375,21.0376,-341.386,0.12508,0.0,0.0
861,215,24.8752,26.7819,153.723,98.7933,96.6488,0.000268503,0.0410961,21.0375,-341.376,0.195009,0.0,0.0
864,215.75,24.4988,26.4029,158.137,98.7762,97.181,0.000260263,0.0410928,21.0375,-341.376,0.144673,0.0,0.0
867,216.5,24.4818,25.9065,158.267,98.7778,96.9955,0.000254256,0.0411018,21.0375,-341.376,0.161789,0.0,0.0
870,217.25,24.4664,26.3332,156.672,98.7774,96.9738,0.000229287,0.041166,21.0375,-341.366,0.163741,0.0,0.0
873,218,24.86,26.2376,155.117,98.7658,97.4397,0.000200261,0.0412199,21.0374,-341.376,0.120115,0.0,0.0
876,218.75,24.3926,26.4449,155.994,98.757,97.6366,0.000169424,0.0412712,21.0374,-341.386,0.101388,0.0,0.0
879,219.5,24.1242,26.0067,159.154,98.7527,97.6407,0.000138288,0.0412703,21.0374,-341.376,0.100621,0.0,0.0
882,220.25,24.0189,25.7355,160.871,98.7431,97.2575,0.000112161,0.0412626,21.0374,-341.346,0.134702,0.0,0.0
885,221,24.1931,25.9456,154.821,98.7327,97.2702,9.88073e-05,0.0412448,21.0374,-341.366,0.132608,0.0,0.0
888,221.75,24.2977,25.4435,158.59,98.7156,97.2641,8.68087e-05,0.0412318,21.0374,-341.356,0.131627,0.0,0.0
891,222.5,23.5214,25.2425,156.299,98.712,97.0778,7.68598e-05,0.0412089,21.0374,-341.366,0.148339,0.0,0.0
894,223.25,24.3482,26.0598,156.549,98.7276,96.8035,6.27692e-05,0.0411865,21.0374,-341.376,0.174879,0.0,0.0
897,224,23.3786,24.7889,152.999,98.718,96.8445,4.16804e-05,0.0411482,21.0368,-341.376,0.170261,0.0,0.0
900,224.75,23.3365,25.5012,155.923,98.708,97.1286,1.25944e-05,0.0411109,21.0363,-341.376,0.143334,0.0,0.0
903,225.5,24.0196,25.7211,156.984,98.6953,96.9022,-2.2717e-06,0.0410959,21.0361,-341.366,0.162922,0.0,0.0
906,226.25,23.6184,25.2675,153.64,98.7009,96.5648,7.97882e-06,0.0410849,21.0358,-341.356,0.194411,0.0,0.0
909,227,23.7831,25.5816,155.464,98.6853,96.2017,4.91223e-05,0.0411038,21.0356,-341.386,0.226489,0.0,0.0
912,227.75,23.5336,25.2764,159.264,98.6865,98.1295,9.34704e-05,0.0411291,21.0355,-341.386,0.0502953,0.0,0.0
915,228.5,23.4805,24.5874,155.126,98.6658,97.0324,0.000130866,0.0411554,21.0354,-341.406,0.148338,0.0,0.0
918,229.25,23.8713,25.5339,156.127,98.6686,97.5531,0.000166791,0.0411646,21.0353,-341.356,0.10103,0.0,0.0
921,230,23.7969,25.227,156.907,98.669,96.6087,0.000172387,0.041135,21.0352,-341.346,0.187511,0.0,0.0
924,230.75,23.8665,25.2289,156.469,98.6566,96.8461,0.000150119,0.0411276,21.0356,-341.416,0.164586,0.0,0.0
927,231.5,23.358,25.1872,158.98,98.6403,96.7511,0.000132907,0.0411464,21.036,-341.396,0.171833,0.0,0.0
930,232.25,22.7966,24.3752,155.522,98.6535,97.7078,0.000106524,0.0412139,21.0364,-341.396,0.0855819,0.0,0.0
933,233,23.2583,24.8597,153.549,98.6662,97.3283,9.24342e-05,0.0412578,21.0367,-341.386,0.12131,0.0,0.0
936,233.75,23.2067,24.9274,156.361,98.6515,97.298,8.21627e-05,0.0412369,21.0364,-341.346,0.122749,0.0,0.0
939,234.5,23.1586,24.5653,161.591,98.6292,97.1715,8.30905e-05,0.0412562,21.0362,-341.356,0.1323,0.0,0.0
942,235.25,23.3635,24.8878,152.341,98.622,97.5793,,0.041321,,-341.346,0.0944456,0.0,0.0
945,236,23.3012,24.6127,158.702,98.618,97.391,,0.0414409,,-341.356,0.111251,0.0,0.0
948,236.75,23.0331,24.3886,154.785,98.6184,96.5968,,0.0416063,,-341.356,0.184045,0.0,0.0
951,237.5,22.9015,24.3615,156.653,98.6025,96.5235,,0.04186,,-341.336,0.189353,0.0,0.0
954,238.25,22.8186,24.3738,158.895,98.5913,97.0807,,,,-341.356,0.137203,0.0,0.0
957,239,23.217,24.2749,152.911,98.5909,97.5727,,,,-341.386,0.0922423,0.0,0.0
960,239.75,22.9324,24.9179,153.882,98.571,97.68,,,,-341.376,0.0806833,0.0,0.0
963,240.5,23.1766,24.3643,157.024,98.5626,97.1118,,,,-341.376,0.13177,0.0,0.0
966,241.25,23.5537,24.5192,155.604,98.5499,97.025,,,,-341.376,0.138565,0.0,0.0
969,242,22.9502,24.7425,158.856,98.5383,97.2411,,,,-341.376,0.11775,0.0,0.0
972,242.75,22.7697,24.1333,152.907,98.5327,96.955,,,,-341.366,0.143434,0.0,0.0
975,243.5,22.748,24.2899,154.221,98.5256,97.0733,,,,-341.356,0.131951,0.0,0.0
978,244.25,22.7407,24.2766,153.924,98.5144,96.7319,,,,-341.376,0.162253,0.0,0.0
981,245,22.7421,23.536,159.676,98.5375,97.0209,,,,-341.376,0.137827,0.0,0.0
984,245.75,22.6288,23.9712,156.591,98.5323,96.7757,,,,-341.396,0.159848,0.0,0.0