File: 01_Data/PE_Foam_Pipe_Insulation/Cone/PE_Foam_Pipe_Insulation_Cone_HF75Scan_220316_R2.csv
Names,Time,Stack TC,Smoke TC,Exh Press,Smoke Comp,Smoke Meas,CO Meter,CO2 Meter,O2 Meter,Sample Mass,Ext Coeff,Start Test,Flame Verif
Chan Gain,,500,500,1,1,1,1,1,1,1,1,1.0,1.0
Offset,,0,0,0.135167,0,0,0,0,0,0,0,0.0,0.0
Gain,,1,1,25.011,13.0486,13.2841,1,1,1,1.00089,1.0079,1.0,1.0
Units,sec,C,C,Pa,%,%,%,%,%,g,/m,,
Baseline,,40.7229,42.0087,150.434,99.0272,95.6898,0.000328657,0.0601087,20.9941,-492.294,0.303185,,
2,0.25,39.072,40.6102,152.062,98.5309,94.7201,0.00102031,0.0661442,20.9838,5.18462,0.348732,0.0,0.0
4,0.75,39.011,39.8128,149.726,98.5205,92.9489,0.00115818,0.0672497,20.9798,5.11456,0.514693,0.0,0.0
6,1.25,38.7809,40.2493,148.166,98.5253,94.3179,0.00129652,0.0718625,20.9669,5.14458,0.385849,0.0,0.0
8,1.75,39.08,40.3156,142.928,98.5141,94.5523,0.00140858,0.0755989,20.9564,5.19463,0.362911,0.0,1.0
10,2.25,38.7713,39.7208,144.119,98.509,93.8319,0.00154958,0.0826826,20.9351,5.22466,0.430066,0.0,1.0
12,2.75,38.5589,39.8037,142.639,98.497,93.1026,0.00169608,0.0920719,20.9178,5.1646,0.497982,0.0,1.0
14,3.25,38.7582,39.9566,139.823,98.497,92.2662,0.00184381,0.0996773,20.8996,5.01447,0.577761,0.0,1.0
16,3.75,39.1836,40.5215,142.318,98.4855,91.5779,0.00201201,0.112052,20.8811,5.11456,0.642933,0.0,1.0
18,4.25,39.183,40.3824,139.803,98.4879,90.6207,0.00219193,0.122076,20.8654,5.09454,0.736041,0.0,1.0
20,4.75,39.799,41.1079,146.01,98.4719,92.0955,0.00233768,0.132554,20.8521,5.09454,0.591878,0.0,1.0
22,5.25,40.2091,40.705,143.199,98.4831,90.193,0.00262849,0.141041,20.8387,5.11456,0.777438,0.0,1.0
24,5.75,40.131,41.438,144.431,98.4735,89.4637,0.00286405,0.14975,20.8256,5.0545,0.848363,0.0,1.0
26,6.25,39.8337,41.5217,148.716,98.4548,87.6426,0.00305485,0.156805,20.8149,5.0545,1.02851,0.0,1.0
28,6.75,39.4423,40.941,139.67,98.4441,83.7459,0.00353113,0.165705,20.8063,5.0445,1.42964,0.0,1.0
30,7.25,40.5334,41.3309,145.195,98.4433,83.2408,0.00391691,0.172913,20.7947,4.99445,1.48306,0.0,1.0
32,7.75,40.5941,41.5849,137.258,98.4222,80.3965,0.00422939,0.185314,20.7811,4.95441,1.78855,0.0,1.0
34,8.25,40.5474,41.9442,134.046,98.417,77.6159,0.00498223,0.195359,20.77,4.91438,2.09928,0.0,0.0
36,8.75,40.7802,42.4339,135.83,98.4106,77.2782,0.00559203,0.203496,20.7486,4.90437,2.13726,0.0,0.0
38,9.25,41.4027,42.647,132.715,98.4054,73.1285,0.00632076,0.224444,20.7312,4.83431,2.62478,0.0,0.0
40,9.75,41.6276,42.4422,133.713,98.3987,71.9334,0.00712235,0.241412,20.6924,4.78426,2.76985,0.0,0.0
42,10.25,41.5916,42.6392,127.191,98.3919,67.6848,0.00801999,0.255156,20.6609,4.67417,3.30749,0.0,0.0
44,10.75,42.0503,42.897,124.986,98.3843,70.7504,0.00897059,0.279068,20.5915,4.64414,2.91517,0.0,0.0
46,11.25,43.1509,43.439,125.04,98.3644,69.2938,0.0100057,0.309937,20.5353,4.56407,3.0973,0.0,0.0
48,11.75,42.8606,44.1716,127.553,98.3772,70.0325,0.0110826,0.343167,20.4486,4.50401,3.0047,0.0,0.0
50,12.25,43.7291,45.1357,121.345,98.362,66.7041,0.0124583,0.377485,20.3584,4.42394,3.43384,0.0,0.0
52,12.75,44.4861,45.3255,121.119,98.3485,67.0195,0.0135725,0.415617,20.2672,4.36389,3.39092,0.0,0.0
54,13.25,45.204,46.1779,124.388,98.3393,61.9484,0.0144751,0.455805,20.1934,4.35388,4.08575,0.0,0.0
56,13.75,45.0617,47.1749,115.928,98.3254,63.7832,0.0158554,0.499618,20.1121,4.20375,3.82643,0.0,0.0
58,14.25,46.14,46.8924,108.969,98.329,62.3359,0.0169734,0.545241,20.027,4.16371,4.02968,0.0,0.0
60,14.75,46.74,48.4551,116.264,98.3075,60.572,0.0181098,0.594137,19.958,4.02359,4.28153,0.0,0.0
62,15.25,48.6339,49.2343,111.479,98.3007,62.818,0.0192379,0.64449,19.8654,3.98355,3.95903,0.0,0.0
64,15.75,48.9885,50.2937,108.616,98.2824,63.8311,0.0201517,0.685276,19.7904,3.90348,3.81593,0.0,0.0
66,16.25,50.0731,51.7731,102.657,98.278,64.2628,0.0212154,0.744405,19.7082,3.84342,3.75594,0.0,0.0
68,16.75,51.7684,53.0079,112.338,98.2545,64.2583,0.022077,0.792299,19.6223,3.74334,3.75444,0.0,0.0
70,17.25,52.2657,54.0049,103.295,98.2593,64.9982,0.0229314,0.842883,19.5527,3.66326,3.65366,0.0,0.0
72,17.75,54.0657,55.457,109.105,98.2334,62.807,0.0236235,0.894467,19.4653,3.60321,3.95452,0.0,0.0
74,18.25,55.0801,56.6543,103.768,98.2473,64.2336,0.0242341,0.93625,19.3946,3.55317,3.7572,0.0,0.0
76,18.75,56.4918,57.8385,102.386,98.2207,63.1784,0.0247737,0.981921,19.3231,3.46309,3.90125,0.0,0.0
78,19.25,58.0068,59.672,101.196,98.2171,60.7127,0.0252318,1.01891,19.2652,3.30294,4.25289,0.0,0.0
80,19.75,59.3298,61.4056,106.648,98.2031,61.6484,0.0256218,1.05252,19.2107,3.33297,4.11642,0.0,0.0
82,20.25,60.6313,62.6121,101.453,98.2055,65.1604,0.0259377,1.08302,19.1667,3.21286,3.62679,0.0,0.0
84,20.75,62.081,63.8509,103.449,98.184,64.1387,0.0261842,1.10914,19.1309,3.18284,3.76457,0.0,0.0
86,21.25,63.187,65.8722,99.002,98.1804,63.6819,0.0263753,1.13158,19.102,3.07274,3.82745,0.0,0.0
88,21.75,64.3549,66.8193,101.253,98.1617,64.9536,0.0264946,1.14988,19.0786,3.01268,3.65094,0.0,0.0
90,22.25,65.4045,68.2512,105.413,98.1657,63.272,0.0265592,1.16481,19.0596,2.94262,3.88321,0.0,0.0
92,22.75,66.7216,69.6293,100.711,98.1418,64.3123,0.0265601,1.17691,19.0442,2.83252,3.73688,0.0,0.0
94,23.25,68.0899,70.7023,106.768,98.1458,65.417,0.0265147,1.18535,19.0349,2.76246,3.58666,0.0,0.0
96,23.75,69.0408,72.2615,109.148,98.1195,66.0539,0.0264071,1.19218,19.0273,2.64235,3.49863,0.0,0.0
98,24.25,69.703,73.5599,109.727,98.1255,63.313,0.0262562,1.19772,19.0265,2.64235,3.87386,0.0,0.0
100,24.75,70.844,74.5658,107.548,98.1048,63.4719,0.0261341,1.19975,19.0258,2.55227,3.84984,0.0,0.0
102,25.25,71.7649,76.1904,108.666,98.104,65.1981,0.0258397,1.2014,19.0253,2.51224,3.61253,0.0,0.0
104,25.75,73.2401,76.7008,109.161,98.0916,65.3039,0.0256013,1.20072,19.0297,2.42216,3.59708,0.0,0.0
106,26.25,74.0567,77.8401,102.567,98.0833,68.3727,0.0253229,1.20017,19.0333,2.38212,3.19031,0.0,0.0
108,26.75,74.5404,78.7009,110.908,98.0618,68.3306,0.0250207,1.19632,19.0406,2.32207,3.19382,0.0,0.0
110,27.25,75.4771,80.1278,116.77,98.0745,67.8822,0.0247759,1.19321,19.0506,2.25201,3.25318,0.0,0.0
112,27.75,76.3867,81.1098,115.058,98.0407,67.8587,0.0244736,1.18532,19.0586,2.18194,3.25319,0.0,0.0
114,28.25,77.6886,82.1351,106.225,98.0466,68.7936,0.0241349,1.17893,19.0762,2.10187,3.13276,0.0,0.0
116,28.75,78.0674,83.2113,105.336,98.0259,66.6709,0.0238606,1.16944,19.0905,2.00178,3.40799,0.0,0.0
118,29.25,78.4782,84.2639,104.822,98.0228,67.791,0.0235196,1.15789,19.109,1.94173,3.2604,0.0,0.0
120,29.75,79.4705,84.9034,108.39,98.0084,69.942,0.0232434,1.14853,19.1303,1.89169,2.98292,0.0,0.0
122,30.25,80.4243,85.6908,105.227,98.0052,66.0664,0.0228891,1.13624,19.1476,1.81161,3.48664,0.0,0.0
124,30.75,81.0063,86.5085,117.999,97.9726,64.6419,0.0226021,1.12205,19.1688,1.77158,3.67642,0.0,0.0
126,31.25,81.606,87.6086,113.224,97.9829,64.6808,0.0223697,1.11056,19.1924,1.71153,3.67204,0.0,0.0
128,31.75,82.6986,88.1457,111.932,97.9543,66.3303,0.0219589,1.09439,19.2183,1.64146,3.4468,0.0,0.0
130,32.25,82.9397,89.0295,112.8,97.973,66.737,0.0216261,1.08128,19.2452,1.60143,3.39445,0.0,0.0
132,32.75,83.1322,89.0665,111.946,97.9419,69.4544,0.0212765,1.06597,19.2709,1.54137,3.03879,0.0,0.0
134,33.25,84.1662,90.092,112.22,97.9367,68.965,0.0209213,1.05356,19.2954,1.4613,3.10083,0.0,0.0
136,33.75,84.6176,90.6178,112.418,97.9152,69.0936,0.0204886,1.04351,19.3201,1.38123,3.08243,0.0,0.0
138,34.25,85.1678,91.144,116.489,97.9061,69.6421,0.0201381,1.03203,19.3445,1.3512,3.01169,0.0,0.0
140,34.75,85.9029,91.5655,111.305,97.889,71.8839,0.0198542,1.01974,19.3642,1.30116,2.73002,0.0,0.0
142,35.25,86.2238,92.1417,111.13,97.9013,72.4754,0.0194587,1.00693,19.3875,1.28114,2.65868,0.0,0.0
144,35.75,86.5766,92.7748,116.553,97.8921,70.2376,0.0191383,0.993994,19.4128,1.24111,2.93515,0.0,0.0
146,36.25,87.0062,92.7622,115.403,97.8822,68.3533,0.0188107,0.980309,19.4333,1.14102,3.17468,0.0,0.0
148,36.75,87.2561,93.6768,116.652,97.8555,70.8092,0.018484,0.966338,19.461,1.08096,2.86018,0.0,0.0
150,37.25,87.7584,94.27,117.997,97.8503,69.8727,0.0182194,0.955021,19.4834,1.04093,2.97742,0.0,0.0
152,37.75,88.135,94.6741,115.215,97.8432,69.9672,0.0178525,0.938782,19.5069,1.02091,2.96482,0.0,0.0
154,38.25,88.6781,95.2332,119.908,97.8304,70.0029,0.0175553,0.925629,19.5308,0.940838,2.95917,0.0,0.0
156,38.75,88.6098,95.3932,114.051,97.8209,71.8941,0.0171939,0.914974,19.5572,0.880785,2.72262,0.0,0.0
158,39.25,89.1324,95.8257,113.455,97.8197,73.0438,0.0169012,0.898507,19.5848,0.860767,2.58224,0.0,0.0
160,39.75,89.563,96.2869,124.571,97.8145,74.1728,0.0165425,0.885169,19.6132,0.790705,2.44616,0.0,0.0
162,40.25,89.6417,97.1784,117.843,97.7922,72.488,0.0162519,0.86895,19.6417,0.760678,2.64729,0.0,0.0
164,40.75,90.1643,97.1656,117.444,97.7858,71.6472,0.0158694,0.855812,19.6716,0.670598,2.74986,0.0,0.0
166,41.25,90.3506,97.4853,119.038,97.7707,71.258,0.0155595,0.838352,19.7018,0.670598,2.79665,0.0,0.0
168,41.75,90.3256,97.6268,118.62,97.7631,71.7862,0.0153084,0.82421,19.7264,0.600535,2.73067,0.0,0.0
170,42.25,90.6286,97.9027,123.724,97.754,74.9386,0.0148019,0.804913,19.7551,0.580517,2.34987,0.0,0.0
172,42.75,90.8922,98.1641,117.349,97.7348,73.5051,0.0143916,0.789283,19.7863,0.520464,2.5189,0.0,0.0
174,43.25,91.2124,98.3717,124.574,97.7257,75.5147,0.0137544,0.766271,19.8232,0.490437,2.27961,0.0,0.0
176,43.75,91.2063,98.612,119.196,97.7217,78.0776,0.0132383,0.747631,19.8637,0.46041,1.98416,0.0,0.0
178,44.25,90.9528,98.6176,129.041,97.7213,77.4947,0.0125076,0.722844,19.9127,0.46041,2.05038,0.0,0.0
180,44.75,91.6199,99.201,126.668,97.7022,76.7179,0.0119157,0.694045,19.9672,0.430384,2.13772,0.0,0.0
182,45.25,91.0983,98.1255,130.647,97.691,79.6879,0.0112611,0.670718,20.0112,0.420375,1.8009,0.0,0.0
184,45.75,91.0147,98.232,140.959,97.6771,89.5448,0.0105731,0.625811,20.1028,0.400357,0.768559,0.0,0.0
186,46.25,91.0053,98.9047,150.064,97.6652,91.5847,0.0100159,0.589437,20.1769,0.430384,0.568319,0.0,0.0
188,46.75,90.8612,98.533,145.951,97.6508,92.3757,0.00930205,0.55019,20.2542,0.420375,0.490995,0.0,0.0
190,47.25,90.0744,97.4441,146.914,97.6496,93.4747,0.00872382,0.509595,20.3323,0.440392,0.386318,0.0,0.0
192,47.75,89.3003,97.4007,146.279,97.6325,93.4601,0.00808808,0.467873,20.4064,0.430384,0.386148,0.0,0.0
194,48.25,88.6123,96.5394,146.909,97.6409,93.6069,0.00757313,0.426123,20.476,0.420375,0.373034,0.0,0.0
196,48.75,88.6907,96.3996,145.495,97.6198,93.3012,0.00715602,0.387105,20.5324,0.420375,0.40004,0.0,0.0
198,49.25,87.2499,95.105,144.535,97.6102,93.7285,0.00662175,0.350819,20.5848,0.410366,0.358778,0.0,0.0
200,49.75,86.3809,94.8378,146.633,97.5963,92.9749,0.00618899,0.321428,20.6333,0.400357,0.428892,0.0,0.0
202,50.25,86.248,95.0211,148.25,97.5851,93.9559,0.00572951,0.290289,20.6776,0.400357,0.335077,0.0,0.0
204,50.75,85.6565,93.8505,149.829,97.5827,94.38,0.00535733,0.265067,20.7178,0.410366,0.295047,0.0,0.0
206,51.25,85.3923,93.4442,148.773,97.57,93.259,0.00500517,0.244637,20.7536,0.400357,0.399527,0.0,0.0
208,51.75,84.6337,92.8101,147.313,97.5768,94.3248,0.00467431,0.222759,20.7856,0.420375,0.299673,0.0,0.0
210,52.25,84.538,92.0797,144.612,97.5652,93.5412,0.00436093,0.205039,20.8115,0.410366,0.372385,0.0,0.0
212,52.75,83.9645,91.5753,148.85,97.5461,93.0701,0.00406626,0.189018,20.8365,0.410366,0.41529,0.0,0.0
214,53.25,82.3042,90.5509,149.045,97.5334,93.7062,0.00379005,0.17454,20.8567,0.400357,0.353916,0.0,0.0
216,53.75,82.3671,90.2991,148.316,97.5318,93.2805,0.00353256,0.161871,20.8731,0.410366,0.394027,0.0,0.0
218,54.25,81.9144,90.2886,149.119,97.5278,93.3284,0.00332399,0.15076,20.889,0.410366,0.389132,0.0,0.0
220,54.75,81.8744,89.7836,146.626,97.5182,93.8517,0.00310599,0.141013,20.9019,0.410366,0.338824,0.0,0.0
222,55.25,81.5927,88.8881,148.696,97.5071,93.7698,0.00288527,0.132444,20.9119,0.420375,0.345531,0.0,0.0
224,55.75,80.802,88.4488,144.395,97.5055,93.8923,0.00270648,0.124926,20.92,0.440392,0.33385,0.0,0.0
226,56.25,80.1655,88.4754,144.68,97.4911,93.8448,0.00251981,0.118317,20.9265,0.440392,0.337018,0.0,0.0
228,56.75,79.7622,87.3216,148.919,97.4975,93.4573,0.00233094,0.112963,20.934,0.420375,0.374184,0.0,0.0
230,57.25,78.7669,86.2595,145.221,97.4812,94.0492,0.00214902,0.107985,20.9401,0.420375,0.316886,0.0,0.0
232,57.75,78.1458,86.0297,146.316,97.4704,94.5409,0.00197564,0.103376,20.9455,0.410366,0.269803,0.0,0.0
234,58.25,78.6911,85.7229,151.612,97.4621,93.4998,0.00183521,0.0996424,20.9498,0.400357,0.366944,0.0,0.0
236,58.75,78.6187,85.9222,148.448,97.4573,93.7127,0.00169218,0.0958166,20.954,0.390348,0.346407,0.0,0.0
238,59.25,77.9694,85.2278,150.918,97.437,93.992,0.00157632,0.0927178,20.9581,0.410366,0.318251,0.0,0.0
240,59.75,76.9059,84.815,149.452,97.4442,93.3401,0.00146663,0.0902078,20.9618,0.400357,0.380434,0.0,0.0
242,60.25,76.8223,84.4112,149.983,97.4191,93.2039,0.00137778,0.0874849,20.9653,0.400357,0.39107,0.0,0.0
244,60.75,75.9823,83.8975,149.263,97.4222,93.0851,0.00129119,0.0852793,20.9683,0.410366,0.402634,0.0,0.0
246,61.25,76.5849,83.3895,147.091,97.4179,93.3888,0.00122105,0.0830933,20.971,0.400357,0.373442,0.0,0.0
248,61.75,75.6065,82.8593,151.012,97.4254,92.9724,0.00114841,0.0813226,20.9732,0.400357,0.413634,0.0,0.0
250,62.25,75.2736,82.1504,147.673,97.4011,93.0304,0.00108956,0.0796638,20.9749,0.380339,0.405917,0.0,0.0
252,62.75,74.2809,82.2018,146.343,97.4075,93.5193,0.0010419,0.078118,20.9763,0.360321,0.360153,0.0,0.0
254,63.25,74.1766,81.4208,149.048,97.3924,94.2511,0.000980161,0.0767066,20.9777,0.37033,0.289871,0.0,0.0
256,63.75,74.3555,81.1186,151.691,97.4015,93.2319,0.000930153,0.0754201,20.979,0.37033,0.386825,0.0,0.0
258,64.25,73.6191,81.2562,145.223,97.3852,93.3693,0.000882346,0.0742839,20.9803,0.380339,0.372321,0.0,0.0
260,64.75,73.2257,80.666,150.134,97.3824,93.2615,0.000843622,0.073279,20.9816,0.380339,0.382284,0.0,0.0
262,65.25,72.903,79.8266,147.807,97.3637,93.9855,0.000809694,0.0723638,20.9829,0.380339,0.31221,0.0,0.0
264,65.75,71.9053,79.8378,146.176,97.3745,93.0985,0.000779906,0.0715313,20.9841,0.37033,0.397025,0.0,0.0
266,66.25,72.2227,79.1461,149.6,97.3573,94.4485,0.000752577,0.070857,20.9851,0.37033,0.268187,0.0,0.0
268,66.75,72.0861,79.0197,149.928,97.3605,93.3884,0.00072756,0.070091,20.9859,0.37033,0.368275,0.0,0.0
270,67.25,71.5495,78.6341,146.261,97.3422,94.2535,0.000698335,0.0694706,20.9866,0.380339,0.285086,0.0,0.0
272,67.75,71.288,78.2053,148.77,97.3406,93.632,0.000666598,0.068903,20.9871,0.380339,0.343431,0.0,0.0
274,68.25,70.7139,77.3744,147.073,97.3223,93.1208,0.000635773,0.0683847,20.9875,0.380339,0.390171,0.0,0.0
276,68.75,70.3385,77.4888,149.693,97.3394,94.1169,0.000606197,0.0678855,20.9881,0.37033,0.297658,0.0,0.0
278,69.25,69.8444,76.6003,150.293,97.3127,93.0567,0.000582241,0.0674095,20.9888,0.360321,0.395385,0.0,0.0
280,69.75,70.3634,76.8611,147.839,97.3239,93.508,0.000562836,0.0669807,20.9893,0.350312,0.353633,0.0,0.0
282,70.25,69.4656,76.6292,144.584,97.2996,93.2051,0.000544687,0.0665943,20.9898,0.37033,0.380106,0.0,0.0
284,70.75,68.7616,75.6335,147.187,97.3163,93.2931,0.000529987,0.0662814,20.9901,0.37033,0.373284,0.0,0.0
286,71.25,68.5581,75.999,152.033,97.2928,93.2039,0.000527805,0.0658907,20.9904,0.37033,0.379606,0.0,0.0
288,71.75,68.4045,74.9436,145.949,97.3076,93.0158,0.000526037,0.0655742,20.9907,0.37033,0.398806,0.0,0.0
290,72.25,68.1917,75.3087,146.64,97.2805,93.2189,0.000533116,0.0652385,20.9909,0.390348,0.377061,0.0,0.0
292,72.75,67.997,74.1506,147.815,97.2877,93.0965,0.00053885,0.0648951,20.991,0.390348,0.389332,0.0,0.0
294,73.25,67.5874,74.1577,146.134,97.2689,93.8071,0.000548359,0.0646169,20.9911,0.390348,0.320396,0.0,0.0
296,73.75,67.3429,74.0365,147.2,97.2733,93.9502,0.000556062,0.0643779,20.9912,0.380339,0.307317,0.0,0.0
298,74.25,66.6538,73.5853,145.195,97.253,92.4588,0.000551357,0.0641843,20.9913,0.37033,0.446953,0.0,0.0
300,74.75,66.8596,73.3306,150.227,97.2701,93.5894,0.000547546,0.0639986,20.9914,0.380339,0.341047,0.0,0.0
302,75.25,66.5233,72.8478,147.127,97.2431,93.2112,0.00053838,0.0638222,20.9914,0.37033,0.374389,0.0,0.0
304,75.75,66.1147,72.5274,145.269,97.247,93.3944,0.000534473,0.0636649,20.9915,0.390348,0.357388,0.0,0.0
306,76.25,65.7824,72.5341,145.254,97.2315,93.6397,0.000527791,0.0635245,20.9915,0.390348,0.332787,0.0,0.0
308,76.75,65.5452,72.0831,146.711,97.2279,93.8829,0.000541833,0.0633747,20.9915,0.380339,0.309526,0.0,0.0
310,77.25,65.2399,72.1168,151.405,97.2212,93.6661,0.000553207,0.0632208,20.9916,0.380339,0.329358,0.0,0.0
312,77.75,65.1687,71.3989,144.696,97.2128,93.4771,0.000562421,0.0630674,20.9916,0.380339,0.346448,0.0,0.0
314,78.25,64.6868,70.8588,149.2,97.2279,94.2101,0.000583972,0.0629171,20.9916,0.37033,0.278769,0.0,0.0
316,78.75,64.4723,71.0831,148.6,97.2084,93.4017,0.000614108,0.0628531,20.9921,0.360321,0.353184,0.0,0.0
318,79.25,64.1615,70.5438,144.192,97.2044,93.6892,0.000638519,0.062675,20.9924,0.360321,0.325656,0.0,0.0
320,79.75,63.9344,70.5046,145.717,97.1957,93.4658,0.000666812,0.0625307,20.9927,0.350312,0.345964,0.0,0.0
322,80.25,63.5122,70.2795,145.698,97.1825,93.1634,0.00068973,0.0624139,20.993,0.350312,0.373423,0.0,0.0
324,80.75,63.5584,69.7155,145.511,97.1774,93.6332,0.000707076,0.0623121,20.9932,0.360321,0.328475,0.0,0.0
326,81.25,62.7959,69.1425,145.903,97.1785,93.5497,0.000721126,0.0622231,20.9933,0.350312,0.336471,0.0,0.0
328,81.75,63.192,68.8738,150.148,97.1781,93.3855,0.000727637,0.062151,20.9935,0.360321,0.351966,0.0,0.0
330,82.25,62.863,69.5813,148.779,97.1626,93.3523,0.000732912,0.0620378,20.9936,0.350312,0.353702,0.0,0.0
332,82.75,62.8434,68.6919,150.498,97.1666,93.422,0.000733533,0.0619461,20.9936,0.350312,0.347463,0.0,0.0
334,83.25,62.132,68.7046,145.577,97.1746,93.077,0.000734036,0.0618718,20.9937,0.360321,0.380897,0.0,0.0
336,83.75,62.1118,68.4395,147.177,97.1614,93.6097,0.000734443,0.0618116,20.9938,0.360321,0.329245,0.0,0.0
338,84.25,61.957,67.9094,146.42,97.1483,93.767,0.000733556,0.0617492,20.9938,0.360321,0.313206,0.0,0.0
340,84.75,61.6095,67.891,149.976,97.1622,94.0224,0.000732837,0.0616986,20.9938,0.360321,0.290424,0.0,0.0
342,85.25,61.5087,67.8872,150.567,97.1431,93.0507,0.000720086,0.0616029,20.9939,0.360321,0.380537,0.0,0.0
344,85.75,61.3892,67.4084,150.416,97.1431,93.7034,0.000709757,0.0615253,20.9939,0.360321,0.318737,0.0,0.0
346,86.25,61.1145,67.1532,150.231,97.1415,92.9242,0.000678281,0.0614553,20.9939,0.350312,0.392419,0.0,0.0
348,86.75,60.6293,67.2775,144.556,97.1407,93.0016,0.000652785,0.0613921,20.9939,0.37033,0.384982,0.0,0.0
350,87.25,60.8048,66.4756,146.204,97.1347,93.0851,0.000609039,0.0613408,20.9942,0.360321,0.376503,0.0,0.0
352,87.75,60.76,66.5293,144.954,97.126,92.8877,0.000573605,0.061272,20.9946,0.360321,0.394477,0.0,0.0
354,88.25,59.5457,66.2435,144.702,97.1264,92.3643,0.000533969,0.0612162,20.9949,0.37033,0.44447,0.0,0.0
356,88.75,59.5962,65.2813,144.949,97.1188,93.028,0.000501863,0.061171,20.9952,0.37033,0.380484,0.0,0.0
358,89.25,60.2156,65.9242,147.449,97.1292,92.5719,0.000479055,0.0611343,20.9954,0.360321,0.424878,0.0,0.0
360,89.75,59.9135,65.4259,144.192,97.1124,94.4306,0.000463458,0.0611047,20.9956,0.390348,0.247589,0.0,0.0
362,90.25,59.5653,65.3425,146.867,97.116,93.2708,0.000450824,0.0610807,20.9957,0.390348,0.357181,0.0,0.0
364,90.75,59.6777,65.4868,149.275,97.1085,92.8038,0.00044123,0.0610252,20.9958,0.390348,0.400872,0.0,0.0
366,91.25,59.412,64.7592,148.619,97.114,93.4946,0.000434034,0.0609478,20.9959,0.37033,0.335814,0.0,0.0
368,91.75,59.3277,64.7236,150.248,97.0985,93.2363,0.000428205,0.0608779,20.996,0.390348,0.358853,0.0,0.0
370,92.25,58.4579,63.7384,147.591,97.1184,93.4147,0.00041255,0.0608148,20.9961,0.400357,0.343767,0.0,0.0
372,92.75,57.9176,64.1284,144.436,97.0977,94.1412,0.00039987,0.0607636,20.9961,0.390348,0.273391,0.0,0.0
374,93.25,58.4915,64.2795,142.292,97.1188,93.0961,0.000381098,0.0607439,20.9962,0.390348,0.374013,0.0,0.0
376,93.75,58.6137,64.4234,147.703,97.0921,93.319,0.000365893,0.0607473,20.9962,0.380339,0.350434,0.0,0.0
378,94.25,58.1101,63.4715,147.881,97.1037,92.9149,0.000356005,0.0607501,20.9962,0.37033,0.389863,0.0,0.0
380,94.75,57.9723,63.8068,146.742,97.089,93.3681,0.000347996,0.0607523,20.9962,0.360321,0.345498,0.0,0.0
382,95.25,57.5566,63.248,146.353,97.0997,93.4597,0.000345152,0.0607542,20.9963,0.37033,0.337805,0.0,0.0
384,95.75,57.3309,63.1153,150.307,97.0822,92.5565,0.000342848,0.0607693,20.9963,0.360321,0.422071,0.0,0.0
386,96.25,57.5636,62.622,147.474,97.1053,93.4751,0.000347056,0.0607816,20.9963,0.350312,0.336856,0.0,0.0
388,96.75,57.4306,62.6553,151.588,97.0854,93.6693,0.000350464,0.0607368,20.9963,0.350312,0.316695,0.0,0.0
390,97.25,57.5636,62.3121,142.737,97.0981,93.6361,0.000353224,0.0607005,20.9963,0.37033,0.320993,0.0,0.0
392,97.75,56.8496,62.3442,145.897,97.0834,93.2084,0.000366395,0.0606437,20.9963,0.37033,0.360129,0.0,0.0
394,98.25,56.8469,62.3107,148.946,97.0921,93.6442,0.000377063,0.0605977,20.9963,0.37033,0.319684,0.0,0.0
396,98.75,56.4442,61.9279,140.853,97.0846,93.3142,0.000391781,0.0605741,20.9963,0.360321,0.350206,0.0,0.0
398,99.25,56.1821,61.7839,150.154,97.089,92.9003,0.000403702,0.060555,20.9963,0.360321,0.38991,0.0,0.0
400,99.75,56.4155,62.2166,149.601,97.0917,93.09,0.0004108,0.0605179,20.9963,0.37033,0.372125,0.0,0.0
402,100.25,56.4601,61.3194,147.717,97.0917,93.2234,0.000414246,0.0604684,20.9963,0.380339,0.359467,0.0,0.0
404,100.75,55.8852,61.5906,151.922,97.077,93.4261,0.000417038,0.0604283,20.9963,0.360321,0.338922,0.0,0.0
406,101.25,55.9943,61.1954,145.914,97.0893,92.8176,0.0004193,0.0603547,20.9963,0.360321,0.39782,0.0,0.0
408,101.75,55.8621,61.0077,148.61,97.0702,92.6558,0.000410196,0.0602951,20.9965,0.37033,0.411501,0.0,0.0
410,102.25,55.7561,60.8975,143.568,97.0925,93.1265,0.000402823,0.0602252,20.9968,0.360321,0.368734,0.0,0.0
412,102.75,55.3836,60.0289,145.532,97.0754,93.3421,0.000393206,0.0601492,20.997,0.37033,0.346722,0.0,0.0
414,103.25,55.4278,60.4141,141.489,97.0925,92.9392,0.000385416,0.0600876,20.9972,0.37033,0.386533,0.0,0.0
416,103.75,54.8329,60.3276,146.743,97.0766,93.1245,0.000370604,0.0600377,20.9974,0.37033,0.367475,0.0,0.0
418,104.25,54.4495,60.1436,146.221,97.112,92.8776,0.000358607,0.0599698,20.9975,0.360321,0.394174,0.0,0.0
420,104.75,54.9982,59.5635,144,97.0953,93.4094,0.000348889,0.0599149,20.9976,0.330294,0.342163,0.0,0.0
422,105.25,54.7318,59.6313,145.422,97.0989,93.7147,0.00031067,0.0598776,20.9977,0.330294,0.313644,0.0,0.0
424,105.75,54.8376,59.387,145.954,97.0854,93.073,0.000279713,0.0598539,20.9977,0.330294,0.373163,0.0,0.0
426,106.25,54.7328,59.6397,143.591,97.0985,92.7588,0.000237654,0.0598484,20.9978,0.340303,0.404255,0.0,0.0
428,106.75,54.218,59.2686,143.531,97.089,93.1321,0.000203586,0.0598439,20.9978,0.350312,0.367868,0.0,0.0
430,107.25,54.4164,58.8828,148.716,97.1017,93.587,0.000174778,0.0598187,20.9981,0.350312,0.325954,0.0,0.0
432,107.75,54.3331,59.3702,151.435,97.0941,92.5841,0.000151443,0.0597788,20.9985,0.350312,0.420525,0.0,0.0
434,108.25,54.0636,59.1704,147.786,97.0993,93.9831,0.000149525,0.0597465,20.9989,0.360321,0.288397,0.0,0.0
436,108.75,54.5213,58.5889,149.906,97.0985,93.4869,0.000147972,0.0596929,20.9991,0.330294,0.335127,0.0,0.0
438,109.25,53.8082,58.1773,150.939,97.1124,93.7159,0.000170988,0.0596495,20.9994,0.350312,0.314762,0.0,0.0
440,109.75,53.1066,58.5894,146.232,97.0977,93.2874,0.000189632,0.059587,20.9996,0.360321,0.353938,0.0,0.0
442,110.25,53.4994,58.6474,147.094,97.1124,93.1808,0.000217518,0.0595363,20.9997,0.360321,0.36539,0.0,0.0
444,110.75,53.2475,58.7167,145.961,97.1105,93.5761,0.000251613,0.0594405,20.9998,0.340303,0.327784,0.0,0.0
446,111.25,53.2743,57.8888,147.086,97.1208,94.1517,0.00027923,0.059363,20.9999,0.350312,0.274503,0.0,0.0
448,111.75,53.3621,57.7277,152.769,97.1244,94.1562,0.000301599,0.0593001,21,0.350312,0.274411,0.0,0.0
450,112.25,53.2251,57.463,149.693,97.1228,93.2607,0.000333086,0.0592492,21.0001,0.360321,0.358758,0.0,0.0
452,112.75,52.9313,57.651,145.82,97.1128,93.9182,0.00035859,0.059208,21.0001,0.360321,0.295734,0.0,0.0
454,113.25,52.819,57.4404,150.32,97.1308,93.2793,0.000380463,0.0591746,21.0002,0.360321,0.357716,0.0,0.0
456,113.75,52.483,56.9801,146.45,97.128,93.0689,0.00039818,0.0591475,21.0002,0.380339,0.377427,0.0,0.0
458,114.25,52.8916,57.0596,150.218,97.1423,93.2667,0.000412531,0.0591184,21.0002,0.380339,0.359958,0.0,0.0
460,114.75,52.282,56.8605,149.267,97.13,93.1459,0.000424156,0.0590883,21.0002,0.360321,0.370294,0.0,0.0
462,115.25,52.608,57.2181,151.223,97.1467,93.4573,0.000423849,0.059064,21.0003,0.350312,0.342313,0.0,0.0
464,115.75,52.3855,56.771,149.793,97.1451,93.0049,0.000423601,0.0589895,21.0003,0.340303,0.385073,0.0,0.0
466,116.25,52.0646,56.8969,147.544,97.1586,92.914,0.000411892,0.0589292,21.0003,0.350312,0.394942,0.0,0.0
468,116.75,52.0913,56.4127,146.412,97.1475,92.8431,0.00039205,0.0588947,21.0003,0.360321,0.40068,0.0,0.0
470,117.25,52.0228,56.5475,150.963,97.173,93.4066,0.000361921,0.0588798,21.0003,0.350312,0.3495,0.0,0.0
472,117.75,51.7533,56.4479,150.915,97.1578,93.7585,0.000324866,0.0588605,21.0003,0.340303,0.314878,0.0,0.0
474,118.25,51.8007,56.3747,147.217,97.1869,92.9473,0.000294851,0.0588383,21.0003,0.330294,0.394351,0.0,0.0
476,118.75,51.6719,55.9706,149.253,97.1726,93.4017,0.000260833,0.0587988,21.0003,0.330294,0.349925,0.0,0.0
478,119.25,51.6289,56.0649,143.417,97.177,93.0876,0.000233278,0.0587473,21.0003,0.330294,0.380113,0.0,0.0
480,119.75,51.4855,55.8156,147.907,97.1714,93.4325,0.000215811,0.0587128,21.0003,0.340303,0.3469,0.0,0.0
482,120.25,51.7208,55.8944,147.107,97.1889,93.1009,0.000201664,0.0586914,21.0003,0.340303,0.379929,0.0,0.0
484,120.75,51.4856,55.2223,146.668,97.1981,92.6809,0.000191432,0.058674,21.0003,0.320285,0.420737,0.0,0.0
486,121.25,50.5382,55.0388,147.61,97.2088,93.6916,0.00018119,0.0586599,21.0006,0.330294,0.325825,0.0,0.0
488,121.75,50.3815,54.9753,147.057,97.204,93.3721,0.000178434,0.0586485,21.001,0.330294,0.355588,0.0,0.0
490,122.25,51.2167,55.0497,151.928,97.2084,92.9445,0.000176149,0.0586249,21.0014,0.330294,0.396578,0.0,0.0
492,122.75,50.8661,54.859,145.705,97.2148,92.8439,0.000174299,0.0585928,21.0018,0.330294,0.406726,0.0,0.0
494,123.25,50.7905,55.255,148.561,97.214,93.4419,0.000170373,0.0585667,21.0021,0.320285,0.349893,0.0,0.0
496,123.75,50.9487,54.5053,147.18,97.2323,93.5951,0.000167193,0.0585464,21.0024,0.320285,0.337072,0.0,0.0
498,124.25,50.8092,54.9524,148.417,97.218,93.433,0.000164617,0.05853,21.0026,0.320285,0.351099,0.0,0.0
500,124.75,50.8245,54.1101,148.292,97.2351,93.4759,0.000174667,0.0585303,21.0028,0.320285,0.34859,0.0,0.0
502,125.25,50.8454,54.6895,147.025,97.2371,93.6036,0.000182808,0.0585306,21.0029,0.330294,0.336702,0.0,0.0
504,125.75,50.5732,54.2794,147.101,97.2518,93.4082,0.000189401,0.0584898,21.003,0.310277,0.356517,0.0,0.0
506,126.25,50.1941,54.4331,150.106,97.2474,92.8176,0.000216599,0.0584568,21.003,0.320285,0.412205,0.0,0.0
508,126.75,50.4615,54.134,144.552,97.259,93.4921,0.000238629,0.05843,21.0031,0.320285,0.34923,0.0,0.0
510,127.25,50.2092,54.4984,150.626,97.2578,93.9421,0.000264976,0.0584011,21.0031,0.330294,0.306669,0.0,0.0
512,127.75,50.4022,53.6694,148.903,97.2725,93.3985,0.000286317,0.0583712,21.0032,0.330294,0.35932,0.0,0.0
514,128.25,50.4071,54.2227,149.064,97.2829,93.4804,0.000296315,0.058347,21.0032,0.320285,0.352513,0.0,0.0
516,128.75,50.0719,53.8455,146.946,97.2892,93.3044,0.000304414,0.0583274,21.0032,0.310277,0.369748,0.0,0.0
518,129.25,50.3322,53.775,144.129,97.2885,93.0588,0.000293807,0.0583115,21.0032,0.310277,0.392986,0.0,0.0
520,129.75,49.7334,53.8454,147.459,97.3,93.1151,0.000275669,0.0583534,21.0032,0.300268,0.388684,0.0,0.0
522,130.25,49.7575,53.8134,144.123,97.3032,93.8959,0.000240548,0.0583873,21.0033,0.320285,0.315144,0.0,0.0
524,130.75,49.695,53.6745,149.609,97.3143,93.617,0.000193711,0.0584285,21.0033,0.310277,0.342459,0.0,0.0
526,131.25,49.9522,53.4607,145.823,97.3203,93.7759,0.000155774,0.0584618,21.0033,0.320285,0.328007,0.0,0.0
528,131.75,49.4933,53.4098,148.225,97.3215,94.2061,0.000103314,0.0584614,21.0033,0.320285,0.287655,0.0,0.0
530,132.25,49.5303,53.4291,144.954,97.3199,93.9997,6.0821e-05,0.0584613,21.0033,0.330294,0.306897,0.0,0.0
532,132.75,49.83,53.1662,149.381,97.3518,94.4623,2.64017e-05,0.058461,21.0033,0.330294,0.266391,0.0,0.0
534,133.25,49.3257,53.1276,146.971,97.3366,93.6498,7.00865e-06,0.0584334,21.0032,0.320285,0.341385,0.0,0.0
536,133.75,49.0478,53.2057,145.123,97.3494,93.2278,-8.69975e-06,0.0584111,21.0031,0.330294,0.382475,0.0,0.0
538,134.25,49.0115,52.82,148.768,97.3585,93.2347,-5.66129e-06,0.058447,21.003,0.320285,0.382652,0.0,0.0
540,134.75,49.2405,52.5307,146.896,97.3613,92.8832,-3.20013e-06,0.058476,21.0024,0.330294,0.416299,0.0,0.0
542,135.25,49.2349,52.6255,150.925,97.355,93.917,6.45253e-06,0.0584996,21.002,0.320285,0.317863,0.0,0.0
544,135.75,49.4935,52.6785,147.614,97.3733,93.0494,2.11644e-05,0.0585871,21.0016,0.320285,0.401576,0.0,0.0
546,136.25,48.8706,52.3711,146.095,97.3685,93.3989,3.43582e-05,0.058658,21.0013,0.310277,0.368001,0.0,0.0
548,136.75,49.0482,52.3299,150.633,97.3757,93.5063,4.61946e-05,0.0587154,21.0011,0.320285,0.358488,0.0,0.0
550,137.25,48.6186,52.0385,148.996,97.388,93.4573,5.25901e-05,0.0587619,21.0009,0.320285,0.364248,0.0,0.0
552,137.75,48.5898,52.5025,152.376,97.4027,94.2697,5.48975e-05,0.0588068,21.0008,0.320285,0.289061,0.0,0.0
554,138.25,48.6805,52.0957,143.346,97.3928,92.8504,5.3575e-05,0.0588496,21.0007,0.320285,0.422282,0.0,0.0
556,138.75,48.7923,52.1896,147.52,97.4023,93.9109,4.96314e-05,0.0589131,21.0006,0.320285,0.322737,0.0,0.0
558,139.25,48.5402,52.1048,149.667,97.3999,92.8922,4.64371e-05,0.0589905,21.0005,0.320285,0.418957,0.0,0.0
560,139.75,48.4981,52.3151,149.73,97.4254,92.9826,3.81063e-05,0.059046,21.0004,0.310277,0.412669,0.0,0.0
562,140.25,48.5665,52.1237,149.161,97.4227,93.9604,2.61892e-05,0.0590844,21.0004,0.310277,0.319926,0.0,0.0
564,140.75,48.6327,51.5108,147.325,97.4445,93.1285,1.27074e-05,0.0590723,21.0003,0.290259,0.400538,0.0,0.0
566,141.25,48.3043,51.6287,148.25,97.4195,93.3685,-1.65894e-06,0.0590236,21.0003,0.300268,0.375506,0.0,0.0
568,141.75,48.479,51.8504,149.104,97.4382,92.9696,-1.32957e-05,0.0589842,21.0002,0.290259,0.41506,0.0,0.0
570,142.25,47.9521,51.1769,148.97,97.4434,92.9757,-2.20832e-05,0.0589933,21.0002,0.290259,0.414952,0.0,0.0
572,142.75,47.9912,51.7577,147.791,97.4549,93.6138,-3.14161e-05,0.0590007,21.0002,0.300268,0.355528,0.0,0.0
574,143.25,48.011,51.3287,150.353,97.4418,93.5546,-2.43546e-05,0.0590067,21.0002,0.320285,0.359927,0.0,0.0
576,143.75,47.4748,51.7577,145.613,97.4589,94.0139,-1.22793e-05,0.0590115,21.0002,0.330294,0.318179,0.0,0.0
578,144.25,47.6383,51.6374,148.438,97.4533,93.208,5.1625e-06,0.0590155,21.0002,0.310277,0.393793,0.0,0.0
580,144.75,48.2766,51.1346,152.113,97.4653,94.2012,2.6185e-05,0.0589776,21.0002,0.300268,0.301162,0.0,0.0
582,145.25,48.1185,50.9488,149.182,97.4657,93.9129,4.25746e-05,0.0589469,21.0002,0.310277,0.328293,0.0,0.0
584,145.75,47.8037,50.8472,148.548,97.4812,93.3138,5.52754e-05,0.0589388,21.0002,0.300268,0.386291,0.0,0.0
586,146.25,48.0342,51.1158,150.128,97.482,93.514,6.5563e-05,0.0589409,21.0002,0.300268,0.367407,0.0,0.0
588,146.75,47.9173,51.5999,149.696,97.4915,93.9652,5.73017e-05,0.0589446,21.0001,0.290259,0.325717,0.0,0.0
590,147.25,46.9652,50.4834,145.067,97.4951,93.763,3.56751e-05,0.0589749,21.0001,0.310277,0.345097,0.0,0.0
592,147.75,47.4017,50.0196,150.436,97.515,93.6336,1.81577e-05,0.0590139,21.0001,0.320285,0.359105,0.0,0.0
594,148.25,47.4588,50.661,147.891,97.5222,93.904,3.96849e-06,0.0590584,21.0001,0.290259,0.334259,0.0,0.0
596,148.75,47.7275,50.6604,149.938,97.5194,93.6105,-7.52473e-06,0.0590945,21.0003,0.28025,0.361685,0.0,0.0
598,149.25,47.6072,50.8313,143.516,97.5122,93.3912,-1.68342e-05,0.0591165,21.0004,0.300268,0.381773,0.0,0.0
600,149.75,47.4334,50.2944,151.753,97.5449,93.4447,2.30212e-06,0.0591279,21.0005,0.290259,0.379669,0.0,0.0
602,150.25,47.5759,49.8577,152.015,97.5365,94.1197,1.78026e-05,0.0591371,21.0006,0.300268,0.315276,0.0,0.0
604,150.75,47.296,50.639,146.666,97.5465,93.887,5.82673e-05,0.0591445,21.0007,0.300268,0.338064,0.0,0.0
606,151.25,46.9086,49.9188,146.439,97.5369,93.7419,9.10438e-05,0.0591643,21.0008,0.320285,0.350876,0.0,0.0
608,151.75,46.7847,49.7759,142.31,97.5549,93.2234,0.000128457,0.0591802,21.0008,0.320285,0.401539,0.0,0.0
610,152.25,46.8137,50.2921,147.872,97.5529,93.3263,0.000168541,0.0591521,21.0008,0.300268,0.391598,0.0,0.0
612,152.75,47.0468,50.1908,149.519,97.5572,93.7066,0.000206123,0.0591293,21.0009,0.28025,0.356044,0.0,0.0
614,153.25,47.3918,50.1008,150.969,97.5628,94.6147,0.000241167,0.0590972,21.0009,0.28025,0.271282,0.0,0.0
616,153.75,47.2896,49.9529,147.935,97.5644,93.5817,0.000269553,0.0590711,21.0009,0.290259,0.368482,0.0,0.0
618,154.25,47.4367,50.1029,150.289,97.5692,93.3271,0.000292546,0.0590717,21.0009,0.28025,0.393,0.0,0.0
620,154.75,47.1688,50.4043,149.68,97.5748,93.0567,0.00031117,0.0590915,21.0009,0.290259,0.419159,0.0,0.0
622,155.25,46.3465,49.3505,146.517,97.5867,94.067,,0.0591221,,0.28025,0.324775,0.0,0.0
624,155.75,46.0775,49.5371,145.759,97.5947,93.6575,,0.0591597,,0.290259,0.364065,0.0,0.0
626,156.25,46.4851,49.3807,149.677,97.5943,94.2052,,0.0591903,,0.300268,0.312477,0.0,0.0
628,156.75,46.577,49.8079,149.311,97.6042,94.0565,,0.0592078,,0.300268,0.327353,0.0,0.0
630,157.25,46.3516,49.3957,146.18,97.6086,93.4934,,0.0592155,,0.300268,0.38084,0.0,0.0
632,157.75,46.7089,49.5217,148.023,97.619,93.9425,,0.0592361,,0.290259,0.339402,0.0,0.0
634,158.25,47.0829,49.4822,145.65,97.6174,93.4946,,,,0.300268,0.381519,0.0,0.0
636,158.75,46.9262,49.4632,153.29,97.6429,93.9004,,,,0.310277,0.345535,0.0,0.0
638,159.25,46.4058,49.0694,148.443,97.6257,93.5594,,,,0.290259,0.376144,0.0,0.0
640,159.75,46.6929,49.0825,149.384,97.6313,93.2744,,,,0.290259,0.403622,0.0,0.0
642,160.25,46.8242,49.1988,150.631,97.6309,94.1996,,,,0.300268,0.316328,0.0,0.0
644,160.75,46.5723,49.45,144.407,97.6345,94.0686,,,,0.300268,0.328951,0.0,0.0
646,161.25,46.2654,48.9618,148.371,97.6484,94.2336,,,,0.310277,0.31472,0.0,0.0
648,161.75,46.3606,49.011,146.488,97.6452,94.0394,,,,0.320285,0.332669,0.0,0.0
650,162.25,46.4639,49.5413,150.37,97.6488,94.6224,,,,0.310277,0.278354,0.0,0.0
652,162.75,46.7063,49.3605,148.692,97.6596,94.2251,,,,0.300268,0.316527,0.0,0.0
654,163.25,46.4051,48.7197,151.385,97.6664,93.3604,,,,0.310277,0.398652,0.0,0.0
656,163.75,46.2672,49.2844,150.561,97.6763,94.515,,,,0.300268,0.290884,0.0,0.0
658,164.25,46.2494,49.3864,148.945,97.6747,94.6102,,,,0.310277,0.281834,0.0,0.0
660,164.75,46.3139,49.2852,150.622,97.6719,93.6235,,,,0.300268,0.374276,0.0,0.0
662,165.25,46.1147,48.9667,148.222,97.6775,93.8116,,,,0.300268,0.357035,0.0,0.0
664,165.75,46.3225,49.1031,147.504,97.6807,94.063,,,,0.300268,0.333666,0.0,0.0
665,166,46.1528,49.2826,146.742,97.6787,94.0796,,,,0.310277,0.331924,0.0,0.0