File: 01_Data/PE_Foam_Pipe_Insulation/Cone/PE_Foam_Pipe_Insulation_Cone_HF75Scan_220316_R3.csv
Names,Time,Stack TC,Smoke TC,Exh Press,Smoke Comp,Smoke Meas,CO Meter,CO2 Meter,O2 Meter,Sample Mass,Ext Coeff,Start Test,Flame Verif
Chan Gain,,500,500,1,1,1,1,1,1,1,1,1.0,1.0
Offset,,0,0,0.135167,0,0,0,0,0,0,0,0.0,0.0
Gain,,1,1,25.011,13.0486,13.2841,1,1,1,1.00089,1.0079,1.0,1.0
Units,sec,C,C,Pa,%,%,%,%,%,g,/m,,
Baseline,,41.7072,43.0415,149.5,98.8513,95.6853,0.000414803,0.0604859,20.9928,-492.459,0.287903,,
2,0.25,40.7473,41.5245,146.897,99.0991,94.4647,0.00112686,0.0685875,20.9774,1.80161,0.423446,0.0,0.0
4,0.75,40.1604,41.609,147.172,99.1123,95.5856,0.00130659,0.0738781,20.9635,1.78159,0.320324,0.0,0.0
6,1.25,40.1747,41.2424,145.698,99.1063,95.6339,0.00151423,0.0781634,20.9399,1.83163,0.315331,0.0,1.0
8,1.75,40.0879,41.5857,145.042,99.1027,94.4452,0.00157009,0.0889651,20.9288,1.82162,0.425587,0.0,1.0
10,2.25,40.2834,41.5265,137.181,99.1115,92.6801,0.00181174,0.0977145,20.91,1.66148,0.593168,0.0,1.0
12,2.75,40.0876,41.5332,136.277,99.1059,92.4207,0.00200748,0.109206,20.8946,1.66148,0.617458,0.0,1.0
14,3.25,40.5218,41.4373,138.098,99.1083,90.4253,0.00216603,0.122479,20.8823,1.63145,0.810646,0.0,1.0
16,3.75,40.729,41.9701,137.649,99.0947,89.2707,0.00235023,0.13323,20.8616,1.70152,0.923053,0.0,1.0
18,4.25,41.0185,42.0407,137.322,99.1007,88.8986,0.00254963,0.150131,20.8449,1.67149,0.960521,0.0,1.0
20,4.75,41.2419,42.2922,139.482,99.1134,91.2016,0.002756,0.155383,20.8321,1.64146,0.735525,0.0,1.0
22,5.25,41.5819,42.617,142.454,99.1007,91.256,0.00296354,0.164362,20.8217,1.63145,0.729124,0.0,1.0
24,5.75,41.8738,42.8596,139.768,99.0971,90.628,0.00320208,0.171783,20.8129,1.63145,0.789854,0.0,1.0
26,6.25,41.4903,42.4583,146.024,99.0967,88.633,0.00345868,0.177794,20.8027,1.62144,0.986614,0.0,1.0
28,6.75,41.5613,42.9126,142.584,99.0987,88.4745,0.00379103,0.182663,20.7918,1.61144,1.00262,0.0,1.0
30,7.25,41.8245,42.8634,139.001,99.0987,82.9809,0.00417229,0.188662,20.7738,1.55138,1.56937,0.0,1.0
32,7.75,42.4486,43.6415,136.765,99.0963,81.9585,0.00465938,0.19537,20.751,1.56139,1.67877,0.0,1.0
34,8.25,42.4564,43.3345,136.932,99.0916,81.6362,0.00521436,0.204215,20.7326,1.48132,1.71318,0.0,1.0
36,8.75,42.3702,43.7399,135.483,99.0872,80.8116,0.0056639,0.214449,20.6964,1.44128,1.80255,0.0,1.0
38,9.25,43.1307,43.8064,141.964,99.0967,77.1675,0.0067221,0.228641,20.6671,1.40125,2.21136,0.0,0.0
40,9.75,43.3084,44.0701,131.308,99.0844,74.9228,0.00757925,0.245448,20.6268,1.3412,2.47125,0.0,0.0
42,10.25,43.6365,44.6784,126.007,99.1007,69.2488,0.00887175,0.274864,20.5793,1.29115,3.16898,0.0,0.0
44,10.75,43.7293,44.8809,130.238,99.0824,67.4164,0.00991868,0.298691,20.5408,1.18105,3.40445,0.0,0.0
46,11.25,43.9551,45.876,126.093,99.0963,64.6171,0.0107667,0.33044,20.4706,1.17104,3.78064,0.0,0.0
48,11.75,44.7385,45.5749,114.38,99.0892,63.9288,0.0123364,0.367362,20.4137,1.04093,3.87469,0.0,0.0
50,12.25,45.1265,46.5421,117.927,99.0931,65.6185,0.0136079,0.397269,20.3437,1.00089,3.6444,0.0,0.0
52,12.75,45.861,46.9367,111.347,99.0832,63.8898,0.0152459,0.450755,20.2653,0.920821,3.87954,0.0,0.0
54,13.25,46.8946,47.823,122.857,99.1047,63.2436,0.0165727,0.494078,20.1739,0.860767,3.97134,0.0,0.0
56,13.75,47.7744,48.7747,113.703,99.0804,64.1205,0.0179153,0.544601,20.0746,0.860767,3.84743,0.0,0.0
58,14.25,48.5411,49.7774,102.322,99.0987,64.3281,0.0192439,0.599414,19.9942,0.710633,3.82049,0.0,0.0
60,14.75,49.6285,50.2833,113.918,99.0808,65.9716,0.0205396,0.643812,19.8715,0.65058,3.59585,0.0,0.0
62,15.25,50.3841,51.7488,99.6027,99.0888,62.0096,0.0217866,0.714329,19.7721,0.570508,4.14414,0.0,0.0
64,15.75,51.3073,52.9413,104.67,99.0764,63.9644,0.0227967,0.771448,19.6393,0.46041,3.86862,0.0,0.0
66,16.25,52.7992,54.1237,100.485,99.0852,60.3592,0.0241071,0.843077,19.5317,0.420375,4.38232,0.0,0.0
68,16.75,54.2329,55.3398,99.2547,99.0792,61.0354,0.0251685,0.901097,19.4292,0.320285,4.28329,0.0,0.0
70,17.25,55.458,57.0795,109.56,99.0856,62.1417,0.0263108,0.966511,19.3323,0.230205,4.12503,0.0,0.0
72,17.75,57.2009,58.5607,102.721,99.0597,59.7491,0.027236,1.0195,19.241,0.120107,4.46987,0.0,0.0
74,18.25,58.436,60.0583,102.831,99.0888,58.8138,0.0280862,1.07071,19.1555,0.0500446,4.61195,0.0,0.0
76,18.75,60.0505,61.5968,103.55,99.0621,58.2888,0.0288654,1.11967,19.0772,-0.0100089,4.68884,0.0,0.0
78,19.25,61.2036,63.4191,105.597,99.0768,57.9045,0.0295492,1.15932,19.0055,-0.140125,4.74865,0.0,0.0
80,19.75,62.3414,64.7029,107.392,99.0645,61.9285,0.0301506,1.20158,18.9475,-0.250223,4.15354,0.0,0.0
82,20.25,63.8033,66.18,102.015,99.0764,60.9215,0.0306293,1.23581,18.9005,-0.290259,4.29955,0.0,0.0
84,20.75,65.1911,67.7035,104.298,99.0597,61.7591,0.031017,1.26692,18.8624,-0.340303,4.17734,0.0,0.0
86,21.25,66.6618,69.5153,99.7088,99.0689,62.269,0.0312716,1.29212,18.8316,-0.430384,4.10545,0.0,0.0
88,21.75,67.9042,70.6795,99.4043,99.0533,60.5724,0.0314244,1.31265,18.8066,-0.530473,4.3483,0.0,0.0
90,22.25,68.5243,71.7744,99.1394,99.0685,60.9778,0.0315482,1.32939,18.7866,-0.680607,4.29067,0.0,0.0
92,22.75,69.6968,73.5214,105.507,99.0541,63.1305,0.031497,1.33948,18.7706,-0.670598,3.98265,0.0,0.0
94,23.25,71.1801,75.3857,101.027,99.0812,62.2159,0.0313191,1.34765,18.7577,-0.840749,4.11409,0.0,0.0
96,23.75,72.6661,76.5946,116.651,99.0581,62.593,0.0310685,1.34845,18.7585,-0.93083,4.05862,0.0,0.0
98,24.25,73.4566,77.8265,102.979,99.0613,61.5762,0.0307696,1.3491,18.7592,-1.0109,4.20369,0.0,0.0
100,24.75,74.5565,79.1115,106.274,99.0573,62.5034,0.0305275,1.34963,18.7704,-1.0109,4.07121,0.0,0.0
102,25.25,75.6143,80.0142,107.184,99.082,61.7347,0.0301229,1.34196,18.7795,-1.10098,4.18281,0.0,0.0
104,25.75,76.1346,81.5265,114.823,99.0513,61.9281,0.0297952,1.33575,18.7869,-1.2311,4.15243,0.0,0.0
106,26.25,77.3842,82.2912,97.9121,99.0605,64.8231,0.0295298,1.32809,18.7973,-1.30116,3.74931,0.0,0.0
108,26.75,78.6418,83.472,106.903,99.0525,66.1645,0.0290632,1.31952,18.8097,-1.38123,3.5675,0.0,0.0
110,27.25,79.3626,83.9848,109.722,99.0645,66.1126,0.0286852,1.31046,18.8267,-1.4613,3.57551,0.0,0.0
112,27.75,79.6811,85.1303,104.333,99.0541,65.4222,0.0282483,1.3012,18.8468,-1.53136,3.66739,0.0,0.0
114,28.25,80.5034,86.3604,108.503,99.0569,66.3259,0.0278945,1.2937,18.8663,-1.64146,3.54636,0.0,0.0
116,28.75,81.5964,87.1242,103.08,99.0362,66.0453,0.0275131,1.2837,18.8851,-1.71153,3.58198,0.0,0.0
118,29.25,81.7841,88.2129,111.899,99.0553,66.9482,0.0272042,1.27561,18.9003,-1.72153,3.46365,0.0,0.0
120,29.75,82.6912,88.8496,104.94,99.037,70.4427,0.026954,1.26905,18.9188,-1.82162,3.01216,0.0,0.0
122,30.25,83.7385,89.7401,110.498,99.0561,67.3483,0.0266377,1.26006,18.9338,-1.89169,3.41104,0.0,0.0
124,30.75,84.4738,90.4513,99.5684,99.041,67.6171,0.0263814,1.25278,18.9459,-1.96175,3.37447,0.0,0.0
126,31.25,84.7098,91.5646,108.688,99.0637,68.6995,0.0261228,1.24683,18.9558,-2.07185,3.23609,0.0,0.0
128,31.75,85.9178,92.1129,104.558,99.0446,68.7567,0.0258674,1.242,18.9638,-2.10187,3.22703,0.0,0.0
130,32.25,86.6922,92.8816,106.432,99.0458,68.7417,0.0256605,1.23793,18.9711,-2.14191,3.22906,0.0,0.0
132,32.75,87.3585,93.7363,107.061,99.041,69.1454,0.0253391,1.23448,18.977,-2.30205,3.17686,0.0,0.0
134,33.25,88.1887,94.6258,106.048,99.0489,67.4683,0.0250787,1.23169,18.9835,-2.34209,3.39466,0.0,0.0
136,33.75,88.8132,95.6482,105.269,99.0342,69.7929,0.0247564,1.2279,18.9902,-2.40214,3.09386,0.0,0.0
138,34.25,89.7682,96.1649,108.116,99.0418,69.2241,0.0244953,1.22484,18.998,-2.48221,3.16688,0.0,0.0
140,34.75,90.0904,97.184,99.6157,99.0342,70.8728,0.024181,1.22093,19.0063,-2.54227,2.95809,0.0,0.0
142,35.25,90.8901,98.1024,116.305,99.039,70.3414,0.0239263,1.21649,19.0176,-2.62234,3.02507,0.0,0.0
144,35.75,91.4047,98.9448,106.691,99.0346,70.0122,0.0236617,1.21289,19.0306,-2.71242,3.06615,0.0,0.0
146,36.25,92.147,99.7293,109.79,99.0398,67.444,0.0233949,1.20547,19.0412,-2.74244,3.39703,0.0,0.0
148,36.75,92.8916,100.115,110.759,99.0406,69.1037,0.0231788,1.19947,19.0596,-2.8025,3.18216,0.0,0.0
150,37.25,93.4709,100.86,108.96,99.0418,69.2549,0.0228099,1.18966,19.0744,-2.89258,3.16294,0.0,0.0
152,37.75,94.1437,101.649,103.195,99.0346,70.8372,0.0225111,1.18172,19.0937,-2.94262,2.96258,0.0,0.0
154,38.25,95.034,102.286,108.658,99.0426,70.8878,0.0220681,1.1673,19.1158,-3.01268,2.95697,0.0,0.0
156,38.75,95.3727,102.823,109.878,99.0394,71.4716,0.0217093,1.15562,19.1438,-3.0327,2.88417,0.0,0.0
158,39.25,95.7775,103.754,108.432,99.047,70.5801,0.0211481,1.13919,19.1754,-3.11277,2.99582,0.0,0.0
160,39.75,96.0869,104.415,116.401,99.0322,72.7101,0.0206936,1.1196,19.2163,-3.17283,2.73164,0.0,0.0
162,40.25,96.242,104.946,116.521,99.0306,72.3899,0.0201347,1.10374,19.263,-3.23288,2.77053,0.0,0.0
164,40.75,96.7076,105.033,116.593,99.035,73.42,0.0195104,1.07374,19.3206,-3.24289,2.64599,0.0,0.0
166,41.25,97.1477,106.033,120.708,99.0298,73.9985,0.0187875,1.04944,19.3852,-3.30294,2.57614,0.0,0.0
168,41.75,97.6587,105.69,127.817,99.0338,73.8428,0.0180065,1.01141,19.4375,-3.34298,2.59511,0.0,0.0
170,42.25,97.7495,106.331,127.643,99.0378,75.505,0.0173739,0.980609,19.5171,-3.37301,2.39866,0.0,0.0
172,42.75,97.718,106.493,123.579,99.045,75.9776,0.0164155,0.934697,19.5816,-3.39302,2.34413,0.0,0.0
174,43.25,97.923,107.015,129.932,99.0262,78.5945,0.0156393,0.897509,19.656,-3.41304,2.04307,0.0,0.0
176,43.75,97.9005,106.643,132.655,99.0378,80.2518,0.0150105,0.843279,19.7362,-3.43306,1.85961,0.0,0.0
178,44.25,97.4185,106.929,129.815,99.0235,81.8718,0.0139113,0.799353,19.8264,-3.42305,1.68163,0.0,0.0
180,44.75,97.4729,106.363,135.311,99.0199,86.2728,0.013021,0.749817,19.9221,-3.40303,1.21838,0.0,0.0
182,45.25,97.4207,106.401,145.027,99.025,92.6124,0.0119709,0.697134,20.023,-3.42305,0.591919,0.0,0.0
184,45.75,96.9923,106.431,141.468,99.0322,94.1104,0.0111204,0.654461,20.1257,-3.43306,0.4507,0.0,0.0
186,46.25,96.5156,106.038,146.736,99.0183,94.1947,0.0101929,0.59106,20.2248,-3.42305,0.441538,0.0,0.0
188,46.75,95.4591,104.582,145.843,99.0183,95.0829,0.00944168,0.539706,20.3193,-3.43306,0.358557,0.0,0.0
190,47.25,94.8208,103.805,147.177,99.0119,94.8879,0.00873393,0.498109,20.4026,-3.43306,0.376138,0.0,0.0
192,47.75,94.1491,104.278,146.753,99.0159,94.8794,0.00807135,0.454805,20.4762,-3.43306,0.377288,0.0,0.0
194,48.25,93.2605,103.606,148.31,99.0346,94.9759,0.00741031,0.411079,20.5358,-3.42305,0.369973,0.0,0.0
196,48.75,92.416,103.1,145.943,99.0155,95.7328,0.00687487,0.37143,20.5892,-3.43306,0.298088,0.0,0.0
198,49.25,92.1175,101.955,144.68,99.0083,93.9178,0.00644117,0.335505,20.6371,-3.45308,0.466676,0.0,0.0
200,49.75,91.4865,100.991,139.922,99.029,94.5932,0.0059313,0.303705,20.6783,-3.45308,0.405171,0.0,0.0
202,50.25,91.4346,100.555,147.161,99.0055,95.2463,0.0055183,0.275518,20.7138,-3.46309,0.34224,0.0,0.0
204,50.75,90.6647,99.7837,150.029,99.0135,95.8495,0.00518378,0.250876,20.7426,-3.44307,0.287134,0.0,0.0
206,51.25,89.835,99.2357,148.728,99.0091,95.2467,0.00477461,0.229287,20.7682,-3.42305,0.342523,0.0,0.0
208,51.75,89.5783,98.2503,144.331,99.0167,95.1681,0.00444319,0.2118,20.7911,-3.44307,0.350502,0.0,0.0
210,52.25,88.3989,98.0242,150.208,99.0012,95.3055,0.00409723,0.19562,20.8096,-3.45308,0.336358,0.0,0.0
212,52.75,87.9202,97.591,148.6,99.0099,95.2106,0.003817,0.180702,20.8286,-3.44307,0.345944,0.0,0.0
214,53.25,87.6689,97.026,149.942,98.9924,94.6982,0.00353704,0.168619,20.844,-3.45308,0.392092,0.0,0.0
216,53.75,87.328,95.9451,147.195,99.0139,94.9171,0.0032626,0.156785,20.86,-3.44307,0.373597,0.0,0.0
218,54.25,86.7439,95.5682,142.25,98.9968,94.6686,0.00300292,0.147199,20.8729,-3.44307,0.395247,0.0,0.0
220,54.75,85.7893,94.8791,144.782,98.9988,95.3663,0.00275893,0.138026,20.8861,-3.42305,0.330504,0.0,0.0
222,55.25,85.5655,94.5278,145.782,98.9892,95.1328,0.00253364,0.130596,20.8967,-3.43306,0.351326,0.0,0.0
224,55.75,84.8413,94.3199,147.535,99.0023,95.6075,0.00232625,0.123977,20.9067,-3.43306,0.30849,0.0,0.0
226,56.25,84.9582,93.2808,146.997,98.9888,95.584,0.00213706,0.118075,20.9148,-3.43306,0.309456,0.0,0.0
228,56.75,83.9898,92.5469,145.982,98.994,95.745,0.00196474,0.113295,20.9226,-3.45308,0.295043,0.0,0.0
230,57.25,83.6353,92.0722,151.831,98.9884,95.1024,0.00182515,0.108521,20.929,-3.47309,0.35408,0.0,0.0
232,57.75,82.7894,91.96,149.208,98.9924,94.5742,0.00169475,0.104655,20.9342,-3.46309,0.403681,0.0,0.0
234,58.25,82.1768,91.0424,147.336,98.9844,95.2098,0.00157353,0.100969,20.9392,-3.46309,0.343743,0.0,0.0
236,58.75,82.0958,90.7626,149.632,99.0004,94.9317,0.00147085,0.0979828,20.9433,-3.46309,0.371028,0.0,0.0
238,59.25,81.6049,89.1038,147.422,99.0008,95.0529,0.00138364,0.0950526,20.9476,-3.45308,0.359782,0.0,0.0
240,59.75,80.4341,89.2599,145.775,98.9948,95.1908,0.00130786,0.0926792,20.951,-3.45308,0.346438,0.0,0.0
242,60.25,80.6522,89.5965,149.723,98.9805,95.3606,0.00124187,0.0902869,20.9542,-3.46309,0.329395,0.0,0.0
244,60.75,80.2929,88.7938,142.28,98.9809,95.1133,0.001182,0.0883492,20.9568,-3.50312,0.352387,0.0,0.0
246,61.25,80.1016,88.167,146.545,98.9809,94.7416,0.00112773,0.086569,20.9593,-3.51313,0.387011,0.0,0.0
248,61.75,79.1966,87.9554,148.714,98.9828,95.1709,0.00107609,0.0849374,20.9614,-3.50312,0.347216,0.0,0.0
250,62.25,78.6776,87.3428,144.47,98.9657,95.826,0.00102733,0.0834633,20.9635,-3.49311,0.285034,0.0,0.0
252,62.75,78.7262,87.1932,148.152,98.9856,94.4833,0.000987839,0.0821322,20.9652,-3.47309,0.41157,0.0,0.0
254,63.25,77.8724,86.2087,145.992,98.9645,95.6156,0.000938806,0.0809234,20.9668,-3.50312,0.304362,0.0,0.0
256,63.75,77.7277,86.0637,150.927,98.9872,95.2905,0.00089909,0.0798267,20.9683,-3.49311,0.336505,0.0,0.0
258,64.25,77.3579,85.4407,148.598,98.9836,94.7712,0.00086692,0.0788296,20.9696,-3.49311,0.3845,0.0,0.0
260,64.75,76.8936,85.0653,148.006,98.9805,96.0535,0.000830615,0.0779241,20.9706,-3.50312,0.265392,0.0,0.0
262,65.25,76.4723,84.3777,147.892,98.9645,95.3229,0.000791987,0.0771907,20.9714,-3.47309,0.331469,0.0,0.0
264,65.75,76.1174,83.9827,148.191,98.9864,95.419,0.000762619,0.0763763,20.9725,-3.45308,0.324517,0.0,0.0
266,66.25,75.7142,83.7215,144.118,98.9681,95.0671,0.000740559,0.0757166,20.9734,-3.45308,0.355547,0.0,0.0
268,66.75,75.073,82.5953,145.825,98.9769,94.4096,0.000725253,0.0751823,20.9745,-3.44307,0.417695,0.0,0.0
270,67.25,74.5338,82.8922,147.474,98.9789,95.5573,0.000715159,0.0745155,20.9755,-3.45308,0.311042,0.0,0.0
272,67.75,74.537,82.499,146.198,98.9872,94.9933,0.000703142,0.0739753,20.9762,-3.46309,0.364119,0.0,0.0
274,68.25,74.215,81.8407,146.931,98.9685,95.1308,0.00068995,0.0734075,20.9769,-3.46309,0.349664,0.0,0.0
276,68.75,74.1528,81.7051,143.17,98.9876,95.327,0.000665824,0.0728303,20.9778,-3.46309,0.333155,0.0,0.0
278,69.25,73.4955,81.4171,148.11,98.9649,95.0712,0.000634186,0.0722615,20.9786,-3.46309,0.354884,0.0,0.0
280,69.75,73.0303,80.8768,151.298,98.9745,95.196,0.00059257,0.0717095,20.9796,-3.47309,0.344134,0.0,0.0
282,70.25,72.66,80.5004,144.831,98.9601,94.4059,0.000544472,0.0712191,20.9805,-3.50312,0.416542,0.0,0.0
284,70.75,71.9972,80.5239,146.939,98.9709,94.9046,0.000505512,0.0707827,20.9812,-3.4831,0.370927,0.0,0.0
286,71.25,71.8179,79.7929,145.766,98.9617,95.5127,0.000473955,0.0703786,20.982,-3.47309,0.313639,0.0,0.0
288,71.75,71.4767,79.0438,147.127,98.9617,95.0675,0.000448393,0.0700058,20.9828,-3.47309,0.354939,0.0,0.0
290,72.25,71.1243,79.325,143.418,98.9665,95.5228,0.000419187,0.0696387,20.9835,-3.4831,0.313128,0.0,0.0
292,72.75,70.6854,78.3549,149.606,98.988,94.9743,0.000395531,0.0692827,20.9837,-3.50312,0.365962,0.0,0.0
294,73.25,70.4396,78.1972,146.115,98.9574,95.3468,0.000390943,0.0689944,20.9839,-3.50312,0.32861,0.0,0.0
296,73.75,70.4074,78.1092,145.792,98.9645,95.0704,0.000387228,0.0686373,20.984,-3.49311,0.354925,0.0,0.0
298,74.25,70.2615,77.7638,149.323,98.9522,96.1305,0.000388694,0.068348,20.9841,-3.49311,0.25578,0.0,0.0
300,74.75,69.9212,77.0935,144.708,98.9625,95.4121,0.00039391,0.0681137,20.9842,-3.4831,0.323023,0.0,0.0
302,75.25,69.0722,76.8885,148.128,98.9574,95.3517,0.000398135,0.0678082,20.9842,-3.49311,0.328158,0.0,0.0
304,75.75,68.9725,76.5204,147.507,98.9613,94.5129,0.000395482,0.0674568,20.9843,-3.50312,0.406632,0.0,0.0
306,76.25,68.9129,75.7892,144.43,98.9558,94.5446,0.000393333,0.0671721,20.9848,-3.50312,0.403176,0.0,0.0
308,76.75,68.5462,75.7541,148.545,98.9582,95.0477,0.00038309,0.0668866,20.9852,-3.51313,0.356467,0.0,0.0
310,77.25,68.4626,75.4828,140.91,98.9609,95.0278,0.000372875,0.0666554,20.9855,-3.51313,0.358564,0.0,0.0
312,77.75,67.7816,75.2258,151.642,98.957,95.0862,0.000362875,0.0664319,20.9857,-3.50312,0.352778,0.0,0.0
314,78.25,67.5124,74.9391,151.758,98.9486,95.0862,0.000354775,0.0662184,20.986,-3.52314,0.352031,0.0,0.0
316,78.75,67.2121,74.7021,146.574,98.9514,95.8268,0.000347575,0.0660239,20.9861,-3.53315,0.283678,0.0,0.0
318,79.25,66.9958,74.3217,147.551,98.9482,95.8504,0.000341168,0.0658467,20.9863,-3.52314,0.281225,0.0,0.0
320,79.75,66.1167,74.128,148.47,98.9458,94.4533,0.000335978,0.0656599,20.9868,-3.53315,0.41082,0.0,0.0
322,80.25,66.6745,73.2894,147.236,98.9291,95.6209,0.00033056,0.0654696,20.9873,-3.52314,0.300707,0.0,0.0
324,80.75,66.2293,73.3563,147.075,98.9351,95.6728,0.000326171,0.0653155,20.9876,-3.50312,0.296445,0.0,0.0
326,81.25,65.6605,73.2219,149.78,98.9319,94.0723,0.000335976,0.0650672,20.9879,-3.49311,0.445318,0.0,0.0
328,81.75,65.6066,72.8997,147.937,98.9183,95.2848,0.000343919,0.064866,20.9886,-3.50312,0.330875,0.0,0.0
330,82.25,65.7294,72.4652,144.715,98.9307,95.1887,0.000363718,0.0646381,20.9892,-3.51313,0.340898,0.0,0.0
332,82.75,65.426,72.1855,147.377,98.9291,95.2297,0.000388073,0.0643951,20.9896,-3.52314,0.336953,0.0,0.0
334,83.25,64.8701,72.1375,147.757,98.9462,95.1616,0.000415286,0.0641621,20.99,-3.53315,0.344809,0.0,0.0
336,83.75,64.8359,71.9142,149.193,98.9331,95.2958,0.000450771,0.0639409,20.9903,-3.52314,0.331176,0.0,0.0
338,84.25,64.577,71.4649,145.701,98.9394,94.3986,0.000491612,0.0637546,20.9905,-3.51313,0.415376,0.0,0.0
340,84.75,64.4984,71.121,145.377,98.9366,94.862,0.000524693,0.0635971,20.9907,-3.51313,0.371833,0.0,0.0
342,85.25,63.9554,70.8148,147.364,98.9136,94.6439,0.000551489,0.0634696,20.9908,-3.49311,0.39012,0.0,0.0
344,85.75,64.0584,70.2885,146.317,98.9275,94.2036,0.000613277,0.0633663,20.9911,-3.51313,0.43259,0.0,0.0
346,86.25,63.2649,69.6347,150.657,98.9362,94.6901,0.000663325,0.063261,20.9914,-3.52314,0.387833,0.0,0.0
348,86.75,62.9318,69.2534,146.126,98.9211,95.7851,0.00072214,0.0631562,20.9913,-3.50312,0.284829,0.0,0.0
350,87.25,62.9966,69.3819,148.622,98.9195,94.4769,0.00076978,0.0630713,20.9911,-3.49311,0.406272,0.0,0.0
352,87.75,63.2204,69.5556,147.994,98.9227,96.3445,0.000804712,0.0630101,20.9909,-3.4831,0.233481,0.0,0.0
354,88.25,62.4924,69.4827,148.29,98.9195,96.0826,0.000833007,0.0629675,20.9907,-3.49311,0.257262,0.0,0.0
356,88.75,62.9212,68.6685,148.481,98.9171,95.5637,0.00084496,0.062933,20.9906,-3.4831,0.304927,0.0,0.0
358,89.25,62.3785,68.8116,147.521,98.9243,95.0606,0.000854643,0.0629461,20.9905,-3.50312,0.352235,0.0,0.0
360,89.75,62.1523,68.7236,146.533,98.9044,95.6882,0.000850306,0.0629568,20.9904,-3.4831,0.29228,0.0,0.0
362,90.25,61.6395,67.9058,149.693,98.9175,96.1682,0.000846793,0.062938,20.9903,-3.4831,0.249216,0.0,0.0
364,90.75,61.1963,67.5995,146.349,98.9199,94.5669,0.000837539,0.0629227,20.9903,-3.49311,0.397887,0.0,0.0
366,91.25,60.9453,67.6563,144.838,98.9167,95.4429,0.000824276,0.0629104,20.9902,-3.49311,0.316074,0.0,0.0
368,91.75,61.6432,67.1955,148.616,98.9223,95.3975,0.000813533,0.0629004,20.9902,-3.50312,0.32078,0.0,0.0
370,92.25,61.4212,67.4038,148.539,98.9231,94.701,0.000785359,0.0629198,20.9902,-3.50312,0.385637,0.0,0.0
372,92.75,60.6723,67.2665,148.925,98.9136,96.0072,0.000762538,0.0629354,20.9901,-3.49311,0.263669,0.0,0.0
374,93.25,60.841,66.9435,149.322,98.9096,94.6869,0.00073797,0.0629409,20.9901,-3.52314,0.385751,0.0,0.0
376,93.75,60.8817,66.3531,144.889,98.9108,94.9179,0.00071807,0.0629388,20.9901,-3.52314,0.364308,0.0,0.0
378,94.25,59.8717,66.7174,150.003,98.9163,95.2897,0.000697517,0.0629371,20.9901,-3.52314,0.330246,0.0,0.0
380,94.75,59.437,65.7463,147.668,98.9056,95.5285,0.000668082,0.0629632,20.9898,-3.51313,0.307157,0.0,0.0
382,95.25,59.9832,66.2617,150.853,98.9128,95.5544,0.000660164,0.0629843,20.9896,-3.53315,0.305398,0.0,0.0
384,95.75,59.9048,65.8901,146.604,98.9092,94.7866,0.000621018,0.062974,20.9891,-3.52314,0.376408,0.0,0.0
386,96.25,59.0248,64.6787,148.648,98.91,94.9787,0.000577232,0.0629656,20.9887,-3.51313,0.358574,0.0,0.0
388,96.75,58.6476,64.9732,150.863,98.9068,95.6659,0.000541766,0.063,20.9885,-3.52314,0.294555,0.0,0.0
390,97.25,59.0346,65.2005,145.564,98.9151,95.4223,0.000487534,0.0630278,20.9882,-3.50312,0.317848,0.0,0.0
392,97.75,59.1185,64.7132,148.387,98.8956,94.4886,0.000443605,0.06306,20.988,-3.51313,0.403035,0.0,0.0
394,98.25,59.1777,64.3892,145.456,98.8968,95.3769,0.000386177,0.0630686,20.9879,-3.51313,0.320419,0.0,0.0
396,98.75,58.4534,64.2945,146.669,98.8893,94.8973,0.000339659,0.0629713,20.9877,-3.50312,0.364311,0.0,0.0
398,99.25,58.3971,64.7654,148.382,98.9004,95.1908,0.000288575,0.0629215,20.9876,-3.52314,0.338005,0.0,0.0
400,99.75,58.2913,64.3691,147.08,98.9012,94.8843,0.000235131,0.0629086,20.9876,-3.51313,0.366588,0.0,0.0
402,100.25,57.8695,64.2507,146.63,98.8992,95.3306,0.000187375,0.0628982,20.9875,-3.52314,0.324917,0.0,0.0
404,100.75,58.0865,63.6141,149.53,98.8845,95.4563,0.000144672,0.0629446,20.9874,-3.51313,0.311953,0.0,0.0
406,101.25,58.0428,64.0302,146.157,98.898,95.5662,0.000126467,0.0629822,20.9874,-3.51313,0.302993,0.0,0.0
408,101.75,57.7844,63.7488,147.21,98.8952,95.2889,0.000100185,0.0630343,20.9874,-3.52314,0.328435,0.0,0.0
410,102.25,57.6938,63.3573,150.699,98.9,94.6512,7.88975e-05,0.0630959,20.9873,-3.51313,0.388229,0.0,0.0
412,102.75,57.6389,62.8354,147.44,98.8869,95.5581,7.98448e-05,0.0631459,20.9873,-3.51313,0.302746,0.0,0.0
414,103.25,57.5743,62.5184,152.93,98.9032,94.7716,8.06122e-05,0.0631178,20.9873,-3.53315,0.377274,0.0,0.0
416,103.75,57.4367,62.337,147.54,98.8873,94.9589,0.00010793,0.063095,20.9873,-3.54316,0.358394,0.0,0.0
418,104.25,57.2337,62.6279,148.84,98.894,95.942,0.000130057,0.063104,20.9873,-3.54316,0.267938,0.0,0.0
420,104.75,56.6519,62.2619,147.155,98.8841,95.3006,0.000158204,0.0631079,20.9872,-3.54316,0.326348,0.0,0.0
422,105.25,56.796,62.2426,149.484,98.8936,95.434,0.000190206,0.0631072,20.9872,-3.54316,0.314837,0.0,0.0
424,105.75,56.4252,61.6551,152.879,98.8893,95.3035,0.000216127,0.0631002,20.9872,-3.55317,0.326547,0.0,0.0
426,106.25,56.5699,61.9714,146.561,98.8952,94.9719,0.000241599,0.0631017,20.9872,-3.56318,0.357898,0.0,0.0
428,106.75,56.2894,61.8605,147.129,98.8757,94.9183,0.000266259,0.0631094,20.9872,-3.56318,0.361136,0.0,0.0
430,107.25,55.8543,61.4264,148.029,98.8964,94.7302,0.000286233,0.0631373,20.9872,-3.57318,0.380527,0.0,0.0
432,107.75,55.6931,61.342,148.045,98.8905,94.9224,0.000290266,0.0631794,20.9872,-3.56318,0.362077,0.0,0.0
434,108.25,55.6838,61.6662,151.644,98.8936,94.9942,0.000293533,0.0632135,20.9872,-3.53315,0.35568,0.0,0.0
436,108.75,55.6464,61.1778,147.231,98.8873,95.7668,0.000285251,0.0632137,20.9872,-3.54316,0.283486,0.0,0.0
438,109.25,55.4976,61.2234,143.429,98.8916,95.2881,0.000278543,0.0632139,20.9872,-3.54316,0.328189,0.0,0.0
440,109.75,55.3596,60.7887,146.805,98.8877,95.5333,0.000273109,0.063214,20.9872,-3.55317,0.305106,0.0,0.0
442,110.25,55.1229,61.0156,147.287,98.894,95.0631,0.000268708,0.063173,20.9872,-3.56318,0.349304,0.0,0.0
444,110.75,55.6989,60.3321,148.509,98.8825,95.6752,0.000278499,0.0631397,20.9872,-3.56318,0.291522,0.0,0.0
446,111.25,55.2073,59.9298,150.471,98.9036,95.5179,0.000286431,0.0631539,20.9872,-3.55317,0.307956,0.0,0.0
448,111.75,54.9772,60.0206,145.448,98.8861,94.8336,0.000307432,0.0631654,20.9872,-3.55317,0.369959,0.0,0.0
450,112.25,55.1923,59.7721,145.658,98.8956,95.0205,0.000324443,0.0631885,20.9872,-3.54316,0.353407,0.0,0.0
452,112.75,54.8385,59.7866,149.592,98.8817,95.0898,0.000348456,0.0632071,20.9872,-3.55317,0.345711,0.0,0.0
454,113.25,54.5124,59.4466,146.78,98.8948,95.0306,0.000377117,0.0632223,20.9872,-3.56318,0.352392,0.0,0.0
456,113.75,54.6153,59.3065,144.282,98.8829,95.3314,0.000400333,0.0632345,20.9872,-3.57318,0.323382,0.0,0.0
458,114.25,54.343,59.6437,147.781,98.8944,94.6208,0.000432512,0.0632307,20.9872,-3.57318,0.39057,0.0,0.0
460,114.75,53.8327,59.5198,144.757,98.8897,94.4582,0.000458577,0.0632276,20.9872,-3.57318,0.405347,0.0,0.0
462,115.25,54.1179,59.1838,147.346,98.894,95.089,0.000492978,0.0632179,20.9872,-3.56318,0.346891,0.0,0.0
464,115.75,54.066,58.7879,147.262,98.8901,94.997,0.000520843,0.0632036,20.9872,-3.55317,0.355095,0.0,0.0
466,116.25,54.2118,58.9437,147.665,98.8924,95.312,0.000545847,0.0631919,20.9873,-3.56318,0.326042,0.0,0.0
468,116.75,53.7314,58.71,151.288,98.8885,94.5673,0.0005661,0.0631962,20.9874,-3.56318,0.395039,0.0,0.0
470,117.25,53.7687,58.6502,149.099,98.8948,94.9974,0.000578023,0.0631997,20.9876,-3.55317,0.355486,0.0,0.0
472,117.75,53.4444,58.6164,147.41,98.8845,95.1008,0.000583647,0.0631751,20.9877,-3.54316,0.344944,0.0,0.0
474,118.25,53.6028,58.7215,149.327,98.8972,94.652,0.000588202,0.0631552,20.9877,-3.54316,0.387904,0.0,0.0
476,118.75,53.8197,58.3818,151.384,98.8889,94.3402,0.000589331,0.0631178,20.9878,-3.51313,0.416324,0.0,0.0
478,119.25,53.452,58.1032,149.207,98.8956,95.3258,0.000587942,0.0630684,20.9878,-3.52314,0.325049,0.0,0.0
480,119.75,53.1055,58.3225,148.287,98.8861,95.2394,0.000586816,0.0630969,20.9878,-3.54316,0.332207,0.0,0.0
482,120.25,53.4823,58.0495,146.153,98.8948,95.4133,0.000578865,0.0631201,20.9878,-3.51313,0.31686,0.0,0.0
484,120.75,53.4532,58.0618,148.671,98.8952,95.4527,0.000566089,0.0631388,20.9878,-3.53315,0.313252,0.0,0.0
486,121.25,53.2504,57.7977,149.353,98.8968,96.0441,0.000542308,0.0631612,20.9878,-3.54316,0.258777,0.0,0.0
488,121.75,53.1639,57.7879,145.376,98.9004,96.015,0.000510956,0.0631858,20.9876,-3.53315,0.261785,0.0,0.0
490,122.25,52.6968,57.3323,148.703,98.8913,94.9613,0.000485561,0.0632058,20.9872,-3.52314,0.358523,0.0,0.0
492,122.75,52.9513,57.5421,152.034,98.8881,96.1532,0.000444344,0.0632003,20.9869,-3.53315,0.247961,0.0,0.0
494,123.25,51.9407,56.7106,147.352,98.8897,94.9763,0.000410958,0.0631763,20.9866,-3.52314,0.356984,0.0,0.0
496,123.75,52.3004,56.6868,149.055,98.8797,95.8074,0.00038513,0.0631569,20.9862,-3.54316,0.279067,0.0,0.0
498,124.25,52.524,56.8654,147.616,98.8698,95.7263,0.000364208,0.0631687,20.9856,-3.53315,0.285663,0.0,0.0
500,124.75,52.5911,56.6085,147.008,98.8857,95.2743,0.000358192,0.0631782,20.9854,-3.54316,0.328935,0.0,0.0
502,125.25,52.2308,56.2142,149.032,98.8773,94.9589,0.000351242,0.0632133,20.9854,-3.53315,0.357503,0.0,0.0
504,125.75,51.7859,56.2133,148.354,98.8833,95.4117,0.000353257,0.0632417,20.9854,-3.53315,0.315977,0.0,0.0
506,126.25,52.4282,56.4872,152.34,98.8769,95.4401,0.000356702,0.0632785,20.985,-3.52314,0.312778,0.0,0.0
508,126.75,52.5623,56.3059,146.277,98.8861,95.136,0.000359492,0.0633083,20.9847,-3.50312,0.341808,0.0,0.0
510,127.25,51.8275,56.2823,149.906,98.8893,94.6009,0.000361752,0.0633396,20.9843,-3.51313,0.391964,0.0,0.0
512,127.75,52.2182,56.1538,148.748,98.8877,95.6582,0.000363583,0.0633715,20.9839,-3.52314,0.293558,0.0,0.0
514,128.25,52.0324,56.0243,146.296,98.8841,95.475,0.00036059,0.0634357,20.9836,-3.52314,0.310189,0.0,0.0
516,128.75,51.8874,56.329,148.311,98.8897,95.6541,0.000354139,0.0634573,20.9834,-3.54316,0.294111,0.0,0.0
518,129.25,50.806,55.607,152.414,98.8841,94.9163,0.000345717,0.0634943,20.9832,-3.56318,0.362074,0.0,0.0
520,129.75,51.4273,55.4241,146.571,98.8905,95.5491,0.000336019,0.063592,20.983,-3.56318,0.303892,0.0,0.0
522,130.25,51.3157,55.9781,144.136,98.8809,95.8625,0.000330082,0.0636711,20.9829,-3.56318,0.274088,0.0,0.0
524,130.75,52.1817,55.7803,144.083,98.8837,95.7575,0.000326999,0.0636991,20.9828,-3.54316,0.284026,0.0,0.0
526,131.25,51.6125,55.6024,147.976,98.8745,95.6298,0.000332812,0.0636893,20.9827,-3.55317,0.295006,0.0,0.0
528,131.75,51.2834,55.5687,144.794,98.8837,95.6363,0.000345001,0.0637031,20.9826,-3.56318,0.295225,0.0,0.0
530,132.25,51.2401,55.689,146.691,98.8682,94.6865,0.000375534,0.0637337,20.9826,-3.57318,0.382087,0.0,0.0
532,132.75,50.8728,55.803,148.653,98.8797,94.485,0.000400266,0.0637729,20.9825,-3.57318,0.401952,0.0,0.0
534,133.25,50.7281,54.5158,145.337,98.8686,95.3902,0.000420298,0.0638177,20.9825,-3.56318,0.316651,0.0,0.0
536,133.75,50.2238,54.63,147.356,98.8853,94.5332,0.0004499,0.0638611,20.9825,-3.55317,0.397938,0.0,0.0
538,134.25,50.8103,55.4048,149.19,98.8797,94.7542,0.000473878,0.0639029,20.9824,-3.54316,0.376799,0.0,0.0
540,134.75,51.0562,54.8722,144.521,98.8924,95.1466,0.000490867,0.0639511,20.9824,-3.54316,0.341399,0.0,0.0
542,135.25,50.6988,54.9415,146.057,98.8841,95.835,0.000504628,0.0640032,20.9824,-3.52314,0.276916,0.0,0.0
544,135.75,50.5397,54.5249,151.537,98.8841,94.6475,0.000504832,0.0640453,20.9824,-3.52314,0.387145,0.0,0.0
546,136.25,51.2829,54.702,150.328,98.8765,95.0858,0.000504997,0.0641069,20.9824,-3.52314,0.345626,0.0,0.0
548,136.75,50.8056,54.6399,148.459,98.8857,95.6164,0.000496175,0.0641568,20.9824,-3.53315,0.29724,0.0,0.0
550,137.25,50.6504,54.2595,149.619,98.8678,95.3039,0.00048097,0.0641828,20.9824,-3.52314,0.324586,0.0,0.0
552,137.75,50.5623,54.5813,144.85,98.8785,95.3769,0.000468653,0.0641908,20.9824,-3.52314,0.31878,0.0,0.0
554,138.25,49.9925,54.4772,148.726,98.8606,95.52,0.000458677,0.0641829,20.9824,-3.53315,0.303923,0.0,0.0
556,138.75,50.2389,53.6793,148.808,98.8773,94.8502,0.000450596,0.0641635,20.9823,-3.55317,0.367625,0.0,0.0
558,139.25,50.0596,53.6552,152.543,98.859,95.1717,0.000459851,0.0641478,20.9823,-3.56318,0.336071,0.0,0.0
560,139.75,50.4085,53.8574,147.783,98.8777,95.4162,0.000467347,0.064135,20.9823,-3.55317,0.315065,0.0,0.0
562,140.25,50.1384,54.0538,151.488,98.8506,95.3152,0.000479178,0.0641464,20.9823,-3.54316,0.322001,0.0,0.0
564,140.75,49.7765,53.529,146.211,98.8614,95.3919,0.000493945,0.064175,20.9823,-3.54316,0.315859,0.0,0.0
566,141.25,49.6589,53.6491,151.281,98.8554,94.8506,0.000505905,0.0641983,20.9823,-3.53315,0.365629,0.0,0.0
568,141.75,50.2225,53.2736,148.179,98.861,94.8819,0.000515594,0.0641897,20.9823,-3.51313,0.363218,0.0,0.0
570,142.25,49.6057,52.9855,146.79,98.8598,95.3991,0.000516146,0.0641827,20.9824,-3.53315,0.315041,0.0,0.0
572,142.75,49.6827,53.4811,146.798,98.8725,95.4421,0.000516594,0.0641554,20.9826,-3.55317,0.312198,0.0,0.0
574,143.25,49.4272,53.6745,150.105,98.851,95.1077,0.000506015,0.0641137,20.9827,-3.56318,0.341312,0.0,0.0
576,143.75,49.9037,52.7873,151.511,98.8682,95.9833,0.000497447,0.06408,20.9828,-3.56318,0.261814,0.0,0.0
578,144.25,49.5398,53.9505,147.409,98.8439,94.5709,0.000482,0.0640527,20.9831,-3.57318,0.390709,0.0,0.0
580,144.75,49.575,53.5697,150.82,98.8518,94.7773,0.000469488,0.0640443,20.9836,-3.57318,0.372151,0.0,0.0
582,145.25,49.6725,53.3264,144.081,98.8415,95.3031,0.000456923,0.0640375,20.9839,-3.56318,0.322311,0.0,0.0
584,145.75,49.7516,53.5115,150.125,98.8475,96.3036,0.000446745,0.0640046,20.9842,-3.55317,0.230511,0.0,0.0
586,146.25,49.8449,52.7226,153.342,98.8375,95.4523,0.000434025,0.0639779,20.9845,-3.55317,0.308125,0.0,0.0
588,146.75,49.7706,52.7281,146.392,98.8478,94.9431,0.000419694,0.0639151,20.9847,-3.55317,0.356341,0.0,0.0
590,147.25,49.2344,52.5205,149.893,98.8399,95.2779,0.000408086,0.0638643,20.9848,-3.53315,0.324501,0.0,0.0
592,147.75,49.1076,52.9014,148.104,98.8419,95.5751,0.000396078,0.0637546,20.985,-3.52314,0.297147,0.0,0.0
594,148.25,48.9551,52.3937,148.332,98.8355,95.1425,0.000384007,0.0636657,20.9852,-3.53315,0.336682,0.0,0.0
596,148.75,49.046,52.6245,147.238,98.8403,94.8579,0.000374229,0.0635865,20.9855,-3.53315,0.363596,0.0,0.0
598,149.25,48.8623,52.5519,148.21,98.8283,95.1142,0.00036388,0.0635158,20.9856,-3.52314,0.338679,0.0,0.0
600,149.75,48.9523,52.3909,150.862,98.8347,95.7855,0.000355497,0.0634586,20.9858,-3.52314,0.277064,0.0,0.0
602,150.25,48.74,52.3546,145.031,98.8236,95.3116,0.000354781,0.0634559,20.9859,-3.52314,0.319918,0.0,0.0
604,150.75,48.9808,52.0858,146.254,98.8383,95.0619,0.0003542,0.0634931,20.986,-3.53315,0.344432,0.0,0.0
606,151.25,48.4066,51.5216,147.183,98.8263,95.2382,0.000368309,0.0635232,20.9861,-3.53315,0.326977,0.0,0.0
608,151.75,48.6143,51.9281,150.264,98.8347,95.2552,0.000379737,0.0635339,20.9861,-3.52314,0.326144,0.0,0.0
610,152.25,48.0424,51.669,149.355,98.8224,95.3468,0.000403579,0.0635426,20.9862,-3.49311,0.31654,0.0,0.0
612,152.75,48.7128,52.1726,148.108,98.8463,95.4774,0.000422892,0.0635771,20.9862,-3.4831,0.306581,0.0,0.0
614,153.25,48.3571,51.6508,150.526,98.8216,95.1904,0.000447045,0.063605,20.9862,-3.50312,0.330991,0.0,0.0
616,153.75,48.138,51.4336,147.658,98.8259,95.5966,0.000466609,0.0636276,20.9863,-3.49311,0.293734,0.0,0.0
618,154.25,47.7094,51.815,150.197,98.8228,95.2086,0.000482457,0.0636459,20.9863,-3.4831,0.329404,0.0,0.0
620,154.75,48.5137,51.5163,146.98,98.8307,95.1802,,0.0636744,,-3.4831,0.332753,0.0,0.0
622,155.25,48.1126,51.336,148.001,98.822,94.7051,,0.0636975,,-3.50312,0.376213,0.0,0.0
624,155.75,48.1905,51.0446,149.294,98.8279,94.5835,,0.0636888,,-3.49311,0.38811,0.0,0.0
626,156.25,48.2351,50.8321,147.263,98.8251,95.2569,,0.0636818,,-3.49311,0.325139,0.0,0.0
628,156.75,48.1038,51.587,151.642,98.8351,95.7433,,0.0636616,,-3.50312,0.280992,0.0,0.0
630,157.25,48.4663,51.4645,150.811,98.8339,95.121,,0.0636323,,-3.51313,0.338537,0.0,0.0
632,157.75,47.7178,51.4086,149.09,98.8347,95.2167,,,,-3.51313,0.32972,0.0,0.0
634,158.25,47.7276,51.1363,141.897,98.8343,94.6435,,,,-3.51313,0.383073,0.0,0.0
636,158.75,48.1989,50.9276,147.813,98.8347,95.1296,,,,-3.53315,0.337816,0.0,0.0
638,159.25,47.3915,50.5077,147.781,98.849,94.8952,,,,-3.51313,0.360904,0.0,0.0
640,159.75,47.4082,50.3722,149.706,98.8431,95.4348,,,,-3.52314,0.310239,0.0,0.0
642,160.25,47.8254,51.1986,150.9,98.8375,94.7104,,,,-3.52314,0.377111,0.0,0.0
644,160.75,47.7361,51.0947,148.827,98.8439,95.2828,,,,-3.52314,0.324405,0.0,0.0
646,161.25,47.4865,50.8812,147.737,98.8455,94.667,,,,-3.51313,0.381874,0.0,0.0
648,161.75,47.5516,50.9092,147.323,98.847,95.3517,,,,-3.52314,0.318297,0.0,0.0
650,162.25,47.8755,50.3934,149.591,98.8526,95.6781,,,,-3.52314,0.288588,0.0,0.0
652,162.75,48.0242,50.9718,144.945,98.855,94.5965,,,,-3.51313,0.389318,0.0,0.0
654,163.25,47.8835,50.1384,145.376,98.8498,94.7943,,,,-3.52314,0.370385,0.0,0.0
656,163.75,47.8172,50.5553,148.589,98.8614,95.4097,,,,-3.53315,0.314205,0.0,0.0
658,164.25,47.5237,50.5446,148.529,98.8598,94.9804,,,,-3.52314,0.353937,0.0,0.0
660,164.75,47.6358,50.8766,148.826,98.861,95.1985,,,,-3.54316,0.333765,0.0,0.0
662,165.25,47.6654,50.6432,147.549,98.8693,95.5998,,,,-3.53315,0.297316,0.0,0.0
663,165.5,47.4968,50.0671,152.692,98.8893,95.5139,,,,-3.54316,0.307048,0.0,0.0