File: 01_Data/PE_Foam_Pipe_Insulation/Cone/PE_Foam_Pipe_Insulation_Cone_HF50Scan_220316_R1.csv
Names,Time,Stack TC,Smoke TC,Exh Press,Smoke Comp,Smoke Meas,CO Meter,CO2 Meter,O2 Meter,Sample Mass,Ext Coeff,Start Test,Flame Verif
Chan Gain,,500,500,1,1,1,1,1,1,1,1,1.0,1.0
Offset,,0,0,0.136382,0,0,0,0,0,0,0,0.0,0.0
Gain,,1,1,25.011,13.0548,13.4146,1,1,1,1.00087,1.01298,1.0,1.0
Units,sec,C,C,Pa,%,%,%,%,%,g,/m,,
Baseline,,29.5535,30.7778,152.143,98.5761,95.9904,0.000405417,0.0425421,21.0298,-833.252,0.236263,,
2,0.25,28.3259,29.6508,152.5,98.5937,95.6163,0.000569284,0.052095,21.0133,-338.834,0.272471,0.0,0.0
4,0.75,28.331,29.7201,150.403,98.5937,96.2468,0.000618435,0.0522894,21.0141,-338.814,0.214075,0.0,0.0
6,1.25,28.4434,29.8809,162.151,98.5901,94.4172,0.000658248,0.0525684,21.0147,-338.814,0.384285,0.0,0.0
8,1.75,28.3308,29.6495,149.616,98.5929,93.9898,0.000787186,0.0527945,21.0153,-338.784,0.424851,0.0,0.0
10,2.25,28.1439,28.984,146.749,98.5893,93.4593,0.000891625,0.0529775,21.0144,-338.874,0.474828,0.0,0.0
12,2.75,28.3284,29.6753,149.278,98.5865,94.9245,0.00103436,0.0550681,21.0102,-338.874,0.336354,0.0,0.0
14,3.25,27.9025,29.1551,148.701,98.5825,94.739,0.00114997,0.0585096,21.0037,-338.904,0.353372,0.0,1.0
16,3.75,28.3237,29.4946,146.86,98.5881,94.6592,0.00126787,0.0612972,20.9908,-338.884,0.361365,0.0,1.0
18,4.25,27.7844,29.0308,142.522,98.5897,94.676,0.00136337,0.0689563,20.9734,-338.994,0.359933,0.0,1.0
20,4.75,28.1754,29.0483,142.686,98.5857,94.5683,0.00140791,0.0751602,20.966,-338.954,0.369685,0.0,1.0
22,5.25,28.7374,28.7465,144.58,98.5905,94.267,0.00148408,0.0828394,20.953,-339.084,0.398472,0.0,1.0
24,5.75,28.8166,29.4998,142.997,98.6044,94.8958,0.00154821,0.0914481,20.9424,-338.994,0.340652,0.0,1.0
26,6.25,28.6377,29.7511,147.644,98.5825,94.2592,0.00160015,0.099314,20.9338,-338.934,0.398487,0.0,1.0
28,6.75,28.8387,29.6135,140.364,98.5845,93.7364,0.00164222,0.106489,20.9269,-338.914,0.448085,0.0,1.0
30,7.25,29.5337,30.3833,142.228,98.5841,94.1847,0.00168722,0.111936,20.9212,-338.944,0.405657,0.0,1.0
32,7.75,29.4851,30.4218,144.267,98.5845,94.7963,0.00172367,0.114257,20.9167,-338.914,0.348177,0.0,1.0
34,8.25,28.9907,29.4703,153.205,98.5833,94.6272,0.00177504,0.117653,20.913,-338.974,0.363933,0.0,1.0
36,8.75,28.8395,29.5912,149.183,98.5778,94.8843,0.00181666,0.119885,20.91,-338.964,0.339321,0.0,1.0
38,9.25,29.6591,30.4271,150.194,98.5758,94.0897,0.00187851,0.121693,20.9076,-338.974,0.413867,0.0,1.0
40,9.75,29.38,30.6678,144.977,98.5837,93.7282,0.00195394,0.122779,20.9056,-338.994,0.44879,0.0,0.0
42,10.25,30.1799,31.377,146.931,98.5897,92.62,0.00205155,0.12366,20.904,-338.994,0.555016,0.0,0.0
44,10.75,30.2433,31.0019,145.09,98.5813,91.3776,0.00216349,0.125311,20.9007,-338.994,0.674268,0.0,0.0
46,11.25,29.3928,31.5081,143.548,98.5837,90.5539,0.00225416,0.126648,20.8961,-338.994,0.754942,0.0,0.0
48,11.75,29.9377,30.7219,145.696,98.5829,90.7025,0.00241177,0.128678,20.8902,-339.014,0.7403,0.0,0.0
50,12.25,29.4775,30.6133,145.644,98.5789,90.0258,0.00253944,0.131174,20.8837,-339.034,0.806484,0.0,0.0
52,12.75,29.9027,30.2782,144.934,98.5857,89.0924,0.0027517,0.134611,20.8739,-339.084,0.899703,0.0,0.0
54,13.25,30.2591,31.1872,144.768,98.5885,87.3832,0.00292363,0.138668,20.8621,-339.104,1.07208,0.0,0.0
56,13.75,30.1196,31.5763,143.892,98.573,85.5251,0.00306289,0.141954,20.8525,-339.134,1.26167,0.0,0.0
58,14.25,30.6499,31.4951,140.412,98.5849,85.2422,0.00334265,0.149581,20.8385,-339.174,1.29218,0.0,0.0
60,14.75,31.1123,32.2454,139.437,98.567,82.5849,0.00356925,0.15576,20.8215,-339.164,1.57198,0.0,0.0
62,15.25,31.7596,32.4901,140.746,98.5809,82.7339,0.00375022,0.164588,20.8143,-339.275,1.55722,0.0,0.0
64,15.75,30.9124,32.2599,140.694,98.5825,80.0725,0.00405967,0.175182,20.7879,-339.255,1.84789,0.0,0.0
66,16.25,30.5687,31.8485,140.869,98.5782,81.4992,0.00429461,0.183763,20.7584,-339.265,1.69057,0.0,0.0
68,16.75,31.3265,32.3897,135.323,98.5789,78.2274,0.00469636,0.199406,20.742,-339.315,2.05472,0.0,0.0
70,17.25,32.4988,32.881,136.846,98.5857,79.0208,0.00514044,0.212077,20.7139,-339.345,1.96566,0.0,0.0
72,17.75,32.187,33.1493,139.733,98.5762,77.5892,0.00560695,0.232803,20.6683,-339.425,2.12726,0.0,0.0
74,18.25,33.0938,33.3395,133.185,98.5885,77.0734,0.00613794,0.241639,20.6314,-339.455,2.18764,0.0,0.0
76,18.75,32.6751,34.0368,132.207,98.577,78.7211,0.00670587,0.261196,20.5852,-339.525,1.99863,0.0,0.0
78,19.25,33.3953,34.2593,129.431,98.5861,76.3852,0.00753097,0.271641,20.5319,-339.535,2.26712,0.0,0.0
80,19.75,34.182,34.5487,129.962,98.5857,74.2699,0.00785955,0.294117,20.5087,-339.635,2.51662,0.0,0.0
82,20.25,34.4931,35.5269,134.043,98.5917,74.0223,0.00842141,0.316477,20.4692,-339.665,2.54684,0.0,0.0
84,20.75,35.0106,35.715,130.498,98.5742,73.0549,0.00906507,0.339228,20.4371,-339.695,2.66215,0.0,0.0
86,21.25,35.2751,36.1405,129.435,98.5793,72.0327,0.00975614,0.361832,20.3958,-339.755,2.78783,0.0,0.0
88,21.75,35.5708,36.433,130.677,98.5897,71.1697,0.0104328,0.384773,20.3623,-339.845,2.89586,0.0,0.0
90,22.25,35.9054,37.3362,121.695,98.5929,70.4107,0.0110862,0.417221,20.3352,-339.895,2.99142,0.0,0.0
92,22.75,36.9063,38.0227,123.427,98.5893,71.5537,0.0116154,0.42595,20.3044,-339.925,2.84801,0.0,0.0
94,23.25,37.3223,38.1101,123.221,98.5889,74.4853,0.0120441,0.447595,20.2716,-339.945,2.49119,0.0,0.0
96,23.75,38.3622,39.2388,124.338,98.5786,75.4531,0.012673,0.471175,20.2373,-340.045,2.37554,0.0,0.0
98,24.25,38.4377,39.8087,125.182,98.5969,68.6999,0.0131825,0.490275,20.2025,-340.095,3.21035,0.0,0.0
100,24.75,39.2183,40.0584,117.276,98.5782,71.9946,0.0136912,0.516561,20.1619,-340.165,2.79242,0.0,0.0
102,25.25,39.8986,41.0194,118.607,98.5829,73.0324,0.0141033,0.537853,20.1177,-340.165,2.66568,0.0,0.0
104,25.75,40.4506,41.876,117.173,98.5678,71.8935,0.0145112,0.555099,20.0733,-340.235,2.80398,0.0,0.0
106,26.25,41.3377,42.6638,119.019,98.5825,71.7408,0.0148416,0.576637,20.0297,-340.275,2.8242,0.0,0.0
108,26.75,42.3587,43.5693,123.851,98.5702,71.2327,0.0151679,0.600894,19.9892,-340.325,2.88624,0.0,0.0
110,27.25,42.7632,43.9661,106.503,98.5857,71.8914,0.0154322,0.623308,19.9519,-340.426,2.80585,0.0,0.0
112,27.75,43.6102,45.048,121.57,98.569,74.2401,0.0156463,0.643953,19.9217,-340.476,2.51869,0.0,0.0
114,28.25,44.5474,45.9265,117.534,98.5885,72.2619,0.0158889,0.664904,19.8906,-340.516,2.76043,0.0,0.0
116,28.75,45.2927,46.6191,117.812,98.5706,71.7875,0.0160854,0.681875,19.8654,-340.586,2.81735,0.0,0.0
118,29.25,45.9681,47.2243,118.358,98.5857,70.9466,0.0163073,0.699652,19.842,-340.616,2.92341,0.0,0.0
120,29.75,46.4913,47.9527,111.889,98.5734,70.1094,0.016487,0.714052,19.8203,-340.706,3.02777,0.0,0.0
122,30.25,47.6644,48.8866,117.158,98.5889,72.2988,0.0167321,0.728112,19.7993,-340.746,2.75593,0.0,0.0
124,30.75,48.1973,50.4713,120.223,98.5746,71.9946,0.0169307,0.741658,19.7791,-340.846,2.7921,0.0,0.0
126,31.25,49.0209,50.7694,125.976,98.5805,72.4584,0.0172005,0.75263,19.7557,-340.886,2.73558,0.0,0.0
128,31.75,49.596,51.6923,110.774,98.575,70.8463,0.017419,0.767359,19.7303,-341.006,2.93501,0.0,0.0
130,32.25,50.5688,52.583,110.011,98.5873,70.4009,0.0176689,0.77929,19.7098,-341.086,2.99216,0.0,0.0
132,32.75,51.6112,53.5679,114.377,98.5805,70.5876,0.0179367,0.795009,19.6822,-341.086,2.96802,0.0,0.0
134,33.25,51.9464,54.6132,109.115,98.5881,72.6427,0.0182337,0.807741,19.6598,-341.246,2.7137,0.0,0.0
136,33.75,52.7975,55.1169,118.622,98.5746,70.4377,0.0185463,0.821611,19.6311,-341.256,2.98636,0.0,0.0
138,34.25,53.7311,55.4923,116.319,98.5893,67.7874,0.0187994,0.836047,19.6079,-341.336,3.32848,0.0,0.0
140,34.75,54.6799,56.7937,111.464,98.5782,67.7166,0.0190848,0.850511,19.5891,-341.396,3.33677,0.0,0.0
142,35.25,55.2838,57.7105,114.293,98.5885,68.0064,0.0193882,0.864722,19.565,-341.486,3.29975,0.0,0.0
144,35.75,56.4185,58.4761,111.62,98.5821,69.2861,0.0196557,0.87891,19.5455,-341.547,3.13352,0.0,0.0
146,36.25,57.0874,59.8003,108.367,98.5873,67.2229,0.0198918,0.892811,19.5232,-341.607,3.40262,0.0,0.0
148,36.75,57.6257,60.3718,118.652,98.5837,70.5556,0.0200775,0.904071,19.5051,-341.637,2.97233,0.0,0.0
150,37.25,58.8844,61.3029,112.286,98.5897,69.1064,0.0202229,0.916646,19.4904,-341.697,3.15728,0.0,0.0
152,37.75,59.2893,62.5788,116.183,98.5821,68.3544,0.0203239,0.926831,19.4785,-341.717,3.25382,0.0,0.0
154,38.25,59.8919,62.7664,113.906,98.5865,68.5587,0.0203905,0.935953,19.4689,-341.817,3.2277,0.0,0.0
156,38.75,60.7611,63.6788,111.936,98.5813,70.0243,0.0204326,0.944126,19.4611,-341.877,3.03929,0.0,0.0
158,39.25,61.0616,64.6073,107.061,98.5853,69.9428,0.020456,0.950622,19.4547,-341.947,3.04999,0.0,0.0
160,39.75,62.3379,65.4687,114.31,98.5933,70.5994,0.020489,0.955771,19.4496,-342.037,2.96767,0.0,0.0
162,40.25,62.739,66.5665,115.248,98.5877,72.3876,0.0205283,0.959941,19.4478,-342.087,2.74491,0.0,0.0
164,40.75,63.6698,67.109,118.009,98.5917,72.8719,0.0205601,0.961712,19.4484,-342.117,2.68602,0.0,0.0
166,41.25,64.6465,67.8179,120.022,98.5921,72.3753,0.0205858,0.963146,19.4489,-342.217,2.74681,0.0,0.0
168,41.75,65.1588,69.1206,113.319,98.5925,69.8323,0.0207185,0.962354,19.4511,-342.277,3.06469,0.0,0.0
170,42.25,65.9053,69.3781,103.773,98.5889,70.7157,0.020826,0.961713,19.4546,-342.357,2.95266,0.0,0.0
172,42.75,66.5312,70.4408,115.795,98.5889,68.1612,0.0209744,0.959204,19.4574,-342.397,3.27959,0.0,0.0
174,43.25,67.3211,71.3359,117.571,98.5913,67.9098,0.0210946,0.957172,19.4618,-342.487,3.31263,0.0,0.0
176,43.75,67.7848,72.3567,109.586,98.5973,68.6274,0.0212145,0.954591,19.4653,-342.517,3.21976,0.0,0.0
178,44.25,67.9124,72.1965,123.773,98.5997,67.4202,0.0213318,0.95166,19.469,-342.577,3.37769,0.0,0.0
180,44.75,68.7159,73.1097,115.663,98.5913,65.1882,0.0214332,0.949286,19.472,-342.647,3.67607,0.0,0.0
182,45.25,69.3951,74.3988,115.105,98.5949,67.78,0.021521,0.945763,19.4744,-342.677,3.32995,0.0,0.0
184,45.75,70.0144,74.5737,113.885,98.5965,70.1888,0.0215921,0.94291,19.478,-342.798,3.01979,0.0,0.0
186,46.25,70.8412,75.2962,110.151,98.5945,67.1217,0.0216497,0.939676,19.4824,-342.808,3.41664,0.0,0.0
188,46.75,71.3001,75.7623,113.356,98.6096,69.3066,0.0216924,0.936225,19.4907,-342.878,3.13337,0.0,0.0
190,47.25,71.6686,75.7173,114.232,98.5973,65.9603,0.0217171,0.932621,19.4975,-342.928,3.57199,0.0,0.0
192,47.75,72.0285,76.8368,110.786,98.6068,66.8536,0.0217282,0.928972,19.503,-342.998,3.45332,0.0,0.0
194,48.25,72.4103,77.0515,117.209,98.6076,64.4546,0.0217373,0.926017,19.5074,-343.058,3.77811,0.0,0.0
196,48.75,72.5228,77.4647,115.087,98.6044,64.4816,0.0217298,0.923623,19.511,-343.158,3.7741,0.0,0.0
198,49.25,73.7456,79.176,108.716,98.6044,64.6892,0.0217105,0.920928,19.5139,-343.248,3.74554,0.0,0.0
200,49.75,74.0155,79.2436,119.968,98.6072,67.6834,0.0216991,0.918746,19.5151,-343.288,3.34374,0.0,0.0
202,50.25,74.4617,79.7325,109.721,98.606,68.4113,0.0216962,0.918031,19.5154,-343.338,3.24858,0.0,0.0
204,50.75,74.84,80.0757,107.847,98.616,67.2937,0.0216913,0.917453,19.5139,-343.418,3.39584,0.0,0.0
206,51.25,75.3993,80.9186,126.412,98.6033,69.0037,0.0216929,0.918159,19.5128,-343.448,3.17172,0.0,0.0
208,51.75,75.4935,80.9658,114.425,98.6072,67.1594,0.0216993,0.919788,19.5118,-343.548,3.4128,0.0,0.0
210,52.25,75.7815,81.775,116.58,98.5945,63.6518,0.0216954,0.921838,19.511,-343.588,3.88829,0.0,0.0
212,52.75,76.5401,82.1526,108.815,98.61,62.7835,0.0216839,0.923057,19.5104,-343.628,4.01174,0.0,0.0
214,53.25,77.0576,82.9904,119.725,98.6029,66.9469,0.021641,0.925143,19.5099,-343.718,3.44056,0.0,0.0
216,53.75,77.2315,83.0864,114.938,98.6112,68.5697,0.0215759,0.925838,19.5104,-343.778,3.2285,0.0,0.0
218,54.25,77.37,83.2535,110.857,98.6092,65.2689,0.0214377,0.9264,19.5107,-343.839,3.6667,0.0,0.0
220,54.75,78.313,84.378,122.166,98.6188,66.3652,0.0212489,0.924788,19.5229,-343.899,3.51955,0.0,0.0
222,55.25,79.4305,84.8091,110.262,98.6144,68.6581,0.021096,0.92162,19.5328,-343.959,3.21733,0.0,0.0
224,55.75,78.951,85.5097,123.811,98.6168,67.4026,0.0207912,0.915941,19.5408,-343.999,3.38155,0.0,0.0
226,56.25,79.7148,85.9161,124.53,98.6264,66.5883,0.0203815,0.908539,19.5614,-344.069,3.49041,0.0,0.0
228,56.75,80.0956,86.6764,114.538,98.628,67.5549,0.0198551,0.902543,19.578,-344.089,3.3625,0.0,0.0
230,57.25,80.5786,87.1029,115.044,98.6136,68.5218,0.0192536,0.885671,19.6197,-344.159,3.23492,0.0,0.0
232,57.75,80.559,86.5969,119.833,98.6212,68.9529,0.0185233,0.872004,19.6534,-344.169,3.17988,0.0,0.0
234,58.25,80.6562,87.0012,124.102,98.62,70.3481,0.0177129,0.842779,19.7199,-344.219,3.00177,0.0,0.0
236,58.75,81.4318,87.8442,127.178,98.6315,73.1327,0.0170566,0.819106,19.7737,-344.239,2.65787,0.0,0.0
238,59.25,80.6166,87.5362,128.11,98.6112,76.6832,0.0160759,0.785125,19.8507,-344.259,2.23478,0.0,0.0
240,59.75,80.783,87.6045,135.162,98.6272,81.8934,0.0150564,0.744275,19.943,-344.269,1.65211,0.0,0.0
242,60.25,80.992,87.8726,142.127,98.6359,89.1755,0.0140281,0.711186,20.0426,-344.239,0.895942,0.0,0.0
244,60.75,81.2212,87.8154,147.717,98.6335,94.5179,0.0131952,0.660269,20.1456,-344.249,0.378725,0.0,0.0
246,61.25,80.7808,87.5963,150.068,98.6152,94.1352,0.0121363,0.619026,20.2434,-344.249,0.413131,0.0,0.0
248,61.75,80.7369,87.6434,145.069,98.6363,94.644,0.0112786,0.56419,20.3355,-344.249,0.367131,0.0,0.0
250,62.25,79.5563,87.3351,148.569,98.6204,93.9911,0.0105839,0.519773,20.4101,-344.209,0.427211,0.0,0.0
252,62.75,79.0279,86.3997,149.387,98.6515,94.9748,0.00957516,0.468472,20.4802,-344.209,0.337493,0.0,0.0
254,63.25,78.0652,85.6295,150.684,98.622,94.3714,0.00875811,0.426918,20.5458,-344.199,0.391474,0.0,0.0
256,63.75,77.9358,85.3822,151.113,98.6415,94.565,0.00787957,0.382268,20.6052,-344.199,0.375019,0.0,0.0
258,64.25,77.0727,84.5224,144.57,98.6343,94.206,0.00716796,0.346102,20.6589,-344.209,0.408172,0.0,0.0
260,64.75,77.0237,84.2795,149.207,98.6399,94.6919,0.00648907,0.311908,20.7024,-344.209,0.362959,0.0,0.0
262,65.25,75.8824,83.0488,150.681,98.6299,95.2393,0.00584693,0.279802,20.7465,-344.199,0.310847,0.0,0.0
264,65.75,75.3351,82.78,152.225,98.6335,95.2757,0.00525558,0.253796,20.7821,-344.199,0.307771,0.0,0.0
266,66.25,75.0783,82.2821,149.006,98.6315,95.8173,0.00471248,0.227234,20.8181,-344.209,0.257222,0.0,0.0
268,66.75,74.4492,81.6701,151.541,98.6467,95.0964,0.00421118,0.205718,20.8472,-344.179,0.325694,0.0,0.0
270,67.25,73.6833,80.8817,151.704,98.6339,95.4313,0.00374987,0.186407,20.8743,-344.209,0.29331,0.0,0.0
272,67.75,73.4514,80.4516,148.324,98.6443,94.8495,0.00333221,0.169069,20.8962,-344.179,0.348575,0.0,0.0
274,68.25,73.0681,79.9786,148.414,98.6268,95.308,0.00295431,0.153942,20.914,-344.169,0.304145,0.0,0.0
276,68.75,72.1603,79.4166,151.29,98.6574,95.1513,0.00264821,0.140714,20.931,-344.159,0.321539,0.0,0.0
278,69.25,71.546,78.7918,147.54,98.6355,95.105,0.00240026,0.129251,20.9449,-344.169,0.323886,0.0,0.0
280,69.75,71.2587,79.1118,149.885,98.6543,94.9695,0.00215807,0.119293,20.9552,-344.169,0.338243,0.0,0.0
282,70.25,70.895,78.3197,150.651,98.6495,95.7715,0.00192467,0.111227,20.9627,-344.169,0.26309,0.0,0.0
284,70.75,70.5209,77.463,153.652,98.6439,94.7361,0.00173244,0.103535,20.9688,-344.179,0.359169,0.0,0.0
286,71.25,69.9769,76.8384,149.01,98.6423,96.397,0.00157387,0.0973051,20.9751,-344.179,0.204595,0.0,0.0
288,71.75,69.7101,76.3442,147.623,98.6519,94.7447,0.00144602,0.0922586,20.9802,-344.189,0.35908,0.0,0.0
290,72.25,69.1276,76.064,148.623,98.6371,94.9646,0.00134299,0.0867851,20.9856,-344.179,0.337158,0.0,0.0
292,72.75,68.7436,75.8414,149.688,98.6467,95.6356,0.00126271,0.0823515,20.99,-344.179,0.275458,0.0,0.0
294,73.25,67.7432,75.5775,149.631,98.6347,94.6956,0.00120055,0.0783679,20.9947,-344.169,0.362146,0.0,0.0
296,73.75,67.8899,74.5539,148.254,98.6495,94.8258,0.00115019,0.0747879,20.9984,-344.199,0.351266,0.0,0.0
298,74.25,67.5624,74.2457,147.275,98.6383,95.2593,0.00111907,0.0716317,21.0019,-344.199,0.309729,0.0,0.0
300,74.75,66.9156,73.5933,146.018,98.6538,94.7668,0.00109386,0.0688443,21.0047,-344.199,0.357186,0.0,0.0
302,75.25,66.4452,73.2845,150.254,98.6399,95.3555,0.00107586,0.0665864,21.0072,-344.219,0.300904,0.0,0.0
304,75.75,65.9428,73.3529,154.319,98.6554,95.055,0.00106128,0.064339,21.0094,-344.209,0.330348,0.0,0.0
306,76.25,65.2803,72.0457,154.965,98.6379,95.6376,0.00103167,0.0625186,21.0112,-344.199,0.274478,0.0,0.0
308,76.75,64.9851,72.2451,150.727,98.6678,95.3997,0.00099167,0.0607873,21.0131,-344.199,0.299296,0.0,0.0
310,77.25,64.5573,71.4951,150.313,98.6403,95.0288,0.000935148,0.0593849,21.0147,-344.199,0.331434,0.0,0.0
312,77.75,64.6464,71.021,150.812,98.6519,95.1398,0.000867652,0.0580327,21.0164,-344.209,0.322107,0.0,0.0
314,78.25,64.0501,70.6451,146.663,98.6387,95.2925,0.000812981,0.0569375,21.0177,-344.209,0.306672,0.0,0.0
316,78.75,63.8547,70.61,151.964,98.6574,95.5316,0.000724123,0.0558656,21.0188,-344.209,0.286094,0.0,0.0
318,79.25,62.847,69.239,147.762,98.6375,95.1558,0.000652148,0.0548311,21.0197,-344.199,0.319324,0.0,0.0
320,79.75,62.6572,68.8838,151.045,98.6566,95.3518,0.000570981,0.0539931,21.0207,-344.219,0.302754,0.0,0.0
322,80.25,62.592,68.9702,150.005,98.6339,94.9474,0.000503969,0.0530849,21.0217,-344.209,0.33848,0.0,0.0
324,80.75,61.8588,68.7617,148.552,98.6479,94.8966,0.000448549,0.0523493,21.0225,-344.219,0.344488,0.0,0.0
326,81.25,61.8927,68.3132,147.292,98.6387,95.0804,0.000403659,0.0515781,21.0231,-344.219,0.326468,0.0,0.0
328,81.75,61.2756,68.4892,148.037,98.6327,95.3887,0.000376925,0.0509534,21.0241,-344.229,0.297167,0.0,0.0
330,82.25,61.0106,67.3588,150.432,98.6311,95.3572,0.000355269,0.0502856,21.0249,-344.219,0.299961,0.0,0.0
332,82.75,60.7859,67.2186,147.331,98.6443,95.0817,0.000337729,0.0497446,21.0255,-344.229,0.326856,0.0,0.0
334,83.25,59.8832,66.0623,152.401,98.6371,95.3879,0.000334339,0.0491986,21.026,-344.239,0.297639,0.0,0.0
336,83.75,59.4592,66.2142,152.002,98.6383,95.6343,0.00034133,0.0487563,21.0263,-344.229,0.274818,0.0,0.0
338,84.25,59.3044,66.0344,149.12,98.6351,94.9773,0.000353331,0.0482633,21.0265,-344.239,0.335791,0.0,0.0
340,84.75,59.4115,66.1622,155.014,98.6483,95.1361,0.000368757,0.047864,21.0267,-344.229,0.322128,0.0,0.0
342,85.25,58.9665,65.6226,156.179,98.6248,95.9545,0.000381252,0.0474692,21.0272,-344.229,0.243902,0.0,0.0
344,85.75,58.8358,65.4219,148.257,98.6295,95.7743,0.000393782,0.0470852,21.0277,-344.219,0.26103,0.0,0.0
346,86.25,58.6401,64.6891,150.603,98.6311,95.5074,0.000403931,0.0467743,21.0281,-344.199,0.285971,0.0,0.0
348,86.75,57.9211,64.7302,149.813,98.6319,95.5221,0.00040372,0.0464415,21.0284,-344.169,0.284673,0.0,0.0
350,87.25,57.7315,63.8802,153.187,98.6288,94.92,0.00040355,0.046172,21.0286,-344.219,0.340582,0.0,0.0
352,87.75,57.5847,63.5793,148.846,98.6172,95.0346,0.000392575,0.0459254,21.0288,-344.219,0.328816,0.0,0.0
354,88.25,57.3939,63.479,151.242,98.6236,95.6421,0.000383686,0.0457,21.029,-344.189,0.272768,0.0,0.0
356,88.75,57.2546,63.2539,151.244,98.6128,95.2393,0.000372874,0.0455175,21.0291,-344.209,0.309304,0.0,0.0
358,89.25,56.6748,63.2497,149.489,98.6188,95.4726,0.000364116,0.0452619,21.0292,-344.209,0.288097,0.0,0.0
360,89.75,56.5986,62.7051,151.262,98.6192,95.148,0.000357022,0.0450549,21.0293,-344.209,0.318399,0.0,0.0
362,90.25,56.0952,62.5022,150.164,98.6228,94.8037,0.000365724,0.0448468,21.0294,-344.209,0.350933,0.0,0.0
364,90.75,55.5897,61.9361,152.469,98.6009,95.3993,0.000372773,0.0446783,21.0294,-344.219,0.293304,0.0,0.0
366,91.25,54.4705,61.2152,152.197,98.6104,95.3866,0.000378483,0.0444744,21.0297,-344.219,0.295349,0.0,0.0
368,91.75,54.5458,61.0874,150.918,98.6064,95.3404,0.000392618,0.0443093,21.0301,-344.209,0.299299,0.0,0.0
370,92.25,55.2209,61.1832,151.475,98.6092,94.667,0.000412626,0.0441614,21.0305,-344.209,0.362538,0.0,0.0
372,92.75,54.7437,60.9498,147.782,98.5949,95.13,0.000428199,0.0440288,21.0309,-344.209,0.317891,0.0,0.0
374,93.25,54.3153,60.6404,148.575,98.6033,95.8054,0.000440242,0.0439214,21.0312,-344.209,0.255774,0.0,0.0
376,93.75,53.9353,60.2982,151.896,98.5985,94.8852,0.000444925,0.0437941,21.0315,-344.219,0.341111,0.0,0.0
378,94.25,53.9671,59.5448,149.823,98.6068,95.0903,0.000444152,0.0436909,21.0317,-344.219,0.322679,0.0,0.0
380,94.75,54.0917,60.1866,149.347,98.5877,95.3842,0.000439723,0.0436073,21.0319,-344.219,0.293531,0.0,0.0
382,95.25,53.1378,59.3704,145.33,98.6048,95.3944,0.000432712,0.0434858,21.032,-344.229,0.294121,0.0,0.0
384,95.75,53.0563,59.135,146.075,98.5793,95.27,0.000427033,0.0433874,21.0321,-344.229,0.303422,0.0,0.0
386,96.25,53.2475,59.2434,152.15,98.5877,95.961,0.000426047,0.0432935,21.0322,-344.229,0.239958,0.0,0.0
388,96.75,52.3613,58.5726,150.239,98.5694,94.7767,0.000425248,0.0432046,21.0323,-344.219,0.348655,0.0,0.0
390,97.25,52.5578,58.5277,152.057,98.5746,94.7812,0.000424601,0.0431114,21.0324,-344.219,0.3487,0.0,0.0
392,97.75,51.8435,58.3861,150.515,98.5658,95.6208,0.000432509,0.0430168,21.0324,-344.229,0.26954,0.0,0.0
394,98.25,52.0161,58.1657,151.574,98.5766,95.2937,0.000438914,0.0429402,21.0324,-344.229,0.300957,0.0,0.0
396,98.75,51.8689,57.7611,152.624,98.5602,95.6188,0.000434465,0.0428781,21.0325,-344.229,0.269226,0.0,0.0
398,99.25,52.0347,57.2057,148.513,98.5742,94.6891,0.000421356,0.0428278,21.0325,-344.229,0.357304,0.0,0.0
400,99.75,51.0524,57.0619,156.981,98.5507,96.1166,0.000402182,0.0427446,21.0325,-344.229,0.222225,0.0,0.0
402,100.25,51.5958,56.7857,153.64,98.5622,94.8368,0.000372719,0.0426389,21.0325,-344.219,0.342369,0.0,0.0
404,100.75,50.7784,56.7227,150.687,98.5475,95.4628,0.000336313,0.0425604,21.0326,-344.209,0.282584,0.0,0.0
406,101.25,50.8187,55.9576,149.497,98.557,95.4939,0.000289739,0.0425032,21.033,-344.189,0.28055,0.0,0.0
408,101.75,50.7232,56.173,148.512,98.5423,94.6932,0.000236636,0.0424639,21.0334,-344.199,0.354045,0.0,0.0
410,102.25,50.3846,55.9076,152.259,98.5574,95.5013,0.000193623,0.0424385,21.0337,-344.199,0.2799,0.0,0.0
412,102.75,49.7157,56.0022,151.284,98.5439,95.0133,0.000131143,0.0423967,21.0339,-344.229,0.3242,0.0,0.0
414,103.25,49.4882,55.4354,151.642,98.5618,95.0628,8.05336e-05,0.0423437,21.0341,-344.209,0.321184,0.0,0.0
416,103.75,49.5607,55.4781,151.252,98.5264,95.1754,3.95402e-05,0.0422795,21.0343,-344.209,0.30747,0.0,0.0
418,104.25,49.3183,55.3945,148.285,98.5383,94.9949,1.05374e-08,0.0422083,21.0344,-344.209,0.32542,0.0,0.0
420,104.75,49.2397,54.659,150.85,98.5248,95.5946,-3.7701e-05,0.0421507,21.0345,-344.209,0.268274,0.0,0.0
422,105.25,49.2908,54.7301,150.082,98.5363,95.3207,-7.4256e-05,0.0421041,21.0346,-344.189,0.294811,0.0,0.0
424,105.75,48.2389,54.5001,147.747,98.5176,95.3588,-0.000103866,0.0420663,21.0346,-344.209,0.289573,0.0,0.0
426,106.25,48.8322,54.6979,147.607,98.5351,95.5807,-0.000130379,0.0420286,21.0347,-344.199,0.270503,0.0,0.0
428,106.75,48.4669,53.812,148.555,98.518,95.9545,-0.000154133,0.0419917,21.0347,-344.199,0.234278,0.0,0.0
430,107.25,48.5613,53.766,149.026,98.522,94.8962,-0.000170843,0.0419618,21.0348,-344.199,0.33318,0.0,0.0
432,107.75,48.1329,53.6868,148.788,98.5041,94.9314,-0.000182101,0.0419517,21.0348,-344.209,0.328267,0.0,0.0
434,108.25,48.2274,53.5732,150.468,98.516,94.6309,-0.00019122,0.0419563,21.0348,-344.219,0.357516,0.0,0.0
436,108.75,48.09,53.3387,151.276,98.4965,95.1594,-0.000185388,0.0419459,21.0349,-344.199,0.306266,0.0,0.0
438,109.25,47.8894,53.0731,150.914,98.5156,95.069,-0.000180663,0.0419247,21.0349,-344.209,0.316442,0.0,0.0
440,109.75,47.7245,53.0695,147.96,98.5056,95.8828,-0.000160012,0.0419075,21.0349,-344.219,0.239801,0.0,0.0
442,110.25,47.1729,53.152,149.104,98.5108,95.593,-0.000143284,0.0419071,21.0349,-344.209,0.26717,0.0,0.0
444,110.75,47.3163,52.6936,149.254,98.4977,94.7943,-0.000129735,0.0419067,21.0349,-344.199,0.340537,0.0,0.0
446,111.25,47.4876,52.5473,146.824,98.5044,95.1951,-9.35216e-05,0.0418929,21.0349,-344.219,0.30366,0.0,0.0
448,111.75,46.928,52.4941,147.579,98.4841,95.4869,-6.41889e-05,0.0418818,21.0349,-344.229,0.274622,0.0,0.0
450,112.25,46.5893,52.2814,149.281,98.4929,94.9142,-2.60015e-05,0.0418593,21.0349,-344.199,0.32887,0.0,0.0
452,112.75,46.7397,51.9362,150.632,98.4809,94.809,4.93028e-06,0.0418411,21.0349,-344.199,0.337646,0.0,0.0
454,113.25,46.7039,51.8682,151.771,98.4798,95.4677,3.47961e-05,0.0418335,21.0349,-344.199,0.276017,0.0,0.0
456,113.75,46.4292,51.3861,147.691,98.4674,95.3142,5.89874e-05,0.0418336,21.0349,-344.199,0.289204,0.0,0.0
458,114.25,45.7319,51.0407,148.09,98.4786,94.8618,7.85824e-05,0.0418338,21.0349,-344.189,0.332483,0.0,0.0
460,114.75,46.2593,51.0661,149.251,98.4706,95.281,0.000100738,0.04178,21.0349,-344.219,0.292583,0.0,0.0
462,115.25,46.3538,51.1674,148.032,98.4578,95.6405,0.000124338,0.0417365,21.0347,-344.219,0.257975,0.0,0.0
464,115.75,45.6956,50.7595,149.533,98.4547,96.1362,0.000148522,0.0416878,21.0345,-344.209,0.211746,0.0,0.0
466,116.25,45.2886,50.5527,146.193,98.4535,94.94,0.00017267,0.0416484,21.0345,-344.219,0.322896,0.0,0.0
468,116.75,45.5819,50.3733,148.622,98.4323,95.638,0.00019223,0.0416164,21.0345,-344.219,0.255901,0.0,0.0
470,117.25,45.1383,49.6842,148.829,98.4403,95.0493,0.000208074,0.0416122,21.0345,-344.209,0.311485,0.0,0.0
472,117.75,45.2423,49.8975,150.886,98.418,95.1181,0.000220908,0.0416282,21.0345,-344.199,0.303045,0.0,0.0
474,118.25,44.9218,49.8075,147.262,98.4315,94.6494,0.000231303,0.0416411,21.0345,-344.219,0.348164,0.0,0.0
476,118.75,44.6353,49.5619,149.777,98.4252,95.7137,0.00022408,0.0416516,21.0345,-344.219,0.248221,0.0,0.0
478,119.25,44.5065,49.9818,147.205,98.42,95.6998,0.00021823,0.0416601,21.0345,-344.209,0.249046,0.0,0.0
480,119.75,43.958,48.9698,149.658,98.4136,95.0071,0.000200261,0.041667,21.0345,-344.209,0.313018,0.0,0.0
482,120.25,44.5353,49.4328,152.767,98.4156,95.5443,0.000185706,0.0416726,21.0345,-344.199,0.263106,0.0,0.0
484,120.75,44.5259,48.9772,147.346,98.3985,94.3284,0.000173284,0.0416629,21.0345,-344.209,0.375362,0.0,0.0
486,121.25,44.33,49.1093,150.667,98.4056,94.9769,0.000162652,0.0416423,21.0345,-344.219,0.315133,0.0,0.0
488,121.75,43.6714,48.7259,151.884,98.4088,94.5413,0.000164864,0.0416257,21.0345,-344.209,0.356266,0.0,0.0
490,122.25,43.9641,48.5428,148.119,98.3957,95.0198,0.000166656,0.0416122,21.0345,-344.209,0.310213,0.0,0.0
492,122.75,43.6439,48.7,150.227,98.4056,95.1578,0.000184952,0.0416013,21.0345,-344.199,0.29822,0.0,0.0
494,123.25,43.8286,48.3604,149.581,98.3869,94.965,0.000199772,0.0415641,21.0345,-344.199,0.314552,0.0,0.0
496,123.75,43.8575,47.8242,150.559,98.3929,94.3636,0.00022622,0.0415085,21.0345,-344.199,0.371542,0.0,0.0
498,124.25,43.5784,48.3403,146.53,98.3845,94.3435,0.000247642,0.0414705,21.0345,-344.219,0.372675,0.0,0.0
500,124.75,43.6413,48.2337,153.699,98.3869,94.7198,0.000264995,0.0414462,21.0345,-344.209,0.337527,0.0,0.0
502,125.25,43.5758,47.3071,147.388,98.3774,95.1459,0.000287289,0.0414335,21.0345,-344.219,0.296774,0.0,0.0
504,125.75,43.0522,47.4432,149.645,98.3746,95.4849,0.000312763,0.0414296,21.0345,-344.219,0.264922,0.0,0.0
506,126.25,42.6772,46.93,151.926,98.3626,95.2704,0.000337201,0.0414336,21.0345,-344.209,0.283827,0.0,0.0
508,126.75,42.5635,46.6848,151.157,98.3801,94.7832,0.000360419,0.0414431,21.0345,-344.199,0.330965,0.0,0.0
510,127.25,43.0226,47.1679,149.193,98.3507,94.7509,0.000384933,0.0414509,21.0345,-344.209,0.331335,0.0,0.0
512,127.75,42.843,46.9946,150.074,98.3634,95.2937,0.000409926,0.0414302,21.0345,-344.219,0.281724,0.0,0.0
514,128.25,42.7013,46.2168,151.481,98.3431,94.9404,0.000430804,0.0414135,21.0345,-344.219,0.312892,0.0,0.0
516,128.75,42.1509,46.6575,146.169,98.3594,94.9326,0.000448287,0.0414141,21.034,-344.229,0.315096,0.0,0.0
518,129.25,42.3045,46.0712,154.892,98.3447,95.4366,0.000457374,0.0414274,21.0337,-344.229,0.266718,0.0,0.0
520,129.75,42.136,46.2587,154.314,98.3427,94.3738,0.000460169,0.0414452,21.0334,-344.229,0.366044,0.0,0.0
522,130.25,41.8232,46.3662,153.481,98.3244,95.2413,0.000456093,0.041466,21.0332,-344.239,0.283083,0.0,0.0
524,130.75,42.1186,46.1838,149.713,98.3395,94.906,0.000447085,0.0414829,21.033,-344.229,0.315787,0.0,0.0
526,131.25,41.4164,45.7667,149.223,98.3327,95.3789,0.000439788,0.0414696,21.0328,-344.209,0.271015,0.0,0.0
528,131.75,41.6767,45.8409,149.706,98.3248,95.4259,0.000429442,0.0414659,21.0327,-344.229,0.265909,0.0,0.0
530,132.25,41.3811,46.0441,150.448,98.3264,95.7309,0.000417069,0.0414693,21.0326,-344.239,0.2377,0.0,0.0
532,132.75,41.1367,45.2719,150.474,98.3148,95.0812,0.000409455,0.0414721,21.0325,-344.229,0.297166,0.0,0.0
534,133.25,41.3342,45.5282,147.639,98.3017,95.0313,0.000406209,0.0415012,21.0325,-344.229,0.300647,0.0,0.0
536,133.75,40.9923,45.3292,154.368,98.306,95.5926,0.000403193,0.0415248,21.0324,-344.239,0.248716,0.0,0.0
538,134.25,41.043,45.331,149.887,98.2949,94.9024,0.000403032,0.0415305,21.0324,-344.239,0.312099,0.0,0.0
540,134.75,40.9698,45.0414,148.194,98.2997,95.4898,0.000402902,0.0415351,21.0323,-344.249,0.257697,0.0,0.0
542,135.25,41.123,45.531,151.184,98.2917,94.592,0.000394458,0.0415318,21.0325,-344.239,0.340914,0.0,0.0
544,135.75,40.4075,44.9926,150.258,98.2945,94.8307,0.000387619,0.0415227,21.0329,-344.219,0.318775,0.0,0.0
546,136.25,41.0915,44.5137,148.004,98.2686,94.9613,0.000358007,0.0415188,21.0332,-344.219,0.304204,0.0,0.0
548,136.75,40.7835,45.0694,149.182,98.2841,94.5355,0.000334021,0.0414718,21.0334,-344.229,0.345538,0.0,0.0
550,137.25,41.0154,45.1419,150.782,98.2726,94.8897,0.000314592,0.0414337,21.0334,-344.229,0.311272,0.0,0.0
552,137.75,40.6675,44.3902,150.422,98.2825,94.9306,0.000280499,0.0414022,21.0334,-344.229,0.308339,0.0,0.0
554,138.25,40.5969,44.2619,150.816,98.2698,95.0559,0.000236363,0.0413767,21.0334,-344.249,0.295469,0.0,0.0
556,138.75,40.5202,44.6293,150.987,98.2746,94.9335,0.000200614,0.0413963,21.0333,-344.239,0.30735,0.0,0.0
558,139.25,40.4484,44.147,149.52,98.2694,95.3576,0.000171656,0.0414123,21.0332,-344.249,0.267273,0.0,0.0
560,139.75,40.4247,44.5874,152.741,98.2726,95.629,0.000148201,0.0414252,21.0332,-344.239,0.242305,0.0,0.0
562,140.25,40.2845,44.0757,148.899,98.2483,95.1627,0.000128569,0.0414357,21.0331,-344.229,0.28354,0.0,0.0
564,140.75,39.9885,43.9062,145.028,98.2626,95.1758,0.000112098,0.0414441,21.0331,-344.249,0.283614,0.0,0.0
566,141.25,39.514,42.9256,149.66,98.2539,95.3531,9.55934e-05,0.041451,21.0331,-344.259,0.266288,0.0,0.0
568,141.75,39.5001,43.3871,156.051,98.2515,95.3461,7.93786e-05,0.0414834,21.0331,-344.249,0.266719,0.0,0.0
570,142.25,39.6589,43.6668,148.427,98.2423,94.8242,6.43468e-05,0.0415097,21.033,-344.229,0.314669,0.0,0.0
572,142.75,39.6265,43.633,150.823,98.2523,94.9576,5.04631e-05,0.041531,21.033,-344.219,0.303072,0.0,0.0
574,143.25,39.8162,43.0547,152.56,98.2339,95.3056,3.60547e-05,0.0415348,21.033,-344.219,0.268912,0.0,0.0
576,143.75,39.4463,43.0124,146.964,98.2535,94.6551,2.15377e-05,0.0415379,21.033,-344.229,0.331535,0.0,0.0
578,144.25,39.4314,43.3928,147.086,98.2299,95.3645,9.14662e-06,0.0415404,21.033,-344.229,0.263057,0.0,0.0
580,144.75,39.6219,42.9728,147.04,98.2491,95.55,-1.45929e-06,0.0415424,21.033,-344.239,0.247525,0.0,0.0
582,145.25,39.3777,42.8392,153.763,98.2379,96.029,-1.00501e-05,0.0415172,21.033,-344.209,0.202083,0.0,0.0
584,145.75,38.9415,42.3091,151.207,98.2439,94.7713,-1.70086e-05,0.0414967,21.033,-344.209,0.319763,0.0,0.0
586,146.25,39.5802,43.4405,150.54,98.2212,94.7517,-2.02414e-05,0.0414667,21.033,-344.229,0.319551,0.0,0.0
588,146.75,39.3665,43.0516,148.385,98.2483,95.2434,-2.286e-05,0.0414423,21.033,-344.229,0.276012,0.0,0.0
590,147.25,39.4091,42.7873,151.818,98.271,96.2705,-2.25774e-05,0.0414226,21.033,-344.249,0.182752,0.0,0.0
592,147.75,39.1481,42.5134,151.442,98.3017,95.0112,-2.23485e-05,0.0414067,21.033,-344.249,0.302521,0.0,0.0
594,148.25,38.8044,42.203,148.977,98.3076,94.8033,-2.40609e-05,0.041415,21.033,-344.259,0.322533,0.0,0.0
596,148.75,39.4558,42.74,146.411,98.3435,94.7275,-2.71559e-05,0.0414408,21.033,-344.249,0.332876,0.0,0.0
598,149.25,38.1065,41.6455,145.425,98.3523,95.019,-3.20658e-05,0.0414618,21.033,-344.229,0.306367,0.0,0.0
600,149.75,38.5267,41.6727,151.439,98.3849,95.069,-3.60428e-05,0.0414787,21.033,-344.249,0.304649,0.0,0.0
602,150.25,38.9412,42.4856,148.536,98.3977,95.1852,-3.29392e-05,0.0414925,21.033,-344.239,0.29494,0.0,0.0
604,150.75,38.595,42.4971,153.349,98.424,95.1259,-2.47329e-05,0.0414902,21.033,-344.239,0.302857,0.0,0.0
606,151.25,38.6002,42.3508,153.328,98.4371,94.9887,-7.9626e-06,0.0414883,21.033,-344.239,0.316864,0.0,0.0
608,151.75,38.4746,42.1572,147.565,98.4614,95.6253,2.44072e-05,0.0414797,21.033,-344.249,0.259706,0.0,0.0
610,152.25,38.508,42.0238,147.511,98.4754,96.5219,4.09516e-05,0.0414663,21.033,-344.229,0.178043,0.0,0.0
612,152.75,38.6466,41.7814,152.679,98.506,94.8716,9.28513e-05,0.0414484,21.0334,-344.239,0.334043,0.0,0.0
614,153.25,38.4761,41.5859,153.063,98.5216,95.4026,0.00013489,0.0414276,21.0338,-344.219,0.285853,0.0,0.0
616,153.75,38.92,41.4756,147.684,98.5391,95.0006,0.000162951,0.0414036,21.0339,-344.199,0.324954,0.0,0.0
618,154.25,37.1292,41.1914,153.57,98.5558,95.4386,0.000210936,0.0413778,21.0337,-344.209,0.285586,0.0,0.0
620,154.75,37.6004,40.9504,148.359,98.5786,95.0583,0.00024917,0.0413338,21.0336,-344.219,0.323114,0.0,0.0
622,155.25,38.207,41.4051,148.098,98.6001,95.1693,0.000279569,0.0412944,21.0335,-344.219,0.314688,0.0,0.0
624,155.75,37.9789,41.4529,149.472,98.624,96.1751,0.000304192,0.0412624,21.0334,-344.239,0.22342,0.0,0.0
626,156.25,38.0288,40.7574,150.362,98.6419,96.2369,0.000309687,0.0412365,21.0333,-344.229,0.219327,0.0,0.0
628,156.75,38.2413,41.2402,152.724,98.673,95.7031,0.000312238,0.0412255,21.0332,-344.209,0.271553,0.0,0.0
630,157.25,37.9948,41.2352,152.022,98.6817,96.0805,0.000312593,0.041235,21.0332,-344.209,0.237365,0.0,0.0
632,157.75,38.1401,41.0575,151.606,98.6925,95.2589,0.000312881,0.0412681,21.0331,-344.239,0.314647,0.0,0.0
634,158.25,38.177,40.8102,150.498,98.7232,95.7932,0.000327562,0.041295,21.0331,-344.239,0.267713,0.0,0.0
636,158.75,38.0663,40.9941,150.605,98.7319,96.0986,0.000339454,0.0412764,21.0331,-344.239,0.240219,0.0,0.0
638,159.25,37.2445,40.8754,148.23,98.7511,95.8001,0.000349086,0.0412684,21.0331,-344.239,0.269578,0.0,0.0
640,159.75,37.1053,40.3543,154.362,98.7523,95.2581,0.000356888,0.0412683,21.033,-344.239,0.320102,0.0,0.0
642,160.25,36.8337,40.5848,146.392,98.7678,95.8034,0.000379694,0.0412682,21.033,-344.249,0.270779,0.0,0.0
644,160.75,37.4966,40.6461,151.956,98.7813,94.7791,0.000413004,0.041295,21.033,-344.229,0.367511,0.0,0.0
646,161.25,37.5123,40.4177,156.34,98.8068,95.4227,0.00043174,0.0413168,21.0331,-344.239,0.309674,0.0,0.0
648,161.75,37.5033,40.8182,147.777,98.8156,96.0183,0.000439496,0.0413344,21.0332,-344.229,0.255167,0.0,0.0
650,162.25,37.1821,39.9768,147.753,98.8232,95.8652,0.000430567,0.0413083,21.0333,-344.229,0.270029,0.0,0.0
652,162.75,37.1421,40.6118,148.234,98.8359,96.0715,0.000409643,0.0412871,21.0334,-344.229,0.252071,0.0,0.0
654,163.25,37.3846,40.0926,149.426,98.861,95.1832,0.00038256,0.04127,21.0334,-344.219,0.336874,0.0,0.0
656,163.75,36.7131,39.8978,151.482,98.867,95.7567,0.000351503,0.0412561,21.0335,-344.209,0.28403,0.0,0.0
658,164.25,37.0582,39.9425,149.573,98.8841,95.5807,0.000319128,0.0412449,21.0337,-344.219,0.301918,0.0,0.0
660,164.75,37.2815,40.2669,152.555,98.8817,95.421,0.000292905,0.0412429,21.0341,-344.229,0.316559,0.0,0.0
662,165.25,37.4017,40.1215,153.302,98.9052,96.1436,0.000268056,0.0412476,21.0345,-344.219,0.251639,0.0,0.0
664,165.75,37.3057,39.78,151.083,98.9112,95.9798,0.000247928,0.0412302,21.0348,-344.209,0.267324,0.0,0.0
666,166.25,37.4264,39.8398,150.248,98.9279,96.1583,0.000231624,0.041197,21.035,-344.229,0.252317,0.0,0.0
668,166.75,36.9232,40.3187,149.328,98.9343,94.9846,0.000218418,0.0411843,21.0352,-344.239,0.362016,0.0,0.0
670,167.25,36.548,40.4181,150.034,98.9423,95.9729,0.000213736,0.0411867,21.0353,-344.249,0.270759,0.0,0.0
672,167.75,36.5661,39.9866,149.534,98.9459,95.9778,0.000209943,0.0411957,21.0354,-344.249,0.270626,0.0,0.0
674,168.25,36.8177,40.0421,145.832,98.9706,95.3912,0.00021048,0.0412094,21.0355,-344.239,0.327323,0.0,0.0
676,168.75,36.8078,40.1725,150.005,98.9626,95.9315,0.000210914,0.0412205,21.0354,-344.229,0.276412,0.0,0.0
678,169.25,36.8071,39.5658,150.235,98.9813,95.6253,0.00021,0.0412295,21.035,-344.229,0.306503,0.0,0.0
680,169.75,37.3285,40.0562,148.414,98.9817,95.4788,0.00020812,0.0412368,21.0348,-344.219,0.320168,0.0,0.0
682,170.25,36.4176,39.3691,149.727,99.0076,96.1297,0.000204064,0.0412427,21.0346,-344.209,0.26212,0.0,0.0
684,170.75,37.0513,39.5844,150.599,98.9929,97.6501,0.0001985,0.0412609,21.0344,-344.229,0.121355,0.0,0.0
686,171.25,36.5674,39.4485,147.716,99.0116,95.6462,,0.0412757,,-344.229,0.30728,0.0,0.0
688,171.75,36.6124,39.0718,148.798,99.0024,95.1312,,0.0412473,,-344.219,0.354432,0.0,0.0
690,172.25,36.8126,39.2641,150.569,99.0232,95.6724,,0.0412243,,-344.229,0.305884,0.0,0.0
692,172.75,36.6501,39.3479,152.421,99.0252,95.43,,0.041246,,-344.219,0.3286,0.0,0.0
694,173.25,36.9764,39.3073,150.29,99.0355,96.2803,,0.0412636,,-344.229,0.250708,0.0,0.0
696,173.75,36.0656,39.236,154.973,99.0359,96.1653,,0.0412509,,-344.229,0.261366,0.0,0.0
698,174.25,36.596,39.1838,152.567,99.0487,95.5746,,,,-344.229,0.317263,0.0,0.0
700,174.75,36.764,38.8254,150.671,99.0387,96.1907,,,,-344.239,0.259271,0.0,0.0
702,175.25,36.2476,39.2607,154.782,99.0491,96.2566,,,,-344.229,0.254114,0.0,0.0
704,175.75,35.8486,38.872,149.147,99.0447,96.0928,,,,-344.229,0.268851,0.0,0.0
706,176.25,36.2328,38.7468,148.675,99.0642,96.2304,,,,-344.229,0.257892,0.0,0.0
708,176.75,36.3944,38.7935,151.054,99.0598,95.8603,,,,-344.229,0.291737,0.0,0.0
710,177.25,36.3833,38.6511,155.539,99.0722,96.013,,,,-344.219,0.278701,0.0,0.0
712,177.75,36.59,38.737,150.645,99.057,94.863,,,,-344.229,0.384411,0.0,0.0
714,178.25,36.0739,38.5675,153.06,99.0726,95.8664,,,,-344.229,0.292311,0.0,0.0
716,178.75,36.1301,38.8877,152.016,99.071,95.8198,,,,-344.229,0.296495,0.0,0.0
718,179.25,36.3197,38.7504,150.277,99.0885,96.0859,,,,-344.229,0.273425,0.0,0.0
720,179.75,35.8432,38.6611,152.84,99.0638,95.9242,,,,-344.209,0.286177,0.0,0.0
722,180.25,36.1132,38.3415,153.856,99.0821,96.4519,,,,-344.219,0.239072,0.0,0.0
724,180.75,35.5867,38.7077,146.364,99.0793,96.0789,,,,-344.219,0.273248,0.0,0.0
726,181.25,35.5653,38.0487,150.855,99.0865,96.196,,,,-344.239,0.263069,0.0,0.0
728,181.75,35.4327,37.8878,151.24,99.0785,95.934,,,,-344.249,0.286588,0.0,0.0