File: 01_Data/PE_Foam_Pipe_Insulation/Cone/PE_Foam_Pipe_Insulation_Cone_HF50Scan_220316_R3.csv
Names,Time,Stack TC,Smoke TC,Exh Press,Smoke Comp,Smoke Meas,CO Meter,CO2 Meter,O2 Meter,Sample Mass,Ext Coeff,Start Test,Flame Verif
Chan Gain,,500,500,1,1,1,1,1,1,1,1,1.0,1.0
Offset,,0,0,0.135167,0,0,0,0,0,0,0,0.0,0.0
Gain,,1,1,25.011,13.0486,13.2841,1,1,1,1.00089,1.0079,1.0,1.0
Units,sec,C,C,Pa,%,%,%,%,%,g,/m,,
Baseline,,33.6446,34.1774,156.623,98.4939,94.9105,0.000439878,0.0569577,21.005,-493.099,0.327736,,
2,0.25,32.2138,32.8536,154.942,97.5955,93.6466,0.000475202,0.0647898,20.9906,0.960856,0.36517,0.0,0.0
4,0.75,31.2,32.0681,155.053,97.5764,93.874,0.00052348,0.0645187,20.9907,0.880785,0.341993,0.0,0.0
6,1.25,31.6054,31.9328,157.792,97.5815,94.0779,0.00067229,0.0645013,20.99,0.840749,0.323278,0.0,0.0
8,1.75,31.7409,32.1884,163.82,97.566,92.477,0.000792826,0.0646692,20.9888,0.860767,0.473616,0.0,0.0
10,2.25,31.2897,32.1142,160.864,97.5668,92.7592,0.00096011,0.065659,20.9879,0.850758,0.446754,0.0,0.0
12,2.75,31.7994,32.0412,156.69,97.5513,92.7118,0.00109561,0.0672292,20.9831,0.870776,0.449869,0.0,0.0
14,3.25,31.6943,31.6343,153.088,97.5469,92.6647,0.00126045,0.068501,20.9758,0.83074,0.453958,0.0,1.0
16,3.75,31.338,31.6009,154.836,97.5353,93.0203,0.00139396,0.0734882,20.9667,0.83074,0.419054,0.0,1.0
18,4.25,31.4883,32.2856,151.199,97.5469,93.7492,0.00150985,0.0775278,20.9542,0.660589,0.35109,0.0,1.0
20,4.75,31.5981,31.972,145.372,97.5262,93.1532,0.00161068,0.086583,20.9394,0.860767,0.405594,0.0,1.0
22,5.25,31.506,32.0496,149.323,97.5365,92.2427,0.00169042,0.0939177,20.9274,0.610544,0.493376,0.0,1.0
24,5.75,31.9123,32.1946,146.757,97.5246,92.3408,0.00175327,0.101762,20.9178,0.730651,0.482895,0.0,1.0
26,6.25,32.1445,32.2931,149.465,97.529,91.6451,0.00179773,0.109829,20.9099,0.790705,0.550152,0.0,1.0
28,6.75,32.3375,32.5566,152.797,97.5099,93.1204,0.00182794,0.116498,20.9027,0.770687,0.407231,0.0,1.0
30,7.25,32.6089,32.7559,150.51,97.5174,92.4081,0.00185241,0.122021,20.8968,0.780696,0.475805,0.0,1.0
32,7.75,32.3044,32.507,156.004,97.5122,92.9067,0.00187416,0.126053,20.8921,0.750669,0.427755,0.0,1.0
34,8.25,31.7518,32.4421,150.007,97.5166,92.7495,0.00189353,0.128921,20.8873,0.710633,0.443134,0.0,1.0
36,8.75,32.2454,32.6609,147.349,97.4967,93.1026,0.0019234,0.131139,20.8835,0.700624,0.407733,0.0,1.0
38,9.25,32.2902,32.6908,150.447,97.5083,92.0282,0.00196036,0.132841,20.8804,0.690615,0.511393,0.0,0.0
40,9.75,32.4061,33.1574,151.608,97.4824,90.9341,0.00201613,0.134219,20.8779,0.690615,0.614794,0.0,0.0
42,10.25,32.7347,33.168,149.322,97.4943,89.7767,0.00208455,0.136276,20.8749,0.700624,0.729132,0.0,0.0
44,10.75,32.4771,33.2329,147.172,97.4748,90.0949,0.00213997,0.137942,20.8717,0.710633,0.696078,0.0,0.0
46,11.25,32.7218,33.1281,151.913,97.4812,88.1019,0.00225981,0.139291,20.8669,0.710633,0.894425,0.0,0.0
48,11.75,32.4858,33.2356,150.183,97.4669,88.1753,0.00235688,0.142171,20.8612,0.690615,0.885764,0.0,0.0
50,12.25,32.851,33.5451,150.118,97.4708,87.0443,0.00250446,0.144504,20.8545,0.660589,1.00027,0.0,0.0
52,12.75,32.9061,33.4218,148.328,97.4601,86.3137,0.00256737,0.148176,20.8506,0.65058,1.07381,0.0,0.0
54,13.25,33.2487,33.6923,149.791,97.4696,86.7236,0.00274447,0.15115,20.844,0.620553,1.03279,0.0,0.0
56,13.75,33.1601,33.6442,145.753,97.4442,86.9089,0.0029505,0.156555,20.8386,0.600535,1.01161,0.0,0.0
58,14.25,33.7586,34.1391,151.214,97.4653,86.3628,0.00311737,0.160934,20.8285,0.580517,1.06926,0.0,0.0
60,14.75,33.9648,34.3332,145.489,97.4362,83.3154,0.00325255,0.167617,20.8203,0.570508,1.38423,0.0,0.0
62,15.25,34.1947,34.4702,151.267,97.4481,82.6688,0.00385906,0.175854,20.8137,0.530473,1.4542,0.0,0.0
64,15.75,33.6507,34.4475,143.166,97.4346,79.565,0.00409306,0.183723,20.7981,0.500446,1.7913,0.0,0.0
66,16.25,34.5069,35.167,138.951,97.4418,77.3491,0.00468444,0.19718,20.7855,0.430384,2.04168,0.0,0.0
68,16.75,34.4905,34.989,138.074,97.4215,77.2672,0.00533559,0.208079,20.7593,0.390348,2.0492,0.0,0.0
70,17.25,34.6039,35.1742,137.641,97.4286,77.508,0.00605071,0.216908,20.7381,0.290259,2.02234,0.0,0.0
72,17.75,35.0529,35.5944,137.75,97.4143,74.8774,0.00679887,0.235237,20.7059,0.210187,2.32632,0.0,0.0
74,18.25,35.6745,35.7583,133.898,97.4306,74.7193,0.00740489,0.270763,20.6664,0.200178,2.34649,0.0,0.0
76,18.75,36.0952,36.4345,135.809,97.4191,74.6974,0.00829808,0.280319,20.616,0.170152,2.34803,0.0,0.0
78,19.25,35.9848,36.1627,130.212,97.4211,71.9954,0.00902157,0.311439,20.5585,0.0400357,2.67395,0.0,0.0
80,19.75,36.3447,37.0559,129.957,97.4035,72.1186,0.00987247,0.336645,20.5024,0.0100089,2.65724,0.0,0.0
82,20.25,37.3227,37.5765,130.937,97.4159,72.1819,0.0105617,0.366954,20.4483,-0.0400357,2.65061,0.0,0.0
84,20.75,37.3622,38.1875,133.025,97.4071,71.5774,0.0112493,0.391504,20.4045,-0.0700624,2.72417,0.0,0.0
86,21.25,37.7024,38.896,132.049,97.4131,67.9082,0.0119227,0.416138,20.3552,-0.140125,3.18997,0.0,0.0
88,21.75,38.277,38.6112,126.327,97.4059,71.1611,0.0124681,0.440366,20.3153,-0.140125,2.77563,0.0,0.0
90,22.25,39.3442,39.5231,134.76,97.4095,72.6388,0.0130165,0.462665,20.2784,-0.180161,2.59425,0.0,0.0
92,22.75,39.5828,40.5988,128.375,97.39,70.765,0.0135568,0.483133,20.2442,-0.260232,2.82354,0.0,0.0
94,23.25,40.2964,40.8072,127.85,97.4191,70.9008,0.0141007,0.502778,20.2165,-0.320285,2.80922,0.0,0.0
96,23.75,41.105,41.9562,119.503,97.3936,66.9948,0.0145412,0.521448,20.1835,-0.350312,3.30792,0.0,0.0
98,24.25,41.2561,41.9463,124.091,97.4007,69.4179,0.0149556,0.536571,20.1567,-0.410366,2.99444,0.0,0.0
100,24.75,41.4917,42.552,128.018,97.39,72.6882,0.0153429,0.557497,20.1208,-0.46041,2.58646,0.0,0.0
102,25.25,42.4839,43.2657,126.788,97.3999,69.9335,0.0156969,0.574446,20.0917,-0.490437,2.92894,0.0,0.0
104,25.75,42.988,44.5831,127.812,97.3892,68.5994,0.0160198,0.592843,20.0495,-0.570508,3.09826,0.0,0.0
106,26.25,43.9325,44.988,120.626,97.3912,69.7471,0.0163148,0.611946,20.0153,-0.580517,2.95175,0.0,0.0
108,26.75,44.7498,45.6103,120.868,97.3876,66.8825,0.0165838,0.627419,19.9726,-0.65058,3.32221,0.0,0.0
110,27.25,45.0979,46.5052,122.412,97.388,67.326,0.0168379,0.64845,19.9379,-0.720642,3.26381,0.0,0.0
112,27.75,45.7584,46.7783,119.251,97.3844,66.6401,0.0170763,0.669696,19.8965,-0.760678,3.35402,0.0,0.0
114,28.25,46.4318,47.7753,119.525,97.3852,67.8692,0.0172693,0.690695,19.863,-0.810722,3.19251,0.0,0.0
116,28.75,47.3243,48.9391,120.095,97.3856,66.3636,0.0174753,0.712029,19.8358,-0.890794,3.39089,0.0,0.0
118,29.25,48.0613,49.4981,123.215,97.3741,66.7601,0.0176867,0.733203,19.7997,-0.910812,3.33718,0.0,0.0
120,29.75,49.1041,50.7439,121.81,97.3705,67.0207,0.0178579,0.750355,19.7703,-0.990883,3.3024,0.0,0.0
122,30.25,49.8164,51.1526,118.076,97.3796,68.1173,0.0180484,0.772692,19.7395,-1.11099,3.15974,0.0,0.0
124,30.75,50.5357,52.3407,115.415,97.3741,68.5353,0.0182028,0.790786,19.7081,-1.16103,3.10515,0.0,0.0
126,31.25,51.1417,53.0022,115.27,97.3689,70.761,0.0183437,0.813151,19.6771,-1.21108,2.82213,0.0,0.0
128,31.75,51.7348,53.8468,117.638,97.3661,70.4508,0.0184579,0.831267,19.6469,-1.25111,2.86071,0.0,0.0
130,32.25,52.9413,54.4739,114.17,97.3689,68.0225,0.0185397,0.845941,19.6167,-1.3512,3.17108,0.0,0.0
132,32.75,53.955,55.9804,114.479,97.3693,70.0483,0.0185962,0.862333,19.5923,-1.41126,2.91166,0.0,0.0
134,33.25,54.4302,56.6024,114.022,97.3625,69.1738,0.0186332,0.87561,19.572,-1.50134,3.02211,0.0,0.0
136,33.75,55.6562,58.1568,114.16,97.3609,69.9283,0.0186631,0.88725,19.5556,-1.54137,2.92606,0.0,0.0
138,34.25,56.4635,58.4937,114.529,97.3625,70.6762,0.0186728,0.896679,19.5423,-1.66148,2.83214,0.0,0.0
140,34.75,57.3801,59.9801,113.887,97.3649,71.6123,0.0186806,0.904223,19.5315,-1.67149,2.71603,0.0,0.0
142,35.25,57.8103,60.454,120.482,97.3514,71.1664,0.0186869,0.910333,19.5228,-1.70152,2.77003,0.0,0.0
144,35.75,58.4806,61.5572,119.565,97.3617,71.3861,0.0186933,0.914817,19.5153,-1.78159,2.74371,0.0,0.0
146,36.25,59.3426,62.2859,119.907,97.3494,68.8998,0.0186986,0.918448,19.5088,-1.82162,3.05602,0.0,0.0
148,36.75,60.3169,63.4824,116.588,97.3577,68.6363,0.0187108,0.922159,19.5035,-1.86166,3.09065,0.0,0.0
150,37.25,60.9109,64.1639,112.107,97.3506,67.5676,0.0187206,0.925165,19.4992,-1.96175,3.22874,0.0,0.0
152,37.75,61.4302,65.0351,120.131,97.349,69.3919,0.0187286,0.9276,19.494,-2.05183,2.99305,0.0,0.0
154,38.25,62.3658,65.7832,124.229,97.3454,70.8724,0.0187477,0.933398,19.4897,-2.0218,2.80607,0.0,0.0
156,38.75,62.9315,66.7197,109.989,97.3589,69.4073,0.0187745,0.938094,19.4824,-2.18194,2.99199,0.0,0.0
158,39.25,63.7068,67.4062,117.293,97.3486,69.606,0.0188074,0.943631,19.4765,-2.21197,2.96578,0.0,0.0
160,39.75,64.1962,68.4307,118.177,97.3502,70.6953,0.0188441,0.949677,19.466,-2.34209,2.82864,0.0,0.0
162,40.25,65.2648,69.0993,120.777,97.339,70.3154,0.0188843,0.954574,19.4574,-2.38212,2.87526,0.0,0.0
164,40.75,65.6714,70.0029,113.349,97.3474,69.9449,0.0189263,0.960416,19.4458,-2.46219,2.92273,0.0,0.0
166,41.25,66.6359,70.7833,112.153,97.3354,69.4037,0.0189603,0.966835,19.4363,-2.50223,2.99032,0.0,0.0
168,41.75,67.2212,71.4137,111.753,97.3458,69.2687,0.0190079,0.973087,19.4247,-2.57229,3.00848,0.0,0.0
170,42.25,67.9753,72.5722,111.559,97.3338,70.7946,0.0190464,0.979099,19.4153,-2.60232,2.81474,0.0,0.0
172,42.75,68.8432,73.1023,112.055,97.3406,68.4388,0.0190888,0.984595,19.4076,-2.70241,3.11457,0.0,0.0
174,43.25,69.3906,73.9179,110.385,97.3338,67.4472,0.0191332,0.989611,19.4001,-2.75245,3.24299,0.0,0.0
176,43.75,70.1011,74.7293,115.692,97.3518,71.1104,0.0191692,0.993674,19.394,-2.82252,2.77702,0.0,0.0
178,44.25,70.6958,75.4881,114.846,97.3263,65.6513,0.0191983,0.998373,19.3874,-2.88257,3.48091,0.0,0.0
180,44.75,71.0955,76.049,120.1,97.3418,67.4379,0.0192219,1.00218,19.3806,-2.94262,3.24494,0.0,0.0
182,45.25,72.0795,77.0477,110.924,97.3307,69.5549,0.0191985,1.00731,19.3751,-3.04271,2.97065,0.0,0.0
184,45.75,72.5308,77.5884,105.501,97.3331,69.3429,0.0191794,1.0133,19.3707,-3.11277,2.99785,0.0,0.0
186,46.25,73.0964,78.3286,115.388,97.3219,70.8396,0.0190989,1.01926,19.3671,-3.16282,2.80804,0.0,0.0
188,46.75,73.6233,79.275,108.821,97.3398,68.9752,0.0190337,1.02508,19.3641,-3.23288,3.04548,0.0,0.0
190,47.25,74.4645,79.9757,110.341,97.3223,70.2603,0.0189334,1.02979,19.3618,-3.31295,2.88067,0.0,0.0
192,47.75,75.0692,80.5968,117.76,97.3331,68.8426,0.0188094,1.02867,19.3625,-3.34298,3.06187,0.0,0.0
194,48.25,75.9924,81.676,116.433,97.3187,69.4499,0.0186657,1.02777,19.3631,-3.39302,2.98292,0.0,0.0
196,48.75,76.541,82.2337,108.556,97.3335,68.0764,0.0185105,1.01965,19.3783,-3.50312,3.16086,0.0,0.0
198,49.25,76.969,82.8836,115.046,97.3195,70.5607,0.0183848,1.01307,19.3905,-3.4831,2.8427,0.0,0.0
200,49.75,77.4575,84.1533,119.239,97.3271,69.0331,0.0182211,1.00267,19.4005,-3.54316,3.03689,0.0,0.0
202,50.25,78.2155,84.3543,129.182,97.3179,69.2707,0.0180328,0.989685,19.4232,-3.62323,3.00569,0.0,0.0
204,50.75,78.5113,85.3272,122.584,97.3323,68.9111,0.0178102,0.973821,19.4416,-3.67327,3.053,0.0,0.0
206,51.25,78.6578,85.239,118.642,97.3175,69.9887,0.017567,0.956161,19.4656,-3.7033,2.91448,0.0,0.0
208,51.75,79.5254,85.8198,119.546,97.3279,69.7815,0.0172767,0.941856,19.4933,-3.75334,2.94163,0.0,0.0
210,52.25,79.7313,86.158,124.832,97.3195,71.5353,0.0169577,0.918136,19.5345,-3.79338,2.72142,0.0,0.0
212,52.75,79.8304,86.792,124.153,97.3346,72.8557,0.0166993,0.898923,19.5679,-3.80339,2.56109,0.0,0.0
214,53.25,80.1652,87.2169,128.785,97.3287,71.5555,0.0163267,0.875692,19.6229,-3.85343,2.71975,0.0,0.0
216,53.75,80.4751,87.4832,128.142,97.3315,71.9816,0.0159317,0.849975,19.6674,-3.89347,2.66751,0.0,0.0
218,54.25,80.5636,87.5278,129.356,97.3203,73.6851,0.015528,0.829143,19.7218,-3.95352,2.4597,0.0,0.0
220,54.75,80.5541,87.8751,124.969,97.3358,72.9858,0.015201,0.801445,19.7658,-3.96353,2.54542,0.0,0.0
222,55.25,80.6016,87.6571,125.754,97.3187,71.6934,0.0147083,0.77901,19.8084,-4.01358,2.70183,0.0,0.0
224,55.75,80.9366,88.0176,129.379,97.3259,71.9476,0.0143092,0.752948,19.8493,-4.07363,2.67119,0.0,0.0
226,56.25,80.785,88.0051,128.826,97.3076,73.5684,0.013986,0.731837,19.8824,-4.09365,2.47256,0.0,0.0
228,56.75,80.7815,88.1574,130.06,97.3247,72.3789,0.0133784,0.707163,19.9166,-4.13368,2.61823,0.0,0.0
230,57.25,80.8318,88.4635,134.212,97.3016,74.7623,0.0128862,0.687176,19.9511,-4.17372,2.32969,0.0,0.0
232,57.75,81.2391,88.46,128.464,97.3271,76.0064,0.0121994,0.661228,19.9894,-4.21376,2.18609,0.0,0.0
234,58.25,80.9801,88.3799,132.864,97.3056,74.4185,0.0116431,0.64021,20.0296,-4.23377,2.3708,0.0,0.0
236,58.75,81.1872,88.6386,136.67,97.3335,75.1004,0.0110147,0.623185,20.0816,-4.23377,2.29269,0.0,0.0
238,59.25,80.5767,88.1317,139.871,97.3171,81.7777,0.0103457,0.587125,20.1412,-4.21376,1.53812,0.0,0.0
240,59.75,80.4449,87.9483,147.546,97.3271,88.9103,0.0095265,0.557917,20.1894,-4.21376,0.799684,0.0,0.0
242,60.25,80.5138,87.9099,146.675,97.3084,91.3151,0.00886294,0.522187,20.2285,-4.22376,0.562024,0.0,0.0
244,60.75,79.968,87.6702,152.968,97.3175,92.0222,0.00832545,0.482381,20.3072,-4.19374,0.494665,0.0,0.0
246,61.25,79.35,86.6652,152.389,97.306,91.9512,0.00789009,0.441733,20.371,-4.17372,0.500435,0.0,0.0
248,61.75,78.5604,86.5137,155.14,97.3191,92.6639,0.00712702,0.401243,20.433,-4.17372,0.433367,0.0,0.0
250,62.25,78.7439,86.1526,156.106,97.308,93.0936,0.00650893,0.363413,20.4925,-4.18373,0.391448,0.0,0.0
252,62.75,77.864,85.9396,147.188,97.3175,92.4016,0.00582074,0.328243,20.5481,-4.18373,0.458283,0.0,0.0
254,63.25,77.0277,84.2157,152.868,97.31,93.2104,0.0052633,0.299755,20.6,-4.20375,0.380546,0.0,0.0
256,63.75,76.7756,84.1806,152.811,97.3235,93.4561,0.00481177,0.271725,20.6419,-4.21376,0.358504,0.0,0.0
258,64.25,76.0532,83.9577,152.387,97.306,92.7381,0.00427903,0.244562,20.6815,-4.21376,0.425098,0.0,0.0
260,64.75,75.92,83.4294,155.603,97.3123,92.4628,0.0038475,0.222559,20.7186,-4.19374,0.451957,0.0,0.0
262,65.25,75.5491,82.744,156.632,97.31,92.9185,0.0034664,0.200604,20.7487,-4.17372,0.408277,0.0,0.0
264,65.75,74.6368,82.3168,154.66,97.3159,93.4934,0.00312928,0.182821,20.7824,-4.17372,0.354289,0.0,0.0
266,66.25,74.4823,81.6133,150.565,97.2952,93.3989,0.00283821,0.167059,20.8097,-4.19374,0.361345,0.0,0.0
268,66.75,74.1365,81.0018,150.887,97.3175,92.4685,0.00258622,0.153071,20.8358,-4.18373,0.451885,0.0,0.0
270,67.25,73.7362,81.1265,152.193,97.3108,92.8999,0.00236731,0.141741,20.8569,-4.20375,0.410123,0.0,0.0
272,67.75,73.5663,80.0469,155.837,97.3203,93.4573,0.0021767,0.131564,20.8771,-4.20375,0.3581,0.0,0.0
274,68.25,72.2166,80.1343,158.908,97.3068,93.0559,0.0020088,0.122421,20.8935,-4.21376,0.39492,0.0,0.0
276,68.75,72.2218,79.2521,153.158,97.3115,93.1877,0.00186067,0.11447,20.9085,-4.19374,0.382845,0.0,0.0
278,69.25,71.7501,78.5383,151.75,97.308,93.0596,0.00172463,0.107539,20.9207,-4.18373,0.394682,0.0,0.0
280,69.75,71.1919,78.2484,155.279,97.3123,92.5901,0.00159999,0.101925,20.9319,-4.18373,0.439794,0.0,0.0
282,70.25,70.6933,77.1881,152.173,97.3235,92.8431,0.00149903,0.0966603,20.941,-4.18373,0.416684,0.0,0.0
284,70.75,70.3513,77.6058,155.262,97.3111,93.2578,0.00139032,0.092128,20.9488,-4.18373,0.376157,0.0,0.0
286,71.25,69.7461,77.074,154.423,97.3131,93.2238,0.00127803,0.0882157,20.9556,-4.20375,0.379567,0.0,0.0
288,71.75,69.3862,76.2991,154.275,97.3131,93.1994,0.00116603,0.0848078,20.961,-4.21376,0.381874,0.0,0.0
290,72.25,68.9874,76.0237,155.199,97.3056,93.0239,0.00105637,0.0818324,20.9638,-4.23377,0.397854,0.0,0.0
292,72.75,68.9608,75.368,157.144,97.3104,93.3916,0.00100963,0.0794224,20.9686,-4.21376,0.36341,0.0,0.0
294,73.25,68.1971,75.1912,156.981,97.3155,93.917,0.000915611,0.0770855,20.9725,-4.20375,0.314281,0.0,0.0
296,73.75,68.1303,74.7901,154.546,97.3064,93.3612,0.000826789,0.0751927,20.9758,-4.19374,0.365928,0.0,0.0
298,74.25,67.5598,74.3944,153.29,97.3171,94.0946,0.000746337,0.0734933,20.9784,-4.18373,0.297727,0.0,0.0
300,74.75,67.0596,73.9854,153.097,97.3068,93.5996,0.00068117,0.0719672,20.981,-4.19374,0.343419,0.0,0.0
302,75.25,66.5128,73.8115,157.386,97.3135,93.6685,0.000632223,0.0713166,20.9831,-4.16371,0.337526,0.0,0.0
304,75.75,66.5617,72.9028,157.639,97.2996,93.3519,0.00059603,0.0699555,20.9852,-4.16371,0.366196,0.0,0.0
306,76.25,65.9319,73.0214,154.22,97.3207,93.03,0.000570551,0.068853,20.9869,-4.17372,0.398651,0.0,0.0
308,76.75,65.3846,71.973,156.185,97.306,93.5347,0.000553367,0.0678517,20.9888,-4.18373,0.349476,0.0,0.0
310,77.25,64.9188,71.8861,151.973,97.3167,93.793,0.000539449,0.0669432,20.9903,-4.19374,0.326076,0.0,0.0
312,77.75,64.9587,71.269,155.484,97.3032,93.2315,0.000527535,0.0661352,20.9915,-4.19374,0.377932,0.0,0.0
314,78.25,64.6472,70.4445,157.554,97.3072,92.9076,0.000517308,0.0654157,20.9925,-4.20375,0.409065,0.0,0.0
316,78.75,64.4267,70.6392,155.5,97.3104,93.4103,0.000507746,0.064833,20.9933,-4.20375,0.361645,0.0,0.0
318,79.25,63.9357,70.4157,150.334,97.3004,93.1309,0.000498848,0.0642376,20.9939,-4.21376,0.387218,0.0,0.0
320,79.75,63.9407,69.9352,155.784,97.2944,93.1171,0.000491642,0.0637554,20.9944,-4.21376,0.387985,0.0,0.0
322,80.25,63.2957,69.5037,154.51,97.3139,93.4857,0.000485804,0.0632277,20.9948,-4.21376,0.354838,0.0,0.0
324,80.75,62.4327,68.8282,154.59,97.2996,93.154,0.000480437,0.0628003,20.9952,-4.20375,0.384953,0.0,0.0
326,81.25,62.9576,68.6746,155.979,97.306,93.1532,0.000475513,0.0623965,20.9959,-4.19374,0.385609,0.0,0.0
328,81.75,62.473,68.6733,154.809,97.3036,93.7411,0.000468327,0.0620174,20.9965,-4.21376,0.329775,0.0,0.0
330,82.25,61.747,68.5778,151.724,97.3147,92.5812,0.000459628,0.0617104,20.997,-4.22376,0.440862,0.0,0.0
332,82.75,61.5587,67.6592,152.61,97.308,93.3174,0.000452582,0.0613795,20.9973,-4.20375,0.370219,0.0,0.0
334,83.25,60.7525,67.9503,154.373,97.3012,93.9494,0.000437063,0.0611115,20.9977,-4.20375,0.309926,0.0,0.0
336,83.75,60.8662,67.1468,157.009,97.3012,93.6243,0.000424492,0.0608534,20.9979,-4.21376,0.340576,0.0,0.0
338,84.25,60.2788,66.4152,153.957,97.3064,93.7585,0.00041431,0.0606371,20.9981,-4.20375,0.328384,0.0,0.0
340,84.75,60.2856,66.4249,154.197,97.2984,93.5619,0.000406063,0.0604554,20.9983,-4.19374,0.346221,0.0,0.0
342,85.25,60.3878,66.5078,155.055,97.3076,93.3762,0.000381164,0.0603082,20.9986,-4.19374,0.364616,0.0,0.0
344,85.75,59.9438,66.1131,153.579,97.296,93.0523,0.000360996,0.0601487,20.9988,-4.18373,0.39429,0.0,0.0
346,86.25,59.3738,65.3607,154.052,97.3155,93.283,0.00034709,0.0600194,20.999,-4.17372,0.374173,0.0,0.0
348,86.75,59.0601,64.9858,152.152,97.2988,93.6571,0.000335825,0.0599148,20.9991,-4.18373,0.33726,0.0,0.0
350,87.25,59.1635,64.1349,150.608,97.304,93.1621,0.000338846,0.0597651,20.9995,-4.18373,0.384581,0.0,0.0
352,87.75,58.928,64.4211,153.328,97.2936,93.2384,0.000341293,0.0595856,21,-4.17372,0.37641,0.0,0.0
354,88.25,58.3172,64.1278,156.542,97.3171,93.019,0.000359069,0.0594401,21.0004,-4.17372,0.399366,0.0,0.0
356,88.75,58.1779,63.6437,162.877,97.2964,93.7508,0.000373468,0.0592676,21.0007,-4.17372,0.328205,0.0,0.0
358,89.25,57.9213,63.5969,153.916,97.3139,93.2217,0.00038705,0.0591278,21.001,-4.20375,0.379832,0.0,0.0
360,89.75,57.4781,63.099,154.964,97.2857,94.1197,0.000399779,0.0589786,21.0012,-4.19374,0.292507,0.0,0.0
362,90.25,56.9383,62.6095,155.195,97.3084,92.8472,0.000406252,0.0588253,21.0013,-4.17372,0.414923,0.0,0.0
364,90.75,57.276,62.2811,152.932,97.2877,93.5554,0.00040804,0.0586867,21.0015,-4.19374,0.345856,0.0,0.0
366,91.25,56.9723,62.6016,156.532,97.3155,93.3981,0.000409488,0.0585615,21.0016,-4.19374,0.363267,0.0,0.0
368,91.75,56.5029,62.2859,153.114,97.292,92.6805,0.000394869,0.0584529,21.0017,-4.21376,0.42932,0.0,0.0
370,92.25,56.636,61.7178,153.615,97.3135,93.6235,0.000383028,0.0583584,21.0018,-4.20375,0.341774,0.0,0.0
372,92.75,56.2563,61.0803,154.824,97.298,93.3969,0.000368322,0.0582747,21.0018,-4.22376,0.361791,0.0,0.0
374,93.25,55.8839,61.3319,153.943,97.3044,93.2594,0.000351809,0.0582004,21.0019,-4.22376,0.375389,0.0,0.0
376,93.75,56.1885,61.2847,157.077,97.2956,93.4626,0.000334599,0.0581402,21.0019,-4.23377,0.355358,0.0,0.0
378,94.25,55.2191,60.7488,159.097,97.3104,93.2343,0.000317209,0.0580641,21.0019,-4.21376,0.378314,0.0,0.0
380,94.75,54.8676,60.2115,141.291,97.2936,93.3101,0.000305679,0.0580024,21.002,-4.21376,0.369609,0.0,0.0
382,95.25,54.9966,60.3983,153.875,97.3163,92.4892,0.000298639,0.0579597,21.0024,-4.21376,0.4498,0.0,0.0
384,95.75,54.4754,60.1737,154.076,97.2932,94.1696,0.000298051,0.0579316,21.0028,-4.20375,0.288511,0.0,0.0
386,96.25,54.7097,59.7355,156.1,97.312,94.0508,0.000302176,0.0578728,21.0031,-4.21376,0.301371,0.0,0.0
388,96.75,54.4669,59.433,153.841,97.2916,93.0422,0.000305517,0.0577927,21.0034,-4.22376,0.394855,0.0,0.0
390,97.25,53.8381,58.9056,157.885,97.3123,92.7312,0.000314296,0.0577279,21.0036,-4.21376,0.426333,0.0,0.0
392,97.75,53.9543,59.3028,154.633,97.2952,93.0097,0.000321408,0.057648,21.0037,-4.22376,0.398262,0.0,0.0
394,98.25,53.1321,58.4539,154.784,97.3211,94.4538,0.000327168,0.0575762,21.0039,-4.22376,0.264402,0.0,0.0
396,98.75,53.2139,58.1352,155.964,97.2944,92.7924,0.000322117,0.0575114,21.004,-4.22376,0.41887,0.0,0.0
398,99.25,53.147,58.3593,151.851,97.3219,92.3728,0.000318026,0.057459,21.004,-4.21376,0.461435,0.0,0.0
400,99.75,53.0241,57.8038,152.266,97.2968,93.3434,0.000303785,0.0574166,21.0041,-4.22376,0.366749,0.0,0.0
402,100.25,52.6981,58.2146,155.664,97.2996,93.4674,0.000292249,0.0573822,21.0042,-4.22376,0.35526,0.0,0.0
404,100.75,52.7056,57.894,156.027,97.2892,93.7804,0.000273194,0.0573471,21.0042,-4.22376,0.324764,0.0,0.0
406,101.25,51.9857,56.8527,157.144,97.3135,92.929,0.00025776,0.0573122,21.0043,-4.20375,0.407598,0.0,0.0
408,101.75,51.9857,57.0265,155.214,97.2896,93.3162,0.000240403,0.057284,21.0043,-4.20375,0.368671,0.0,0.0
410,102.25,52.1621,56.9957,152.833,97.3127,92.8845,0.000226344,0.0572474,21.0043,-4.17372,0.41177,0.0,0.0
412,102.75,51.6823,56.9853,154.554,97.2908,93.9125,0.00021617,0.0572178,21.0043,-4.1537,0.312458,0.0,0.0
414,103.25,51.3396,56.9352,159.371,97.3108,93.6912,0.000207929,0.0571391,21.0043,-4.18373,0.33513,0.0,0.0
416,103.75,51.6345,56.3443,156.042,97.2912,93.9357,0.000205087,0.0570754,21.0044,-4.18373,0.310319,0.0,0.0
418,104.25,51.5371,55.9953,149.838,97.3012,92.5553,0.000206234,0.0570237,21.0044,-4.19374,0.44211,0.0,0.0
420,104.75,50.9715,55.7523,154.971,97.3044,93.5432,0.000207164,0.0569819,21.0044,-4.20375,0.348526,0.0,0.0
422,105.25,51.358,56.0803,151.294,97.306,93.9194,0.00021175,0.0569343,21.0046,-4.20375,0.313185,0.0,0.0
424,105.75,50.8309,55.3484,152.855,97.3024,93.5911,0.000218915,0.0568958,21.005,-4.22376,0.343825,0.0,0.0
426,106.25,51.1861,55.0926,155.045,97.3,92.9051,0.000224079,0.0568509,21.0054,-4.22376,0.408645,0.0,0.0
428,106.75,50.2039,55.0546,153.275,97.2992,93.463,0.000227688,0.0568146,21.0056,-4.21376,0.355645,0.0,0.0
430,107.25,50.2248,54.9885,154.089,97.3032,93.7698,0.000230611,0.0567851,21.0058,-4.20375,0.327024,0.0,0.0
432,107.75,49.9327,54.7252,153.962,97.2956,93.2939,0.000230422,0.0567476,21.006,-4.21376,0.371326,0.0,0.0
434,108.25,49.6773,54.105,153.538,97.2976,93.1565,0.000227969,0.0567172,21.0061,-4.23377,0.384541,0.0,0.0
436,108.75,50.2375,54.0533,156.256,97.3111,93.1192,0.000229177,0.0566782,21.0063,-4.23377,0.389311,0.0,0.0
438,109.25,49.4935,54.072,153.618,97.3032,93.8619,0.000233031,0.0566336,21.0064,-4.24378,0.318352,0.0,0.0
440,109.75,49.1488,53.7017,152.805,97.3092,93.2647,0.000242543,0.0565975,21.0064,-4.25379,0.375322,0.0,0.0
442,110.25,49.0996,54.1408,153.087,97.3056,93.6069,0.000256,0.0565683,21.0065,-4.23377,0.342621,0.0,0.0
444,110.75,49.2795,53.4929,153.921,97.3016,93.118,0.00027585,0.056572,21.0065,-4.21376,0.388558,0.0,0.0
446,111.25,48.8058,53.4689,154.6,97.3024,93.4281,0.000299986,0.0565749,21.0066,-4.22376,0.359234,0.0,0.0
448,111.75,48.4618,53.3442,158.033,97.3008,92.7839,0.000319535,0.0565774,21.0066,-4.22376,0.42026,0.0,0.0
450,112.25,48.0001,52.8116,150.872,97.3159,93.8448,0.000346245,0.0565793,21.0066,-4.22376,0.321114,0.0,0.0
452,112.75,47.7794,52.7377,154.801,97.3024,94.048,0.000377667,0.0564988,21.0067,-4.23377,0.300769,0.0,0.0
454,113.25,48.2922,52.5037,153.012,97.3159,93.4188,0.000407598,0.0564336,21.0067,-4.21376,0.361346,0.0,0.0
456,113.75,48.4404,52.1734,151.359,97.2992,93.9563,0.000435873,0.0563672,21.0062,-4.19374,0.309096,0.0,0.0
458,114.25,47.9656,52.73,154.585,97.2964,94.2782,0.000458777,0.0563133,21.0059,-4.20375,0.278606,0.0,0.0
460,114.75,47.85,52.1276,150.772,97.3199,93.5412,0.000476112,0.0562971,21.0061,-4.21376,0.350128,0.0,0.0
462,115.25,47.5907,51.9916,151.775,97.2972,93.6438,0.000489514,0.0562839,21.0062,-4.21376,0.338376,0.0,0.0
464,115.75,47.6559,51.5059,156.654,97.3032,92.9984,0.000499794,0.0562876,21.0063,-4.22376,0.400066,0.0,0.0
466,116.25,47.5429,51.473,156.018,97.294,93.4427,0.00050812,0.0563036,21.0064,-4.22376,0.357093,0.0,0.0
468,116.75,46.9699,51.4848,154.6,97.3044,93.2307,0.00051608,0.0563093,21.0062,-4.21376,0.378118,0.0,0.0
470,117.25,47.1971,51.1649,156.788,97.2908,92.2536,0.000522528,0.0563075,21.0059,-4.21376,0.470028,0.0,0.0
472,117.75,47.0816,51.0527,154.491,97.3072,93.3332,0.000527111,0.056306,21.0056,-4.21376,0.36865,0.0,0.0
474,118.25,46.8901,50.5662,154.574,97.2916,93.6661,0.000530247,0.0562912,21.0058,-4.20375,0.335766,0.0,0.0
476,118.75,47.0721,50.5025,155.808,97.3036,94.3844,0.000532788,0.0562791,21.006,-4.20375,0.269303,0.0,0.0
478,119.25,46.5964,50.6161,152.945,97.2968,93.1463,0.000532286,0.0562693,21.0061,-4.20375,0.38543,0.0,0.0
480,119.75,46.4239,50.5815,156.726,97.308,92.7426,0.000529575,0.0562614,21.0063,-4.20375,0.424853,0.0,0.0
482,120.25,46.0794,50.2927,157.639,97.3135,93.3028,0.000521621,0.0562766,21.0063,-4.19374,0.372108,0.0,0.0
484,120.75,46.294,50.4076,156.406,97.3012,93.3507,0.000509997,0.0563084,21.0064,-4.20375,0.366456,0.0,0.0
486,121.25,46.3979,49.8506,152.93,97.3052,93.6134,0.000491627,0.0563341,21.0065,-4.19374,0.341972,0.0,0.0
488,121.75,45.7425,49.9183,155.57,97.306,93.1321,0.000468689,0.0563549,21.0065,-4.20375,0.387609,0.0,0.0
490,122.25,46.2003,50.1901,153.875,97.2976,92.972,0.000446274,0.0563718,21.0066,-4.19374,0.402065,0.0,0.0
492,122.75,45.1737,49.4784,154.944,97.302,93.6851,0.000424666,0.0563782,21.0066,-4.23377,0.334909,0.0,0.0
494,123.25,45.3417,49.3383,156.582,97.2976,94.1075,0.00040972,0.056377,21.0066,-4.21376,0.294735,0.0,0.0
496,123.75,45.4294,49.442,157.396,97.3052,94.0646,0.000399915,0.056376,21.0067,-4.23377,0.29946,0.0,0.0
498,124.25,45.9143,48.9275,159.607,97.304,93.4881,0.000398368,0.0563752,21.0067,-4.21376,0.353703,0.0,0.0
500,124.75,45.2269,49.0656,154.873,97.3,93.3721,0.000402869,0.0563745,21.0067,-4.20375,0.364313,0.0,0.0
502,125.25,45.5492,49.1594,158.943,97.2928,93.1476,0.000406516,0.0563603,21.0067,-4.20375,0.384953,0.0,0.0
504,125.75,44.7167,48.7714,156.67,97.3084,93.2149,0.000412028,0.0563488,21.0067,-4.20375,0.379979,0.0,0.0
506,126.25,44.9086,48.2592,152.589,97.294,92.7851,0.000418796,0.0563121,21.0067,-4.24378,0.419529,0.0,0.0
508,126.75,44.6112,48.5721,154.349,97.3044,93.5509,0.000417242,0.056268,21.0067,-4.23377,0.347798,0.0,0.0
510,127.25,44.8349,48.657,153.269,97.2944,94.0411,0.000413248,0.0562193,21.0067,-4.24378,0.300694,0.0,0.0
512,127.75,44.9622,48.2913,157.444,97.3108,93.4017,0.000406417,0.0561799,21.0067,-4.23377,0.362488,0.0,0.0
514,128.25,44.4082,48.625,155.6,97.296,93.493,0.000391935,0.0561624,21.0067,-4.24378,0.352519,0.0,0.0
516,128.75,44.4872,48.3265,155.516,97.3044,93.4321,0.00037215,0.0561611,21.0063,-4.23377,0.359032,0.0,0.0
518,129.25,44.5763,47.4341,156.548,97.3,94.2085,0.000354846,0.0561817,21.0059,-4.22376,0.285473,0.0,0.0
520,129.75,44.3239,47.8352,154.413,97.3143,93.8919,0.000339678,0.0562178,21.0056,-4.21376,0.31654,0.0,0.0
522,130.25,43.6512,47.2404,156.593,97.2936,93.1224,0.000327393,0.0562332,21.0054,-4.20375,0.387412,0.0,0.0
524,130.75,43.7244,47.5325,151.231,97.31,93.1593,0.000312969,0.0562732,21.0052,-4.21376,0.385394,0.0,0.0
526,131.25,43.9852,47.2131,152.855,97.2912,93.9875,0.000297261,0.0563056,21.0049,-4.21376,0.305437,0.0,0.0
528,131.75,43.4801,47.2719,158.568,97.3135,93.5286,0.000290564,0.0563318,21.0048,-4.20375,0.350737,0.0,0.0
530,132.25,44.0766,47.0376,154.142,97.296,94.0224,0.000269402,0.0563531,21.0046,-4.20375,0.302592,0.0,0.0
532,132.75,43.942,47.2246,154.293,97.3088,93.212,0.000252261,0.0563703,21.0045,-4.22376,0.380285,0.0,0.0
534,133.25,43.5254,46.8907,157.863,97.2972,93.4354,0.000238377,0.0563842,21.0043,-4.22376,0.358073,0.0,0.0
536,133.75,43.2234,46.431,155.828,97.3048,93.6977,0.000216209,0.0563955,21.0042,-4.20375,0.333975,0.0,0.0
538,134.25,43.0441,46.1194,156.039,97.296,93.4626,0.000198254,0.0564047,21.0041,-4.18373,0.355395,0.0,0.0
540,134.75,42.4117,45.9168,153.923,97.306,93.5615,0.000178857,0.0564086,21.0041,-4.18373,0.346947,0.0,0.0
542,135.25,43.1498,46.2583,154.048,97.2952,93.4204,0.000163146,0.0564152,21.004,-4.20375,0.359311,0.0,0.0
544,135.75,42.9,46.5601,153.81,97.3088,93.688,0.000149094,0.0564278,21.004,-4.21376,0.335256,0.0,0.0
546,136.25,42.6111,46.0631,157.049,97.3076,94.3406,0.000136519,0.0564445,21.0039,-4.23377,0.273766,0.0,0.0
548,136.75,43.0068,46.3271,156.009,97.312,93.6555,0.000122503,0.056458,21.0039,-4.23377,0.338606,0.0,0.0
550,137.25,42.235,46.2767,153.615,97.3096,93.0693,0.000107703,0.0564416,21.004,-4.23377,0.393902,0.0,0.0
552,137.75,43.0018,45.7,151.515,97.3064,93.2051,9.25229e-05,0.0564283,21.0041,-4.23377,0.380721,0.0,0.0
554,138.25,42.3199,45.7126,152.295,97.3028,92.9538,7.73549e-05,0.0564108,21.0042,-4.22376,0.40427,0.0,0.0
556,138.75,42.4356,45.2914,157.14,97.3199,93.6304,6.50688e-05,0.0563904,21.0043,-4.22376,0.341703,0.0,0.0
558,139.25,42.6904,45.3848,157.819,97.2936,93.4321,4.78425e-05,0.0563884,21.0044,-4.23377,0.358055,0.0,0.0
560,139.75,42.3383,45.7882,159.007,97.3263,92.8565,3.38893e-05,0.0563996,21.0044,-4.24378,0.415664,0.0,0.0
562,140.25,42.4338,45.9146,156.093,97.2932,93.5728,2.25872e-05,0.0564087,21.0045,-4.24378,0.344716,0.0,0.0
564,140.75,42.0859,45.2355,153.299,97.3199,92.7961,8.58214e-06,0.0564161,21.0045,-4.24378,0.420838,0.0,0.0
566,141.25,42.0453,44.8761,151.62,97.2936,93.7188,-2.76193e-06,0.0564221,21.0045,-4.24378,0.330973,0.0,0.0
568,141.75,42.358,45.1257,150.667,97.3147,93.6981,-3.46277e-06,0.056468,21.0045,-4.25379,0.334842,0.0,0.0
570,142.25,41.7749,45.2516,157.667,97.3028,93.0454,-4.03045e-06,0.0565052,21.0045,-4.2638,0.39556,0.0,0.0
572,142.75,42.1762,45.5139,153.903,97.3084,93.5676,1.00624e-05,0.0565209,21.0046,-4.23377,0.346589,0.0,0.0
574,143.25,41.1805,44.5431,157.061,97.3052,93.5935,2.14776e-05,0.0565206,21.0046,-4.21376,0.343848,0.0,0.0
576,143.75,41.092,44.3747,154.728,97.3123,94.2239,4.77085e-05,0.0565205,21.0046,-4.21376,0.285149,0.0,0.0
578,144.25,41.6869,44.9102,154.961,97.2988,94.018,6.89555e-05,0.0565066,21.0046,-4.20375,0.303264,0.0,0.0
580,144.75,41.5153,44.6485,157.678,97.31,93.3215,0.000100731,0.0564954,21.0046,-4.20375,0.370017,0.0,0.0
582,145.25,41.2211,44.953,155.519,97.3012,93.6953,0.000126469,0.0565007,21.0046,-4.21376,0.33388,0.0,0.0
584,145.75,41.175,44.4011,153.647,97.312,93.4828,0.00015179,0.056518,21.0046,-4.22376,0.354925,0.0,0.0
586,146.25,41.3121,44.1876,155.494,97.3147,93.2655,0.000176326,0.056532,21.0046,-4.24378,0.375753,0.0,0.0
588,146.75,40.8795,44.1864,154.439,97.312,93.7812,0.000196199,0.0565433,21.0046,-4.2638,0.32675,0.0,0.0
590,147.25,41.6326,44.0294,151.664,97.3076,94.2032,0.00021682,0.0565381,21.0046,-4.25379,0.286655,0.0,0.0
592,147.75,41.3502,43.9895,153.961,97.3024,93.3276,0.000237593,0.0565209,21.0044,-4.2638,0.368753,0.0,0.0
594,148.25,41.392,44.1841,155.476,97.306,93.4536,0.000255058,0.0564926,21.0043,-4.25379,0.357143,0.0,0.0
596,148.75,40.8381,43.474,156.822,97.3139,94.0342,0.000269781,0.0564567,21.0042,-4.23377,0.303115,0.0,0.0
598,149.25,40.6833,43.3909,154.848,97.3,92.7069,0.000277871,0.0564276,21.0041,-4.23377,0.42753,0.0,0.0
600,149.75,40.487,43.3257,153.764,97.3143,93.7334,0.000280972,0.0563897,21.0041,-4.22376,0.331478,0.0,0.0
602,150.25,41.2393,43.6219,155.807,97.3068,94.3808,0.000282845,0.0563589,21.004,-4.22376,0.269933,0.0,0.0
604,150.75,40.9696,43.4968,152.284,97.3096,92.6696,0.000283787,0.0563412,21.004,-4.24378,0.431957,0.0,0.0
606,151.25,40.6573,43.3322,153.817,97.3155,93.3426,0.000285189,0.0563333,21.0039,-4.22376,0.368526,0.0,0.0
608,151.75,40.5178,43.1172,156.221,97.3139,93.1301,0.000286089,0.0563125,21.0039,-4.23377,0.388525,0.0,0.0
610,152.25,40.3596,42.8718,153.346,97.3247,93.2728,0.000289546,0.0562827,21.0039,-4.23377,0.375965,0.0,0.0
612,152.75,40.1398,43.0536,154.133,97.3255,93.7098,0.000294072,0.0562586,21.0038,-4.24378,0.33471,0.0,0.0
614,153.25,40.5167,43.0166,152.561,97.3155,93.8546,0.000297738,0.0562254,21.0038,-4.24378,0.320161,0.0,0.0
616,153.75,40.4218,42.754,153.729,97.3088,93.8011,0.000300708,0.0561985,21.0038,-4.23377,0.324588,0.0,0.0
618,154.25,40.0767,42.784,156.862,97.3171,93.4407,0.000306949,0.0561767,21.0038,-4.23377,0.359384,0.0,0.0
620,154.75,40.1448,43.1165,152.287,97.308,93.0044,0.000315456,0.0561674,21.0036,-4.24378,0.399922,0.0,0.0
622,155.25,40.0647,42.9816,153.035,97.312,93.9202,0.000321069,0.0561378,21.0034,-4.24378,0.313651,0.0,0.0
624,155.75,40.6162,42.4681,151.595,97.3064,93.6284,0.000324464,0.0561139,21.0033,-4.25379,0.340665,0.0,0.0
626,156.25,40.0712,42.9139,155.255,97.3191,94.1716,0.000327214,0.0560945,21.0032,-4.25379,0.290673,0.0,0.0
628,156.75,40.2219,42.7328,156.436,97.3139,93.1897,0.000308799,0.0561076,21.0031,-4.25379,0.38287,0.0,0.0
630,157.25,39.9235,42.05,155.737,97.3211,93.8201,0.000293883,0.0561441,21.003,-4.25379,0.323914,0.0,0.0
632,157.75,39.8266,42.5494,153.058,97.3155,92.2569,0.000264809,0.0561737,21.003,-4.25379,0.471961,0.0,0.0
634,158.25,39.7945,42.1799,153.847,97.3179,93.418,0.00024126,0.0561839,21.0029,-4.25379,0.361603,0.0,0.0
636,158.75,39.7262,42.2485,157.576,97.3135,93.3332,0.000217332,0.0561923,21.0029,-4.24378,0.369228,0.0,0.0
638,159.25,39.7736,42.3479,156.684,97.3251,93.8615,0.00019795,0.056158,21.0029,-4.2638,0.32038,0.0,0.0
640,159.75,39.7829,41.993,155.153,97.3048,93.2939,0.000186082,0.0561302,21.0028,-4.28382,0.372158,0.0,0.0
642,160.25,39.8794,42.0194,154.357,97.3215,93.0693,0.000179917,0.0560804,21.0033,-4.27381,0.394987,0.0,0.0
644,160.75,39.7116,41.9159,157.456,97.3,94.0269,0.000174924,0.05604,21.0036,-4.2638,0.302535,0.0,0.0
646,161.25,39.3772,42.104,154.631,97.3159,93.5773,0.000172795,0.0560217,21.0039,-4.29383,0.346357,0.0,0.0
648,161.75,39.1846,41.6783,155.716,97.3036,94.1992,0.000172796,0.0560198,21.0041,-4.28382,0.286673,0.0,0.0
650,162.25,40.1684,41.8173,155.994,97.3191,93.8761,0.000165771,0.0560327,21.0043,-4.24378,0.318463,0.0,0.0
652,162.75,38.7871,41.5928,154.223,97.308,93.6247,0.00015376,0.0560561,21.0044,-4.25379,0.341153,0.0,0.0
654,163.25,38.5475,41.8615,152.719,97.3147,93.9231,0.000133817,0.056075,21.0046,-4.24378,0.313637,0.0,0.0
656,163.75,39.0746,41.0579,160.008,97.308,93.4411,0.000108472,0.0560493,21.0047,-4.23377,0.358513,0.0,0.0
658,164.25,39.6359,41.7229,156.021,97.3227,93.7236,7.96463e-05,0.0560285,21.0047,-4.24378,0.333156,0.0,0.0
660,164.75,39.6143,41.1107,152.54,97.2916,93.7021,4.88312e-05,0.0560117,21.0048,-4.24378,0.332361,0.0,0.0
662,165.25,39.1277,41.0534,154.019,97.3211,93.9863,1.17462e-05,0.055998,21.0049,-4.23377,0.308265,0.0,0.0
664,165.75,38.9513,41.2672,157.011,97.308,93.33,-1.82926e-05,0.0559798,21.0049,-4.22376,0.36903,0.0,0.0
666,166.25,39.1799,41.29,154.246,97.3255,92.7219,-4.51765e-05,0.0559585,21.0049,-4.23377,0.428416,0.0,0.0
668,166.75,38.8141,41.7699,153.73,97.3028,94.2332,-6.92496e-05,0.0559269,21.005,-4.23377,0.283406,0.0,0.0
670,167.25,39.3346,41.3983,155.141,97.3283,92.7568,-8.87488e-05,0.0558883,21.005,-4.23377,0.425345,0.0,0.0
672,167.75,39.1302,40.8043,155.148,97.3044,92.6899,-0.000104543,0.0558715,21.005,-4.25379,0.429552,0.0,0.0
674,168.25,38.9905,40.9447,155.708,97.3183,93.3012,-0.000100362,0.0558708,21.005,-4.25379,0.372697,0.0,0.0
676,168.75,38.7907,40.8703,154.071,97.3044,93.737,-9.69758e-05,0.0558631,21.005,-4.2638,0.33023,0.0,0.0
678,169.25,38.7824,41.1998,151.346,97.3219,94.0212,-7.36205e-05,0.0558503,21.005,-4.23377,0.305057,0.0,0.0
680,169.75,38.6445,40.8523,155.505,97.3052,93.8238,,0.05584,,-4.24378,0.322123,0.0,0.0
682,170.25,39.0957,40.9932,156.867,97.3287,93.5813,,0.0558453,,-4.23377,0.347131,0.0,0.0
684,170.75,38.6392,40.8024,155.448,97.304,93.9442,,0.0558496,,-4.22376,0.310676,0.0,0.0
686,171.25,38.2378,40.896,154.436,97.3259,94.2693,,0.0558387,,-4.21376,0.28212,0.0,0.0
688,171.75,38.5196,40.4805,161.045,97.3012,93.5331,,0.0558169,,-4.22376,0.349194,0.0,0.0
690,172.25,38.6222,40.8301,153.411,97.3191,93.6117,,0.0557992,,-4.22376,0.343391,0.0,0.0
692,172.75,38.6254,40.6547,155.419,97.3024,94.0552,,,,-4.22376,0.300084,0.0,0.0
694,173.25,38.6095,40.7191,151.086,97.3187,93.334,,,,-4.21376,0.369622,0.0,0.0
696,173.75,38.5077,40.0175,151.514,97.3167,93.4548,,,,-4.21376,0.358004,0.0,0.0
698,174.25,38,40.5098,153.724,97.3271,94.0597,,,,-4.21376,0.301907,0.0,0.0
700,174.75,38.3783,40.5286,153.669,97.3016,93.3527,,,,-4.22376,0.366299,0.0,0.0
702,175.25,38.2539,40.0262,159.222,97.3195,93.6503,,,,-4.23377,0.33979,0.0,0.0
704,175.75,37.5991,39.6387,152.794,97.3044,93.5663,,,,-4.24378,0.346342,0.0,0.0
706,176.25,38.7808,40.1949,156.749,97.3159,93.1046,,,,-4.23377,0.391131,0.0,0.0
708,176.75,37.9665,40.4824,150.619,97.2988,93.7159,,,,-4.23377,0.331711,0.0,0.0
710,177.25,37.441,40.0258,153.511,97.3215,93.1597,,,,-4.22376,0.386403,0.0,0.0
712,177.75,37.9457,40.0262,152.198,97.3028,92.8674,,,,-4.23377,0.412486,0.0,0.0
714,178.25,37.7346,39.8891,149.781,97.3147,93.5376,,,,-4.24378,0.350003,0.0,0.0
716,178.75,37.8682,40.3277,156.897,97.3163,93.0888,,,,-4.24378,0.392669,0.0,0.0
718,179.25,37.8023,40.1443,154.59,97.3151,93.5647,,,,-4.23377,0.347472,0.0,0.0
720,179.75,37.9106,39.7534,155.33,97.3024,94.0216,,,,-4.23377,0.303247,0.0,0.0
722,180.25,37.8305,39.7748,152.04,97.3263,93.2971,,,,-4.23377,0.373805,0.0,0.0
723,180.5,37.7859,39.9448,151.015,97.3048,93.4573,,,,-4.24378,0.356688,0.0,0.0