File: 01_Data/PE_Foam_Pipe_Insulation/Cone/PE_Foam_Pipe_Insulation_Cone_HF25Scan_220316_R1.csv
Names,Time,Stack TC,Smoke TC,Exh Press,Smoke Comp,Smoke Meas,CO Meter,CO2 Meter,O2 Meter,Sample Mass,Ext Coeff,Start Test,Flame Verif
Chan Gain,,500,500,1,1,1,1,1,1,1,1,1.0,1.0
Offset,,0,0,0.136382,0,0,0,0,0,0,0,0.0,0.0
Gain,,1,1,25.011,13.0548,13.4146,1,1,1,1.00087,1.01298,1.0,1.0
Units,sec,C,C,Pa,%,%,%,%,%,g,/m,,
Baseline,,18.2446,18.8654,158.783,98.5256,97.18,0.00049463,0.0446014,21.0254,-833.018,0.122217,,
2,0.25,17.5985,18.2964,160.819,98.4136,97.2428,0.00073954,0.0584255,21.0143,-336.712,0.106348,0.0,0.0
4,0.75,17.3153,17.4765,159.338,98.4196,96.9865,0.000760053,0.0577414,21.0157,-336.612,0.130335,0.0,0.0
6,1.25,17.3341,18.1642,158.443,98.4244,96.9615,0.000776669,0.0567684,21.0167,-336.502,0.133056,0.0,0.0
8,1.75,17.2649,18.1514,160.091,98.4176,97.0708,0.000790128,0.0559802,21.0179,-336.422,0.122433,0.0,0.0
10,2.25,17.2396,17.8158,156.6,98.414,97.2014,0.000811895,0.0550447,21.0188,-336.442,0.110163,0.0,0.0
12,2.75,17.2395,17.7442,157.397,98.4268,96.4596,0.000829527,0.0542869,21.02,-336.512,0.179386,0.0,0.0
14,3.25,17.2415,17.6658,161.408,98.4252,96.6701,0.000861925,0.0535377,21.0209,-336.562,0.15988,0.0,0.0
16,3.75,17.3233,18.1427,156.713,98.4212,96.9939,0.000888167,0.0528091,21.0217,-336.592,0.129805,0.0,0.0
18,4.25,17.3145,17.5212,160.054,98.4017,95.7092,0.000916418,0.0521408,21.0223,-336.602,0.246517,0.0,0.0
20,4.75,17.0761,17.9169,157.234,98.4029,97.1494,0.000945598,0.0515291,21.0228,-336.582,0.11391,0.0,0.0
22,5.25,17.0027,17.658,163.678,98.4048,96.6353,0.000969234,0.0509769,21.0232,-336.552,0.161244,0.0,0.0
24,5.75,17.0497,18.0911,159.021,98.4001,96.3659,0.00098717,0.0504785,21.0236,-336.522,0.185617,0.0,0.0
26,6.25,17.1681,18.2366,156.363,98.3913,97.0184,0.0010017,0.0500748,21.0238,-336.522,0.124857,0.0,0.0
28,6.75,17.1852,17.5455,159.518,98.3861,95.9369,0.00100138,0.0497478,21.0241,-336.502,0.224007,0.0,0.0
30,7.25,17.544,17.8131,157.898,98.3857,96.2468,0.00100113,0.0494829,21.0242,-336.492,0.195313,0.0,0.0
32,7.75,17.7616,18.1309,159.344,98.377,96.6426,0.000984013,0.0492541,21.0244,-336.522,0.158049,0.0,0.0
34,8.25,17.4419,18.1016,156.042,98.3837,96.2725,0.00097015,0.0490561,21.0245,-336.542,0.192752,0.0,0.0
36,8.75,17.3052,17.6001,159.413,98.3786,96.4547,0.000950469,0.0488957,21.0246,-336.552,0.175487,0.0,0.0
38,9.25,16.799,17.5075,155.963,98.3774,96.1068,0.000934527,0.0486309,21.0247,-336.562,0.207492,0.0,0.0
40,9.75,17.2706,17.7707,159.831,98.3702,95.9471,0.000920408,0.0484164,21.0247,-336.562,0.221618,0.0,0.0
42,10.25,16.8271,18.1407,158.46,98.3766,95.8783,0.000908971,0.0481213,21.0248,-336.552,0.228567,0.0,0.0
44,10.75,17.5882,17.608,157.29,98.3718,95.95,0.000899707,0.0478823,21.0248,-336.542,0.221498,0.0,0.0
46,11.25,17.3442,18.1847,157.348,98.3678,96.0032,0.000905503,0.0476078,21.0249,-336.552,0.21621,0.0,0.0
48,11.75,17.3611,17.7899,157.623,98.3666,95.4845,0.000922169,0.0473855,21.0251,-336.582,0.26424,0.0,0.0
50,12.25,17.6065,17.8345,159.302,98.3678,95.6703,0.000935668,0.0470976,21.0252,-336.552,0.247069,0.0,0.0
52,12.75,17.2081,18,158.931,98.3602,95.3989,0.000965936,0.0468644,21.0253,-336.572,0.271631,0.0,0.0
54,13.25,17.7674,17.8556,160.833,98.3686,95.532,0.000990454,0.0466755,21.0254,-336.552,0.260002,0.0,0.0
56,13.75,17.5739,17.7122,158.993,98.3499,96.0392,0.00102361,0.0463616,21.0255,-336.452,0.211257,0.0,1.0
58,14.25,17.5917,18.0051,157.758,98.3594,95.5176,0.00105047,0.0461073,21.0256,-336.432,0.260508,0.0,1.0
60,14.75,17.1996,17.9765,161.595,98.3523,96.0507,0.00108674,0.0459013,21.0252,-336.852,0.210413,0.0,1.0
62,15.25,17.649,17.5471,159.177,98.3463,95.8959,0.00112439,0.0456401,21.0249,-337.333,0.2242,0.0,1.0
64,15.75,17.443,18.2106,158.224,98.3419,96.3692,0.00116234,0.0454286,21.0246,-337.463,0.18006,0.0,1.0
66,16.25,17.729,18.2032,159.447,98.3455,96.3864,0.00119308,0.0452572,21.0244,-337.863,0.1788,0.0,1.0
68,16.75,17.2659,18.2737,160.452,98.328,95.5737,0.00123856,0.0451185,21.0245,-338.104,0.252447,0.0,0.0
70,17.25,16.528,17.413,157.121,98.3252,96.2451,0.00127539,0.0450195,21.0248,-338.354,0.189994,0.0,0.0
72,17.75,16.5975,17.7042,158.775,98.3296,95.6691,0.00131224,0.0449394,21.025,-338.594,0.243728,0.0,0.0
74,18.25,17.7049,17.8523,159.545,98.3303,95.9852,0.0013484,0.0448744,21.0251,-338.704,0.214494,0.0,0.0
76,18.75,17.3977,17.9404,157.742,98.3156,96.3008,0.00137769,0.0448219,21.0253,-339.054,0.18399,0.0,0.0
78,19.25,17.6269,18.5752,156.662,98.3327,96.1534,0.00140141,0.0447658,21.0254,-339.114,0.199147,0.0,0.0
80,19.75,17.655,18.111,159.999,98.3096,95.6118,0.00141578,0.0447204,21.0256,-339.224,0.247252,0.0,0.0
82,20.25,17.6868,18.1443,159.464,98.3204,95.3179,0.00142742,0.0446694,21.026,-339.305,0.275584,0.0,0.0
84,20.75,18.0409,17.8281,159.347,98.306,96.0765,0.0014318,0.0446154,21.0263,-339.235,0.203851,0.0,0.0
86,21.25,17.1063,18.2919,158.449,98.306,96.3471,0.0014308,0.0445716,21.0265,-339.154,0.178859,0.0,0.0
88,21.75,17.7711,17.8137,158.368,98.2977,95.6867,0.00142362,0.0445362,21.0267,-339.184,0.239212,0.0,0.0
90,22.25,17.6456,18.1837,162.189,98.3092,96.0842,0.00141206,0.0444578,21.0262,-339.134,0.20342,0.0,0.0
92,22.75,17.4769,18.126,157.792,98.3017,95.8533,0.00139888,0.0443497,21.0259,-339.154,0.224113,0.0,0.0
94,23.25,17.5888,18.0858,159.084,98.2973,95.839,0.00138477,0.044248,21.0256,-339.124,0.225045,0.0,0.0
96,23.75,17.669,18.2207,156.349,98.2909,95.7559,0.00137333,0.0441528,21.0253,-339.064,0.232178,0.0,0.0
98,24.25,17.7234,18.0928,157.78,98.2853,95.9905,0.00136407,0.0440683,21.0251,-338.994,0.209933,0.0,0.0
100,24.75,17.782,18.6345,157.065,98.2809,95.6597,0.00135657,0.0439931,21.025,-338.844,0.240208,0.0,0.0
102,25.25,17.3502,18.873,158.226,98.2881,95.7346,0.00136018,0.0439322,21.0248,-338.654,0.233902,0.0,0.0
104,25.75,17.411,18.8198,158.2,98.2654,95.8755,0.0013631,0.0438829,21.0247,-338.514,0.218786,0.0,0.0
106,26.25,17.3565,18.2639,157.116,98.2734,95.3367,0.00137566,0.0438642,21.0247,-338.384,0.269579,0.0,0.0
108,26.75,17.813,18.5805,158.871,98.2666,95.7199,0.00139501,0.0438682,21.0246,-338.234,0.233324,0.0,0.0
110,27.25,17.8039,18.0805,159.071,98.279,95.4738,0.00141069,0.0438714,21.0245,-338.124,0.25731,0.0,0.0
112,27.75,17.9366,18.3606,160.969,98.267,95.7743,0.00144519,0.0439818,21.0245,-337.973,0.228307,0.0,0.0
114,28.25,17.4331,17.962,159.931,98.2562,96.2251,0.00147314,0.0440711,21.0245,-337.813,0.185615,0.0,0.0
116,28.75,17.8491,17.8536,160.89,98.2471,95.936,0.00151153,0.0442428,21.0244,-337.683,0.211515,0.0,0.0
118,29.25,17.5943,18.152,159.207,98.2503,95.3216,0.00154263,0.0444712,21.0244,-337.563,0.268901,0.0,0.0
120,29.75,18.0607,17.6715,161.133,98.2395,95.4051,0.00157631,0.0446562,21.0239,-337.443,0.260146,0.0,0.0
122,30.25,17.7532,18.5617,160.158,98.2335,95.3232,0.00160359,0.0451025,21.0231,-337.313,0.267236,0.0,0.0
124,30.75,18.2962,18.5272,164.807,98.2355,95.6998,0.00162377,0.045464,21.0225,-337.223,0.232375,0.0,0.0
126,31.25,17.7385,18.3814,160.992,98.2359,95.2925,0.00163839,0.0460131,21.0215,-337.113,0.270313,0.0,0.0
128,31.75,17.9064,18.4779,156.597,98.222,95.4857,0.00165024,0.0464578,21.0207,-337.043,0.251052,0.0,0.0
130,32.25,17.7172,18.1624,161.888,98.2284,96.004,0.0016356,0.0470026,21.0201,-337.003,0.20353,0.0,0.0
132,32.75,17.2094,18.3082,159.074,98.2256,96.1796,0.00160193,0.0476101,21.0187,-336.943,0.187037,0.0,0.0
134,33.25,17.9473,18.7602,157.598,98.2244,95.5279,0.00155682,0.0483296,21.0176,-336.912,0.247345,0.0,0.0
136,33.75,17.3956,18.4457,157.356,98.22,95.3781,0.00150423,0.0491171,21.0162,-336.862,0.260897,0.0,0.0
138,34.25,18.161,18.275,159.518,98.2347,95.6658,0.00145399,0.0497549,21.0151,-336.842,0.235459,0.0,0.0
140,34.75,18.2921,18.0094,160.476,98.2192,95.6323,0.00140642,0.050613,21.0129,-336.802,0.237173,0.0,0.0
142,35.25,17.9166,18.3269,159.871,98.2264,95.7277,0.00137425,0.0516154,21.0112,-336.782,0.228962,0.0,1.0
144,35.75,17.4064,18.5979,158.673,98.2228,96.2586,0.00135393,0.0530903,21.0062,-336.762,0.179488,0.0,1.0
146,36.25,18.0109,18.564,157.364,98.22,96.1944,0.00135657,0.0548816,21.0022,-336.732,0.185172,0.0,1.0
148,36.75,17.7985,18.2939,156.902,98.2104,95.839,0.00137592,0.0563326,20.9964,-336.712,0.21719,0.0,1.0
150,37.25,17.7211,18.721,155.22,98.2188,95.7846,0.00138417,0.059424,20.9928,-336.722,0.222998,0.0,1.0
152,37.75,18.0746,18.9968,161.1,98.206,95.6499,0.00145887,0.0619281,20.984,-336.712,0.234347,0.0,1.0
154,38.25,18.0737,18.7057,158.526,98.2136,95.3723,0.00151938,0.066579,20.9745,-336.682,0.260855,0.0,1.0
156,38.75,18.2948,18.7126,154.628,98.222,94.2064,0.00156839,0.0703462,20.9669,-336.672,0.370909,0.0,1.0
158,39.25,18.2287,18.7271,155.92,98.2208,94.0697,0.001653,0.0757335,20.9591,-336.672,0.383707,0.0,1.0
160,39.75,18.3847,18.3331,155.256,98.1985,94.2686,0.00172153,0.0800973,20.9514,-336.682,0.362915,0.0,1.0
162,40.25,17.5002,18.3435,152.706,98.2108,94.7464,0.00178311,0.0832015,20.9451,-336.692,0.319113,0.0,1.0
164,40.75,17.3205,17.5607,156.92,98.2108,93.7213,0.001833,0.0885099,20.9378,-336.702,0.415775,0.0,1.0
166,41.25,17.2566,17.9676,158.684,98.2005,94.3984,0.00186976,0.093548,20.9319,-336.712,0.350871,0.0,1.0
168,41.75,17.0481,18.0812,154.438,98.1989,94.1368,0.00189954,0.0982935,20.9271,-336.702,0.375385,0.0,1.0
170,42.25,18.4133,18.2888,152.574,98.2048,94.1176,0.00192366,0.102137,20.9228,-336.732,0.377742,0.0,1.0
172,42.75,18.3024,19.5396,155.343,98.1961,93.5121,0.00194319,0.105669,20.9193,-336.742,0.434297,0.0,1.0
174,43.25,19.027,19.2532,155.113,98.2092,94.3747,0.00193473,0.108905,20.9176,-336.762,0.353899,0.0,1.0
176,43.75,18.4693,18.9051,157.197,98.2025,94.5003,0.00192788,0.111578,20.9162,-336.782,0.34146,0.0,1.0
178,44.25,18.5142,18.6296,155.771,98.1929,93.84,0.00189928,0.11379,20.9151,-336.802,0.402904,0.0,1.0
180,44.75,18.7185,19.0404,152.896,98.1953,95.1066,0.00187611,0.115581,20.9141,-336.802,0.283985,0.0,1.0
182,45.25,18.9391,19.3748,155.114,98.1977,94.843,0.00184279,0.117032,20.9136,-336.802,0.308867,0.0,1.0
184,45.75,18.615,19.5303,155.343,98.1981,95.0456,0.00180429,0.117914,20.9133,-336.812,0.289938,0.0,1.0
186,46.25,19.0811,19.2026,155.072,98.2188,94.4623,0.00179394,0.118629,20.9132,-336.822,0.346519,0.0,1.0
188,46.75,19.0278,19.3511,152.38,98.1813,94.7746,0.00177259,0.118901,20.9135,-336.812,0.313797,0.0,0.0
190,47.25,18.5381,19.7842,155.291,98.2084,95.507,0.0017553,0.119122,20.9138,-336.852,0.247846,0.0,0.0
192,47.75,18.7488,19.6367,152.686,98.2021,95.175,0.00173887,0.119064,20.914,-336.832,0.278213,0.0,0.0
194,48.25,19.1178,19.8553,152.576,98.1869,95.3383,0.00172557,0.119017,20.9141,-336.822,0.261605,0.0,0.0
196,48.75,19.7873,19.7296,151.867,98.1881,95.0477,0.00171606,0.11881,20.9143,-336.822,0.288845,0.0,0.0
198,49.25,19.6622,19.6516,156.948,98.1957,95.9872,0.00170951,0.11873,20.9144,-336.832,0.202128,0.0,0.0
200,49.75,19.4815,19.9336,157.094,98.1989,95.3273,0.00171634,0.118593,20.9145,-336.862,0.263717,0.0,0.0
202,50.25,19.5725,19.9229,155.623,98.1905,95.0559,0.00173278,0.118775,20.9128,-336.842,0.288296,0.0,0.0
204,50.75,19.591,19.6168,155.251,98.21,94.8798,0.00176207,0.118922,20.9114,-336.872,0.306534,0.0,0.0
206,51.25,19.6056,19.8939,152.019,98.1805,95.0767,0.00180016,0.119827,20.9051,-336.912,0.285443,0.0,0.0
208,51.75,19.9602,20.3697,145.511,98.1973,94.1278,0.00183102,0.121267,20.8999,-336.963,0.37609,0.0,0.0
210,52.25,19.7513,20.5672,151.235,98.1877,93.944,0.00190583,0.123452,20.8932,-336.973,0.392595,0.0,0.0
212,52.75,20.2071,20.2132,152.051,98.2112,93.0593,0.00196642,0.126138,20.8855,-336.993,0.478795,0.0,0.0
214,53.25,20.0272,20.614,151.465,98.1813,93.5346,0.0020155,0.129747,20.8792,-336.993,0.430823,0.0,0.0
216,53.75,20.1582,20.3037,153.214,98.2009,93.2317,0.00214412,0.133961,20.8685,-336.993,0.461416,0.0,0.0
218,54.25,20.0096,20.704,147.712,98.1873,92.95,0.0022483,0.138925,20.8598,-337.023,0.487075,0.0,0.0
220,54.75,20.5456,20.7199,144.569,98.2084,92.288,0.00242788,0.144341,20.8499,-337.033,0.552495,0.0,0.0
222,55.25,20.3394,20.4198,146.283,98.1925,91.7915,0.00257333,0.148728,20.8395,-337.083,0.598994,0.0,0.0
224,55.75,20.7127,21.137,145.085,98.2068,90.8253,0.00281845,0.154844,20.8264,-337.113,0.694313,0.0,0.0
226,56.25,21.0677,21.66,144.895,98.1921,89.7089,0.00301699,0.162105,20.8117,-337.093,0.802875,0.0,0.0
228,56.75,20.9924,21.7893,147.183,98.2029,89.1297,0.00324634,0.167986,20.7931,-337.133,0.861413,0.0,0.0
230,57.25,21.2824,21.4718,149.217,98.1865,88.6675,0.00349378,0.177829,20.772,-337.123,0.906133,0.0,0.0
232,57.75,21.7081,21.9822,145.881,98.1937,85.6401,0.00378377,0.185802,20.7549,-337.183,1.21547,0.0,0.0
234,58.25,21.7589,21.9179,144.486,98.1794,85.7674,0.00409928,0.196977,20.7314,-337.213,1.20097,0.0,0.0
236,58.75,21.7929,22.4681,139.718,98.1977,85.2324,0.00443175,0.206029,20.7124,-337.233,1.25824,0.0,0.0
238,59.25,21.8914,22.5227,144.094,98.1778,84.9769,0.00477027,0.21611,20.6882,-337.283,1.2831,0.0,0.0
240,59.75,22.2531,22.8932,145.602,98.1945,83.7193,0.00504448,0.226749,20.6686,-337.283,1.41711,0.0,0.0
242,60.25,22.2216,22.7347,144.438,98.1841,82.8948,0.00538184,0.237806,20.6528,-337.273,1.50411,0.0,0.0
244,60.75,22.5642,23.2934,141.83,98.1837,82.7634,0.00575885,0.248959,20.6312,-337.283,1.51818,0.0,0.0
246,61.25,23.2545,23.4209,142.789,98.1809,81.4382,0.00614583,0.260807,20.6137,-337.333,1.66135,0.0,0.0
248,61.75,23.1162,23.7255,138.268,98.1873,77.9065,0.00653273,0.272936,20.589,-337.373,2.05588,0.0,0.0
250,62.25,24.1812,24.4713,141.005,98.1742,76.3643,0.00684612,0.282761,20.569,-337.413,2.23235,0.0,0.0
252,62.75,24.6342,24.9211,131.283,98.1989,78.2135,0.00727955,0.297012,20.5466,-337.513,2.02197,0.0,0.0
254,63.25,24.2569,25.0921,143.128,98.1706,80.5032,0.00763063,0.308556,20.5228,-337.523,1.76302,0.0,0.0
256,63.75,25.045,25.4557,134.62,98.1829,76.8044,0.00805624,0.322154,20.4946,-337.583,2.18208,0.0,0.0
258,64.25,24.8488,25.3274,135.136,98.1722,76.4184,0.00840099,0.33699,20.4636,-337.583,2.22588,0.0,0.0
260,64.75,25.7312,25.9289,129.619,98.1726,76.7905,0.00881184,0.349008,20.4385,-337.643,2.18275,0.0,0.0
262,65.25,25.8802,26.3433,134.459,98.1686,75.7806,0.00914463,0.364933,20.4138,-337.683,2.30003,0.0,0.0
264,65.75,26.4336,26.607,132.992,98.1706,74.8386,0.00941419,0.377833,20.3899,-337.733,2.41136,0.0,0.0
266,66.25,26.6553,27.0563,129.905,98.1646,77.6973,0.00980403,0.393429,20.3667,-337.773,2.07772,0.0,0.0
268,66.75,27.2507,27.8276,136.655,98.1646,77.3763,0.0101198,0.406062,20.3479,-337.793,2.1145,0.0,0.0
270,67.25,27.5576,27.8378,141.96,98.159,76.3066,0.0104151,0.419635,20.3327,-337.873,2.23769,0.0,0.0
272,67.75,28.3399,28.6409,130.792,98.1578,77.4905,0.01069,0.430628,20.3165,-337.943,2.10078,0.0,0.0
274,68.25,28.4438,28.8124,139.041,98.15625,77.6117,0.0109126,0.439533,20.3033,-337.973,2.08675,0.0,0.0
276,68.75,28.6721,29.6328,131.459,98.1586,75.4797,0.0111363,0.449947,20.2919,-338.013,2.33448,0.0,0.0
278,69.25,29.6101,30.1752,133.352,98.1515,75.067,0.0113175,0.458383,20.2821,-338.023,2.38254,0.0,0.0
280,69.75,30.2027,30.7796,130.156,98.1654,75.2443,0.0114988,0.465779,20.2739,-338.053,2.36285,0.0,0.0
282,70.25,30.5476,30.7879,142.383,98.1566,76.9174,0.0116456,0.472276,20.2671,-338.134,2.16664,0.0,0.0
284,70.75,31.1962,31.6914,128.96,98.1566,75.1075,0.0117799,0.478009,20.2615,-338.114,2.37822,0.0,0.0
286,71.25,31.9212,32.1762,130.609,98.1543,73.3722,0.0118887,0.483077,20.2571,-338.144,2.58572,0.0,0.0
288,71.75,31.8693,32.7059,136.574,98.1598,73.2113,0.0119742,0.487182,20.2534,-338.184,2.60573,0.0,0.0
290,72.25,31.4383,32.314,129.258,98.1523,73.3226,0.0120435,0.491314,20.2505,-338.254,2.59154,0.0,0.0
292,72.75,32.4289,33.1871,136.653,98.1511,72.4986,0.0120909,0.494661,20.2481,-338.284,2.69186,0.0,0.0
294,73.25,32.5525,33.7587,129.424,98.1539,75.3495,0.0121214,0.497067,20.2466,-338.354,2.34939,0.0,0.0
296,73.75,33.3821,34.3241,135.919,98.1527,77.4811,0.0121461,0.499016,20.2454,-338.354,2.10139,0.0,0.0
298,74.25,34.3157,35.3346,136.399,98.1558,76.7582,0.0121493,0.50016,20.2444,-338.374,2.18498,0.0,0.0
300,74.75,34.0737,35.1542,131.723,98.1487,77.5307,0.0121367,0.500697,20.2436,-338.414,2.09535,0.0,0.0
302,75.25,34.421,35.2198,134.413,98.1503,74.7076,0.0121273,0.500962,20.243,-338.494,2.42508,0.0,0.0
304,75.75,35.0195,35.9733,136.532,98.1407,77.4525,0.0121202,0.501025,20.2424,-338.524,2.10359,0.0,0.0
306,76.25,35.15625,36.0605,133.969,98.1351,76.6091,0.0121299,0.501075,20.242,-338.554,2.20037,0.0,0.0
308,76.75,35.0457,36.0665,130.145,98.1363,76.479,0.0121517,0.502227,20.2386,-338.574,2.21559,0.0,0.0
310,77.25,36.1041,37.0825,134.188,98.1439,75.5288,0.0121876,0.503159,20.2359,-338.644,2.32736,0.0,0.0
312,77.75,36.4789,37.2777,129.655,98.1303,77.3808,0.0122329,0.504302,20.2336,-338.694,2.11088,0.0,0.0
314,78.25,36.2015,37.0972,132.073,98.1292,75.6807,0.0122764,0.505577,20.2318,-338.724,2.30818,0.0,0.0
316,78.75,36.6386,38.0981,135.14,98.1327,73.1237,0.0123177,0.50661,20.2301,-338.774,2.61391,0.0,0.0
318,79.25,37.1813,38.3853,134.138,98.1315,74.6863,0.0123511,0.50759,20.2285,-338.804,2.42592,0.0,0.0
320,79.75,37.6107,38.9006,134.981,98.1212,72.5714,0.0123693,0.508384,20.2265,-338.844,2.68023,0.0,0.0
322,80.25,37.9997,39.1134,130.778,98.12,75.6721,0.0123839,0.509406,20.2243,-338.884,2.30836,0.0,0.0
324,80.75,38.4504,39.7529,137.455,98.122,77.4242,0.0123958,0.510233,20.2225,-338.884,2.10514,0.0,0.0
326,81.25,38.5323,40.2739,134.437,98.0993,78.2348,0.0123761,0.511679,20.2208,-338.974,2.01054,0.0,0.0
328,81.75,38.7822,40.3849,132.504,98.1025,75.1362,0.01236,0.512851,20.2193,-339.024,2.36992,0.0,0.0
330,82.25,39.4471,40.6784,130.737,98.0905,74.7727,0.0123424,0.514342,20.218,-339.064,2.41193,0.0,0.0
332,82.75,39.6024,41.2487,129.48,98.0953,76.6841,0.0123238,0.515551,20.217,-339.064,2.18808,0.0,0.0
334,83.25,39.7741,41.438,141.506,98.0973,77.6592,0.0123159,0.516501,20.2165,-339.134,2.07597,0.0,0.0
336,83.75,40.2983,41.7266,132.257,98.1033,77.4234,0.0122998,0.517245,20.2158,-339.164,2.10354,0.0,0.0
338,84.25,40.4832,42.1297,131.573,98.0821,75.1505,0.0122868,0.517847,20.2151,-339.215,2.36639,0.0,0.0
340,84.75,41.114,42.8549,139.189,98.0809,77.041,0.0122737,0.517926,20.2158,-339.224,2.14551,0.0,0.0
342,85.25,41.958,43.0086,126.337,98.0794,74.5299,0.012263,0.517622,20.2174,-339.265,2.43982,0.0,0.0
344,85.75,41.3778,43.5846,129.423,98.0594,74.5139,0.0122583,0.517014,20.2196,-339.275,2.43992,0.0,0.0
346,86.25,41.5863,43.5909,140.343,98.0726,75.3323,0.0122544,0.516585,20.2222,-339.315,2.34405,0.0,0.0
348,86.75,41.5029,43.7167,127.154,98.0734,75.3781,0.0122743,0.51585,20.2245,-339.375,2.33872,0.0,0.0
350,87.25,42.6801,45.2584,130.08,98.0666,76.9432,0.0122904,0.514176,20.2266,-339.395,2.1555,0.0,0.0
352,87.75,42.652,44.2763,135.811,98.0666,76.2235,0.0123034,0.51282,20.2283,-339.475,2.23901,0.0,0.0
354,88.25,42.9057,44.9705,131.622,98.063,74.5062,0.012369,0.511059,20.2297,-339.485,2.44117,0.0,0.0
356,88.75,43.217,45.0826,140.627,98.0519,73.5412,0.012397,0.509632,20.2308,-339.515,2.55599,0.0,0.0
358,89.25,43.3248,45.3696,131.319,98.0555,74.3092,0.0124448,0.508405,20.2313,-339.575,2.464,0.0,0.0
360,89.75,43.7136,45.8808,137.451,98.0674,74.9503,0.0125172,0.507411,20.2321,-339.575,2.38875,0.0,0.0
362,90.25,43.8857,45.8095,135.979,98.0598,74.1909,0.0126063,0.50687,20.2341,-339.655,2.47856,0.0,0.0
364,90.75,43.9995,46.0774,130.531,98.0443,75.4183,0.0126824,0.506669,20.2356,-339.695,2.33136,0.0,0.0
366,91.25,44.4999,46.577,132.104,98.0535,73.3169,0.0127478,0.506506,20.2352,-339.755,2.58328,0.0,0.0
368,91.75,44.7823,46.7909,128.759,98.0439,72.9874,0.0127865,0.506375,20.2348,-339.745,2.62245,0.0,0.0
370,92.25,45.0137,47.1952,131.307,98.0475,74.6863,0.0128051,0.507398,20.2296,-339.825,2.41831,0.0,0.0
372,92.75,45.2174,47.3068,134.372,98.0351,76.8568,0.0127953,0.509148,20.2255,-339.905,2.16263,0.0,0.0
374,93.25,45.3944,47.6122,128.683,98.0315,75.8145,0.0127649,0.511462,20.2208,-339.905,2.28363,0.0,0.0
376,93.75,45.0895,47.7222,131.75,98.0284,74.1889,0.0127402,0.514142,20.217,-339.965,2.47595,0.0,0.0
378,94.25,45.8025,48.0597,129.947,98.026,76.8437,0.0126512,0.516975,20.2139,-339.995,2.16331,0.0,0.0
380,94.75,46.3124,48.4014,130.795,98.03,79.4007,0.012579,0.519864,20.2114,-340.025,1.87281,0.0,0.0
382,95.25,46.6632,48.8892,125.966,98.0407,78.6446,0.0124924,0.5223,20.2094,-340.075,1.95881,0.0,0.0
384,95.75,46.3254,49.457,126.488,98.0303,76.3435,0.0123967,0.52436,20.2079,-340.095,2.22175,0.0,0.0
386,96.25,47.3627,49.4312,130.677,98.0312,73.2727,0.0123152,0.525616,20.2067,-340.125,2.58662,0.0,0.0
388,96.75,47.5563,50.3958,128.429,98.0248,72.2116,0.0122456,0.526262,20.2067,-340.205,2.71566,0.0,0.0
390,97.25,47.5248,50.645,138.918,98.0228,78.8669,0.0121898,0.526785,20.2075,-340.215,1.93211,0.0,0.0
392,97.75,48.2137,50.4037,130.554,98.0164,76.8548,0.0121453,0.526561,20.2081,-340.275,2.16117,0.0,0.0
394,98.25,47.8572,51.0728,136.511,98.0216,76.9874,0.0121112,0.525795,20.2086,-340.305,2.14632,0.0,0.0
396,98.75,48.2089,51.1361,130.396,98.0049,78.9627,0.0120855,0.525174,20.2104,-340.345,1.91969,0.0,0.0
398,99.25,48.7522,51.3576,124.569,98.0096,74.8341,0.0120646,0.524671,20.2118,-340.406,2.39731,0.0,0.0
400,99.75,48.6695,51.5367,134.379,98.0084,74.484,0.012054,0.524264,20.2134,-340.436,2.43886,0.0,0.0
402,100.25,49.0405,51.706,130.346,98.0021,76.4716,0.0120455,0.52417,20.2146,-340.486,2.20428,0.0,0.0
404,100.75,49.2109,52.0327,134.892,98.0124,75.756,0.012045,0.524094,20.2157,-340.516,2.28876,0.0,0.0
406,101.25,49.5083,52.6394,134.803,98.0196,73.9469,0.0120446,0.523797,20.2165,-340.556,2.50418,0.0,0.0
408,101.75,49.7864,52.7091,131.31,98.0021,75.7666,0.0120442,0.523556,20.2172,-340.566,2.28658,0.0,0.0
410,102.25,49.6393,52.8083,137.912,98.0064,77.8778,0.0120567,0.522691,20.2195,-340.636,2.04276,0.0,0.0
412,102.75,50.301,53.2108,135.772,98.0136,74.8611,0.0120668,0.52199,20.2214,-340.636,2.39446,0.0,0.0
414,103.25,50.3044,53.4136,133.047,97.9877,74.175,0.0120731,0.520966,20.2222,-340.696,2.47393,0.0,0.0
416,103.75,50.7358,53.4504,129.326,97.9813,73.3087,0.012084,0.519726,20.224,-340.716,2.57774,0.0,0.0
418,104.25,49.8642,53.1972,137.416,97.9813,71.9369,0.012086,0.518305,20.2254,-340.766,2.74559,0.0,0.0
420,104.75,50.6171,53.7602,131.746,97.9754,75.0257,0.0120817,0.516778,20.2275,-340.816,2.37148,0.0,0.0
422,105.25,51.0351,54.3803,132.763,97.977,74.394,0.0120714,0.515542,20.2291,-340.836,2.44676,0.0,0.0
424,105.75,51.3002,54.3293,128.529,97.9746,75.7253,0.0120571,0.513248,20.2321,-340.916,2.28893,0.0,0.0
426,106.25,51.5991,54.5112,135.114,97.9754,77.1737,0.0120401,0.512271,20.2345,-340.936,2.12065,0.0,0.0
428,106.75,51.7624,54.658,134.196,97.9654,76.1318,0.0120215,0.510128,20.2373,-340.976,2.24053,0.0,0.0
430,107.25,51.0194,54.4991,136.188,97.963,76.6149,0.0119937,0.50797,20.2395,-341.026,2.18411,0.0,0.0
432,107.75,51.2771,54.5086,137.558,97.9562,75.5227,0.0119597,0.506222,20.2427,-341.066,2.31108,0.0,0.0
434,108.25,51.9333,55.2028,135.21,97.9551,74.525,0.0119321,0.504874,20.2453,-341.056,2.42914,0.0,0.0
436,108.75,52.1714,55.6469,131.124,97.9586,72.7229,0.0118535,0.503905,20.2473,-341.086,2.64697,0.0,0.0
438,109.25,52.3583,56.0825,134.568,97.9455,77.484,0.0117392,0.503229,20.2495,-341.186,2.08229,0.0,0.0
440,109.75,52.4851,55.6684,128.697,97.9551,74.543,0.0115684,0.50211,20.2512,-341.226,2.42699,0.0,0.0
442,110.25,52.5963,55.6995,131.306,97.9475,73.9645,0.0113597,0.500688,20.2569,-341.216,2.49553,0.0,0.0
444,110.75,52.2547,56.0787,136.582,97.9403,74.5929,0.0111906,0.499536,20.2616,-341.256,2.4197,0.0,0.0
446,111.25,52.2823,55.7874,132.189,97.9383,77.6506,0.010849,0.494593,20.2654,-341.276,2.06255,0.0,0.0
448,111.75,52.3252,56.2178,135.254,97.9312,78.2667,0.0105723,0.490589,20.2747,-341.266,1.99167,0.0,0.0
450,112.25,53.4491,56.5085,139.154,97.9387,80.1798,0.0103481,0.487346,20.2878,-341.266,1.77778,0.0,0.0
452,112.75,53.1765,56.8649,140.132,97.9248,78.7875,0.0098915,0.476629,20.3085,-341.316,1.93217,0.0,0.0
454,113.25,52.9988,57.0338,141.91,97.9192,77.9355,0.00942833,0.467948,20.3341,-341.366,2.02827,0.0,0.0
456,113.75,53.3586,57.066,145.189,97.9244,78.6421,0.00896917,0.453189,20.3685,-341.376,1.94854,0.0,0.0
458,114.25,53.1287,56.9775,147.437,97.9116,79.9591,0.0085109,0.441234,20.3964,-341.406,1.79981,0.0,0.0
460,114.75,53.26,56.8891,143.666,97.9112,80.0349,0.00806198,0.431551,20.428,-341.386,1.79136,0.0,0.0
462,115.25,52.8333,56.5479,143.691,97.9092,82.7294,0.00769835,0.412954,20.4616,-341.406,1.49695,0.0,0.0
464,115.75,52.1548,56.4978,145.257,97.8985,85.0567,0.00740381,0.397891,20.4889,-341.416,1.24945,0.0,0.0
466,116.25,52.7438,57.2962,144.34,97.8917,85.3015,0.00689087,0.378798,20.5197,-341.416,1.2233,0.0,0.0
468,116.75,52.9597,55.6602,146.86,97.8945,83.7565,0.00647539,0.363333,20.5526,-341.426,1.38597,0.0,0.0
470,117.25,52.4002,56.4389,151.669,97.8869,86.264,0.00597789,0.343945,20.5857,-341.436,1.12317,0.0,0.0
472,117.75,52.5563,56.4814,147.737,97.879,88.9,0.00557492,0.328241,20.6183,-341.436,0.854983,0.0,0.0
474,118.25,52.4629,55.9584,151.299,97.8865,90.0676,0.00510289,0.31061,20.6588,-341.426,0.739729,0.0,0.0
476,118.75,51.9995,56.0362,153.181,97.8766,91.0497,0.00472055,0.291912,20.6915,-341.426,0.642459,0.0,0.0
478,119.25,51.374,55.863,156.882,97.869,92.2684,0.00429501,0.276766,20.7325,-341.446,0.523622,0.0,0.0
480,119.75,51.4111,55.3196,152.683,97.8714,93.4208,0.00395032,0.256092,20.7658,-341.436,0.413546,0.0,0.0
482,120.25,51.0362,55.3345,155.366,97.8614,95.3781,0.00356172,0.239347,20.8005,-341.436,0.2284,0.0,0.0
484,120.75,50.6922,54.7437,155.755,97.8598,95.1484,0.00324696,0.220013,20.8287,-341.436,0.249677,0.0,0.0
486,121.25,50.3513,54.5791,155.14,97.8598,95.3154,0.00289381,0.204352,20.8541,-341.426,0.234092,0.0,0.0
488,121.75,49.861,54.1346,158.67,97.8459,95.166,0.00260776,0.187128,20.8769,-341.416,0.246767,0.0,0.0
490,122.25,49.1768,53.309,154.758,97.8435,95.8018,0.00237606,0.173176,20.8954,-341.416,0.187384,0.0,0.0
492,122.75,48.6743,52.8164,156.742,97.8427,95.561,0.00210617,0.158433,20.9122,-341.416,0.209667,0.0,0.0
494,123.25,48.6708,53.0108,156.581,97.8447,95.6949,0.00188755,0.146492,20.9275,-341.426,0.197409,0.0,0.0
496,123.75,48.1676,52.2593,155.565,97.8371,95.6286,0.0016895,0.134323,20.9399,-341.426,0.202882,0.0,0.0
498,124.25,48.0422,51.7315,156.449,97.814,95.4403,0.00151021,0.124466,20.9517,-341.426,0.218298,0.0,0.0
500,124.75,47.1735,51.8334,157.27,97.8307,95.2397,0.00133363,0.116482,20.9612,-341.426,0.238514,0.0,0.0
502,125.25,46.8255,51.5309,157.723,97.8144,95.2544,0.00119061,0.107532,20.9707,-341.426,0.235655,0.0,0.0
504,125.75,47.211,50.8672,157.196,97.8128,96.0261,0.00105953,0.100283,20.9784,-341.416,0.163815,0.0,0.0
506,126.25,46.542,50.993,156.327,97.8092,95.7751,0.000939668,0.093697,20.9855,-341.406,0.186741,0.0,0.0
508,126.75,45.8781,50.427,153.141,97.8041,95.0383,0.000833704,0.0877188,20.9912,-341.416,0.254902,0.0,0.0
510,127.25,46.3757,49.6452,166.284,97.7905,95.7006,0.000739887,0.0825056,20.9968,-341.416,0.191955,0.0,0.0
512,127.75,45.4982,49.4765,156.412,97.8005,95.2364,0.00065376,0.0779492,21.0013,-341.406,0.236069,0.0,0.0
514,128.25,44.8698,49.2325,154.894,97.7973,95.2282,0.000574875,0.0742584,21.0053,-341.416,0.236543,0.0,0.0
516,128.75,44.7378,49.1363,157.317,97.8144,95.6523,0.000510979,0.0706195,21.0086,-341.426,0.198613,0.0,0.0
518,129.25,44.8134,48.9014,158.178,97.7905,95.8967,0.000450359,0.0676719,21.0113,-341.416,0.173767,0.0,0.0
520,129.75,44.885,48.3488,157.281,97.7977,95.0866,0.000393279,0.0648924,21.0139,-341.426,0.249806,0.0,0.0
522,130.25,44.3718,48.3503,160.904,97.7941,95.3899,0.000346411,0.062641,21.016,-341.436,0.221178,0.0,0.0
524,130.75,44.0131,48.2265,153.858,97.7829,95.0444,0.000307879,0.0604662,21.0177,-341.426,0.252408,0.0,0.0
526,131.25,44.4047,47.938,157.131,97.7742,95.2548,0.000276668,0.0587046,21.0191,-341.426,0.231962,0.0,0.0
528,131.75,43.431,47.6091,157.337,97.7806,95.1165,0.000265951,0.057164,21.0202,-341.436,0.245458,0.0,0.0
530,132.25,43.2342,47.5374,161.528,97.7582,95.1312,0.000270377,0.0558139,21.0211,-341.446,0.242053,0.0,0.0
532,132.75,42.5002,47.0275,159.641,97.7618,95.57,0.000306474,0.0547202,21.0221,-341.436,0.201482,0.0,0.0
534,133.25,42.6131,46.7776,160.506,97.7471,95.2913,0.000335712,0.0535511,21.0231,-341.436,0.2261,0.0,0.0
536,133.75,42.2882,46.5517,156.185,97.7539,95.5275,0.000390729,0.052604,21.0239,-341.436,0.204717,0.0,0.0
538,134.25,42.454,46.1271,155.24,97.7423,95.4898,0.000435293,0.0517021,21.0245,-341.436,0.207171,0.0,0.0
540,134.75,41.799,45.9122,155.275,97.7427,95.4964,0.000471389,0.0509715,21.0251,-341.426,0.206598,0.0,0.0
542,135.25,42.1397,45.6835,157.615,97.7204,95.6114,0.000519923,0.0503513,21.0257,-341.436,0.193872,0.0,0.0
544,135.75,41.488,44.8007,156.921,97.7355,94.8831,0.000559236,0.0498234,21.0265,-341.446,0.263192,0.0,0.0
546,136.25,41.2219,45.0724,155.614,97.7192,95.4395,0.000591079,0.0492745,21.0273,-341.426,0.209757,0.0,0.0
548,136.75,41.3454,45.2296,152.077,97.7308,95.6667,0.000603544,0.0488298,21.0282,-341.436,0.189678,0.0,0.0
550,137.25,40.6938,44.7254,158.282,97.7025,94.9949,0.000601645,0.0484697,21.0289,-341.436,0.249725,0.0,0.0
552,137.75,40.4914,44.6464,160.067,97.7108,95.3993,0.000583618,0.0480567,21.0294,-341.426,0.212732,0.0,0.0
554,138.25,39.6241,44.2202,154.264,97.7017,95.4562,0.000554175,0.0477221,21.0299,-341.436,0.2066,0.0,0.0
556,138.75,40.2141,43.3463,156.39,97.7188,95.5754,0.000530327,0.0474511,21.0303,-341.436,0.197076,0.0,0.0
558,139.25,39.7882,43.701,155.897,97.6917,96.5219,0.000476098,0.0471642,21.0306,-341.436,0.107049,0.0,0.0
560,139.75,39.0035,43.549,155.361,97.71,95.4202,0.00045298,0.0469319,21.0307,-341.426,0.210716,0.0,0.0
562,140.25,39.6044,43.0954,156.555,97.6913,95.4309,0.00035885,0.0467224,21.0311,-341.426,0.208021,0.0,0.0
564,140.75,39.0117,42.9418,160.578,97.6989,95.2921,0.000333529,0.0465335,21.0311,-341.416,0.221641,0.0,0.0
566,141.25,38.7553,42.3517,157.516,97.6837,95.254,0.000272198,0.0463593,21.0313,-341.396,0.223815,0.0,0.0
568,141.75,38.261,42.5035,155.551,97.6913,95.2495,0.00022252,0.046199,21.0314,-341.406,0.224924,0.0,0.0
570,142.25,38.209,42.0174,156.273,97.6762,95.2908,0.000177854,0.0460408,21.0315,-341.416,0.21969,0.0,0.0
572,142.75,37.9256,41.6636,156.558,97.6873,95.5795,0.000137689,0.0459599,21.0316,-341.406,0.193832,0.0,0.0
574,143.25,37.812,41.8837,157.748,97.6865,95.1484,0.000105156,0.0457485,21.0316,-341.406,0.233927,0.0,0.0
576,143.75,38.0496,40.8775,161.836,97.6901,95.4419,8.5129e-05,0.0456827,21.0317,-341.416,0.206883,0.0,0.0
578,144.25,37.8676,42.0999,158.227,97.6551,95.6302,7.45999e-05,0.0455701,21.0317,-341.396,0.186179,0.0,0.0
580,144.75,37.339,40.9981,158.706,97.6861,95.0252,7.04998e-05,0.0454251,21.0318,-341.416,0.245406,0.0,0.0
582,145.25,37.033,41.5149,152.096,97.6571,95.2208,7.11642e-05,0.0453076,21.0318,-341.396,0.224481,0.0,0.0
584,145.75,36.8523,40.4131,157.217,97.6702,95.4231,7.42337e-05,0.0452124,21.0318,-341.416,0.206824,0.0,0.0
586,146.25,36.1316,40.1031,155.463,97.6571,94.9453,7.89982e-05,0.0450949,21.0318,-341.426,0.250227,0.0,0.0
588,146.75,36.2943,39.5434,153.646,97.6658,94.7185,8.28574e-05,0.0449997,21.0318,-341.416,0.272277,0.0,0.0
590,147.25,36.5182,40.2967,156.355,97.6734,94.6121,9.07007e-05,0.0449156,21.0319,-341.426,0.282955,0.0,0.0
592,147.75,36.0187,40.061,158.844,97.6658,95.0293,9.70538e-05,0.044841,21.032,-341.406,0.243174,0.0,0.0
594,148.25,35.8589,39.4847,155.533,97.6547,95.0935,9.90355e-05,0.0447877,21.0321,-341.436,0.236152,0.0,0.0
596,148.75,36.1243,39.7292,158.287,97.671,95.2839,9.77928e-05,0.0447509,21.032,-341.426,0.219868,0.0,0.0
598,149.25,35.9505,39.9982,161.514,97.6559,95.2556,8.11601e-05,0.044714,21.0317,-341.426,0.221125,0.0,0.0
600,149.75,35.5562,39.1547,157.557,97.6531,95.0837,6.76876e-05,0.0446777,21.0315,-341.416,0.236925,0.0,0.0
602,150.25,34.9433,38.4274,156.463,97.6578,95.107,5.67749e-05,0.0446483,21.0317,-341.396,0.235179,0.0,0.0
604,150.75,34.2145,38.3444,155.989,97.6626,95.4145,3.11109e-05,0.0445983,21.0319,-341.396,0.206937,0.0,0.0
606,151.25,35.107,39.0064,158.862,97.6495,96.1059,1.03231e-05,0.0445578,21.0316,-341.396,0.14158,0.0,0.0
608,151.75,35.0652,38.1005,158.954,97.6527,95.22,-1.4552e-06,0.0445115,21.0314,-341.396,0.224159,0.0,0.0
610,152.25,34.567,38.7326,156.962,97.6483,95.3416,-6.44168e-06,0.044474,21.0312,-341.416,0.21242,0.0,0.0
612,152.75,34.3734,37.8298,157.074,97.6606,96.0101,-1.04807e-05,0.0444649,21.0311,-341.396,0.151456,0.0,0.0
614,153.25,34.7486,37.8957,154.459,97.6491,96.0683,1.02874e-05,0.0444767,21.031,-341.406,0.145026,0.0,0.0
616,153.75,33.7588,37.635,156.34,97.6531,95.9246,2.71096e-05,0.0444862,21.0309,-341.416,0.15869,0.0,0.0
618,154.25,33.8487,37.3142,156.358,97.6363,95.3899,6.1182e-05,0.044501,21.031,-341.406,0.206831,0.0,0.0
620,154.75,33.6437,36.7547,157.138,97.6487,95.4726,8.87806e-05,0.0445194,21.0314,-341.406,0.200256,0.0,0.0
622,155.25,33.706,37.5866,154.688,97.6439,95.5856,0.000127982,0.0445342,21.0316,-341.406,0.18931,0.0,0.0
624,155.75,33.3307,37.369,159.47,97.6443,95.0243,0.000159735,0.0445598,21.0318,-341.396,0.241676,0.0,0.0
626,156.25,33.0484,37.4177,156.623,97.6363,95.4677,0.000201105,0.0445804,21.032,-341.426,0.199589,0.0,0.0
628,156.75,33.1561,36.4892,159.455,97.6427,95.5123,0.000234615,0.0446106,21.0322,-341.426,0.196017,0.0,0.0
630,157.25,32.5035,36.5752,160.505,97.6395,95.6421,0.000261758,0.0446351,21.0323,-341.426,0.183661,0.0,0.0
632,157.75,32.7462,36.7871,154.677,97.6316,95.7518,0.000283744,0.0446145,21.0324,-341.436,0.17275,0.0,0.0
634,158.25,32.9987,36.6924,160.381,97.6311,94.8696,0.000326848,0.0445979,21.0322,-341.436,0.254961,0.0,0.0
636,158.75,32.4607,35.7873,156.825,97.6292,95.1439,0.000361763,0.0445709,21.0319,-341.436,0.229127,0.0,0.0
638,159.25,32.4359,36.2523,157.545,97.6387,95.5221,0.000405622,0.044549,21.0318,-341.436,0.194741,0.0,0.0
640,159.75,32.4642,35.6665,158.449,97.6268,95.5717,0.000441147,0.0445313,21.0317,-341.416,0.189046,0.0,0.0
642,160.25,32.1764,35.8143,156.292,97.6304,94.8901,0.000469923,0.0445028,21.0317,-341.406,0.252972,0.0,0.0
644,160.75,31.7702,35.7039,152.953,97.6375,95.0399,0.000493231,0.044467,21.0316,-341.426,0.239605,0.0,0.0
646,161.25,32.1505,35.206,159.049,97.6407,95.4894,0.000494033,0.0444379,21.0316,-341.426,0.197969,0.0,0.0
648,161.75,31.7663,35.3776,158.528,97.622,95.2728,0.000494682,0.0443723,21.0316,-341.416,0.21644,0.0,0.0
650,162.25,31.6819,34.8984,157.122,97.63,95.1922,0.000481895,0.0442811,21.0315,-341.426,0.224689,0.0,0.0
652,162.75,31.6542,34.9309,157.595,97.6196,95.3973,0.000459556,0.0442002,21.0315,-341.436,0.204622,0.0,0.0
654,163.25,31.5176,34.4729,155.175,97.6347,95.0935,0.000429424,0.0441283,21.0315,-341.446,0.234339,0.0,0.0
656,163.75,31.6222,34.1751,155.38,97.6288,95.1189,0.000394184,0.0440629,21.0315,-341.446,0.231424,0.0,0.0
658,164.25,31.3373,34.4387,159.195,97.6244,95.6765,0.000365639,0.0440036,21.0315,-341.436,0.17909,0.0,0.0
660,164.75,30.79,34.5035,162.266,97.6323,95.0849,0.000336186,0.0439485,21.0315,-341.446,0.234925,0.0,0.0
662,165.25,30.7443,33.9972,159.933,97.6308,95.7825,0.00030663,0.0438975,21.0315,-341.446,0.169828,0.0,0.0
664,165.75,31.0865,34.3174,160.39,97.6323,95.5082,0.000285222,0.0438561,21.0315,-341.436,0.195455,0.0,0.0
666,166.25,30.8362,33.8971,157.885,97.6308,94.9617,0.000270161,0.0437957,21.0315,-341.436,0.246303,0.0,0.0
668,166.75,30.5149,33.9571,156.86,97.6156,95.3916,0.000263661,0.0437468,21.0315,-341.416,0.204794,0.0,0.0
670,167.25,30.8315,33.7384,151.557,97.6292,95.4824,0.000263526,0.0436668,21.0315,-341.406,0.197565,0.0,0.0
672,167.75,30.0758,33.6314,157.959,97.6212,95.2675,0.000267851,0.043602,21.0315,-341.426,0.216863,0.0,0.0
674,168.25,30.0908,33.7919,155.301,97.63,95.2548,0.000275345,0.0435353,21.0315,-341.436,0.218845,0.0,0.0
676,168.75,30.4571,33.6165,158.413,97.6236,95.238,0.000281415,0.0434685,21.0315,-341.406,0.219831,0.0,0.0
678,169.25,29.2688,32.3474,157.488,97.6323,94.9511,0.000290034,0.0434144,21.0314,-341.406,0.247443,0.0,0.0
680,169.75,29.3971,32.6731,158.325,97.6256,95.543,0.000297016,0.0433706,21.0312,-341.416,0.191602,0.0,0.0
682,170.25,29.889,33.1042,159.592,97.63,95.2679,0.000308374,0.0433351,21.0313,-341.406,0.217623,0.0,0.0
684,170.75,29.6012,32.7663,152.741,97.616,95.6274,0.000322707,0.043266,21.0316,-341.416,0.182891,0.0,0.0
686,171.25,29.9719,32.6277,157.11,97.626,95.6462,0.000334316,0.04321,21.0319,-341.406,0.182049,0.0,0.0
688,171.75,29.6702,32.7437,157.585,97.6172,95.9172,0.000366607,0.043136,21.0318,-341.426,0.156109,0.0,0.0
690,172.25,29.4915,32.0178,156.826,97.6296,95.3314,0.000392762,0.0430502,21.0316,-341.426,0.21167,0.0,0.0
692,172.75,29.1531,32.1861,154.533,97.6212,95.3457,0.000425999,0.0429877,21.0314,-341.416,0.209573,0.0,0.0
694,173.25,29.3591,32.1452,157.413,97.6288,95.1328,0.000452921,0.0429435,21.0313,-341.436,0.230124,0.0,0.0
696,173.75,28.8039,32.2951,158.135,97.6248,95.805,0.000474728,0.0429219,21.0311,-341.436,0.167196,0.0,0.0
698,174.25,29.1716,32.1986,160.273,97.6248,95.2904,0.000492392,0.0429171,21.031,-341.436,0.215051,0.0,0.0
700,174.75,28.8736,31.9851,156.439,97.6192,95.8845,0.000505431,0.0429133,21.031,-341.436,0.159324,0.0,0.0
702,175.25,28.8829,31.8101,157.546,97.6292,94.8954,0.000514851,0.0429236,21.0309,-341.426,0.252365,0.0,0.0
704,175.75,29.1256,32.1212,161.04,97.62,95.8218,0.000522481,0.042932,21.0308,-341.416,0.165204,0.0,0.0
706,176.25,28.7789,31.513,151.164,97.6311,95.7129,0.000534687,0.0429459,21.0308,-341.426,0.176323,0.0,0.0
708,176.75,28.7672,31.3839,155.921,97.628,95.7358,0.000544575,0.0429635,21.0308,-341.426,0.173905,0.0,0.0
710,177.25,28.5454,31.4331,160.401,97.6316,95.7788,0.000564641,0.0429777,21.0307,-341.416,0.170242,0.0,0.0
712,177.75,28.3813,31.3068,153.602,97.6244,95.6188,0.000580894,0.0429354,21.0307,-341.416,0.184452,0.0,0.0
714,178.25,28.447,31.2297,158.745,97.6284,95.543,0.000594059,0.0429012,21.0307,-341.406,0.191856,0.0,0.0
716,178.75,27.727,31.3066,160.543,97.6212,95.3302,0.000592666,0.04286,21.0307,-341.436,0.211023,0.0,0.0
718,179.25,27.5973,30.3507,156.9,97.6435,95.3891,0.000591537,0.0428266,21.0307,-341.436,0.20756,0.0,0.0
720,179.75,27.6171,30.1453,159.808,97.6164,95.333,0.000575046,0.0427995,21.0306,-341.426,0.210321,0.0,0.0
722,180.25,27.9865,30.4249,156.001,97.6144,95.4276,0.000561689,0.0427777,21.0306,-341.436,0.20133,0.0,0.0
724,180.75,28.0198,30.6699,156.142,97.6061,95.4689,0.000550869,0.0427457,21.0306,-341.446,0.196718,0.0,0.0
726,181.25,27.8095,30.2302,155.481,97.6025,95.6446,0.00054572,0.0427072,21.0308,-341.436,0.180061,0.0,0.0
728,181.75,27.279,30.5344,159.673,97.5973,94.9998,0.000541549,0.0426759,21.0311,-341.426,0.239695,0.0,0.0
730,182.25,27.3124,30.4746,154.754,97.6128,95.5942,0.000549018,0.0426431,21.0313,-341.426,0.185683,0.0,0.0
732,182.75,27.9023,30.3739,154.988,97.6049,95.6785,0.000555068,0.0426099,21.0315,-341.436,0.177122,0.0,0.0
734,183.25,27.352,29.9014,158.244,97.6136,95.8271,0.000567202,0.0425829,21.0316,-341.456,0.16413,0.0,0.0
736,183.75,27.0416,30.1763,158.631,97.5873,95.7694,0.00057703,0.042554,21.0317,-341.436,0.16709,0.0,0.0
738,184.25,27.0401,29.237,155.797,97.5961,96.0728,0.000585626,0.0425243,21.0318,-341.436,0.139786,0.0,0.0
740,184.75,27.2807,30.2877,158.083,97.5949,95.5492,0.000593159,0.0425001,21.0319,-341.446,0.188237,0.0,0.0
742,185.25,26.9576,29.5319,158.567,97.6025,95.8026,0.000599261,0.0424806,21.0319,-341.446,0.165392,0.0,0.0
744,185.75,26.3176,29.7728,160.189,97.5901,95.5582,0.000600587,0.0424718,21.032,-341.466,0.186965,0.0,0.0
746,186.25,26.6396,29.4344,154.846,97.5917,95.9483,0.000601661,0.0424711,21.032,-341.436,0.150905,0.0,0.0
748,186.75,26.8965,29.4502,156.668,97.5925,95.3866,0.000604942,0.0424564,21.0321,-341.426,0.203148,0.0,0.0
750,187.25,26.8793,29.3172,158.208,97.5865,95.1824,0.0006076,0.0424317,21.0321,-341.416,0.221654,0.0,0.0
752,187.75,26.4006,29.3359,157.892,97.5929,95.6454,0.000609118,0.0424117,21.0321,-341.436,0.179113,0.0,0.0
754,188.25,27.0412,29.5314,156.35,97.5861,95.4894,0.000609777,0.0424224,21.0321,-341.436,0.193,0.0,0.0
756,188.75,26.3892,29.1589,158.595,97.5873,95.6859,0.000612214,0.0424311,21.0322,-341.416,0.174842,0.0,0.0
758,189.25,26.6218,28.9776,157.284,97.5957,95.349,0.000615902,0.0424098,21.0322,-341.406,0.206947,0.0,0.0
760,189.75,26.6353,28.958,157.455,97.5774,95.2876,0.00061762,0.0423671,21.0322,-341.436,0.211002,0.0,0.0
762,190.25,26.3285,28.9481,159.328,97.5814,94.7632,0.000617869,0.0423324,21.0322,-341.426,0.260403,0.0,0.0
764,190.75,25.9185,28.7348,154.834,97.5766,95.5066,0.000618071,0.0423044,21.0322,-341.416,0.19053,0.0,0.0
766,191.25,26.1652,28.4798,151.628,97.579,95.0903,0.000615823,0.0423029,21.0322,-341.396,0.229567,0.0,0.0
768,191.75,26.3306,28.2011,158.464,97.5559,95.4652,0.000614002,0.0423208,21.0322,-341.406,0.19249,0.0,0.0
770,192.25,25.9522,28.1845,158.742,97.573,95.1398,0.000612527,0.0423424,21.0322,-341.416,0.224395,0.0,0.0
772,192.75,26.1403,28.303,160.584,97.5642,95.3383,0.000596869,0.0423663,21.0322,-341.426,0.205073,0.0,0.0
774,193.25,26.1703,27.8907,157.646,97.5698,95.4775,0.000584185,0.0423857,21.0322,-341.416,0.192618,0.0,0.0
776,193.75,25.6157,28.6298,156.542,97.5622,95.2606,0.000555839,0.0423879,21.0322,-341.416,0.212143,0.0,0.0
778,194.25,25.7858,28.5408,161.717,97.5674,95.8091,0.000532879,0.0423897,21.0322,-341.426,0.161592,0.0,0.0
780,194.75,25.463,28.4219,155.82,97.5686,95.4558,0.000507055,0.0423769,21.0322,-341.426,0.194528,0.0,0.0
782,195.25,25.65,28.0019,155.188,97.5479,95.7907,0.000486138,0.0423539,21.0322,-341.436,0.161524,0.0,0.0
784,195.75,25.6128,27.9137,155.801,97.5654,94.9159,0.000464379,0.0423352,21.0322,-341.426,0.244645,0.0,0.0
786,196.25,25.7544,27.5491,157.075,97.5507,94.8811,0.000446754,0.0422932,21.0322,-341.406,0.246561,0.0,0.0
788,196.75,25.4611,27.5273,157.048,97.5535,94.7906,0.000413217,0.0422591,21.0322,-341.416,0.255292,0.0,0.0
790,197.25,25.0419,27.8227,157.377,97.5638,95.8611,0.000386052,0.0422386,21.0322,-341.416,0.156445,0.0,0.0
792,197.75,25.0018,27.899,153.61,97.5566,95.5185,0.000337583,0.0422284,21.0322,-341.436,0.187611,0.0,0.0
794,198.25,25.4196,27.2768,157.574,97.5407,95.6487,0.000298323,0.0422272,21.0322,-341.436,0.174057,0.0,0.0
796,198.75,25.1397,27.3485,156.42,97.5535,94.9949,0.000256398,0.0422326,21.0322,-341.426,0.236164,0.0,0.0
798,199.25,24.6313,27.6737,157.61,97.5359,95.7682,0.000213328,0.042237,21.0322,-341.416,0.162523,0.0,0.0
800,199.75,25.2732,27.2615,156.387,97.5367,95.7604,0.000177176,0.0422405,21.0322,-341.416,0.163317,0.0,0.0
802,200.25,25.2037,26.8021,157.106,97.5355,95.5385,0.000146754,0.0422151,21.0322,-341.406,0.183821,0.0,0.0
804,200.75,25.2321,26.9871,157.487,97.5375,95.2266,0.000122112,0.0421689,21.0322,-341.406,0.213064,0.0,0.0
806,201.25,25.0048,27.1144,160.57,97.5264,95.4894,0.000107131,0.0421174,21.0322,-341.426,0.187557,0.0,0.0
808,201.75,24.9152,27.478,158.835,97.53,95.8292,8.15132e-05,0.0420629,21.0324,-341.426,0.156321,0.0,0.0
810,202.25,24.6283,27.0381,159.079,97.5228,95.2937,6.13954e-05,0.0420188,21.0325,-341.416,0.205458,0.0,0.0
812,202.75,24.827,27.0588,154.308,97.5276,95.4808,4.56695e-05,0.0420234,21.0326,-341.406,0.188465,0.0,0.0
814,203.25,24.6112,26.9775,154.805,97.5076,95.566,3.29315e-05,0.0420272,21.0327,-341.406,0.178729,0.0,0.0
816,203.75,24.8618,26.8105,158.427,97.5244,95.2307,2.26137e-05,0.0420444,21.0328,-341.416,0.211483,0.0,0.0
818,204.25,24.3848,26.5104,163.15,97.5025,95.8914,3.22844e-05,0.0420517,21.0328,-341.426,0.148048,0.0,0.0
820,204.75,24.5602,26.4337,156.039,97.5136,95.247,4.01178e-05,0.0420642,21.0328,-341.416,0.208976,0.0,0.0
822,205.25,24.0007,26.3525,155.563,97.4945,95.7031,7.17185e-05,0.0420744,21.0328,-341.416,0.164789,0.0,0.0
824,205.75,24.1531,25.9377,157.854,97.5084,95.3588,9.73152e-05,0.0420826,21.0328,-341.436,0.198084,0.0,0.0
826,206.25,24.5191,26.8375,163.029,97.4921,95.1349,0.000118048,0.0420892,21.0328,-341.416,0.217487,0.0,0.0
828,206.75,24.021,26.8696,155.323,97.5025,95.2184,0.000169463,0.0420812,21.0328,-341.416,0.210633,0.0,0.0
830,207.25,24.3267,26.7542,156.124,97.4925,95.5913,0.000183294,0.0420746,21.0328,-341.416,0.17499,0.0,0.0
832,207.75,24.322,26.4873,158.314,97.4889,95.2741,0.000220461,0.0420828,21.0329,-341.416,0.204205,0.0,0.0
834,208.25,24.128,26.4416,158.892,97.477,95.6331,0.000230459,0.0420894,21.0329,-341.406,0.169694,0.0,0.0
836,208.75,24.7428,25.9951,158.141,97.479,96.092,0.000239131,0.0420948,21.0329,-341.396,0.127337,0.0,0.0
838,209.25,23.9728,25.8242,154.158,97.4746,95.8767,0.000246155,0.0420453,21.0329,-341.406,0.146871,0.0,0.0
840,209.75,23.9252,25.549,157.087,97.4774,95.7735,0.00022658,0.0419881,21.0329,-341.396,0.156692,0.0,0.0
842,210.25,24.6058,25.9308,155.964,97.4658,95.252,0.000210724,0.0419727,21.0329,-341.396,0.20416,0.0,0.0
844,210.75,24.4658,26.1891,157.471,97.4698,95.3555,0.000197881,0.0419352,21.0329,-341.406,0.194868,0.0,0.0
846,211.25,23.6822,26.3327,154.479,97.4674,94.9625,0.000145407,0.0419464,21.0329,-341.406,0.231347,0.0,0.0
848,211.75,24.192,25.869,157.977,97.4622,95.1828,0.000102903,0.0419655,21.0329,-341.406,0.210289,0.0,0.0
850,212.25,23.9309,25.2943,155.919,97.4566,95.5217,6.13564e-05,0.0419738,21.0327,-341.416,0.178193,0.0,0.0
852,212.75,24.5475,26.411,157.41,97.4602,95.7232,2.77038e-05,0.0419742,21.0326,-341.416,0.159803,0.0,0.0
854,213.25,23.7593,25.5072,157.782,97.4483,95.7105,5.50498e-06,0.0419887,21.0325,-341.416,0.159893,0.0,0.0
856,213.75,23.4184,25.2526,159.113,97.4563,95.184,-7.92212e-06,0.0420132,21.0324,-341.416,0.20963,0.0,0.0
858,214.25,24.1003,25.6101,156.049,97.4527,95.9442,-1.31058e-05,0.0420331,21.0323,-341.416,0.138616,0.0,0.0
860,214.75,23.9779,25.266,161.582,97.4694,95.828,-1.21816e-05,0.0420888,21.0322,-341.416,0.150916,0.0,0.0
862,215.25,23.7649,25.9375,154.869,97.4559,95.2384,-1.1433e-05,0.042134,21.0322,-341.426,0.204512,0.0,0.0
864,215.75,23.7475,25.9503,157.846,97.4662,95.6417,8.40541e-06,0.0421564,21.0322,-341.416,0.167914,0.0,0.0
866,216.25,23.4621,25.5639,156.991,97.4499,94.7865,2.44745e-05,0.0421618,21.0321,-341.436,0.246236,0.0,0.0
868,216.75,23.1596,25.4958,157.264,97.4479,95.3072,4.31864e-05,0.0421661,21.0321,-341.436,0.197372,0.0,0.0
870,217.25,23.1159,25.4545,160.334,97.4471,95.6593,6.34693e-05,0.0421293,21.0321,-341.446,0.164535,0.0,0.0
872,217.75,23.293,24.4648,158.308,97.4427,95.3027,8.17975e-05,0.0420995,21.0321,-341.446,0.197319,0.0,0.0
874,218.25,23.3326,25.6006,155.833,97.4379,95.2818,9.83525e-05,0.0420824,21.0321,-341.436,0.198829,0.0,0.0
876,218.75,23.6384,25.3778,159.866,97.4379,95.2589,0.000114928,0.042075,21.0321,-341.436,0.200968,0.0,0.0
878,219.25,23.3566,25.1282,155.923,97.4312,94.7456,0.000131203,0.0420618,21.032,-341.426,0.248366,0.0,0.0
880,219.75,23.5785,25.155,160.724,97.4387,95.2573,0.000144385,0.0420448,21.032,-341.426,0.201194,0.0,0.0
882,220.25,23.1322,25.6902,156.691,97.4296,95.4554,0.000171909,0.0420311,21.032,-341.426,0.181894,0.0,0.0
884,220.75,23.1281,25.0584,155.004,97.4459,94.6379,0.000194203,0.0420199,21.032,-341.426,0.259814,0.0,0.0
886,221.25,23.673,24.9824,155.207,97.4407,95.6323,0.000219817,0.042025,21.032,-341.426,0.166464,0.0,0.0
888,221.75,23.4673,25.5333,157.664,97.4375,96.09,0.000247363,0.0420419,21.032,-341.426,0.123748,0.0,0.0
890,222.25,22.7993,24.9719,160.831,97.4343,95.3314,0.000274746,0.0420556,21.032,-341.436,0.193884,0.0,0.0
892,222.75,22.8624,25.2142,153.82,97.4395,95.1308,0.00030149,0.0420398,21.0322,-341.426,0.213074,0.0,0.0
894,223.25,22.9433,24.6536,157.88,97.4284,95.4112,0.000323152,0.042027,21.0323,-341.426,0.185902,0.0,0.0
896,223.75,22.9173,24.7002,157.032,97.4304,95.0726,0.000340698,0.0420024,21.0324,-341.436,0.217671,0.0,0.0
898,224.25,23.1917,25.2097,164.668,97.4188,95.4689,0.000354277,0.0419698,21.0325,-341.436,0.179655,0.0,0.0
900,224.75,22.7944,24.5972,160.986,97.4244,95.3875,0.000364706,0.0419508,21.0326,-341.436,0.187751,0.0,0.0
902,225.25,23.2389,24.7119,154.375,97.4204,95.2675,0.000373153,0.0419421,21.0326,-341.426,0.198567,0.0,0.0
904,225.75,22.9731,24.3226,158.935,97.4112,95.6323,0.000382404,0.0419351,21.0327,-341.426,0.163775,0.0,0.0
906,226.25,22.605,24.5274,157.568,97.4057,94.7824,0.000389897,0.0419429,21.0327,-341.426,0.242586,0.0,0.0
908,226.75,23.4351,24.2419,159.497,97.416,95.3121,0.000395967,0.0419492,21.0327,-341.426,0.194006,0.0,0.0
910,227.25,23.0246,24.6293,157.693,97.3981,95.1152,0.00040976,0.0419273,21.0328,-341.416,0.210748,0.0,0.0
912,227.75,22.4628,24.5183,153.915,97.4061,95.1877,0.000428921,0.0419097,21.0333,-341.416,0.204709,0.0,0.0
914,228.25,23.1201,24.3017,155.995,97.4041,96.0126,0.000448882,0.0418819,21.0338,-341.416,0.127854,0.0,0.0
916,228.75,22.1594,24.1309,155.362,97.3997,95.4321,0.000469046,0.0418594,21.0342,-341.406,0.181341,0.0,0.0
918,229.25,22.7791,23.9898,157.975,97.3933,95.7891,0.000484745,0.0418412,21.0345,-341.396,0.147583,0.0,0.0
920,229.75,23.0294,24.3427,156.517,97.4033,95.1521,,0.0418618,,-341.406,0.20778,0.0,0.0
922,230.25,22.7229,24.0849,154.475,97.3881,95.5463,,0.0419104,,-341.416,0.169659,0.0,0.0
924,230.75,22.9736,24.3231,153.903,97.3921,94.7169,,0.0419498,,-341.416,0.247494,0.0,0.0
926,231.25,22.6034,24.2554,158.887,97.3857,95.403,,0.0420086,,-341.416,0.182775,0.0,0.0
928,231.75,22.2283,24.1075,156.244,97.3826,95.4382,,0.0420562,,-341.416,0.179207,0.0,0.0
930,232.25,22.2374,23.884,157.142,97.3754,95.3756,,0.0420814,,-341.426,0.184386,0.0,0.0
932,232.75,22.556,24.4832,156.403,97.371,94.9609,,,,-341.426,0.222705,0.0,0.0
934,233.25,22.4592,23.9092,159.219,97.3746,95.7604,,,,-341.436,0.148533,0.0,0.0
936,233.75,22.9069,24.1856,156.659,97.3694,95.3981,,,,-341.436,0.181743,0.0,0.0
938,234.25,22.7437,24.0617,160.956,97.3742,95.0522,,,,-341.446,0.214459,0.0,0.0
940,234.75,22.2787,24.1112,155.504,97.361,95.1283,,,,-341.446,0.206143,0.0,0.0
942,235.25,22.5391,24.3093,153.521,97.3786,95.2831,,,,-341.436,0.1933,0.0,0.0
944,235.75,22.3744,23.6929,159.776,97.3626,94.6526,,,,-341.426,0.250835,0.0,0.0
946,236.25,22.4082,24.0907,154.81,97.3571,95.5254,,,,-341.436,0.168765,0.0,0.0
948,236.75,22.6548,23.5711,159.302,97.363,95.6278,,,,-341.436,0.159796,0.0,0.0
950,237.25,22.4656,23.8023,153.923,97.3714,95.1406,,,,-341.436,0.205941,0.0,0.0
952,237.75,21.8769,24.035,154.636,97.3427,94.737,,,,-341.436,0.241103,0.0,0.0
954,238.25,22.814,23.6667,156.519,97.3626,94.4258,,,,-341.416,0.272152,0.0,0.0
956,238.75,22.5611,24.1334,158.096,97.3618,94.9159,,,,-341.426,0.226085,0.0,0.0
958,239.25,22.335,23.2955,157.829,97.3622,95.252,,,,-341.426,0.194711,0.0,0.0
960,239.75,22.1544,23.5714,156.136,97.3467,95.3645,,,,-341.426,0.182797,0.0,0.0
962,240.25,22.2219,23.2489,155.284,97.3435,95.0948,,,,-341.416,0.207679,0.0,0.0
963,240.5,22.3288,23.504,156.498,97.3531,95.0575,,,,-341.416,0.212034,0.0,0.0