File: 01_Data/OSB/FTIR/ATR/OSB_ATR_210608_R4.tst
4497.79,-0.00801
4493.93,-0.00809
4490.07,-0.00791
4486.22,-0.00773
4482.36,-0.00789
4478.5,-0.00772
4474.64,-0.00795
4470.79,-0.00787
4466.93,-0.00795
4463.07,-0.00765
4459.21,-0.00810
4455.36,-0.00798
4451.5,-0.00777
4447.64,-0.00800
4443.79,-0.00775
4439.93,-0.00764
4436.07,-0.00764
4432.21,-0.00793
4428.36,-0.00769
4424.5,-0.00759
4420.64,-0.00776
4416.78,-0.00749
4412.93,-0.00749
4409.07,-0.00753
4405.21,-0.00777
4401.35,-0.00753
4397.5,-0.00751
4393.64,-0.00738
4389.78,-0.00737
4385.92,-0.00744
4382.07,-0.00742
4378.21,-0.00733
4374.35,-0.00751
4370.49,-0.00763
4366.64,-0.00744
4362.78,-0.00732
4358.92,-0.00732
4355.06,-0.00753
4351.21,-0.00751
4347.35,-0.00751
4343.49,-0.00756
4339.63,-0.00744
4335.78,-0.00735
4331.92,-0.00730
4328.06,-0.00724
4324.2,-0.00726
4320.35,-0.00714
4316.49,-0.00712
4312.63,-0.00724
4308.77,-0.00724
4304.92,-0.00717
4301.06,-0.00736
4297.2,-0.00734
4293.34,-0.00720
4289.49,-0.00710
4285.63,-0.00725
4281.77,-0.00720
4277.91,-0.00715
4274.06,-0.00716
4270.2,-0.00718
4266.34,-0.00726
4262.48,-0.00710
4258.63,-0.00717
4254.77,-0.00698
4250.91,-0.00709
4247.06,-0.00736
4243.2,-0.00720
4239.34,-0.00705
4235.48,-0.00712
4231.63,-0.00726
4227.77,-0.00710
4223.91,-0.00705
4220.05,-0.00706
4216.2,-0.00728
4212.34,-0.00702
4208.48,-0.00698
4204.62,-0.00691
4200.77,-0.00683
4196.91,-0.00704
4193.05,-0.00676
4189.19,-0.00697
4185.34,-0.00688
4181.48,-0.00684
4177.62,-0.00706
4173.76,-0.00685
4169.91,-0.00691
4166.05,-0.00673
4162.19,-0.00668
4158.33,-0.00664
4154.48,-0.00682
4150.62,-0.00687
4146.76,-0.00676
4142.9,-0.00677
4139.05,-0.00653
4135.19,-0.00637
4131.33,-0.00645
4127.47,-0.00669
4123.62,-0.00679
4119.76,-0.00672
4115.9,-0.00673
4112.04,-0.00673
4108.19,-0.00653
4104.33,-0.00629
4100.47,-0.00657
4096.61,-0.00651
4092.76,-0.00650
4088.9,-0.00629
4085.04,-0.00630
4081.18,-0.00617
4077.33,-0.00639
4073.47,-0.00630
4069.61,-0.00636
4065.75,-0.00642
4061.9,-0.00630
4058.04,-0.00633
4054.18,-0.00630
4050.33,-0.00647
4046.47,-0.00609
4042.61,-0.00599
4038.75,-0.00642
4034.9,-0.00624
4031.04,-0.00617
4027.18,-0.00602
4023.32,-0.00595
4019.47,-0.00592
4015.61,-0.00593
4011.75,-0.00586
4007.89,-0.00571
4004.04,-0.00618
4000.18,-0.00620
3996.32,-0.00578
3992.46,-0.00542
3988.61,-0.00569
3984.75,-0.00572
3980.89,-0.00551
3977.03,-0.00511
3973.18,-0.00483
3969.32,-0.00535
3965.46,-0.00569
3961.6,-0.00481
3957.75,-0.00472
3953.89,-0.00480
3950.03,-0.00353
3946.17,-0.00371
3942.32,-0.00397
3938.46,-0.00517
3934.6,-0.00412
3930.74,-0.00286
3926.89,-0.00355
3923.03,-0.00304
3919.17,-0.00305
3915.31,-0.00400
3911.46,-0.00545
3907.6,-0.00369
3903.74,0.00106
3899.88,-0.00026
3896.03,-0.00305
3892.17,-0.00196
3888.31,-0.00307
3884.45,-0.00096
3880.6,-0.00219
3876.74,-0.00347
3872.88,-0.00074
3869.02,-0.00024
3865.17,-0.00002
3861.31,-0.00185
3857.45,-0.00168
3853.59,0.00195
3849.74,-0.00203
3845.88,-0.00289
3842.02,0.00030
3838.17,0.00222
3834.31,-0.00131
3830.45,-0.00247
3826.59,-0.00167
3822.74,-0.00019
3818.88,0.00022
3815.02,-0.00276
3811.16,-0.00433
3807.31,-0.00255
3803.45,-0.00071
3799.59,-0.00017
3795.73,-0.00304
3791.88,-0.00481
3788.02,-0.00395
3784.16,-0.00326
3780.3,-0.00330
3776.45,-0.00448
3772.59,-0.00379
3768.73,-0.00194
3764.87,-0.00222
3761.02,-0.00168
3757.16,-0.00024
3753.3,0.00245
3749.44,0.00592
3745.59,0.00343
3741.73,0.00147
3737.87,0.00320
3734.01,0.00346
3730.16,-0.00096
3726.3,0.00047
3722.44,-0.00007
3718.58,-0.00244
3714.73,-0.00162
3710.87,0.00093
3707.01,-0.00259
3703.15,-0.00292
3699.3,-0.00343
3695.44,-0.00290
3691.58,0.00065
3687.72,-0.00056
3683.87,-0.00336
3680.01,-0.00186
3676.15,0.00167
3672.29,0.00124
3668.44,-0.00122
3664.58,-0.00404
3660.72,-0.00381
3656.86,-0.00216
3653.01,-0.00088
3649.15,0.00505
3645.29,-0.00123
3641.44,-0.00304
3637.58,-0.00359
3633.72,-0.00223
3629.86,0.00069
3626.01,-0.00183
3622.15,-0.00189
3618.29,0.00098
3614.43,0.00072
3610.58,0.00024
3606.72,-0.00187
3602.86,-0.00247
3599,-0.00110
3595.15,-0.00181
3591.29,-0.00238
3587.43,0.00041
3583.57,-0.00257
3579.72,-0.00332
3575.86,-0.00371
3572,-0.00337
3568.14,0.00090
3564.29,-0.00040
3560.43,-0.00311
3556.57,-0.00417
3552.71,-0.00321
3548.86,-0.00275
3545,-0.00136
3541.14,-0.00464
3537.28,-0.00449
3533.43,-0.00454
3529.57,-0.00270
3525.71,-0.00160
3521.85,-0.00331
3518,-0.00496
3514.14,-0.00517
3510.28,-0.00403
3506.42,-0.00411
3502.57,-0.00289
3498.71,-0.00476
3494.85,-0.00513
3490.99,-0.00525
3487.14,-0.00469
3483.28,-0.00441
3479.42,-0.00493
3475.56,-0.00541
3471.71,-0.00567
3467.85,-0.00555
3463.99,-0.00516
3460.13,-0.00522
3456.28,-0.00558
3452.42,-0.00581
3448.56,-0.00481
3444.7,-0.00472
3440.85,-0.00547
3436.99,-0.00611
3433.13,-0.00593
3429.28,-0.00592
3425.42,-0.00572
3421.56,-0.00484
3417.7,-0.00566
3413.85,-0.00602
3409.99,-0.00612
3406.13,-0.00606
3402.27,-0.00608
3398.42,-0.00573
3394.56,-0.00542
3390.7,-0.00582
3386.84,-0.00596
3382.99,-0.00585
3379.13,-0.00596
3375.27,-0.00613
3371.41,-0.00604
3367.56,-0.00551
3363.7,-0.00558
3359.84,-0.00561
3355.98,-0.00570
3352.13,-0.00603
3348.27,-0.00608
3344.41,-0.00594
3340.55,-0.00580
3336.7,-0.00546
3332.84,-0.00583
3328.98,-0.00578
3325.12,-0.00570
3321.27,-0.00591
3317.41,-0.00586
3313.55,-0.00557
3309.69,-0.00528
3305.84,-0.00567
3301.98,-0.00563
3298.12,-0.00560
3294.26,-0.00564
3290.41,-0.00547
3286.55,-0.00551
3282.69,-0.00538
3278.83,-0.00537
3274.98,-0.00517
3271.12,-0.00540
3267.26,-0.00549
3263.4,-0.00534
3259.55,-0.00526
3255.69,-0.00511
3251.83,-0.00532
3247.97,-0.00523
3244.12,-0.00503
3240.26,-0.00520
3236.4,-0.00517
3232.55,-0.00514
3228.69,-0.00503
3224.83,-0.00524
3220.97,-0.00501
3217.12,-0.00498
3213.26,-0.00498
3209.4,-0.00506
3205.54,-0.00502
3201.69,-0.00474
3197.83,-0.00462
3193.97,-0.00489
3190.11,-0.00483
3186.26,-0.00465
3182.4,-0.00459
3178.54,-0.00447
3174.68,-0.00468
3170.83,-0.00471
3166.97,-0.00476
3163.11,-0.00481
3159.25,-0.00485
3155.4,-0.00466
3151.54,-0.00460
3147.68,-0.00455
3143.82,-0.00448
3139.97,-0.00442
3136.11,-0.00435
3132.25,-0.00433
3128.39,-0.00427
3124.54,-0.00410
3120.68,-0.00388
3116.82,-0.00397
3112.96,-0.00424
3109.11,-0.00426
3105.25,-0.00420
3101.39,-0.00391
3097.53,-0.00403
3093.68,-0.00417
3089.82,-0.00429
3085.96,-0.00422
3082.1,-0.00390
3078.25,-0.00397
3074.39,-0.00418
3070.53,-0.00406
3066.67,-0.00375
3062.82,-0.00383
3058.96,-0.00376
3055.1,-0.00373
3051.24,-0.00384
3047.39,-0.00379
3043.53,-0.00398
3039.67,-0.00392
3035.82,-0.00368
3031.96,-0.00337
3028.1,-0.00385
3024.24,-0.00387
3020.39,-0.00393
3016.53,-0.00399
3012.67,-0.00361
3008.81,-0.00362
3004.96,-0.00366
3001.1,-0.00379
2997.24,-0.00373
2993.38,-0.00368
2989.53,-0.00381
2985.67,-0.00372
2981.81,-0.00369
2977.95,-0.00369
2974.1,-0.00360
2970.24,-0.00358
2966.38,-0.00348
2962.52,-0.00339
2958.67,-0.00347
2954.81,-0.00338
2950.95,-0.00348
2947.09,-0.00349
2943.24,-0.00351
2939.38,-0.00346
2935.52,-0.00334
2931.66,-0.00316
2927.81,-0.00309
2923.95,-0.00294
2920.09,-0.00298
2916.23,-0.00316
2912.38,-0.00314
2908.52,-0.00336
2904.66,-0.00331
2900.8,-0.00322
2896.95,-0.00332
2893.09,-0.00337
2889.23,-0.00341
2885.37,-0.00347
2881.52,-0.00351
2877.66,-0.00341
2873.8,-0.00332
2869.94,-0.00324
2866.09,-0.00324
2862.23,-0.00318
2858.37,-0.00297
2854.51,-0.00289
2850.66,-0.00298
2846.8,-0.00308
2842.94,-0.00307
2839.08,-0.00313
2835.23,-0.00321
2831.37,-0.00314
2827.51,-0.00311
2823.66,-0.00314
2819.8,-0.00317
2815.94,-0.00310
2812.08,-0.00308
2808.23,-0.00312
2804.37,-0.00315
2800.51,-0.00311
2796.65,-0.00303
2792.8,-0.00302
2788.94,-0.00302
2785.08,-0.00303
2781.22,-0.00294
2777.37,-0.00292
2773.51,-0.00296
2769.65,-0.00293
2765.79,-0.00295
2761.94,-0.00295
2758.08,-0.00290
2754.22,-0.00289
2750.36,-0.00287
2746.51,-0.00284
2742.65,-0.00286
2738.79,-0.00282
2734.93,-0.00286
2731.08,-0.00287
2727.22,-0.00286
2723.36,-0.00279
2719.5,-0.00279
2715.65,-0.00278
2711.79,-0.00274
2707.93,-0.00271
2704.07,-0.00275
2700.22,-0.00271
2696.36,-0.00268
2692.5,-0.00269
2688.64,-0.00261
2684.79,-0.00266
2680.93,-0.00268
2677.07,-0.00268
2673.21,-0.00269
2669.36,-0.00263
2665.5,-0.00260
2661.64,-0.00260
2657.78,-0.00268
2653.93,-0.00266
2650.07,-0.00264
2646.21,-0.00271
2642.35,-0.00266
2638.5,-0.00262
2634.64,-0.00270
2630.78,-0.00270
2626.93,-0.00258
2623.07,-0.00258
2619.21,-0.00268
2615.35,-0.00260
2611.5,-0.00265
2607.64,-0.00264
2603.78,-0.00250
2599.92,-0.00250
2596.07,-0.00245
2592.21,-0.00240
2588.35,-0.00230
2584.49,-0.00233
2580.64,-0.00231
2576.78,-0.00234
2572.92,-0.00232
2569.06,-0.00226
2565.21,-0.00226
2561.35,-0.00233
2557.49,-0.00240
2553.63,-0.00232
2549.78,-0.00239
2545.92,-0.00236
2542.06,-0.00223
2538.2,-0.00212
2534.35,-0.00211
2530.49,-0.00216
2526.63,-0.00214
2522.77,-0.00216
2518.92,-0.00214
2515.06,-0.00221
2511.2,-0.00227
2507.34,-0.00215
2503.49,-0.00192
2499.63,-0.00211
2495.77,-0.00223
2491.91,-0.00213
2488.06,-0.00206
2484.2,-0.00213
2480.34,-0.00204
2476.48,-0.00203
2472.63,-0.00198
2468.77,-0.00179
2464.91,-0.00192
2461.05,-0.00189
2457.2,-0.00203
2453.34,-0.00204
2449.48,-0.00206
2445.62,-0.00200
2441.77,-0.00207
2437.91,-0.00194
2434.05,-0.00174
2430.2,-0.00169
2426.34,-0.00177
2422.48,-0.00183
2418.62,-0.00176
2414.77,-0.00180
2410.91,-0.00186
2407.05,-0.00182
2403.19,-0.00169
2399.34,-0.00167
2395.48,-0.00172
2391.62,-0.00174
2387.76,-0.00153
2383.91,-0.00105
2380.05,-0.00098
2376.19,-0.00166
2372.33,-0.00293
2368.48,-0.00539
2364.62,-0.00708
2360.76,-0.00702
2356.9,-0.00656
2353.05,-0.00437
2349.19,-0.00297
2345.33,-0.00424
2341.47,-0.00586
2337.62,-0.00624
2333.76,-0.00543
2329.9,-0.00436
2326.04,-0.00355
2322.19,-0.00245
2318.33,-0.00175
2314.47,-0.00138
2310.61,-0.00064
2306.76,-0.00069
2302.9,-0.00106
2299.04,-0.00119
2295.18,-0.00124
2291.33,-0.00142
2287.47,-0.00160
2283.61,-0.00158
2279.75,-0.00170
2275.9,-0.00173
2272.04,-0.00175
2268.18,-0.00169
2264.32,-0.00149
2260.47,-0.00158
2256.61,-0.00140
2252.75,-0.00138
2248.89,-0.00132
2245.04,-0.00112
2241.18,-0.00140
2237.32,-0.00162
2233.46,-0.00135
2229.61,-0.00134
2225.75,-0.00140
2221.89,-0.00143
2218.04,-0.00157
2214.18,-0.00135
2210.32,-0.00166
2206.46,-0.00166
2202.61,-0.00155
2198.75,-0.00148
2194.89,-0.00189
2191.03,-0.00164
2187.18,-0.00165
2183.32,-0.00234
2179.46,-0.00191
2175.6,-0.00175
2171.75,-0.00198
2167.89,-0.00230
2164.03,-0.00240
2160.17,-0.00135
2156.32,-0.00084
2152.46,-0.00063
2148.6,-0.00050
2144.74,-0.00051
2140.89,-0.00048
2137.03,-0.00083
2133.17,-0.00084
2129.31,-0.00106
2125.46,-0.00150
2121.6,-0.00177
2117.74,-0.00185
2113.88,-0.00172
2110.03,-0.00183
2106.17,-0.00173
2102.31,-0.00158
2098.45,-0.00149
2094.6,-0.00133
2090.74,-0.00111
2086.88,-0.00124
2083.02,-0.00137
2079.17,-0.00112
2075.31,-0.00128
2071.45,-0.00137
2067.59,-0.00060
2063.74,-0.00008
2059.88,-0.00072
2056.02,-0.00106
2052.16,-0.00097
2048.31,-0.00107
2044.45,-0.00045
2040.59,-0.00024
2036.73,-0.00086
2032.88,-0.00056
2029.02,-0.00073
2025.16,-0.00015
2021.31,-0.00009
2017.45,0.00047
2013.59,0.00000
2009.73,-0.00025
2005.88,-0.00002
2002.02,-0.00018
1998.16,-0.00037
1994.3,0.00004
1990.45,0.00086
1986.59,0.00013
1982.73,-0.00046
1978.87,-0.00050
1975.02,-0.00010
1971.16,0.00045
1967.3,0.00093
1963.44,-0.00001
1959.59,0.00001
1955.73,0.00034
1951.87,0.00033
1948.01,0.00052
1944.16,0.00135
1940.3,0.00072
1936.44,-0.00002
1932.58,0.00005
1928.73,-0.00029
1924.87,0.00093
1921.01,0.00162
1917.15,0.00097
1913.3,0.00023
1909.44,0.00115
1905.58,0.00028
1901.72,0.00003
1897.87,0.00035
1894.01,0.00077
1890.15,0.00098
1886.29,0.00044
1882.44,0.00010
1878.58,-0.00013
1874.72,-0.00006
1870.86,0.00211
1867.01,0.00277
1863.15,0.00050
1859.29,0.00042
1855.43,-0.00010
1851.58,0.00009
1847.72,0.00214
1843.86,0.00339
1840,0.00104
1836.15,0.00086
1832.29,0.00135
1828.43,0.00229
1824.57,0.00181
1820.72,0.00048
1816.86,0.00041
1813,0.00113
1809.15,0.00161
1805.29,0.00112
1801.43,0.00282
1797.57,0.00297
1793.72,0.00407
1789.86,0.00235
1786,0.00132
1782.14,0.00204
1778.29,0.00205
1774.43,0.00315
1770.57,0.00410
1766.71,0.00192
1762.86,0.00206
1759,0.00264
1755.14,0.00225
1751.28,0.00500
1747.43,0.00674
1743.57,0.00458
1739.71,0.00368
1735.85,0.00459
1732,0.00510
1728.14,0.00133
1724.28,0.00113
1720.42,0.00267
1716.57,0.00804
1712.71,0.00349
1708.85,0.00257
1704.99,0.00522
1701.14,0.00650
1697.28,0.00757
1693.42,0.00245
1689.56,0.00337
1685.71,0.00522
1681.85,0.00496
1677.99,0.00263
1674.13,0.00302
1670.28,0.00376
1666.42,0.00084
1662.56,0.00122
1658.7,0.00062
1654.85,0.00299
1650.99,0.00384
1647.13,0.00446
1643.27,0.00111
1639.42,0.00147
1635.56,0.00263
1631.7,-0.00027
1627.84,0.00029
1623.99,0.00158
1620.13,0.00118
1616.27,0.00130
1612.42,-0.00025
1608.56,0.00020
1604.7,-0.00019
1600.84,-0.00060
1596.99,-0.00075
1593.13,-0.00049
1589.27,-0.00091
1585.41,-0.00126
1581.56,-0.00077
1577.7,0.00142
1573.84,0.00137
1569.98,0.00162
1566.13,0.00153
1562.27,0.00241
1558.41,0.00700
1554.55,0.00533
1550.7,0.00367
1546.84,0.00403
1542.98,0.01130
1539.12,0.00665
1535.27,0.00544
1531.41,0.00434
1527.55,0.00597
1523.69,0.00938
1519.84,0.00853
1515.98,0.00690
1512.12,0.00649
1508.26,0.01101
1504.41,0.00411
1500.55,0.00405
1496.69,0.00422
1492.83,0.00274
1488.98,0.00605
1485.12,0.00178
1481.26,0.00094
1477.4,0.00209
1473.55,0.00575
1469.69,0.00159
1465.83,0.00166
1461.97,0.00166
1458.12,0.00599
1454.26,0.00365
1450.4,0.00161
1446.54,0.00126
1442.69,0.00003
1438.83,0.00140
1434.97,0.00297
1431.11,0.00196
1427.26,0.00109
1423.4,0.00168
1419.54,0.00351
1415.69,0.00172
1411.83,0.00064
1407.97,0.00033
1404.11,0.00081
1400.26,0.00169
1396.4,0.00384
1392.54,0.00127
1388.68,0.00160
1384.83,0.00070
1380.97,0.00010
1377.11,0.00121
1373.25,0.00176
1369.4,0.00049
1365.54,0.00061
1361.68,0.00201
1357.82,0.00008
1353.97,-0.00015
1350.11,-0.00033
1346.25,-0.00044
1342.39,0.00081
1338.54,0.00331
1334.68,0.00010
1330.82,-0.00050
1326.96,-0.00054
1323.11,-0.00000
1319.25,0.00140
1315.39,0.00128
1311.53,0.00060
1307.68,-0.00022
1303.82,-0.00054
1299.96,-0.00051
1296.1,-0.00030
1292.25,-0.00019
1288.39,0.00029
1284.53,-0.00019
1280.67,-0.00030
1276.82,-0.00037
1272.96,0.00009
1269.1,0.00049
1265.24,0.00050
1261.39,0.00077
1257.53,0.00034
1253.67,-0.00031
1249.81,-0.00061
1245.96,-0.00061
1242.1,-0.00054
1238.24,-0.00056
1234.38,-0.00063
1230.53,-0.00056
1226.67,-0.00045
1222.81,-0.00043
1218.95,-0.00052
1215.1,-0.00050
1211.24,-0.00037
1207.38,-0.00043
1203.53,-0.00038
1199.67,-0.00042
1195.81,-0.00049
1191.95,-0.00044
1188.1,-0.00028
1184.24,-0.00025
1180.38,-0.00032
1176.52,-0.00020
1172.67,-0.00023
1168.81,-0.00034
1164.95,-0.00037
1161.09,-0.00035
1157.24,-0.00033
1153.38,-0.00047
1149.52,-0.00049
1145.66,-0.00049
1141.81,-0.00047
1137.95,-0.00042
1134.09,-0.00037
1130.23,-0.00041
1126.38,-0.00052
1122.52,-0.00048
1118.66,-0.00040
1114.8,-0.00016
1110.95,-0.00007
1107.09,0.00008
1103.23,0.00008
1099.37,0.00029
1095.52,0.00048
1091.66,0.00038
1087.8,0.00035
1083.94,0.00022
1080.09,0.00014
1076.23,0.00022
1072.37,0.00001
1068.51,0.00006
1064.66,0.00005
1060.8,-0.00008
1056.94,-0.00004
1053.08,-0.00003
1049.23,0.00002
1045.37,0.00014
1041.51,0.00012
1037.65,0.00001
1033.8,0.00011
1029.94,0.00032
1026.08,0.00036
1022.22,0.00055
1018.37,0.00056
1014.51,0.00050
1010.65,0.00033
1006.8,0.00025
1002.94,-0.00015
999.08,-0.00034
995.223,-0.00023
991.365,-0.00011
987.508,-0.00035
983.65,-0.00020
979.793,-0.00020
975.935,-0.00049
972.078,-0.00051
968.221,-0.00015
964.363,0.00005
960.506,-0.00013
956.648,-0.00052
952.791,-0.00053
948.933,-0.00069
945.076,-0.00027
941.218,-0.00020
937.361,-0.00041
933.503,-0.00020
929.646,-0.00015
925.789,-0.00026
921.931,-0.00031
918.074,-0.00033
914.216,-0.00037
910.359,-0.00034
906.501,0.00009
902.644,-0.00010
898.786,-0.00011
894.929,-0.00023
891.072,-0.00009
887.214,0.00024
883.357,0.00017
879.499,0.00017
875.642,0.00037
871.784,0.00007
867.927,-0.00003
864.069,0.00017
860.212,0.00058
856.354,0.00055
852.497,0.00033
848.64,0.00004
844.782,0.00011
840.925,0.00033
837.067,0.00018
833.21,0.00012
829.352,0.00036
825.495,0.00035
821.637,0.00080
817.78,0.00091
813.922,0.00100
810.065,0.00132
806.208,0.00137
802.35,0.00151
798.493,0.00147
794.635,0.00115
790.778,0.00103
786.92,0.00071
783.063,0.00046
779.205,0.00044
775.348,0.00055
771.49,0.00066
767.633,0.00084
763.776,0.00064
759.918,-0.00014
756.061,-0.00029
752.203,0.00013
748.346,-0.00034
744.488,0.00022
740.631,0.00080
736.773,0.00084
732.916,0.00048
729.058,0.00033
725.201,0.00027
721.344,0.00064
717.486,0.00060
713.629,0.00038
709.771,0.00015
705.914,0.00033
702.056,0.00031
698.199,0.00044
694.341,0.00045
690.484,0.00033
686.627,0.00020
682.769,-0.00021
678.912,-0.00055
675.054,-0.00033
671.197,-0.00047
667.339,-0.00047
663.482,-0.00040
659.624,-0.00016
655.767,-0.00054
651.909,-0.00043
648.052,-0.00035
644.195,0.00014
640.337,0.00061
636.48,0.00058
632.622,0.00065
628.765,-0.00008
624.907,0.00105
621.05,0.00224
617.192,0.00232
613.335,0.00421
609.477,0.00270
605.62,0.00237
601.763,0.00018
599.834,0.00099