File: 01_Data/OSB/FTIR/ATR/OSB_ATR_210608_R1.tst
4497.79,-0.00810
4493.93,-0.00812
4490.07,-0.00799
4486.22,-0.00765
4482.36,-0.00792
4478.5,-0.00783
4474.64,-0.00791
4470.79,-0.00793
4466.93,-0.00781
4463.07,-0.00768
4459.21,-0.00779
4455.36,-0.00773
4451.5,-0.00761
4447.64,-0.00801
4443.79,-0.00764
4439.93,-0.00745
4436.07,-0.00759
4432.21,-0.00783
4428.36,-0.00782
4424.5,-0.00764
4420.64,-0.00770
4416.78,-0.00778
4412.93,-0.00772
4409.07,-0.00754
4405.21,-0.00761
4401.35,-0.00756
4397.5,-0.00743
4393.64,-0.00739
4389.78,-0.00728
4385.92,-0.00727
4382.07,-0.00730
4378.21,-0.00710
4374.35,-0.00731
4370.49,-0.00730
4366.64,-0.00748
4362.78,-0.00730
4358.92,-0.00729
4355.06,-0.00740
4351.21,-0.00724
4347.35,-0.00718
4343.49,-0.00746
4339.63,-0.00735
4335.78,-0.00749
4331.92,-0.00732
4328.06,-0.00729
4324.2,-0.00717
4320.35,-0.00704
4316.49,-0.00709
4312.63,-0.00714
4308.77,-0.00715
4304.92,-0.00721
4301.06,-0.00731
4297.2,-0.00718
4293.34,-0.00706
4289.49,-0.00699
4285.63,-0.00704
4281.77,-0.00719
4277.91,-0.00730
4274.06,-0.00720
4270.2,-0.00703
4266.34,-0.00716
4262.48,-0.00711
4258.63,-0.00709
4254.77,-0.00693
4250.91,-0.00696
4247.06,-0.00718
4243.2,-0.00703
4239.34,-0.00702
4235.48,-0.00713
4231.63,-0.00708
4227.77,-0.00712
4223.91,-0.00711
4220.05,-0.00687
4216.2,-0.00695
4212.34,-0.00693
4208.48,-0.00700
4204.62,-0.00686
4200.77,-0.00671
4196.91,-0.00685
4193.05,-0.00685
4189.19,-0.00687
4185.34,-0.00694
4181.48,-0.00701
4177.62,-0.00704
4173.76,-0.00675
4169.91,-0.00692
4166.05,-0.00668
4162.19,-0.00677
4158.33,-0.00673
4154.48,-0.00657
4150.62,-0.00668
4146.76,-0.00663
4142.9,-0.00654
4139.05,-0.00655
4135.19,-0.00654
4131.33,-0.00665
4127.47,-0.00684
4123.62,-0.00677
4119.76,-0.00668
4115.9,-0.00653
4112.04,-0.00667
4108.19,-0.00643
4104.33,-0.00623
4100.47,-0.00644
4096.61,-0.00659
4092.76,-0.00661
4088.9,-0.00638
4085.04,-0.00621
4081.18,-0.00610
4077.33,-0.00622
4073.47,-0.00637
4069.61,-0.00648
4065.75,-0.00653
4061.9,-0.00639
4058.04,-0.00644
4054.18,-0.00647
4050.33,-0.00635
4046.47,-0.00598
4042.61,-0.00596
4038.75,-0.00635
4034.9,-0.00623
4031.04,-0.00620
4027.18,-0.00611
4023.32,-0.00601
4019.47,-0.00590
4015.61,-0.00586
4011.75,-0.00598
4007.89,-0.00586
4004.04,-0.00611
4000.18,-0.00622
3996.32,-0.00592
3992.46,-0.00551
3988.61,-0.00578
3984.75,-0.00584
3980.89,-0.00558
3977.03,-0.00527
3973.18,-0.00476
3969.32,-0.00537
3965.46,-0.00558
3961.6,-0.00469
3957.75,-0.00476
3953.89,-0.00490
3950.03,-0.00346
3946.17,-0.00385
3942.32,-0.00409
3938.46,-0.00524
3934.6,-0.00412
3930.74,-0.00290
3926.89,-0.00373
3923.03,-0.00325
3919.17,-0.00314
3915.31,-0.00424
3911.46,-0.00563
3907.6,-0.00396
3903.74,0.00082
3899.88,-0.00055
3896.03,-0.00317
3892.17,-0.00212
3888.31,-0.00313
3884.45,-0.00123
3880.6,-0.00236
3876.74,-0.00365
3872.88,-0.00112
3869.02,-0.00048
3865.17,-0.00028
3861.31,-0.00203
3857.45,-0.00166
3853.59,0.00178
3849.74,-0.00225
3845.88,-0.00301
3842.02,-0.00019
3838.17,0.00166
3834.31,-0.00149
3830.45,-0.00282
3826.59,-0.00185
3822.74,-0.00028
3818.88,-0.00017
3815.02,-0.00300
3811.16,-0.00436
3807.31,-0.00261
3803.45,-0.00100
3799.59,-0.00104
3795.73,-0.00365
3791.88,-0.00509
3788.02,-0.00404
3784.16,-0.00338
3780.3,-0.00362
3776.45,-0.00473
3772.59,-0.00389
3768.73,-0.00212
3764.87,-0.00275
3761.02,-0.00233
3757.16,-0.00080
3753.3,0.00166
3749.44,0.00404
3745.59,0.00243
3741.73,0.00093
3737.87,0.00215
3734.01,0.00183
3730.16,-0.00167
3726.3,-0.00014
3722.44,-0.00073
3718.58,-0.00268
3714.73,-0.00151
3710.87,0.00044
3707.01,-0.00295
3703.15,-0.00296
3699.3,-0.00379
3695.44,-0.00320
3691.58,-0.00008
3687.72,-0.00136
3683.87,-0.00382
3680.01,-0.00206
3676.15,0.00105
3672.29,0.00073
3668.44,-0.00156
3664.58,-0.00410
3660.72,-0.00395
3656.86,-0.00259
3653.01,-0.00144
3649.15,0.00417
3645.29,-0.00143
3641.44,-0.00304
3637.58,-0.00351
3633.72,-0.00246
3629.86,0.00014
3626.01,-0.00231
3622.15,-0.00198
3618.29,0.00077
3614.43,0.00030
3610.58,-0.00011
3606.72,-0.00210
3602.86,-0.00259
3599,-0.00129
3595.15,-0.00181
3591.29,-0.00255
3587.43,0.00003
3583.57,-0.00288
3579.72,-0.00367
3575.86,-0.00372
3572,-0.00338
3568.14,0.00045
3564.29,-0.00101
3560.43,-0.00334
3556.57,-0.00423
3552.71,-0.00330
3548.86,-0.00300
3545,-0.00177
3541.14,-0.00456
3537.28,-0.00438
3533.43,-0.00449
3529.57,-0.00259
3525.71,-0.00172
3521.85,-0.00349
3518,-0.00500
3514.14,-0.00512
3510.28,-0.00404
3506.42,-0.00417
3502.57,-0.00302
3498.71,-0.00464
3494.85,-0.00519
3490.99,-0.00524
3487.14,-0.00481
3483.28,-0.00444
3479.42,-0.00483
3475.56,-0.00523
3471.71,-0.00552
3467.85,-0.00546
3463.99,-0.00515
3460.13,-0.00522
3456.28,-0.00561
3452.42,-0.00578
3448.56,-0.00476
3444.7,-0.00475
3440.85,-0.00549
3436.99,-0.00594
3433.13,-0.00586
3429.28,-0.00581
3425.42,-0.00559
3421.56,-0.00482
3417.7,-0.00575
3413.85,-0.00602
3409.99,-0.00595
3406.13,-0.00597
3402.27,-0.00588
3398.42,-0.00552
3394.56,-0.00531
3390.7,-0.00568
3386.84,-0.00569
3382.99,-0.00566
3379.13,-0.00586
3375.27,-0.00603
3371.41,-0.00583
3367.56,-0.00540
3363.7,-0.00540
3359.84,-0.00544
3355.98,-0.00552
3352.13,-0.00592
3348.27,-0.00590
3344.41,-0.00569
3340.55,-0.00552
3336.7,-0.00531
3332.84,-0.00570
3328.98,-0.00557
3325.12,-0.00558
3321.27,-0.00574
3317.41,-0.00569
3313.55,-0.00543
3309.69,-0.00519
3305.84,-0.00548
3301.98,-0.00547
3298.12,-0.00542
3294.26,-0.00543
3290.41,-0.00532
3286.55,-0.00543
3282.69,-0.00529
3278.83,-0.00528
3274.98,-0.00505
3271.12,-0.00531
3267.26,-0.00526
3263.4,-0.00527
3259.55,-0.00527
3255.69,-0.00503
3251.83,-0.00520
3247.97,-0.00509
3244.12,-0.00491
3240.26,-0.00505
3236.4,-0.00511
3232.55,-0.00501
3228.69,-0.00489
3224.83,-0.00515
3220.97,-0.00488
3217.12,-0.00492
3213.26,-0.00495
3209.4,-0.00496
3205.54,-0.00482
3201.69,-0.00461
3197.83,-0.00450
3193.97,-0.00487
3190.11,-0.00487
3186.26,-0.00462
3182.4,-0.00455
3178.54,-0.00451
3174.68,-0.00463
3170.83,-0.00476
3166.97,-0.00473
3163.11,-0.00467
3159.25,-0.00477
3155.4,-0.00462
3151.54,-0.00457
3147.68,-0.00441
3143.82,-0.00445
3139.97,-0.00451
3136.11,-0.00437
3132.25,-0.00432
3128.39,-0.00422
3124.54,-0.00410
3120.68,-0.00396
3116.82,-0.00402
3112.96,-0.00420
3109.11,-0.00420
3105.25,-0.00422
3101.39,-0.00393
3097.53,-0.00406
3093.68,-0.00418
3089.82,-0.00429
3085.96,-0.00424
3082.1,-0.00387
3078.25,-0.00392
3074.39,-0.00417
3070.53,-0.00406
3066.67,-0.00375
3062.82,-0.00388
3058.96,-0.00390
3055.1,-0.00380
3051.24,-0.00387
3047.39,-0.00382
3043.53,-0.00390
3039.67,-0.00392
3035.82,-0.00374
3031.96,-0.00344
3028.1,-0.00380
3024.24,-0.00394
3020.39,-0.00408
3016.53,-0.00409
3012.67,-0.00364
3008.81,-0.00372
3004.96,-0.00369
3001.1,-0.00380
2997.24,-0.00378
2993.38,-0.00380
2989.53,-0.00377
2985.67,-0.00382
2981.81,-0.00383
2977.95,-0.00385
2974.1,-0.00375
2970.24,-0.00361
2966.38,-0.00348
2962.52,-0.00339
2958.67,-0.00348
2954.81,-0.00342
2950.95,-0.00349
2947.09,-0.00348
2943.24,-0.00353
2939.38,-0.00346
2935.52,-0.00326
2931.66,-0.00310
2927.81,-0.00304
2923.95,-0.00290
2920.09,-0.00294
2916.23,-0.00310
2912.38,-0.00321
2908.52,-0.00328
2904.66,-0.00334
2900.8,-0.00328
2896.95,-0.00336
2893.09,-0.00337
2889.23,-0.00340
2885.37,-0.00342
2881.52,-0.00341
2877.66,-0.00335
2873.8,-0.00333
2869.94,-0.00327
2866.09,-0.00328
2862.23,-0.00317
2858.37,-0.00296
2854.51,-0.00287
2850.66,-0.00296
2846.8,-0.00305
2842.94,-0.00313
2839.08,-0.00325
2835.23,-0.00325
2831.37,-0.00317
2827.51,-0.00318
2823.66,-0.00327
2819.8,-0.00328
2815.94,-0.00319
2812.08,-0.00316
2808.23,-0.00329
2804.37,-0.00329
2800.51,-0.00318
2796.65,-0.00318
2792.8,-0.00316
2788.94,-0.00314
2785.08,-0.00316
2781.22,-0.00308
2777.37,-0.00316
2773.51,-0.00313
2769.65,-0.00311
2765.79,-0.00312
2761.94,-0.00310
2758.08,-0.00304
2754.22,-0.00301
2750.36,-0.00303
2746.51,-0.00296
2742.65,-0.00295
2738.79,-0.00301
2734.93,-0.00300
2731.08,-0.00299
2727.22,-0.00299
2723.36,-0.00297
2719.5,-0.00296
2715.65,-0.00295
2711.79,-0.00293
2707.93,-0.00291
2704.07,-0.00287
2700.22,-0.00283
2696.36,-0.00289
2692.5,-0.00290
2688.64,-0.00282
2684.79,-0.00280
2680.93,-0.00287
2677.07,-0.00281
2673.21,-0.00282
2669.36,-0.00282
2665.5,-0.00284
2661.64,-0.00286
2657.78,-0.00285
2653.93,-0.00282
2650.07,-0.00287
2646.21,-0.00298
2642.35,-0.00288
2638.5,-0.00287
2634.64,-0.00291
2630.78,-0.00284
2626.93,-0.00275
2623.07,-0.00285
2619.21,-0.00289
2615.35,-0.00281
2611.5,-0.00279
2607.64,-0.00283
2603.78,-0.00280
2599.92,-0.00278
2596.07,-0.00271
2592.21,-0.00265
2588.35,-0.00269
2584.49,-0.00263
2580.64,-0.00254
2576.78,-0.00266
2572.92,-0.00267
2569.06,-0.00265
2565.21,-0.00264
2561.35,-0.00275
2557.49,-0.00272
2553.63,-0.00248
2549.78,-0.00262
2545.92,-0.00267
2542.06,-0.00254
2538.2,-0.00243
2534.35,-0.00242
2530.49,-0.00250
2526.63,-0.00253
2522.77,-0.00248
2518.92,-0.00248
2515.06,-0.00253
2511.2,-0.00245
2507.34,-0.00233
2503.49,-0.00227
2499.63,-0.00235
2495.77,-0.00241
2491.91,-0.00229
2488.06,-0.00233
2484.2,-0.00237
2480.34,-0.00219
2476.48,-0.00224
2472.63,-0.00223
2468.77,-0.00220
2464.91,-0.00230
2461.05,-0.00237
2457.2,-0.00238
2453.34,-0.00238
2449.48,-0.00248
2445.62,-0.00241
2441.77,-0.00232
2437.91,-0.00222
2434.05,-0.00213
2430.2,-0.00211
2426.34,-0.00218
2422.48,-0.00205
2418.62,-0.00200
2414.77,-0.00210
2410.91,-0.00211
2407.05,-0.00205
2403.19,-0.00204
2399.34,-0.00199
2395.48,-0.00209
2391.62,-0.00199
2387.76,-0.00187
2383.91,-0.00149
2380.05,-0.00146
2376.19,-0.00233
2372.33,-0.00382
2368.48,-0.00631
2364.62,-0.00813
2360.76,-0.00854
2356.9,-0.00791
2353.05,-0.00548
2349.19,-0.00352
2345.33,-0.00517
2341.47,-0.00679
2337.62,-0.00679
2333.76,-0.00616
2329.9,-0.00507
2326.04,-0.00423
2322.19,-0.00312
2318.33,-0.00231
2314.47,-0.00205
2310.61,-0.00132
2306.76,-0.00124
2302.9,-0.00158
2299.04,-0.00171
2295.18,-0.00180
2291.33,-0.00193
2287.47,-0.00207
2283.61,-0.00205
2279.75,-0.00215
2275.9,-0.00216
2272.04,-0.00227
2268.18,-0.00222
2264.32,-0.00224
2260.47,-0.00217
2256.61,-0.00208
2252.75,-0.00198
2248.89,-0.00187
2245.04,-0.00184
2241.18,-0.00200
2237.32,-0.00220
2233.46,-0.00212
2229.61,-0.00179
2225.75,-0.00192
2221.89,-0.00223
2218.04,-0.00241
2214.18,-0.00254
2210.32,-0.00277
2206.46,-0.00238
2202.61,-0.00204
2198.75,-0.00214
2194.89,-0.00264
2191.03,-0.00278
2187.18,-0.00285
2183.32,-0.00301
2179.46,-0.00305
2175.6,-0.00279
2171.75,-0.00310
2167.89,-0.00319
2164.03,-0.00355
2160.17,-0.00278
2156.32,-0.00195
2152.46,-0.00157
2148.6,-0.00162
2144.74,-0.00179
2140.89,-0.00170
2137.03,-0.00134
2133.17,-0.00155
2129.31,-0.00169
2125.46,-0.00190
2121.6,-0.00206
2117.74,-0.00222
2113.88,-0.00220
2110.03,-0.00229
2106.17,-0.00225
2102.31,-0.00224
2098.45,-0.00203
2094.6,-0.00201
2090.74,-0.00142
2086.88,-0.00154
2083.02,-0.00175
2079.17,-0.00169
2075.31,-0.00166
2071.45,-0.00185
2067.59,-0.00125
2063.74,-0.00086
2059.88,-0.00133
2056.02,-0.00144
2052.16,-0.00180
2048.31,-0.00177
2044.45,-0.00118
2040.59,-0.00103
2036.73,-0.00137
2032.88,-0.00164
2029.02,-0.00145
2025.16,-0.00108
2021.31,-0.00115
2017.45,-0.00042
2013.59,-0.00112
2009.73,-0.00095
2005.88,-0.00096
2002.02,-0.00133
1998.16,-0.00120
1994.3,-0.00038
1990.45,0.00007
1986.59,-0.00044
1982.73,-0.00079
1978.87,-0.00143
1975.02,-0.00115
1971.16,-0.00034
1967.3,0.00060
1963.44,-0.00067
1959.59,-0.00109
1955.73,-0.00064
1951.87,-0.00045
1948.01,-0.00033
1944.16,0.00060
1940.3,-0.00003
1936.44,-0.00044
1932.58,-0.00042
1928.73,-0.00065
1924.87,0.00056
1921.01,0.00093
1917.15,0.00027
1913.3,-0.00025
1909.44,0.00070
1905.58,-0.00034
1901.72,-0.00054
1897.87,-0.00016
1894.01,0.00019
1890.15,0.00047
1886.29,-0.00010
1882.44,-0.00055
1878.58,-0.00065
1874.72,-0.00050
1870.86,0.00162
1867.01,0.00200
1863.15,0.00006
1859.29,0.00002
1855.43,-0.00041
1851.58,-0.00014
1847.72,0.00178
1843.86,0.00281
1840,0.00067
1836.15,0.00051
1832.29,0.00092
1828.43,0.00179
1824.57,0.00130
1820.72,0.00007
1816.86,0.00003
1813,0.00079
1809.15,0.00114
1805.29,0.00068
1801.43,0.00226
1797.57,0.00234
1793.72,0.00338
1789.86,0.00184
1786,0.00082
1782.14,0.00152
1778.29,0.00157
1774.43,0.00259
1770.57,0.00336
1766.71,0.00136
1762.86,0.00164
1759,0.00215
1755.14,0.00184
1751.28,0.00457
1747.43,0.00606
1743.57,0.00401
1739.71,0.00318
1735.85,0.00418
1732,0.00464
1728.14,0.00104
1724.28,0.00091
1720.42,0.00235
1716.57,0.00743
1712.71,0.00312
1708.85,0.00230
1704.99,0.00484
1701.14,0.00607
1697.28,0.00696
1693.42,0.00203
1689.56,0.00293
1685.71,0.00472
1681.85,0.00458
1677.99,0.00224
1674.13,0.00263
1670.28,0.00337
1666.42,0.00063
1662.56,0.00108
1658.7,0.00052
1654.85,0.00289
1650.99,0.00363
1647.13,0.00430
1643.27,0.00100
1639.42,0.00145
1635.56,0.00246
1631.7,-0.00030
1627.84,0.00023
1623.99,0.00148
1620.13,0.00097
1616.27,0.00105
1612.42,-0.00038
1608.56,0.00006
1604.7,-0.00025
1600.84,-0.00069
1596.99,-0.00086
1593.13,-0.00059
1589.27,-0.00102
1585.41,-0.00137
1581.56,-0.00096
1577.7,0.00121
1573.84,0.00110
1569.98,0.00136
1566.13,0.00121
1562.27,0.00215
1558.41,0.00639
1554.55,0.00476
1550.7,0.00329
1546.84,0.00378
1542.98,0.01089
1539.12,0.00623
1535.27,0.00506
1531.41,0.00399
1527.55,0.00556
1523.69,0.00871
1519.84,0.00798
1515.98,0.00664
1512.12,0.00643
1508.26,0.01091
1504.41,0.00382
1500.55,0.00373
1496.69,0.00391
1492.83,0.00240
1488.98,0.00555
1485.12,0.00150
1481.26,0.00073
1477.4,0.00194
1473.55,0.00552
1469.69,0.00139
1465.83,0.00145
1461.97,0.00151
1458.12,0.00580
1454.26,0.00351
1450.4,0.00149
1446.54,0.00107
1442.69,-0.00010
1438.83,0.00118
1434.97,0.00264
1431.11,0.00177
1427.26,0.00105
1423.4,0.00160
1419.54,0.00333
1415.69,0.00156
1411.83,0.00052
1407.97,0.00030
1404.11,0.00077
1400.26,0.00150
1396.4,0.00359
1392.54,0.00108
1388.68,0.00141
1384.83,0.00055
1380.97,0.00007
1377.11,0.00115
1373.25,0.00169
1369.4,0.00043
1365.54,0.00046
1361.68,0.00175
1357.82,-0.00001
1353.97,-0.00028
1350.11,-0.00052
1346.25,-0.00068
1342.39,0.00062
1338.54,0.00298
1334.68,-0.00010
1330.82,-0.00063
1326.96,-0.00063
1323.11,-0.00019
1319.25,0.00122
1315.39,0.00108
1311.53,0.00038
1307.68,-0.00038
1303.82,-0.00073
1299.96,-0.00068
1296.1,-0.00049
1292.25,-0.00039
1288.39,0.00006
1284.53,-0.00037
1280.67,-0.00040
1276.82,-0.00052
1272.96,-0.00005
1269.1,0.00038
1265.24,0.00049
1261.39,0.00078
1257.53,0.00033
1253.67,-0.00032
1249.81,-0.00069
1245.96,-0.00069
1242.1,-0.00065
1238.24,-0.00068
1234.38,-0.00069
1230.53,-0.00062
1226.67,-0.00043
1222.81,-0.00050
1218.95,-0.00053
1215.1,-0.00052
1211.24,-0.00057
1207.38,-0.00061
1203.53,-0.00061
1199.67,-0.00062
1195.81,-0.00064
1191.95,-0.00066
1188.1,-0.00051
1184.24,-0.00046
1180.38,-0.00054
1176.52,-0.00049
1172.67,-0.00050
1168.81,-0.00054
1164.95,-0.00047
1161.09,-0.00043
1157.24,-0.00041
1153.38,-0.00054
1149.52,-0.00065
1145.66,-0.00057
1141.81,-0.00044
1137.95,-0.00045
1134.09,-0.00050
1130.23,-0.00058
1126.38,-0.00051
1122.52,-0.00046
1118.66,-0.00052
1114.8,-0.00020
1110.95,0.00000
1107.09,0.00012
1103.23,0.00019
1099.37,0.00044
1095.52,0.00065
1091.66,0.00053
1087.8,0.00041
1083.94,0.00041
1080.09,0.00041
1076.23,0.00038
1072.37,0.00042
1068.51,0.00039
1064.66,0.00033
1060.8,0.00030
1056.94,0.00051
1053.08,0.00051
1049.23,0.00061
1045.37,0.00058
1041.51,0.00053
1037.65,0.00059
1033.8,0.00079
1029.94,0.00100
1026.08,0.00098
1022.22,0.00118
1018.37,0.00119
1014.51,0.00100
1010.65,0.00076
1006.8,0.00069
1002.94,0.00041
999.08,0.00029
995.223,0.00023
991.365,0.00033
987.508,0.00014
983.65,0.00021
979.793,0.00015
975.935,-0.00022
972.078,-0.00025
968.221,-0.00008
964.363,-0.00001
960.506,-0.00010
956.648,-0.00022
952.791,-0.00029
948.933,-0.00045
945.076,-0.00025
941.218,-0.00013
937.361,-0.00016
933.503,-0.00011
929.646,-0.00033
925.789,-0.00041
921.931,-0.00046
918.074,-0.00066
914.216,-0.00068
910.359,-0.00068
906.501,-0.00050
902.644,-0.00030
898.786,-0.00015
894.929,-0.00008
891.072,-0.00010
887.214,-0.00043
883.357,-0.00001
879.499,-0.00001
875.642,-0.00007
871.784,-0.00016
867.927,-0.00044
864.069,-0.00031
860.212,0.00024
856.354,0.00025
852.497,0.00005
848.64,-0.00021
844.782,-0.00021
840.925,0.00016
837.067,0.00005
833.21,-0.00014
829.352,0.00012
825.495,0.00020
821.637,0.00048
817.78,0.00076
813.922,0.00056
810.065,0.00082
806.208,0.00095
802.35,0.00112
798.493,0.00110
794.635,0.00114
790.778,0.00131
786.92,0.00055
783.063,-0.00013
779.205,0.00002
775.348,0.00063
771.49,0.00045
767.633,-0.00007
763.776,-0.00006
759.918,-0.00021
756.061,-0.00049
752.203,-0.00043
748.346,-0.00027
744.488,-0.00000
740.631,0.00030
736.773,0.00003
732.916,0.00026
729.058,-0.00013
725.201,-0.00018
721.344,0.00006
717.486,0.00046
713.629,0.00039
709.771,0.00013
705.914,0.00042
702.056,0.00036
698.199,0.00035
694.341,0.00041
690.484,0.00028
686.627,-0.00002
682.769,-0.00046
678.912,-0.00057
675.054,-0.00028
671.197,-0.00017
667.339,-0.00045
663.482,0.00026
659.624,0.00057
655.767,-0.00038
651.909,-0.00026
648.052,-0.00003
644.195,0.00028
640.337,0.00089
636.48,0.00111
632.622,0.00091
628.765,-0.00021
624.907,-0.00068
621.05,-0.00046
617.192,0.00000
613.335,0.00049
609.477,-0.00127
605.62,0.00061
601.763,-0.00069
599.834,-0.00056