File: 01_Data/OSB/FTIR/ATR/OSB_ATR_210608_R5.tst
4497.79,-0.00850
4493.93,-0.00852
4490.07,-0.00823
4486.22,-0.00817
4482.36,-0.00840
4478.5,-0.00813
4474.64,-0.00824
4470.79,-0.00820
4466.93,-0.00822
4463.07,-0.00825
4459.21,-0.00825
4455.36,-0.00810
4451.5,-0.00813
4447.64,-0.00837
4443.79,-0.00813
4439.93,-0.00790
4436.07,-0.00801
4432.21,-0.00809
4428.36,-0.00821
4424.5,-0.00825
4420.64,-0.00829
4416.78,-0.00802
4412.93,-0.00802
4409.07,-0.00789
4405.21,-0.00789
4401.35,-0.00780
4397.5,-0.00789
4393.64,-0.00786
4389.78,-0.00774
4385.92,-0.00796
4382.07,-0.00797
4378.21,-0.00786
4374.35,-0.00806
4370.49,-0.00794
4366.64,-0.00782
4362.78,-0.00763
4358.92,-0.00756
4355.06,-0.00773
4351.21,-0.00771
4347.35,-0.00778
4343.49,-0.00795
4339.63,-0.00788
4335.78,-0.00769
4331.92,-0.00766
4328.06,-0.00761
4324.2,-0.00763
4320.35,-0.00759
4316.49,-0.00768
4312.63,-0.00766
4308.77,-0.00770
4304.92,-0.00770
4301.06,-0.00779
4297.2,-0.00764
4293.34,-0.00746
4289.49,-0.00735
4285.63,-0.00759
4281.77,-0.00755
4277.91,-0.00768
4274.06,-0.00767
4270.2,-0.00738
4266.34,-0.00747
4262.48,-0.00740
4258.63,-0.00742
4254.77,-0.00744
4250.91,-0.00743
4247.06,-0.00759
4243.2,-0.00757
4239.34,-0.00737
4235.48,-0.00754
4231.63,-0.00745
4227.77,-0.00719
4223.91,-0.00726
4220.05,-0.00729
4216.2,-0.00736
4212.34,-0.00705
4208.48,-0.00725
4204.62,-0.00731
4200.77,-0.00722
4196.91,-0.00725
4193.05,-0.00700
4189.19,-0.00717
4185.34,-0.00730
4181.48,-0.00722
4177.62,-0.00729
4173.76,-0.00708
4169.91,-0.00705
4166.05,-0.00685
4162.19,-0.00703
4158.33,-0.00710
4154.48,-0.00711
4150.62,-0.00714
4146.76,-0.00695
4142.9,-0.00693
4139.05,-0.00699
4135.19,-0.00694
4131.33,-0.00700
4127.47,-0.00705
4123.62,-0.00700
4119.76,-0.00698
4115.9,-0.00685
4112.04,-0.00691
4108.19,-0.00683
4104.33,-0.00671
4100.47,-0.00693
4096.61,-0.00681
4092.76,-0.00681
4088.9,-0.00658
4085.04,-0.00663
4081.18,-0.00658
4077.33,-0.00673
4073.47,-0.00664
4069.61,-0.00660
4065.75,-0.00665
4061.9,-0.00651
4058.04,-0.00651
4054.18,-0.00673
4050.33,-0.00679
4046.47,-0.00641
4042.61,-0.00637
4038.75,-0.00666
4034.9,-0.00653
4031.04,-0.00660
4027.18,-0.00643
4023.32,-0.00623
4019.47,-0.00605
4015.61,-0.00627
4011.75,-0.00636
4007.89,-0.00591
4004.04,-0.00627
4000.18,-0.00631
3996.32,-0.00603
3992.46,-0.00572
3988.61,-0.00594
3984.75,-0.00601
3980.89,-0.00583
3977.03,-0.00544
3973.18,-0.00511
3969.32,-0.00571
3965.46,-0.00599
3961.6,-0.00509
3957.75,-0.00523
3953.89,-0.00520
3950.03,-0.00389
3946.17,-0.00413
3942.32,-0.00440
3938.46,-0.00536
3934.6,-0.00430
3930.74,-0.00308
3926.89,-0.00374
3923.03,-0.00310
3919.17,-0.00319
3915.31,-0.00439
3911.46,-0.00596
3907.6,-0.00438
3903.74,0.00032
3899.88,-0.00075
3896.03,-0.00340
3892.17,-0.00226
3888.31,-0.00331
3884.45,-0.00141
3880.6,-0.00269
3876.74,-0.00391
3872.88,-0.00111
3869.02,-0.00075
3865.17,0.00004
3861.31,-0.00197
3857.45,-0.00173
3853.59,0.00193
3849.74,-0.00217
3845.88,-0.00338
3842.02,-0.00032
3838.17,0.00149
3834.31,-0.00197
3830.45,-0.00306
3826.59,-0.00193
3822.74,-0.00107
3818.88,-0.00036
3815.02,-0.00314
3811.16,-0.00471
3807.31,-0.00274
3803.45,-0.00107
3799.59,-0.00065
3795.73,-0.00362
3791.88,-0.00519
3788.02,-0.00441
3784.16,-0.00350
3780.3,-0.00376
3776.45,-0.00480
3772.59,-0.00406
3768.73,-0.00210
3764.87,-0.00275
3761.02,-0.00221
3757.16,-0.00067
3753.3,0.00151
3749.44,0.00426
3745.59,0.00246
3741.73,0.00087
3737.87,0.00192
3734.01,0.00193
3730.16,-0.00172
3726.3,-0.00043
3722.44,-0.00102
3718.58,-0.00293
3714.73,-0.00197
3710.87,-0.00001
3707.01,-0.00320
3703.15,-0.00329
3699.3,-0.00394
3695.44,-0.00336
3691.58,-0.00063
3687.72,-0.00132
3683.87,-0.00397
3680.01,-0.00249
3676.15,0.00019
3672.29,0.00060
3668.44,-0.00155
3664.58,-0.00423
3660.72,-0.00423
3656.86,-0.00277
3653.01,-0.00143
3649.15,0.00423
3645.29,-0.00146
3641.44,-0.00340
3637.58,-0.00405
3633.72,-0.00277
3629.86,-0.00002
3626.01,-0.00243
3622.15,-0.00237
3618.29,0.00069
3614.43,0.00004
3610.58,-0.00056
3606.72,-0.00238
3602.86,-0.00294
3599,-0.00163
3595.15,-0.00211
3591.29,-0.00281
3587.43,-0.00033
3583.57,-0.00326
3579.72,-0.00378
3575.86,-0.00401
3572,-0.00386
3568.14,0.00015
3564.29,-0.00090
3560.43,-0.00343
3556.57,-0.00440
3552.71,-0.00342
3548.86,-0.00287
3545,-0.00167
3541.14,-0.00473
3537.28,-0.00461
3533.43,-0.00474
3529.57,-0.00305
3525.71,-0.00196
3521.85,-0.00372
3518,-0.00527
3514.14,-0.00562
3510.28,-0.00444
3506.42,-0.00440
3502.57,-0.00312
3498.71,-0.00488
3494.85,-0.00529
3490.99,-0.00552
3487.14,-0.00507
3483.28,-0.00471
3479.42,-0.00519
3475.56,-0.00569
3471.71,-0.00609
3467.85,-0.00588
3463.99,-0.00542
3460.13,-0.00551
3456.28,-0.00585
3452.42,-0.00609
3448.56,-0.00526
3444.7,-0.00509
3440.85,-0.00579
3436.99,-0.00640
3433.13,-0.00625
3429.28,-0.00624
3425.42,-0.00608
3421.56,-0.00532
3417.7,-0.00618
3413.85,-0.00639
3409.99,-0.00642
3406.13,-0.00637
3402.27,-0.00618
3398.42,-0.00606
3394.56,-0.00588
3390.7,-0.00612
3386.84,-0.00625
3382.99,-0.00608
3379.13,-0.00617
3375.27,-0.00635
3371.41,-0.00645
3367.56,-0.00590
3363.7,-0.00589
3359.84,-0.00600
3355.98,-0.00608
3352.13,-0.00645
3348.27,-0.00650
3344.41,-0.00620
3340.55,-0.00598
3336.7,-0.00564
3332.84,-0.00604
3328.98,-0.00600
3325.12,-0.00600
3321.27,-0.00625
3317.41,-0.00622
3313.55,-0.00587
3309.69,-0.00560
3305.84,-0.00590
3301.98,-0.00596
3298.12,-0.00590
3294.26,-0.00590
3290.41,-0.00574
3286.55,-0.00584
3282.69,-0.00571
3278.83,-0.00574
3274.98,-0.00551
3271.12,-0.00565
3267.26,-0.00571
3263.4,-0.00568
3259.55,-0.00566
3255.69,-0.00545
3251.83,-0.00571
3247.97,-0.00555
3244.12,-0.00527
3240.26,-0.00536
3236.4,-0.00536
3232.55,-0.00528
3228.69,-0.00531
3224.83,-0.00558
3220.97,-0.00532
3217.12,-0.00530
3213.26,-0.00524
3209.4,-0.00524
3205.54,-0.00524
3201.69,-0.00508
3197.83,-0.00493
3193.97,-0.00513
3190.11,-0.00511
3186.26,-0.00493
3182.4,-0.00493
3178.54,-0.00481
3174.68,-0.00496
3170.83,-0.00499
3166.97,-0.00499
3163.11,-0.00508
3159.25,-0.00504
3155.4,-0.00495
3151.54,-0.00489
3147.68,-0.00489
3143.82,-0.00492
3139.97,-0.00484
3136.11,-0.00465
3132.25,-0.00459
3128.39,-0.00455
3124.54,-0.00439
3120.68,-0.00418
3116.82,-0.00421
3112.96,-0.00444
3109.11,-0.00437
3105.25,-0.00445
3101.39,-0.00412
3097.53,-0.00417
3093.68,-0.00430
3089.82,-0.00441
3085.96,-0.00433
3082.1,-0.00412
3078.25,-0.00415
3074.39,-0.00431
3070.53,-0.00429
3066.67,-0.00396
3062.82,-0.00404
3058.96,-0.00400
3055.1,-0.00390
3051.24,-0.00398
3047.39,-0.00397
3043.53,-0.00418
3039.67,-0.00410
3035.82,-0.00385
3031.96,-0.00347
3028.1,-0.00384
3024.24,-0.00394
3020.39,-0.00410
3016.53,-0.00414
3012.67,-0.00373
3008.81,-0.00383
3004.96,-0.00385
3001.1,-0.00392
2997.24,-0.00383
2993.38,-0.00376
2989.53,-0.00389
2985.67,-0.00394
2981.81,-0.00386
2977.95,-0.00378
2974.1,-0.00381
2970.24,-0.00374
2966.38,-0.00364
2962.52,-0.00357
2958.67,-0.00360
2954.81,-0.00363
2950.95,-0.00362
2947.09,-0.00365
2943.24,-0.00371
2939.38,-0.00363
2935.52,-0.00352
2931.66,-0.00336
2927.81,-0.00322
2923.95,-0.00302
2920.09,-0.00310
2916.23,-0.00327
2912.38,-0.00340
2908.52,-0.00346
2904.66,-0.00336
2900.8,-0.00334
2896.95,-0.00345
2893.09,-0.00353
2889.23,-0.00350
2885.37,-0.00348
2881.52,-0.00359
2877.66,-0.00353
2873.8,-0.00346
2869.94,-0.00339
2866.09,-0.00335
2862.23,-0.00328
2858.37,-0.00308
2854.51,-0.00292
2850.66,-0.00304
2846.8,-0.00315
2842.94,-0.00320
2839.08,-0.00324
2835.23,-0.00322
2831.37,-0.00321
2827.51,-0.00322
2823.66,-0.00330
2819.8,-0.00332
2815.94,-0.00320
2812.08,-0.00314
2808.23,-0.00320
2804.37,-0.00324
2800.51,-0.00322
2796.65,-0.00317
2792.8,-0.00313
2788.94,-0.00313
2785.08,-0.00309
2781.22,-0.00305
2777.37,-0.00301
2773.51,-0.00297
2769.65,-0.00297
2765.79,-0.00300
2761.94,-0.00302
2758.08,-0.00297
2754.22,-0.00299
2750.36,-0.00293
2746.51,-0.00289
2742.65,-0.00300
2738.79,-0.00304
2734.93,-0.00296
2731.08,-0.00294
2727.22,-0.00288
2723.36,-0.00285
2719.5,-0.00282
2715.65,-0.00287
2711.79,-0.00283
2707.93,-0.00277
2704.07,-0.00277
2700.22,-0.00271
2696.36,-0.00277
2692.5,-0.00279
2688.64,-0.00267
2684.79,-0.00261
2680.93,-0.00268
2677.07,-0.00262
2673.21,-0.00265
2669.36,-0.00264
2665.5,-0.00262
2661.64,-0.00268
2657.78,-0.00274
2653.93,-0.00269
2650.07,-0.00271
2646.21,-0.00284
2642.35,-0.00281
2638.5,-0.00276
2634.64,-0.00279
2630.78,-0.00278
2626.93,-0.00270
2623.07,-0.00279
2619.21,-0.00279
2615.35,-0.00266
2611.5,-0.00283
2607.64,-0.00284
2603.78,-0.00264
2599.92,-0.00266
2596.07,-0.00264
2592.21,-0.00254
2588.35,-0.00256
2584.49,-0.00251
2580.64,-0.00251
2576.78,-0.00260
2572.92,-0.00255
2569.06,-0.00254
2565.21,-0.00248
2561.35,-0.00248
2557.49,-0.00259
2553.63,-0.00258
2549.78,-0.00252
2545.92,-0.00246
2542.06,-0.00247
2538.2,-0.00230
2534.35,-0.00222
2530.49,-0.00235
2526.63,-0.00235
2522.77,-0.00232
2518.92,-0.00239
2515.06,-0.00229
2511.2,-0.00227
2507.34,-0.00223
2503.49,-0.00217
2499.63,-0.00229
2495.77,-0.00236
2491.91,-0.00233
2488.06,-0.00222
2484.2,-0.00224
2480.34,-0.00227
2476.48,-0.00226
2472.63,-0.00212
2468.77,-0.00215
2464.91,-0.00221
2461.05,-0.00220
2457.2,-0.00228
2453.34,-0.00229
2449.48,-0.00234
2445.62,-0.00234
2441.77,-0.00229
2437.91,-0.00213
2434.05,-0.00197
2430.2,-0.00196
2426.34,-0.00197
2422.48,-0.00192
2418.62,-0.00196
2414.77,-0.00206
2410.91,-0.00204
2407.05,-0.00193
2403.19,-0.00198
2399.34,-0.00189
2395.48,-0.00195
2391.62,-0.00195
2387.76,-0.00168
2383.91,-0.00132
2380.05,-0.00127
2376.19,-0.00227
2372.33,-0.00385
2368.48,-0.00648
2364.62,-0.00798
2360.76,-0.00826
2356.9,-0.00784
2353.05,-0.00542
2349.19,-0.00341
2345.33,-0.00499
2341.47,-0.00677
2337.62,-0.00670
2333.76,-0.00582
2329.9,-0.00488
2326.04,-0.00437
2322.19,-0.00311
2318.33,-0.00210
2314.47,-0.00183
2310.61,-0.00112
2306.76,-0.00103
2302.9,-0.00131
2299.04,-0.00151
2295.18,-0.00168
2291.33,-0.00184
2287.47,-0.00182
2283.61,-0.00198
2279.75,-0.00210
2275.9,-0.00208
2272.04,-0.00220
2268.18,-0.00203
2264.32,-0.00208
2260.47,-0.00202
2256.61,-0.00193
2252.75,-0.00175
2248.89,-0.00181
2245.04,-0.00159
2241.18,-0.00191
2237.32,-0.00196
2233.46,-0.00194
2229.61,-0.00200
2225.75,-0.00213
2221.89,-0.00189
2218.04,-0.00169
2214.18,-0.00215
2210.32,-0.00241
2206.46,-0.00215
2202.61,-0.00229
2198.75,-0.00253
2194.89,-0.00261
2191.03,-0.00268
2187.18,-0.00266
2183.32,-0.00292
2179.46,-0.00318
2175.6,-0.00272
2171.75,-0.00281
2167.89,-0.00351
2164.03,-0.00343
2160.17,-0.00299
2156.32,-0.00208
2152.46,-0.00178
2148.6,-0.00181
2144.74,-0.00166
2140.89,-0.00179
2137.03,-0.00158
2133.17,-0.00146
2129.31,-0.00164
2125.46,-0.00178
2121.6,-0.00215
2117.74,-0.00227
2113.88,-0.00224
2110.03,-0.00247
2106.17,-0.00215
2102.31,-0.00208
2098.45,-0.00203
2094.6,-0.00179
2090.74,-0.00135
2086.88,-0.00152
2083.02,-0.00164
2079.17,-0.00162
2075.31,-0.00169
2071.45,-0.00167
2067.59,-0.00112
2063.74,-0.00090
2059.88,-0.00139
2056.02,-0.00151
2052.16,-0.00175
2048.31,-0.00200
2044.45,-0.00132
2040.59,-0.00125
2036.73,-0.00170
2032.88,-0.00151
2029.02,-0.00117
2025.16,-0.00087
2021.31,-0.00092
2017.45,-0.00041
2013.59,-0.00059
2009.73,-0.00073
2005.88,-0.00077
2002.02,-0.00082
1998.16,-0.00110
1994.3,-0.00058
1990.45,-0.00007
1986.59,-0.00068
1982.73,-0.00110
1978.87,-0.00085
1975.02,-0.00110
1971.16,-0.00067
1967.3,0.00026
1963.44,-0.00082
1959.59,-0.00046
1955.73,0.00005
1951.87,-0.00029
1948.01,-0.00026
1944.16,0.00082
1940.3,0.00027
1936.44,-0.00040
1932.58,-0.00044
1928.73,-0.00056
1924.87,0.00053
1921.01,0.00110
1917.15,0.00051
1913.3,-0.00011
1909.44,0.00074
1905.58,-0.00007
1901.72,-0.00031
1897.87,0.00006
1894.01,0.00035
1890.15,0.00057
1886.29,0.00025
1882.44,-0.00027
1878.58,-0.00039
1874.72,-0.00022
1870.86,0.00194
1867.01,0.00242
1863.15,0.00031
1859.29,0.00030
1855.43,-0.00010
1851.58,0.00003
1847.72,0.00202
1843.86,0.00315
1840,0.00085
1836.15,0.00072
1832.29,0.00106
1828.43,0.00207
1824.57,0.00162
1820.72,0.00037
1816.86,0.00038
1813,0.00105
1809.15,0.00152
1805.29,0.00100
1801.43,0.00271
1797.57,0.00277
1793.72,0.00395
1789.86,0.00226
1786,0.00110
1782.14,0.00186
1778.29,0.00197
1774.43,0.00306
1770.57,0.00390
1766.71,0.00174
1762.86,0.00187
1759,0.00254
1755.14,0.00210
1751.28,0.00490
1747.43,0.00654
1743.57,0.00443
1739.71,0.00347
1735.85,0.00421
1732,0.00503
1728.14,0.00145
1724.28,0.00118
1720.42,0.00261
1716.57,0.00793
1712.71,0.00352
1708.85,0.00258
1704.99,0.00514
1701.14,0.00629
1697.28,0.00734
1693.42,0.00247
1689.56,0.00327
1685.71,0.00510
1681.85,0.00507
1677.99,0.00260
1674.13,0.00295
1670.28,0.00375
1666.42,0.00090
1662.56,0.00123
1658.7,0.00064
1654.85,0.00288
1650.99,0.00389
1647.13,0.00466
1643.27,0.00121
1639.42,0.00149
1635.56,0.00267
1631.7,-0.00013
1627.84,0.00047
1623.99,0.00172
1620.13,0.00123
1616.27,0.00130
1612.42,-0.00016
1608.56,0.00032
1604.7,-0.00008
1600.84,-0.00048
1596.99,-0.00064
1593.13,-0.00035
1589.27,-0.00079
1585.41,-0.00116
1581.56,-0.00070
1577.7,0.00136
1573.84,0.00133
1569.98,0.00161
1566.13,0.00164
1562.27,0.00245
1558.41,0.00695
1554.55,0.00531
1550.7,0.00364
1546.84,0.00395
1542.98,0.01103
1539.12,0.00671
1535.27,0.00548
1531.41,0.00440
1527.55,0.00599
1523.69,0.00916
1519.84,0.00828
1515.98,0.00701
1512.12,0.00670
1508.26,0.01112
1504.41,0.00426
1500.55,0.00412
1496.69,0.00445
1492.83,0.00282
1488.98,0.00606
1485.12,0.00188
1481.26,0.00108
1477.4,0.00222
1473.55,0.00588
1469.69,0.00171
1465.83,0.00172
1461.97,0.00172
1458.12,0.00586
1454.26,0.00377
1450.4,0.00177
1446.54,0.00138
1442.69,0.00007
1438.83,0.00143
1434.97,0.00304
1431.11,0.00208
1427.26,0.00131
1423.4,0.00182
1419.54,0.00350
1415.69,0.00174
1411.83,0.00073
1407.97,0.00047
1404.11,0.00093
1400.26,0.00172
1396.4,0.00393
1392.54,0.00139
1388.68,0.00161
1384.83,0.00083
1380.97,0.00031
1377.11,0.00137
1373.25,0.00188
1369.4,0.00058
1365.54,0.00070
1361.68,0.00207
1357.82,0.00029
1353.97,-0.00003
1350.11,-0.00026
1346.25,-0.00037
1342.39,0.00095
1338.54,0.00335
1334.68,0.00024
1330.82,-0.00034
1326.96,-0.00040
1323.11,0.00013
1319.25,0.00150
1315.39,0.00141
1311.53,0.00067
1307.68,-0.00005
1303.82,-0.00041
1299.96,-0.00038
1296.1,-0.00019
1292.25,-0.00013
1288.39,0.00042
1284.53,-0.00008
1280.67,-0.00017
1276.82,-0.00023
1272.96,0.00021
1269.1,0.00057
1265.24,0.00067
1261.39,0.00099
1257.53,0.00049
1253.67,-0.00017
1249.81,-0.00043
1245.96,-0.00042
1242.1,-0.00044
1238.24,-0.00050
1234.38,-0.00047
1230.53,-0.00035
1226.67,-0.00016
1222.81,-0.00019
1218.95,-0.00030
1215.1,-0.00030
1211.24,-0.00025
1207.38,-0.00031
1203.53,-0.00029
1199.67,-0.00029
1195.81,-0.00025
1191.95,-0.00024
1188.1,-0.00019
1184.24,-0.00020
1180.38,-0.00021
1176.52,-0.00007
1172.67,-0.00014
1168.81,-0.00026
1164.95,-0.00018
1161.09,-0.00016
1157.24,-0.00012
1153.38,-0.00030
1149.52,-0.00049
1145.66,-0.00041
1141.81,-0.00031
1137.95,-0.00030
1134.09,-0.00027
1130.23,-0.00039
1126.38,-0.00041
1122.52,-0.00033
1118.66,-0.00038
1114.8,-0.00009
1110.95,0.00003
1107.09,0.00014
1103.23,0.00023
1099.37,0.00035
1095.52,0.00051
1091.66,0.00044
1087.8,0.00037
1083.94,0.00032
1080.09,0.00031
1076.23,0.00037
1072.37,0.00027
1068.51,0.00025
1064.66,0.00014
1060.8,0.00008
1056.94,0.00025
1053.08,0.00026
1049.23,0.00035
1045.37,0.00030
1041.51,0.00029
1037.65,0.00024
1033.8,0.00047
1029.94,0.00048
1026.08,0.00053
1022.22,0.00078
1018.37,0.00082
1014.51,0.00069
1010.65,0.00038
1006.8,0.00044
1002.94,0.00025
999.08,-0.00006
995.223,0.00008
991.365,0.00017
987.508,-0.00015
983.65,-0.00008
979.793,-0.00011
975.935,-0.00047
972.078,-0.00021
968.221,-0.00026
964.363,-0.00048
960.506,-0.00030
956.648,-0.00039
952.791,-0.00034
948.933,-0.00049
945.076,-0.00041
941.218,-0.00019
937.361,-0.00025
933.503,-0.00027
929.646,-0.00014
925.789,-0.00014
921.931,-0.00034
918.074,-0.00062
914.216,-0.00040
910.359,-0.00042
906.501,-0.00014
902.644,-0.00010
898.786,0.00001
894.929,-0.00022
891.072,-0.00002
887.214,-0.00016
883.357,-0.00026
879.499,-0.00029
875.642,-0.00023
871.784,-0.00050
867.927,-0.00036
864.069,-0.00010
860.212,0.00055
856.354,0.00030
852.497,0.00029
848.64,0.00023
844.782,0.00011
840.925,0.00037
837.067,0.00009
833.21,0.00014
829.352,0.00032
825.495,0.00074
821.637,0.00079
817.78,0.00075
813.922,0.00050
810.065,0.00098
806.208,0.00118
802.35,0.00113
798.493,0.00126
794.635,0.00124
790.778,0.00072
786.92,-0.00002
783.063,-0.00020
779.205,0.00013
775.348,0.00084
771.49,0.00062
767.633,0.00061
763.776,0.00093
759.918,0.00024
756.061,-0.00043
752.203,-0.00017
748.346,-0.00022
744.488,0.00019
740.631,0.00064
736.773,0.00020
732.916,-0.00025
729.058,-0.00026
725.201,-0.00022
721.344,0.00010
717.486,0.00016
713.629,0.00031
709.771,0.00011
705.914,0.00040
702.056,0.00032
698.199,0.00029
694.341,0.00022
690.484,0.00024
686.627,-0.00026
682.769,-0.00048
678.912,-0.00048
675.054,-0.00062
671.197,-0.00059
667.339,-0.00085
663.482,-0.00014
659.624,-0.00002
655.767,-0.00070
651.909,-0.00048
648.052,-0.00046
644.195,-0.00024
640.337,0.00049
636.48,0.00077
632.622,0.00040
628.765,-0.00076
624.907,-0.00045
621.05,-0.00176
617.192,-0.00343
613.335,-0.00208
609.477,-0.00404
605.62,-0.00347
601.763,-0.00077
599.834,0.00133