File: 01_Data/OSB/FTIR/ATR/OSB_ATR_210608_R2.tst
4497.79,-0.00825
4493.93,-0.00843
4490.07,-0.00842
4486.22,-0.00798
4482.36,-0.00800
4478.5,-0.00777
4474.64,-0.00808
4470.79,-0.00813
4466.93,-0.00811
4463.07,-0.00800
4459.21,-0.00806
4455.36,-0.00799
4451.5,-0.00767
4447.64,-0.00801
4443.79,-0.00791
4439.93,-0.00764
4436.07,-0.00787
4432.21,-0.00811
4428.36,-0.00795
4424.5,-0.00764
4420.64,-0.00784
4416.78,-0.00780
4412.93,-0.00760
4409.07,-0.00766
4405.21,-0.00779
4401.35,-0.00774
4397.5,-0.00765
4393.64,-0.00758
4389.78,-0.00747
4385.92,-0.00762
4382.07,-0.00744
4378.21,-0.00739
4374.35,-0.00772
4370.49,-0.00785
4366.64,-0.00770
4362.78,-0.00752
4358.92,-0.00759
4355.06,-0.00774
4351.21,-0.00766
4347.35,-0.00753
4343.49,-0.00749
4339.63,-0.00740
4335.78,-0.00751
4331.92,-0.00742
4328.06,-0.00749
4324.2,-0.00746
4320.35,-0.00732
4316.49,-0.00738
4312.63,-0.00765
4308.77,-0.00739
4304.92,-0.00726
4301.06,-0.00757
4297.2,-0.00752
4293.34,-0.00730
4289.49,-0.00717
4285.63,-0.00742
4281.77,-0.00740
4277.91,-0.00735
4274.06,-0.00742
4270.2,-0.00732
4266.34,-0.00739
4262.48,-0.00737
4258.63,-0.00732
4254.77,-0.00713
4250.91,-0.00731
4247.06,-0.00751
4243.2,-0.00726
4239.34,-0.00715
4235.48,-0.00745
4231.63,-0.00730
4227.77,-0.00726
4223.91,-0.00704
4220.05,-0.00703
4216.2,-0.00736
4212.34,-0.00715
4208.48,-0.00719
4204.62,-0.00702
4200.77,-0.00697
4196.91,-0.00717
4193.05,-0.00710
4189.19,-0.00712
4185.34,-0.00720
4181.48,-0.00721
4177.62,-0.00706
4173.76,-0.00686
4169.91,-0.00697
4166.05,-0.00682
4162.19,-0.00688
4158.33,-0.00702
4154.48,-0.00698
4150.62,-0.00697
4146.76,-0.00699
4142.9,-0.00676
4139.05,-0.00669
4135.19,-0.00669
4131.33,-0.00697
4127.47,-0.00695
4123.62,-0.00685
4119.76,-0.00687
4115.9,-0.00678
4112.04,-0.00686
4108.19,-0.00655
4104.33,-0.00637
4100.47,-0.00689
4096.61,-0.00688
4092.76,-0.00683
4088.9,-0.00651
4085.04,-0.00643
4081.18,-0.00648
4077.33,-0.00657
4073.47,-0.00650
4069.61,-0.00657
4065.75,-0.00657
4061.9,-0.00655
4058.04,-0.00663
4054.18,-0.00672
4050.33,-0.00676
4046.47,-0.00632
4042.61,-0.00625
4038.75,-0.00660
4034.9,-0.00652
4031.04,-0.00628
4027.18,-0.00610
4023.32,-0.00613
4019.47,-0.00619
4015.61,-0.00620
4011.75,-0.00623
4007.89,-0.00602
4004.04,-0.00639
4000.18,-0.00651
3996.32,-0.00611
3992.46,-0.00570
3988.61,-0.00593
3984.75,-0.00600
3980.89,-0.00584
3977.03,-0.00532
3973.18,-0.00506
3969.32,-0.00565
3965.46,-0.00582
3961.6,-0.00489
3957.75,-0.00504
3953.89,-0.00530
3950.03,-0.00395
3946.17,-0.00408
3942.32,-0.00426
3938.46,-0.00536
3934.6,-0.00421
3930.74,-0.00320
3926.89,-0.00402
3923.03,-0.00345
3919.17,-0.00337
3915.31,-0.00453
3911.46,-0.00580
3907.6,-0.00410
3903.74,0.00041
3899.88,-0.00099
3896.03,-0.00337
3892.17,-0.00222
3888.31,-0.00333
3884.45,-0.00155
3880.6,-0.00260
3876.74,-0.00391
3872.88,-0.00136
3869.02,-0.00096
3865.17,-0.00014
3861.31,-0.00207
3857.45,-0.00187
3853.59,0.00121
3849.74,-0.00245
3845.88,-0.00326
3842.02,-0.00055
3838.17,0.00106
3834.31,-0.00192
3830.45,-0.00297
3826.59,-0.00215
3822.74,-0.00092
3818.88,-0.00066
3815.02,-0.00328
3811.16,-0.00455
3807.31,-0.00292
3803.45,-0.00149
3799.59,-0.00121
3795.73,-0.00369
3791.88,-0.00519
3788.02,-0.00431
3784.16,-0.00368
3780.3,-0.00374
3776.45,-0.00473
3772.59,-0.00420
3768.73,-0.00237
3764.87,-0.00292
3761.02,-0.00228
3757.16,-0.00090
3753.3,0.00164
3749.44,0.00468
3745.59,0.00247
3741.73,0.00046
3737.87,0.00174
3734.01,0.00161
3730.16,-0.00177
3726.3,-0.00020
3722.44,-0.00077
3718.58,-0.00295
3714.73,-0.00222
3710.87,-0.00057
3707.01,-0.00334
3703.15,-0.00335
3699.3,-0.00399
3695.44,-0.00333
3691.58,-0.00053
3687.72,-0.00153
3683.87,-0.00390
3680.01,-0.00233
3676.15,0.00051
3672.29,0.00017
3668.44,-0.00186
3664.58,-0.00435
3660.72,-0.00419
3656.86,-0.00283
3653.01,-0.00166
3649.15,0.00336
3645.29,-0.00191
3641.44,-0.00344
3637.58,-0.00411
3633.72,-0.00274
3629.86,-0.00005
3626.01,-0.00247
3622.15,-0.00252
3618.29,0.00027
3614.43,-0.00011
3610.58,-0.00083
3606.72,-0.00283
3602.86,-0.00301
3599,-0.00162
3595.15,-0.00234
3591.29,-0.00291
3587.43,-0.00032
3583.57,-0.00328
3579.72,-0.00394
3575.86,-0.00422
3572,-0.00382
3568.14,0.00019
3564.29,-0.00134
3560.43,-0.00362
3556.57,-0.00451
3552.71,-0.00365
3548.86,-0.00324
3545,-0.00185
3541.14,-0.00493
3537.28,-0.00484
3533.43,-0.00490
3529.57,-0.00318
3525.71,-0.00213
3521.85,-0.00370
3518,-0.00522
3514.14,-0.00553
3510.28,-0.00444
3506.42,-0.00454
3502.57,-0.00327
3498.71,-0.00500
3494.85,-0.00534
3490.99,-0.00558
3487.14,-0.00514
3483.28,-0.00480
3479.42,-0.00532
3475.56,-0.00574
3471.71,-0.00601
3467.85,-0.00580
3463.99,-0.00559
3460.13,-0.00560
3456.28,-0.00608
3452.42,-0.00619
3448.56,-0.00510
3444.7,-0.00515
3440.85,-0.00584
3436.99,-0.00634
3433.13,-0.00617
3429.28,-0.00611
3425.42,-0.00603
3421.56,-0.00528
3417.7,-0.00604
3413.85,-0.00631
3409.99,-0.00639
3406.13,-0.00647
3402.27,-0.00623
3398.42,-0.00597
3394.56,-0.00574
3390.7,-0.00607
3386.84,-0.00623
3382.99,-0.00611
3379.13,-0.00627
3375.27,-0.00643
3371.41,-0.00634
3367.56,-0.00590
3363.7,-0.00593
3359.84,-0.00594
3355.98,-0.00596
3352.13,-0.00637
3348.27,-0.00642
3344.41,-0.00613
3340.55,-0.00604
3336.7,-0.00578
3332.84,-0.00608
3328.98,-0.00605
3325.12,-0.00614
3321.27,-0.00627
3317.41,-0.00616
3313.55,-0.00598
3309.69,-0.00577
3305.84,-0.00597
3301.98,-0.00604
3298.12,-0.00589
3294.26,-0.00594
3290.41,-0.00576
3286.55,-0.00580
3282.69,-0.00572
3278.83,-0.00575
3274.98,-0.00553
3271.12,-0.00573
3267.26,-0.00579
3263.4,-0.00570
3259.55,-0.00572
3255.69,-0.00544
3251.83,-0.00568
3247.97,-0.00557
3244.12,-0.00542
3240.26,-0.00552
3236.4,-0.00543
3232.55,-0.00534
3228.69,-0.00525
3224.83,-0.00558
3220.97,-0.00531
3217.12,-0.00515
3213.26,-0.00528
3209.4,-0.00533
3205.54,-0.00528
3201.69,-0.00513
3197.83,-0.00494
3193.97,-0.00517
3190.11,-0.00522
3186.26,-0.00501
3182.4,-0.00501
3178.54,-0.00488
3174.68,-0.00502
3170.83,-0.00504
3166.97,-0.00502
3163.11,-0.00507
3159.25,-0.00507
3155.4,-0.00491
3151.54,-0.00489
3147.68,-0.00486
3143.82,-0.00490
3139.97,-0.00489
3136.11,-0.00481
3132.25,-0.00479
3128.39,-0.00463
3124.54,-0.00445
3120.68,-0.00430
3116.82,-0.00434
3112.96,-0.00450
3109.11,-0.00445
3105.25,-0.00451
3101.39,-0.00428
3097.53,-0.00427
3093.68,-0.00441
3089.82,-0.00453
3085.96,-0.00447
3082.1,-0.00414
3078.25,-0.00420
3074.39,-0.00436
3070.53,-0.00436
3066.67,-0.00410
3062.82,-0.00415
3058.96,-0.00417
3055.1,-0.00409
3051.24,-0.00415
3047.39,-0.00411
3043.53,-0.00429
3039.67,-0.00430
3035.82,-0.00402
3031.96,-0.00372
3028.1,-0.00399
3024.24,-0.00413
3020.39,-0.00424
3016.53,-0.00431
3012.67,-0.00394
3008.81,-0.00399
3004.96,-0.00401
3001.1,-0.00412
2997.24,-0.00410
2993.38,-0.00405
2989.53,-0.00407
2985.67,-0.00411
2981.81,-0.00409
2977.95,-0.00402
2974.1,-0.00393
2970.24,-0.00388
2966.38,-0.00381
2962.52,-0.00373
2958.67,-0.00382
2954.81,-0.00374
2950.95,-0.00377
2947.09,-0.00379
2943.24,-0.00378
2939.38,-0.00373
2935.52,-0.00363
2931.66,-0.00343
2927.81,-0.00332
2923.95,-0.00323
2920.09,-0.00327
2916.23,-0.00341
2912.38,-0.00349
2908.52,-0.00365
2904.66,-0.00368
2900.8,-0.00363
2896.95,-0.00368
2893.09,-0.00369
2889.23,-0.00367
2885.37,-0.00380
2881.52,-0.00385
2877.66,-0.00381
2873.8,-0.00378
2869.94,-0.00366
2866.09,-0.00359
2862.23,-0.00356
2858.37,-0.00336
2854.51,-0.00319
2850.66,-0.00327
2846.8,-0.00338
2842.94,-0.00345
2839.08,-0.00351
2835.23,-0.00347
2831.37,-0.00349
2827.51,-0.00351
2823.66,-0.00356
2819.8,-0.00355
2815.94,-0.00348
2812.08,-0.00344
2808.23,-0.00349
2804.37,-0.00349
2800.51,-0.00342
2796.65,-0.00340
2792.8,-0.00337
2788.94,-0.00341
2785.08,-0.00336
2781.22,-0.00335
2777.37,-0.00330
2773.51,-0.00324
2769.65,-0.00331
2765.79,-0.00335
2761.94,-0.00332
2758.08,-0.00324
2754.22,-0.00328
2750.36,-0.00325
2746.51,-0.00318
2742.65,-0.00320
2738.79,-0.00327
2734.93,-0.00324
2731.08,-0.00323
2727.22,-0.00318
2723.36,-0.00314
2719.5,-0.00309
2715.65,-0.00311
2711.79,-0.00310
2707.93,-0.00311
2704.07,-0.00312
2700.22,-0.00308
2696.36,-0.00307
2692.5,-0.00308
2688.64,-0.00299
2684.79,-0.00303
2680.93,-0.00307
2677.07,-0.00302
2673.21,-0.00307
2669.36,-0.00303
2665.5,-0.00296
2661.64,-0.00299
2657.78,-0.00308
2653.93,-0.00306
2650.07,-0.00304
2646.21,-0.00316
2642.35,-0.00314
2638.5,-0.00309
2634.64,-0.00315
2630.78,-0.00313
2626.93,-0.00300
2623.07,-0.00306
2619.21,-0.00316
2615.35,-0.00312
2611.5,-0.00308
2607.64,-0.00311
2603.78,-0.00305
2599.92,-0.00301
2596.07,-0.00293
2592.21,-0.00283
2588.35,-0.00291
2584.49,-0.00283
2580.64,-0.00282
2576.78,-0.00285
2572.92,-0.00278
2569.06,-0.00283
2565.21,-0.00292
2561.35,-0.00298
2557.49,-0.00290
2553.63,-0.00289
2549.78,-0.00299
2545.92,-0.00288
2542.06,-0.00274
2538.2,-0.00268
2534.35,-0.00268
2530.49,-0.00270
2526.63,-0.00275
2522.77,-0.00277
2518.92,-0.00276
2515.06,-0.00270
2511.2,-0.00267
2507.34,-0.00265
2503.49,-0.00264
2499.63,-0.00268
2495.77,-0.00267
2491.91,-0.00257
2488.06,-0.00248
2484.2,-0.00261
2480.34,-0.00265
2476.48,-0.00264
2472.63,-0.00250
2468.77,-0.00243
2464.91,-0.00248
2461.05,-0.00261
2457.2,-0.00266
2453.34,-0.00273
2449.48,-0.00265
2445.62,-0.00267
2441.77,-0.00255
2437.91,-0.00247
2434.05,-0.00233
2430.2,-0.00232
2426.34,-0.00245
2422.48,-0.00238
2418.62,-0.00236
2414.77,-0.00245
2410.91,-0.00245
2407.05,-0.00229
2403.19,-0.00224
2399.34,-0.00223
2395.48,-0.00232
2391.62,-0.00227
2387.76,-0.00209
2383.91,-0.00164
2380.05,-0.00161
2376.19,-0.00254
2372.33,-0.00404
2368.48,-0.00679
2364.62,-0.00921
2360.76,-0.00939
2356.9,-0.00829
2353.05,-0.00579
2349.19,-0.00382
2345.33,-0.00556
2341.47,-0.00774
2337.62,-0.00765
2333.76,-0.00683
2329.9,-0.00579
2326.04,-0.00529
2322.19,-0.00390
2318.33,-0.00280
2314.47,-0.00231
2310.61,-0.00153
2306.76,-0.00147
2302.9,-0.00184
2299.04,-0.00200
2295.18,-0.00211
2291.33,-0.00224
2287.47,-0.00243
2283.61,-0.00250
2279.75,-0.00259
2275.9,-0.00260
2272.04,-0.00278
2268.18,-0.00277
2264.32,-0.00274
2260.47,-0.00268
2256.61,-0.00253
2252.75,-0.00230
2248.89,-0.00208
2245.04,-0.00208
2241.18,-0.00219
2237.32,-0.00249
2233.46,-0.00232
2229.61,-0.00229
2225.75,-0.00249
2221.89,-0.00281
2218.04,-0.00258
2214.18,-0.00283
2210.32,-0.00303
2206.46,-0.00280
2202.61,-0.00255
2198.75,-0.00284
2194.89,-0.00324
2191.03,-0.00330
2187.18,-0.00322
2183.32,-0.00343
2179.46,-0.00336
2175.6,-0.00329
2171.75,-0.00384
2167.89,-0.00393
2164.03,-0.00422
2160.17,-0.00391
2156.32,-0.00280
2152.46,-0.00216
2148.6,-0.00198
2144.74,-0.00220
2140.89,-0.00220
2137.03,-0.00197
2133.17,-0.00201
2129.31,-0.00226
2125.46,-0.00247
2121.6,-0.00258
2117.74,-0.00253
2113.88,-0.00260
2110.03,-0.00283
2106.17,-0.00282
2102.31,-0.00264
2098.45,-0.00246
2094.6,-0.00237
2090.74,-0.00203
2086.88,-0.00204
2083.02,-0.00214
2079.17,-0.00219
2075.31,-0.00228
2071.45,-0.00234
2067.59,-0.00184
2063.74,-0.00140
2059.88,-0.00198
2056.02,-0.00209
2052.16,-0.00227
2048.31,-0.00220
2044.45,-0.00188
2040.59,-0.00177
2036.73,-0.00223
2032.88,-0.00237
2029.02,-0.00174
2025.16,-0.00152
2021.31,-0.00162
2017.45,-0.00076
2013.59,-0.00152
2009.73,-0.00168
2005.88,-0.00143
2002.02,-0.00145
1998.16,-0.00176
1994.3,-0.00119
1990.45,-0.00048
1986.59,-0.00125
1982.73,-0.00134
1978.87,-0.00186
1975.02,-0.00186
1971.16,-0.00139
1967.3,-0.00010
1963.44,-0.00120
1959.59,-0.00117
1955.73,-0.00080
1951.87,-0.00092
1948.01,-0.00056
1944.16,0.00061
1940.3,-0.00037
1936.44,-0.00100
1932.58,-0.00099
1928.73,-0.00124
1924.87,0.00003
1921.01,0.00053
1917.15,-0.00021
1913.3,-0.00069
1909.44,0.00027
1905.58,-0.00054
1901.72,-0.00089
1897.87,-0.00050
1894.01,-0.00020
1890.15,0.00014
1886.29,-0.00041
1882.44,-0.00080
1878.58,-0.00098
1874.72,-0.00074
1870.86,0.00135
1867.01,0.00178
1863.15,-0.00018
1859.29,-0.00028
1855.43,-0.00069
1851.58,-0.00050
1847.72,0.00150
1843.86,0.00263
1840,0.00041
1836.15,0.00024
1832.29,0.00055
1828.43,0.00149
1824.57,0.00106
1820.72,-0.00010
1816.86,-0.00015
1813,0.00064
1809.15,0.00102
1805.29,0.00043
1801.43,0.00214
1797.57,0.00223
1793.72,0.00328
1789.86,0.00168
1786,0.00065
1782.14,0.00133
1778.29,0.00134
1774.43,0.00241
1770.57,0.00328
1766.71,0.00120
1762.86,0.00143
1759,0.00200
1755.14,0.00162
1751.28,0.00426
1747.43,0.00588
1743.57,0.00377
1739.71,0.00280
1735.85,0.00371
1732,0.00440
1728.14,0.00080
1724.28,0.00063
1720.42,0.00207
1716.57,0.00706
1712.71,0.00279
1708.85,0.00197
1704.99,0.00455
1701.14,0.00570
1697.28,0.00646
1693.42,0.00173
1689.56,0.00271
1685.71,0.00452
1681.85,0.00436
1677.99,0.00214
1674.13,0.00243
1670.28,0.00306
1666.42,0.00039
1662.56,0.00075
1658.7,0.00011
1654.85,0.00253
1650.99,0.00319
1647.13,0.00387
1643.27,0.00060
1639.42,0.00100
1635.56,0.00209
1631.7,-0.00064
1627.84,-0.00007
1623.99,0.00108
1620.13,0.00064
1616.27,0.00075
1612.42,-0.00070
1608.56,-0.00029
1604.7,-0.00065
1600.84,-0.00104
1596.99,-0.00118
1593.13,-0.00095
1589.27,-0.00135
1585.41,-0.00168
1581.56,-0.00118
1577.7,0.00093
1573.84,0.00073
1569.98,0.00101
1566.13,0.00095
1562.27,0.00184
1558.41,0.00593
1554.55,0.00453
1550.7,0.00294
1546.84,0.00353
1542.98,0.01062
1539.12,0.00593
1535.27,0.00480
1531.41,0.00366
1527.55,0.00532
1523.69,0.00853
1519.84,0.00760
1515.98,0.00620
1512.12,0.00595
1508.26,0.01032
1504.41,0.00349
1500.55,0.00349
1496.69,0.00362
1492.83,0.00211
1488.98,0.00525
1485.12,0.00120
1481.26,0.00046
1477.4,0.00159
1473.55,0.00509
1469.69,0.00110
1465.83,0.00107
1461.97,0.00101
1458.12,0.00523
1454.26,0.00300
1450.4,0.00108
1446.54,0.00071
1442.69,-0.00045
1438.83,0.00085
1434.97,0.00226
1431.11,0.00138
1427.26,0.00063
1423.4,0.00115
1419.54,0.00286
1415.69,0.00108
1411.83,0.00016
1407.97,-0.00009
1404.11,0.00034
1400.26,0.00109
1396.4,0.00328
1392.54,0.00074
1388.68,0.00103
1384.83,0.00017
1380.97,-0.00037
1377.11,0.00075
1373.25,0.00130
1369.4,-0.00000
1365.54,0.00015
1361.68,0.00141
1357.82,-0.00043
1353.97,-0.00069
1350.11,-0.00090
1346.25,-0.00106
1342.39,0.00021
1338.54,0.00269
1334.68,-0.00045
1330.82,-0.00104
1326.96,-0.00113
1323.11,-0.00059
1319.25,0.00079
1315.39,0.00071
1311.53,0.00002
1307.68,-0.00077
1303.82,-0.00110
1299.96,-0.00109
1296.1,-0.00086
1292.25,-0.00078
1288.39,-0.00028
1284.53,-0.00083
1280.67,-0.00093
1276.82,-0.00101
1272.96,-0.00058
1269.1,-0.00012
1265.24,-0.00009
1261.39,0.00024
1257.53,-0.00021
1253.67,-0.00088
1249.81,-0.00126
1245.96,-0.00122
1242.1,-0.00118
1238.24,-0.00119
1234.38,-0.00119
1230.53,-0.00109
1226.67,-0.00093
1222.81,-0.00098
1218.95,-0.00107
1215.1,-0.00107
1211.24,-0.00100
1207.38,-0.00114
1203.53,-0.00112
1199.67,-0.00103
1195.81,-0.00110
1191.95,-0.00105
1188.1,-0.00087
1184.24,-0.00081
1180.38,-0.00086
1176.52,-0.00084
1172.67,-0.00085
1168.81,-0.00095
1164.95,-0.00092
1161.09,-0.00089
1157.24,-0.00089
1153.38,-0.00107
1149.52,-0.00121
1145.66,-0.00113
1141.81,-0.00109
1137.95,-0.00107
1134.09,-0.00109
1130.23,-0.00119
1126.38,-0.00119
1122.52,-0.00106
1118.66,-0.00101
1114.8,-0.00076
1110.95,-0.00065
1107.09,-0.00057
1103.23,-0.00049
1099.37,-0.00029
1095.52,-0.00024
1091.66,-0.00024
1087.8,-0.00031
1083.94,-0.00042
1080.09,-0.00043
1076.23,-0.00039
1072.37,-0.00044
1068.51,-0.00049
1064.66,-0.00054
1060.8,-0.00067
1056.94,-0.00057
1053.08,-0.00057
1049.23,-0.00047
1045.37,-0.00050
1041.51,-0.00061
1037.65,-0.00066
1033.8,-0.00046
1029.94,-0.00025
1026.08,-0.00031
1022.22,-0.00007
1018.37,0.00001
1014.51,-0.00008
1010.65,-0.00032
1006.8,-0.00041
1002.94,-0.00059
999.08,-0.00078
995.223,-0.00082
991.365,-0.00077
987.508,-0.00101
983.65,-0.00076
979.793,-0.00070
975.935,-0.00109
972.078,-0.00104
968.221,-0.00093
964.363,-0.00088
960.506,-0.00097
956.648,-0.00115
952.791,-0.00122
948.933,-0.00134
945.076,-0.00102
941.218,-0.00080
937.361,-0.00092
933.503,-0.00084
929.646,-0.00084
925.789,-0.00096
921.931,-0.00107
918.074,-0.00116
914.216,-0.00116
910.359,-0.00106
906.501,-0.00125
902.644,-0.00123
898.786,-0.00103
894.929,-0.00104
891.072,-0.00112
887.214,-0.00136
883.357,-0.00106
879.499,-0.00087
875.642,-0.00077
871.784,-0.00101
867.927,-0.00090
864.069,-0.00088
860.212,-0.00029
856.354,-0.00024
852.497,-0.00068
848.64,-0.00057
844.782,-0.00052
840.925,-0.00055
837.067,-0.00072
833.21,-0.00067
829.352,-0.00043
825.495,-0.00037
821.637,-0.00010
817.78,0.00027
813.922,-0.00007
810.065,0.00047
806.208,0.00037
802.35,0.00051
798.493,0.00052
794.635,0.00030
790.778,0.00001
786.92,-0.00070
783.063,-0.00101
779.205,-0.00121
775.348,-0.00016
771.49,0.00029
767.633,-0.00083
763.776,-0.00101
759.918,-0.00090
756.061,-0.00065
752.203,-0.00066
748.346,-0.00128
744.488,-0.00108
740.631,-0.00050
736.773,-0.00118
732.916,-0.00123
729.058,-0.00129
725.201,-0.00101
721.344,-0.00065
717.486,-0.00078
713.629,-0.00067
709.771,-0.00073
705.914,-0.00057
702.056,-0.00048
698.199,-0.00042
694.341,-0.00049
690.484,-0.00062
686.627,-0.00098
682.769,-0.00121
678.912,-0.00158
675.054,-0.00147
671.197,-0.00168
667.339,-0.00193
663.482,-0.00090
659.624,-0.00046
655.767,-0.00102
651.909,-0.00092
648.052,-0.00105
644.195,-0.00083
640.337,-0.00026
636.48,0.00004
632.622,-0.00032
628.765,-0.00182
624.907,-0.00381
621.05,-0.00524
617.192,-0.00245
613.335,-0.00072
609.477,-0.00502
605.62,-0.00279
601.763,-0.00126
599.834,0.00012