File: 01_Data/OSB/FTIR/ATR/OSB_ATR_210608_R3.tst
4497.79,-0.00766
4493.93,-0.00795
4490.07,-0.00787
4486.22,-0.00782
4482.36,-0.00785
4478.5,-0.00765
4474.64,-0.00782
4470.79,-0.00796
4466.93,-0.00781
4463.07,-0.00758
4459.21,-0.00790
4455.36,-0.00768
4451.5,-0.00749
4447.64,-0.00786
4443.79,-0.00777
4439.93,-0.00764
4436.07,-0.00756
4432.21,-0.00794
4428.36,-0.00774
4424.5,-0.00773
4420.64,-0.00782
4416.78,-0.00747
4412.93,-0.00752
4409.07,-0.00742
4405.21,-0.00722
4401.35,-0.00734
4397.5,-0.00737
4393.64,-0.00756
4389.78,-0.00741
4385.92,-0.00754
4382.07,-0.00750
4378.21,-0.00740
4374.35,-0.00741
4370.49,-0.00759
4366.64,-0.00741
4362.78,-0.00730
4358.92,-0.00717
4355.06,-0.00741
4351.21,-0.00736
4347.35,-0.00726
4343.49,-0.00749
4339.63,-0.00721
4335.78,-0.00706
4331.92,-0.00727
4328.06,-0.00719
4324.2,-0.00715
4320.35,-0.00720
4316.49,-0.00701
4312.63,-0.00707
4308.77,-0.00720
4304.92,-0.00727
4301.06,-0.00737
4297.2,-0.00733
4293.34,-0.00715
4289.49,-0.00694
4285.63,-0.00710
4281.77,-0.00711
4277.91,-0.00712
4274.06,-0.00717
4270.2,-0.00704
4266.34,-0.00698
4262.48,-0.00701
4258.63,-0.00704
4254.77,-0.00711
4250.91,-0.00689
4247.06,-0.00711
4243.2,-0.00688
4239.34,-0.00691
4235.48,-0.00721
4231.63,-0.00713
4227.77,-0.00702
4223.91,-0.00699
4220.05,-0.00696
4216.2,-0.00709
4212.34,-0.00696
4208.48,-0.00693
4204.62,-0.00690
4200.77,-0.00673
4196.91,-0.00675
4193.05,-0.00657
4189.19,-0.00669
4185.34,-0.00689
4181.48,-0.00676
4177.62,-0.00677
4173.76,-0.00659
4169.91,-0.00674
4166.05,-0.00665
4162.19,-0.00664
4158.33,-0.00680
4154.48,-0.00668
4150.62,-0.00670
4146.76,-0.00663
4142.9,-0.00662
4139.05,-0.00661
4135.19,-0.00648
4131.33,-0.00650
4127.47,-0.00668
4123.62,-0.00664
4119.76,-0.00662
4115.9,-0.00660
4112.04,-0.00671
4108.19,-0.00655
4104.33,-0.00633
4100.47,-0.00656
4096.61,-0.00658
4092.76,-0.00660
4088.9,-0.00628
4085.04,-0.00623
4081.18,-0.00613
4077.33,-0.00624
4073.47,-0.00623
4069.61,-0.00623
4065.75,-0.00648
4061.9,-0.00623
4058.04,-0.00624
4054.18,-0.00636
4050.33,-0.00640
4046.47,-0.00604
4042.61,-0.00605
4038.75,-0.00637
4034.9,-0.00623
4031.04,-0.00629
4027.18,-0.00604
4023.32,-0.00580
4019.47,-0.00585
4015.61,-0.00592
4011.75,-0.00580
4007.89,-0.00556
4004.04,-0.00597
4000.18,-0.00602
3996.32,-0.00558
3992.46,-0.00535
3988.61,-0.00571
3984.75,-0.00574
3980.89,-0.00544
3977.03,-0.00505
3973.18,-0.00474
3969.32,-0.00528
3965.46,-0.00559
3961.6,-0.00460
3957.75,-0.00475
3953.89,-0.00478
3950.03,-0.00348
3946.17,-0.00371
3942.32,-0.00394
3938.46,-0.00512
3934.6,-0.00386
3930.74,-0.00282
3926.89,-0.00356
3923.03,-0.00303
3919.17,-0.00274
3915.31,-0.00401
3911.46,-0.00547
3907.6,-0.00384
3903.74,0.00100
3899.88,-0.00038
3896.03,-0.00307
3892.17,-0.00196
3888.31,-0.00315
3884.45,-0.00121
3880.6,-0.00227
3876.74,-0.00357
3872.88,-0.00101
3869.02,-0.00043
3865.17,-0.00026
3861.31,-0.00192
3857.45,-0.00146
3853.59,0.00233
3849.74,-0.00177
3845.88,-0.00273
3842.02,0.00040
3838.17,0.00243
3834.31,-0.00116
3830.45,-0.00252
3826.59,-0.00160
3822.74,-0.00016
3818.88,0.00017
3815.02,-0.00274
3811.16,-0.00426
3807.31,-0.00243
3803.45,-0.00072
3799.59,-0.00042
3795.73,-0.00314
3791.88,-0.00475
3788.02,-0.00410
3784.16,-0.00337
3780.3,-0.00330
3776.45,-0.00429
3772.59,-0.00349
3768.73,-0.00165
3764.87,-0.00243
3761.02,-0.00189
3757.16,-0.00057
3753.3,0.00177
3749.44,0.00516
3745.59,0.00305
3741.73,0.00100
3737.87,0.00248
3734.01,0.00297
3730.16,-0.00121
3726.3,0.00032
3722.44,-0.00032
3718.58,-0.00265
3714.73,-0.00173
3710.87,0.00043
3707.01,-0.00296
3703.15,-0.00300
3699.3,-0.00348
3695.44,-0.00302
3691.58,-0.00006
3687.72,-0.00081
3683.87,-0.00335
3680.01,-0.00168
3676.15,0.00143
3672.29,0.00111
3668.44,-0.00124
3664.58,-0.00401
3660.72,-0.00377
3656.86,-0.00214
3653.01,-0.00119
3649.15,0.00381
3645.29,-0.00133
3641.44,-0.00304
3637.58,-0.00351
3633.72,-0.00226
3629.86,0.00066
3626.01,-0.00197
3622.15,-0.00201
3618.29,0.00103
3614.43,0.00047
3610.58,0.00001
3606.72,-0.00185
3602.86,-0.00242
3599,-0.00113
3595.15,-0.00182
3591.29,-0.00252
3587.43,-0.00004
3583.57,-0.00288
3579.72,-0.00354
3575.86,-0.00378
3572,-0.00341
3568.14,0.00062
3564.29,-0.00063
3560.43,-0.00310
3556.57,-0.00392
3552.71,-0.00282
3548.86,-0.00270
3545,-0.00156
3541.14,-0.00439
3537.28,-0.00437
3533.43,-0.00436
3529.57,-0.00262
3525.71,-0.00144
3521.85,-0.00322
3518,-0.00483
3514.14,-0.00516
3510.28,-0.00404
3506.42,-0.00402
3502.57,-0.00271
3498.71,-0.00459
3494.85,-0.00514
3490.99,-0.00526
3487.14,-0.00476
3483.28,-0.00450
3479.42,-0.00500
3475.56,-0.00541
3471.71,-0.00562
3467.85,-0.00539
3463.99,-0.00497
3460.13,-0.00511
3456.28,-0.00568
3452.42,-0.00580
3448.56,-0.00473
3444.7,-0.00472
3440.85,-0.00544
3436.99,-0.00599
3433.13,-0.00588
3429.28,-0.00591
3425.42,-0.00569
3421.56,-0.00488
3417.7,-0.00563
3413.85,-0.00595
3409.99,-0.00608
3406.13,-0.00612
3402.27,-0.00593
3398.42,-0.00565
3394.56,-0.00540
3390.7,-0.00581
3386.84,-0.00593
3382.99,-0.00565
3379.13,-0.00589
3375.27,-0.00608
3371.41,-0.00599
3367.56,-0.00544
3363.7,-0.00547
3359.84,-0.00566
3355.98,-0.00572
3352.13,-0.00601
3348.27,-0.00613
3344.41,-0.00590
3340.55,-0.00564
3336.7,-0.00536
3332.84,-0.00576
3328.98,-0.00567
3325.12,-0.00566
3321.27,-0.00590
3317.41,-0.00594
3313.55,-0.00555
3309.69,-0.00528
3305.84,-0.00564
3301.98,-0.00567
3298.12,-0.00557
3294.26,-0.00553
3290.41,-0.00535
3286.55,-0.00552
3282.69,-0.00543
3278.83,-0.00537
3274.98,-0.00517
3271.12,-0.00521
3267.26,-0.00520
3263.4,-0.00519
3259.55,-0.00533
3255.69,-0.00511
3251.83,-0.00535
3247.97,-0.00521
3244.12,-0.00497
3240.26,-0.00515
3236.4,-0.00513
3232.55,-0.00505
3228.69,-0.00498
3224.83,-0.00525
3220.97,-0.00492
3217.12,-0.00489
3213.26,-0.00493
3209.4,-0.00489
3205.54,-0.00482
3201.69,-0.00463
3197.83,-0.00451
3193.97,-0.00477
3190.11,-0.00487
3186.26,-0.00470
3182.4,-0.00465
3178.54,-0.00454
3174.68,-0.00456
3170.83,-0.00460
3166.97,-0.00466
3163.11,-0.00477
3159.25,-0.00475
3155.4,-0.00457
3151.54,-0.00453
3147.68,-0.00451
3143.82,-0.00447
3139.97,-0.00443
3136.11,-0.00430
3132.25,-0.00426
3128.39,-0.00423
3124.54,-0.00409
3120.68,-0.00393
3116.82,-0.00399
3112.96,-0.00412
3109.11,-0.00420
3105.25,-0.00417
3101.39,-0.00380
3097.53,-0.00400
3093.68,-0.00413
3089.82,-0.00431
3085.96,-0.00426
3082.1,-0.00399
3078.25,-0.00395
3074.39,-0.00414
3070.53,-0.00403
3066.67,-0.00372
3062.82,-0.00380
3058.96,-0.00385
3055.1,-0.00379
3051.24,-0.00385
3047.39,-0.00375
3043.53,-0.00397
3039.67,-0.00392
3035.82,-0.00364
3031.96,-0.00334
3028.1,-0.00367
3024.24,-0.00375
3020.39,-0.00396
3016.53,-0.00397
3012.67,-0.00349
3008.81,-0.00356
3004.96,-0.00365
3001.1,-0.00374
2997.24,-0.00377
2993.38,-0.00373
2989.53,-0.00382
2985.67,-0.00379
2981.81,-0.00375
2977.95,-0.00369
2974.1,-0.00358
2970.24,-0.00348
2966.38,-0.00342
2962.52,-0.00336
2958.67,-0.00335
2954.81,-0.00332
2950.95,-0.00335
2947.09,-0.00339
2943.24,-0.00347
2939.38,-0.00345
2935.52,-0.00319
2931.66,-0.00307
2927.81,-0.00292
2923.95,-0.00282
2920.09,-0.00302
2916.23,-0.00313
2912.38,-0.00316
2908.52,-0.00327
2904.66,-0.00322
2900.8,-0.00327
2896.95,-0.00333
2893.09,-0.00334
2889.23,-0.00341
2885.37,-0.00348
2881.52,-0.00344
2877.66,-0.00344
2873.8,-0.00338
2869.94,-0.00321
2866.09,-0.00320
2862.23,-0.00313
2858.37,-0.00301
2854.51,-0.00284
2850.66,-0.00287
2846.8,-0.00305
2842.94,-0.00308
2839.08,-0.00306
2835.23,-0.00311
2831.37,-0.00307
2827.51,-0.00312
2823.66,-0.00320
2819.8,-0.00317
2815.94,-0.00310
2812.08,-0.00305
2808.23,-0.00306
2804.37,-0.00313
2800.51,-0.00306
2796.65,-0.00300
2792.8,-0.00301
2788.94,-0.00300
2785.08,-0.00303
2781.22,-0.00293
2777.37,-0.00296
2773.51,-0.00299
2769.65,-0.00290
2765.79,-0.00290
2761.94,-0.00297
2758.08,-0.00296
2754.22,-0.00293
2750.36,-0.00288
2746.51,-0.00286
2742.65,-0.00288
2738.79,-0.00288
2734.93,-0.00287
2731.08,-0.00286
2727.22,-0.00286
2723.36,-0.00286
2719.5,-0.00284
2715.65,-0.00285
2711.79,-0.00281
2707.93,-0.00273
2704.07,-0.00275
2700.22,-0.00270
2696.36,-0.00274
2692.5,-0.00279
2688.64,-0.00267
2684.79,-0.00263
2680.93,-0.00271
2677.07,-0.00266
2673.21,-0.00267
2669.36,-0.00266
2665.5,-0.00263
2661.64,-0.00262
2657.78,-0.00267
2653.93,-0.00269
2650.07,-0.00263
2646.21,-0.00277
2642.35,-0.00276
2638.5,-0.00271
2634.64,-0.00279
2630.78,-0.00278
2626.93,-0.00267
2623.07,-0.00263
2619.21,-0.00267
2615.35,-0.00267
2611.5,-0.00270
2607.64,-0.00273
2603.78,-0.00261
2599.92,-0.00256
2596.07,-0.00254
2592.21,-0.00252
2588.35,-0.00252
2584.49,-0.00241
2580.64,-0.00239
2576.78,-0.00245
2572.92,-0.00248
2569.06,-0.00241
2565.21,-0.00248
2561.35,-0.00255
2557.49,-0.00245
2553.63,-0.00241
2549.78,-0.00242
2545.92,-0.00237
2542.06,-0.00229
2538.2,-0.00226
2534.35,-0.00231
2530.49,-0.00227
2526.63,-0.00231
2522.77,-0.00234
2518.92,-0.00219
2515.06,-0.00217
2511.2,-0.00229
2507.34,-0.00225
2503.49,-0.00212
2499.63,-0.00216
2495.77,-0.00212
2491.91,-0.00206
2488.06,-0.00213
2484.2,-0.00216
2480.34,-0.00212
2476.48,-0.00205
2472.63,-0.00201
2468.77,-0.00195
2464.91,-0.00205
2461.05,-0.00217
2457.2,-0.00223
2453.34,-0.00225
2449.48,-0.00220
2445.62,-0.00213
2441.77,-0.00216
2437.91,-0.00204
2434.05,-0.00181
2430.2,-0.00180
2426.34,-0.00190
2422.48,-0.00186
2418.62,-0.00193
2414.77,-0.00196
2410.91,-0.00184
2407.05,-0.00181
2403.19,-0.00186
2399.34,-0.00186
2395.48,-0.00182
2391.62,-0.00176
2387.76,-0.00162
2383.91,-0.00126
2380.05,-0.00122
2376.19,-0.00205
2372.33,-0.00352
2368.48,-0.00567
2364.62,-0.00736
2360.76,-0.00759
2356.9,-0.00711
2353.05,-0.00495
2349.19,-0.00312
2345.33,-0.00485
2341.47,-0.00682
2337.62,-0.00689
2333.76,-0.00587
2329.9,-0.00482
2326.04,-0.00415
2322.19,-0.00280
2318.33,-0.00192
2314.47,-0.00158
2310.61,-0.00095
2306.76,-0.00089
2302.9,-0.00119
2299.04,-0.00136
2295.18,-0.00149
2291.33,-0.00178
2287.47,-0.00169
2283.61,-0.00166
2279.75,-0.00177
2275.9,-0.00178
2272.04,-0.00192
2268.18,-0.00190
2264.32,-0.00172
2260.47,-0.00159
2256.61,-0.00170
2252.75,-0.00155
2248.89,-0.00148
2245.04,-0.00142
2241.18,-0.00154
2237.32,-0.00161
2233.46,-0.00150
2229.61,-0.00153
2225.75,-0.00161
2221.89,-0.00151
2218.04,-0.00155
2214.18,-0.00164
2210.32,-0.00169
2206.46,-0.00177
2202.61,-0.00157
2198.75,-0.00198
2194.89,-0.00234
2191.03,-0.00236
2187.18,-0.00219
2183.32,-0.00240
2179.46,-0.00261
2175.6,-0.00245
2171.75,-0.00248
2167.89,-0.00284
2164.03,-0.00298
2160.17,-0.00251
2156.32,-0.00143
2152.46,-0.00114
2148.6,-0.00146
2144.74,-0.00123
2140.89,-0.00116
2137.03,-0.00114
2133.17,-0.00107
2129.31,-0.00137
2125.46,-0.00161
2121.6,-0.00181
2117.74,-0.00181
2113.88,-0.00185
2110.03,-0.00206
2106.17,-0.00193
2102.31,-0.00180
2098.45,-0.00161
2094.6,-0.00150
2090.74,-0.00127
2086.88,-0.00134
2083.02,-0.00167
2079.17,-0.00166
2075.31,-0.00157
2071.45,-0.00142
2067.59,-0.00091
2063.74,-0.00064
2059.88,-0.00134
2056.02,-0.00133
2052.16,-0.00128
2048.31,-0.00164
2044.45,-0.00080
2040.59,-0.00052
2036.73,-0.00117
2032.88,-0.00134
2029.02,-0.00093
2025.16,-0.00045
2021.31,-0.00051
2017.45,0.00015
2013.59,-0.00050
2009.73,-0.00043
2005.88,-0.00022
2002.02,-0.00071
1998.16,-0.00095
1994.3,-0.00017
1990.45,0.00053
1986.59,-0.00014
1982.73,-0.00078
1978.87,-0.00094
1975.02,-0.00087
1971.16,-0.00016
1967.3,0.00084
1963.44,-0.00037
1959.59,-0.00039
1955.73,0.00013
1951.87,-0.00011
1948.01,0.00005
1944.16,0.00102
1940.3,0.00021
1936.44,-0.00022
1932.58,-0.00018
1928.73,-0.00047
1924.87,0.00043
1921.01,0.00108
1917.15,0.00053
1913.3,-0.00007
1909.44,0.00080
1905.58,0.00001
1901.72,-0.00019
1897.87,0.00017
1894.01,0.00062
1890.15,0.00087
1886.29,0.00034
1882.44,-0.00010
1878.58,-0.00019
1874.72,-0.00011
1870.86,0.00196
1867.01,0.00256
1863.15,0.00030
1859.29,0.00026
1855.43,-0.00015
1851.58,0.00006
1847.72,0.00217
1843.86,0.00312
1840,0.00083
1836.15,0.00068
1832.29,0.00102
1828.43,0.00207
1824.57,0.00163
1820.72,0.00031
1816.86,0.00025
1813,0.00107
1809.15,0.00143
1805.29,0.00094
1801.43,0.00272
1797.57,0.00277
1793.72,0.00384
1789.86,0.00226
1786,0.00116
1782.14,0.00187
1778.29,0.00194
1774.43,0.00293
1770.57,0.00384
1766.71,0.00175
1762.86,0.00203
1759,0.00271
1755.14,0.00225
1751.28,0.00495
1747.43,0.00653
1743.57,0.00438
1739.71,0.00353
1735.85,0.00428
1732,0.00494
1728.14,0.00130
1724.28,0.00110
1720.42,0.00245
1716.57,0.00769
1712.71,0.00330
1708.85,0.00244
1704.99,0.00505
1701.14,0.00636
1697.28,0.00722
1693.42,0.00227
1689.56,0.00317
1685.71,0.00506
1681.85,0.00496
1677.99,0.00253
1674.13,0.00288
1670.28,0.00358
1666.42,0.00081
1662.56,0.00115
1658.7,0.00060
1654.85,0.00307
1650.99,0.00376
1647.13,0.00450
1643.27,0.00108
1639.42,0.00148
1635.56,0.00259
1631.7,-0.00019
1627.84,0.00033
1623.99,0.00157
1620.13,0.00115
1616.27,0.00127
1612.42,-0.00024
1608.56,0.00021
1604.7,-0.00012
1600.84,-0.00060
1596.99,-0.00077
1593.13,-0.00057
1589.27,-0.00098
1585.41,-0.00126
1581.56,-0.00081
1577.7,0.00131
1573.84,0.00124
1569.98,0.00156
1566.13,0.00151
1562.27,0.00234
1558.41,0.00686
1554.55,0.00513
1550.7,0.00349
1546.84,0.00388
1542.98,0.01088
1539.12,0.00658
1535.27,0.00533
1531.41,0.00417
1527.55,0.00573
1523.69,0.00893
1519.84,0.00816
1515.98,0.00672
1512.12,0.00638
1508.26,0.01098
1504.41,0.00411
1500.55,0.00400
1496.69,0.00415
1492.83,0.00262
1488.98,0.00577
1485.12,0.00170
1481.26,0.00091
1477.4,0.00201
1473.55,0.00561
1469.69,0.00153
1465.83,0.00157
1461.97,0.00150
1458.12,0.00575
1454.26,0.00351
1450.4,0.00145
1446.54,0.00117
1442.69,-0.00005
1438.83,0.00125
1434.97,0.00271
1431.11,0.00181
1427.26,0.00106
1423.4,0.00162
1419.54,0.00333
1415.69,0.00154
1411.83,0.00057
1407.97,0.00032
1404.11,0.00079
1400.26,0.00154
1396.4,0.00371
1392.54,0.00124
1388.68,0.00151
1384.83,0.00062
1380.97,0.00014
1377.11,0.00125
1373.25,0.00175
1369.4,0.00050
1365.54,0.00057
1361.68,0.00190
1357.82,0.00006
1353.97,-0.00014
1350.11,-0.00042
1346.25,-0.00057
1342.39,0.00074
1338.54,0.00313
1334.68,-0.00004
1330.82,-0.00055
1326.96,-0.00058
1323.11,-0.00014
1319.25,0.00125
1315.39,0.00119
1311.53,0.00047
1307.68,-0.00029
1303.82,-0.00064
1299.96,-0.00065
1296.1,-0.00040
1292.25,-0.00029
1288.39,0.00014
1284.53,-0.00034
1280.67,-0.00042
1276.82,-0.00053
1272.96,-0.00009
1269.1,0.00033
1265.24,0.00037
1261.39,0.00069
1257.53,0.00029
1253.67,-0.00033
1249.81,-0.00068
1245.96,-0.00074
1242.1,-0.00070
1238.24,-0.00069
1234.38,-0.00065
1230.53,-0.00066
1226.67,-0.00047
1222.81,-0.00050
1218.95,-0.00062
1215.1,-0.00058
1211.24,-0.00048
1207.38,-0.00054
1203.53,-0.00056
1199.67,-0.00054
1195.81,-0.00058
1191.95,-0.00049
1188.1,-0.00034
1184.24,-0.00024
1180.38,-0.00027
1176.52,-0.00029
1172.67,-0.00030
1168.81,-0.00042
1164.95,-0.00053
1161.09,-0.00052
1157.24,-0.00052
1153.38,-0.00056
1149.52,-0.00065
1145.66,-0.00060
1141.81,-0.00053
1137.95,-0.00051
1134.09,-0.00047
1130.23,-0.00055
1126.38,-0.00066
1122.52,-0.00062
1118.66,-0.00054
1114.8,-0.00031
1110.95,-0.00016
1107.09,0.00002
1103.23,0.00010
1099.37,0.00024
1095.52,0.00034
1091.66,0.00029
1087.8,0.00025
1083.94,0.00025
1080.09,0.00015
1076.23,0.00012
1072.37,0.00008
1068.51,-0.00001
1064.66,-0.00007
1060.8,-0.00014
1056.94,0.00001
1053.08,-0.00001
1049.23,-0.00006
1045.37,-0.00010
1041.51,-0.00003
1037.65,-0.00004
1033.8,0.00011
1029.94,0.00017
1026.08,0.00035
1022.22,0.00055
1018.37,0.00052
1014.51,0.00048
1010.65,0.00027
1006.8,0.00006
1002.94,-0.00011
999.08,-0.00031
995.223,-0.00034
991.365,-0.00032
987.508,-0.00055
983.65,-0.00036
979.793,-0.00009
975.935,-0.00037
972.078,-0.00042
968.221,-0.00034
964.363,-0.00036
960.506,-0.00029
956.648,-0.00053
952.791,-0.00045
948.933,-0.00079
945.076,-0.00066
941.218,-0.00040
937.361,-0.00039
933.503,-0.00041
929.646,-0.00042
925.789,-0.00049
921.931,-0.00048
918.074,-0.00076
914.216,-0.00063
910.359,-0.00061
906.501,-0.00058
902.644,-0.00019
898.786,-0.00010
894.929,-0.00025
891.072,-0.00018
887.214,-0.00037
883.357,-0.00039
879.499,-0.00027
875.642,-0.00011
871.784,-0.00022
867.927,-0.00027
864.069,-0.00012
860.212,0.00078
856.354,0.00078
852.497,0.00045
848.64,0.00042
844.782,0.00068
840.925,0.00075
837.067,0.00010
833.21,0.00000
829.352,0.00010
825.495,0.00048
821.637,0.00072
817.78,0.00066
813.922,0.00058
810.065,0.00103
806.208,0.00112
802.35,0.00121
798.493,0.00105
794.635,0.00097
790.778,0.00085
786.92,-0.00005
783.063,-0.00008
779.205,0.00021
775.348,0.00012
771.49,0.00067
767.633,0.00041
763.776,0.00024
759.918,0.00008
756.061,-0.00002
752.203,0.00038
748.346,-0.00031
744.488,0.00011
740.631,0.00085
736.773,-0.00010
732.916,-0.00086
729.058,-0.00081
725.201,-0.00060
721.344,-0.00019
717.486,0.00005
713.629,0.00002
709.771,-0.00020
705.914,0.00010
702.056,0.00014
698.199,0.00030
694.341,0.00018
690.484,-0.00003
686.627,0.00001
682.769,-0.00037
678.912,-0.00065
675.054,-0.00062
671.197,-0.00055
667.339,-0.00085
663.482,-0.00014
659.624,0.00000
655.767,-0.00052
651.909,-0.00077
648.052,-0.00061
644.195,-0.00022
640.337,0.00024
636.48,0.00053
632.622,0.00043
628.765,-0.00071
624.907,-0.00090
621.05,-0.00102
617.192,0.00245
613.335,-0.00039
609.477,-0.00501
605.62,-0.00356
601.763,-0.00211
599.834,0.00025