File: 01_Data/PVC/MCC/PVC_MCC_30K_min_210920_R2.txt
Sample ID:	C:\MCC\PVC_MCC_30K_min_210920_R2.txt
Sample Weight (mg):	4.32
Heating Rate (C/s):	0.5
Combustor Temp (C):	900
N2 Flow Rate (cc/min):	80
O2 Flow Rate (cc/min):	20
Calibration File:	C:\MCC\MCC Cal\Coeff1 JN10440_30_210304.txt.txt
T Correction Coefficients:	0	1.024463	0
Time Shift (s):	14
*
Time (s)	Temperature (C)	N2 flow rate (cc/min)	O2 flow rate (cc/min)	Flow Rate (cc/min)	Oxygen (%)	HRR (W/g)	Heating rate (C/s)
0.000	108.164	80.002	19.995	100.159	20.073	-0.012	-0.028
2.000	108.152	80.003	19.996	100.157	20.071	0.126	0.012
4.000	108.177	80.002	19.995	100.151	20.076	-0.245	0.012
6.000	108.167	80.002	19.995	100.153	20.074	-0.077	0.001
8.000	108.147	80.003	19.994	100.152	20.072	0.037	-0.023
10.000	108.172	80.003	19.993	100.170	20.074	-0.083	0.004
12.000	108.158	80.002	19.994	100.174	20.073	-0.026	0.013
14.000	108.158	80.005	19.993	100.178	20.073	0.016	-0.008
16.001	108.149	80.003	19.994	100.182	20.073	0.000	0.023
18.000	108.154	80.002	19.994	100.184	20.070	0.215	-0.004
20.000	108.181	80.002	19.993	100.206	20.068	0.363	-0.014
22.000	108.195	80.001	19.994	100.221	20.064	0.608	-0.020
24.000	108.253	80.001	19.994	100.211	20.065	0.594	0.020
26.001	108.300	80.000	19.995	100.206	20.069	0.306	0.008
28.001	108.328	80.002	19.995	100.218	20.068	0.359	0.005
30.000	108.408	80.000	19.994	100.205	20.067	0.401	0.070
32.000	108.444	80.002	19.995	100.202	20.067	0.448	0.003
34.001	108.524	80.001	19.994	100.204	20.066	0.482	0.043
36.000	108.569	80.001	19.995	100.195	20.063	0.737	0.037
38.000	108.668	80.003	19.994	100.223	20.061	0.873	0.027
40.000	108.750	80.002	19.994	100.234	20.061	0.868	0.048
42.000	108.831	80.002	19.994	100.254	20.057	1.142	0.020
44.000	108.960	80.003	19.994	100.283	20.051	1.601	0.056
46.000	109.135	80.002	19.993	100.315	20.048	1.797	0.061
48.000	109.262	80.000	19.993	100.338	20.048	1.802	0.094
50.000	109.400	80.001	19.993	100.345	20.044	2.054	0.077
52.000	109.649	80.002	19.994	100.344	20.044	2.060	0.107
54.000	109.933	80.000	19.994	100.349	20.043	2.163	0.102
56.000	110.183	80.001	19.995	100.366	20.045	2.026	0.117
58.000	110.470	79.998	19.995	100.358	20.042	2.256	0.167
60.000	110.768	80.002	19.996	100.355	20.043	2.180	0.159
62.000	111.106	80.002	19.994	100.364	20.040	2.382	0.181
64.000	111.492	80.002	19.995	100.378	20.040	2.362	0.174
66.001	111.867	80.003	19.995	100.382	20.039	2.445	0.211
68.000	112.326	80.004	19.994	100.377	20.039	2.438	0.205
70.000	112.744	80.002	19.995	100.376	20.039	2.481	0.215
72.000	113.185	80.003	19.995	100.378	20.036	2.667	0.229
74.000	113.666	80.002	19.994	100.379	20.040	2.406	0.242
76.000	114.124	80.001	19.994	100.379	20.034	2.814	0.235
78.000	114.643	80.002	19.994	100.385	20.035	2.769	0.246
80.000	115.195	80.003	19.995	100.386	20.036	2.638	0.282
82.000	115.736	80.002	19.994	100.382	20.034	2.840	0.268
84.000	116.306	80.001	19.994	100.398	20.034	2.838	0.279
86.000	116.877	80.004	19.995	100.410	20.033	2.883	0.315
88.000	117.468	80.000	19.996	100.414	20.031	3.055	0.310
90.001	118.074	80.001	19.996	100.413	20.034	2.828	0.337
92.000	118.751	80.003	19.995	100.415	20.030	3.067	0.317
94.000	119.363	80.004	19.996	100.416	20.032	2.971	0.328
96.000	120.018	80.003	19.996	100.415	20.031	3.036	0.335
98.000	120.738	80.004	19.994	100.415	20.031	3.002	0.374
100.000	121.438	80.004	19.995	100.417	20.030	3.079	0.348
102.000	122.161	80.002	19.995	100.418	20.029	3.180	0.369
104.000	122.923	80.001	19.995	100.418	20.031	3.010	0.372
106.000	123.665	80.001	19.994	100.421	20.032	2.993	0.386
108.000	124.423	80.001	19.996	100.421	20.031	3.016	0.385
110.000	125.171	79.999	19.994	100.422	20.032	2.988	0.407
112.000	125.934	80.001	19.994	100.424	20.030	3.087	0.355
114.000	126.796	79.999	19.995	100.423	20.032	2.959	0.439
116.000	127.602	80.002	19.993	100.431	20.026	3.412	0.399
118.000	128.438	80.000	19.994	100.428	20.025	3.437	0.393
120.000	129.268	80.000	19.994	100.425	20.028	3.250	0.412
122.001	130.148	80.002	19.994	100.424	20.028	3.218	0.442
124.001	131.028	80.001	19.993	100.423	20.028	3.226	0.438
126.001	131.918	79.998	19.995	100.422	20.031	3.036	0.451
128.001	132.765	80.001	19.994	100.419	20.030	3.083	0.419
130.001	133.639	80.000	19.993	100.425	20.031	3.026	0.444
132.000	134.549	80.001	19.994	100.421	20.031	3.050	0.451
134.000	135.448	80.003	19.995	100.419	20.030	3.101	0.470
136.000	136.378	80.000	19.993	100.421	20.029	3.184	0.460
138.001	137.324	80.003	19.995	100.423	20.029	3.188	0.475
140.000	138.239	79.996	19.994	100.417	20.026	3.421	0.461
142.001	139.201	80.003	19.995	100.420	20.030	3.091	0.505
144.000	140.173	80.007	19.992	100.417	20.024	3.514	0.491
146.000	141.064	80.000	19.995	100.420	20.027	3.332	0.459
148.000	142.064	79.994	19.996	100.416	20.030	3.077	0.504
150.001	143.024	80.001	19.995	100.418	20.028	3.255	0.497
152.000	143.973	80.002	19.996	100.416	20.025	3.473	0.508
154.000	144.938	80.002	19.995	100.413	20.026	3.396	0.456
156.000	145.932	80.007	19.993	100.414	20.027	3.332	0.509
158.001	146.896	80.002	19.996	100.416	20.026	3.411	0.464
160.001	147.878	79.996	19.994	100.416	20.028	3.279	0.457
162.000	148.874	80.013	19.992	100.412	20.027	3.331	0.517
164.001	149.882	80.007	19.994	100.421	20.032	2.962	0.485
166.000	150.855	80.002	19.995	100.412	20.033	2.899	0.504
168.001	151.844	79.994	19.997	100.411	20.029	3.167	0.480
170.001	152.904	80.006	19.991	100.400	20.031	3.011	0.512
172.000	153.879	80.003	19.992	100.417	20.029	3.163	0.502
174.001	154.815	80.001	19.996	100.420	20.032	2.983	0.476
176.000	155.864	79.992	19.991	100.397	20.031	3.060	0.517
178.000	156.854	79.996	20.001	100.394	20.030	3.114	0.498
180.000	157.906	80.014	19.992	100.391	20.030	3.124	0.522
182.000	158.840	80.000	19.991	100.399	20.031	3.007	0.480
184.000	159.915	80.005	19.990	100.386	20.033	2.896	0.534
186.000	160.874	80.003	19.993	100.391	20.032	2.971	0.515
188.000	161.866	80.001	19.995	100.385	20.032	2.981	0.513
190.000	162.909	80.004	19.994	100.385	20.029	3.145	0.528
192.000	163.902	80.001	19.996	100.387	20.031	3.040	0.514
194.000	164.864	80.004	19.993	100.385	20.032	2.932	0.485
196.000	165.911	80.004	19.994	100.383	20.035	2.750	0.507
198.000	166.950	80.011	19.993	100.382	20.029	3.185	0.477
200.000	167.936	79.998	19.995	100.382	20.036	2.661	0.482
202.001	168.941	80.003	19.994	100.381	20.032	2.955	0.499
204.000	169.958	80.002	19.994	100.379	20.035	2.758	0.514
206.001	170.954	79.992	19.995	100.380	20.035	2.772	0.503
208.000	171.952	80.012	19.993	100.380	20.040	2.378	0.508
210.000	172.971	80.005	19.993	100.389	20.037	2.621	0.500
212.001	173.971	79.991	19.991	100.384	20.038	2.501	0.522
214.000	174.910	80.004	19.994	100.374	20.036	2.685	0.480
216.001	175.884	79.989	19.995	100.382	20.038	2.525	0.452
218.000	176.919	79.993	19.995	100.371	20.038	2.513	0.528
220.001	177.937	80.000	19.995	100.377	20.038	2.495	0.539
222.001	178.952	80.002	19.994	100.381	20.037	2.621	0.505
224.001	179.891	79.991	19.991	100.378	20.038	2.548	0.486
226.001	180.937	80.006	19.991	100.379	20.036	2.673	0.501
228.001	181.908	80.010	19.991	100.380	20.041	2.293	0.483
230.001	182.899	79.997	19.995	100.382	20.037	2.566	0.464
232.000	183.895	80.005	19.992	100.372	20.038	2.517	0.511
234.001	184.825	80.006	19.996	100.380	20.037	2.617	0.460
236.001	185.837	79.995	19.994	100.377	20.037	2.578	0.524
238.000	186.896	80.009	19.991	100.380	20.037	2.558	0.497
240.000	187.811	80.004	19.991	100.379	20.038	2.554	0.464
242.001	188.834	80.009	19.993	100.382	20.038	2.531	0.478
244.000	189.795	79.993	19.996	100.377	20.038	2.546	0.448
246.000	190.791	79.991	19.993	100.378	20.036	2.651	0.462
248.000	191.777	80.002	19.993	100.375	20.041	2.299	0.489
250.000	192.745	79.990	19.998	100.372	20.040	2.408	0.474
252.000	193.793	80.010	19.993	100.375	20.038	2.542	0.514
254.000	194.723	79.998	19.997	100.385	20.041	2.317	0.482
256.000	195.694	79.998	19.992	100.377	20.041	2.277	0.472
258.001	196.659	80.007	19.995	100.379	20.040	2.386	0.463
260.000	197.621	80.000	19.993	100.382	20.040	2.345	0.493
262.000	198.595	80.005	20.004	100.375	20.041	2.329	0.484
264.000	199.604	80.005	19.995	100.375	20.043	2.127	0.475
266.000	200.558	80.002	19.990	100.374	20.040	2.378	0.506
268.000	201.530	80.003	19.989	100.376	20.040	2.404	0.515
270.000	202.507	79.993	19.999	100.379	20.044	2.103	0.478
272.000	203.535	79.994	19.998	100.375	20.040	2.408	0.497
274.000	204.517	80.006	19.992	100.368	20.042	2.256	0.495
276.000	205.508	80.001	19.996	100.362	20.038	2.497	0.480
278.000	206.463	80.005	19.994	100.372	20.040	2.410	0.489
280.000	207.450	80.000	19.995	100.377	20.040	2.342	0.491
282.000	208.411	80.001	19.994	100.371	20.043	2.164	0.482
284.000	209.420	80.003	19.993	100.374	20.045	2.018	0.497
286.000	210.401	79.998	19.997	100.371	20.045	2.022	0.505
288.000	211.381	80.000	19.995	100.370	20.045	1.981	0.491
290.000	212.346	79.999	19.999	100.374	20.044	2.056	0.521
292.000	213.352	80.001	19.995	100.359	20.044	2.113	0.518
294.000	214.330	80.000	19.995	100.369	20.043	2.179	0.485
296.000	215.307	80.000	19.994	100.374	20.046	1.949	0.489
298.000	216.320	79.999	19.994	100.364	20.046	1.906	0.549
300.000	217.309	79.997	19.994	100.378	20.046	1.909	0.493
302.000	218.277	79.999	19.994	100.375	20.043	2.125	0.480
304.000	219.310	80.000	19.994	100.379	20.045	1.987	0.507
306.000	220.287	80.001	19.996	100.376	20.043	2.165	0.517
308.001	221.231	80.001	19.994	100.374	20.046	1.973	0.489
310.000	222.199	80.000	19.994	100.367	20.048	1.825	0.458
312.000	223.227	79.998	19.994	100.365	20.045	2.014	0.484
314.001	224.275	80.002	19.994	100.363	20.046	1.916	0.533
316.000	225.187	80.002	19.993	100.375	20.050	1.682	0.487
318.000	226.194	80.000	19.995	100.368	20.048	1.787	0.513
320.000	227.166	80.002	19.994	100.379	20.044	2.086	0.491
322.000	228.203	80.003	19.993	100.377	20.044	2.087	0.508
324.000	229.249	80.002	19.994	100.382	20.044	2.081	0.514
326.000	230.208	80.001	19.994	100.380	20.045	1.983	0.461
328.000	231.250	80.001	19.995	100.375	20.045	2.048	0.511
330.000	232.232	80.004	19.993	100.368	20.042	2.265	0.467
332.000	233.251	80.003	19.992	100.378	20.042	2.214	0.478
334.000	234.232	80.002	19.994	100.366	20.043	2.153	0.466
336.000	235.241	80.002	19.994	100.371	20.039	2.471	0.504
338.000	236.251	80.002	19.993	100.363	20.037	2.594	0.514
340.000	237.218	80.004	19.993	100.374	20.035	2.748	0.465
342.000	238.241	80.003	19.994	100.375	20.029	3.139	0.459
344.000	239.197	80.004	19.996	100.373	20.028	3.278	0.470
346.000	240.238	80.003	19.995	100.374	20.027	3.329	0.524
348.000	241.261	80.004	19.995	100.376	20.023	3.624	0.512
350.001	242.218	80.003	19.994	100.377	20.021	3.754	0.495
352.000	243.217	80.002	19.995	100.379	20.017	4.063	0.512
354.000	244.217	80.002	19.996	100.380	20.012	4.413	0.492
356.000	245.164	80.002	19.995	100.381	20.005	4.927	0.460
358.000	246.210	80.002	19.994	100.390	20.004	5.022	0.522
360.000	247.242	80.002	19.995	100.386	19.996	5.562	0.505
362.000	248.209	79.999	19.995	100.389	19.993	5.816	0.501
364.000	249.244	80.001	19.995	100.391	19.987	6.226	0.535
366.000	250.274	80.001	19.994	100.387	19.981	6.651	0.509
368.000	251.355	80.001	19.994	100.391	19.974	7.143	0.543
370.000	252.296	80.003	19.995	100.390	19.975	7.079	0.490
372.000	253.331	80.001	19.995	100.385	19.971	7.372	0.504
374.000	254.308	80.001	19.996	100.388	19.965	7.793	0.485
376.000	255.302	80.000	19.996	100.389	19.957	8.359	0.487
378.000	256.298	80.001	19.995	100.388	19.949	8.948	0.512
380.000	257.323	80.001	19.995	100.384	19.949	8.995	0.512
382.000	258.324	80.000	19.995	100.382	19.948	9.074	0.495
384.000	259.373	80.002	19.995	100.382	19.944	9.308	0.512
386.000	260.380	80.001	19.995	100.384	19.943	9.425	0.541
388.000	261.381	79.999	19.995	100.386	19.944	9.343	0.514
390.000	262.378	80.000	19.993	100.383	19.942	9.444	0.514
392.000	263.375	80.002	19.994	100.384	19.945	9.226	0.510
394.000	264.423	80.003	19.994	100.384	19.943	9.382	0.518
396.000	265.391	80.004	19.994	100.382	19.950	8.896	0.477
398.000	266.419	80.003	19.995	100.387	19.954	8.594	0.497
400.001	267.424	80.003	19.994	100.383	19.956	8.434	0.507
402.000	268.441	80.002	19.995	100.382	19.961	8.116	0.483
404.000	269.455	80.005	19.995	100.380	19.963	7.958	0.525
406.000	270.462	80.003	19.995	100.379	19.969	7.550	0.481
408.000	271.511	80.003	19.994	100.380	19.970	7.475	0.517
410.000	272.545	80.002	19.994	100.382	19.974	7.169	0.519
412.000	273.530	80.003	19.995	100.386	19.972	7.333	0.516
414.000	274.521	80.002	19.994	100.388	19.976	6.999	0.504
416.000	275.552	80.002	19.994	100.396	19.977	6.944	0.515
418.000	276.537	80.003	19.994	100.407	19.980	6.711	0.498
420.000	277.538	80.005	19.994	100.415	19.977	6.944	0.495
422.000	278.501	80.003	19.994	100.415	19.979	6.770	0.483
424.000	279.545	80.005	19.993	100.419	19.980	6.764	0.525
426.000	280.529	80.004	19.993	100.420	19.980	6.697	0.512
428.000	281.520	80.003	19.994	100.420	19.976	7.035	0.490
430.000	282.503	80.004	19.993	100.427	19.975	7.124	0.517
432.000	283.511	80.004	19.993	100.423	19.974	7.164	0.515
434.000	284.477	80.002	19.994	100.431	19.968	7.590	0.489
436.000	285.502	80.002	19.996	100.429	19.971	7.354	0.525
438.000	286.485	80.002	19.995	100.441	19.968	7.582	0.477
440.000	287.533	80.002	19.996	100.452	19.964	7.879	0.520
442.000	288.503	80.000	19.995	100.458	19.957	8.421	0.503
444.000	289.501	80.001	19.994	100.461	19.953	8.694	0.491
446.000	290.452	80.001	19.995	100.461	19.954	8.618	0.493
448.000	291.509	80.001	19.994	100.461	19.948	9.042	0.526
450.000	292.493	80.001	19.993	100.462	19.946	9.171	0.530
452.000	293.502	80.001	19.994	100.464	19.942	9.522	0.505
454.000	294.441	80.000	19.995	100.464	19.940	9.645	0.475
456.000	295.371	80.001	19.995	100.462	19.938	9.742	0.448
458.000	296.415	80.002	19.995	100.461	19.932	10.187	0.474
460.000	297.445	80.002	19.994	100.463	19.929	10.434	0.529
462.000	298.398	80.001	19.995	100.461	19.926	10.664	0.499
464.000	299.407	80.000	19.996	100.459	19.920	11.048	0.514
466.000	300.385	80.001	19.995	100.463	19.920	11.109	0.497
468.000	301.389	80.000	19.996	100.458	19.916	11.396	0.504
470.000	302.385	80.001	19.996	100.458	19.913	11.615	0.499
472.000	303.371	80.001	19.996	100.459	19.915	11.479	0.492
474.000	304.341	80.002	19.995	100.458	19.912	11.647	0.477
476.000	305.363	80.003	19.996	100.458	19.907	12.054	0.487
478.000	306.293	80.001	19.995	100.460	19.909	11.872	0.477
480.000	307.318	80.002	19.994	100.457	19.903	12.340	0.489
482.000	308.348	80.004	19.995	100.454	19.903	12.324	0.536
484.000	309.313	80.004	19.994	100.456	19.905	12.164	0.526
486.001	310.315	80.002	19.995	100.452	19.901	12.436	0.503
488.000	311.329	80.003	19.994	100.441	19.903	12.309	0.506
490.000	312.332	80.004	19.995	100.429	19.903	12.319	0.520
492.000	313.335	80.004	19.994	100.427	19.909	11.872	0.483
494.000	314.343	80.003	19.995	100.426	19.908	11.925	0.467
496.000	315.321	80.003	19.995	100.423	19.908	11.925	0.453
498.000	316.327	80.003	19.994	100.422	19.910	11.808	0.515
500.000	317.346	80.003	19.994	100.422	19.912	11.647	0.504
502.000	318.348	80.002	19.994	100.421	19.914	11.503	0.479
504.000	319.324	80.003	19.994	100.420	19.915	11.429	0.447
506.000	320.343	80.004	19.994	100.417	19.915	11.453	0.498
508.000	321.356	80.005	19.994	100.407	19.918	11.199	0.517
510.000	322.385	80.004	19.993	100.392	19.920	11.094	0.520
512.000	323.380	80.003	19.993	100.390	19.926	10.645	0.498
514.000	324.369	80.003	19.994	100.383	19.926	10.638	0.506
516.000	325.403	80.003	19.994	100.383	19.933	10.150	0.521
518.000	326.399	80.002	19.995	100.383	19.935	10.019	0.502
520.000	327.422	80.002	19.994	100.372	19.934	10.029	0.494
522.001	328.404	80.002	19.994	100.371	19.934	10.025	0.491
524.000	329.407	80.002	19.994	100.363	19.940	9.628	0.489
526.000	330.443	80.003	19.995	100.349	19.944	9.298	0.500
528.000	331.430	80.001	19.995	100.341	19.945	9.272	0.514
530.000	332.489	80.001	19.995	100.341	19.951	8.850	0.496
532.001	333.477	80.001	19.995	100.340	19.950	8.887	0.473
534.000	334.530	80.003	19.996	100.336	19.954	8.617	0.520
536.001	335.540	80.002	19.996	100.326	19.953	8.652	0.533
538.000	336.550	80.002	19.995	100.325	19.959	8.229	0.518
540.000	337.564	80.003	19.995	100.314	19.959	8.211	0.521
542.000	338.587	80.003	19.995	100.305	19.960	8.199	0.519
544.000	339.627	80.003	19.996	100.308	19.963	7.961	0.480
546.000	340.640	80.003	19.995	100.287	19.967	7.693	0.503
548.000	341.653	80.001	19.995	100.271	19.970	7.468	0.514
550.001	342.667	80.000	19.995	100.312	19.970	7.476	0.511
552.000	343.693	80.001	19.995	100.265	19.973	7.204	0.503
554.000	344.672	80.001	19.995	100.266	19.974	7.155	0.517
556.000	345.668	80.001	19.995	100.282	19.978	6.851	0.483
558.000	346.674	80.001	19.996	100.271	19.981	6.629	0.477
560.000	347.687	80.001	19.996	100.266	19.980	6.712	0.513
562.000	348.719	80.002	19.995	100.272	19.985	6.387	0.514
564.000	349.752	80.004	19.995	100.275	19.987	6.225	0.509
566.001	350.724	80.003	19.995	100.273	19.987	6.204	0.520
568.000	351.748	80.002	19.997	100.283	19.987	6.234	0.486
570.001	352.770	80.003	19.994	100.301	19.988	6.156	0.528
572.001	353.786	80.001	19.995	100.305	19.985	6.363	0.524
574.000	354.786	80.003	19.995	100.311	19.986	6.275	0.488
576.000	355.794	80.001	19.994	100.319	19.983	6.540	0.509
578.000	356.839	80.002	19.994	100.334	19.984	6.439	0.507
580.000	357.832	80.003	19.995	100.340	19.983	6.535	0.480
582.000	358.830	80.004	19.995	100.344	19.982	6.545	0.498
584.000	359.821	80.002	19.994	100.345	19.978	6.836	0.483
586.000	360.840	80.004	19.994	100.345	19.978	6.858	0.496
588.001	361.849	80.004	19.994	100.351	19.977	6.927	0.505
590.001	362.830	80.005	19.994	100.364	19.977	6.973	0.501
592.001	363.832	80.006	19.995	100.370	19.976	6.999	0.495
594.001	364.803	80.005	19.994	100.371	19.975	7.120	0.511
596.000	365.812	80.004	19.995	100.377	19.975	7.122	0.497
598.000	366.819	80.003	19.996	100.378	19.975	7.092	0.500
600.000	367.800	80.003	19.995	100.380	19.976	6.992	0.507
602.000	368.832	80.002	19.995	100.388	19.976	7.046	0.499
604.000	369.834	80.003	19.994	100.395	19.973	7.213	0.512
606.001	370.800	80.003	19.994	100.397	19.975	7.072	0.493
608.001	371.819	80.002	19.994	100.405	19.974	7.169	0.531
610.001	372.822	80.000	19.995	100.411	19.976	7.034	0.513
612.001	373.839	80.003	19.994	100.407	19.977	6.957	0.513
614.001	374.847	80.003	19.994	100.417	19.972	7.343	0.494
616.001	375.815	80.004	19.994	100.417	19.974	7.195	0.492
618.000	376.807	80.002	19.994	100.412	19.972	7.311	0.460
620.000	377.838	80.001	19.994	100.415	19.971	7.408	0.481
622.000	378.811	80.002	19.996	100.412	19.969	7.500	0.484
624.000	379.831	80.003	19.996	100.417	19.966	7.737	0.521
626.000	380.831	80.002	19.996	100.418	19.964	7.901	0.504
628.000	381.833	80.003	19.995	100.420	19.961	8.087	0.477
630.000	382.856	80.001	19.995	100.412	19.959	8.283	0.529
632.001	383.786	80.001	19.995	100.417	19.957	8.392	0.448
634.000	384.837	80.001	19.995	100.422	19.953	8.684	0.495
636.000	385.818	80.002	19.994	100.422	19.952	8.734	0.476
638.000	386.871	80.002	19.995	100.423	19.948	9.050	0.527
640.000	387.875	80.002	19.995	100.422	19.944	9.370	0.519
642.000	388.868	80.003	19.995	100.421	19.939	9.697	0.501
644.000	389.844	80.003	19.995	100.422	19.932	10.217	0.469
646.000	390.875	80.002	19.995	100.422	19.929	10.452	0.515
648.000	391.870	80.004	19.996	100.422	19.924	10.802	0.498
650.000	392.889	80.003	19.995	100.422	19.918	11.210	0.506
652.000	393.970	80.001	19.995	100.420	19.918	11.235	0.524
654.000	394.950	80.002	19.996	100.420	19.908	11.945	0.463
656.000	395.976	80.001	19.995	100.417	19.904	12.214	0.514
658.000	396.968	80.002	19.996	100.418	19.900	12.536	0.488
660.000	397.959	80.002	19.995	100.418	19.893	13.067	0.493
662.000	399.012	80.004	19.995	100.420	19.885	13.603	0.532
664.000	400.014	80.002	19.995	100.420	19.879	14.022	0.528
666.000	401.020	80.005	19.994	100.419	19.874	14.423	0.523
668.000	402.002	80.004	19.994	100.418	19.863	15.188	0.523
670.000	403.072	80.005	19.995	100.418	19.856	15.699	0.519
672.000	404.062	80.007	19.993	100.419	19.848	16.306	0.512
674.000	405.080	80.005	19.994	100.419	19.844	16.573	0.508
676.000	406.086	80.004	19.994	100.419	19.833	17.372	0.485
678.000	407.099	80.006	19.994	100.418	19.824	18.019	0.514
680.000	408.163	80.003	19.995	100.417	19.814	18.757	0.528
682.000	409.175	80.002	19.995	100.419	19.804	19.508	0.495
684.000	410.211	80.002	19.995	100.421	19.792	20.371	0.520
686.000	411.252	80.001	19.995	100.421	19.778	21.397	0.497
688.000	412.314	80.002	19.996	100.420	19.767	22.208	0.532
690.000	413.360	80.001	19.994	100.421	19.753	23.199	0.500
692.000	414.359	80.002	19.994	100.419	19.736	24.437	0.525
694.000	415.415	80.002	19.995	100.420	19.722	25.410	0.500
696.000	416.429	80.004	19.994	100.423	19.705	26.678	0.520
698.000	417.482	80.003	19.994	100.422	19.687	27.999	0.544
700.000	418.494	80.003	19.995	100.422	19.666	29.506	0.520
702.000	419.519	80.004	19.994	100.422	19.647	30.873	0.532
704.000	420.526	80.004	19.994	100.421	19.628	32.242	0.519
706.000	421.553	80.002	19.994	100.421	19.605	33.911	0.507
708.000	422.572	80.002	19.993	100.422	19.584	35.476	0.494
710.000	423.587	80.002	19.994	100.423	19.558	37.298	0.511
712.000	424.611	80.001	19.995	100.424	19.537	38.822	0.524
714.000	425.604	80.000	19.995	100.422	19.514	40.548	0.497
716.000	426.655	80.001	19.995	100.424	19.491	42.176	0.508
718.000	427.672	80.002	19.995	100.424	19.469	43.766	0.528
720.000	428.660	80.001	19.995	100.424	19.446	45.462	0.516
722.000	429.669	80.002	19.996	100.419	19.421	47.260	0.502
724.000	430.663	80.004	19.995	100.418	19.399	48.888	0.492
726.000	431.640	80.003	19.995	100.418	19.377	50.439	0.498
728.000	432.665	80.004	19.994	100.417	19.355	52.041	0.516
730.000	433.684	80.004	19.994	100.418	19.332	53.698	0.487
732.000	434.728	80.003	19.995	100.417	19.313	55.092	0.530
734.001	435.722	80.005	19.994	100.417	19.291	56.711	0.477
736.000	436.734	80.003	19.996	100.419	19.272	58.082	0.508
738.000	437.692	80.004	19.995	100.418	19.250	59.650	0.465
740.000	438.705	80.003	19.995	100.419	19.235	60.758	0.492
742.000	439.705	80.003	19.995	100.418	19.217	62.097	0.511
744.000	440.670	80.003	19.996	100.418	19.199	63.340	0.479
746.000	441.677	80.004	19.996	100.416	19.184	64.423	0.500
748.000	442.667	80.004	19.997	100.415	19.171	65.431	0.497
750.001	443.664	80.003	19.995	100.411	19.158	66.341	0.477
752.001	444.621	80.004	19.996	100.413	19.151	66.879	0.471
754.000	445.630	80.005	19.995	100.416	19.144	67.345	0.461
756.000	446.641	80.006	19.995	100.416	19.139	67.747	0.491
758.000	447.646	80.005	19.994	100.414	19.141	67.603	0.518
760.000	448.629	80.004	19.995	100.415	19.137	67.853	0.503
762.000	449.617	80.004	19.994	100.418	19.143	67.469	0.468
764.000	450.592	80.003	19.994	100.414	19.147	67.147	0.461
766.000	451.602	80.002	19.993	100.416	19.151	66.817	0.506
768.000	452.603	80.003	19.994	100.421	19.157	66.378	0.510
770.000	453.578	80.002	19.994	100.418	19.163	65.990	0.492
772.000	454.553	80.001	19.995	100.421	19.160	66.174	0.470
774.000	455.591	80.002	19.995	100.423	19.160	66.171	0.470
776.000	456.609	80.001	19.994	100.422	19.166	65.787	0.558
778.000	457.576	80.002	19.996	100.415	19.180	64.738	0.496
780.000	458.618	80.003	19.994	100.394	19.205	62.915	0.540
782.000	459.644	80.002	19.994	100.382	19.239	60.443	0.527
784.000	460.656	80.002	19.995	100.387	19.264	58.637	0.509
786.000	461.648	80.004	19.995	100.414	19.282	57.351	0.516
788.000	462.700	80.003	19.995	100.424	19.296	56.365	0.519
790.000	463.744	80.003	19.995	100.420	19.313	55.126	0.517
792.000	464.784	80.002	19.995	100.407	19.341	53.092	0.493
794.000	465.850	80.004	19.994	100.389	19.372	50.785	0.545
796.000	466.895	80.003	19.995	100.372	19.395	49.156	0.534
798.000	467.926	80.004	19.994	100.396	19.419	47.383	0.529
800.000	468.975	80.003	19.995	100.419	19.429	46.704	0.524
802.000	469.998	80.003	19.995	100.422	19.445	45.522	0.533
804.000	471.013	80.003	19.994	100.402	19.468	43.880	0.495
806.000	472.063	80.002	19.994	100.387	19.494	41.972	0.506
808.000	473.144	80.003	19.995	100.374	19.521	40.010	0.551
810.000	474.198	80.004	19.995	100.379	19.556	37.468	0.504
812.000	475.214	80.005	19.995	100.399	19.567	36.629	0.493
814.000	476.232	80.005	19.995	100.417	19.572	36.343	0.523
816.001	477.309	80.004	19.996	100.417	19.586	35.328	0.560
818.000	478.333	80.004	19.995	100.404	19.612	33.391	0.494
820.000	479.347	80.006	19.996	100.355	19.626	32.386	0.546
822.000	480.385	80.005	19.995	100.360	19.633	31.881	0.544
824.000	481.400	80.004	19.995	100.395	19.640	31.404	0.503
826.000	482.392	80.003	19.995	100.422	19.647	30.872	0.494
828.000	483.412	80.004	19.995	100.406	19.651	30.568	0.513
830.000	484.491	80.005	19.995	100.381	19.657	30.133	0.507
832.000	485.487	80.004	19.995	100.380	19.664	29.601	0.531
834.000	486.482	80.005	19.995	100.389	19.671	29.121	0.460
836.000	487.503	80.005	19.995	100.381	19.682	28.309	0.495
838.001	488.541	80.006	19.995	100.371	19.700	26.985	0.493
840.000	489.551	80.003	19.996	100.370	19.710	26.321	0.478
842.000	490.578	80.003	19.995	100.379	19.718	25.750	0.492
844.000	491.604	80.002	19.995	100.390	19.723	25.358	0.527
846.000	492.622	80.001	19.997	100.396	19.737	24.359	0.519
848.000	493.616	80.001	19.997	100.363	19.750	23.390	0.505
850.000	494.680	80.002	19.996	100.369	19.763	22.474	0.524
852.000	495.721	80.002	19.995	100.367	19.782	21.107	0.516
854.000	496.709	80.003	19.995	100.350	19.799	19.864	0.511
856.000	497.750	80.003	19.995	100.350	19.812	18.872	0.510
858.001	498.727	80.003	19.994	100.361	19.824	18.015	0.494
860.000	499.746	80.002	19.994	100.371	19.839	16.971	0.489
862.000	500.791	80.003	19.993	100.348	19.855	15.765	0.501
864.000	501.844	80.002	19.996	100.342	19.867	14.883	0.493
866.000	502.879	80.002	19.995	100.360	19.876	14.246	0.530
868.000	503.927	80.003	19.995	100.378	19.883	13.723	0.524
870.000	504.985	80.003	19.995	100.375	19.891	13.167	0.514
872.000	505.999	80.002	19.993	100.368	19.899	12.581	0.520
874.000	507.064	80.002	19.995	100.346	19.913	11.588	0.533
876.000	508.082	80.003	19.996	100.354	19.920	11.050	0.508
878.000	509.137	80.002	19.994	100.357	19.927	10.593	0.510
880.000	510.203	80.002	19.995	100.365	19.933	10.105	0.540
882.000	511.235	80.002	19.994	100.365	19.942	9.469	0.501
884.000	512.264	80.001	19.995	100.354	19.951	8.831	0.514
886.000	513.373	80.003	19.995	100.352	19.959	8.266	0.551
888.000	514.458	80.003	19.994	100.348	19.965	7.795	0.566
890.001	515.548	80.003	19.994	100.350	19.967	7.636	0.547
892.000	516.615	80.005	19.994	100.351	19.971	7.348	0.526
894.000	517.672	80.004	19.994	100.359	19.979	6.828	0.512
896.000	518.768	80.003	19.994	100.362	19.982	6.597	0.533
898.000	519.871	80.006	19.995	100.360	19.986	6.312	0.556
900.000	520.974	80.004	19.994	100.352	19.995	5.654	0.541
902.000	522.022	80.003	19.995	100.350	19.996	5.587	0.523
904.000	523.092	80.004	19.995	100.346	20.005	4.929	0.518
906.000	524.181	80.003	19.995	100.344	20.012	4.413	0.544
908.000	525.235	80.003	19.995	100.351	20.010	4.573	0.522
910.000	526.307	80.004	19.995	100.349	20.016	4.135	0.524
912.000	527.392	80.003	19.996	100.344	20.017	4.014	0.526
914.000	528.497	80.005	19.994	100.347	20.025	3.439	0.585
916.000	529.593	80.005	19.995	100.350	20.027	3.332	0.533
918.000	530.651	80.004	19.995	100.345	20.030	3.087	0.552
920.000	531.725	80.006	19.995	100.347	20.034	2.808	0.545
922.000	532.754	80.004	19.994	100.356	20.038	2.541	0.535
924.000	533.847	80.005	19.995	100.345	20.037	2.583	0.540
926.000	534.916	80.003	19.995	100.344	20.041	2.294	0.523
928.000	535.986	80.004	19.995	100.346	20.043	2.176	0.535
930.000	537.021	80.001	19.994	100.342	20.045	2.031	0.520
932.000	538.112	80.001	19.996	100.345	20.051	1.581	0.516
934.000	539.160	80.001	19.995	100.340	20.052	1.478	0.530
936.000	540.215	80.002	19.995	100.345	20.053	1.443	0.553
938.001	541.255	80.002	19.996	100.344	20.054	1.344	0.522
940.000	542.376	80.001	19.996	100.347	20.059	0.978	0.566
942.000	543.355	80.002	19.995	100.345	20.061	0.860	0.483
944.000	544.373	80.002	19.995	100.343	20.063	0.737	0.501
946.000	545.389	80.004	19.994	100.340	20.064	0.650	0.509
948.000	546.420	80.003	19.995	100.346	20.064	0.619	0.521
950.000	547.444	80.003	19.994	100.346	20.070	0.190	0.530
952.000	548.537	80.002	19.994	100.351	20.067	0.431	0.511
954.000	549.570	80.003	19.994	100.352	20.068	0.350	0.531
956.000	550.571	80.003	19.994	100.344	20.072	0.040	0.518
958.000	551.595	80.002	19.994	100.346	20.071	0.150	0.509
960.000	552.637	80.002	19.994	100.346	20.076	-0.219	0.477
962.000	553.671	80.003	19.995	100.349	20.083	-0.727	0.509
964.000	554.739	80.001	19.995	100.344	20.080	-0.559	0.564
966.000	555.783	80.003	19.994	100.345	20.081	-0.597	0.498
968.000	556.786	80.004	19.995	100.346	20.081	-0.632	0.541
970.000	557.796	80.003	19.994	100.348	20.083	-0.731	0.526
972.000	558.811	80.003	19.995	100.351	20.081	-0.613	0.480
974.000	559.783	80.003	19.994	100.348	20.083	-0.733	0.498
976.000	560.794	80.005	19.993	100.348	20.087	-1.024	0.492
978.000	561.842	80.006	19.995	100.350	20.086	-0.953	0.534
980.000	562.821	80.005	19.994	100.347	20.087	-1.037	0.498
982.000	563.808	80.003	19.993	100.345	20.092	-1.389	0.492
984.000	564.820	80.003	19.994	100.342	20.086	-0.986	0.493
986.000	565.746	80.003	19.994	100.343	20.089	-1.202	0.474
988.000	566.755	80.004	19.994	100.342	20.088	-1.087	0.518
990.000	567.782	80.004	19.994	100.341	20.094	-1.539	0.499
992.000	568.778	80.005	19.996	100.345	20.091	-1.330	0.499
994.000	569.778	80.004	19.995	100.347	20.094	-1.539	0.526
996.000	570.766	80.005	19.995	100.351	20.091	-1.304	0.524
998.000	571.724	80.005	19.995	100.345	20.095	-1.597	0.463
1000.000	572.735	80.005	19.995	100.344	20.095	-1.603	0.516
1002.001	573.716	80.005	19.995	100.340	20.090	-1.279	0.496
1004.000	574.780	80.006	19.996	100.340	20.095	-1.634	0.520
1006.000	575.723	80.005	19.995	100.343	20.095	-1.579	0.484
1008.000	576.747	80.005	19.995	100.344	20.096	-1.662	0.486
1010.000	577.737	80.003	19.995	100.341	20.098	-1.807	0.490
1012.000	578.714	80.004	19.995	100.346	20.093	-1.485	0.508
1014.000	579.675	80.002	19.994	100.361	20.096	-1.674	0.502
1016.000	580.666	80.002	19.995	100.344	20.097	-1.787	0.505
1018.001	581.660	80.001	19.995	100.350	20.098	-1.810	0.491
1020.000	582.656	80.003	19.995	100.349	20.099	-1.917	0.503
1022.000	583.617	80.003	19.996	100.366	20.100	-2.004	0.472
1024.001	584.616	80.002	19.995	100.372	20.102	-2.115	0.500
1026.000	585.642	80.001	19.996	100.371	20.100	-2.008	0.501
1028.001	586.622	80.003	19.995	100.367	20.098	-1.801	0.509
1030.000	587.607	80.001	19.996	100.358	20.099	-1.931	0.526
1032.000	588.573	80.002	19.996	100.350	20.098	-1.850	0.467
1034.000	589.620	80.002	19.996	100.355	20.099	-1.931	0.538
1036.000	590.630	80.000	19.995	100.348	20.098	-1.816	0.506
1038.000	591.619	80.001	19.995	100.359	20.100	-1.972	0.511
1040.001	592.591	80.003	19.995	100.358	20.100	-2.000	0.496
1042.000	593.634	80.002	19.995	100.358	20.100	-1.977	0.536
1044.001	594.594	80.001	19.995	100.349	20.102	-2.085	0.515
1046.000	595.630	80.002	19.995	100.355	20.102	-2.087	0.539
1048.001	596.594	80.001	19.994	100.358	20.099	-1.915	0.472
1050.001	597.583	80.001	19.995	100.346	20.100	-1.951	0.484
1052.000	598.571	80.003	19.995	100.362	20.101	-2.024	0.515
1054.000	599.619	80.005	19.995	100.370	20.100	-1.973	0.530
1056.001	600.588	80.005	19.994	100.359	20.101	-2.048	0.506
1058.000	601.600	80.004	19.994	100.364	20.100	-1.994	0.505
1060.000	602.591	80.002	19.995	100.371	20.100	-1.941	0.490
1062.000	603.566	80.003	19.994	100.355	20.099	-1.937	0.482
1064.001	604.590	80.005	19.995	100.360	20.104	-2.230	0.517
1066.000	605.565	80.005	19.994	100.359	20.102	-2.097	0.505
1068.000	606.559	80.004	19.994	100.366	20.103	-2.200	0.490
1070.000	607.553	80.003	19.994	100.363	20.102	-2.123	0.511
1072.000	608.563	80.002	19.994	100.350	20.105	-2.334	0.533
1074.000	609.542	80.005	19.994	100.363	20.105	-2.311	0.476
1076.000	610.568	80.004	19.994	100.354	20.102	-2.095	0.520
1078.000	611.548	80.005	19.994	100.363	20.103	-2.224	0.496
1080.000	612.519	80.005	19.994	100.363	20.104	-2.269	0.508
1082.000	613.566	80.005	19.994	100.365	20.104	-2.238	0.549
1084.000	614.596	80.006	19.993	100.363	20.102	-2.141	0.489
1086.000	615.596	80.005	19.994	100.360	20.102	-2.131	0.492
1088.000	616.609	80.005	19.994	100.358	20.105	-2.321	0.484
1090.000	617.606	80.003	19.995	100.373	20.105	-2.337	0.501
1092.000	618.651	80.003	19.995	100.360	20.106	-2.384	0.496
1094.000	619.644	80.004	19.995	100.371	20.107	-2.501	0.485
1096.000	620.661	80.002	19.995	100.364	20.111	-2.764	0.509
1098.000	621.679	80.002	19.995	100.373	20.104	-2.299	0.508
1100.000	622.672	80.001	19.995	100.373	20.108	-2.566	0.500
1102.000	623.714	79.999	19.995	100.373	20.109	-2.607	0.527
1104.000	624.719	80.002	19.994	100.375	20.104	-2.242	0.507
1106.000	625.722	80.003	19.994	100.377	20.108	-2.534	0.506
1108.000	626.770	80.003	19.994	100.377	20.108	-2.532	0.502
1110.000	627.795	80.004	19.994	100.374	20.108	-2.524	0.516
1112.000	628.822	80.003	19.996	100.370	20.107	-2.487	0.519
1114.000	629.779	80.002	19.994	100.369	20.105	-2.301	0.463
1116.000	630.882	80.005	19.995	100.374	20.105	-2.331	0.586
1118.000	631.837	80.000	19.996	100.378	20.105	-2.343	0.486
1120.000	632.858	80.000	19.996	100.378	20.105	-2.366	0.499
1122.000	633.959	80.004	19.996	100.374	20.104	-2.273	0.542
1124.000	634.975	80.001	19.996	100.373	20.109	-2.643	0.512
1126.001	636.004	80.001	19.996	100.376	20.106	-2.412	0.532
1128.000	637.025	80.003	19.997	100.374	20.105	-2.343	0.506
1130.000	638.089	80.002	19.995	100.378	20.106	-2.394	0.536
1132.000	639.145	80.004	19.994	100.376	20.106	-2.422	0.520
1134.000	640.180	80.004	19.996	100.376	20.109	-2.592	0.519
1136.000	641.136	80.003	19.995	100.379	20.110	-2.708	0.485
1138.000	642.184	80.003	19.994	100.374	20.113	-2.918	0.497
1140.000	643.228	80.005	19.994	100.378	20.109	-2.627	0.508
1142.000	644.268	80.003	19.995	100.378	20.112	-2.859	0.515
1144.000	645.239	80.003	19.994	100.380	20.111	-2.764	0.488
1146.000	646.311	80.005	19.994	100.379	20.114	-3.003	0.538
1148.000	647.325	80.005	19.995	100.380	20.111	-2.795	0.510
1150.000	648.392	80.005	19.994	100.381	20.112	-2.876	0.525
1152.000	649.390	80.004	19.995	100.381	20.110	-2.726	0.487
1154.000	650.440	80.005	19.994	100.379	20.108	-2.519	0.514
1156.000	651.521	80.004	19.995	100.378	20.110	-2.714	0.527
1158.000	652.500	80.004	19.995	100.379	20.107	-2.455	0.521
1160.000	653.578	80.003	19.994	100.381	20.111	-2.766	0.549
1162.000	654.608	80.004	19.995	100.382	20.107	-2.459	0.560
1164.000	655.631	80.006	19.993	100.382	20.107	-2.515	0.517
1166.000	656.600	80.008	19.992	100.382	20.107	-2.495	0.483
1168.001	657.642	80.006	19.993	100.381	20.110	-2.710	0.514
1170.000	658.650	80.006	19.993	100.383	20.111	-2.787	0.508
1172.000	659.626	80.004	19.993	100.383	20.108	-2.523	0.500
1174.000	660.618	80.005	19.995	100.382	20.111	-2.780	0.489
1176.000	661.665	80.004	19.994	100.379	20.111	-2.750	0.520
1178.000	662.630	80.005	19.994	100.375	20.110	-2.732	0.494
1180.000	663.629	80.003	19.995	100.371	20.114	-2.975	0.487
1182.000	664.708	80.001	19.995	100.378	20.114	-2.995	0.538
1184.000	665.696	80.004	19.995	100.379	20.111	-2.801	0.499
1186.000	666.707	80.003	19.995	100.379	20.115	-3.070	0.524
1188.000	667.685	80.005	19.996	100.379	20.115	-3.033	0.486
1190.000	668.722	80.006	19.995	100.378	20.114	-3.023	0.533
1192.000	669.749	80.002	19.995	100.378	20.116	-3.108	0.511
1194.000	670.777	80.003	19.995	100.379	20.116	-3.129	0.532
1196.000	671.754	80.000	19.994	100.380	20.113	-2.904	0.496
1198.000	672.759	80.005	19.995	100.380	20.115	-3.035	0.467
1200.001	673.809	80.005	19.994	100.378	20.114	-3.003	0.531
1202.001	674.794	80.002	19.996	100.379	20.115	-3.048	0.507
1204.000	675.848	80.002	19.995	100.379	20.112	-2.813	0.481
1206.001	676.848	80.003	19.996	100.379	20.112	-2.878	0.507
1208.000	677.837	80.002	19.996	100.379	20.114	-2.979	0.490
1210.000	678.878	80.005	19.995	100.380	20.115	-3.029	0.524
1212.000	679.881	80.001	19.996	100.381	20.112	-2.849	0.527
1214.000	680.915	80.001	19.996	100.381	20.115	-3.048	0.531
1216.000	681.894	80.001	19.996	100.379	20.116	-3.110	0.514
1218.001	682.871	80.003	19.996	100.382	20.115	-3.041	0.488
1220.000	683.899	80.004	19.995	100.382	20.115	-3.096	0.518
1222.000	684.909	80.004	19.995	100.379	20.120	-3.418	0.528
1224.001	685.911	80.005	19.994	100.381	20.113	-2.884	0.527
1226.000	686.915	80.002	19.995	100.381	20.112	-2.861	0.502
1228.001	687.916	80.006	19.994	100.382	20.114	-2.956	0.520
1230.000	688.894	80.004	19.993	100.385	20.114	-3.023	0.461
1232.000	689.859	80.003	19.994	100.384	20.116	-3.137	0.511
1234.000	690.924	80.003	19.994	100.383	20.116	-3.153	0.519
1236.000	691.846	80.003	19.994	100.385	20.116	-3.110	0.464
1238.000	692.819	80.003	19.993	100.384	20.115	-3.043	0.486
1240.000	693.833	80.008	19.994	100.376	20.113	-2.906	0.503
1242.001	694.878	80.003	19.994	100.377	20.115	-3.054	0.509
1244.001	695.815	80.005	19.994	100.381	20.118	-3.272	0.458
1246.000	696.847	80.005	19.993	100.377	20.117	-3.177	0.495
1248.000	697.841	80.007	19.994	100.385	20.118	-3.246	0.498
1250.000	698.799	80.007	19.995	100.382	20.114	-2.963	0.500
1252.000	699.830	80.007	19.994	100.379	20.118	-3.278	0.512
1254.000	700.779	80.005	19.993	100.378	20.114	-3.025	0.483
1256.001	701.839	80.002	19.995	100.371	20.114	-2.955	0.504
1258.000	702.863	80.004	19.995	100.379	20.112	-2.855	0.521
1260.000	703.865	80.006	19.995	100.380	20.113	-2.896	0.492
1262.000	704.861	80.002	19.994	100.380	20.110	-2.677	0.519
1264.000	705.901	80.004	19.993	100.381	20.114	-2.985	0.490
1266.000	706.886	80.003	19.994	100.379	20.114	-2.955	0.498
1268.000	707.904	80.001	19.994	100.379	20.111	-2.748	0.514
1270.000	708.934	80.002	19.995	100.379	20.112	-2.839	0.513
1272.000	709.915	80.002	19.995	100.377	20.115	-3.027	0.513
1274.000	710.916	80.005	19.995	100.380	20.114	-2.961	0.501
1276.000	711.945	80.003	19.995	100.374	20.115	-3.062	0.494
1278.000	712.970	80.003	19.994	100.378	20.113	-2.951	0.553
1280.000	714.005	80.002	19.996	100.379	20.115	-3.040	0.524
1282.000	714.998	79.999	19.994	100.380	20.113	-2.920	0.470
1284.000	716.040	80.002	19.994	100.379	20.115	-3.076	0.539
1286.000	717.092	80.002	19.994	100.381	20.113	-2.894	0.546
1288.001	718.103	80.001	19.995	100.381	20.114	-3.013	0.546
1290.001	719.103	80.002	19.994	100.375	20.112	-2.845	0.524
1292.000	720.138	80.002	19.994	100.381	20.113	-2.894	0.545
1294.001	721.112	80.002	19.994	100.382	20.113	-2.892	0.529
1296.000	722.118	80.002	19.995	100.385	20.111	-2.756	0.489
1298.000	723.145	80.002	19.995	100.385	20.109	-2.613	0.507
1300.000	724.158	80.003	19.995	100.383	20.108	-2.574	0.535
1302.000	725.135	80.004	19.995	100.384	20.114	-2.995	0.497
1304.000	726.174	80.004	19.994	100.382	20.112	-2.845	0.534
1306.000	727.166	80.005	19.995	100.381	20.111	-2.774	0.514
1308.000	728.188	80.004	19.995	100.379	20.112	-2.874	0.510
1310.000	729.218	80.003	19.995	100.376	20.111	-2.746	0.518
1312.001	730.209	80.003	19.995	100.376	20.111	-2.746	0.525
1314.000	731.224	80.004	19.995	100.376	20.114	-2.969	0.487
1316.001	732.265	80.003	19.995	100.377	20.113	-2.928	0.520
1318.000	733.294	80.004	19.995	100.378	20.110	-2.681	0.495
1320.001	734.290	80.006	19.995	100.377	20.112	-2.843	0.504
1322.001	735.323	80.004	19.994	100.377	20.112	-2.845	0.511
1324.000	736.324	80.006	19.993	100.378	20.112	-2.831	0.494
1326.000	737.324	80.007	19.995	100.378	20.114	-2.977	0.516
1328.000	738.373	80.006	19.994	100.378	20.111	-2.775	0.489
1330.000	739.417	80.006	19.994	100.377	20.112	-2.861	0.538
1332.000	740.397	80.007	19.993	100.377	20.110	-2.683	0.537
1334.001	741.409	80.005	19.994	100.377	20.114	-2.967	0.498
1336.001	742.426	80.004	19.994	100.378	20.111	-2.805	0.516
1338.000	743.430	80.003	19.994	100.378	20.111	-2.764	0.517