File: 01_Data/PVC/MCC/PVC_MCC_30K_min_210920_R1.txt
Sample ID:	C:\MCC\PVC_MCC_30K_min_210920_R1.txt
Sample Weight (mg):	4.51
Heating Rate (C/s):	0.5
Combustor Temp (C):	900
N2 Flow Rate (cc/min):	80
O2 Flow Rate (cc/min):	20
Calibration File:	C:\MCC\MCC Cal\Coeff1 JN10440_30_210304.txt.txt
T Correction Coefficients:	0	1.024463	0
Time Shift (s):	14
*
Time (s)	Temperature (C)	N2 flow rate (cc/min)	O2 flow rate (cc/min)	Flow Rate (cc/min)	Oxygen (%)	HRR (W/g)	Heating rate (C/s)
0.000	107.299	79.995	19.995	100.111	20.303	0.066	-0.009
2.001	107.280	79.996	19.996	100.111	20.300	0.283	-0.018
4.000	107.314	79.996	19.996	100.111	20.305	-0.057	-0.027
6.001	107.307	79.996	19.995	100.110	20.300	0.282	0.003
8.000	107.329	79.998	19.996	100.106	20.299	0.370	0.051
10.000	107.306	79.997	19.995	100.113	20.301	0.227	0.019
12.000	107.288	79.998	19.995	100.124	20.298	0.386	0.003
14.000	107.288	79.998	19.993	100.126	20.297	0.474	0.003
16.000	107.298	79.997	19.995	100.147	20.291	0.871	0.039
18.000	107.340	79.997	19.994	100.161	20.293	0.777	0.019
20.000	107.354	79.996	19.996	100.169	20.295	0.592	0.003
22.000	107.410	79.997	19.993	100.181	20.293	0.752	-0.006
24.001	107.497	79.997	19.995	100.176	20.290	0.995	0.029
26.001	107.596	79.996	19.996	100.189	20.291	0.870	0.025
28.000	107.633	79.997	19.995	100.189	20.291	0.870	0.022
30.000	107.752	79.997	19.995	100.184	20.287	1.142	0.054
32.000	107.849	79.998	19.994	100.193	20.285	1.306	0.057
34.000	107.968	79.998	19.995	100.213	20.286	1.210	0.054
36.001	108.111	79.998	19.994	100.216	20.286	1.259	0.080
38.000	108.278	79.999	19.995	100.227	20.284	1.346	0.074
40.000	108.460	79.999	19.995	100.222	20.281	1.616	0.068
42.000	108.627	79.998	19.994	100.203	20.283	1.433	0.084
44.000	108.835	79.998	19.995	100.195	20.287	1.169	0.072
46.000	109.028	79.999	19.995	100.195	20.290	0.946	0.118
48.000	109.270	79.997	19.995	100.180	20.289	0.999	0.114
50.000	109.395	79.998	19.994	100.189	20.287	1.190	0.069
52.000	109.609	79.999	19.993	100.222	20.286	1.243	0.081
54.000	109.874	79.999	19.994	100.248	20.282	1.518	0.120
56.000	110.107	79.999	19.994	100.272	20.283	1.478	0.116
58.000	110.370	80.000	19.995	100.273	20.274	2.052	0.155
60.001	110.669	80.000	19.993	100.292	20.275	1.991	0.164
62.000	110.979	80.000	19.994	100.306	20.271	2.272	0.145
64.001	111.273	79.998	19.994	100.307	20.266	2.603	0.183
66.000	111.633	79.998	19.994	100.313	20.264	2.766	0.150
68.000	112.022	79.997	19.995	100.337	20.259	3.094	0.195
70.000	112.468	79.997	19.996	100.344	20.258	3.207	0.194
72.000	112.932	79.997	19.995	100.347	20.259	3.084	0.250
74.001	113.378	79.996	19.994	100.342	20.260	3.067	0.254
76.000	113.871	79.996	19.994	100.351	20.257	3.266	0.253
78.001	114.415	79.997	19.994	100.376	20.255	3.406	0.263
80.000	114.976	79.998	19.995	100.358	20.255	3.368	0.254
82.000	115.528	79.998	19.994	100.349	20.256	3.346	0.285
84.000	116.146	79.995	19.995	100.352	20.255	3.426	0.332
86.000	116.765	79.998	19.995	100.362	20.250	3.728	0.321
88.000	117.376	79.998	19.996	100.371	20.250	3.744	0.312
90.000	118.075	79.996	19.996	100.366	20.250	3.738	0.330
92.001	118.776	79.996	19.995	100.364	20.247	3.920	0.329
94.000	119.484	79.997	19.995	100.372	20.252	3.617	0.386
96.000	120.200	79.997	19.996	100.379	20.250	3.748	0.376
98.001	120.938	79.997	19.996	100.377	20.252	3.583	0.356
100.000	121.690	79.997	19.996	100.376	20.250	3.730	0.357
102.000	122.484	79.997	19.995	100.385	20.251	3.672	0.382
104.000	123.278	79.997	19.994	100.378	20.252	3.630	0.418
106.000	124.075	79.997	19.995	100.383	20.254	3.492	0.379
108.000	124.909	79.995	19.994	100.382	20.252	3.632	0.428
110.000	125.751	79.997	19.994	100.380	20.252	3.598	0.444
112.000	126.591	79.999	19.995	100.383	20.253	3.524	0.441
114.000	127.479	79.998	19.994	100.386	20.254	3.483	0.432
116.001	128.344	79.998	19.994	100.386	20.250	3.744	0.444
118.000	129.228	79.999	19.993	100.381	20.252	3.619	0.434
120.000	130.154	79.999	19.995	100.380	20.250	3.736	0.460
122.001	131.024	79.997	19.995	100.380	20.250	3.759	0.436
124.000	131.918	80.000	19.993	100.385	20.247	3.918	0.426
126.000	132.821	79.998	19.994	100.380	20.249	3.812	0.444
128.000	133.755	79.998	19.995	100.377	20.248	3.872	0.485
130.000	134.658	79.999	19.995	100.378	20.247	3.967	0.448
132.000	135.631	79.998	19.995	100.380	20.250	3.741	0.450
134.000	136.571	79.999	19.994	100.377	20.248	3.857	0.476
136.000	137.553	79.998	19.995	100.380	20.247	3.971	0.493
138.000	138.521	80.000	19.994	100.373	20.250	3.736	0.490
140.000	139.496	80.000	19.994	100.365	20.247	3.942	0.508
142.000	140.468	80.001	19.993	100.374	20.246	4.032	0.501
144.000	141.439	79.998	19.994	100.357	20.248	3.884	0.494
146.000	142.444	79.999	19.994	100.370	20.247	3.937	0.495
148.000	143.454	79.998	19.994	100.368	20.251	3.675	0.514
150.000	144.450	79.998	19.995	100.357	20.248	3.903	0.509
152.000	145.462	79.996	19.995	100.349	20.251	3.637	0.536
154.000	146.436	79.997	19.995	100.347	20.251	3.637	0.471
156.000	147.431	79.997	19.995	100.345	20.253	3.553	0.482
158.000	148.430	79.995	19.995	100.352	20.257	3.279	0.470
160.000	149.470	79.996	19.995	100.350	20.252	3.570	0.511
162.001	150.513	79.997	19.995	100.351	20.253	3.536	0.507
164.000	151.486	79.997	19.995	100.356	20.254	3.489	0.482
166.000	152.516	79.998	19.995	100.347	20.256	3.347	0.510
168.000	153.542	79.997	19.996	100.348	20.257	3.284	0.493
170.000	154.527	79.997	19.994	100.345	20.257	3.273	0.501
172.000	155.529	79.996	19.994	100.342	20.254	3.439	0.510
174.000	156.565	79.996	19.994	100.349	20.258	3.189	0.526
176.000	157.576	79.997	19.993	100.348	20.258	3.200	0.520
178.000	158.596	79.995	19.995	100.346	20.256	3.310	0.541
180.000	159.552	79.996	19.994	100.341	20.256	3.308	0.477
182.000	160.601	79.995	19.996	100.337	20.258	3.218	0.516
184.000	161.601	79.995	19.996	100.344	20.258	3.208	0.511
186.000	162.595	79.997	19.997	100.330	20.260	3.040	0.494
188.001	163.613	79.997	19.995	100.325	20.257	3.236	0.476
190.000	164.644	79.996	19.995	100.317	20.261	2.945	0.514
192.000	165.640	79.996	19.995	100.322	20.260	3.017	0.505
194.000	166.592	80.000	19.995	100.332	20.259	3.139	0.472
196.000	167.665	79.998	19.994	100.324	20.257	3.277	0.512
198.000	168.645	79.998	19.993	100.328	20.258	3.198	0.502
200.000	169.640	79.998	19.996	100.315	20.261	2.941	0.474
202.000	170.707	79.999	19.995	100.318	20.256	3.300	0.537
204.000	171.656	79.999	19.996	100.313	20.260	3.020	0.484
206.000	172.618	79.998	19.994	100.310	20.259	3.115	0.473
208.000	173.640	79.997	19.993	100.310	20.257	3.249	0.487
210.000	174.623	79.997	19.993	100.312	20.254	3.442	0.492
212.000	175.624	79.997	19.994	100.310	20.259	3.118	0.495
214.000	176.605	79.999	19.995	100.311	20.259	3.147	0.505
216.000	177.561	80.000	19.994	100.306	20.259	3.136	0.481
218.000	178.578	80.000	19.994	100.308	20.258	3.170	0.485
220.000	179.527	80.000	19.993	100.306	20.262	2.893	0.495
222.000	180.554	80.000	19.994	100.307	20.262	2.910	0.509
224.001	181.476	79.999	19.993	100.308	20.264	2.742	0.491
226.000	182.489	79.999	19.995	100.308	20.265	2.691	0.494
228.000	183.449	79.998	19.994	100.309	20.262	2.927	0.487
230.000	184.458	79.998	19.994	100.308	20.260	3.024	0.493
232.001	185.450	79.998	19.994	100.310	20.262	2.880	0.484
234.000	186.426	79.998	19.994	100.311	20.262	2.888	0.510
236.000	187.447	79.997	19.994	100.309	20.260	3.033	0.485
238.000	188.424	79.997	19.994	100.307	20.262	2.939	0.466
240.000	189.380	79.996	19.993	100.310	20.264	2.761	0.497
242.000	190.333	79.997	19.994	100.308	20.260	3.045	0.471
244.000	191.373	79.997	19.995	100.310	20.261	2.967	0.507
246.000	192.309	79.998	19.994	100.313	20.261	3.007	0.473
248.000	193.295	79.998	19.995	100.312	20.261	2.948	0.462
250.000	194.271	79.998	19.995	100.306	20.261	2.942	0.474
252.000	195.230	79.996	19.994	100.305	20.261	2.952	0.474
254.000	196.204	79.997	19.996	100.308	20.265	2.664	0.528
256.000	197.166	79.997	19.995	100.308	20.259	3.130	0.463
258.000	198.155	79.996	19.996	100.305	20.261	2.957	0.489
260.000	199.093	79.997	19.995	100.307	20.262	2.914	0.465
262.000	200.099	79.997	19.994	100.302	20.264	2.778	0.491
264.000	201.085	79.997	19.995	100.307	20.261	2.963	0.501
266.000	202.039	79.998	19.994	100.303	20.264	2.764	0.477
268.001	203.005	79.997	19.996	100.293	20.263	2.819	0.486
270.000	204.005	79.997	19.997	100.294	20.264	2.742	0.484
272.001	204.948	79.998	19.995	100.292	20.265	2.721	0.487
274.000	205.947	79.999	19.995	100.296	20.268	2.496	0.505
276.001	206.967	80.000	19.995	100.302	20.263	2.870	0.509
278.000	207.965	79.998	19.996	100.296	20.266	2.656	0.506
280.000	208.917	79.999	19.996	100.297	20.265	2.690	0.496
282.000	209.879	79.998	19.995	100.296	20.265	2.681	0.475
284.000	210.872	79.999	19.994	100.294	20.267	2.583	0.482
286.000	211.866	80.000	19.994	100.290	20.268	2.501	0.502
288.000	212.833	79.999	19.994	100.283	20.267	2.560	0.477
290.000	213.779	79.997	19.994	100.286	20.266	2.656	0.481
292.000	214.734	79.998	19.993	100.276	20.263	2.824	0.482
294.000	215.749	79.998	19.993	100.285	20.265	2.682	0.483
296.000	216.726	79.999	19.995	100.292	20.266	2.626	0.530
298.000	217.688	79.999	19.994	100.278	20.270	2.334	0.476
300.000	218.698	80.000	19.995	100.294	20.270	2.336	0.505
302.000	219.655	80.000	19.994	100.292	20.268	2.461	0.476
304.000	220.619	79.999	19.993	100.273	20.269	2.416	0.486
306.000	221.646	80.000	19.994	100.279	20.268	2.518	0.509
308.000	222.613	79.999	19.993	100.275	20.269	2.427	0.457
310.000	223.630	79.997	19.994	100.277	20.266	2.630	0.500
312.000	224.612	79.997	19.994	100.275	20.267	2.556	0.489
314.000	225.622	79.999	19.995	100.282	20.265	2.703	0.525
316.000	226.613	79.997	19.994	100.278	20.264	2.779	0.487
318.000	227.630	79.998	19.993	100.271	20.265	2.683	0.501
320.000	228.627	79.997	19.994	100.280	20.266	2.641	0.491
322.000	229.589	79.997	19.994	100.289	20.269	2.433	0.475
324.000	230.578	79.999	19.994	100.275	20.266	2.616	0.480
326.000	231.615	79.998	19.993	100.280	20.267	2.533	0.510
328.000	232.588	79.998	19.995	100.279	20.265	2.690	0.490
330.000	233.571	79.998	19.995	100.280	20.264	2.767	0.483
332.000	234.617	79.998	19.995	100.271	20.266	2.654	0.539
334.000	235.610	79.998	19.994	100.283	20.259	3.125	0.500
336.000	236.618	79.998	19.995	100.272	20.260	3.013	0.482
338.000	237.637	79.996	19.996	100.270	20.254	3.475	0.536
340.000	238.637	79.997	19.995	100.270	20.257	3.269	0.505
342.000	239.595	79.997	19.995	100.273	20.250	3.740	0.462
344.000	240.623	79.996	19.997	100.270	20.249	3.819	0.508
346.000	241.605	79.997	19.994	100.272	20.247	3.920	0.491
348.000	242.631	79.998	19.995	100.272	20.245	4.102	0.506
350.000	243.606	79.997	19.995	100.272	20.242	4.263	0.478
352.000	244.581	79.998	19.994	100.275	20.239	4.509	0.470
354.000	245.629	79.998	19.994	100.280	20.235	4.791	0.513
356.000	246.635	79.997	19.994	100.276	20.230	5.158	0.507
358.000	247.648	79.999	19.995	100.278	20.225	5.442	0.505
360.000	248.627	79.998	19.995	100.297	20.220	5.844	0.509
362.000	249.697	79.998	19.996	100.306	20.215	6.192	0.538
364.000	250.676	79.998	19.995	100.310	20.208	6.620	0.497
366.000	251.698	79.996	19.994	100.309	20.200	7.191	0.500
368.000	252.676	79.997	19.995	100.311	20.190	7.886	0.503
370.000	253.677	79.999	19.996	100.312	20.183	8.408	0.492
372.000	254.671	79.998	19.995	100.312	20.174	8.981	0.484
374.000	255.692	79.998	19.994	100.313	20.162	9.810	0.493
376.000	256.685	79.999	19.995	100.311	20.154	10.416	0.486
378.000	257.691	80.000	19.994	100.305	20.149	10.759	0.526
380.000	258.670	80.002	19.995	100.278	20.143	11.162	0.526
382.000	259.695	80.001	19.994	100.269	20.138	11.540	0.498
384.000	260.609	80.000	19.993	100.271	20.141	11.268	0.471
386.001	261.634	80.000	19.994	100.267	20.139	11.468	0.471
388.000	262.594	80.000	19.995	100.268	20.142	11.243	0.470
390.000	263.616	79.999	19.994	100.269	20.147	10.873	0.483
392.000	264.649	79.999	19.994	100.271	20.151	10.598	0.504
394.000	265.619	79.998	19.995	100.270	20.152	10.510	0.474
396.000	266.582	79.997	19.995	100.269	20.162	9.857	0.492
398.000	267.616	79.997	19.994	100.269	20.161	9.930	0.508
400.000	268.583	79.997	19.994	100.270	20.167	9.470	0.475
402.000	269.577	79.998	19.995	100.269	20.172	9.140	0.493
404.000	270.597	79.998	19.994	100.270	20.169	9.374	0.521
406.001	271.610	79.998	19.994	100.270	20.181	8.513	0.532
408.000	272.600	79.998	19.994	100.275	20.182	8.456	0.506
410.000	273.593	79.998	19.994	100.280	20.185	8.265	0.491
412.000	274.591	79.998	19.993	100.276	20.189	7.991	0.510
414.000	275.576	79.999	19.993	100.294	20.187	8.107	0.484
416.000	276.560	79.997	19.995	100.281	20.187	8.122	0.511
418.000	277.537	79.996	19.994	100.292	20.191	7.865	0.483
420.000	278.553	79.997	19.994	100.310	20.190	7.893	0.490
422.001	279.572	79.998	19.994	100.298	20.189	7.997	0.478
424.000	280.567	79.995	19.994	100.307	20.192	7.791	0.493
426.001	281.555	79.995	19.994	100.311	20.190	7.935	0.510
428.001	282.526	79.997	19.993	100.311	20.193	7.716	0.468
430.001	283.554	79.998	19.996	100.311	20.190	7.914	0.516
432.000	284.509	79.997	19.995	100.311	20.186	8.148	0.494
434.000	285.491	80.000	19.995	100.316	20.191	7.852	0.493
436.000	286.513	79.999	19.994	100.322	20.185	8.279	0.498
438.000	287.466	79.998	19.995	100.319	20.184	8.294	0.477
440.000	288.498	79.999	19.993	100.313	20.182	8.427	0.514
442.000	289.525	80.000	19.994	100.326	20.179	8.639	0.519
444.000	290.483	79.999	19.994	100.324	20.176	8.855	0.490
446.000	291.507	79.999	19.994	100.330	20.178	8.736	0.506
448.000	292.528	79.999	19.996	100.343	20.175	8.958	0.494
450.000	293.489	80.000	19.994	100.335	20.169	9.397	0.491
452.001	294.588	80.000	19.995	100.344	20.165	9.637	0.529
454.000	295.548	79.999	19.996	100.340	20.163	9.802	0.500
456.000	296.568	79.999	19.996	100.345	20.161	9.906	0.504
458.000	297.504	79.999	19.996	100.346	20.147	10.918	0.496
460.001	298.552	80.000	19.996	100.348	20.152	10.574	0.506
462.000	299.564	80.001	19.994	100.348	20.142	11.222	0.500
464.000	300.543	79.999	19.995	100.346	20.141	11.337	0.485
466.000	301.549	79.998	19.996	100.345	20.138	11.487	0.477
468.000	302.506	80.000	19.995	100.350	20.135	11.716	0.464
470.000	303.527	79.998	19.994	100.350	20.129	12.128	0.516
472.000	304.393	79.998	19.994	100.349	20.124	12.475	0.555
474.000	305.517	79.996	19.994	100.351	20.123	12.585	0.292
476.000	306.618	79.996	19.995	100.349	20.120	12.747	0.414
478.000	307.699	79.996	19.995	100.349	20.117	12.950	0.558
480.000	308.616	79.997	19.995	100.345	20.113	13.230	0.517
482.000	309.696	79.997	19.995	100.348	20.113	13.227	0.514
484.000	310.712	79.997	19.995	100.342	20.114	13.203	0.513
486.000	311.746	79.997	19.995	100.325	20.112	13.300	0.566
488.000	312.817	79.998	19.995	100.312	20.107	13.671	0.536
490.000	313.795	79.998	19.996	100.323	20.110	13.426	0.499
492.000	314.817	79.997	19.995	100.328	20.109	13.489	0.532
494.001	315.825	79.997	19.994	100.317	20.112	13.335	0.494
496.000	316.878	79.997	19.994	100.314	20.113	13.249	0.524
498.000	317.937	79.997	19.995	100.313	20.116	13.003	0.534
500.000	318.951	79.998	19.994	100.313	20.112	13.333	0.502
502.000	319.960	79.998	19.994	100.313	20.116	13.049	0.482
504.000	321.002	79.998	19.994	100.308	20.118	12.891	0.534
506.000	322.049	79.996	19.994	100.304	20.116	13.017	0.538
508.000	323.093	79.998	19.995	100.295	20.118	12.905	0.532
510.000	324.109	79.997	19.994	100.283	20.123	12.558	0.529
512.000	325.156	80.000	19.995	100.275	20.121	12.679	0.525
514.000	326.178	80.000	19.994	100.274	20.126	12.304	0.508
516.000	327.218	79.998	19.995	100.267	20.128	12.229	0.534
518.000	328.227	79.999	19.994	100.266	20.127	12.240	0.505
520.000	329.285	80.001	19.995	100.263	20.135	11.706	0.526
522.000	330.321	79.999	19.995	100.254	20.133	11.851	0.532
524.000	331.356	79.999	19.995	100.253	20.138	11.498	0.528
526.000	332.393	80.000	19.995	100.240	20.136	11.638	0.542
528.001	333.400	80.000	19.994	100.240	20.136	11.641	0.524
530.000	334.464	79.998	19.994	100.231	20.139	11.440	0.529
532.000	335.480	80.000	19.994	100.230	20.137	11.535	0.528
534.000	336.508	79.999	19.995	100.224	20.140	11.395	0.520
536.000	337.545	80.000	19.994	100.200	20.140	11.342	0.541
538.000	338.560	79.999	19.994	100.193	20.140	11.336	0.523
540.000	339.592	80.001	19.995	100.190	20.143	11.155	0.499
542.000	340.590	80.000	19.994	100.194	20.150	10.692	0.516
544.000	341.603	79.999	19.995	100.258	20.155	10.286	0.526
546.000	342.620	79.999	19.995	100.285	20.157	10.148	0.484
548.000	343.611	79.999	19.995	100.166	20.159	10.007	0.494
550.000	344.615	79.997	19.995	100.153	20.155	10.292	0.487
552.000	345.673	79.997	19.995	100.156	20.158	10.134	0.541
554.000	346.674	79.998	19.995	100.155	20.159	10.070	0.504
556.000	347.730	79.999	19.995	100.157	20.159	10.060	0.505
558.000	348.738	79.997	19.994	100.157	20.159	10.057	0.500
560.000	349.787	79.997	19.995	100.159	20.163	9.772	0.515
562.000	350.803	79.997	19.993	100.163	20.165	9.619	0.526
564.000	351.800	79.997	19.994	100.180	20.165	9.600	0.501
566.000	352.809	79.997	19.994	100.178	20.164	9.728	0.474
568.000	353.864	79.999	19.994	100.176	20.164	9.685	0.496
570.000	354.893	79.998	19.995	100.192	20.168	9.429	0.490
572.000	355.919	79.997	19.994	100.133	20.165	9.626	0.487
574.000	356.971	79.998	19.994	100.148	20.166	9.539	0.517
576.000	358.011	79.999	19.994	100.189	20.159	10.014	0.536
578.000	359.001	79.998	19.994	100.193	20.163	9.772	0.489
580.000	359.999	79.997	19.995	100.202	20.163	9.766	0.528
582.000	361.052	79.997	19.995	100.210	20.162	9.855	0.526
584.000	362.074	79.997	19.995	100.218	20.161	9.940	0.481
586.000	363.104	79.996	19.995	100.228	20.166	9.554	0.501
588.001	364.081	79.998	19.994	100.229	20.166	9.581	0.487
590.000	365.091	79.998	19.996	100.229	20.164	9.675	0.498
592.000	366.134	79.999	19.996	100.234	20.164	9.724	0.504
594.000	367.144	79.999	19.995	100.231	20.163	9.785	0.483
596.000	368.147	79.999	19.993	100.234	20.162	9.828	0.499
598.000	369.148	80.001	19.994	100.231	20.162	9.842	0.475
600.000	370.193	79.999	19.994	100.228	20.162	9.857	0.527
602.000	371.187	80.000	19.994	100.228	20.161	9.891	0.482
604.001	372.180	79.999	19.995	100.228	20.166	9.562	0.483
606.000	373.205	79.998	19.995	100.230	20.164	9.668	0.500
608.001	374.222	79.998	19.995	100.230	20.163	9.738	0.511
610.001	375.250	79.997	19.995	100.230	20.167	9.488	0.511
612.000	376.212	79.998	19.996	100.228	20.164	9.721	0.482
614.000	377.240	79.998	19.996	100.229	20.161	9.881	0.509
616.000	378.243	79.998	19.995	100.229	20.161	9.904	0.509
618.000	379.211	79.999	19.994	100.230	20.158	10.105	0.464
620.000	380.243	80.000	19.996	100.231	20.156	10.258	0.493
622.000	381.230	80.000	19.994	100.230	20.157	10.188	0.484
624.000	382.248	80.000	19.994	100.231	20.154	10.411	0.503
626.000	383.276	80.000	19.994	100.230	20.152	10.563	0.509
628.000	384.219	79.998	19.994	100.231	20.149	10.737	0.499
630.000	385.227	79.997	19.994	100.232	20.147	10.905	0.527
632.000	386.206	79.996	19.995	100.235	20.141	11.299	0.466
634.000	387.150	79.998	19.996	100.236	20.139	11.469	0.474
636.000	388.197	79.997	19.997	100.236	20.138	11.510	0.538
638.000	389.172	79.995	19.996	100.239	20.131	11.972	0.508
640.000	390.141	79.995	19.995	100.243	20.127	12.270	0.498
642.000	391.120	79.997	19.996	100.251	20.125	12.438	0.487
644.000	392.108	79.998	19.996	100.258	20.120	12.738	0.484
646.000	393.104	79.998	19.996	100.259	20.118	12.908	0.480
648.000	394.118	79.998	19.995	100.259	20.113	13.241	0.506
650.001	395.109	79.999	19.995	100.257	20.111	13.395	0.488
652.000	396.119	79.999	19.995	100.250	20.104	13.843	0.505
654.000	397.108	79.997	19.995	100.252	20.098	14.304	0.495
656.000	398.095	79.998	19.994	100.232	20.090	14.853	0.487
658.000	399.110	79.998	19.994	100.228	20.087	15.040	0.509
660.000	400.084	79.997	19.995	100.233	20.086	15.130	0.510
662.000	401.073	79.996	19.994	100.237	20.072	16.080	0.476
664.000	402.077	79.998	19.996	100.232	20.068	16.350	0.524
666.000	403.081	79.996	19.994	100.221	20.061	16.851	0.512
668.000	404.046	79.997	19.995	100.210	20.055	17.289	0.488
670.000	405.008	79.997	19.996	100.220	20.045	17.949	0.489
672.000	405.998	79.997	19.995	100.220	20.042	18.123	0.469
674.000	407.019	79.999	19.995	100.230	20.031	18.905	0.534
676.000	408.010	79.998	19.996	100.234	20.021	19.626	0.480
678.000	408.969	79.997	19.994	100.227	20.012	20.210	0.502
680.000	409.927	79.999	19.994	100.224	20.004	20.815	0.460
682.000	410.961	79.998	19.995	100.206	19.989	21.831	0.474
684.000	411.956	79.999	19.994	100.191	19.975	22.818	0.468
686.000	412.975	79.999	19.994	100.193	19.965	23.515	0.489
688.001	413.961	79.998	19.994	100.224	19.956	24.114	0.509
690.000	414.927	79.997	19.994	100.236	19.941	25.178	0.498
692.000	415.950	79.997	19.995	100.240	19.928	26.064	0.517
694.000	416.932	79.999	19.994	100.255	19.913	27.084	0.511
696.001	417.933	79.999	19.995	100.248	19.900	28.041	0.531
698.000	418.899	79.999	19.995	100.249	19.880	29.388	0.498
700.001	419.925	80.000	19.995	100.246	19.863	30.549	0.531
702.000	420.932	79.999	19.995	100.257	19.847	31.715	0.466
704.000	421.979	80.000	19.994	100.252	19.824	33.295	0.531
706.000	423.016	80.000	19.995	100.251	19.801	34.861	0.513
708.000	424.043	79.999	19.994	100.255	19.785	35.998	0.523
710.000	425.053	79.998	19.994	100.265	19.764	37.467	0.500
712.000	426.051	79.997	19.995	100.259	19.733	39.581	0.484
714.000	427.074	79.998	19.996	100.260	19.712	41.031	0.516
716.000	428.119	79.998	19.994	100.263	19.687	42.758	0.521
718.000	429.156	79.997	19.996	100.264	19.661	44.560	0.512
720.000	430.142	79.996	19.995	100.264	19.635	46.411	0.495
722.000	431.153	79.998	19.996	100.263	19.607	48.330	0.487
724.000	432.193	79.999	19.996	100.264	19.583	50.026	0.524
726.000	433.211	79.998	19.996	100.264	19.554	52.000	0.498
728.000	434.225	79.997	19.996	100.264	19.528	53.844	0.496
730.000	435.306	79.996	19.996	100.263	19.500	55.778	0.533
732.000	436.324	79.998	19.996	100.265	19.478	57.289	0.540
734.000	437.390	79.996	19.995	100.268	19.455	58.889	0.534
736.000	438.404	79.997	19.994	100.268	19.431	60.568	0.514
738.000	439.397	79.998	19.995	100.270	19.405	62.354	0.522
740.000	440.437	79.997	19.995	100.269	19.385	63.704	0.517
742.000	441.470	79.998	19.994	100.269	19.358	65.628	0.495
744.000	442.464	79.997	19.993	100.271	19.340	66.840	0.503
746.000	443.565	79.996	19.994	100.272	19.320	68.256	0.526
748.000	444.578	79.996	19.995	100.271	19.299	69.704	0.511
750.000	445.635	79.997	19.995	100.271	19.285	70.669	0.530
752.000	446.609	79.997	19.995	100.271	19.266	71.962	0.491
754.000	447.635	79.999	19.995	100.267	19.252	72.966	0.521
756.000	448.633	79.997	19.993	100.264	19.247	73.270	0.488
758.000	449.634	80.000	19.995	100.255	19.239	73.830	0.489
760.000	450.647	79.999	19.995	100.248	19.240	73.799	0.505
762.000	451.667	79.999	19.994	100.247	19.249	73.141	0.513
764.000	452.687	79.998	19.995	100.247	19.263	72.205	0.473
766.000	453.669	79.998	19.996	100.239	19.281	70.968	0.499
768.000	454.699	79.999	19.995	100.248	19.288	70.456	0.530
770.000	455.726	79.998	19.995	100.265	19.301	69.553	0.528
772.000	456.699	79.998	19.995	100.268	19.303	69.391	0.485
774.000	457.708	79.998	19.993	100.265	19.311	68.836	0.510
776.000	458.727	80.000	19.994	100.266	19.320	68.238	0.495
778.000	459.825	79.999	19.994	100.252	19.334	67.273	0.557
780.000	460.837	80.001	19.994	100.236	19.345	66.486	0.519
782.000	461.850	80.001	19.994	100.235	19.361	65.367	0.510
784.000	462.860	80.001	19.994	100.232	19.372	64.616	0.472
786.001	463.900	80.001	19.994	100.243	19.390	63.367	0.507
788.001	464.926	79.999	19.993	100.242	19.403	62.507	0.523
790.000	465.870	79.999	19.995	100.259	19.415	61.644	0.462
792.001	466.942	79.999	19.995	100.262	19.447	59.412	0.524
794.000	467.966	79.997	19.995	100.233	19.484	56.840	0.522
796.000	469.001	79.997	19.994	100.228	19.511	55.003	0.510
798.000	470.049	79.997	19.995	100.241	19.531	53.581	0.501
800.000	471.037	79.997	19.994	100.269	19.552	52.168	0.498
802.000	472.029	79.997	19.995	100.275	19.576	50.488	0.485
804.000	473.078	79.998	19.995	100.261	19.586	49.772	0.524
806.000	474.122	79.997	19.994	100.262	19.598	48.959	0.519
808.000	475.187	79.998	19.995	100.266	19.614	47.873	0.553
810.000	476.264	79.999	19.994	100.266	19.642	45.931	0.518
812.000	477.287	79.997	19.995	100.234	19.664	44.403	0.522
814.000	478.373	79.998	19.995	100.239	19.677	43.494	0.532
816.000	479.425	79.997	19.995	100.267	19.693	42.368	0.525
818.000	480.511	79.996	19.995	100.262	19.722	40.340	0.517
820.001	481.601	79.996	19.995	100.248	19.749	38.506	0.534
822.000	482.622	79.996	19.996	100.241	19.761	37.686	0.498
824.000	483.710	79.997	19.996	100.262	19.778	36.495	0.530
826.001	484.750	79.996	19.996	100.269	19.791	35.550	0.525
828.001	485.830	79.999	19.994	100.262	19.802	34.823	0.564
830.000	486.921	79.998	19.995	100.234	19.814	33.979	0.546
832.000	487.952	79.998	19.994	100.257	19.820	33.527	0.510
834.001	489.045	79.998	19.994	100.264	19.823	33.373	0.540
836.001	490.082	79.999	19.995	100.264	19.831	32.825	0.499
838.001	491.138	79.999	19.994	100.267	19.829	32.912	0.517
840.000	492.243	80.000	19.994	100.254	19.842	32.059	0.526
842.000	493.325	80.001	19.994	100.233	19.864	30.499	0.540
844.000	494.376	80.000	19.993	100.217	19.886	29.002	0.534
846.000	495.495	79.998	19.994	100.228	19.897	28.208	0.565
848.000	496.509	79.999	19.995	100.255	19.901	27.910	0.530
850.000	497.607	80.000	19.994	100.268	19.924	26.346	0.539
852.000	498.669	79.998	19.994	100.246	19.934	25.624	0.547
854.000	499.695	79.998	19.994	100.228	19.950	24.572	0.518
856.000	500.764	79.998	19.994	100.232	19.961	23.747	0.542
858.001	501.796	79.999	19.995	100.260	19.979	22.563	0.507
860.000	502.851	80.000	19.994	100.250	19.983	22.234	0.525
862.000	503.873	79.999	19.993	100.238	19.991	21.725	0.521
864.000	504.934	80.000	19.993	100.238	20.011	20.337	0.503
866.000	505.973	80.001	19.994	100.231	20.026	19.299	0.518
868.000	507.006	80.000	19.994	100.247	20.032	18.863	0.519
870.000	508.081	80.001	19.994	100.250	20.048	17.722	0.542
872.000	509.121	79.998	19.994	100.252	20.059	16.998	0.537
874.000	510.149	79.997	19.995	100.251	20.066	16.504	0.501
876.000	511.209	79.998	19.993	100.233	20.075	15.851	0.512
878.000	512.235	79.997	19.994	100.236	20.087	15.065	0.493
880.000	513.243	79.997	19.994	100.244	20.092	14.662	0.528
882.000	514.291	79.997	19.995	100.242	20.100	14.136	0.515
884.000	515.328	79.997	19.993	100.236	20.112	13.300	0.530
886.000	516.342	79.996	19.996	100.243	20.117	12.941	0.497
888.000	517.364	79.997	19.995	100.240	20.121	12.689	0.518
890.000	518.350	79.999	19.995	100.234	20.128	12.203	0.502
892.000	519.355	79.998	19.994	100.231	20.128	12.180	0.513
894.000	520.334	79.999	19.994	100.230	20.137	11.550	0.472
896.000	521.355	79.998	19.995	100.232	20.139	11.438	0.499
898.001	522.340	79.999	19.996	100.228	20.148	10.778	0.499
900.000	523.337	79.998	19.995	100.229	20.148	10.808	0.520
902.000	524.315	79.997	19.996	100.229	20.155	10.347	0.482
904.000	525.296	79.997	19.995	100.230	20.159	10.067	0.517
906.000	526.247	79.996	19.994	100.237	20.164	9.683	0.502
908.000	527.205	79.996	19.996	100.230	20.168	9.420	0.497
910.000	528.151	79.996	19.997	100.230	20.171	9.194	0.468
912.000	529.164	79.996	19.996	100.232	20.174	9.007	0.539
914.000	530.195	79.997	19.994	100.235	20.174	9.037	0.494
916.000	531.218	79.997	19.996	100.236	20.177	8.767	0.515
918.001	532.158	79.999	19.995	100.232	20.181	8.502	0.514
920.001	533.149	79.995	19.995	100.239	20.182	8.426	0.492
922.001	534.184	79.999	19.994	100.242	20.187	8.137	0.543
924.000	535.168	79.997	19.994	100.253	20.186	8.168	0.500
926.000	536.137	79.998	19.994	100.251	20.191	7.832	0.504
928.000	537.167	80.000	19.993	100.237	20.193	7.668	0.503
930.000	538.142	79.997	19.993	100.239	20.197	7.437	0.496
932.000	539.146	79.998	19.995	100.246	20.197	7.402	0.484
934.000	540.176	79.999	19.993	100.255	20.205	6.877	0.518
936.000	541.204	79.998	19.994	100.239	20.200	7.176	0.512
938.000	542.170	79.999	19.994	100.234	20.206	6.758	0.496
940.000	543.174	79.998	19.995	100.237	20.213	6.335	0.492
942.000	544.226	80.001	19.995	100.242	20.201	7.137	0.511
944.000	545.222	79.999	19.994	100.245	20.205	6.837	0.502
946.000	546.220	79.998	19.993	100.242	20.212	6.394	0.514
948.000	547.273	80.000	19.994	100.234	20.209	6.608	0.537
950.000	548.299	80.000	19.993	100.233	20.220	5.823	0.512
952.000	549.311	80.000	19.994	100.239	20.218	5.942	0.519
954.000	550.373	79.999	19.995	100.239	20.216	6.062	0.529
956.000	551.394	79.998	19.996	100.250	20.219	5.853	0.527
958.000	552.434	79.998	19.996	100.244	20.223	5.582	0.546
960.000	553.471	79.997	19.993	100.249	20.218	5.986	0.533
962.000	554.544	79.998	19.993	100.236	20.228	5.242	0.546
964.000	555.554	79.999	19.994	100.256	20.223	5.598	0.505
966.000	556.606	79.998	19.995	100.261	20.227	5.314	0.524
968.000	557.622	79.997	19.994	100.247	20.220	5.835	0.527
970.000	558.682	79.998	19.994	100.230	20.228	5.233	0.535
972.000	559.756	79.998	19.995	100.232	20.233	4.925	0.527
974.000	560.760	79.997	19.995	100.245	20.228	5.280	0.497
976.000	561.849	79.999	19.994	100.239	20.225	5.501	0.565
978.000	562.863	80.001	19.994	100.254	20.228	5.265	0.525
980.000	563.929	79.999	19.995	100.250	20.229	5.209	0.520
982.001	564.949	79.999	19.995	100.243	20.235	4.798	0.497
984.001	565.987	79.999	19.995	100.248	20.221	5.738	0.518
986.000	567.039	79.998	19.996	100.239	20.232	4.981	0.520
988.000	568.094	79.998	19.996	100.246	20.235	4.745	0.533
990.000	569.092	79.997	19.996	100.261	20.234	4.873	0.503
992.000	570.166	79.996	19.995	100.250	20.230	5.121	0.515
994.000	571.215	79.997	19.995	100.248	20.226	5.373	0.529
996.000	572.245	79.997	19.997	100.246	20.236	4.723	0.510
998.000	573.247	79.997	19.995	100.246	20.235	4.787	0.503
1000.000	574.326	79.997	19.995	100.244	20.235	4.754	0.518
1002.001	575.398	79.996	19.995	100.249	20.234	4.856	0.550
1004.000	576.432	79.999	19.996	100.238	20.235	4.743	0.516
1006.000	577.383	79.997	19.996	100.255	20.234	4.851	0.469
1008.000	578.381	79.997	19.994	100.252	20.233	4.889	0.481
1010.000	579.399	79.998	19.995	100.256	20.229	5.182	0.495
1012.000	580.416	79.996	19.995	100.243	20.239	4.501	0.515
1014.000	581.408	79.998	19.994	100.247	20.237	4.613	0.487
1016.001	582.419	79.998	19.994	100.244	20.239	4.527	0.515
1018.000	583.410	79.999	19.994	100.259	20.238	4.573	0.500
1020.000	584.405	80.001	19.995	100.252	20.236	4.721	0.505
1022.001	585.469	79.996	19.994	100.244	20.234	4.876	0.556
1024.000	586.443	80.001	19.995	100.248	20.239	4.524	0.525
1026.000	587.472	80.001	19.995	100.250	20.237	4.607	0.510
1028.001	588.492	80.001	19.995	100.240	20.233	4.889	0.504
1030.000	589.529	80.000	19.994	100.252	20.240	4.410	0.500
1032.000	590.510	80.001	19.994	100.255	20.239	4.522	0.479
1034.000	591.541	79.998	19.994	100.253	20.239	4.497	0.496
1036.000	592.640	79.997	19.995	100.250	20.232	4.965	0.525
1038.000	593.635	79.998	19.994	100.252	20.235	4.789	0.522
1040.000	594.632	79.998	19.996	100.251	20.235	4.809	0.518
1042.001	595.648	79.996	19.995	100.254	20.236	4.708	0.504
1044.001	596.657	79.998	19.995	100.256	20.238	4.584	0.511
1046.000	597.720	79.998	19.994	100.258	20.234	4.858	0.534
1048.000	598.710	79.998	19.994	100.252	20.233	4.909	0.504
1050.000	599.692	79.997	19.993	100.252	20.237	4.633	0.494
1052.000	600.706	80.001	19.995	100.237	20.237	4.619	0.510
1054.000	601.704	79.998	19.993	100.240	20.236	4.704	0.500
1056.000	602.716	79.999	19.995	100.250	20.232	4.976	0.532
1058.001	603.740	79.997	19.994	100.244	20.236	4.721	0.509
1060.001	604.725	79.997	19.994	100.248	20.232	4.961	0.485
1062.000	605.735	79.996	19.995	100.249	20.231	5.042	0.513
1064.000	606.751	79.997	19.996	100.256	20.236	4.723	0.505
1066.000	607.752	79.995	19.995	100.251	20.233	4.932	0.505
1068.000	608.748	79.996	19.996	100.258	20.234	4.836	0.502
1070.000	609.762	79.996	19.994	100.259	20.237	4.613	0.480
1072.000	610.772	79.997	19.995	100.259	20.236	4.734	0.532
1074.000	611.733	79.997	19.995	100.265	20.236	4.720	0.517
1076.000	612.786	79.997	19.994	100.260	20.238	4.590	0.530
1078.000	613.821	79.997	19.995	100.258	20.241	4.337	0.535
1080.001	614.820	79.998	19.993	100.270	20.236	4.739	0.514
1082.000	615.815	79.999	19.994	100.262	20.237	4.663	0.486
1084.000	616.860	79.997	19.994	100.249	20.234	4.856	0.500
1086.000	617.886	79.997	19.995	100.252	20.234	4.871	0.511
1088.000	618.890	80.000	19.995	100.255	20.236	4.688	0.507
1090.000	619.899	79.998	19.995	100.252	20.236	4.726	0.490
1092.000	620.905	79.997	19.996	100.240	20.236	4.676	0.514
1094.000	621.941	79.998	19.996	100.241	20.232	5.000	0.530
1096.001	622.939	79.997	19.995	100.245	20.233	4.913	0.489
1098.000	623.948	79.998	19.995	100.240	20.231	5.054	0.504
1100.000	624.956	79.998	19.995	100.248	20.232	5.008	0.520
1102.001	625.946	79.999	19.995	100.242	20.233	4.942	0.490
1104.000	626.954	80.000	19.995	100.235	20.232	5.003	0.483
1106.000	627.937	80.001	19.995	100.237	20.230	5.099	0.480
1108.000	628.981	80.000	19.994	100.261	20.230	5.100	0.516
1110.002	629.991	80.000	19.995	100.261	20.232	4.998	0.473
1112.000	631.008	79.999	19.993	100.258	20.232	4.968	0.506
1114.001	632.025	80.000	19.995	100.264	20.235	4.775	0.496
1116.000	633.004	80.001	19.994	100.259	20.234	4.870	0.485
1118.000	634.040	79.998	19.994	100.244	20.237	4.620	0.511
1120.000	635.105	79.998	19.994	100.240	20.236	4.686	0.539
1122.000	636.110	79.999	19.994	100.245	20.233	4.938	0.519
1124.000	637.111	79.997	19.994	100.249	20.229	5.186	0.499
1126.000	638.132	79.997	19.995	100.254	20.234	4.859	0.509
1128.000	639.132	79.998	19.995	100.253	20.230	5.095	0.519
1130.001	640.147	79.996	19.994	100.244	20.234	4.828	0.471
1132.001	641.129	79.996	19.995	100.247	20.231	5.031	0.490
1134.001	642.162	79.997	19.993	100.246	20.234	4.846	0.511
1136.001	643.146	79.998	19.994	100.261	20.230	5.128	0.520
1138.001	644.096	79.998	19.994	100.257	20.232	5.001	0.481
1140.001	645.076	79.996	19.994	100.254	20.230	5.150	0.480
1142.001	646.069	79.998	19.993	100.246	20.230	5.120	0.503
1144.001	647.073	79.998	19.993	100.262	20.226	5.398	0.492
1146.001	648.037	79.998	19.994	100.269	20.233	4.920	0.502
1148.001	649.018	79.996	19.994	100.263	20.229	5.213	0.484
1150.001	650.019	79.998	19.994	100.258	20.234	4.827	0.491
1152.002	650.990	79.996	19.994	100.260	20.234	4.872	0.491
1154.001	651.951	79.998	19.995	100.260	20.229	5.173	0.474
1156.001	652.959	79.999	19.996	100.248	20.233	4.929	0.517
1158.000	653.934	79.999	19.997	100.254	20.229	5.175	0.496
1160.000	654.997	79.999	19.997	100.262	20.231	5.029	0.527
1162.000	655.945	79.998	19.995	100.261	20.230	5.139	0.511
1164.000	657.000	79.999	19.996	100.265	20.229	5.219	0.521
1166.000	657.979	79.999	19.994	100.265	20.230	5.139	0.513
1168.000	658.987	80.000	19.996	100.265	20.229	5.215	0.473
1170.000	660.025	79.999	19.995	100.257	20.230	5.158	0.532
1172.000	661.022	79.999	19.996	100.258	20.225	5.471	0.482
1174.001	662.060	79.999	19.995	100.264	20.225	5.449	0.518
1176.000	663.054	79.999	19.995	100.265	20.222	5.695	0.499
1178.001	664.057	79.998	19.995	100.257	20.224	5.515	0.520
1180.001	665.057	79.999	19.996	100.264	20.227	5.326	0.495
1182.000	666.116	79.998	19.995	100.253	20.227	5.353	0.530
1184.000	667.038	79.998	19.995	100.255	20.226	5.377	0.493
1186.001	668.075	80.000	19.995	100.254	20.223	5.591	0.508
1188.001	669.077	79.998	19.996	100.255	20.228	5.279	0.503
1190.000	670.107	79.999	19.995	100.266	20.224	5.542	0.488
1192.000	671.138	79.999	19.996	100.262	20.231	5.065	0.533
1194.001	672.115	80.001	19.994	100.263	20.226	5.419	0.533
1196.000	673.214	80.000	19.993	100.259	20.222	5.688	0.536
1198.000	674.192	80.000	19.994	100.263	20.226	5.411	0.486
1200.000	675.171	79.997	19.994	100.263	20.221	5.775	0.486
1202.000	676.213	79.999	19.994	100.268	20.226	5.423	0.524
1204.000	677.243	79.996	19.994	100.263	20.228	5.229	0.542
1206.000	678.266	79.997	19.995	100.267	20.222	5.677	0.538
1208.000	679.267	79.998	19.993	100.261	20.222	5.685	0.522
1210.001	680.254	79.999	19.994	100.265	20.218	5.922	0.496
1212.001	681.303	79.998	19.995	100.263	20.224	5.542	0.496
1214.001	682.289	79.999	19.994	100.252	20.223	5.617	0.499
1216.002	683.334	79.997	19.994	100.254	20.216	6.090	0.490
1218.000	684.348	79.999	19.993	100.247	20.219	5.857	0.517
1220.000	685.328	80.000	19.995	100.261	20.218	5.968	0.466
1222.001	686.353	79.998	19.995	100.254	20.216	6.121	0.500
1224.000	687.381	79.999	19.995	100.262	20.218	5.964	0.522
1226.000	688.393	79.998	19.994	100.261	20.219	5.916	0.522
1228.000	689.365	79.998	19.995	100.259	20.214	6.235	0.471
1230.001	690.377	79.999	19.995	100.245	20.219	5.899	0.483
1232.000	691.376	79.997	19.995	100.256	20.213	6.292	0.494
1234.000	692.348	79.998	19.995	100.263	20.212	6.372	0.483
1236.000	693.339	79.998	19.996	100.260	20.217	5.992	0.528
1238.000	694.351	79.997	19.994	100.258	20.220	5.822	0.496
1240.001	695.385	79.999	19.994	100.252	20.214	6.245	0.525
1242.000	696.372	79.999	19.993	100.256	20.213	6.319	0.501
1244.000	697.388	79.999	19.995	100.263	20.211	6.418	0.479
1246.000	698.375	80.000	19.993	100.264	20.216	6.098	0.506
1248.000	699.392	79.999	19.995	100.261	20.214	6.219	0.490
1250.000	700.387	79.999	19.995	100.264	20.214	6.202	0.534
1252.000	701.393	79.998	19.996	100.261	20.218	5.964	0.515
1254.000	702.394	79.999	19.994	100.263	20.216	6.115	0.495
1256.000	703.392	79.997	19.995	100.266	20.215	6.152	0.521
1258.000	704.399	79.999	19.995	100.265	20.213	6.305	0.510
1260.000	705.426	79.999	19.993	100.258	20.214	6.219	0.523
1262.000	706.446	79.998	19.994	100.257	20.214	6.229	0.498
1264.000	707.416	79.997	19.994	100.265	20.215	6.155	0.478
1266.000	708.432	79.998	19.995	100.263	20.210	6.510	0.470
1268.000	709.400	79.999	19.994	100.256	20.213	6.276	0.490
1270.000	710.426	79.998	19.994	100.262	20.212	6.342	0.491
1272.000	711.400	80.000	19.996	100.269	20.216	6.124	0.476
1274.001	712.404	80.000	19.995	100.260	20.216	6.107	0.490
1276.001	713.387	80.000	19.994	100.262	20.212	6.404	0.458
1278.000	714.394	79.999	19.994	100.263	20.214	6.221	0.500
1280.000	715.333	79.999	19.996	100.262	20.212	6.344	0.470
1282.000	716.368	79.997	19.997	100.251	20.210	6.486	0.490
1284.001	717.365	79.997	19.997	100.255	20.211	6.440	0.510
1286.000	718.372	79.997	19.994	100.262	20.211	6.441	0.505
1288.000	719.339	79.997	19.995	100.266	20.210	6.482	0.491
1290.000	720.357	79.998	19.994	100.264	20.210	6.484	0.499
1292.001	721.335	79.998	19.995	100.267	20.213	6.276	0.481
1294.000	722.343	79.998	19.996	100.266	20.210	6.486	0.511
1296.000	723.370	79.999	19.996	100.267	20.210	6.545	0.506
1298.000	724.393	79.998	19.995	100.268	20.210	6.480	0.537
1300.000	725.424	79.998	19.995	100.267	20.207	6.736	0.547
1302.001	726.424	79.998	19.994	100.267	20.206	6.811	0.514
1304.001	727.465	79.999	19.996	100.268	20.208	6.626	0.524
1306.000	728.481	79.999	19.995	100.266	20.207	6.734	0.510
1308.000	729.521	79.999	19.996	100.267	20.204	6.910	0.512
1310.000	730.577	79.998	19.994	100.266	20.205	6.838	0.538
1312.000	731.597	79.998	19.995	100.268	20.200	7.197	0.506
1314.001	732.609	79.998	19.995	100.269	20.203	7.008	0.499
1316.000	733.658	79.998	19.994	100.269	20.204	6.942	0.489
1318.000	734.720	79.997	19.992	100.270	20.204	6.914	0.530
1320.001	735.762	79.999	19.994	100.272	20.203	6.997	0.518
1322.000	736.765	79.999	19.995	100.271	20.206	6.777	0.512
1324.000	737.834	79.997	19.995	100.270	20.202	7.052	0.540
1326.000	738.843	79.999	19.994	100.271	20.199	7.241	0.528
1328.000	739.897	79.999	19.993	100.271	20.202	7.054	0.501
1330.000	740.974	80.000	19.994	100.271	20.200	7.186	0.522
1332.000	742.041	79.999	19.995	100.270	20.203	7.018	0.514
1334.001	743.085	80.000	19.994	100.271	20.204	6.946	0.539
1334.501	743.319	79.998	19.995	100.271	20.204	6.959	0.516