File: 01_Data/Pine_Lap_Siding_Paint/STA/N2/3K_min/Pine_Lap_Siding_Paint_STA_N2_3KData_220316_R1.csv
##Temp./Â°C,Time/min,Mass loss(subtr.2)/mg,DSC(subtr.2)/(mW/mg),Sensit./(uV/mW)
50.07,10.0158,-0.01876,-0.00307851,1.04803
50.77,11.13625,-0.02156455,0.01829073,1.04772
51.47,11.52627,-0.01985285,0.03025663,1.04741
52.17,11.84723,-0.02137165,0.03549847,1.0471
52.87,12.14029,-0.02125481,0.03938933,1.0468
53.57,12.41807,-0.02187028,0.04013948,1.04649
54.27,12.6877,-0.02139105,0.04417529,1.04618
54.97,12.95284,-0.02269913,0.04379531,1.04587
55.67,13.2142,-0.02064926,0.0464573,1.04556
56.37,13.4722,-0.02434075,0.0469078,1.04525
57.07,13.7272,-0.02333325,0.04663967,1.04495
57.77,13.97848,-0.02434966,0.04789908,1.04464
58.47,14.2265,-0.02561086,0.04974142,1.04433
59.17,14.47184,-0.02434988,0.04762049,1.04402
59.87,14.7173,-0.02566155,0.04824156,1.04372
60.57,14.96328,-0.02506269,0.04984527,1.04341
61.27,15.2074,-0.02558533,0.05093687,1.04311
61.97,15.4484,-0.02566242,0.05063045,1.0428
62.67,15.6883,-0.02709084,0.05043053,1.04249
63.37,15.9279,-0.02700131,0.05298725,1.04219
64.07,16.16722,-0.02699033,0.0518316,1.04188
64.77,16.40567,-0.02718347,0.05413493,1.04158
65.47,16.643,-0.0269802,0.05168431,1.04127
66.17,16.88096,-0.02723819,0.05455676,1.04097
66.87,17.11757,-0.02698004,0.05418698,1.04067
67.57,17.35437,-0.0269199,0.05410459,1.04036
68.27,17.59106,-0.02684494,0.05175219,1.04006
68.97,17.8277,-0.02926299,0.0537694,1.03976
69.67,18.06395,-0.03095019,0.05373249,1.03945
70.37,18.30002,-0.02993999,0.05595936,1.03915
71.07,18.53641,-0.02863874,0.05452571,1.03885
71.77,18.77307,-0.03074066,0.05439357,1.03854
72.47,19.00858,-0.02994121,0.05207131,1.03824
73.17,19.24304,-0.02994064,0.05484973,1.03794
73.87,19.47788,-0.02993025,0.05361792,1.03764
74.57,19.71226,-0.02995866,0.05443974,1.03734
75.27,19.947,-0.03249144,0.05665821,1.03704
75.97,20.1811,-0.03126389,0.05312728,1.03674
76.67,20.41473,-0.03256997,0.05528507,1.03643
77.37,20.64779,-0.03256999,0.05755591,1.03613
78.07,20.88058,-0.03258502,0.05498369,1.03583
78.77,21.11373,-0.03258,0.05540563,1.03553
79.47,21.3475,-0.03394257,0.05752734,1.03523
80.17,21.58135,-0.0338894,0.05772415,1.03493
80.87,21.81469,-0.03383634,0.05880157,1.03464
81.57,22.0471,-0.03456747,0.05740221,1.03434
82.27,22.27965,-0.03530745,0.05788215,1.03404
82.97,22.5136,-0.03520721,0.05691258,1.03374
83.67,22.7474,-0.03454965,0.05543435,1.03344
84.37,22.98029,-0.03455068,0.05921791,1.03314
85.07,23.21264,-0.03588242,0.05762692,1.03284
85.77,23.44664,-0.03502169,0.06011227,1.03255
86.47,23.6806,-0.03518469,0.05790237,1.03225
87.17,23.91466,-0.03519967,0.05881342,1.03195
87.87,24.14746,-0.03580171,0.0588617,1.03165
88.57,24.38046,-0.03720422,0.05866325,1.03136
89.27,24.61293,-0.03587004,0.05764067,1.03106
89.97,24.8461,-0.03585937,0.05853091,1.03076
90.67,25.0794,-0.03587029,0.05821106,1.03047
91.37,25.31259,-0.03618184,0.05629887,1.03017
92.07,25.54562,-0.03751,0.05863498,1.02988
92.77,25.77836,-0.03652054,0.05781747,1.02958
93.47,26.01101,-0.03751029,0.05836812,1.02928
94.17,26.24363,-0.03721592,0.05733522,1.02899
94.87,26.4777,-0.03751007,0.05759601,1.02869
95.57,26.71247,-0.04035401,0.05664453,1.0284
96.27,26.94715,-0.04035928,0.05775445,1.0281
96.97,27.18003,-0.03997031,0.0574839,1.02781
97.67,27.41191,-0.03852614,0.05864317,1.02752
98.37,27.6434,-0.03725038,0.05822205,1.02722
99.07,27.8748,-0.04124648,0.05894741,1.02693
99.77,28.1067,-0.04123996,0.05962943,1.02663
100.47,28.33783,-0.04090663,0.05904152,1.02634
101.17,28.56965,-0.04093278,0.06066593,1.02605
101.87,28.8018,-0.04133668,0.05678853,1.02575
102.57,29.0333,-0.04124976,0.06123914,1.02546
103.27,29.26452,-0.03958274,0.05947879,1.02517
103.97,29.4955,-0.04091032,0.06053206,1.02487
104.67,29.72764,-0.04092525,0.06140015,1.02458
105.37,29.9593,-0.04189794,0.06200096,1.02429
106.07,30.1915,-0.04135697,0.05837422,1.024
106.77,30.42383,-0.04224538,0.06082198,1.02371
107.47,30.65568,-0.04188017,0.0627056,1.02341
108.17,30.88634,-0.04375909,0.06016317,1.02312
108.87,31.1159,-0.04222974,0.06214186,1.02283
109.57,31.34587,-0.04222947,0.06295051,1.02254
110.27,31.5756,-0.04223006,0.06249714,1.02225
110.97,31.8051,-0.04076754,0.06241063,1.02196
111.67,32.03425,-0.04221771,0.06275456,1.02167
112.37,32.26393,-0.04386902,0.0627985,1.02138
113.07,32.49538,-0.04484412,0.06342339,1.02109
113.77,32.7264,-0.04376669,0.06379964,1.0208
114.47,32.95738,-0.04459189,0.05954987,1.02051
115.17,33.1875,-0.04354996,0.06292287,1.02022
115.87,33.41805,-0.04486045,0.06242528,1.01993
116.57,33.64823,-0.04486158,0.05970743,1.01964
117.27,33.8793,-0.04419794,0.06137792,1.01935
117.97,34.1105,-0.04531598,0.05991612,1.01906
118.67,34.34258,-0.04548168,0.06252458,1.01877
119.37,34.57399,-0.04466,0.06189196,1.01848
120.07,34.80433,-0.04485999,0.0636261,1.01819
120.77,35.03374,-0.04682925,0.06176129,1.0179
121.47,35.2626,-0.04551972,0.06150404,1.01761
122.17,35.49227,-0.0460432,0.06224177,1.01732
122.87,35.7218,-0.0448923,0.06202533,1.01704
123.57,35.95169,-0.0451902,0.06260101,1.01675
124.27,36.18209,-0.04683233,0.06373833,1.01646
124.97,36.41322,-0.04678448,0.06496904,1.01617
125.67,36.64493,-0.04688806,0.06114856,1.01588
126.37,36.87659,-0.04814423,0.06257547,1.0156
127.07,37.10732,-0.04815195,0.06016195,1.01531
127.77,37.3374,-0.04814998,0.06434483,1.01502
128.47,37.56693,-0.04847828,0.06247957,1.01473
129.17,37.7978,-0.04780948,0.06440287,1.01445
129.87,38.02827,-0.04716,0.06391751,1.01416
130.57,38.25912,-0.04847957,0.06180369,1.01387
131.27,38.48992,-0.05008701,0.06357756,1.01359
131.97,38.7209,-0.04878154,0.06255043,1.0133
132.67,38.95104,-0.04880852,0.06181922,1.01301
133.37,39.18084,-0.04749975,0.06175049,1.01273
134.07,39.41015,-0.04883791,0.06531225,1.01244
134.77,39.63984,-0.04913128,0.06490429,1.01215
135.47,39.86845,-0.05045971,0.06409707,1.01187
136.17,40.09817,-0.04947167,0.06243815,1.01158
136.87,40.3277,-0.05012994,0.05953204,1.0113
137.57,40.55811,-0.05084459,0.06212799,1.01101
138.27,40.78863,-0.05011993,0.06308307,1.01073
138.97,41.01921,-0.04995657,0.06338287,1.01044
139.67,41.24901,-0.05110722,0.06295159,1.01015
140.37,41.47822,-0.04980291,0.06299326,1.00987
141.07,41.7071,-0.05111176,0.06468478,1.00958
141.77,41.9366,-0.05243,0.06412304,1.0093
142.47,42.1654,-0.05242745,0.06470546,1.00901
143.17,42.3941,-0.05144251,0.06320888,1.00873
143.87,42.62298,-0.05247343,0.06620319,1.00844
144.57,42.85217,-0.0524375,0.06481353,1.00816
145.27,43.0818,-0.05176496,0.06823121,1.00787
145.97,43.31125,-0.05177,0.0669739,1.00759
146.67,43.54013,-0.05207421,0.06636013,1.00731
147.37,43.76907,-0.05176961,0.06585101,1.00702
148.07,43.9971,-0.05171654,0.06645434,1.00674
148.77,44.22634,-0.05275212,0.06876711,1.00645
149.47,44.4559,-0.05243,0.06889814,1.00617
150.17,44.68635,-0.05230104,0.06971709,1.00588
150.87,44.9168,-0.052099,0.07103259,1.0056
151.57,45.14682,-0.05200894,0.06988809,1.00532
152.27,45.37689,-0.05147064,0.06759828,1.00503
152.97,45.60666,-0.05262123,0.07143646,1.00475
153.67,45.83602,-0.05531083,0.07078568,1.00447
154.37,46.06516,-0.05396006,0.07007792,1.00418
155.07,46.2943,-0.05660245,0.07142152,1.0039
155.77,46.52373,-0.05292178,0.0701876,1.00362
156.47,46.75176,-0.05231702,0.07178938,1.00333
157.17,46.97913,-0.0546334,0.07419818,1.00305
157.87,47.20568,-0.0558628,0.07439188,1.00277
158.57,47.43313,-0.05627,0.07244441,1.00248
159.27,47.66063,-0.05627,0.06923237,1.0022
159.97,47.88825,-0.05630189,0.07188511,1.00192
160.67,48.11535,-0.05726164,0.07135446,1.00163
161.37,48.34247,-0.05601453,0.06973614,1.00135
162.07,48.57043,-0.05718217,0.07161768,1.00107
162.77,48.79862,-0.05725251,0.07191716,1.00078
163.47,49.02725,-0.05927559,0.07292298,1.0005
164.17,49.25585,-0.05908805,0.07306923,1.00022
164.87,49.48472,-0.05890003,0.07551701,0.99994
165.57,49.71356,-0.06021018,0.0727116,0.99965
166.27,49.94207,-0.06164939,0.0723127,0.99937
166.97,50.17034,-0.06054294,0.07413667,0.99909
167.67,50.39921,-0.06119999,0.07296725,0.99881
168.37,50.62751,-0.06053698,0.07197867,0.99852
169.07,50.85602,-0.06182173,0.07657654,0.99824
169.77,51.08403,-0.06317954,0.07562877,0.99796
170.47,51.31147,-0.06392239,0.07674845,0.99768
171.17,51.53931,-0.06330953,0.07654817,0.99739
171.87,51.76715,-0.0628553,0.0771507,0.99711
172.57,51.99579,-0.0641592,0.07793894,0.99683
173.27,52.2239,-0.06284003,0.07497187,0.99655
173.97,52.45208,-0.06359241,0.07559387,0.99626
174.67,52.68025,-0.06415356,0.07741992,0.99598
175.37,52.9092,-0.06544953,0.0742447,0.9957
176.07,53.1387,-0.06771026,0.07230167,0.99542
176.77,53.3691,-0.06507217,0.07194937,0.99513
177.47,53.5989,-0.06647,0.07250765,0.99485
178.17,53.8284,-0.06511509,0.07541479,0.99457
178.87,54.05751,-0.06581526,0.07351756,0.99429
179.57,54.2866,-0.06647003,0.07676568,0.99401
180.27,54.51489,-0.06777998,0.07261915,0.99372
180.97,54.74285,-0.06909999,0.07320088,0.99344
181.67,54.9708,-0.06811048,0.07400975,0.99316
182.37,55.1982,-0.06943156,0.07376502,0.99288
183.07,55.42604,-0.06877001,0.07415984,0.99259
183.77,55.6539,-0.06942982,0.07377687,0.99231
184.47,55.88214,-0.06844642,0.07535135,0.99203
185.17,56.1105,-0.06935621,0.07420196,0.99175
185.87,56.3382,-0.0687984,0.07404707,0.99147
186.57,56.566,-0.06745056,0.07677334,0.99118
187.27,56.79328,-0.06783218,0.07401903,0.9909
187.97,57.0204,-0.06781104,0.0759072,0.99062
188.67,57.2474,-0.07108917,0.0786731,0.99034
189.37,57.47429,-0.07021204,0.07943764,0.99005
190.07,57.70205,-0.07007247,0.07898674,0.98977
190.77,57.93,-0.06938238,0.07947901,0.98949
191.47,58.1587,-0.07139984,0.07944414,0.98921
192.17,58.38763,-0.07153769,0.07876805,0.98893
192.87,58.61645,-0.07176886,0.0778044,0.98864
193.57,58.8451,-0.07110317,0.07727959,0.98836
194.27,59.0739,-0.07314131,0.08030128,0.98808
194.97,59.3028,-0.07271592,0.07729053,0.9878
195.67,59.53219,-0.07239,0.07803916,0.98751
196.37,59.761,-0.07240821,0.07548391,0.98723
197.07,59.98961,-0.07272209,0.07649502,0.98695
197.77,60.2175,-0.07340495,0.07953724,0.98667
198.47,60.4448,-0.07337,0.0783423,0.98638
199.17,60.6711,-0.07336741,0.0796565,0.9861
199.87,60.8973,-0.07369469,0.0802403,0.98582
200.57,61.12339,-0.07225446,0.07839032,0.98553
201.27,61.3505,-0.07369853,0.0792984,0.98525
201.97,61.57779,-0.07499576,0.08040528,0.98497
202.67,61.8059,-0.0731301,0.07988252,0.98469
203.37,62.0338,-0.07239522,0.08149527,0.9844
204.07,62.2614,-0.07502,0.08054137,0.98412
204.77,62.48839,-0.07402955,0.07963252,0.98384
205.47,62.71611,-0.07501853,0.07910088,0.98355
206.17,62.94364,-0.07470135,0.08059361,0.98327
206.87,63.17148,-0.07507708,0.08136203,0.98299
207.57,63.3979,-0.07388322,0.08286125,0.9827
208.27,63.6243,-0.078252,0.08222605,0.98242
208.97,63.8504,-0.07359273,0.08184193,0.98214
209.67,64.077,-0.07547919,0.08452423,0.98185
210.37,64.30484,-0.07623002,0.08298179,0.98157
211.07,64.53267,-0.07623563,0.0825953,0.98129
211.77,64.76099,-0.07619411,0.08435383,0.981
212.47,64.98894,-0.07622999,0.08263972,0.98072
213.17,65.21679,-0.07626958,0.08057636,0.98044
213.87,65.444,-0.07755012,0.08475031,0.98015
214.57,65.67066,-0.07820865,0.0853663,0.97987
215.27,65.8972,-0.07755444,0.08178163,0.97958
215.97,66.12358,-0.0758927,0.0860736,0.9793
216.67,66.34929,-0.07853,0.08722972,0.97901
217.37,66.57465,-0.0785627,0.08657519,0.97873
218.07,66.8005,-0.07821001,0.08700755,0.97845
218.77,67.02714,-0.07721937,0.08495672,0.97816
219.47,67.25399,-0.07820083,0.08850633,0.97788
220.17,67.47978,-0.07821257,0.08642347,0.97759
220.87,67.70485,-0.07781026,0.08805472,0.97731
221.57,67.9302,-0.07920001,0.0866753,0.97702
222.27,68.1562,-0.0795225,0.08710954,0.97674
222.97,68.38239,-0.07952,0.08650242,0.97645
223.67,68.60865,-0.07952195,0.08874774,0.97617
224.37,68.83487,-0.08028091,0.08652998,0.97588
225.07,69.06127,-0.08050183,0.08507314,0.9756
225.77,69.28764,-0.08085558,0.08608186,0.97531
226.47,69.51468,-0.08082735,0.08697955,0.97502
227.17,69.74139,-0.08215282,0.08526953,0.97474
227.87,69.96813,-0.08172296,0.08543601,0.97445
228.57,70.19435,-0.08230992,0.08716988,0.97417
229.27,70.42092,-0.08314031,0.08815917,0.97388
229.97,70.64816,-0.08275848,0.08938511,0.97359
230.67,70.87566,-0.08352294,0.0871225,0.97331
231.37,71.1036,-0.08479823,0.08927097,0.97302
232.07,71.3314,-0.08237575,0.08795598,0.97273
232.77,71.5594,-0.08434857,0.08857271,0.97245
233.47,71.7866,-0.0830309,0.09133617,0.97216
234.17,72.01307,-0.08532517,0.09125841,0.97187
234.87,72.2394,-0.08599013,0.09288334,0.97159
235.57,72.46592,-0.08598999,0.09279795,0.9713
236.27,72.692,-0.08551923,0.09452558,0.97101
236.97,72.91754,-0.08700482,0.09542419,0.97072
237.67,73.14203,-0.08730851,0.09659957,0.97044
238.37,73.36771,-0.08732316,0.09793636,0.97015
239.07,73.5938,-0.0883,0.09605466,0.96986
239.77,73.8203,-0.08950007,0.09886468,0.96957
240.47,74.0465,-0.08994932,0.09484125,0.96928
241.17,74.27245,-0.09093,0.10001,0.969
241.87,74.49887,-0.09126007,0.10014,0.96871
242.57,74.72507,-0.09264996,0.09873201,0.96842
243.27,74.95151,-0.09257046,0.09817531,0.96813
243.97,75.1782,-0.09243968,0.09635895,0.96784
244.67,75.4055,-0.09353971,0.09851848,0.96755
245.37,75.63335,-0.09421652,0.09873823,0.96726
246.07,75.86166,-0.094554,0.0990234,0.96697
246.77,76.09017,-0.09554444,0.09801375,0.96668
247.47,76.31829,-0.09717937,0.0992434,0.96639
248.17,76.54606,-0.09627246,0.09775631,0.9661
248.87,76.7731,-0.09894313,0.09747724,0.96581
249.57,76.99897,-0.09751259,0.09966423,0.96552
250.27,77.22446,-0.09987172,0.10048,0.96523
250.97,77.45035,-0.09948681,0.10236,0.96494
251.67,77.67698,-0.10146,0.10011,0.96465
252.37,77.90354,-0.10139,0.10001,0.96436
253.07,78.1296,-0.10278,0.099162,0.96407
253.77,78.35575,-0.10212,0.09917954,0.96378
254.47,78.58202,-0.10213,0.10085,0.96348
255.17,78.80751,-0.10277,0.09708886,0.96319
255.87,79.034,-0.1051,0.09722548,0.9629
256.57,79.26127,-0.1064,0.09566538,0.96261
257.27,79.48995,-0.10673,0.09777474,0.96232
257.97,79.71751,-0.10673,0.0966356,0.96202
258.67,79.9448,-0.10869,0.09843634,0.96173
259.37,80.17124,-0.10837,0.09895846,0.96144
260.07,80.39815,-0.10837,0.09734878,0.96114
260.77,80.62406,-0.10907,0.09903346,0.96085
261.47,80.85011,-0.10967,0.09686067,0.96056
262.17,81.07521,-0.111,0.09960164,0.96026
262.87,81.30037,-0.11135,0.09925833,0.95997
263.57,81.52614,-0.1123,0.09617454,0.95967
264.27,81.75244,-0.11337,0.09890409,0.95938
264.97,81.97951,-0.11261,0.09610589,0.95909
265.67,82.20662,-0.11395,0.09852482,0.95879
266.37,82.43411,-0.11595,0.09509898,0.9585
267.07,82.66095,-0.11561,0.09537293,0.9582
267.77,82.88818,-0.11692,0.09567418,0.9579
268.47,83.11535,-0.11691,0.09607637,0.95761
269.17,83.34353,-0.11826,0.10032,0.95731
269.87,83.57136,-0.11955,0.09627938,0.95702
270.57,83.7989,-0.12087,0.0953996,0.95672
271.27,84.02682,-0.12055,0.09480209,0.95642
271.97,84.25516,-0.12251,0.0957974,0.95613
272.67,84.4838,-0.12318,0.09164524,0.95583
273.37,84.71101,-0.12346,0.09469285,0.95553
274.07,84.93714,-0.12478,0.09637489,0.95523
274.77,85.16265,-0.12547,0.09680637,0.95494
275.47,85.38837,-0.12603,0.09803976,0.95464
276.17,85.61406,-0.12623,0.09432821,0.95434
276.87,85.84052,-0.12846,0.096249,0.95404
277.57,86.0672,-0.12941,0.09683954,0.95374
278.27,86.2938,-0.13072,0.09677261,0.95344
278.97,86.52062,-0.1323,0.09702245,0.95314
279.67,86.74803,-0.13075,0.09513081,0.95284
280.37,86.9764,-0.13275,0.09662629,0.95254
281.07,87.20482,-0.13375,0.09774176,0.95224
281.77,87.43242,-0.13469,0.09909632,0.95194
282.47,87.6593,-0.137,0.10043,0.95164
283.17,87.88546,-0.13699,0.10173,0.95134
283.87,88.1123,-0.13825,0.10172,0.95104
284.57,88.33878,-0.13994,0.10467,0.95074
285.27,88.56605,-0.14094,0.10204,0.95044
285.97,88.79349,-0.14094,0.0990203,0.95014
286.67,89.02157,-0.14375,0.0970176,0.94983
287.37,89.24973,-0.14393,0.09837276,0.94953
288.07,89.47806,-0.14565,0.10237,0.94923
288.77,89.70738,-0.14588,0.10024,0.94893
289.47,89.93603,-0.14851,0.10143,0.94862
290.17,90.16487,-0.14917,0.10218,0.94832
290.87,90.3932,-0.15082,0.10246,0.94802
291.57,90.6225,-0.15213,0.10257,0.94771
292.27,90.8519,-0.15333,0.10083,0.94741
292.97,91.0815,-0.15377,0.10445,0.9471
293.67,91.31007,-0.15798,0.1056,0.9468
294.37,91.5377,-0.15653,0.10572,0.94649
295.07,91.76496,-0.15945,0.10836,0.94619
295.77,91.99248,-0.16291,0.10593,0.94588
296.47,92.2197,-0.16016,0.10673,0.94558
297.17,92.44651,-0.16278,0.10598,0.94527
297.87,92.67411,-0.16408,0.10867,0.94496
298.57,92.90168,-0.1667,0.11162,0.94465
299.27,93.1302,-0.16832,0.11103,0.94435
299.97,93.35784,-0.17099,0.1092,0.94404
300.67,93.58596,-0.17122,0.11079,0.94373
301.37,93.8142,-0.17389,0.11011,0.94342
302.07,94.04257,-0.17726,0.1113,0.94312
302.77,94.27041,-0.18002,0.11351,0.94281
303.47,94.49813,-0.18246,0.11275,0.9425
304.17,94.72601,-0.18317,0.11067,0.94219
304.87,94.95449,-0.18515,0.11229,0.94188
305.57,95.1821,-0.18844,0.11569,0.94157
306.27,95.40905,-0.18877,0.11319,0.94126
306.97,95.63563,-0.19121,0.11493,0.94095
307.67,95.8631,-0.19453,0.11157,0.94064
308.37,96.0916,-0.19501,0.11319,0.94032
309.07,96.3216,-0.1989,0.11162,0.94001
309.77,96.55176,-0.20239,0.10912,0.9397
310.47,96.782,-0.20685,0.10817,0.93939
311.17,97.0112,-0.20685,0.10997,0.93908
311.87,97.23992,-0.20855,0.1097,0.93876
312.57,97.46805,-0.21385,0.10766,0.93845
313.27,97.6956,-0.2164,0.11147,0.93814
313.97,97.92291,-0.21872,0.11192,0.93782
314.67,98.14994,-0.22137,0.11206,0.93751
315.37,98.37736,-0.2253,0.1158,0.93719
316.07,98.60513,-0.22705,0.1144,0.93688
316.77,98.8335,-0.22856,0.11559,0.93656
317.47,99.0625,-0.23121,0.11448,0.93625
318.17,99.29119,-0.23616,0.11571,0.93593
318.87,99.51957,-0.23879,0.11121,0.93561
319.57,99.74799,-0.24172,0.11535,0.9353
320.27,99.97702,-0.24676,0.11524,0.93498
320.97,100.207,-0.24795,0.11353,0.93466
321.67,100.437,-0.25122,0.1135,0.93434
322.37,100.666,-0.25458,0.11133,0.93403
323.07,100.895,-0.25579,0.11098,0.93371
323.77,101.123,-0.26084,0.11081,0.93339
324.47,101.351,-0.26347,0.11258,0.93307
325.17,101.578,-0.26549,0.11321,0.93275
325.87,101.8042,-0.26876,0.11327,0.93243
326.57,102.032,-0.27268,0.11361,0.93211
327.27,102.261,-0.27431,0.11106,0.93179
327.97,102.491,-0.27718,0.11188,0.93147
328.67,102.721,-0.28013,0.1107,0.93115
329.37,102.952,-0.28327,0.10684,0.93082
330.07,103.184,-0.28858,0.10817,0.9305
330.77,103.414,-0.28979,0.10816,0.93018
331.47,103.644,-0.29112,0.10581,0.92986
332.17,103.873,-0.29373,0.10721,0.92953
332.87,104.103,-0.29773,0.10608,0.92921
333.57,104.332,-0.299,0.10868,0.92889
334.27,104.56,-0.30261,0.10739,0.92856
334.97,104.789,-0.30623,0.10827,0.92824
335.67,105.017,-0.3092,0.11062,0.92791
336.37,105.245,-0.31052,0.10808,0.92759
337.07,105.473,-0.31183,0.10935,0.92726
337.77,105.701,-0.31484,0.10749,0.92693
338.47,105.929,-0.31842,0.10713,0.92661
339.17,106.158,-0.32135,0.10754,0.92628
339.87,106.387,-0.32205,0.10765,0.92595
340.57,106.615,-0.32428,0.10899,0.92562
341.27,106.843,-0.32577,0.10498,0.92529
341.97,107.071,-0.3273,0.10866,0.92497
342.67,107.3,-0.33124,0.10649,0.92464
343.37,107.529,-0.33252,0.10999,0.92431
344.07,107.758,-0.33532,0.10888,0.92398
344.77,107.986,-0.33791,0.10549,0.92365
345.47,108.213,-0.33785,0.10668,0.92332
346.17,108.441,-0.34172,0.10888,0.92298
346.87,108.668,-0.34312,0.10717,0.92265
347.57,108.897,-0.34443,0.10296,0.92232
348.27,109.126,-0.34708,0.10404,0.92199
348.97,109.355,-0.34836,0.10367,0.92165
349.67,109.584,-0.3517,0.10376,0.92132
350.37,109.814,-0.35162,0.10299,0.92099
351.07,110.044,-0.35392,0.10243,0.92065
351.77,110.275,-0.35463,0.10209,0.92032
352.47,110.506,-0.35725,0.10035,0.91998
353.17,110.736,-0.35855,0.10379,0.91965
353.87,110.966,-0.35988,0.10115,0.91931
354.57,111.196,-0.3612,0.1013,0.91898
355.27,111.426,-0.36252,0.10244,0.91864
355.97,111.656,-0.3628,0.10234,0.9183
356.67,111.886,-0.36521,0.10361,0.91796
357.37,112.116,-0.36613,0.1069,0.91763
358.07,112.347,-0.36745,0.10311,0.91729
358.77,112.577,-0.36877,0.10485,0.91695
359.47,112.807,-0.3711,0.1057,0.91661
360.17,113.036,-0.37404,0.10599,0.91627
360.87,113.264,-0.37532,0.10478,0.91593
361.57,113.492,-0.37596,0.10566,0.91559
362.27,113.719,-0.3759,0.10499,0.91525
362.97,113.947,-0.37995,0.10883,0.91491
363.67,114.174,-0.37994,0.10718,0.91456
364.37,114.403,-0.3812,0.10823,0.91422
365.07,114.632,-0.38552,0.10966,0.91388
365.77,114.862,-0.3872,0.10993,0.91353
366.47,115.091,-0.38982,0.11007,0.91319
367.17,115.321,-0.39121,0.11221,0.91285
367.87,115.551,-0.39378,0.11097,0.9125
368.57,115.782,-0.39772,0.11027,0.91216
369.27,116.014,-0.39906,0.11047,0.91181
369.97,116.2448,-0.40035,0.11127,0.91146
370.67,116.476,-0.40162,0.10719,0.91112
371.37,116.707,-0.40435,0.11046,0.91077
372.07,116.937,-0.40735,0.10928,0.91042
372.77,117.167,-0.40955,0.11222,0.91007
373.47,117.398,-0.41354,0.11354,0.90973
374.17,117.627,-0.41525,0.11412,0.90938
374.87,117.856,-0.41776,0.11264,0.90903
375.57,118.086,-0.4205,0.11472,0.90868
376.27,118.316,-0.42438,0.11743,0.90833
376.97,118.546,-0.42831,0.11658,0.90798
377.67,118.776,-0.43043,0.11644,0.90762
378.37,119.005,-0.43276,0.11681,0.90727
379.07,119.234,-0.43437,0.1155,0.90692
379.77,119.463,-0.43814,0.11703,0.90657
380.47,119.6922,-0.44226,0.11709,0.90621
381.17,119.922,-0.44429,0.1168,0.90586
381.87,120.152,-0.44752,0.11691,0.90551
382.57,120.3809,-0.45172,0.11548,0.90515
383.27,120.61,-0.45468,0.11836,0.9048
383.97,120.8405,-0.45799,0.11747,0.90444
384.67,121.072,-0.46269,0.11646,0.90408
385.37,121.304,-0.46399,0.11855,0.90373
386.07,121.5351,-0.46893,0.11974,0.90337
386.77,121.766,-0.47154,0.11896,0.90301
387.47,121.995,-0.47406,0.12071,0.90265
388.17,122.224,-0.47818,0.11996,0.9023
388.87,122.453,-0.48094,0.11771,0.90194
389.57,122.683,-0.48385,0.12027,0.90158
390.27,122.913,-0.48744,0.12017,0.90122
390.97,123.144,-0.48876,0.11744,0.90086
391.67,123.374,-0.49283,0.11542,0.90049
392.37,123.605,-0.49406,0.11653,0.90013
393.07,123.835,-0.49937,0.11343,0.89977
393.77,124.065,-0.50204,0.11164,0.89941
394.47,124.296,-0.50363,0.11317,0.89904
395.17,124.526,-0.50731,0.11306,0.89868
395.87,124.756,-0.50768,0.10951,0.89832
396.57,124.986,-0.51003,0.10979,0.89795
397.27,125.215,-0.51125,0.10859,0.89759
397.97,125.445,-0.51386,0.1075,0.89722
398.67,125.675,-0.51697,0.1077,0.89685
399.37,125.907,-0.51852,0.10752,0.89649
400.07,126.14,-0.52133,0.10556,0.89612
400.77,126.374,-0.52211,0.10413,0.89575
401.47,126.607,-0.52336,0.10478,0.89538
402.17,126.84,-0.52474,0.10453,0.89501
402.87,127.071,-0.52625,0.10608,0.89464
403.57,127.302,-0.52876,0.10449,0.89427
404.27,127.532,-0.52933,0.10574,0.8939
404.97,127.762,-0.5309,0.10479,0.89353
405.67,127.9922,-0.53168,0.10703,0.89316
406.37,128.223,-0.53397,0.10215,0.89279
407.07,128.453,-0.53263,0.0994511,0.89242
407.77,128.685,-0.53527,0.1024,0.89204
408.47,128.916,-0.53658,0.09958949,0.89167
409.17,129.147,-0.53912,0.10046,0.89129
409.87,129.379,-0.53924,0.1006,0.89092
410.57,129.611,-0.5379,0.10197,0.89054
411.27,129.842,-0.53921,0.10043,0.89017
411.97,130.074,-0.54185,0.10239,0.88979
412.67,130.3049,-0.54019,0.10115,0.88941
413.37,130.536,-0.54255,0.10441,0.88904
414.07,130.767,-0.54382,0.10501,0.88866
414.77,130.997,-0.54513,0.10501,0.88828
415.47,131.228,-0.54606,0.10544,0.8879
416.17,131.4594,-0.54765,0.10767,0.88752
416.87,131.69,-0.54781,0.10377,0.88714
417.57,131.92,-0.54884,0.10416,0.88676
418.27,132.15,-0.54911,0.10725,0.88638
418.97,132.38,-0.55007,0.10492,0.886
419.67,132.61,-0.55142,0.10791,0.88561
420.37,132.839,-0.55304,0.10686,0.88523
421.07,133.068,-0.55304,0.10576,0.88485
421.77,133.298,-0.55468,0.10712,0.88446
422.47,133.529,-0.55656,0.10932,0.88408
423.17,133.76,-0.5583,0.10804,0.88369
423.87,133.992,-0.55699,0.10974,0.88331
424.57,134.223,-0.5586,0.10969,0.88292
425.27,134.4553,-0.56048,0.11157,0.88253
425.97,134.687,-0.56232,0.11323,0.88215
426.67,134.918,-0.56323,0.11138,0.88176
427.37,135.149,-0.56257,0.11415,0.88137
428.07,135.379,-0.5638,0.11336,0.88098
428.77,135.609,-0.56653,0.11384,0.88059
429.47,135.84,-0.56763,0.11326,0.8802
430.17,136.071,-0.56906,0.11316,0.87981
430.87,136.303,-0.56935,0.11249,0.87942
431.57,136.535,-0.57072,0.11097,0.87903
432.27,136.767,-0.57135,0.11211,0.87863
432.97,136.998,-0.57235,0.11569,0.87824
433.67,137.229,-0.57385,0.11689,0.87785
434.37,137.461,-0.57524,0.11305,0.87745
435.07,137.6932,-0.57632,0.11459,0.87706
435.77,137.926,-0.57893,0.115,0.87666
436.47,138.16,-0.57991,0.11456,0.87627
437.17,138.392,-0.58019,0.11298,0.87587
437.87,138.624,-0.58156,0.11455,0.87547
438.57,138.854,-0.58418,0.11635,0.87507
439.27,139.084,-0.58419,0.11632,0.87468
439.97,139.3132,-0.58518,0.11711,0.87428
440.67,139.542,-0.5865,0.11796,0.87388
441.37,139.771,-0.58878,0.1194,0.87348
442.07,140,-0.58912,0.1184,0.87308
442.77,140.231,-0.58979,0.11939,0.87267
443.47,140.464,-0.59174,0.1177,0.87227
444.17,140.696,-0.59373,0.1188,0.87187
444.87,140.929,-0.59439,0.11725,0.87147
445.57,141.163,-0.59376,0.11703,0.87106
446.27,141.397,-0.5957,0.11656,0.87066
446.97,141.63,-0.59801,0.11874,0.87025
447.67,141.863,-0.59658,0.11896,0.86985
448.37,142.096,-0.60032,0.12065,0.86944
449.07,142.327,-0.60005,0.11915,0.86903
449.77,142.5582,-0.6013,0.12216,0.86863
450.47,142.789,-0.60337,0.12082,0.86822
451.17,143.019,-0.60294,0.12186,0.86781
451.87,143.25,-0.60561,0.12126,0.8674
452.57,143.482,-0.60525,0.12106,0.86699
453.27,143.7153,-0.6059,0.1209,0.86658
453.97,143.948,-0.60722,0.12086,0.86617
454.67,144.18,-0.60854,0.12025,0.86576
455.37,144.413,-0.60953,0.11973,0.86535
456.07,144.646,-0.60952,0.11819,0.86493
456.77,144.879,-0.61133,0.11844,0.86452
457.47,145.111,-0.61347,0.12117,0.86411
458.17,145.344,-0.61247,0.11868,0.86369
458.87,145.577,-0.61512,0.1221,0.86328
459.57,145.809,-0.61366,0.11911,0.86286
460.27,146.04,-0.61632,0.11767,0.86245
460.97,146.272,-0.61646,0.12403,0.86203
461.67,146.503,-0.61544,0.12638,0.86161
462.37,146.735,-0.61843,0.12833,0.86119
463.07,146.9665,-0.61973,0.12548,0.86077
463.77,147.199,-0.6184,0.12418,0.86035
464.47,147.4305,-0.6207,0.12479,0.85993
465.17,147.662,-0.62236,0.12726,0.85951
465.87,147.894,-0.62137,0.12777,0.85909
466.57,148.128,-0.62436,0.12551,0.85867
467.27,148.361,-0.62236,0.12504,0.85825
467.97,148.595,-0.62501,0.12611,0.85782
468.67,148.828,-0.62368,0.12707,0.8574
469.37,149.06,-0.62518,0.12718,0.85698
470.07,149.291,-0.6264,0.127,0.85655
470.77,149.522,-0.62487,0.12915,0.85613
471.47,149.752,-0.62708,0.13145,0.8557
472.17,149.984,-0.62774,0.1309,0.85527
472.87,150.215,-0.62778,0.1292,0.85484
473.57,150.446,-0.62997,0.13033,0.85442
474.27,150.678,-0.62815,0.12917,0.85399
474.97,150.911,-0.63004,0.12917,0.85356
475.67,151.145,-0.63136,0.12907,0.85313
476.37,151.38,-0.63136,0.13248,0.8527
477.07,151.613,-0.63234,0.1361,0.85227
477.77,151.844,-0.63259,0.13913,0.85183
478.47,152.075,-0.63134,0.14152,0.8514
479.17,152.3063,-0.63431,0.14257,0.85097
479.87,152.538,-0.63536,0.14006,0.85054
480.57,152.77,-0.63478,0.14102,0.8501
481.27,153.002,-0.63368,0.14347,0.84967
481.97,153.234,-0.63501,0.14384,0.84923
482.67,153.467,-0.63531,0.1439,0.84879
483.37,153.7,-0.63662,0.14476,0.84836
484.07,153.935,-0.63531,0.14293,0.84792
484.77,154.17,-0.637,0.14398,0.84748
485.47,154.404,-0.63891,0.14524,0.84704
486.17,154.638,-0.63754,0.14661,0.8466
486.87,154.871,-0.63858,0.14712,0.84616
487.57,155.103,-0.63991,0.14906,0.84572
488.27,155.334,-0.63991,0.14909,0.84528
488.97,155.565,-0.64024,0.14935,0.84484
489.67,155.797,-0.64196,0.14172,0.8444
490.37,156.031,-0.64119,0.14601,0.84395
491.07,156.265,-0.64127,0.14031,0.84351
491.77,156.499,-0.64123,0.13687,0.84306
492.47,156.733,-0.64188,0.13958,0.84262
493.17,156.967,-0.6423,0.13886,0.84217
493.87,157.201,-0.6432,0.14125,0.84173
494.57,157.435,-0.64385,0.14101,0.84128
495.27,157.668,-0.64517,0.14283,0.84083
495.97,157.9,-0.6432,0.142,0.84038
496.67,158.13,-0.64394,0.13788,0.83993
497.37,158.361,-0.64478,0.13626,0.83948
498.07,158.5923,-0.64583,0.13488,0.83903
498.77,158.826,-0.64451,0.13437,0.83858
499.47,159.061,-0.64616,0.13501,0.83813
500.17,159.295,-0.64434,0.13263,0.83768
500.87,159.529,-0.64648,0.12997,0.83723
501.57,159.763,-0.6469,0.13248,0.83677
502.27,159.997,-0.6465,0.13187,0.83632
502.97,160.231,-0.6478,0.13406,0.83586
503.67,160.465,-0.64715,0.13459,0.83541
504.37,160.697,-0.64644,0.13451,0.83495
505.07,160.93,-0.64982,0.13276,0.83449
505.77,161.162,-0.64846,0.13213,0.83404
506.47,161.395,-0.64838,0.13234,0.83358
507.17,161.627,-0.64848,0.13266,0.83312
507.87,161.8612,-0.64912,0.13451,0.83266
508.57,162.094,-0.64976,0.12973,0.8322
509.27,162.328,-0.64879,0.13501,0.83174
509.97,162.561,-0.65142,0.13522,0.83128
510.67,162.795,-0.65089,0.13583,0.83082
511.37,163.029,-0.65044,0.13552,0.83035
512.07,163.263,-0.6511,0.13675,0.82989
512.77,163.497,-0.65114,0.13816,0.82943
513.47,163.731,-0.65176,0.13766,0.82896
514.17,163.9641,-0.65176,0.14076,0.8285
514.87,164.197,-0.65241,0.13862,0.82803
515.57,164.43,-0.65241,0.13768,0.82756
516.27,164.662,-0.65372,0.13794,0.8271
516.97,164.8948,-0.65241,0.13664,0.82663
517.67,165.127,-0.65245,0.13961,0.82616
518.37,165.36,-0.65258,0.13982,0.82569
519.07,165.594,-0.6543,0.13967,0.82522
519.77,165.828,-0.65337,0.14197,0.82475
520.47,166.061,-0.65299,0.13965,0.82428
521.17,166.296,-0.65391,0.14275,0.82381
521.87,166.531,-0.65439,0.14307,0.82333
522.57,166.767,-0.65439,0.14476,0.82286
523.27,167.003,-0.65307,0.14246,0.82239
523.97,167.241,-0.65364,0.14533,0.82191
524.67,167.478,-0.65265,0.14466,0.82144
525.37,167.713,-0.65406,0.14557,0.82096
526.07,167.947,-0.65505,0.14782,0.82049
526.77,168.1791,-0.65505,0.14488,0.82001
527.47,168.411,-0.65529,0.14856,0.81953
528.17,168.643,-0.65471,0.14834,0.81905
528.87,168.876,-0.6557,0.14572,0.81857
529.57,169.109,-0.65504,0.14483,0.81809
530.27,169.343,-0.65715,0.14365,0.81761
530.97,169.576,-0.65636,0.14443,0.81713
531.67,169.808,-0.65639,0.14592,0.81665
532.37,170.04,-0.65781,0.14663,0.81617
533.07,170.272,-0.65511,0.14888,0.81568
533.77,170.506,-0.65603,0.14952,0.8152
534.47,170.741,-0.65702,0.14638,0.81472
535.17,170.976,-0.65792,0.14687,0.81423
535.87,171.21,-0.65702,0.15107,0.81375
536.57,171.443,-0.65799,0.15388,0.81326
537.27,171.677,-0.65899,0.15388,0.81277
537.97,171.911,-0.65795,0.15152,0.81228
538.67,172.146,-0.65792,0.15495,0.8118
539.37,172.381,-0.66027,0.15265,0.81131
540.07,172.6168,-0.65899,0.15002,0.81082
540.77,172.852,-0.65866,0.155,0.81033
541.47,173.086,-0.65854,0.1538,0.80984
542.17,173.32,-0.65998,0.15578,0.80934
542.87,173.553,-0.66005,0.15396,0.80885
543.57,173.7861,-0.65998,0.15443,0.80836
544.27,174.019,-0.65866,0.15256,0.80786
544.97,174.253,-0.66006,0.15514,0.80737
545.67,174.488,-0.66152,0.15412,0.80688
546.37,174.723,-0.66068,0.15515,0.80638
547.07,174.957,-0.6615,0.15415,0.80588
547.77,175.19,-0.6602,0.15588,0.80539
548.47,175.422,-0.66085,0.1562,0.80489
549.17,175.654,-0.66067,0.15543,0.80439
549.87,175.887,-0.6635,0.15861,0.80389
550.57,176.121,-0.66316,0.15827,0.80339
551.27,176.3561,-0.66124,0.15646,0.80289
551.97,176.591,-0.66391,0.15771,0.80239
552.67,176.827,-0.66284,0.15753,0.80189
553.37,177.062,-0.66381,0.15728,0.80139
554.07,177.2981,-0.66349,0.15276,0.80088
554.77,177.534,-0.66447,0.1536,0.80038
555.47,177.77,-0.66342,0.15297,0.79988
556.17,178.005,-0.6648,0.15367,0.79937
556.87,178.239,-0.66382,0.15257,0.79886
557.57,178.472,-0.66655,0.15057,0.79836
558.27,178.705,-0.66618,0.15495,0.79785
558.97,178.938,-0.66614,0.15222,0.79734
559.67,179.1719,-0.66579,0.15223,0.79684
560.37,179.406,-0.66491,0.15412,0.79633
561.07,179.64,-0.66606,0.15746,0.79582
561.77,179.874,-0.66778,0.15747,0.79531
562.47,180.108,-0.66645,0.15735,0.7948
563.17,180.341,-0.66744,0.15735,0.79428
563.87,180.5748,-0.66745,0.15669,0.79377
564.57,180.809,-0.66711,0.15858,0.79326
565.27,181.044,-0.66782,0.15838,0.79275
565.97,181.28,-0.66679,0.15689,0.79223
566.67,181.5167,-0.66977,0.15735,0.79172
567.37,181.753,-0.6671,0.16025,0.7912
568.07,181.991,-0.66811,0.16033,0.79068
568.77,182.227,-0.66843,0.15794,0.79017
569.47,182.464,-0.6684,0.16232,0.78965
570.17,182.699,-0.67007,0.16093,0.78913
570.87,182.932,-0.67007,0.16413,0.78861
571.57,183.165,-0.67138,0.16711,0.78809
572.27,183.397,-0.67153,0.16596,0.78757
572.97,183.632,-0.67072,0.16589,0.78705
573.67,183.867,-0.67172,0.1675,0.78653
574.37,184.101,-0.67172,0.16617,0.78601
575.07,184.333,-0.67205,0.16938,0.78549
575.77,184.566,-0.67303,0.16755,0.78496
576.47,184.8,-0.67177,0.16905,0.78444
577.17,185.034,-0.67271,0.16653,0.78391
577.87,185.268,-0.67318,0.16785,0.78339
578.57,185.503,-0.67467,0.17101,0.78286
579.27,185.737,-0.67501,0.17205,0.78234
579.97,185.973,-0.67599,0.17564,0.78181
580.67,186.209,-0.67762,0.17502,0.78128
581.37,186.445,-0.67429,0.17661,0.78075
582.07,186.682,-0.67568,0.17549,0.78022
582.77,186.918,-0.67689,0.17863,0.77969
583.47,187.155,-0.67876,0.17648,0.77916
584.17,187.39,-0.67842,0.17407,0.77863
584.87,187.626,-0.6783,0.17725,0.7781
585.57,187.859,-0.67837,0.18013,0.77756
586.27,188.094,-0.67962,0.18051,0.77703
586.97,188.33,-0.67994,0.18215,0.7765
587.67,188.565,-0.67994,0.18274,0.77596
588.37,188.799,-0.68093,0.18478,0.77543
589.07,189.033,-0.68059,0.18591,0.77489
589.77,189.266,-0.68126,0.1867,0.77435
590.47,189.4979,-0.68384,0.18757,0.77382
591.17,189.73,-0.68422,0.19049,0.77328
591.87,189.964,-0.68422,0.19203,0.77274
592.57,190.199,-0.68555,0.19121,0.7722
593.27,190.436,-0.68829,0.19451,0.77166
593.97,190.674,-0.68568,0.19527,0.77112
594.67,190.9111,-0.68697,0.19642,0.77058
595.37,191.1477,-0.68856,0.19713,0.77004
596.07,191.383,-0.69089,0.19955,0.7695
596.77,191.618,-0.69126,0.19852,0.76895
597.47,191.8534,-0.6919,0.20135,0.76841
598.17,192.089,-0.69322,0.2019,0.76786
598.87,192.325,-0.6952,0.205,0.76732
599.57,192.559,-0.69519,0.20737,0.76677
600.27,192.793,-0.6979,0.2107,0.76623
600.97,193.027,-0.69794,0.21499,0.76568
601.67,193.261,-0.69816,0.21356,0.76513
602.37,193.495,-0.70078,0.21673,0.76458
603.07,193.728,-0.70177,0.2213,0.76403
603.77,193.963,-0.70301,0.22307,0.76349
604.47,194.198,-0.70374,0.22212,0.76294
605.17,194.434,-0.70478,0.22242,0.76238
605.87,194.669,-0.70668,0.22691,0.76183
606.57,194.904,-0.70801,0.22605,0.76128
607.27,195.14,-0.70934,0.22475,0.76073
607.97,195.375,-0.71055,0.22786,0.76017
608.67,195.611,-0.71199,0.2301,0.75962
609.37,195.8459,-0.7138,0.23223,0.75907
610.07,196.081,-0.71591,0.23511,0.75851
610.77,196.316,-0.71592,0.23736,0.75795
611.47,196.55,-0.71722,0.23937,0.7574
612.17,196.7857,-0.71993,0.24447,0.75684
612.87,197.0224,-0.72119,0.24628,0.75628
613.57,197.26,-0.72252,0.2505,0.75572
614.27,197.497,-0.72376,0.24768,0.75516
614.97,197.7332,-0.72513,0.25326,0.7546
615.67,197.969,-0.72757,0.25099,0.75404
616.37,198.204,-0.72902,0.25913,0.75348
617.07,198.439,-0.73305,0.26229,0.75292
617.77,198.674,-0.73303,0.26271,0.75236
618.47,198.91,-0.73566,0.26606,0.75179
619.17,199.147,-0.73883,0.26753,0.75123
619.87,199.384,-0.73961,0.26999,0.75067
620.57,199.62,-0.74158,0.27416,0.7501
621.27,199.854,-0.74455,0.28053,0.74954
621.97,200.087,-0.74523,0.28234,0.74897
622.67,200.321,-0.74719,0.28066,0.7484
623.37,200.556,-0.74981,0.28465,0.74784
624.07,200.793,-0.75246,0.28413,0.74727
624.77,201.029,-0.75375,0.2904,0.7467
625.47,201.266,-0.75639,0.28769,0.74613
626.17,201.502,-0.7564,0.29017,0.74556
626.87,201.737,-0.76043,0.29842,0.74499
627.57,201.972,-0.76287,0.29863,0.74442
628.27,202.2077,-0.76519,0.30579,0.74385
628.97,202.4428,-0.76715,0.31051,0.74327
629.67,202.678,-0.76979,0.31138,0.7427
630.37,202.914,-0.77228,0.31391,0.74213
631.07,203.1497,-0.77602,0.31377,0.74155
631.77,203.385,-0.7781,0.32251,0.74098
632.47,203.621,-0.78091,0.32456,0.7404
633.17,203.857,-0.78392,0.33004,0.73983
633.87,204.094,-0.78646,0.33246,0.73925
634.57,204.33,-0.79028,0.3362,0.73867
635.27,204.566,-0.79379,0.34119,0.73809
635.97,204.802,-0.79786,0.34102,0.73751
636.67,205.039,-0.79916,0.34629,0.73693
637.37,205.276,-0.80242,0.35014,0.73635
638.07,205.514,-0.80434,0.35179,0.73577
638.77,205.751,-0.811,0.35469,0.73519
639.47,205.988,-0.81361,0.3606,0.73461
640.17,206.225,-0.81603,0.35932,0.73403
640.87,206.461,-0.82045,0.36702,0.73345
641.57,206.696,-0.8235,0.37423,0.73286
642.27,206.93,-0.8288,0.37678,0.73228
642.97,207.165,-0.83143,0.38239,0.73169
643.67,207.4,-0.83473,0.39278,0.73111
644.37,207.634,-0.8388,0.39626,0.73052
645.07,207.869,-0.84353,0.40002,0.72993
645.77,208.103,-0.8471,0.40502,0.72935
646.47,208.338,-0.85,0.41287,0.72876
647.17,208.573,-0.85547,0.4162,0.72817
647.87,208.807,-0.85941,0.42534,0.72758
648.57,209.0422,-0.86395,0.42863,0.72699
649.27,209.278,-0.86865,0.43115,0.7264
649.97,209.516,-0.87254,0.43717,0.72581
650.67,209.7541,-0.88053,0.44397,0.72522
651.37,209.991,-0.88389,0.45085,0.72463
652.07,210.228,-0.8873,0.45206,0.72403
652.77,210.465,-0.8924,0.4604,0.72344
653.47,210.702,-0.8991,0.46256,0.72285
654.17,210.939,-0.90452,0.4696,0.72225
654.87,211.175,-0.90909,0.47688,0.72166
655.57,211.41,-0.91434,0.48293,0.72106
656.27,211.646,-0.91975,0.48682,0.72047
656.97,211.8814,-0.92516,0.49236,0.71987
657.67,212.117,-0.93219,0.50075,0.71927
658.37,212.353,-0.93759,0.50774,0.71867
659.07,212.588,-0.94346,0.51216,0.71807
659.77,212.823,-0.94832,0.51931,0.71748
660.47,213.058,-0.95546,0.52549,0.71688
661.17,213.294,-0.95989,0.53145,0.71627
661.87,213.528,-0.96767,0.53614,0.71567
662.57,213.763,-0.97339,0.54503,0.71507
663.27,213.997,-0.98017,0.54934,0.71447
663.97,214.233,-0.98816,0.55912,0.71387
664.67,214.469,-0.99413,0.56775,0.71326
665.37,214.705,-0.99925,0.57205,0.71266
666.07,214.942,-1.00712,0.57771,0.71206
666.77,215.1782,-1.01487,0.58502,0.71145
667.47,215.415,-1.02268,0.59347,0.71084
668.17,215.653,-1.02911,0.59676,0.71024
668.87,215.891,-1.03777,0.60505,0.70963
669.57,216.128,-1.04553,0.61358,0.70902
670.27,216.366,-1.05243,0.62364,0.70842
670.97,216.602,-1.061,0.63159,0.70781
671.67,216.839,-1.06947,0.63834,0.7072
672.37,217.075,-1.07678,0.6431,0.70659
673.07,217.3095,-1.08368,0.64982,0.70598
673.77,217.544,-1.09289,0.65629,0.70537
674.47,217.78,-1.10079,0.66801,0.70476
675.17,218.015,-1.10923,0.6739,0.70414
675.87,218.25,-1.11634,0.68073,0.70353
676.57,218.486,-1.12613,0.68702,0.70292
677.27,218.724,-1.13486,0.69376,0.70231
677.97,218.961,-1.14312,0.69906,0.70169
678.67,219.197,-1.15326,0.71113,0.70108
679.37,219.434,-1.1636,0.71619,0.70046
680.07,219.67,-1.17247,0.72372,0.69984
680.77,219.907,-1.18281,0.73547,0.69923
681.47,220.145,-1.19238,0.74324,0.69861
682.17,220.383,-1.20254,0.74945,0.69799
682.87,220.622,-1.21266,0.7565,0.69738
683.57,220.859,-1.22172,0.76323,0.69676
684.27,221.095,-1.23053,0.77056,0.69614
684.97,221.329,-1.24395,0.78082,0.69552
685.67,221.5634,-1.25326,0.78741,0.6949
686.37,221.798,-1.26355,0.79563,0.69428
687.07,222.033,-1.27369,0.80142,0.69366
687.77,222.269,-1.2838,0.80864,0.69303
688.47,222.505,-1.29547,0.81428,0.69241
689.17,222.742,-1.30652,0.81971,0.69179
689.87,222.979,-1.31837,0.827,0.69116
690.57,223.216,-1.3304,0.83682,0.69054
691.27,223.453,-1.34059,0.83882,0.68991
691.97,223.688,-1.35217,0.84507,0.68929
692.67,223.923,-1.36285,0.84495,0.68866
693.37,224.1589,-1.37432,0.84993,0.68804
694.07,224.396,-1.38768,0.85108,0.68741
694.77,224.633,-1.39883,0.85527,0.68678
695.47,224.869,-1.40975,0.85889,0.68616
696.17,225.105,-1.42202,0.8599,0.68553
696.87,225.3419,-1.43372,0.85653,0.6849
697.57,225.579,-1.44439,0.85174,0.68427
698.27,225.817,-1.45666,0.85543,0.68364
698.97,226.055,-1.46831,0.84754,0.68301
699.67,226.294,-1.47952,0.83857,0.68238
700.37,226.532,-1.49311,0.82634,0.68174
701.07,226.769,-1.50331,0.81294,0.68111
701.77,227.005,-1.51403,0.80022,0.68048
702.47,227.24,-1.52649,0.78029,0.67985
703.17,227.475,-1.53678,0.75506,0.67921
703.87,227.71,-1.54564,0.73004,0.67858
704.57,227.947,-1.55496,0.69088,0.67794
705.27,228.1833,-1.56447,0.64385,0.67731
705.97,228.419,-1.57282,0.58698,0.67667
706.67,228.654,-1.58074,0.49976,0.67604
707.37,228.887,-1.58672,0.34292,0.6754
708.07,229.122,-1.58805,0.19055,0.67476
708.77,229.357,-1.58933,0.13325,0.67412
709.47,229.594,-1.58805,0.11382,0.67349
710.17,229.832,-1.58935,0.10466,0.67285
710.87,230.071,-1.59001,0.10143,0.67221
711.57,230.309,-1.59067,0.10592,0.67157
712.27,230.547,-1.59042,0.10066,0.67093
712.97,230.785,-1.59168,0.1036,0.67029
713.67,231.0231,-1.59314,0.10278,0.66964
714.37,231.26,-1.59034,0.10226,0.669
715.07,231.496,-1.591,0.10332,0.66836
715.77,231.732,-1.58968,0.09895928,0.66772
716.47,231.967,-1.5904,0.10184,0.66707
717.17,232.201,-1.59036,0.10025,0.66643
717.87,232.436,-1.58965,0.10436,0.66579
718.57,232.672,-1.58968,0.09669387,0.66514
719.27,232.908,-1.59033,0.09685603,0.6645
719.97,233.146,-1.59111,0.09737,0.66385
720.67,233.385,-1.59012,0.09880504,0.6632
721.37,233.625,-1.59143,0.09836271,0.66256
722.07,233.863,-1.59078,0.09440124,0.66191
722.77,234.101,-1.59078,0.09376379,0.66126
723.47,234.339,-1.59045,0.09002886,0.66061
724.17,234.577,-1.59247,0.09410124,0.65996
724.87,234.812,-1.59242,0.09263569,0.65931
725.57,235.047,-1.59242,0.0926029,0.65866
726.27,235.282,-1.59242,0.09111195,0.65801
726.97,235.518,-1.59143,0.0897937,0.65736
727.67,235.752,-1.59341,0.08657154,0.65671
728.37,235.987,-1.59341,0.0874484,0.65606
729.07,236.224,-1.59347,0.08667929,0.65541
729.77,236.463,-1.59558,0.08497457,0.65476
730.47,236.702,-1.5943,0.0842131,0.6541
731.17,236.942,-1.59332,0.08428071,0.65345
731.87,237.182,-1.59528,0.08804482,0.6528
732.57,237.421,-1.59523,0.08610556,0.65214
733.27,237.659,-1.59561,0.08466103,0.65149
733.97,237.897,-1.59361,0.08083209,0.65083
734.67,238.133,-1.59495,0.08403773,0.65018
735.37,238.369,-1.59495,0.08332354,0.64952
736.07,238.603,-1.59365,0.08059833,0.64886
736.77,238.839,-1.59429,0.08324706,0.64821
737.47,239.075,-1.59528,0.07985431,0.64755
738.17,239.313,-1.59527,0.08429057,0.64689
738.87,239.55,-1.59528,0.08123617,0.64623
739.57,239.787,-1.59462,0.07814395,0.64557
740.27,240.024,-1.59528,0.07625575,0.64491
740.97,240.263,-1.59661,0.07899469,0.64425
741.67,240.503,-1.59527,0.07149254,0.64359
742.37,240.741,-1.59527,0.07291235,0.64293
743.07,240.979,-1.59523,0.07689727,0.64227
743.77,241.216,-1.59659,0.07041539,0.64161
744.47,241.452,-1.59561,0.07086278,0.64095
745.17,241.688,-1.59556,0.07503974,0.64028
745.87,241.924,-1.59691,0.07124121,0.63962
746.57,242.16,-1.59692,0.06934064,0.63896
747.27,242.396,-1.59821,0.06828211,0.63829
747.97,242.632,-1.59681,0.06552451,0.63763
748.67,242.868,-1.59789,0.06451381,0.63696
749.37,243.1037,-1.59669,0.07017803,0.6363
750.07,243.338,-1.59779,0.06130256,0.63563
750.77,243.573,-1.59793,0.06506059,0.63497
751.47,243.809,-1.59851,0.06099623,0.6343
752.17,244.0471,-1.59757,0.06294838,0.63363
752.87,244.287,-1.59805,0.06221807,0.63297
753.57,244.526,-1.59795,0.06418867,0.6323
754.27,244.765,-1.59813,0.06540094,0.63163
754.97,245.003,-1.59911,0.06779829,0.63096
755.67,245.241,-1.59787,0.05909181,0.63029
756.37,245.476,-1.59714,0.06139082,0.62962
757.07,245.711,-1.59846,0.06419839,0.62895
757.77,245.947,-1.59977,0.0646115,0.62828
758.47,246.184,-1.59879,0.06220161,0.62761
759.17,246.42,-1.59982,0.06555497,0.62694
759.87,246.657,-1.59911,0.06218135,0.62627
760.57,246.894,-1.60003,0.06077208,0.6256
761.27,247.132,-1.6001,0.06433413,0.62493
761.97,247.372,-1.59871,0.06442165,0.62425
762.67,247.611,-1.60085,0.05756079,0.62358
763.37,247.851,-1.60109,0.06087277,0.62291
764.07,248.09,-1.59976,0.06116853,0.62223
764.77,248.329,-1.60131,0.06271956,0.62156
765.47,248.5661,-1.59944,0.06238899,0.62089
766.17,248.802,-1.60044,0.06232362,0.62021
766.87,249.037,-1.60109,0.06069818,0.61954
767.57,249.272,-1.6018,0.06190949,0.61886
768.27,249.508,-1.59911,0.06281932,0.61818
768.97,249.746,-1.60241,0.06424235,0.61751
769.67,249.984,-1.60241,0.0651253,0.61683
770.37,250.222,-1.60109,0.06015761,0.61615
771.07,250.46,-1.60074,0.06202753,0.61548
771.77,250.697,-1.6001,0.06491541,0.6148
772.47,250.933,-1.6024,0.06429025,0.61412
773.17,251.168,-1.6024,0.06749971,0.61344
773.87,251.405,-1.60043,0.06410643,0.61276
774.57,251.641,-1.60174,0.06396037,0.61208
775.27,251.878,-1.6015,0.06153092,0.6114
775.97,252.115,-1.60208,0.06071335,0.61072
776.67,252.3523,-1.60209,0.06328953,0.61004
777.37,252.589,-1.60122,0.06350883,0.60936
778.07,252.8248,-1.60244,0.06161343,0.60868
778.77,253.06,-1.60306,0.06077451,0.608
779.47,253.296,-1.60307,0.06410698,0.60731
780.17,253.534,-1.60438,0.06277259,0.60663
780.87,253.7709,-1.602,0.06785813,0.60595
781.57,254.0089,-1.60471,0.06834566,0.60527
782.27,254.246,-1.60407,0.06533192,0.60458
782.97,254.485,-1.60603,0.06709482,0.6039
783.67,254.723,-1.60372,0.06679406,0.60321
784.37,254.962,-1.60471,0.0637379,0.60253
785.07,255.2004,-1.60471,0.06619579,0.60184
785.77,255.439,-1.60372,0.06430028,0.60116
786.47,255.677,-1.6064,0.06588825,0.60047
787.17,255.915,-1.60639,0.06909464,0.59979
787.87,256.153,-1.60504,0.06703881,0.5991
788.57,256.392,-1.60632,0.06481434,0.59842
789.27,256.631,-1.60771,0.06748812,0.59773
789.97,256.869,-1.60624,0.06444049,0.59704
790.67,257.106,-1.60702,0.06430346,0.59635
791.37,257.342,-1.6057,0.0676348,0.59567
792.07,257.577,-1.60715,0.06283346,0.59498
792.77,257.813,-1.60716,0.06153544,0.59429
793.47,258.048,-1.60828,0.06298909,0.5936
794.17,258.285,-1.60728,0.06127472,0.59291
794.87,258.523,-1.60701,0.06415023,0.59222
795.57,258.762,-1.60833,0.06281013,0.59153
796.27,259.0019,-1.6088,0.06484242,0.59084
796.97,259.242,-1.60767,0.06079149,0.59015
797.67,259.481,-1.60903,0.06211806,0.58946
798.37,259.7184,-1.60882,0.06439623,0.58877
799.07,259.954,-1.60881,0.06945122,0.58808
799.77,260.189,-1.60963,0.06431907,0.58739
800.47,260.425,-1.61038,0.06923085,0.58669
801.17,260.662,-1.60865,0.06894073,0.586
801.87,260.901,-1.60964,0.06608922,0.58531
802.57,261.142,-1.60964,0.06698932,0.58462
803.27,261.384,-1.61062,0.06600204,0.58392
803.97,261.626,-1.6102,0.06750519,0.58323
804.67,261.865,-1.60898,0.05929677,0.58253
805.37,262.102,-1.6103,0.06106964,0.58184
806.07,262.338,-1.6103,0.0614801,0.58115
806.77,262.573,-1.60898,0.06213387,0.58045
807.47,262.8084,-1.61027,0.06210958,0.57976
808.17,263.047,-1.61029,0.06466728,0.57906
808.87,263.286,-1.6103,0.06066631,0.57837
809.57,263.526,-1.61129,0.06524657,0.57767
810.27,263.765,-1.60997,0.06514248,0.57697
810.97,264.003,-1.61071,0.06060418,0.57628
811.67,264.241,-1.61191,0.06477076,0.57558
812.37,264.479,-1.61094,0.06323559,0.57488
813.07,264.717,-1.61095,0.06300162,0.57419
813.77,264.9548,-1.61123,0.06371553,0.57349
814.47,265.193,-1.61187,0.06211024,0.57279
815.17,265.431,-1.61195,0.06409992,0.57209
815.87,265.668,-1.61227,0.06272549,0.57139
816.57,265.905,-1.61293,0.06307424,0.5707
817.27,266.143,-1.61293,0.06524165,0.57
817.97,266.381,-1.61195,0.06863667,0.5693
818.67,266.619,-1.61273,0.06464917,0.5686
819.37,266.857,-1.61228,0.06749053,0.5679
820.07,267.094,-1.6136,0.07007279,0.5672
820.77,267.333,-1.61161,0.06332577,0.5665
821.47,267.571,-1.61293,0.0650857,0.5658
822.17,267.81,-1.61293,0.05983281,0.5651
822.87,268.047,-1.6126,0.06300699,0.5644
823.57,268.285,-1.61455,0.06144034,0.5637
824.27,268.522,-1.61326,0.06075639,0.56299
824.97,268.759,-1.61327,0.06355188,0.56229
825.67,268.998,-1.61458,0.06432705,0.56159
826.37,269.237,-1.61497,0.06684599,0.56089
827.07,269.476,-1.61392,0.0655049,0.56019
827.77,269.715,-1.61422,0.06310547,0.55948
828.47,269.954,-1.61392,0.06038564,0.55878
829.17,270.191,-1.6019,0.05685023,0.55808
829.87,270.428,-1.61007,0.06180399,0.55737
830.57,270.665,-1.6194,0.05856564,0.55667
831.27,270.901,-1.61973,0.0626724,0.55597
831.97,271.138,-1.61579,0.05640843,0.55526
832.67,271.375,-1.61672,0.05469387,0.55456
833.37,271.614,-1.61165,0.05544117,0.55386
834.07,271.855,-1.61783,0.05901793,0.55315
834.77,272.0965,-1.62268,0.05807795,0.55245
835.47,272.338,-1.62686,0.05543983,0.55174
836.17,272.577,-1.62111,0.05237661,0.55104
836.87,272.8152,-1.61845,0.05228551,0.55033
837.57,273.052,-1.6168,0.0484871,0.54962
838.27,273.29,-1.61809,0.04767515,0.54892
838.97,273.528,-1.61743,0.05238222,0.54821
839.67,273.767,-1.61807,0.05749659,0.54751
840.37,274.006,-1.61743,0.05176407,0.5468
841.07,274.244,-1.61876,0.05037077,0.54609
841.77,274.482,-1.61876,0.04778421,0.54539
842.47,274.718,-1.61677,0.04220591,0.54468
843.17,274.9561,-1.61844,0.04352345,0.54397
843.87,275.195,-1.61802,0.04569038,0.54326
844.57,275.434,-1.61842,0.04054722,0.54256
845.27,275.671,-1.61974,0.04190972,0.54185
845.97,275.909,-1.61765,0.04389144,0.54114
846.67,276.146,-1.61974,0.04264099,0.54043
847.37,276.384,-1.61974,0.0432508,0.53972
848.07,276.6213,-1.61833,0.04062634,0.53902
848.17,276.655,-1.61991,0.03836093,0.53891