File: 01_Data/Cotton_Sheet/MCC/Cotton_Sheet_MCC_30K_min_220107_R2.txt
Sample ID:	C:\MCC\MCC Cal\Test\Cotton_Sheets_MCC_30K_min_220107_R2.txt
Sample Weight (mg):	4.97
Heating Rate (C/s):	0.5
Combustor Temp (C):	900
N2 Flow Rate (cc/min):	80
O2 Flow Rate (cc/min):	20
Calibration File:	C:\MCC\MCC Cal\Coeff1 JN10440_30_210304.txt.txt
T Correction Coefficients:	0	1.024463	0
Time Shift (s):	14
*
Time (s)	Temperature (C)	N2 flow rate (cc/min)	O2 flow rate (cc/min)	Flow Rate (cc/min)	Oxygen (%)	HRR (W/g)	Heating rate (C/s)
0.000	110.953	80.004	19.995	104.081	20.243	0.120	-0.142
2.000	111.189	80.004	19.992	104.076	20.244	0.063	-0.071
4.000	111.000	80.004	19.993	104.073	20.246	-0.073	0.002
6.000	111.114	80.003	19.993	104.068	20.240	0.329	0.020
8.000	110.966	80.004	19.993	104.068	20.243	0.106	0.046
10.000	110.907	80.005	19.993	104.065	20.245	0.032	-0.048
12.000	111.016	80.002	19.994	104.068	20.241	0.285	-0.111
14.000	111.021	80.003	19.994	104.065	20.240	0.363	0.041
16.000	110.912	80.003	19.993	104.065	20.243	0.167	-0.035
18.000	111.076	80.002	19.995	104.071	20.242	0.172	-0.006
20.000	111.069	80.003	19.994	104.064	20.243	0.109	0.006
22.000	110.915	80.005	19.993	104.062	20.242	0.211	0.022
24.000	110.941	80.003	19.993	104.063	20.241	0.295	-0.035
26.000	110.912	80.004	19.993	104.061	20.243	0.111	-0.090
28.000	110.930	80.004	19.993	104.062	20.243	0.138	-0.049
30.000	110.979	80.004	19.993	104.063	20.240	0.353	0.009
32.000	111.011	80.004	19.993	104.065	20.238	0.448	0.037
34.000	111.017	80.004	19.993	104.063	20.237	0.512	0.012
36.000	110.977	80.004	19.994	104.059	20.238	0.484	-0.028
38.000	110.971	80.004	19.993	104.083	20.237	0.498	0.044
40.000	111.027	80.004	19.994	104.102	20.237	0.530	0.052
42.000	111.016	80.003	19.993	104.094	20.237	0.559	-0.023
44.000	110.953	80.003	19.993	104.084	20.238	0.471	0.009
46.000	111.001	80.003	19.993	104.097	20.236	0.568	0.036
48.000	110.996	80.003	19.993	104.100	20.230	0.957	-0.004
50.000	111.010	80.005	19.992	104.112	20.230	0.957	0.072
52.000	111.047	80.005	19.992	104.138	20.228	1.090	0.036
54.000	111.047	80.007	19.992	104.145	20.223	1.463	0.015
56.000	111.205	80.006	19.995	104.178	20.222	1.530	0.039
58.000	111.320	80.006	19.993	104.184	20.219	1.689	0.047
60.000	111.397	80.006	19.993	104.182	20.215	1.975	0.069
62.000	111.517	80.004	19.993	104.209	20.213	2.118	0.066
64.000	111.682	80.003	19.992	104.221	20.211	2.249	0.122
66.000	111.841	80.002	19.993	104.228	20.208	2.423	0.085
68.000	112.027	80.003	19.993	104.227	20.206	2.553	0.087
70.000	112.341	80.003	19.992	104.238	20.204	2.675	0.122
72.000	112.549	80.003	19.994	104.244	20.202	2.808	0.134
74.000	112.803	80.002	19.994	104.243	20.203	2.735	0.112
76.000	113.117	80.004	19.994	104.236	20.200	2.981	0.157
78.000	113.421	80.002	19.994	104.240	20.199	3.008	0.120
80.000	113.804	80.004	19.993	104.268	20.195	3.273	0.150
82.000	114.188	80.003	19.993	104.285	20.194	3.331	0.173
84.000	114.620	80.005	19.993	104.295	20.191	3.551	0.246
86.000	114.985	80.004	19.993	104.296	20.188	3.724	0.218
88.001	115.429	80.003	19.992	104.307	20.192	3.492	0.188
90.000	115.908	80.002	19.994	104.334	20.190	3.584	0.226
92.001	116.380	80.002	19.993	104.342	20.192	3.472	0.246
94.001	116.894	80.001	19.993	104.308	20.189	3.691	0.261
96.000	117.426	80.003	19.993	104.305	20.189	3.681	0.249
98.000	117.917	80.003	19.993	104.303	20.190	3.612	0.254
100.000	118.462	80.002	19.993	104.302	20.191	3.560	0.265
102.000	119.066	80.002	19.993	104.303	20.188	3.715	0.281
104.001	119.675	80.003	19.993	104.304	20.190	3.580	0.301
106.001	120.295	80.003	19.994	104.303	20.188	3.729	0.341
108.000	120.859	80.004	19.994	104.295	20.192	3.505	0.294
110.000	121.534	80.004	19.993	104.291	20.188	3.736	0.346
112.000	122.116	80.005	19.992	104.298	20.188	3.745	0.288
114.001	122.803	80.004	19.993	104.300	20.189	3.681	0.311
116.000	123.450	80.004	19.993	104.303	20.188	3.747	0.320
118.000	124.159	80.004	19.993	104.305	20.189	3.692	0.383
120.001	124.821	80.004	19.995	104.306	20.188	3.710	0.361
122.000	125.564	80.004	19.993	104.304	20.185	3.939	0.322
124.000	126.212	80.003	19.994	104.309	20.186	3.882	0.356
126.000	126.930	80.004	19.994	104.298	20.187	3.774	0.371
128.000	127.693	80.004	19.993	104.302	20.182	4.104	0.382
130.000	128.399	80.003	19.993	104.318	20.185	3.944	0.401
132.000	129.110	80.004	19.993	104.315	20.185	3.955	0.403
134.001	129.861	80.005	19.994	104.302	20.182	4.101	0.351
136.000	130.616	80.004	19.993	104.311	20.183	4.077	0.423
138.000	131.363	80.005	19.995	104.306	20.181	4.184	0.397
140.000	132.168	80.006	19.995	104.295	20.178	4.387	0.344
142.000	132.971	80.004	19.993	104.294	20.177	4.480	0.418
144.000	133.795	80.005	19.993	104.295	20.176	4.546	0.411
146.000	134.660	80.003	19.993	104.322	20.177	4.463	0.417
148.000	135.431	80.003	19.992	104.334	20.173	4.712	0.388
150.000	136.307	80.003	19.994	104.336	20.174	4.632	0.422
152.000	137.118	80.002	19.992	104.344	20.172	4.763	0.438
154.000	137.967	80.003	19.994	104.368	20.176	4.515	0.432
156.000	138.816	80.003	19.993	104.364	20.178	4.428	0.461
158.000	139.715	80.004	19.992	104.350	20.176	4.558	0.461
160.000	140.535	80.003	19.993	104.347	20.175	4.613	0.422
162.000	141.464	80.003	19.992	104.341	20.178	4.425	0.431
164.000	142.308	80.003	19.993	104.341	20.177	4.464	0.470
166.000	143.210	80.003	19.993	104.357	20.182	4.117	0.406
168.000	144.170	80.002	19.993	104.352	20.176	4.492	0.461
170.000	145.109	80.003	19.993	104.338	20.176	4.528	0.447
172.000	146.016	80.002	19.993	104.337	20.176	4.516	0.475
174.000	146.926	80.003	19.993	104.335	20.178	4.404	0.449
176.000	147.859	80.002	19.993	104.318	20.173	4.707	0.433
178.000	148.778	80.003	19.992	104.305	20.179	4.348	0.426
180.000	149.798	80.002	19.992	104.312	20.175	4.562	0.488
182.000	150.676	80.001	19.993	104.323	20.172	4.804	0.449
184.000	151.660	80.002	19.992	104.310	20.170	4.926	0.488
186.000	152.618	80.004	19.993	104.325	20.174	4.660	0.525
188.000	153.548	80.003	19.993	104.338	20.176	4.519	0.481
190.000	154.482	80.005	19.993	104.330	20.177	4.480	0.489
192.000	155.484	80.004	19.994	104.342	20.173	4.735	0.520
194.000	156.415	80.005	19.992	104.344	20.175	4.570	0.470
196.000	157.360	80.005	19.994	104.332	20.181	4.226	0.472
198.000	158.421	80.005	19.995	104.357	20.177	4.482	0.512
200.000	159.373	80.006	19.994	104.340	20.178	4.400	0.479
202.000	160.379	80.005	19.995	104.309	20.178	4.411	0.514
204.000	161.353	80.005	19.994	104.327	20.176	4.502	0.483
206.000	162.321	80.004	19.994	104.333	20.177	4.457	0.492
208.000	163.347	80.004	19.993	104.335	20.181	4.216	0.492
210.000	164.371	80.006	19.993	104.333	20.176	4.518	0.540
212.000	165.410	80.004	19.993	104.336	20.178	4.411	0.537
214.000	166.357	80.006	19.993	104.336	20.178	4.419	0.488
216.000	167.381	80.005	19.993	104.328	20.175	4.581	0.503
218.000	168.378	80.007	19.993	104.320	20.177	4.462	0.496
220.000	169.376	80.006	19.994	104.322	20.178	4.392	0.524
222.000	170.428	80.004	19.994	104.312	20.176	4.496	0.517
224.000	171.375	80.007	19.995	104.325	20.174	4.684	0.495
226.000	172.437	80.005	19.994	104.324	20.176	4.510	0.510
228.000	173.450	80.004	19.995	104.317	20.178	4.423	0.556
230.000	174.430	80.002	19.994	104.326	20.176	4.501	0.488
232.000	175.413	80.003	19.994	104.316	20.172	4.760	0.470
234.000	176.463	80.003	19.994	104.310	20.180	4.246	0.497
236.000	177.427	80.003	19.994	104.317	20.180	4.244	0.493
238.000	178.473	80.003	19.992	104.298	20.177	4.450	0.517
240.000	179.474	80.004	19.993	104.302	20.176	4.524	0.476
242.000	180.477	80.004	19.993	104.312	20.176	4.515	0.476
244.000	181.484	80.003	19.993	104.316	20.177	4.474	0.525
246.000	182.457	80.003	19.993	104.303	20.178	4.366	0.456
248.000	183.508	80.003	19.992	104.298	20.177	4.445	0.501
250.000	184.500	80.005	19.993	104.310	20.174	4.623	0.488
252.000	185.550	80.003	19.993	104.307	20.177	4.436	0.536
254.000	186.559	80.005	19.993	104.309	20.173	4.691	0.500
256.000	187.577	80.003	19.993	104.310	20.174	4.669	0.523
258.000	188.564	80.003	19.995	104.308	20.174	4.640	0.492
260.000	189.573	80.003	19.995	104.301	20.175	4.606	0.502
262.000	190.574	80.002	19.993	104.300	20.176	4.502	0.505
264.000	191.526	80.003	19.994	104.289	20.177	4.430	0.480
266.000	192.592	80.003	19.993	104.299	20.176	4.541	0.500
268.000	193.579	80.004	19.993	104.303	20.176	4.495	0.506
270.000	194.560	80.005	19.993	104.294	20.176	4.522	0.489
272.000	195.561	80.005	19.994	104.289	20.175	4.592	0.490
274.000	196.569	80.005	19.993	104.287	20.175	4.567	0.517
276.000	197.556	80.006	19.993	104.288	20.176	4.556	0.519
278.000	198.536	80.006	19.992	104.283	20.174	4.685	0.468
280.001	199.543	80.006	19.993	104.297	20.173	4.730	0.493
282.000	200.521	80.005	19.993	104.297	20.169	4.954	0.535
284.000	201.520	80.004	19.993	104.296	20.172	4.804	0.493
286.001	202.510	80.004	19.992	104.296	20.173	4.730	0.502
288.000	203.535	80.005	19.994	104.297	20.174	4.658	0.500
290.000	204.468	80.004	19.993	104.297	20.170	4.926	0.509
292.000	205.468	80.007	19.993	104.293	20.171	4.831	0.479
294.000	206.458	80.005	19.993	104.298	20.172	4.814	0.507
296.000	207.471	80.005	19.994	104.299	20.172	4.818	0.496
298.000	208.490	80.005	19.993	104.299	20.169	4.995	0.515
300.000	209.460	80.006	19.993	104.296	20.174	4.674	0.511
302.000	210.486	80.007	19.993	104.297	20.170	4.885	0.512
304.000	211.446	80.007	19.993	104.296	20.171	4.831	0.484
306.000	212.433	80.007	19.993	104.293	20.169	4.971	0.473
308.000	213.443	80.005	19.993	104.293	20.171	4.819	0.504
310.000	214.482	80.004	19.993	104.281	20.169	4.966	0.532
312.000	215.429	80.004	19.993	104.298	20.168	5.038	0.484
314.000	216.439	80.003	19.994	104.290	20.170	4.895	0.493
316.000	217.453	80.003	19.994	104.265	20.168	5.035	0.514
318.000	218.430	80.003	19.995	104.268	20.170	4.901	0.532
320.000	219.391	80.003	19.994	104.282	20.167	5.081	0.517
322.000	220.428	80.003	19.994	104.268	20.169	4.968	0.499
324.000	221.405	80.004	19.995	104.283	20.171	4.848	0.496
326.000	222.393	80.003	19.995	104.293	20.167	5.087	0.496
328.000	223.378	80.005	19.993	104.281	20.167	5.108	0.504
330.000	224.412	80.003	19.993	104.269	20.168	5.073	0.506
332.000	225.389	80.003	19.993	104.269	20.169	4.984	0.518
334.001	226.350	80.006	19.993	104.285	20.167	5.118	0.475
336.001	227.385	80.004	19.993	104.276	20.164	5.285	0.491
338.000	228.426	80.004	19.993	104.296	20.167	5.099	0.511
340.000	229.401	80.004	19.994	104.275	20.168	5.033	0.508
342.000	230.411	80.004	19.994	104.267	20.166	5.153	0.531
344.000	231.396	80.004	19.994	104.283	20.170	4.914	0.488
346.000	232.403	80.004	19.993	104.259	20.167	5.111	0.510
348.000	233.410	80.003	19.993	104.274	20.170	4.898	0.502
350.000	234.378	80.005	19.994	104.279	20.171	4.878	0.504
352.000	235.421	80.004	19.992	104.286	20.171	4.835	0.500
354.000	236.404	80.005	19.993	104.284	20.167	5.140	0.479
356.000	237.388	80.005	19.993	104.278	20.166	5.174	0.475
358.000	238.397	80.004	19.993	104.265	20.168	5.071	0.516
360.000	239.377	80.006	19.993	104.274	20.165	5.238	0.496
362.000	240.379	80.005	19.993	104.271	20.167	5.136	0.490
364.000	241.359	80.005	19.992	104.283	20.165	5.244	0.490
366.000	242.358	80.004	19.993	104.276	20.164	5.317	0.484
368.000	243.391	80.005	19.993	104.280	20.162	5.432	0.502
370.000	244.387	80.004	19.992	104.297	20.164	5.330	0.524
372.000	245.371	80.005	19.992	104.299	20.161	5.477	0.483
374.000	246.391	80.006	19.993	104.284	20.161	5.502	0.518
376.000	247.337	80.005	19.994	104.291	20.158	5.669	0.481
378.000	248.341	80.004	19.995	104.285	20.161	5.516	0.465
380.000	249.407	80.005	19.995	104.265	20.161	5.501	0.499
382.000	250.368	80.006	19.994	104.276	20.161	5.497	0.502
384.000	251.383	80.006	19.993	104.265	20.158	5.689	0.509
386.000	252.391	80.006	19.994	104.267	20.158	5.675	0.497
388.000	253.393	80.005	19.993	104.278	20.159	5.626	0.508
390.000	254.352	80.006	19.994	104.274	20.158	5.717	0.479
392.000	255.407	80.005	19.993	104.279	20.157	5.788	0.530
394.000	256.385	80.003	19.995	104.279	20.157	5.769	0.506
396.000	257.396	80.004	19.994	104.259	20.157	5.764	0.512
398.000	258.396	80.004	19.994	104.260	20.155	5.873	0.504
400.000	259.444	80.003	19.995	104.265	20.156	5.851	0.512
402.000	260.414	80.004	19.995	104.263	20.154	5.942	0.492
404.000	261.377	80.003	19.994	104.252	20.153	6.059	0.496
406.000	262.385	80.004	19.994	104.265	20.151	6.190	0.504
408.000	263.360	80.004	19.993	104.268	20.151	6.184	0.494
410.000	264.397	80.004	19.994	104.260	20.150	6.238	0.467
412.000	265.385	80.003	19.994	104.261	20.145	6.530	0.517
414.000	266.355	80.003	19.994	104.279	20.149	6.262	0.462
416.000	267.393	80.003	19.994	104.280	20.148	6.359	0.509
418.000	268.393	80.004	19.993	104.273	20.146	6.476	0.486
420.000	269.378	80.004	19.994	104.266	20.145	6.568	0.522
422.000	270.408	80.004	19.993	104.280	20.145	6.543	0.514
424.000	271.457	80.004	19.992	104.268	20.145	6.578	0.557
426.000	272.464	80.003	19.993	104.262	20.140	6.850	0.492
428.000	273.431	80.003	19.993	104.262	20.137	7.073	0.495
430.000	274.449	80.004	19.994	104.265	20.138	7.015	0.504
432.000	275.454	80.004	19.993	104.278	20.140	6.872	0.495
434.000	276.477	80.004	19.992	104.269	20.136	7.143	0.506
436.000	277.447	80.004	19.991	104.266	20.136	7.135	0.474
438.000	278.481	80.003	19.995	104.285	20.128	7.681	0.522
440.000	279.491	80.005	19.994	104.274	20.128	7.635	0.510
442.000	280.454	80.006	19.992	104.285	20.124	7.913	0.494
444.000	281.469	80.005	19.993	104.291	20.119	8.245	0.519
446.000	282.499	80.006	19.993	104.283	20.118	8.299	0.500
448.000	283.508	80.005	19.993	104.274	20.119	8.258	0.501
450.000	284.561	80.004	19.994	104.295	20.113	8.662	0.508
452.000	285.518	80.004	19.993	104.287	20.109	8.886	0.506
454.000	286.481	80.004	19.994	104.292	20.105	9.161	0.479
456.000	287.500	80.005	19.994	104.296	20.101	9.450	0.511
458.000	288.512	80.005	19.993	104.295	20.098	9.602	0.478
460.000	289.473	80.005	19.992	104.296	20.096	9.759	0.478
462.001	290.529	80.006	19.992	104.296	20.095	9.858	0.504
464.000	291.496	80.007	19.992	104.291	20.101	9.403	0.519
466.000	292.578	80.007	19.992	104.281	20.077	11.018	0.509
468.000	293.563	80.006	19.993	104.290	20.074	11.191	0.525
470.001	294.551	80.005	19.994	104.296	20.070	11.453	0.470
472.000	295.545	80.005	19.993	104.292	20.068	11.594	0.498
474.000	296.581	80.004	19.994	104.296	20.061	12.038	0.505
476.000	297.549	80.002	19.993	104.297	20.055	12.426	0.517
478.000	298.540	80.004	19.993	104.310	20.052	12.656	0.429
480.000	299.559	80.002	19.994	104.304	20.045	13.080	0.509
482.000	300.598	80.004	19.993	104.307	20.041	13.368	0.445
484.000	301.638	80.004	19.993	104.320	20.036	13.711	0.523
486.000	302.623	80.002	19.993	104.331	20.030	14.099	0.486
488.000	303.598	80.003	19.993	104.339	20.023	14.571	0.483
490.000	304.622	80.003	19.993	104.341	20.015	15.065	0.504
492.000	305.638	80.004	19.993	104.339	20.011	15.323	0.499
494.000	306.663	80.004	19.994	104.338	20.002	15.932	0.506
496.000	307.671	80.004	19.994	104.338	19.994	16.440	0.494
498.000	308.665	80.004	19.995	104.338	19.983	17.182	0.481
500.000	309.692	80.003	19.993	104.335	19.975	17.695	0.507
502.000	310.699	80.003	19.994	104.323	19.963	18.483	0.481
504.000	311.735	80.001	19.995	104.336	19.955	19.018	0.517
506.001	312.766	80.003	19.994	104.341	19.944	19.733	0.506
508.000	313.762	80.001	19.994	104.342	19.931	20.558	0.508
510.000	314.779	80.002	19.995	104.356	19.919	21.395	0.517
512.000	315.789	80.001	19.994	104.375	19.912	21.805	0.496
514.000	316.816	80.004	19.994	104.405	19.897	22.844	0.518
516.000	317.823	80.005	19.993	104.387	19.884	23.683	0.526
518.000	318.783	80.005	19.992	104.387	19.869	24.680	0.492
520.000	319.768	80.005	19.992	104.382	19.853	25.713	0.488
522.000	320.763	80.003	19.993	104.394	19.835	26.910	0.490
524.000	321.772	80.006	19.992	104.397	19.820	27.864	0.511
526.000	322.747	80.006	19.992	104.416	19.798	29.296	0.482
528.000	323.752	80.005	19.993	104.420	19.779	30.582	0.508
530.000	324.756	80.004	19.993	104.445	19.760	31.815	0.493
532.000	325.786	80.005	19.993	104.457	19.735	33.436	0.508
534.000	326.787	80.004	19.993	104.452	19.713	34.924	0.507
536.000	327.785	80.006	19.993	104.451	19.691	36.389	0.498
538.000	328.787	80.007	19.993	104.460	19.666	37.987	0.483
540.000	329.746	80.005	19.993	104.487	19.639	39.807	0.485
542.000	330.829	80.008	19.993	104.497	19.612	41.585	0.489
544.000	331.810	80.004	19.993	104.521	19.581	43.612	0.505
546.000	332.808	80.006	19.993	104.528	19.546	45.869	0.503
548.000	333.805	80.006	19.992	104.533	19.517	47.797	0.505
550.000	334.842	80.007	19.992	104.553	19.484	50.000	0.525
552.000	335.855	80.006	19.992	104.564	19.448	52.369	0.515
554.000	336.881	80.005	19.992	104.570	19.411	54.817	0.538
556.000	337.856	80.006	19.993	104.575	19.370	57.485	0.530
558.000	338.877	80.004	19.994	104.606	19.333	59.938	0.506
560.000	339.862	80.004	19.993	104.618	19.289	62.876	0.504
562.000	340.891	80.004	19.993	104.643	19.247	65.639	0.515
564.000	341.875	80.005	19.994	104.672	19.202	68.577	0.512
566.000	342.824	80.003	19.993	104.688	19.156	71.652	0.486
568.000	343.877	80.004	19.994	104.703	19.107	74.864	0.498
570.000	344.872	80.004	19.995	104.729	19.059	78.082	0.492
572.000	345.885	80.004	19.994	104.733	19.011	81.208	0.508
574.000	346.869	80.004	19.993	104.762	18.961	84.523	0.513
576.000	347.873	80.005	19.993	104.767	18.910	87.912	0.522
578.000	348.860	80.003	19.993	104.790	18.858	91.321	0.494
580.000	349.879	80.004	19.994	104.834	18.803	94.972	0.538
582.000	350.914	80.006	19.992	104.844	18.746	98.736	0.504
584.000	351.925	80.005	19.993	104.860	18.688	102.547	0.527
586.000	352.941	80.005	19.993	104.850	18.632	106.282	0.522
588.000	353.983	80.003	19.995	104.874	18.574	110.060	0.512
590.000	355.011	80.004	19.994	104.897	18.521	113.565	0.530
592.000	355.985	80.003	19.994	104.911	18.468	117.081	0.484
594.000	356.996	80.003	19.994	104.920	18.415	120.594	0.506
596.000	357.984	80.004	19.994	104.923	18.362	124.076	0.485
598.000	358.997	80.004	19.994	104.927	18.315	127.194	0.449
600.000	359.980	80.006	19.994	104.939	18.271	130.103	0.470
602.000	360.964	80.004	19.994	104.933	18.231	132.683	0.518
604.000	361.968	80.005	19.995	104.940	18.193	135.218	0.516
606.000	362.901	80.004	19.993	104.939	18.161	137.309	0.494
608.000	363.904	80.006	19.994	104.952	18.130	139.372	0.450
610.000	364.891	80.004	19.993	104.971	18.109	140.691	0.492
612.000	365.888	80.005	19.992	104.969	18.088	142.060	0.501
614.001	366.877	80.005	19.993	104.962	18.076	142.834	0.482
616.001	367.890	80.006	19.993	104.958	18.065	143.529	0.499
618.000	368.925	80.004	19.995	104.942	18.063	143.597	0.507
620.000	369.899	80.007	19.992	104.931	18.071	143.032	0.514
622.000	370.906	80.006	19.993	104.889	18.082	142.195	0.524
624.000	371.890	80.006	19.993	104.885	18.106	140.605	0.492
626.000	372.924	80.006	19.993	104.868	18.140	138.311	0.522
628.000	373.937	80.006	19.992	104.837	18.182	135.466	0.497
630.000	374.952	80.006	19.993	104.805	18.231	132.175	0.469
632.000	375.986	80.006	19.993	104.748	18.295	127.940	0.515
634.000	377.009	80.007	19.994	104.704	18.372	122.837	0.507
636.000	378.043	80.005	19.994	104.668	18.458	117.151	0.511
638.000	379.100	80.005	19.992	104.611	18.553	110.907	0.550
640.001	380.126	80.004	19.994	104.566	18.657	104.028	0.531
642.000	381.145	80.004	19.994	104.534	18.767	96.790	0.526
644.000	382.142	80.005	19.994	104.491	18.877	89.592	0.527
646.000	383.183	80.005	19.992	104.440	18.993	81.984	0.538
648.000	384.240	80.003	19.993	104.399	19.101	74.898	0.517
650.000	385.261	80.004	19.993	104.368	19.208	67.871	0.528
652.000	386.291	80.004	19.993	104.343	19.313	61.012	0.535
654.000	387.317	80.005	19.993	104.321	19.412	54.521	0.516
656.000	388.372	80.005	19.994	104.289	19.505	48.420	0.534
658.000	389.388	80.005	19.993	104.262	19.590	42.869	0.519
660.000	390.486	80.006	19.994	104.245	19.673	37.414	0.565
662.000	391.481	80.005	19.994	104.222	19.744	32.747	0.526
664.000	392.549	80.005	19.994	104.216	19.812	28.324	0.511
666.000	393.578	80.003	19.994	104.217	19.867	24.717	0.516
668.000	394.598	80.005	19.994	104.207	19.922	21.117	0.507
670.000	395.663	80.004	19.994	104.212	19.964	18.411	0.540
672.000	396.698	80.004	19.994	104.204	19.997	16.221	0.486
674.000	397.714	80.004	19.994	104.208	20.029	14.133	0.516
676.000	398.724	80.004	19.993	104.204	20.052	12.605	0.500
678.001	399.751	80.005	19.994	104.188	20.068	11.611	0.499
680.000	400.746	80.005	19.993	104.189	20.083	10.630	0.490
682.000	401.785	80.005	19.993	104.183	20.093	9.924	0.529
684.000	402.782	80.006	19.993	104.180	20.101	9.414	0.507
686.000	403.765	80.006	19.993	104.186	20.103	9.328	0.478
688.000	404.812	80.004	19.994	104.215	20.110	8.841	0.516
690.000	405.788	80.005	19.994	104.194	20.114	8.565	0.530
692.000	406.821	80.006	19.994	104.195	20.113	8.667	0.517
694.000	407.794	80.004	19.994	104.198	20.114	8.553	0.489
696.000	408.807	80.004	19.994	104.216	20.120	8.162	0.500
698.000	409.763	80.005	19.994	104.220	20.121	8.116	0.493
700.001	410.758	80.005	19.993	104.209	20.120	8.192	0.500
702.000	411.752	80.006	19.993	104.216	20.119	8.227	0.470
704.000	412.730	80.006	19.993	104.200	20.122	8.051	0.483
706.000	413.694	80.006	19.993	104.213	20.122	8.057	0.474
708.000	414.660	80.006	19.993	104.206	20.120	8.212	0.483
710.000	415.637	80.006	19.992	104.197	20.124	7.893	0.498
712.000	416.646	80.008	19.992	104.219	20.123	8.007	0.504
714.000	417.565	80.006	19.993	104.203	20.121	8.106	0.454
716.000	418.596	80.006	19.993	104.208	20.122	8.079	0.497
718.000	419.567	80.005	19.993	104.225	20.123	7.957	0.485
720.000	420.529	80.004	19.994	104.215	20.122	8.067	0.456
722.000	421.548	80.003	19.995	104.213	20.120	8.171	0.494
724.000	422.552	80.004	19.994	104.212	20.123	8.017	0.510
726.001	423.530	80.003	19.994	104.215	20.123	7.978	0.507
728.000	424.523	80.005	19.994	104.207	20.124	7.919	0.499
730.000	425.532	80.005	19.993	104.215	20.123	8.011	0.487
732.000	426.508	80.005	19.993	104.215	20.122	8.024	0.491
734.000	427.502	80.006	19.993	104.219	20.123	7.986	0.487
736.000	428.484	80.005	19.993	104.221	20.122	8.050	0.471
738.000	429.530	80.005	19.995	104.218	20.121	8.103	0.515
740.000	430.516	80.005	19.994	104.230	20.123	8.001	0.506
742.000	431.532	80.005	19.994	104.222	20.124	7.931	0.529
744.000	432.538	80.004	19.992	104.221	20.124	7.944	0.500
746.000	433.541	80.003	19.994	104.211	20.123	7.980	0.496
748.000	434.557	80.004	19.993	104.218	20.121	8.111	0.488
750.000	435.542	80.004	19.994	104.221	20.120	8.180	0.495
752.000	436.612	80.001	19.994	104.221	20.117	8.354	0.508
754.000	437.610	80.003	19.994	104.225	20.122	8.074	0.475
756.000	438.647	80.003	19.993	104.224	20.120	8.176	0.516
758.000	439.666	80.003	19.993	104.227	20.120	8.201	0.510
760.000	440.702	80.005	19.994	104.220	20.116	8.431	0.518
762.000	441.683	80.005	19.993	104.219	20.118	8.323	0.482
764.000	442.703	80.004	19.994	104.218	20.123	8.006	0.531
766.000	443.712	80.005	19.995	104.217	20.118	8.309	0.488
768.000	444.757	80.006	19.994	104.211	20.119	8.226	0.515
770.000	445.757	80.005	19.993	104.217	20.116	8.459	0.505
772.000	446.756	80.006	19.994	104.218	20.118	8.327	0.482
774.000	447.779	80.004	19.995	104.217	20.120	8.154	0.517
776.000	448.823	80.006	19.994	104.217	20.121	8.150	0.529
778.000	449.812	80.004	19.995	104.217	20.118	8.320	0.508
780.001	450.828	80.004	19.996	104.215	20.120	8.210	0.505
782.000	451.860	80.006	19.995	104.214	20.118	8.313	0.514
784.000	452.897	80.006	19.993	104.219	20.120	8.179	0.507
786.001	453.906	80.006	19.995	104.228	20.122	8.054	0.514
788.000	454.945	80.007	19.994	104.220	20.120	8.165	0.489
790.000	455.998	80.003	19.997	104.212	20.118	8.323	0.526
792.000	456.966	80.006	19.992	104.218	20.122	8.060	0.506
794.000	457.995	80.006	19.996	104.217	20.119	8.274	0.495
796.000	459.067	80.005	19.990	104.207	20.121	8.096	0.547
798.000	460.056	80.007	19.995	104.210	20.120	8.151	0.471
800.000	461.111	80.007	19.989	104.214	20.121	8.121	0.512
802.000	462.114	80.007	19.990	104.216	20.118	8.295	0.511
804.000	463.154	80.002	19.994	104.222	20.117	8.352	0.527
806.000	464.172	80.005	19.992	104.224	20.120	8.198	0.509
808.000	465.186	80.005	19.993	104.217	20.117	8.381	0.500
810.000	466.257	80.004	19.993	104.223	20.120	8.203	0.531
812.000	467.254	80.003	19.995	104.218	20.121	8.119	0.494
814.000	468.289	80.004	19.992	104.219	20.117	8.352	0.509
816.000	469.295	80.003	19.993	104.219	20.120	8.215	0.496
818.000	470.342	80.004	19.992	104.219	20.120	8.187	0.508
820.000	471.382	80.003	19.989	104.216	20.121	8.114	0.508
822.000	472.381	80.000	19.993	104.220	20.122	8.025	0.519
824.000	473.389	80.002	19.995	104.218	20.121	8.128	0.528
826.000	474.482	80.005	19.994	104.217	20.121	8.125	0.546
828.000	475.471	80.006	19.992	104.211	20.120	8.165	0.523
830.000	476.509	80.004	19.992	104.209	20.116	8.427	0.526
832.000	477.519	80.005	19.994	104.194	20.119	8.246	0.493
834.000	478.558	80.005	19.993	104.194	20.115	8.499	0.497
836.000	479.554	80.004	19.992	104.199	20.119	8.274	0.515
838.000	480.582	80.009	19.991	104.212	20.120	8.157	0.516
840.000	481.621	80.002	19.995	104.214	20.115	8.520	0.512
842.000	482.618	80.004	19.992	104.209	20.118	8.323	0.520
844.000	483.637	80.006	19.995	104.174	20.117	8.352	0.509
846.000	484.654	80.005	19.995	104.213	20.120	8.156	0.522
848.000	485.680	80.004	19.994	104.201	20.122	8.069	0.496
850.000	486.685	80.005	19.994	104.214	20.122	8.067	0.483
852.000	487.700	80.005	19.996	104.209	20.122	8.025	0.504
854.000	488.718	80.004	19.991	104.217	20.122	8.063	0.490
856.000	489.776	80.007	19.993	104.214	20.121	8.112	0.518
858.000	490.811	80.004	19.993	104.214	20.119	8.240	0.531
860.000	491.860	80.004	19.997	104.216	20.123	8.017	0.522
862.000	492.892	80.004	19.994	104.214	20.120	8.162	0.506
864.000	493.963	80.007	19.993	104.195	20.121	8.119	0.532
866.000	494.958	80.004	19.994	104.194	20.121	8.138	0.455
868.000	496.036	80.001	19.997	104.194	20.122	8.047	0.553
870.000	497.054	80.005	19.992	104.191	20.124	7.897	0.503
872.000	498.072	80.005	19.993	104.203	20.121	8.099	0.509
874.000	499.119	80.005	19.996	104.205	20.123	7.990	0.495
876.000	500.147	80.005	19.992	104.179	20.127	7.716	0.504
878.000	501.176	80.005	19.991	104.183	20.122	8.046	0.496
880.000	502.271	80.004	19.995	104.197	20.121	8.112	0.545
882.000	503.265	80.002	19.995	104.197	20.125	7.866	0.507
884.000	504.270	80.002	19.994	104.221	20.124	7.948	0.503
886.000	505.296	80.005	19.993	104.214	20.123	7.985	0.516
888.000	506.313	80.004	19.993	104.196	20.122	8.068	0.538
890.000	507.334	80.004	19.995	104.209	20.119	8.240	0.511
892.000	508.343	80.003	19.995	104.219	20.121	8.105	0.516
894.000	509.326	80.005	19.993	104.208	20.124	7.896	0.499
896.000	510.372	80.005	19.995	104.215	20.123	8.013	0.500
898.000	511.362	80.003	19.993	104.227	20.120	8.167	0.494
900.000	512.398	80.005	19.994	104.232	20.121	8.106	0.514
902.000	513.407	80.005	19.993	104.226	20.121	8.146	0.496
904.000	514.418	80.004	19.994	104.216	20.122	8.047	0.501
906.000	515.496	80.005	19.994	104.192	20.119	8.241	0.517
908.000	516.542	80.003	19.995	104.192	20.118	8.320	0.520
910.000	517.581	80.005	19.993	104.193	20.122	8.073	0.533
912.000	518.581	80.005	19.992	104.205	20.119	8.264	0.498
914.000	519.601	80.003	19.993	104.217	20.118	8.323	0.522
916.000	520.652	80.006	19.991	104.214	20.118	8.315	0.499
918.001	521.716	80.005	19.995	104.217	20.117	8.410	0.511
920.000	522.772	80.002	19.994	104.213	20.116	8.440	0.502
922.000	523.816	80.005	19.996	104.200	20.119	8.265	0.547
924.000	524.861	80.006	19.994	104.189	20.118	8.299	0.509
926.000	525.882	80.007	19.993	104.194	20.118	8.284	0.528
928.000	526.868	80.004	19.993	104.199	20.120	8.165	0.469
930.000	527.891	80.004	19.995	104.200	20.118	8.315	0.496
932.000	528.932	80.002	19.993	104.199	20.117	8.350	0.519
934.000	529.918	80.006	19.994	104.213	20.117	8.360	0.494
936.000	530.937	80.004	19.993	104.204	20.122	8.020	0.506
938.000	531.944	80.006	19.994	104.193	20.119	8.250	0.491
940.000	532.910	80.005	19.994	104.192	20.116	8.460	0.493
942.000	533.986	80.004	19.993	104.195	20.114	8.584	0.517
944.000	535.030	80.003	19.994	104.185	20.118	8.335	0.491
946.001	535.970	80.006	19.992	104.183	20.116	8.425	0.522
948.000	536.977	80.004	19.993	104.190	20.119	8.251	0.503
950.000	537.974	80.004	19.993	104.205	20.118	8.316	0.460
952.000	538.987	80.006	19.992	104.200	20.117	8.376	0.531
954.000	539.970	80.006	19.994	104.208	20.115	8.490	0.497
956.000	540.940	80.007	19.993	104.198	20.117	8.381	0.514
958.000	541.985	80.007	19.994	104.185	20.114	8.587	0.511
960.000	542.979	80.007	19.993	104.191	20.113	8.639	0.509
962.000	544.006	80.003	19.995	104.207	20.112	8.694	0.514
964.000	544.998	80.003	19.992	104.201	20.114	8.604	0.462
966.000	546.007	80.001	19.994	104.201	20.116	8.422	0.488
968.000	547.021	80.004	19.994	104.208	20.116	8.451	0.525
970.000	547.958	80.003	19.995	104.204	20.114	8.563	0.477
972.000	548.992	80.003	19.995	104.200	20.113	8.649	0.477
974.000	550.040	80.003	19.994	104.212	20.114	8.587	0.531
976.000	551.054	80.004	19.994	104.200	20.114	8.589	0.493
978.000	552.083	80.009	19.994	104.209	20.113	8.652	0.568
980.000	553.058	80.022	19.996	104.215	20.111	8.769	0.507
982.000	554.118	80.005	19.995	104.207	20.111	8.759	0.533
984.000	555.122	80.006	19.995	104.208	20.115	8.510	0.485
986.000	556.200	80.005	19.993	104.213	20.110	8.804	0.539
988.000	557.199	80.006	19.993	104.192	20.115	8.512	0.523
990.000	558.214	80.005	19.994	104.207	20.112	8.688	0.509
992.000	559.224	80.006	19.992	104.199	20.111	8.789	0.483
994.000	560.233	80.002	19.992	104.206	20.111	8.766	0.500
996.000	561.278	80.006	19.994	104.201	20.110	8.823	0.518
998.000	562.331	80.003	19.993	104.201	20.111	8.759	0.530
1000.000	563.354	80.005	19.994	104.204	20.116	8.459	0.527
1002.000	564.401	80.007	19.994	104.211	20.112	8.694	0.531
1004.000	565.421	80.003	19.994	104.215	20.114	8.577	0.531
1006.000	566.477	80.005	19.994	104.218	20.110	8.839	0.542
1008.000	567.504	80.004	19.993	104.208	20.110	8.820	0.539
1010.000	568.543	80.005	19.993	104.217	20.110	8.806	0.511
1012.000	569.639	80.008	19.993	104.207	20.110	8.846	0.553
1014.000	570.676	80.006	19.993	104.203	20.111	8.776	0.486
1016.000	571.715	80.007	19.992	104.199	20.108	8.939	0.501
1018.000	572.807	80.006	19.994	104.211	20.107	9.045	0.550
1020.000	573.877	80.005	19.992	104.214	20.109	8.886	0.535
1022.000	574.978	80.006	19.993	104.189	20.107	9.015	0.563
1024.001	576.023	80.005	19.993	104.189	20.108	8.956	0.517
1026.000	577.123	80.006	19.993	104.181	20.108	8.974	0.546
1028.000	578.161	80.007	19.993	104.193	20.109	8.878	0.550
1030.000	579.252	80.009	19.993	104.200	20.108	8.974	0.552
1032.000	580.286	80.006	19.994	104.196	20.111	8.787	0.513
1034.000	581.375	80.007	19.995	104.213	20.112	8.720	0.539
1036.000	582.492	80.006	19.993	104.209	20.111	8.742	0.558
1038.000	583.484	80.007	19.993	104.211	20.108	8.937	0.507
1040.000	584.596	80.007	19.996	104.194	20.109	8.891	0.542
1042.000	585.608	80.005	19.993	104.203	20.109	8.889	0.497
1044.000	586.709	80.006	19.991	104.208	20.110	8.844	0.567
1046.000	587.743	80.003	19.995	104.201	20.109	8.903	0.548
1048.000	588.741	80.003	19.994	104.211	20.109	8.891	0.547
1050.000	589.800	80.004	19.995	104.185	20.110	8.807	0.499
1052.001	590.828	79.997	19.993	104.186	20.108	8.962	0.487
1054.000	591.859	80.006	19.993	104.176	20.108	8.990	0.459
1056.000	592.869	79.999	19.994	104.178	20.108	8.946	0.479
1058.000	593.947	80.007	19.994	104.193	20.105	9.156	0.513
1060.000	594.922	80.004	19.995	104.207	20.114	8.571	0.528
1062.000	595.969	80.004	19.994	104.200	20.115	8.504	0.521
1064.000	597.024	80.003	19.994	104.213	20.104	9.214	0.533
1066.000	598.035	80.004	19.994	104.213	20.105	9.174	0.517
1068.000	599.096	80.004	19.993	104.227	20.108	8.954	0.540
1070.001	600.129	80.004	19.993	104.186	20.107	9.001	0.459
1072.000	601.225	80.005	19.993	104.180	20.108	8.999	0.536
1074.001	602.619	80.004	19.993	104.202	20.108	8.963	0.965
1076.000	603.305	80.003	19.994	104.211	20.102	9.342	0.549
1078.000	604.029	79.997	19.993	104.194	20.102	9.342	0.124
1080.000	605.107	80.003	19.993	104.190	20.107	9.045	0.555
1082.000	606.340	80.005	19.993	104.195	20.104	9.196	0.518
1084.000	607.246	80.003	19.994	104.188	20.109	8.895	0.510
1086.000	608.286	80.001	19.994	104.198	20.106	9.102	0.541
1088.000	609.249	80.004	19.993	104.194	20.106	9.096	0.475
1090.000	610.289	80.004	19.994	104.201	20.104	9.244	0.542
1092.000	611.233	80.009	19.994	104.195	20.105	9.156	0.492
1094.000	612.339	80.006	19.994	104.197	20.107	9.037	0.518
1096.000	613.244	80.007	19.994	104.181	20.101	9.434	0.440
1098.000	614.287	80.008	19.995	104.177	20.103	9.306	0.474
1100.000	615.279	80.006	19.993	104.178	20.105	9.173	0.490
1102.000	616.316	80.005	19.994	104.185	20.102	9.330	0.492
1104.000	617.276	80.004	19.995	104.179	20.103	9.305	0.522
1106.001	618.252	80.006	19.993	104.188	20.105	9.196	0.498
1108.000	619.236	79.998	19.994	104.211	20.103	9.270	0.497
1110.000	620.207	80.000	19.996	104.222	20.104	9.214	0.469
1112.001	621.208	80.006	19.992	104.203	20.105	9.140	0.493
1114.000	622.207	80.022	19.990	104.204	20.102	9.384	0.508
1116.000	623.212	80.005	19.993	104.208	20.104	9.208	0.500
1118.001	624.170	80.003	19.993	104.211	20.104	9.250	0.514
1120.000	625.150	80.011	19.992	104.186	20.104	9.231	0.512
1122.000	626.136	80.008	19.993	104.193	20.100	9.518	0.478
1124.000	627.120	80.005	19.992	104.181	20.103	9.298	0.496
1126.000	628.109	79.997	19.994	104.192	20.100	9.506	0.498
1128.000	629.103	79.998	19.995	104.176	20.102	9.346	0.483
1130.000	630.115	80.019	19.992	104.176	20.102	9.370	0.500
1132.000	631.143	80.011	19.993	104.186	20.102	9.350	0.538
1134.000	632.071	80.005	19.994	104.193	20.105	9.150	0.464
1136.000	633.139	80.008	19.992	104.183	20.102	9.342	0.508
1138.000	634.133	80.016	19.991	104.192	20.101	9.398	0.480
1140.000	635.150	80.003	19.993	104.192	20.103	9.278	0.485
1142.000	636.151	80.004	19.995	104.191	20.102	9.331	0.522
1144.000	637.152	79.998	19.994	104.180	20.101	9.413	0.502
1146.000	638.210	80.003	19.993	104.179	20.101	9.407	0.508
1148.000	639.194	80.006	19.993	104.176	20.098	9.640	0.511
1150.000	640.198	80.017	19.994	104.185	20.099	9.530	0.442
1152.000	641.203	80.003	19.995	104.179	20.100	9.465	0.477
1154.001	642.223	80.003	19.995	104.170	20.095	9.794	0.545
1156.000	643.246	80.009	19.994	104.175	20.098	9.617	0.528
1158.001	644.228	80.002	19.996	104.197	20.100	9.508	0.510
1160.001	645.219	80.008	19.994	104.207	20.099	9.540	0.493
1162.000	646.201	80.006	19.994	104.216	20.097	9.707	0.474
1164.000	647.230	80.008	19.994	104.213	20.097	9.683	0.506
1166.000	648.207	80.007	19.994	104.191	20.095	9.788	0.513
1168.001	649.199	80.012	19.992	104.190	20.095	9.846	0.467
1170.000	650.232	80.002	19.994	104.180	20.094	9.854	0.532
1172.000	651.207	80.016	19.993	104.193	20.096	9.729	0.474
1174.000	652.185	80.014	19.993	104.188	20.094	9.894	0.490
1176.000	653.228	80.012	19.993	104.213	20.098	9.595	0.508
1178.000	654.203	80.006	19.993	104.207	20.099	9.566	0.498
1180.001	655.194	79.982	19.995	104.192	20.096	9.729	0.488
1182.000	656.186	79.999	19.994	104.170	20.098	9.619	0.480
1184.000	657.219	80.001	19.994	104.178	20.097	9.675	0.492
1186.000	658.124	80.013	19.992	104.179	20.095	9.822	0.525
1188.001	658.956	79.997	19.993	104.187	20.097	9.689	0.382
1190.000	660.152	80.010	19.994	104.178	20.097	9.691	0.435
1192.000	661.218	79.998	19.994	104.167	20.092	10.011	0.470
1194.000	662.198	80.008	19.993	104.169	20.092	10.035	0.576
1196.000	663.217	80.005	19.994	104.181	20.094	9.887	0.491
1198.000	664.147	80.018	19.992	104.170	20.098	9.645	0.492
1200.001	665.186	80.018	19.992	104.170	20.098	9.621	0.496
1202.000	666.156	80.009	19.993	104.173	20.098	9.642	0.496
1204.000	667.196	80.010	19.993	104.189	20.097	9.697	0.525
1206.001	668.151	79.993	19.992	104.193	20.097	9.669	0.513
1208.001	669.130	80.005	19.993	104.221	20.099	9.566	0.509
1210.001	670.138	79.997	19.995	104.212	20.098	9.613	0.493
1212.000	671.155	80.008	19.995	104.213	20.097	9.708	0.492
1214.000	672.155	80.016	19.992	104.198	20.099	9.576	0.520
1216.000	673.142	80.011	19.993	104.195	20.093	9.920	0.510
1218.000	674.150	79.998	19.995	104.188	20.099	9.530	0.527
1220.000	675.222	80.017	19.993	104.184	20.100	9.461	0.555
1222.000	676.165	80.000	19.995	104.195	20.098	9.628	0.513
1224.000	677.207	80.001	19.996	104.183	20.096	9.753	0.537
1226.000	678.236	79.998	19.995	104.198	20.096	9.785	0.494
1228.000	679.282	79.995	19.994	104.182	20.097	9.658	0.537
1230.000	679.760	80.009	19.993	104.200	20.096	9.722	0.215
1232.000	681.391	79.996	19.993	104.175	20.095	9.837	0.968
1234.000	682.435	80.007	19.994	104.179	20.096	9.771	0.492
1236.000	683.465	80.008	19.994	104.195	20.094	9.865	0.512
1238.000	684.531	80.004	19.994	104.214	20.095	9.814	0.473
1240.000	685.531	80.007	19.994	104.191	20.097	9.701	0.526
1242.001	686.611	80.002	19.995	104.195	20.095	9.847	0.510
1244.000	687.688	80.006	19.994	104.207	20.095	9.825	0.525
1246.000	688.766	79.999	19.995	104.199	20.090	10.134	0.544
1248.000	689.871	80.007	19.994	104.190	20.092	10.026	0.542
1250.000	690.864	80.005	19.995	104.183	20.095	9.835	0.530
1252.000	691.925	80.005	19.993	104.188	20.091	10.064	0.535
1254.000	693.008	79.997	19.994	104.192	20.090	10.122	0.559
1256.000	694.072	80.009	19.993	104.184	20.091	10.106	0.548
1258.000	695.119	80.009	19.992	104.180	20.092	10.012	0.501
1260.000	696.217	80.006	19.992	104.184	20.091	10.093	0.561
1262.001	697.243	80.011	19.992	104.165	20.092	10.016	0.500
1264.001	698.338	80.004	19.993	104.179	20.087	10.337	0.523
1266.000	699.373	80.004	19.994	104.180	20.089	10.238	0.545
1268.001	700.391	79.998	19.994	104.194	20.089	10.205	0.492
1270.000	701.489	80.006	19.992	104.180	20.087	10.358	0.529
1272.001	702.505	80.005	19.993	104.182	20.088	10.307	0.530
1274.000	703.558	80.009	19.992	104.200	20.086	10.388	0.509
1276.000	704.591	80.008	19.993	104.195	20.088	10.265	0.512
1278.000	705.598	80.007	19.993	104.194	20.089	10.190	0.512
1280.000	706.626	80.009	19.993	104.196	20.092	9.986	0.533
1282.000	707.613	80.007	19.993	104.186	20.090	10.172	0.480
1284.000	708.603	80.009	19.992	104.178	20.088	10.298	0.502
1286.000	709.621	80.014	19.992	104.176	20.088	10.308	0.495
1288.000	710.598	80.003	19.992	104.183	20.089	10.186	0.509
1290.001	711.584	80.004	19.993	104.192	20.089	10.237	0.492
1292.000	712.559	80.011	19.992	104.187	20.090	10.175	0.512
1294.000	713.561	80.015	19.992	104.182	20.090	10.127	0.481
1296.000	714.566	79.993	19.994	104.189	20.086	10.413	0.513
1298.001	715.617	80.003	19.993	104.200	20.088	10.283	0.533
1300.000	716.608	80.006	19.993	104.184	20.084	10.505	0.518
1302.000	717.615	80.004	19.992	104.170	20.089	10.198	0.517
1304.000	718.604	80.007	19.993	104.176	20.087	10.323	0.498
1306.000	719.590	80.006	19.994	104.176	20.085	10.477	0.501
1308.000	720.555	80.006	19.993	104.177	20.087	10.361	0.502
1310.000	721.544	80.009	19.992	104.187	20.088	10.266	0.480
1312.001	722.592	80.008	19.993	104.176	20.087	10.364	0.522
1314.001	723.537	80.006	19.993	104.180	20.086	10.436	0.476
1316.001	724.572	80.006	19.993	104.199	20.083	10.596	0.491
1318.000	725.553	80.010	19.993	104.192	20.083	10.593	0.508
1320.000	726.562	80.006	19.993	104.187	20.085	10.473	0.507
1322.000	727.569	80.004	19.994	104.182	20.086	10.397	0.522
1324.001	728.564	80.004	19.994	104.197	20.080	10.814	0.506
1326.000	729.520	80.001	19.994	104.223	20.082	10.700	0.466
1328.000	730.550	80.001	19.994	104.202	20.087	10.349	0.482
1330.000	731.576	80.006	19.994	104.204	20.085	10.506	0.512
1332.001	732.556	80.007	19.994	104.208	20.080	10.776	0.498
1334.000	733.555	80.005	19.993	104.212	20.078	10.912	0.517
1336.000	734.548	80.006	19.993	104.196	20.079	10.888	0.498
1338.000	735.510	80.006	19.995	104.221	20.079	10.865	0.499
1340.000	736.574	80.005	19.994	104.228	20.084	10.525	0.511
1342.000	737.544	80.008	19.994	104.207	20.081	10.715	0.521
1344.000	738.544	80.006	19.994	104.199	20.079	10.840	0.502
1346.001	739.484	80.005	19.993	104.217	20.082	10.664	0.478
1348.000	740.526	80.005	19.993	104.198	20.081	10.722	0.496
1350.000	741.477	80.006	19.994	104.181	20.081	10.732	0.496
1352.000	742.522	80.006	19.993	104.181	20.078	10.920	0.493
1354.000	743.553	80.007	19.992	104.179	20.080	10.818	0.522
1354.500	743.768	80.007	19.992	104.179	20.079	10.849	0.510