File: 01_Data/Cotton_Sheet/MCC/Cotton_Sheet_MCC_30K_min_220107_R1.txt
Sample ID:	C:\MCC\MCC Cal\Test\Cotton_Sheets_MCC_30K_min_220107_R1.txt
Sample Weight (mg):	4.99
Heating Rate (C/s):	0.5
Combustor Temp (C):	900
N2 Flow Rate (cc/min):	80
O2 Flow Rate (cc/min):	20
Calibration File:	C:\MCC\MCC Cal\Coeff1 JN10440_30_210304.txt.txt
T Correction Coefficients:	0	1.024463	0
Time Shift (s):	14
*
Time (s)	Temperature (C)	N2 flow rate (cc/min)	O2 flow rate (cc/min)	Flow Rate (cc/min)	Oxygen (%)	HRR (W/g)	Heating rate (C/s)
-0.001	110.551	80.006	19.993	104.150	20.024	0.187	0.012
2.000	110.568	80.006	19.993	104.109	20.025	0.105	-0.032
4.000	110.591	80.006	19.994	104.125	20.028	-0.062	0.034
6.000	110.537	80.005	19.994	104.116	20.026	0.055	-0.004
8.001	110.555	80.006	19.994	104.106	20.030	-0.243	0.016
9.999	110.580	80.006	19.993	104.127	20.029	-0.159	0.002
11.999	110.562	80.006	19.994	104.112	20.028	-0.107	-0.011
13.999	110.580	80.005	19.995	104.110	20.023	0.207	-0.003
15.999	110.534	80.005	19.994	104.127	20.026	0.059	-0.007
18.000	110.589	80.005	19.994	104.179	20.020	0.441	0.011
19.999	110.605	80.007	19.993	104.185	20.018	0.574	0.001
21.999	110.663	80.008	19.994	104.187	20.010	1.098	0.020
23.999	110.762	80.006	19.993	104.245	20.008	1.201	0.036
25.999	110.847	80.008	19.993	104.293	20.004	1.493	0.037
27.999	110.987	80.008	19.993	104.295	20.000	1.709	0.057
29.999	111.172	80.007	19.994	104.301	20.000	1.709	0.102
31.999	111.367	80.007	19.994	104.315	19.998	1.834	0.091
33.999	111.615	80.007	19.993	104.311	19.994	2.099	0.105
35.999	111.859	80.007	19.992	104.333	19.995	2.052	0.125
37.999	112.172	80.007	19.993	104.305	19.991	2.308	0.163
39.999	112.464	80.007	19.993	104.301	19.992	2.253	0.156
41.999	112.810	80.008	19.993	104.328	19.995	2.079	0.169
44.000	113.171	80.008	19.995	104.339	19.990	2.367	0.186
46.000	113.601	80.008	19.994	104.335	19.993	2.174	0.196
48.000	114.008	80.008	19.994	104.326	19.990	2.402	0.209
49.999	114.467	80.008	19.994	104.329	19.990	2.386	0.228
51.999	114.856	80.007	19.993	104.343	19.989	2.422	0.251
53.999	115.351	80.007	19.993	104.336	19.989	2.428	0.238
55.999	115.809	80.006	19.993	104.337	19.988	2.496	0.253
58.000	116.352	80.005	19.994	104.353	19.990	2.406	0.279
59.999	116.871	80.005	19.994	104.348	19.987	2.596	0.259
61.999	117.417	80.006	19.995	104.370	19.993	2.210	0.245
63.999	118.013	80.007	19.994	104.353	19.993	2.178	0.290
65.999	118.581	80.006	19.993	104.336	19.990	2.405	0.277
67.999	119.177	80.006	19.993	104.334	19.989	2.422	0.297
69.999	119.786	80.007	19.992	104.334	19.989	2.430	0.321
71.999	120.377	80.006	19.994	104.338	19.991	2.347	0.299
73.999	120.990	80.006	19.994	104.340	19.987	2.585	0.301
76.000	121.653	80.005	19.994	104.362	19.985	2.701	0.327
77.999	122.353	80.006	19.994	104.364	19.984	2.785	0.315
80.001	123.042	80.005	19.994	104.364	19.983	2.865	0.334
81.999	123.749	80.005	19.995	104.360	19.984	2.765	0.385
83.999	124.428	80.006	19.994	104.381	19.981	2.973	0.343
86.000	125.140	80.005	19.995	104.382	19.983	2.819	0.335
88.000	125.908	80.005	19.995	104.372	19.980	3.018	0.405
90.000	126.613	80.005	19.994	104.366	19.980	3.020	0.367
92.000	127.366	80.006	19.994	104.371	19.980	3.030	0.372
93.999	128.147	80.007	19.993	104.398	19.982	2.927	0.422
95.999	128.968	80.006	19.992	104.379	19.980	3.053	0.428
97.999	129.737	80.006	19.994	104.389	19.984	2.749	0.375
99.999	130.538	80.006	19.993	104.411	19.982	2.912	0.387
101.999	131.365	80.007	19.993	104.382	19.983	2.821	0.442
103.999	132.151	80.007	19.995	104.383	19.981	2.978	0.384
106.000	133.052	80.006	19.993	104.391	19.981	2.980	0.411
108.000	133.922	80.008	19.992	104.369	19.982	2.876	0.437
109.999	134.755	80.008	19.993	104.370	19.982	2.889	0.422
111.999	135.646	80.008	19.994	104.377	19.982	2.919	0.435
113.999	136.544	80.007	19.994	104.390	19.981	2.987	0.446
115.999	137.426	80.006	19.993	104.371	19.981	2.984	0.449
117.999	138.323	80.007	19.994	104.381	19.981	2.978	0.449
119.999	139.280	80.006	19.993	104.397	19.982	2.908	0.445
121.999	140.202	80.006	19.993	104.381	19.980	3.033	0.486
124.001	141.124	80.006	19.993	104.377	19.978	3.149	0.483
125.999	142.056	80.007	19.992	104.385	19.977	3.205	0.478
127.999	142.976	80.009	19.993	104.392	19.980	3.009	0.478
130.000	143.927	80.008	19.992	104.375	19.983	2.830	0.481
132.000	144.871	80.008	19.992	104.374	19.981	2.955	0.460
134.000	145.854	80.009	19.994	104.368	19.982	2.906	0.501
136.000	146.781	80.007	19.992	104.373	19.983	2.828	0.490
138.000	147.740	80.007	19.992	104.375	19.982	2.926	0.463
140.000	148.708	80.007	19.994	104.380	19.983	2.835	0.506
142.000	149.685	80.006	19.993	104.373	19.983	2.858	0.472
144.000	150.667	80.006	19.995	104.374	19.983	2.837	0.510
146.000	151.632	80.005	19.993	104.380	19.982	2.924	0.478
148.000	152.611	80.006	19.994	104.385	19.983	2.845	0.461
150.000	153.551	80.005	19.995	104.380	19.980	3.008	0.486
152.000	154.561	80.006	19.993	104.376	19.981	2.972	0.511
154.000	155.506	80.005	19.995	104.372	19.984	2.786	0.472
156.000	156.478	80.006	19.995	104.371	19.979	3.092	0.489
158.000	157.431	80.004	19.995	104.371	19.982	2.910	0.481
160.000	158.466	80.005	19.993	104.370	19.985	2.717	0.519
162.000	159.412	80.007	19.996	104.370	19.982	2.914	0.444
164.000	160.430	80.007	19.995	104.369	19.982	2.923	0.491
166.000	161.410	80.006	19.994	104.367	19.981	2.976	0.506
168.000	162.442	80.005	19.993	104.362	19.981	2.996	0.522
170.000	163.371	80.006	19.994	104.372	19.985	2.702	0.496
172.000	164.430	80.004	19.993	104.377	19.980	3.031	0.554
174.000	165.395	80.004	19.994	104.378	19.983	2.819	0.485
176.000	166.441	80.004	19.995	104.374	19.982	2.890	0.518
178.000	167.378	80.006	19.995	104.374	19.982	2.888	0.474
180.000	168.384	80.005	19.994	104.366	19.984	2.755	0.525
182.000	169.378	80.005	19.995	104.361	19.985	2.724	0.509
184.000	170.413	80.005	19.993	104.370	19.986	2.623	0.493
186.000	171.418	80.005	19.993	104.373	19.983	2.847	0.520
188.000	172.415	80.007	19.993	104.367	19.983	2.838	0.477
190.000	173.423	80.007	19.992	104.347	19.985	2.736	0.514
192.000	174.446	80.007	19.993	104.349	19.986	2.668	0.514
194.000	175.436	80.007	19.993	104.366	19.986	2.659	0.507
196.000	176.469	80.007	19.993	104.342	19.983	2.829	0.511
198.000	177.470	80.006	19.994	104.340	19.980	3.052	0.506
200.000	178.464	80.006	19.994	104.342	19.983	2.863	0.519
202.000	179.480	80.007	19.995	104.347	19.985	2.720	0.482
204.000	180.524	80.007	19.993	104.348	19.982	2.884	0.517
206.000	181.526	80.006	19.993	104.355	19.984	2.773	0.509
208.000	182.509	80.007	19.994	104.364	19.986	2.647	0.511
210.000	183.494	80.008	19.993	104.355	19.986	2.653	0.514
212.000	184.493	80.008	19.993	104.375	19.982	2.899	0.485
214.000	185.519	80.008	19.993	104.356	19.983	2.833	0.522
216.000	186.574	80.007	19.993	104.333	19.983	2.856	0.532
218.000	187.577	80.008	19.998	104.362	19.983	2.866	0.499
220.000	188.548	80.007	19.994	104.354	19.985	2.692	0.508
222.000	189.573	80.007	19.993	104.310	19.982	2.925	0.513
224.000	190.583	80.006	19.995	104.332	19.986	2.633	0.493
226.000	191.608	80.006	19.994	104.363	19.986	2.671	0.509
228.000	192.600	80.006	19.993	104.335	19.984	2.805	0.514
230.000	193.604	80.007	19.993	104.324	19.986	2.669	0.468
232.000	194.617	80.005	19.994	104.324	19.985	2.682	0.534
234.000	195.600	80.006	19.992	104.319	19.986	2.632	0.509
236.000	196.591	80.005	19.993	104.322	19.986	2.651	0.480
238.000	197.577	80.006	19.992	104.343	19.987	2.605	0.484
240.000	198.628	80.006	19.994	104.314	19.987	2.587	0.529
242.000	199.609	80.006	19.994	104.317	19.990	2.408	0.521
244.000	200.612	80.007	19.993	104.343	19.986	2.651	0.499
246.000	201.593	80.006	19.995	104.352	19.985	2.693	0.498
248.000	202.645	80.008	19.991	104.319	19.983	2.815	0.520
250.000	203.623	80.006	19.996	104.321	19.984	2.788	0.495
252.000	204.612	80.005	19.991	104.311	19.986	2.671	0.513
254.000	205.617	80.005	19.991	104.309	19.985	2.744	0.502
256.000	206.607	80.005	19.991	104.331	19.986	2.674	0.504
258.000	207.605	80.005	19.994	104.346	19.988	2.515	0.509
260.000	208.583	80.005	19.996	104.372	19.988	2.531	0.507
262.000	209.583	80.006	19.995	104.375	19.986	2.625	0.487
264.000	210.576	80.007	19.993	104.397	19.987	2.602	0.501
266.000	211.590	80.006	19.993	104.364	19.985	2.683	0.482
268.000	212.556	80.007	19.995	104.296	19.985	2.726	0.457
270.000	213.569	80.007	19.995	104.293	19.986	2.674	0.499
272.000	214.576	80.008	19.993	104.324	19.986	2.621	0.509
274.000	215.529	80.007	19.993	104.326	19.978	3.147	0.485
276.000	216.519	80.006	19.994	104.256	19.984	2.796	0.483
278.000	217.493	80.005	19.993	104.282	19.982	2.875	0.522
280.000	218.485	80.007	19.995	104.320	19.977	3.205	0.505
282.000	219.483	80.007	19.994	104.311	19.982	2.936	0.506
284.000	220.467	80.008	19.996	104.335	19.985	2.692	0.515
286.000	221.445	80.007	19.992	104.332	19.981	2.944	0.510
288.000	222.400	80.007	19.997	104.331	19.984	2.757	0.491
290.000	223.423	80.007	19.993	104.332	19.983	2.829	0.511
292.000	224.421	80.007	19.993	104.328	19.986	2.669	0.510
294.000	225.378	80.008	19.992	104.330	19.984	2.751	0.492
296.000	226.363	80.007	19.990	104.308	19.983	2.861	0.481
298.000	227.406	80.009	19.994	104.329	19.984	2.786	0.464
300.000	228.403	80.009	19.991	104.313	19.984	2.781	0.522
302.000	229.380	80.009	19.994	104.308	19.983	2.859	0.484
304.000	230.381	80.008	19.996	104.312	19.984	2.774	0.476
306.000	231.373	80.006	19.993	104.299	19.984	2.776	0.498
308.000	232.376	80.006	19.992	104.299	19.982	2.898	0.517
310.000	233.354	80.005	19.991	104.301	19.979	3.102	0.511
312.000	234.331	80.005	19.991	104.295	19.983	2.862	0.497
314.000	235.323	80.005	19.992	104.279	19.983	2.871	0.481
316.000	236.300	80.008	19.995	104.298	19.982	2.910	0.497
318.000	237.299	80.007	19.992	104.324	19.985	2.709	0.494
320.000	238.282	80.005	19.991	104.331	19.985	2.677	0.502
322.000	239.250	80.007	19.993	104.332	19.984	2.744	0.487
324.000	240.214	80.006	19.992	104.319	19.986	2.651	0.469
326.000	241.228	80.007	19.992	104.305	19.983	2.824	0.488
328.000	242.266	80.006	19.994	104.297	19.981	2.981	0.546
330.000	243.225	80.006	19.994	104.295	19.981	2.943	0.495
332.000	244.213	80.005	19.992	104.313	19.984	2.760	0.500
334.000	245.194	80.006	19.992	104.332	19.986	2.672	0.483
336.000	246.200	80.006	19.994	104.319	19.987	2.552	0.501
338.000	247.194	80.005	19.994	104.294	19.987	2.565	0.478
340.000	248.217	80.005	19.995	104.316	19.987	2.576	0.520
342.000	249.235	80.005	19.995	104.327	19.984	2.801	0.504
344.000	250.267	80.005	19.995	104.300	19.985	2.704	0.517
346.001	251.254	80.005	19.992	104.295	19.987	2.547	0.492
348.000	252.277	80.007	19.993	104.294	19.982	2.912	0.499
350.000	253.322	80.007	19.994	104.311	19.981	2.976	0.531
352.000	254.304	80.007	19.996	104.303	19.983	2.848	0.502
354.000	255.285	80.007	19.993	104.294	19.986	2.641	0.530
356.000	256.276	80.008	19.997	104.296	19.983	2.809	0.473
358.000	257.307	80.009	19.994	104.302	19.985	2.701	0.501
360.000	258.307	80.007	19.994	104.300	19.986	2.659	0.457
362.000	259.335	80.004	19.992	104.310	19.982	2.904	0.540
364.000	260.291	80.005	19.994	104.328	19.982	2.878	0.500
366.000	261.285	80.006	19.992	104.330	19.980	3.042	0.486
368.000	262.328	80.007	19.994	104.334	19.982	2.928	0.510
370.000	263.381	80.005	19.993	104.333	19.982	2.876	0.544
372.000	264.345	80.007	19.996	104.335	19.981	3.000	0.506
374.000	265.369	80.006	19.994	104.322	19.979	3.079	0.493
376.000	266.331	80.007	19.992	104.303	19.981	2.974	0.461
378.000	267.348	80.009	19.994	104.303	19.981	2.947	0.507
380.000	268.346	80.008	19.992	104.346	19.981	2.983	0.472
382.000	269.379	80.008	19.993	104.357	19.976	3.278	0.499
384.000	270.383	80.008	19.993	104.305	19.978	3.175	0.498
386.000	271.451	80.009	19.994	104.292	19.975	3.382	0.517
388.000	272.490	80.006	19.993	104.297	19.976	3.281	0.526
390.000	273.469	80.005	19.992	104.300	19.970	3.696	0.514
392.000	274.455	80.006	19.992	104.300	19.966	3.923	0.494
394.000	275.457	80.006	19.993	104.316	19.967	3.870	0.494
396.000	276.502	80.005	19.994	104.327	19.966	3.939	0.492
398.000	277.507	80.006	19.993	104.313	19.960	4.310	0.534
400.000	278.445	80.006	19.993	104.296	19.957	4.545	0.458
402.000	279.513	80.007	19.994	104.292	19.962	4.201	0.528
404.000	280.441	80.005	19.995	104.295	19.958	4.471	0.473
406.000	281.434	80.006	19.995	104.309	19.954	4.732	0.478
408.000	282.443	80.007	19.994	104.312	19.952	4.863	0.507
410.000	283.425	80.007	19.993	104.315	19.947	5.219	0.484
412.000	284.453	80.007	19.992	104.315	19.942	5.546	0.489
414.000	285.440	80.008	19.993	104.309	19.937	5.862	0.513
416.000	286.411	80.007	19.993	104.314	19.934	6.018	0.488
418.000	287.419	80.007	19.995	104.324	19.930	6.315	0.505
420.000	288.435	80.006	19.995	104.334	19.929	6.344	0.490
422.000	289.403	80.005	19.994	104.333	19.923	6.739	0.484
424.000	290.383	80.005	19.994	104.332	19.919	6.997	0.476
426.000	291.414	80.005	19.994	104.333	19.913	7.397	0.540
428.000	292.410	80.006	19.993	104.338	19.909	7.691	0.509
430.000	293.395	80.005	19.995	104.342	19.904	7.989	0.511
432.000	294.406	80.006	19.993	104.342	19.895	8.606	0.485
434.000	295.410	80.006	19.993	104.345	19.890	8.881	0.511
436.000	296.441	80.007	19.995	104.364	19.885	9.244	0.489
438.000	297.392	80.008	19.995	104.363	19.877	9.753	0.479
440.000	298.420	80.007	19.994	104.359	19.871	10.168	0.504
442.000	299.403	80.006	19.993	104.371	19.863	10.701	0.499
444.000	300.422	80.007	19.994	104.366	19.858	11.020	0.476
446.000	301.388	80.008	19.993	104.360	19.853	11.351	0.487
448.000	302.424	80.006	19.995	104.373	19.842	12.069	0.523
450.000	303.354	80.006	19.995	104.371	19.833	12.623	0.480
452.000	304.368	80.007	19.994	104.376	19.824	13.214	0.488
454.000	305.368	80.006	19.992	104.384	19.819	13.533	0.484
456.000	306.395	80.007	19.996	104.384	19.811	14.100	0.519
458.000	307.409	80.008	19.995	104.378	19.802	14.677	0.531
460.000	308.420	80.008	19.994	104.373	19.791	15.401	0.526
462.000	309.399	80.008	19.994	104.383	19.782	15.942	0.499
464.000	310.439	80.008	19.995	104.382	19.769	16.820	0.507
466.000	311.437	80.009	19.995	104.383	19.758	17.535	0.542
468.000	312.437	80.007	19.995	104.394	19.746	18.331	0.499
470.000	313.451	80.007	19.994	104.388	19.737	18.933	0.490
472.000	314.528	80.006	19.994	104.407	19.723	19.804	0.555
474.000	315.502	80.007	19.994	104.408	19.709	20.764	0.465
476.000	316.514	80.006	19.993	104.409	19.695	21.668	0.515
478.000	317.501	80.007	19.994	104.436	19.683	22.453	0.509
480.000	318.531	80.006	19.993	104.450	19.670	23.308	0.513
482.000	319.531	80.007	19.993	104.449	19.651	24.506	0.506
484.000	320.525	80.006	19.994	104.451	19.635	25.565	0.491
486.000	321.528	80.006	19.992	104.453	19.619	26.648	0.536
488.000	322.503	80.006	19.992	104.463	19.599	27.947	0.492
490.000	323.494	80.006	19.993	104.469	19.578	29.293	0.503
492.000	324.502	80.006	19.993	104.490	19.557	30.667	0.500
494.000	325.520	80.006	19.992	104.486	19.531	32.364	0.525
496.000	326.481	80.005	19.992	104.511	19.510	33.772	0.503
498.000	327.501	80.006	19.993	104.520	19.485	35.419	0.515
500.000	328.510	80.005	19.994	104.530	19.460	37.020	0.517
502.000	329.521	80.007	19.993	104.537	19.435	38.671	0.526
504.000	330.477	80.006	19.994	104.547	19.405	40.660	0.477
506.000	331.477	80.006	19.993	104.580	19.377	42.514	0.468
508.000	332.455	80.005	19.995	104.609	19.343	44.732	0.471
510.000	333.457	80.004	19.993	104.585	19.306	47.187	0.488
512.000	334.475	80.006	19.993	104.604	19.273	49.345	0.486
514.000	335.515	80.006	19.992	104.619	19.242	51.349	0.512
516.000	336.507	80.006	19.993	104.642	19.199	54.174	0.480
518.000	337.501	80.006	19.992	104.652	19.161	56.699	0.504
520.000	338.523	80.007	19.993	104.670	19.121	59.313	0.517
522.000	339.495	80.007	19.992	104.682	19.081	61.964	0.503
524.000	340.486	80.007	19.993	104.696	19.036	64.933	0.484
526.000	341.514	80.006	19.994	104.740	18.995	67.628	0.523
528.000	342.502	80.006	19.994	104.764	18.947	70.802	0.518
530.000	343.495	80.006	19.994	104.765	18.903	73.679	0.485
532.000	344.481	80.007	19.994	104.785	18.852	76.974	0.493
534.000	345.473	80.006	19.994	104.805	18.806	80.042	0.481
536.000	346.477	80.006	19.995	104.818	18.751	83.637	0.476
538.000	347.516	80.006	19.994	104.836	18.702	86.873	0.509
540.000	348.462	80.007	19.993	104.860	18.648	90.479	0.497
542.000	349.445	80.008	19.993	104.865	18.593	94.063	0.475
544.000	350.489	80.008	19.993	104.859	18.537	97.703	0.526
546.000	351.459	80.008	19.993	104.881	18.487	101.054	0.505
548.000	352.479	80.009	19.993	104.909	18.434	104.538	0.477
550.000	353.498	80.007	19.994	104.947	18.379	108.137	0.523
552.000	354.475	80.007	19.993	104.955	18.332	111.337	0.497
554.000	355.471	80.007	19.994	104.945	18.284	114.385	0.530
556.000	356.460	80.004	19.994	104.946	18.236	117.516	0.488
558.000	357.453	80.004	19.994	104.961	18.192	120.466	0.486
560.000	358.468	80.005	19.994	104.981	18.147	123.449	0.482
562.000	359.438	80.005	19.995	105.041	18.111	125.715	0.498
564.000	360.426	80.005	19.994	105.024	18.073	128.261	0.487
566.000	361.447	80.005	19.994	104.955	18.041	130.384	0.521
568.000	362.457	80.005	19.993	104.997	18.008	132.431	0.510
570.000	363.462	80.006	19.993	105.025	17.983	134.024	0.481
572.000	364.463	80.004	19.993	105.002	17.964	135.308	0.487
574.000	365.423	80.005	19.992	104.978	17.947	136.375	0.486
576.000	366.443	80.006	19.994	105.009	17.935	137.117	0.490
578.000	367.484	80.005	19.993	104.993	17.935	137.088	0.526
580.000	368.508	80.006	19.992	104.908	17.942	136.570	0.522
582.000	369.535	80.006	19.992	104.942	17.961	135.261	0.548
584.000	370.536	80.006	19.992	104.919	17.982	133.847	0.500
586.000	371.512	80.007	19.994	104.893	18.025	130.992	0.513
588.000	372.561	80.007	19.994	104.852	18.069	128.042	0.537
590.000	373.603	80.006	19.993	104.817	18.131	123.928	0.534
592.000	374.633	80.006	19.993	104.770	18.202	119.234	0.538
594.000	375.649	80.007	19.994	104.719	18.287	113.612	0.534
596.000	376.688	80.006	19.995	104.667	18.377	107.706	0.530
598.000	377.718	80.008	19.993	104.632	18.480	100.933	0.508
600.000	378.789	80.008	19.993	104.586	18.581	94.322	0.560
602.000	379.756	80.009	19.994	104.531	18.697	86.752	0.492
604.000	380.794	80.008	19.994	104.483	18.807	79.587	0.505
606.000	381.880	80.010	19.993	104.453	18.918	72.298	0.518
608.000	382.903	80.009	19.993	104.424	19.027	65.195	0.524
610.000	383.939	80.008	19.993	104.382	19.134	58.193	0.562
612.000	384.986	80.007	19.993	104.358	19.231	51.836	0.538
614.000	386.015	80.008	19.993	104.333	19.326	45.640	0.528
616.000	387.084	80.008	19.994	104.329	19.417	39.733	0.543
618.000	388.077	80.006	19.994	104.306	19.500	34.326	0.517
620.000	389.138	80.007	19.993	104.291	19.567	29.951	0.535
622.000	390.185	80.008	19.993	104.274	19.640	25.207	0.531
624.000	391.225	80.007	19.995	104.255	19.696	21.550	0.530
626.000	392.241	80.007	19.994	104.253	19.752	17.890	0.506
628.000	393.278	80.009	19.994	104.236	19.796	15.000	0.574
630.000	394.348	80.008	19.994	104.230	19.832	12.657	0.505
632.000	395.388	80.009	19.993	104.222	19.864	10.598	0.516
634.000	396.407	80.006	19.994	104.235	19.891	8.817	0.513
636.000	397.423	80.008	19.994	104.253	19.914	7.368	0.500
638.000	398.449	80.007	19.994	104.234	19.928	6.396	0.490
640.000	399.434	80.007	19.994	104.228	19.942	5.537	0.506
642.000	400.453	80.005	19.994	104.232	19.953	4.776	0.483
644.000	401.477	80.006	19.993	104.235	19.959	4.398	0.494
646.000	402.489	80.004	19.993	104.248	19.962	4.184	0.512
648.000	403.506	80.006	19.994	104.243	19.968	3.837	0.499
650.000	404.519	80.004	19.993	104.231	19.970	3.666	0.517
652.000	405.439	80.006	19.994	104.235	19.973	3.485	0.464
654.000	406.461	80.005	19.994	104.224	19.976	3.305	0.502
656.000	407.443	80.006	19.994	104.241	19.976	3.265	0.459
658.000	408.467	80.007	19.995	104.249	19.977	3.234	0.474
660.000	409.429	80.006	19.994	104.249	19.982	2.907	0.461
662.000	410.462	80.006	19.994	104.253	19.981	2.939	0.529
664.000	411.440	80.007	19.993	104.254	19.979	3.110	0.498
666.000	412.381	80.006	19.993	104.229	19.979	3.121	0.487
668.000	413.395	80.008	19.993	104.248	19.977	3.210	0.469
670.000	414.350	80.007	19.994	104.257	19.979	3.103	0.464
672.000	415.338	80.006	19.992	104.256	19.981	2.948	0.499
674.000	416.303	80.007	19.993	104.255	19.982	2.887	0.492
676.000	417.281	80.005	19.993	104.243	19.979	3.094	0.477
678.000	418.287	80.007	19.994	104.248	19.979	3.121	0.514
680.000	419.236	80.009	19.993	104.249	19.979	3.110	0.494
682.000	420.229	80.008	19.994	104.253	19.977	3.246	0.505
684.000	421.207	80.009	19.993	104.241	19.976	3.289	0.469
686.000	422.200	80.008	19.993	104.249	19.978	3.173	0.500
688.000	423.204	80.007	19.993	104.252	19.980	3.066	0.495
690.000	424.175	80.008	19.993	104.255	19.976	3.312	0.484
692.000	425.152	80.008	19.993	104.247	19.979	3.109	0.516
694.000	426.150	80.008	19.993	104.250	19.980	3.059	0.513
696.000	427.115	80.009	19.993	104.251	19.979	3.082	0.473
698.000	428.091	80.007	19.992	104.250	19.975	3.343	0.467
700.000	429.115	80.008	19.993	104.256	19.978	3.146	0.499
702.000	430.119	80.009	19.992	104.256	19.982	2.905	0.500
704.000	431.125	80.008	19.993	104.258	19.981	2.944	0.521
706.000	432.086	80.007	19.993	104.259	19.981	2.944	0.467
708.000	433.100	80.007	19.993	104.258	19.980	3.060	0.509
710.000	434.118	80.009	19.993	104.255	19.979	3.091	0.506
712.000	435.132	80.009	19.994	104.258	19.986	2.631	0.484
714.000	436.139	80.009	19.992	104.254	19.982	2.917	0.487
716.000	437.203	80.008	19.993	104.253	19.987	2.545	0.502
718.000	438.210	80.008	19.993	104.253	19.989	2.415	0.504
720.000	439.184	80.007	19.994	104.252	19.987	2.565	0.474
722.000	440.227	80.005	19.993	104.251	19.992	2.255	0.508
724.000	441.248	80.005	19.993	104.252	19.989	2.451	0.512
726.000	442.304	80.007	19.994	104.242	19.991	2.339	0.505
728.000	443.336	80.006	19.994	104.237	19.989	2.444	0.497
730.000	444.359	80.007	19.994	104.252	19.990	2.367	0.503
732.000	445.409	80.007	19.995	104.256	19.991	2.308	0.540
734.000	446.463	80.007	19.994	104.253	19.991	2.346	0.528
736.000	447.473	80.008	19.994	104.254	19.992	2.247	0.507
738.000	448.512	80.006	19.995	104.265	19.995	2.070	0.487
740.000	449.549	80.006	19.995	104.270	19.990	2.372	0.507
742.000	450.615	80.006	19.994	104.251	19.993	2.161	0.493
744.000	451.606	80.006	19.994	104.254	19.995	2.038	0.526
746.000	452.660	80.007	19.994	104.252	19.995	2.049	0.523
748.000	453.671	80.005	19.994	104.244	19.994	2.133	0.527
750.000	454.720	80.005	19.995	104.239	19.993	2.204	0.520
752.000	455.780	80.004	19.994	104.232	19.994	2.126	0.537
754.000	456.745	80.006	19.996	104.247	19.993	2.155	0.498
756.000	457.797	80.006	19.995	104.253	19.995	2.058	0.528
758.000	458.883	80.005	19.995	104.249	19.995	2.040	0.524
760.000	459.912	80.006	19.993	104.246	19.996	2.017	0.538
762.000	460.973	80.007	19.993	104.252	19.996	2.001	0.501
764.000	461.981	80.008	19.994	104.258	19.995	2.044	0.529
766.000	463.037	80.008	19.993	104.258	19.998	1.843	0.488
768.000	464.014	80.008	19.993	104.248	19.991	2.324	0.504
770.000	465.100	80.008	19.993	104.244	19.988	2.536	0.541
772.000	466.083	80.007	19.993	104.237	20.001	1.693	0.545
774.000	467.206	80.006	19.994	104.246	19.997	1.941	0.562
776.000	468.140	80.007	19.993	104.234	20.002	1.586	0.531
778.000	469.162	80.009	19.994	104.232	19.999	1.802	0.475
780.000	470.122	80.008	19.994	104.225	20.003	1.538	0.430
782.000	471.109	80.006	19.993	104.245	19.998	1.859	0.126
784.000	471.808	80.006	19.993	104.228	20.002	1.631	0.085
786.000	473.570	80.006	19.992	104.224	20.003	1.552	1.016
788.000	474.122	80.007	19.992	104.227	20.001	1.643	0.630
790.000	475.477	80.009	19.993	104.221	19.999	1.782	0.455
792.000	476.419	80.010	19.992	104.230	20.005	1.414	0.505
794.000	477.518	80.009	19.992	104.216	20.004	1.479	0.525
796.000	478.490	80.010	19.992	104.221	20.003	1.552	0.545
798.000	479.534	80.009	19.993	104.216	20.004	1.452	0.474
800.000	480.515	80.009	19.993	104.223	20.007	1.259	0.546
802.000	481.498	80.006	19.994	104.224	20.003	1.502	0.548
804.000	482.494	80.006	19.993	104.215	20.006	1.322	0.494
806.000	483.491	80.006	19.993	104.223	20.006	1.323	0.471
808.000	484.457	80.006	19.994	104.226	20.004	1.495	0.442
810.000	485.438	80.006	19.994	104.221	20.006	1.345	0.461
812.000	486.452	80.006	19.993	104.224	20.006	1.308	0.484
814.000	487.494	80.006	19.995	104.225	20.004	1.479	0.522
816.000	488.454	80.006	19.994	104.217	20.007	1.297	0.539
818.000	489.381	80.007	19.993	104.217	20.007	1.256	0.489
820.000	490.449	80.006	19.994	104.251	20.010	1.056	0.493
822.000	491.405	80.007	19.994	104.260	20.009	1.145	0.473
824.000	492.396	80.007	19.994	104.253	20.010	1.093	0.489
826.000	493.403	80.007	19.994	104.244	20.013	0.864	0.526
828.000	494.423	80.005	19.993	104.250	20.010	1.056	0.485
830.000	495.383	80.006	19.993	104.231	20.009	1.123	0.486
832.000	496.428	80.005	19.993	104.246	20.008	1.218	0.520
834.000	497.390	80.006	19.994	104.244	20.016	0.704	0.490
836.000	498.378	80.004	19.994	104.229	20.011	1.005	0.465
838.000	499.352	80.003	19.993	104.217	20.011	1.022	0.502
840.000	500.335	80.004	19.995	104.234	20.008	1.214	0.485
842.000	501.346	80.004	19.994	104.227	20.014	0.830	0.487
844.000	502.311	80.004	19.994	104.235	20.011	1.020	0.493
846.000	503.305	80.006	19.994	104.215	20.016	0.686	0.486
848.000	504.250	80.006	19.996	104.221	20.013	0.880	0.474
850.000	505.247	80.007	19.994	104.217	20.014	0.793	0.505
852.000	506.233	80.007	19.993	104.219	20.012	0.981	0.494
854.000	507.214	80.008	19.993	104.218	20.014	0.815	0.451
856.000	508.215	80.007	19.993	104.217	20.017	0.647	0.493
858.000	509.146	80.008	19.993	104.217	20.014	0.831	0.479
860.000	510.159	80.009	19.994	104.227	20.014	0.841	0.500
862.000	511.059	80.007	19.993	104.218	20.014	0.818	0.463
864.000	512.039	80.007	19.993	104.247	20.010	1.071	0.475
866.000	512.956	80.008	19.994	104.252	20.015	0.725	0.462
868.000	513.962	80.008	19.994	104.243	20.016	0.707	0.519
870.000	514.900	80.008	19.994	104.215	20.014	0.797	0.456
872.000	515.914	80.008	19.995	104.228	20.018	0.582	0.481
874.000	516.883	80.009	19.993	104.207	20.010	1.068	0.502
876.000	517.846	80.008	19.992	104.191	20.015	0.748	0.495
878.000	518.788	80.010	19.995	104.238	20.016	0.695	0.467
880.000	519.727	80.009	19.994	104.244	20.014	0.827	0.472
882.000	520.717	80.008	19.993	104.224	20.013	0.880	0.485
884.000	521.680	80.007	19.993	104.202	20.018	0.555	0.491
886.000	522.628	80.008	19.994	104.221	20.017	0.613	0.466
888.000	523.612	80.006	19.991	104.218	20.020	0.439	0.464
890.000	524.582	80.006	19.993	104.223	20.020	0.445	0.512
892.000	525.541	80.007	19.994	104.223	20.017	0.641	0.489
894.000	526.499	80.006	19.993	104.219	20.016	0.657	0.493
896.000	527.437	80.005	19.993	104.222	20.018	0.559	0.474
898.000	528.443	80.008	19.992	104.221	20.017	0.623	0.495
900.000	529.453	80.006	19.994	104.218	20.020	0.445	0.499
902.000	530.400	80.004	19.992	104.225	20.018	0.539	0.469
904.000	531.406	80.006	19.993	104.217	20.014	0.795	0.482
906.000	532.377	80.004	19.993	104.227	20.019	0.489	0.505
908.000	533.355	80.007	19.994	104.225	20.020	0.409	0.477
910.000	534.338	80.006	19.995	104.245	20.020	0.409	0.498
912.000	535.330	80.006	19.994	104.229	20.017	0.645	0.498
914.000	536.342	80.007	19.993	104.228	20.018	0.541	0.514
916.000	537.320	80.006	19.993	104.218	20.019	0.479	0.494
918.000	538.268	80.006	19.994	104.218	20.019	0.495	0.464
920.000	539.252	80.007	19.994	104.219	20.022	0.327	0.491
922.000	540.229	80.008	19.994	104.217	20.020	0.402	0.518
924.000	541.242	80.006	19.994	104.215	20.021	0.336	0.497
926.000	542.184	80.006	19.994	104.212	20.016	0.677	0.473
928.000	543.155	80.006	19.993	104.216	20.021	0.330	0.493
930.000	544.102	80.006	19.994	104.216	20.020	0.438	0.479
932.000	545.062	80.007	19.995	104.215	20.019	0.498	0.489
934.000	546.023	80.007	19.994	104.212	20.018	0.548	0.455
936.000	547.006	80.008	19.994	104.212	20.020	0.411	0.461
938.000	547.971	80.008	19.994	104.214	20.021	0.338	0.497
940.000	548.966	80.008	19.993	104.213	20.020	0.432	0.490
942.000	549.934	80.007	19.996	104.214	20.019	0.468	0.475
944.000	550.925	80.008	19.995	104.211	20.021	0.338	0.501
946.000	551.976	80.008	19.994	104.215	20.019	0.489	0.509
948.000	552.952	80.007	19.993	104.214	20.020	0.400	0.471
950.000	553.961	80.006	19.993	104.226	20.022	0.270	0.506
952.000	554.980	80.008	19.993	104.224	20.024	0.170	0.521
954.000	555.962	80.009	19.992	104.225	20.019	0.518	0.515
956.000	557.010	80.008	19.992	104.219	20.019	0.461	0.509
958.000	558.010	80.009	19.992	104.220	20.020	0.409	0.499
960.000	559.037	80.010	19.992	104.228	20.023	0.241	0.494
962.000	560.072	80.008	19.993	104.223	20.019	0.486	0.518
964.000	561.111	80.008	19.993	104.234	20.023	0.205	0.519
966.000	562.160	80.009	19.994	104.221	20.016	0.691	0.536
968.000	563.206	80.006	19.993	104.238	20.020	0.445	0.528
970.000	564.263	80.005	19.993	104.239	20.020	0.441	0.543
972.000	565.304	80.007	19.993	104.239	20.020	0.411	0.529
974.000	566.376	80.006	19.993	104.238	20.015	0.725	0.549
976.000	567.398	80.006	19.994	104.230	20.018	0.525	0.520
978.000	568.455	80.006	19.993	104.221	20.015	0.745	0.549
980.000	569.533	80.006	19.993	104.230	20.019	0.504	0.544
982.000	570.591	80.006	19.993	104.223	20.019	0.495	0.540
984.000	571.655	80.007	19.994	104.220	20.021	0.339	0.531
986.000	572.721	80.008	19.995	104.220	20.019	0.473	0.549
988.000	573.797	80.006	19.993	104.231	20.021	0.341	0.516
990.000	574.921	80.007	19.993	104.228	20.020	0.455	0.559
992.000	575.951	80.006	19.993	104.219	20.021	0.379	0.493
994.000	577.013	80.006	19.994	104.219	20.017	0.609	0.502
996.000	578.106	80.005	19.993	104.219	20.020	0.438	0.540
998.000	579.164	80.005	19.993	104.217	20.021	0.332	0.541
1000.000	580.177	80.005	19.995	104.216	20.021	0.377	0.524
1002.000	581.266	80.006	19.994	104.217	20.022	0.280	0.526
1004.000	582.290	80.005	19.994	104.228	20.020	0.407	0.521
1006.000	583.347	80.006	19.994	104.220	20.019	0.482	0.516
1008.000	584.368	80.006	19.993	104.218	20.022	0.289	0.523
1010.000	585.407	80.006	19.993	104.213	20.026	0.027	0.503
1012.000	586.419	80.007	19.993	104.218	20.024	0.163	0.512
1014.000	587.538	80.006	19.992	104.222	20.025	0.102	0.514
1016.000	588.537	80.007	19.994	104.218	20.025	0.091	0.476
1018.000	589.601	80.008	19.994	104.221	20.020	0.430	0.525
1020.000	590.659	80.007	19.993	104.220	20.021	0.371	0.549
1022.000	591.701	80.007	19.994	104.230	20.022	0.271	0.502
1024.000	592.748	80.005	19.993	104.238	20.022	0.288	0.515
1026.000	593.836	80.005	19.995	104.231	20.024	0.189	0.542
1027.999	594.842	80.006	19.993	104.224	20.025	0.077	0.495
1029.999	595.911	80.006	19.995	104.226	20.024	0.171	0.552
1032.000	596.930	80.007	19.994	104.219	20.025	0.132	0.510
1033.999	597.998	80.007	19.993	104.221	20.023	0.259	0.550
1035.999	599.044	80.006	19.994	104.220	20.024	0.164	0.514
1037.999	600.062	80.007	19.993	104.218	20.025	0.123	0.492
1040.000	601.080	80.008	19.993	104.218	20.026	0.050	0.507
1042.000	602.099	80.009	19.994	104.212	20.026	0.014	0.511
1044.000	603.132	80.007	19.992	104.218	20.022	0.268	0.505
1045.999	604.172	80.008	19.993	104.220	20.024	0.134	0.524
1047.999	605.189	80.007	19.993	104.208	20.022	0.325	0.530
1049.999	606.209	80.006	19.994	104.220	20.028	-0.079	0.508
1051.999	607.219	80.006	19.993	104.222	20.024	0.146	0.491
1053.999	608.262	80.004	19.993	104.215	20.025	0.125	0.506
1055.999	609.262	80.005	19.994	104.218	20.027	0.000	0.495
1057.999	610.280	80.005	19.994	104.222	20.027	-0.059	0.488
1059.999	611.307	80.004	19.993	104.231	20.025	0.096	0.495
1061.999	612.294	80.005	19.994	104.212	20.023	0.229	0.534
1063.999	613.285	80.005	19.995	104.218	20.029	-0.186	0.518
1066.000	614.294	80.006	19.993	104.218	20.026	0.066	0.508
1067.999	615.283	80.005	19.993	104.216	20.026	0.009	0.479
1069.999	616.275	80.006	19.993	104.216	20.026	0.038	0.496
1071.999	617.231	80.007	19.993	104.216	20.028	-0.070	0.468
1074.000	618.183	80.006	19.992	104.215	20.025	0.082	0.469
1075.999	619.171	80.007	19.993	104.217	20.031	-0.296	0.504
1077.999	620.171	80.005	19.993	104.214	20.031	-0.277	0.494
1079.999	621.084	80.005	19.992	104.216	20.029	-0.163	0.467
1081.999	622.060	80.005	19.993	104.218	20.031	-0.261	0.480
1083.999	623.026	80.007	19.993	104.213	20.027	0.000	0.456
1085.999	624.006	80.005	19.993	104.204	20.031	-0.286	0.523
1087.999	624.922	80.005	19.994	104.215	20.024	0.188	0.447
1090.000	625.894	80.005	19.993	104.220	20.034	-0.486	0.468
1091.999	626.888	80.006	19.993	104.217	20.029	-0.184	0.533
1093.999	627.850	80.007	19.994	104.218	20.027	-0.034	0.478
1095.999	628.823	80.006	19.994	104.204	20.028	-0.109	0.482
1098.001	629.775	80.008	19.994	104.205	20.024	0.141	0.509
1099.999	630.755	80.007	19.994	104.216	20.030	-0.241	0.484
1101.999	631.778	80.005	19.994	104.233	20.035	-0.568	0.517
1103.999	632.758	80.006	19.994	104.221	20.026	0.064	0.478
1105.999	633.825	80.007	19.994	104.211	20.030	-0.211	0.520
1107.999	634.797	80.006	19.994	104.218	20.033	-0.434	0.512
1110.000	635.853	80.007	19.993	104.226	20.031	-0.300	0.499
1111.999	636.926	80.005	19.992	104.220	20.034	-0.509	0.538
1114.000	637.947	80.008	19.995	104.228	20.030	-0.198	0.499
1115.999	639.056	80.007	19.994	104.228	20.032	-0.355	0.567
1117.999	640.129	80.008	19.994	104.216	20.028	-0.116	0.522
1119.999	641.102	80.008	19.994	104.218	20.030	-0.250	0.515
1121.999	642.226	80.009	19.995	104.217	20.032	-0.330	0.547
1123.999	643.237	80.009	19.996	104.216	20.033	-0.423	0.520
1125.999	644.342	80.009	19.995	104.204	20.028	-0.073	0.537
1127.999	645.477	80.007	19.993	104.206	20.030	-0.218	0.571
1129.999	646.473	80.007	19.995	104.214	20.034	-0.459	0.539
1131.999	647.485	80.005	19.993	104.215	20.031	-0.307	0.521
1133.999	648.566	80.006	19.993	104.215	20.033	-0.395	0.569
1135.999	649.616	80.006	19.993	104.213	20.037	-0.711	0.530
1137.999	650.634	80.006	19.994	104.211	20.030	-0.243	0.530
1139.999	651.664	80.007	19.994	104.216	20.035	-0.579	0.509
1141.999	652.684	80.006	19.992	104.217	20.033	-0.402	0.528
1143.999	653.688	80.007	19.994	104.212	20.036	-0.623	0.520
1145.999	654.692	80.006	19.994	104.217	20.032	-0.339	0.462
1147.999	655.696	80.006	19.994	104.218	20.030	-0.254	0.459
1149.999	656.704	80.006	19.993	104.218	20.037	-0.666	0.484
1151.999	657.701	80.006	19.994	104.215	20.033	-0.407	0.487
1153.999	658.695	80.005	19.993	104.217	20.032	-0.375	0.506
1155.999	659.702	80.007	19.993	104.218	20.035	-0.554	0.478
1157.999	660.724	80.005	19.994	104.217	20.029	-0.186	0.503
1160.000	661.689	80.006	19.994	104.218	20.032	-0.327	0.493
1161.999	662.682	80.005	19.994	104.220	20.034	-0.518	0.509
1163.999	663.714	80.005	19.992	104.219	20.026	0.036	0.511
1165.999	664.744	80.006	19.993	104.224	20.030	-0.218	0.541
1167.999	665.745	80.006	19.993	104.225	20.031	-0.309	0.541
1169.999	666.749	80.006	19.994	104.231	20.034	-0.511	0.500
1172.000	667.771	80.005	19.993	104.223	20.032	-0.379	0.498
1173.999	668.735	80.007	19.993	104.220	20.033	-0.430	0.482
1176.000	669.760	80.008	19.993	104.220	20.033	-0.443	0.493
1177.999	670.738	80.007	19.992	104.218	20.031	-0.284	0.487
1179.999	671.815	80.008	19.994	104.217	20.032	-0.382	0.548
1181.999	672.858	80.007	19.993	104.216	20.036	-0.634	0.501
1183.999	673.854	80.007	19.994	104.216	20.035	-0.538	0.516
1185.999	674.900	80.007	19.995	104.220	20.035	-0.552	0.539
1187.999	675.943	80.008	19.993	104.216	20.033	-0.416	0.528
1189.999	676.961	80.007	19.994	104.202	20.031	-0.318	0.501
1191.999	677.983	80.006	19.994	104.206	20.032	-0.348	0.493
1193.999	679.042	80.007	19.993	104.215	20.030	-0.250	0.527
1195.999	680.042	80.008	19.994	104.216	20.035	-0.571	0.488
1197.999	681.102	80.009	19.994	104.218	20.037	-0.682	0.545
1199.999	682.115	80.007	19.994	104.206	20.032	-0.337	0.526
1201.999	683.119	80.008	19.994	104.215	20.030	-0.211	0.494
1203.999	684.135	80.008	19.992	104.215	20.032	-0.380	0.527
1205.999	685.206	80.009	19.993	104.214	20.033	-0.404	0.540
1207.999	686.160	80.009	19.993	104.213	20.037	-0.671	0.497
1209.999	687.231	80.008	19.995	104.206	20.032	-0.336	0.530
1211.999	688.258	80.006	19.995	104.215	20.037	-0.700	0.507
1213.999	689.287	80.005	19.993	104.216	20.035	-0.566	0.535
1215.999	690.394	80.005	19.994	104.214	20.039	-0.830	0.555
1217.999	691.406	80.007	19.995	104.216	20.039	-0.838	0.538
1219.999	692.468	80.005	19.994	104.213	20.035	-0.541	0.530
1221.999	693.506	80.005	19.994	104.207	20.041	-0.927	0.538
1223.999	694.532	80.005	19.993	104.192	20.032	-0.388	0.540
1225.999	695.558	80.006	19.993	104.185	20.038	-0.747	0.531
1227.999	696.604	80.005	19.993	104.214	20.037	-0.691	0.535
1230.000	697.600	80.006	19.993	104.224	20.041	-0.911	0.519
1231.999	698.581	80.008	19.993	104.219	20.040	-0.896	0.500
1233.999	699.569	80.006	19.993	104.221	20.035	-0.534	0.468
1235.999	700.556	80.008	19.994	104.227	20.035	-0.577	0.471
1237.999	701.515	80.007	19.993	104.207	20.041	-0.921	0.494
1239.999	702.521	80.006	19.992	104.202	20.036	-0.639	0.480
1241.999	703.474	80.007	19.993	104.196	20.035	-0.530	0.480
1243.999	704.456	80.006	19.995	104.238	20.036	-0.598	0.472
1245.999	705.402	80.007	19.994	104.224	20.043	-1.066	0.476
1247.999	706.335	80.006	19.993	104.201	20.041	-0.930	0.467
1249.999	707.245	80.005	19.994	104.200	20.043	-1.098	0.469
1251.999	708.184	80.007	19.994	104.207	20.039	-0.782	0.467
1253.999	709.132	80.007	19.994	104.216	20.041	-0.964	0.497
1255.999	710.074	80.006	19.992	104.219	20.036	-0.605	0.481
1257.999	711.002	80.007	19.994	104.218	20.046	-1.275	0.448
1260.001	711.899	80.009	19.994	104.218	20.037	-0.680	0.446
1261.999	712.874	80.008	19.994	104.211	20.035	-0.546	0.451
1263.999	713.827	80.011	19.994	104.185	20.039	-0.798	0.457
1265.999	714.786	80.007	19.993	104.201	20.037	-0.702	0.515
1267.999	715.746	80.009	19.994	104.203	20.034	-0.518	0.488
1269.999	716.720	80.008	19.993	104.209	20.036	-0.620	0.492
1271.999	717.675	80.006	19.993	104.201	20.038	-0.757	0.481
1273.999	718.641	80.007	19.994	104.206	20.038	-0.734	0.489
1275.999	719.655	80.007	19.993	104.213	20.043	-1.055	0.506
1277.999	720.674	80.008	19.993	104.215	20.038	-0.752	0.511
1279.999	721.631	80.007	19.994	104.216	20.039	-0.816	0.506
1282.000	722.653	80.010	19.995	104.219	20.036	-0.616	0.499
1283.999	723.698	80.008	19.995	104.216	20.036	-0.618	0.511
1285.999	724.796	80.009	19.994	104.215	20.035	-0.539	0.543
1287.999	725.925	80.011	19.993	104.211	20.035	-0.530	0.572
1289.999	727.025	80.012	19.995	104.208	20.035	-0.570	0.561
1291.999	728.112	80.009	19.993	104.210	20.033	-0.427	0.538
1293.999	729.289	80.010	19.994	104.218	20.034	-0.454	0.590
1296.000	730.441	80.005	19.992	104.217	20.029	-0.159	0.581
1297.999	731.615	80.007	19.994	104.218	20.029	-0.141	0.578
1300.000	732.849	80.006	19.993	104.220	20.033	-0.427	0.603
1301.999	734.009	80.006	19.993	104.219	20.037	-0.709	0.598
1303.999	735.213	80.006	19.995	104.229	20.033	-0.448	0.607
1306.000	736.437	80.006	19.994	104.227	20.034	-0.475	0.618
1307.999	737.657	80.006	19.996	104.220	20.035	-0.577	0.648
1309.999	738.898	80.006	19.995	104.230	20.038	-0.727	0.611
1311.999	740.127	80.007	19.995	104.236	20.036	-0.611	0.637
1313.999	741.368	80.007	19.994	104.225	20.038	-0.736	0.623
1315.499	742.286	80.007	19.994	104.231	20.037	-0.668	0.612