File: 01_Data/Cotton_Sheet/MCC/Cotton_Sheet_MCC_30K_min_220107_R3.txt
Sample ID:	C:\MCC\MCC Cal\Test\Cotton_Sheets_MCC_30K_min_220107_R3.txt
Sample Weight (mg):	4.59
Heating Rate (C/s):	0.5
Combustor Temp (C):	900
N2 Flow Rate (cc/min):	80
O2 Flow Rate (cc/min):	20
Calibration File:	C:\MCC\MCC Cal\Coeff1 JN10440_30_210304.txt.txt
T Correction Coefficients:	0	1.024463	0
Time Shift (s):	14
*
Time (s)	Temperature (C)	N2 flow rate (cc/min)	O2 flow rate (cc/min)	Flow Rate (cc/min)	Oxygen (%)	HRR (W/g)	Heating rate (C/s)
0.000	111.829	80.008	19.994	104.095	20.115	-0.095	0.004
1.500	111.796	80.005	19.994	104.099	20.114	-0.037	-0.026
3.000	111.823	80.006	19.993	104.099	20.115	-0.093	0.010
4.500	111.843	80.007	19.996	104.099	20.114	-0.068	-0.004
6.000	111.845	80.005	19.994	104.103	20.112	0.132	0.002
7.500	111.798	80.004	19.993	104.114	20.115	-0.117	-0.007
9.000	111.815	80.005	19.992	104.093	20.117	-0.231	0.003
10.500	111.795	80.005	19.993	104.087	20.112	0.130	-0.012
12.000	111.819	80.006	19.993	104.135	20.109	0.288	0.008
13.500	111.791	80.005	19.994	104.158	20.104	0.653	-0.015
15.000	111.816	80.006	19.993	104.194	20.103	0.762	0.011
16.500	111.831	80.009	19.992	104.207	20.098	1.127	0.009
18.000	111.892	80.008	19.993	104.241	20.092	1.486	0.020
19.500	111.949	80.008	19.992	104.283	20.091	1.556	0.026
21.000	112.079	80.008	19.992	104.297	20.089	1.720	0.070
22.500	112.153	80.006	19.993	104.293	20.085	2.025	0.053
24.000	112.251	80.008	19.992	104.278	20.084	2.073	0.076
25.500	112.357	80.007	19.993	104.296	20.086	1.943	0.086
27.000	112.506	80.006	19.992	104.315	20.084	2.066	0.083
28.500	112.646	80.006	19.992	104.302	20.083	2.145	0.106
30.000	112.819	80.005	19.992	104.271	20.081	2.278	0.114
31.500	112.992	80.005	19.992	104.297	20.078	2.525	0.095
33.001	113.187	80.004	19.994	104.299	20.081	2.330	0.124
34.500	113.413	80.006	19.993	104.306	20.080	2.383	0.152
36.000	113.704	80.005	19.993	104.308	20.079	2.461	0.181
37.500	113.913	80.006	19.993	104.329	20.077	2.572	0.152
39.000	114.191	80.006	19.994	104.319	20.075	2.693	0.186
40.500	114.491	80.006	19.993	104.311	20.075	2.726	0.199
42.000	114.786	80.005	19.994	104.350	20.074	2.816	0.197
43.500	115.071	80.006	19.993	104.330	20.073	2.882	0.194
45.000	115.410	80.005	19.995	104.332	20.072	2.963	0.228
46.500	115.766	80.004	19.996	104.344	20.070	3.045	0.253
48.000	116.089	80.008	19.993	104.361	20.068	3.196	0.206
49.500	116.482	80.004	19.994	104.364	20.068	3.245	0.260
51.001	116.807	80.005	19.993	104.365	20.066	3.340	0.239
52.500	117.255	80.007	19.994	104.378	20.066	3.392	0.264
54.000	117.647	80.004	19.994	104.382	20.066	3.353	0.266
55.500	118.047	80.007	19.994	104.372	20.065	3.431	0.261
57.000	118.466	80.007	19.993	104.371	20.066	3.394	0.292
58.500	118.919	80.006	19.994	104.367	20.065	3.429	0.302
60.001	119.337	80.006	19.993	104.369	20.065	3.410	0.287
61.500	119.792	80.005	19.994	104.383	20.062	3.623	0.325
63.000	120.260	80.004	19.994	104.345	20.060	3.800	0.315
64.500	120.763	80.003	19.994	104.374	20.062	3.667	0.314
66.000	121.238	80.003	19.994	104.401	20.060	3.802	0.306
67.500	121.782	80.003	19.994	104.401	20.063	3.602	0.339
69.000	122.329	80.004	19.995	104.408	20.062	3.627	0.374
70.500	122.887	80.004	19.994	104.409	20.059	3.853	0.359
72.000	123.412	80.004	19.994	104.398	20.061	3.752	0.334
73.500	123.971	80.006	19.994	104.389	20.061	3.729	0.372
75.000	124.523	80.006	19.993	104.382	20.059	3.857	0.382
76.500	125.110	80.007	19.993	104.385	20.059	3.842	0.396
78.000	125.704	80.008	19.992	104.390	20.062	3.624	0.399
79.501	126.290	80.007	19.993	104.400	20.059	3.876	0.385
81.000	126.927	80.006	19.992	104.408	20.059	3.896	0.435
82.501	127.521	80.005	19.993	104.405	20.060	3.814	0.389
84.000	128.146	80.007	19.993	104.404	20.057	4.030	0.407
85.500	128.761	80.006	19.993	104.406	20.060	3.774	0.404
87.000	129.428	80.005	19.993	104.413	20.059	3.888	0.443
88.500	130.068	80.006	19.993	104.410	20.057	3.991	0.429
90.000	130.744	80.005	19.993	104.405	20.060	3.824	0.446
91.500	131.407	80.005	19.993	104.410	20.057	3.970	0.425
93.000	132.102	80.006	19.992	104.413	20.058	3.904	0.458
94.501	132.771	80.007	19.993	104.413	20.056	4.104	0.436
96.000	133.462	80.009	19.993	104.410	20.056	4.069	0.474
97.500	134.114	80.008	19.993	104.413	20.062	3.656	0.430
99.000	134.818	80.008	19.993	104.413	20.059	3.894	0.471
100.501	135.542	80.009	19.993	104.409	20.061	3.732	0.488
102.000	136.192	80.008	19.993	104.403	20.057	3.973	0.417
103.500	136.927	80.008	19.992	104.408	20.059	3.872	0.464
105.000	137.660	80.009	19.993	104.405	20.061	3.715	0.504
106.500	138.388	80.008	19.992	104.392	20.060	3.815	0.475
108.000	139.102	80.008	19.993	104.395	20.059	3.839	0.490
109.500	139.803	80.006	19.992	104.400	20.061	3.691	0.474
111.000	140.546	80.005	19.992	104.400	20.060	3.780	0.500
112.501	141.324	80.006	19.992	104.401	20.061	3.712	0.508
114.000	142.034	80.007	19.993	104.396	20.059	3.856	0.476
115.500	142.794	80.007	19.993	104.399	20.063	3.578	0.505
117.001	143.535	80.007	19.993	104.387	20.059	3.885	0.514
118.500	144.310	80.005	19.992	104.393	20.059	3.850	0.518
120.000	145.016	80.006	19.992	104.388	20.064	3.529	0.484
121.500	145.796	80.004	19.994	104.382	20.060	3.762	0.533
123.000	146.597	80.007	19.993	104.387	20.061	3.710	0.534
124.500	147.330	80.007	19.993	104.374	20.059	3.887	0.486
126.000	148.048	80.004	19.994	104.378	20.060	3.755	0.512
127.501	148.855	80.006	19.994	104.378	20.060	3.807	0.523
129.000	149.635	80.006	19.994	104.374	20.065	3.451	0.522
130.500	150.347	80.005	19.994	104.376	20.064	3.512	0.490
132.000	151.117	80.007	19.994	104.371	20.063	3.590	0.521
133.500	151.896	80.004	19.995	104.373	20.061	3.694	0.557
135.000	152.677	80.004	19.994	104.373	20.061	3.747	0.525
136.500	153.406	80.004	19.993	104.373	20.061	3.749	0.474
138.000	154.153	80.006	19.994	104.372	20.065	3.468	0.493
139.500	154.927	80.004	19.993	104.373	20.065	3.459	0.523
141.000	155.678	80.005	19.994	104.374	20.066	3.393	0.506
142.500	156.387	80.004	19.993	104.379	20.067	3.264	0.469
144.000	157.231	80.004	19.994	104.377	20.067	3.311	0.545
145.500	157.945	80.004	19.994	104.374	20.067	3.315	0.506
147.001	158.710	80.004	19.994	104.373	20.067	3.323	0.505
148.500	159.466	80.007	19.994	104.366	20.064	3.501	0.507
150.000	160.256	80.005	19.993	104.363	20.064	3.523	0.506
151.500	161.047	80.005	19.994	104.362	20.064	3.528	0.533
153.000	161.741	80.005	19.993	104.351	20.068	3.227	0.487
154.500	162.512	80.006	19.993	104.352	20.063	3.552	0.534
156.000	163.263	80.005	19.993	104.359	20.064	3.497	0.510
157.500	164.084	80.007	19.994	104.362	20.065	3.425	0.534
159.000	164.820	80.005	19.994	104.353	20.065	3.435	0.497
160.500	165.582	80.007	19.994	104.351	20.063	3.558	0.524
162.000	166.348	80.005	19.995	104.352	20.065	3.402	0.539
163.500	167.101	80.007	19.994	104.355	20.063	3.597	0.477
165.000	167.824	80.005	19.994	104.355	20.062	3.624	0.483
166.500	168.559	80.006	19.994	104.341	20.066	3.386	0.494
168.000	169.333	80.006	19.994	104.347	20.063	3.547	0.508
169.500	170.063	80.005	19.994	104.355	20.066	3.370	0.484
171.000	170.841	80.007	19.993	104.361	20.066	3.367	0.534
172.500	171.569	80.005	19.993	104.366	20.066	3.330	0.502
174.000	172.325	80.007	19.993	104.364	20.065	3.407	0.484
175.500	173.013	80.007	19.993	104.359	20.067	3.277	0.455
177.000	173.748	80.007	19.993	104.353	20.065	3.435	0.511
178.500	174.525	80.009	19.993	104.341	20.065	3.451	0.505
180.000	175.269	80.007	19.993	104.334	20.067	3.285	0.477
181.500	175.984	80.009	19.993	104.341	20.065	3.434	0.493
183.000	176.730	80.008	19.993	104.347	20.063	3.548	0.495
184.500	177.470	80.010	19.993	104.341	20.069	3.126	0.502
186.000	178.215	80.007	19.994	104.332	20.069	3.146	0.503
187.500	178.942	80.008	19.993	104.347	20.069	3.166	0.494
189.000	179.651	80.006	19.992	104.357	20.067	3.277	0.460
190.500	180.375	80.007	19.993	104.338	20.072	2.922	0.501
192.000	181.121	80.005	19.992	104.311	20.070	3.089	0.514
193.500	181.884	80.004	19.994	104.337	20.069	3.159	0.515
195.000	182.586	80.006	19.992	104.345	20.063	3.582	0.467
196.500	183.303	80.007	19.992	104.328	20.065	3.405	0.466
198.000	183.997	80.004	19.992	104.311	20.063	3.541	0.482
199.500	184.748	80.005	19.994	104.326	20.066	3.376	0.493
201.000	185.517	80.004	19.993	104.338	20.066	3.349	0.527
202.500	186.274	80.004	19.992	104.339	20.066	3.335	0.494
204.000	186.999	80.005	19.993	104.337	20.067	3.291	0.484
205.500	187.735	80.005	19.993	104.341	20.066	3.371	0.477
207.000	188.449	80.007	19.993	104.340	20.071	3.021	0.475
208.500	189.178	80.005	19.993	104.335	20.068	3.238	0.478
210.000	189.871	80.005	19.992	104.333	20.068	3.238	0.487
211.500	190.580	80.004	19.993	104.338	20.069	3.122	0.467
213.000	191.299	80.005	19.993	104.339	20.070	3.098	0.479
214.500	192.042	80.005	19.993	104.342	20.066	3.382	0.480
216.000	192.781	80.004	19.994	104.342	20.069	3.182	0.476
217.500	193.501	80.004	19.994	104.337	20.067	3.318	0.474
219.000	194.254	80.005	19.994	104.338	20.068	3.209	0.511
220.500	194.966	80.005	19.994	104.335	20.067	3.322	0.466
222.000	195.708	80.004	19.993	104.335	20.066	3.392	0.499
223.500	196.380	80.003	19.993	104.335	20.065	3.462	0.432
225.000	197.144	80.004	19.993	104.335	20.068	3.234	0.511
226.500	197.860	80.004	19.994	104.345	20.065	3.458	0.471
228.000	198.576	80.004	19.993	104.337	20.069	3.135	0.473
229.500	199.340	80.006	19.993	104.330	20.067	3.292	0.512
231.000	200.050	80.005	19.994	104.332	20.069	3.158	0.460
232.500	200.803	80.006	19.993	104.338	20.067	3.258	0.509
234.000	201.532	80.006	19.994	104.338	20.069	3.154	0.486
235.500	202.250	80.006	19.993	104.333	20.070	3.053	0.475
237.000	203.022	80.006	19.993	104.332	20.066	3.372	0.518
238.500	203.729	80.006	19.992	104.333	20.065	3.405	0.476
240.000	204.476	80.007	19.993	104.334	20.067	3.292	0.496
241.500	205.233	80.006	19.994	104.312	20.068	3.203	0.507
243.000	205.986	80.007	19.994	104.340	20.066	3.374	0.495
244.500	206.733	80.007	19.995	104.330	20.067	3.273	0.489
246.000	207.485	80.006	19.994	104.312	20.068	3.201	0.527
247.500	208.226	80.007	19.994	104.333	20.067	3.263	0.489
249.000	208.994	80.005	19.995	104.329	20.066	3.350	0.495
250.500	209.693	80.005	19.995	104.328	20.066	3.370	0.454
252.000	210.419	80.006	19.994	104.330	20.064	3.471	0.500
253.500	211.182	80.006	19.994	104.329	20.062	3.625	0.509
255.000	211.971	80.005	19.994	104.327	20.066	3.376	0.501
256.500	212.686	80.007	19.993	104.329	20.067	3.300	0.498
258.000	213.396	80.006	19.993	104.327	20.066	3.382	0.473
259.501	214.198	80.007	19.995	104.320	20.068	3.249	0.535
261.000	214.952	80.009	19.993	104.317	20.065	3.436	0.496
262.500	215.645	80.008	19.993	104.316	20.066	3.350	0.462
264.000	216.403	80.008	19.993	104.325	20.063	3.579	0.510
265.500	217.141	80.007	19.992	104.331	20.066	3.396	0.481
267.000	217.874	80.007	19.992	104.331	20.066	3.376	0.500
268.500	218.638	80.008	19.992	104.329	20.060	3.777	0.515
270.000	219.404	80.006	19.992	104.310	20.062	3.671	0.503
271.500	220.118	80.006	19.992	104.309	20.065	3.425	0.479
273.000	220.821	80.005	19.993	104.317	20.063	3.593	0.498
274.500	221.625	80.005	19.993	104.305	20.062	3.669	0.529
276.000	222.358	80.006	19.993	104.323	20.060	3.772	0.478
277.500	223.095	80.006	19.992	104.337	20.061	3.737	0.495
279.000	223.840	80.004	19.993	104.304	20.063	3.562	0.506
280.500	224.593	80.006	19.993	104.321	20.063	3.581	0.496
282.000	225.356	80.006	19.993	104.335	20.061	3.722	0.497
283.500	226.097	80.006	19.991	104.319	20.062	3.633	0.482
285.001	226.869	80.006	19.992	104.309	20.063	3.590	0.502
286.500	227.608	80.004	19.994	104.324	20.064	3.504	0.509
288.000	228.363	80.005	19.994	104.312	20.060	3.766	0.497
289.500	229.126	80.005	19.993	104.310	20.061	3.750	0.494
291.000	229.890	80.006	19.993	104.310	20.063	3.564	0.511
292.500	230.599	80.007	19.993	104.323	20.061	3.727	0.495
294.000	231.392	80.008	19.993	104.331	20.065	3.434	0.499
295.500	232.167	80.006	19.993	104.331	20.061	3.748	0.511
297.000	232.898	80.006	19.993	104.331	20.061	3.682	0.505
298.500	233.647	80.006	19.991	104.318	20.061	3.748	0.513
300.000	234.398	80.005	19.993	104.297	20.061	3.702	0.493
301.500	235.136	80.007	19.992	104.304	20.055	4.172	0.468
303.000	235.886	80.007	19.992	104.311	20.060	3.756	0.495
304.500	236.618	80.005	19.993	104.314	20.062	3.645	0.479
306.000	237.401	80.005	19.994	104.313	20.062	3.670	0.496
307.500	238.151	80.006	19.993	104.298	20.063	3.606	0.507
309.000	238.902	80.005	19.992	104.295	20.064	3.530	0.497
310.500	239.646	80.006	19.993	104.300	20.064	3.478	0.491
312.000	240.363	80.005	19.992	104.304	20.063	3.593	0.505
313.500	241.072	80.007	19.993	104.298	20.064	3.526	0.462
315.000	241.813	80.007	19.993	104.295	20.061	3.730	0.495
316.500	242.592	80.007	19.994	104.298	20.062	3.653	0.492
318.000	243.360	80.007	19.994	104.292	20.064	3.511	0.508
319.500	244.124	80.007	19.993	104.291	20.059	3.855	0.524
321.000	244.864	80.007	19.993	104.291	20.060	3.809	0.483
322.500	245.631	80.006	19.992	104.293	20.063	3.574	0.519
324.000	246.369	80.007	19.993	104.294	20.061	3.690	0.488
325.500	247.092	80.006	19.993	104.294	20.066	3.391	0.511
327.000	247.863	80.006	19.994	104.303	20.062	3.649	0.504
328.500	248.630	80.007	19.994	104.307	20.062	3.672	0.514
330.000	249.372	80.005	19.993	104.311	20.060	3.800	0.517
331.500	250.135	80.006	19.993	104.323	20.063	3.597	0.493
333.000	250.887	80.006	19.993	104.327	20.061	3.733	0.495
334.500	251.630	80.006	19.993	104.317	20.063	3.598	0.475
336.000	252.442	80.005	19.994	104.305	20.063	3.591	0.518
337.500	253.181	80.006	19.993	104.302	20.062	3.639	0.501
339.000	253.981	80.007	19.995	104.295	20.064	3.536	0.526
340.500	254.685	80.008	19.993	104.295	20.062	3.610	0.464
342.000	255.441	80.007	19.994	104.297	20.064	3.501	0.507
343.500	256.209	80.007	19.994	104.301	20.060	3.781	0.521
345.000	256.954	80.007	19.993	104.294	20.062	3.641	0.491
346.500	257.724	80.006	19.994	104.297	20.065	3.425	0.521
348.000	258.419	80.008	19.993	104.300	20.064	3.491	0.467
349.500	259.243	80.005	19.993	104.294	20.063	3.598	0.542
351.000	259.979	80.005	19.992	104.292	20.060	3.798	0.502
352.500	260.697	80.006	19.993	104.295	20.062	3.656	0.491
354.000	261.407	80.006	19.993	104.300	20.060	3.816	0.471
355.500	262.182	80.006	19.993	104.296	20.061	3.723	0.508
357.000	262.913	80.006	19.993	104.296	20.060	3.789	0.493
358.500	263.704	80.007	19.993	104.293	20.057	3.973	0.531
360.000	264.409	80.006	19.993	104.292	20.057	3.979	0.482
361.500	265.192	80.005	19.992	104.292	20.055	4.156	0.514
363.000	265.928	80.007	19.993	104.290	20.056	4.065	0.503
364.500	266.652	80.005	19.993	104.289	20.056	4.090	0.475
366.000	267.420	80.006	19.994	104.297	20.054	4.216	0.521
367.500	268.152	80.006	19.993	104.293	20.054	4.207	0.502
369.000	268.874	80.006	19.993	104.293	20.055	4.174	0.477
370.500	269.642	80.006	19.993	104.303	20.053	4.315	0.494
372.000	270.373	80.005	19.993	104.304	20.055	4.158	0.495
373.500	271.161	80.006	19.994	104.299	20.048	4.655	0.515
375.000	271.905	80.005	19.994	104.298	20.051	4.403	0.468
376.500	272.660	80.005	19.993	104.301	20.048	4.628	0.512
378.000	273.421	80.006	19.993	104.302	20.049	4.562	0.507
379.500	274.172	80.007	19.992	104.301	20.049	4.568	0.500
381.000	274.890	80.005	19.994	104.293	20.044	4.920	0.474
382.500	275.637	80.005	19.994	104.293	20.046	4.801	0.500
384.000	276.403	80.005	19.994	104.294	20.042	5.041	0.507
385.500	277.157	80.006	19.992	104.293	20.041	5.157	0.497
387.000	277.890	80.005	19.993	104.301	20.041	5.157	0.502
388.500	278.650	80.005	19.993	104.305	20.040	5.205	0.504
390.000	279.388	80.004	19.993	104.297	20.037	5.415	0.485
391.500	280.113	80.006	19.992	104.296	20.034	5.601	0.487
393.000	280.884	80.007	19.993	104.299	20.033	5.668	0.533
394.500	281.601	80.005	19.994	104.311	20.030	5.920	0.484
396.001	282.337	80.007	19.993	104.315	20.032	5.761	0.492
397.500	283.077	80.006	19.993	104.302	20.029	5.963	0.491
399.000	283.825	80.006	19.994	104.299	20.029	6.018	0.514
400.500	284.571	80.006	19.993	104.295	20.028	6.024	0.474
402.000	285.295	80.006	19.993	104.294	20.024	6.304	0.489
403.500	286.088	80.006	19.993	104.300	20.026	6.224	0.524
405.000	286.800	80.006	19.993	104.300	20.023	6.384	0.477
406.501	287.596	80.006	19.994	104.301	20.020	6.629	0.527
408.000	288.308	80.006	19.994	104.302	20.017	6.859	0.483
409.500	289.038	80.006	19.994	104.299	20.017	6.863	0.490
411.000	289.843	80.006	19.993	104.313	20.013	7.136	0.521
412.500	290.577	80.006	19.993	104.315	20.011	7.227	0.486
414.000	291.274	80.005	19.993	104.308	20.012	7.189	0.479
415.500	292.065	80.007	19.994	104.322	20.006	7.623	0.528
417.000	292.831	80.007	19.993	104.324	20.003	7.823	0.505
418.500	293.571	80.007	19.993	104.323	20.000	8.035	0.484
420.000	294.294	80.008	19.993	104.331	19.997	8.245	0.495
421.500	295.064	80.009	19.993	104.323	19.997	8.280	0.505
423.000	295.787	80.008	19.993	104.316	19.992	8.628	0.459
424.500	296.540	80.007	19.994	104.321	19.983	9.223	0.483
426.000	297.263	80.008	19.994	104.330	19.984	9.201	0.503
427.500	298.024	80.008	19.994	104.328	19.976	9.730	0.497
429.000	298.805	80.009	19.994	104.329	19.976	9.733	0.509
430.500	299.544	80.007	19.995	104.328	19.974	9.880	0.464
432.000	300.290	80.005	19.994	104.329	19.965	10.541	0.511
433.500	301.024	80.006	19.993	104.329	19.964	10.626	0.476
435.000	301.783	80.006	19.994	104.332	19.959	10.918	0.497
436.500	302.542	80.006	19.994	104.334	19.953	11.358	0.508
438.000	303.238	80.004	19.994	104.336	19.951	11.518	0.475
439.500	304.003	80.006	19.994	104.341	19.947	11.804	0.507
441.000	304.788	80.005	19.995	104.355	19.939	12.368	0.511
442.500	305.497	80.005	19.994	104.363	19.939	12.387	0.481
444.000	306.227	80.006	19.994	104.355	19.930	13.000	0.495
445.501	307.012	80.005	19.994	104.354	19.928	13.159	0.518
447.000	307.789	80.006	19.994	104.359	19.922	13.602	0.515
448.500	308.492	80.005	19.993	104.368	19.916	14.008	0.491
450.000	309.273	80.007	19.994	104.371	19.907	14.623	0.538
451.500	310.023	80.006	19.993	104.369	19.904	14.885	0.504
453.000	310.753	80.005	19.992	104.366	19.897	15.320	0.497
454.500	311.512	80.005	19.993	104.371	19.891	15.762	0.488
456.000	312.303	80.005	19.993	104.372	19.884	16.307	0.542
457.500	313.051	80.005	19.993	104.362	19.877	16.803	0.484
459.000	313.782	80.005	19.992	104.372	19.868	17.440	0.490
460.500	314.535	80.006	19.991	104.379	19.857	18.180	0.486
462.000	315.325	80.006	19.993	104.378	19.849	18.799	0.520
463.500	316.065	80.006	19.994	104.378	19.841	19.358	0.480
465.000	316.819	80.006	19.993	104.375	19.831	20.047	0.467
466.500	317.597	80.005	19.993	104.377	19.822	20.705	0.535
468.000	318.305	80.005	19.994	104.396	19.812	21.383	0.494
469.500	319.108	80.005	19.993	104.409	19.802	22.089	0.516
471.000	319.846	80.007	19.994	104.416	19.793	22.775	0.492
472.500	320.579	80.005	19.993	104.424	19.781	23.590	0.493
474.000	321.360	80.005	19.993	104.441	19.770	24.384	0.531
475.500	322.106	80.005	19.992	104.452	19.757	25.340	0.478
477.000	322.877	80.007	19.993	104.455	19.744	26.234	0.493
478.500	323.599	80.005	19.993	104.459	19.732	27.109	0.484
480.000	324.365	80.007	19.993	104.471	19.719	28.022	0.491
481.500	325.118	80.007	19.993	104.485	19.701	29.330	0.500
483.000	325.856	80.007	19.993	104.476	19.686	30.362	0.484
484.500	326.606	80.007	19.993	104.480	19.670	31.501	0.471
486.000	327.372	80.008	19.993	104.487	19.651	32.885	0.509
487.500	328.131	80.007	19.993	104.488	19.638	33.812	0.499
489.000	328.889	80.007	19.993	104.487	19.616	35.345	0.528
490.500	329.657	80.005	19.993	104.492	19.596	36.752	0.493
492.000	330.367	80.005	19.993	104.513	19.579	37.964	0.458
493.500	331.187	80.005	19.992	104.526	19.556	39.661	0.555
495.000	331.881	80.007	19.994	104.515	19.535	41.102	0.458
496.500	332.672	80.008	19.993	104.527	19.516	42.461	0.529
498.000	333.418	80.007	19.993	104.555	19.496	43.938	0.518
499.500	334.236	80.006	19.993	104.566	19.468	45.871	0.528
501.000	334.980	80.009	19.994	104.568	19.445	47.543	0.504
502.500	335.691	80.008	19.994	104.572	19.422	49.203	0.481
504.000	336.461	80.009	19.993	104.594	19.396	51.014	0.519
505.500	337.237	80.009	19.993	104.607	19.367	53.119	0.497
507.000	337.986	80.008	19.993	104.613	19.342	54.876	0.502
508.500	338.722	80.009	19.994	104.620	19.312	57.013	0.466
510.000	339.469	80.008	19.993	104.634	19.282	59.150	0.514
511.500	340.243	80.007	19.995	104.639	19.253	61.284	0.524
513.000	340.997	80.006	19.993	104.645	19.221	63.547	0.516
514.500	341.711	80.006	19.993	104.667	19.188	65.927	0.471
516.000	342.503	80.006	19.993	104.675	19.161	67.879	0.520
517.500	343.238	80.007	19.995	104.681	19.124	70.481	0.493
519.000	343.977	80.006	19.994	104.704	19.092	72.751	0.489
520.500	344.774	80.006	19.995	104.722	19.056	75.354	0.516
522.000	345.498	80.006	19.996	104.739	19.021	77.808	0.486
523.500	346.232	80.004	19.994	104.758	18.983	80.548	0.502
525.000	347.005	80.005	19.994	104.770	18.951	82.865	0.499
526.500	347.749	80.007	19.994	104.793	18.914	85.466	0.487
528.000	348.508	80.005	19.995	104.802	18.874	88.391	0.511
529.500	349.278	80.006	19.995	104.802	18.837	90.991	0.530
531.000	350.038	80.004	19.991	104.805	18.799	93.707	0.493
532.500	350.820	80.004	19.994	104.823	18.759	96.558	0.492
534.000	351.551	80.004	19.994	104.840	18.721	99.340	0.483
535.500	352.293	80.006	19.993	104.841	18.679	102.348	0.499
537.000	353.061	80.006	19.994	104.861	18.640	105.125	0.516
538.500	353.812	80.007	19.994	104.881	18.600	107.935	0.493
540.000	354.575	80.007	19.993	104.891	18.560	110.817	0.531
541.500	355.334	80.007	19.994	104.907	18.521	113.599	0.510
543.000	356.124	80.006	19.993	104.917	18.482	116.406	0.544
544.500	356.863	80.006	19.994	104.922	18.444	119.127	0.523
546.000	357.597	80.005	19.994	104.934	18.411	121.481	0.486
547.500	358.355	80.004	19.994	104.949	18.378	123.859	0.498
549.000	359.084	80.006	19.993	104.949	18.341	126.489	0.494
550.500	359.844	80.006	19.994	104.948	18.311	128.657	0.530
552.000	360.590	80.006	19.994	104.948	18.282	130.706	0.483
553.500	361.384	80.005	19.994	104.965	18.256	132.494	0.513
555.000	362.144	80.006	19.994	104.963	18.229	134.432	0.497
556.500	362.881	80.008	19.994	104.969	18.205	136.123	0.502
558.000	363.641	80.007	19.994	104.976	18.184	137.562	0.516
559.500	364.431	80.007	19.994	104.980	18.163	139.112	0.519
561.000	365.226	80.007	19.994	104.993	18.147	140.198	0.538
562.500	365.950	80.007	19.994	104.980	18.128	141.536	0.474
564.000	366.743	80.008	19.993	104.960	18.118	142.216	0.528
565.500	367.509	80.006	19.993	104.940	18.110	142.774	0.520
567.000	368.265	80.007	19.993	104.926	18.103	143.252	0.519
568.500	369.044	80.008	19.993	104.917	18.106	142.969	0.520
570.000	369.800	80.006	19.992	104.917	18.111	142.583	0.507
571.500	370.563	80.007	19.993	104.910	18.121	141.864	0.515
573.000	371.301	80.008	19.993	104.891	18.133	140.971	0.499
574.500	372.138	80.006	19.994	104.880	18.149	139.772	0.533
576.000	372.877	80.006	19.992	104.856	18.176	137.775	0.503
577.500	373.616	80.007	19.993	104.838	18.211	135.238	0.488
579.000	374.401	80.006	19.993	104.816	18.246	132.692	0.541
580.500	375.178	80.008	19.993	104.780	18.291	129.472	0.548
582.000	375.969	80.007	19.993	104.753	18.340	125.916	0.523
583.500	376.751	80.008	19.993	104.736	18.394	122.073	0.521
585.000	377.470	80.008	19.993	104.694	18.455	117.676	0.471
586.500	378.264	80.006	19.992	104.642	18.519	113.112	0.532
588.000	379.041	80.008	19.992	104.601	18.594	107.789	0.506
589.500	379.790	80.007	19.993	104.568	18.669	102.430	0.504
591.000	380.565	80.007	19.994	104.525	18.750	96.654	0.495
592.500	381.401	80.007	19.993	104.486	18.838	90.432	0.538
594.000	382.156	80.006	19.994	104.455	18.917	84.831	0.503
595.500	382.905	80.005	19.994	104.428	19.002	78.793	0.487
597.000	383.654	80.006	19.993	104.407	19.085	72.860	0.515
598.500	384.427	80.006	19.993	104.384	19.170	66.859	0.514
600.000	385.210	80.005	19.993	104.360	19.250	61.204	0.509
601.500	385.935	80.006	19.993	104.331	19.327	55.716	0.493
603.000	386.734	80.005	19.993	104.294	19.400	50.583	0.543
604.500	387.536	80.006	19.994	104.288	19.473	45.364	0.536
606.000	388.273	80.005	19.994	104.281	19.541	40.579	0.467
607.500	389.055	80.005	19.993	104.268	19.601	36.288	0.507
609.000	389.848	80.005	19.994	104.261	19.659	32.224	0.509
610.500	390.639	80.007	19.994	104.252	19.710	28.617	0.523
612.000	391.375	80.005	19.994	104.254	19.759	25.091	0.503
613.500	392.160	80.005	19.994	104.259	19.810	21.472	0.531
615.000	392.946	80.007	19.994	104.262	19.844	19.088	0.530
616.500	393.703	80.006	19.994	104.262	19.880	16.566	0.513
618.000	394.503	80.005	19.995	104.258	19.906	14.712	0.545
619.500	395.274	80.005	19.994	104.244	19.935	12.668	0.532
621.000	396.046	80.005	19.994	104.237	19.956	11.147	0.513
622.501	396.804	80.005	19.993	104.254	19.975	9.831	0.510
624.000	397.567	80.007	19.994	104.241	19.992	8.630	0.511
625.500	398.351	80.006	19.994	104.219	20.003	7.842	0.505
627.000	399.121	80.006	19.994	104.252	20.012	7.164	0.517
628.500	399.874	80.004	19.994	104.251	20.023	6.425	0.499
630.000	400.613	80.005	19.994	104.214	20.027	6.149	0.492
631.500	401.357	80.005	19.993	104.234	20.035	5.555	0.498
633.000	402.100	80.005	19.993	104.243	20.043	5.002	0.523
634.501	402.888	80.005	19.992	104.213	20.042	5.062	0.521
636.000	403.630	80.007	19.993	104.238	20.048	4.629	0.492
637.500	404.372	80.007	19.993	104.248	20.048	4.601	0.512
639.000	405.107	80.008	19.993	104.232	20.050	4.497	0.478
640.500	405.841	80.008	19.994	104.252	20.055	4.134	0.492
642.000	406.601	80.006	19.993	104.270	20.054	4.199	0.541
643.500	407.375	80.007	19.993	104.270	20.053	4.274	0.511
645.000	408.084	80.008	19.993	104.244	20.056	4.058	0.469
646.500	408.878	80.007	19.994	104.233	20.057	4.017	0.508
648.000	409.595	80.007	19.992	104.244	20.060	3.786	0.486
649.500	410.354	80.006	19.992	104.232	20.059	3.854	0.509
651.000	411.099	80.008	19.995	104.224	20.057	3.980	0.498
652.500	411.857	80.006	19.994	104.242	20.061	3.713	0.492
654.000	412.615	80.006	19.991	104.245	20.062	3.664	0.513
655.500	413.355	80.006	19.992	104.253	20.062	3.653	0.493
657.000	414.063	80.006	19.993	104.266	20.060	3.794	0.469
658.500	414.845	80.006	19.992	104.259	20.062	3.675	0.522
660.000	415.612	80.007	19.992	104.275	20.061	3.730	0.502
661.500	416.292	80.006	19.993	104.266	20.061	3.689	0.466
663.000	417.062	80.007	19.989	104.254	20.065	3.436	0.512
664.500	417.805	80.007	19.993	104.276	20.063	3.549	0.501
666.000	418.608	80.009	19.992	104.310	20.065	3.451	0.543
667.500	419.331	80.009	19.993	104.291	20.067	3.270	0.494
669.000	420.095	80.007	19.991	104.273	20.065	3.441	0.504
670.500	420.826	80.007	19.993	104.287	20.068	3.239	0.487
672.000	421.611	80.007	19.992	104.283	20.065	3.461	0.517
673.500	422.334	80.007	19.994	104.267	20.066	3.327	0.487
675.000	423.122	80.006	19.993	104.268	20.068	3.195	0.502
676.500	423.844	80.006	19.994	104.267	20.065	3.426	0.476
678.000	424.591	80.005	19.994	104.241	20.066	3.379	0.485
679.500	425.338	80.006	19.993	104.243	20.064	3.515	0.505
681.000	426.140	80.005	19.995	104.249	20.064	3.488	0.551
682.500	426.864	80.006	19.991	104.243	20.067	3.288	0.495
684.000	427.654	80.006	19.994	104.250	20.064	3.492	0.522
685.500	428.382	80.005	19.994	104.255	20.064	3.490	0.499
687.000	429.152	80.006	19.993	104.253	20.066	3.365	0.510
688.500	429.943	80.005	19.993	104.252	20.067	3.323	0.526
690.000	430.680	80.006	19.994	104.256	20.067	3.308	0.488
691.500	431.439	80.006	19.994	104.255	20.065	3.424	0.518
693.000	432.221	80.007	19.994	104.254	20.068	3.199	0.500
694.500	432.981	80.004	19.993	104.248	20.066	3.343	0.514
696.000	433.759	80.007	19.993	104.254	20.065	3.408	0.528
697.500	434.560	80.007	19.998	104.245	20.068	3.236	0.521
699.000	435.364	80.006	19.993	104.245	20.070	3.053	0.521
700.500	436.100	80.005	19.994	104.253	20.067	3.311	0.504
702.000	436.913	80.005	19.994	104.258	20.071	3.036	0.551
703.500	437.668	80.006	19.996	104.258	20.070	3.057	0.507
705.000	438.455	80.007	19.992	104.255	20.068	3.201	0.536
706.500	439.235	80.005	19.994	104.251	20.069	3.150	0.522
708.000	439.967	80.005	19.996	104.251	20.069	3.178	0.501
709.500	440.727	80.004	19.993	104.252	20.070	3.106	0.511
711.000	441.510	80.005	19.994	104.253	20.069	3.123	0.495
712.500	442.278	80.005	19.994	104.251	20.068	3.243	0.514
714.000	443.009	80.004	19.994	104.250	20.072	2.921	0.485
715.500	443.777	80.006	19.994	104.253	20.070	3.043	0.503
717.000	444.561	80.005	19.993	104.255	20.069	3.138	0.533
718.500	445.266	80.004	19.993	104.260	20.070	3.065	0.481
720.000	445.994	80.007	19.998	104.262	20.073	2.830	0.470
721.500	446.764	80.007	19.994	104.258	20.070	3.059	0.507
723.000	447.544	80.007	19.992	104.256	20.071	3.028	0.517
724.500	448.282	80.007	19.994	104.243	20.071	2.974	0.489
726.000	449.054	80.007	19.993	104.238	20.071	2.986	0.542
727.500	449.810	80.005	19.993	104.244	20.072	2.933	0.500
729.000	450.570	80.006	19.993	104.249	20.069	3.173	0.500
730.500	451.332	80.006	19.994	104.254	20.071	3.006	0.503
732.000	452.037	80.006	19.994	104.256	20.069	3.158	0.454
733.500	452.788	80.007	19.994	104.258	20.074	2.770	0.496
735.000	453.565	80.008	19.995	104.272	20.073	2.865	0.502
736.500	454.342	80.006	19.990	104.292	20.076	2.669	0.518
738.000	455.047	80.007	19.990	104.280	20.072	2.954	0.477
739.500	455.821	80.009	19.994	104.232	20.070	3.053	0.505
741.000	456.599	80.008	19.993	104.230	20.076	2.647	0.516
742.500	457.319	80.007	19.994	104.251	20.076	2.682	0.480
744.000	458.043	80.008	19.991	104.256	20.072	2.923	0.474
745.500	458.830	80.008	19.998	104.259	20.074	2.802	0.525
747.000	459.571	80.008	19.995	104.264	20.077	2.581	0.495
748.500	460.317	80.009	19.993	104.244	20.071	2.987	0.507
750.000	461.100	80.009	19.993	104.263	20.073	2.896	0.521
751.500	461.814	80.009	19.993	104.263	20.076	2.626	0.485
753.000	462.591	80.006	19.993	104.246	20.074	2.766	0.534
754.500	463.357	80.007	19.995	104.244	20.074	2.770	0.496
756.000	464.091	80.007	19.992	104.230	20.073	2.890	0.479
757.500	464.836	80.007	19.992	104.246	20.076	2.628	0.511
759.000	465.623	80.007	19.994	104.255	20.075	2.707	0.539
760.500	466.357	80.006	19.989	104.255	20.076	2.671	0.500
762.000	467.133	80.005	19.991	104.254	20.075	2.749	0.513
763.500	467.897	80.006	19.994	104.256	20.074	2.809	0.525
765.000	468.666	80.006	19.994	104.257	20.076	2.673	0.520
766.500	469.460	80.006	19.993	104.255	20.080	2.395	0.530
768.000	470.227	80.006	19.993	104.255	20.079	2.461	0.518
769.500	470.994	80.006	19.993	104.256	20.080	2.389	0.510
771.000	471.751	80.004	19.994	104.256	20.078	2.535	0.514
772.500	472.534	80.007	19.995	104.269	20.080	2.389	0.519
774.000	473.325	80.007	19.995	104.266	20.077	2.570	0.518
775.500	474.108	80.005	19.994	104.257	20.078	2.523	0.520
777.000	474.888	80.005	19.996	104.258	20.078	2.521	0.514
778.500	475.681	80.006	19.992	104.260	20.077	2.566	0.545
780.000	476.446	80.006	19.994	104.260	20.081	2.267	0.501
781.500	477.262	80.006	19.995	104.268	20.081	2.261	0.550
783.000	478.004	80.007	19.994	104.269	20.079	2.451	0.488
784.500	478.751	80.006	19.995	104.260	20.083	2.170	0.495
786.000	479.524	80.005	19.994	104.260	20.082	2.199	0.519
787.500	480.289	80.005	19.993	104.263	20.078	2.486	0.507
789.000	481.115	80.005	19.993	104.260	20.078	2.507	0.543
790.500	481.858	80.004	19.995	104.259	20.080	2.389	0.499
792.000	482.613	80.004	19.993	104.260	20.080	2.383	0.514
793.500	483.420	80.005	19.993	104.262	20.080	2.335	0.518
795.000	484.221	80.005	19.994	104.262	20.080	2.335	0.517
796.500	484.959	80.005	19.994	104.260	20.080	2.379	0.497
798.000	485.739	80.005	19.994	104.258	20.078	2.484	0.533
799.500	486.534	80.006	19.994	104.257	20.080	2.348	0.524
801.000	487.341	80.005	19.994	104.258	20.080	2.387	0.533
802.500	488.073	80.006	19.995	104.258	20.081	2.331	0.493
804.000	488.868	80.007	19.993	104.256	20.078	2.527	0.530
805.500	489.667	80.005	19.994	104.264	20.080	2.377	0.537
807.000	490.426	80.006	19.995	104.259	20.080	2.364	0.512
808.500	491.216	80.005	19.994	104.252	20.077	2.562	0.510
810.000	491.986	80.006	19.994	104.248	20.086	1.931	0.496
811.500	492.776	80.007	19.993	104.257	20.081	2.319	0.526
813.000	493.532	80.007	19.994	104.261	20.079	2.447	0.505
814.500	494.367	80.007	19.995	104.252	20.084	2.109	0.551
816.000	495.136	80.007	19.992	104.251	20.083	2.173	0.492
817.500	495.888	80.008	19.994	104.259	20.083	2.128	0.497
819.000	496.687	80.006	19.993	104.257	20.079	2.412	0.523
820.500	497.479	80.007	19.994	104.255	20.079	2.447	0.537
822.000	498.261	80.007	19.992	104.254	20.080	2.357	0.521
823.500	499.027	80.008	19.994	104.255	20.079	2.437	0.510
825.000	499.801	80.008	19.992	104.251	20.083	2.148	0.512
826.500	500.594	80.009	19.993	104.256	20.081	2.327	0.520
828.000	501.358	80.009	19.992	104.249	20.080	2.401	0.536
829.500	502.149	80.008	19.993	104.235	20.081	2.302	0.512
831.000	502.911	80.008	19.994	104.241	20.080	2.332	0.514
832.500	503.684	80.009	19.993	104.229	20.082	2.204	0.508
834.000	504.412	80.007	19.992	104.247	20.081	2.265	0.498
835.500	505.179	80.007	19.992	104.253	20.086	1.944	0.495
837.000	505.954	80.006	19.990	104.256	20.083	2.133	0.514
838.500	506.739	80.006	19.993	104.256	20.083	2.156	0.507
840.000	507.519	80.007	19.993	104.273	20.087	1.903	0.510
841.500	508.254	80.006	19.994	104.252	20.084	2.084	0.507
843.000	509.051	80.007	19.994	104.248	20.081	2.274	0.524
844.500	509.849	80.006	19.994	104.261	20.087	1.903	0.511
846.000	510.579	80.007	19.993	104.258	20.086	1.944	0.482
847.500	511.354	80.006	19.993	104.256	20.083	2.152	0.508
849.000	512.135	80.005	19.993	104.258	20.086	1.940	0.517
850.500	512.906	80.007	19.992	104.252	20.085	2.010	0.512
852.000	513.674	80.005	19.994	104.245	20.083	2.156	0.508
853.500	514.480	80.006	19.993	104.259	20.082	2.247	0.534
855.000	515.246	80.006	19.990	104.259	20.086	1.952	0.517
856.500	515.996	80.006	19.992	104.253	20.083	2.127	0.498
858.000	516.757	80.006	19.993	104.255	20.082	2.206	0.521
859.500	517.527	80.006	19.994	104.247	20.086	1.962	0.498
861.000	518.282	80.006	19.992	104.238	20.083	2.144	0.488
862.500	519.084	80.005	19.994	104.256	20.084	2.070	0.561
864.000	519.788	80.005	19.995	104.258	20.083	2.183	0.497
865.500	520.607	80.006	19.994	104.252	20.084	2.062	0.519
867.000	521.384	80.006	19.995	104.249	20.083	2.137	0.510
868.500	522.162	80.006	19.995	104.249	20.086	1.952	0.515
870.000	522.880	80.005	19.994	104.250	20.083	2.171	0.494
871.500	523.733	80.006	19.994	104.252	20.085	2.048	0.558
873.000	524.465	80.006	19.995	104.252	20.082	2.222	0.511
874.500	525.239	80.005	19.993	104.245	20.086	1.924	0.516
876.001	525.948	80.007	19.995	104.245	20.088	1.833	0.506
877.500	526.795	80.007	19.993	104.258	20.091	1.595	0.534
879.000	527.534	80.008	19.995	104.260	20.085	1.998	0.478
880.500	528.342	80.008	19.994	104.241	20.084	2.105	0.508
882.000	529.122	80.007	19.992	104.276	20.085	1.990	0.564
883.500	529.868	80.008	19.993	104.264	20.093	1.468	0.521
885.000	530.602	80.007	19.994	104.223	20.094	1.390	0.526
886.500	531.423	80.007	19.994	104.247	20.086	1.951	0.534
888.000	532.052	80.007	19.994	104.255	20.090	1.676	0.503
889.500	532.882	80.007	19.994	104.253	20.088	1.777	0.530
891.000	533.447	80.007	19.995	104.252	20.092	1.538	0.578
892.500	534.878	80.007	19.996	104.239	20.093	1.460	0.791
894.000	534.803	80.008	19.995	104.226	20.089	1.705	-0.025
895.500	536.423	80.008	19.995	104.231	20.090	1.689	0.900
897.000	536.796	80.008	19.995	104.225	20.092	1.499	-0.045
898.500	537.594	80.008	19.994	104.233	20.092	1.505	0.314
900.000	537.901	80.007	19.994	104.246	20.089	1.707	0.285
901.500	538.846	80.007	19.995	104.243	20.087	1.865	0.634
903.000	539.734	80.006	19.994	104.233	20.090	1.670	0.508
904.500	540.455	80.009	19.994	104.226	20.088	1.784	0.530
906.000	541.078	80.009	19.993	104.229	20.092	1.530	0.393
907.500	541.907	80.010	19.994	104.237	20.088	1.793	0.527
909.000	542.710	80.008	19.995	104.247	20.086	1.921	0.523
910.500	543.334	80.008	19.992	104.256	20.089	1.750	0.435
912.000	544.095	80.010	19.993	104.256	20.089	1.760	0.483
913.500	544.928	80.010	19.993	104.255	20.087	1.858	0.529
915.000	545.574	80.009	19.997	104.233	20.087	1.880	0.472
916.500	546.350	80.006	19.993	104.240	20.085	2.024	0.487
918.000	547.119	80.006	19.992	104.267	20.089	1.750	0.495
919.500	547.892	80.006	19.993	104.260	20.090	1.651	0.527
921.000	548.619	80.006	19.994	104.256	20.085	2.002	0.515
922.500	549.397	80.006	19.994	104.268	20.088	1.769	0.500
924.000	550.160	80.007	19.995	104.248	20.089	1.756	0.507
925.500	550.917	80.005	19.993	104.248	20.090	1.655	0.490
927.000	551.688	80.005	19.994	104.260	20.089	1.699	0.511
928.500	552.407	80.006	19.993	104.255	20.091	1.614	0.512
930.000	553.183	80.006	19.992	104.251	20.092	1.536	0.506
931.500	553.941	80.006	19.993	104.255	20.085	1.987	0.522
933.000	554.644	80.007	19.993	104.253	20.091	1.598	0.464
934.500	555.456	80.007	19.992	104.242	20.088	1.767	0.518
936.000	556.197	80.007	19.994	104.251	20.086	1.964	0.501
937.500	556.955	80.008	19.993	104.254	20.089	1.754	0.534
939.000	557.737	80.006	19.992	104.251	20.089	1.709	0.486
940.500	558.473	80.008	19.994	104.244	20.088	1.820	0.529
942.000	559.236	80.007	19.993	104.246	20.091	1.581	0.499
943.500	559.978	80.005	19.993	104.255	20.091	1.558	0.475
945.000	560.710	80.007	19.993	104.257	20.091	1.590	0.480
946.500	561.480	80.006	19.995	104.258	20.091	1.561	0.502
948.000	562.215	80.007	19.995	104.255	20.091	1.563	0.490
949.500	562.973	80.006	19.993	104.254	20.089	1.717	0.515
951.000	563.738	80.007	19.995	104.250	20.096	1.264	0.476
952.500	564.477	80.007	19.995	104.253	20.094	1.356	0.486
954.001	565.229	80.006	19.995	104.252	20.092	1.536	0.519
955.500	565.965	80.004	19.994	104.238	20.094	1.352	0.503
957.000	566.748	80.006	19.995	104.245	20.093	1.478	0.497
958.500	567.535	80.006	19.994	104.246	20.091	1.599	0.529
960.000	568.281	80.006	19.995	104.237	20.091	1.599	0.466
961.500	569.052	80.007	19.992	104.248	20.089	1.730	0.523
963.000	569.869	80.009	19.993	104.253	20.093	1.421	0.553
964.500	570.584	80.008	19.994	104.253	20.093	1.460	0.503
966.000	571.355	80.008	19.995	104.250	20.093	1.466	0.494
967.500	572.130	80.008	19.993	104.251	20.095	1.330	0.516
969.000	572.882	80.007	19.993	104.260	20.094	1.398	0.523
970.500	573.618	80.008	19.993	104.280	20.091	1.600	0.493
972.000	574.406	80.006	19.993	104.262	20.095	1.313	0.522
973.500	575.190	80.007	19.993	104.239	20.093	1.452	0.526
975.000	575.951	80.006	19.994	104.242	20.092	1.534	0.494
976.500	576.701	80.007	19.995	104.252	20.094	1.379	0.517
978.000	577.441	80.007	19.994	104.250	20.092	1.534	0.492
979.500	578.191	80.007	19.995	104.244	20.092	1.525	0.511
981.000	578.941	80.007	19.994	104.244	20.093	1.433	0.513
982.500	579.685	80.008	19.995	104.232	20.094	1.393	0.487
984.000	580.446	80.007	19.994	104.232	20.093	1.435	0.506
985.500	581.189	80.008	19.994	104.247	20.093	1.416	0.513
987.000	581.956	80.008	19.994	104.252	20.091	1.553	0.508
988.500	582.709	80.009	19.993	104.250	20.093	1.452	0.526
990.000	583.426	80.008	19.994	104.246	20.093	1.460	0.508
991.500	584.182	80.009	19.993	104.255	20.094	1.361	0.503
993.000	584.901	80.007	19.993	104.256	20.095	1.311	0.495
994.500	585.658	80.009	19.993	104.256	20.094	1.346	0.497
996.000	586.414	80.008	19.993	104.256	20.093	1.414	0.502
997.500	587.215	80.008	19.993	104.240	20.093	1.464	0.545
999.000	587.934	80.007	19.994	104.229	20.092	1.519	0.474
1000.500	588.657	80.006	19.993	104.245	20.093	1.476	0.485
1002.000	589.401	80.006	19.994	104.256	20.092	1.509	0.505
1003.500	590.193	80.007	19.993	104.254	20.092	1.519	0.531
1005.000	590.923	80.006	19.992	104.244	20.092	1.485	0.484
1006.500	591.710	80.006	19.993	104.243	20.094	1.404	0.528
1008.000	592.460	80.008	19.994	104.250	20.091	1.589	0.500
1009.500	593.218	80.006	19.993	104.253	20.096	1.248	0.476
1011.000	593.954	80.007	19.993	104.235	20.093	1.447	0.489
1012.500	594.780	80.006	19.995	104.240	20.092	1.488	0.557
1014.000	595.546	80.006	19.993	104.258	20.096	1.216	0.482
1015.500	596.323	80.006	19.995	104.239	20.093	1.429	0.535
1017.000	597.081	80.008	19.993	104.231	20.095	1.309	0.510
1018.500	597.845	80.007	19.993	104.264	20.095	1.303	0.498
1020.000	598.594	80.007	19.993	104.224	20.092	1.538	0.493
1021.500	599.400	80.008	19.994	104.227	20.094	1.388	0.549
1023.000	600.123	80.007	19.993	104.245	20.093	1.460	0.477
1024.500	600.855	80.007	19.993	104.244	20.092	1.491	0.483
1026.000	601.620	80.008	19.993	104.246	20.091	1.600	0.491
1027.501	602.395	80.006	19.992	104.237	20.092	1.484	0.508
1029.000	603.139	80.007	19.991	104.234	20.094	1.400	0.486
1030.501	603.905	80.007	19.994	104.245	20.093	1.424	0.497
1032.000	604.708	80.006	19.993	104.239	20.092	1.503	0.534
1033.500	605.469	80.006	19.994	104.238	20.090	1.674	0.486
1035.000	606.238	80.007	19.992	104.240	20.091	1.556	0.508
1036.500	606.953	80.007	19.993	104.243	20.092	1.505	0.474
1038.000	607.731	80.007	19.993	104.254	20.092	1.513	0.531
1039.500	608.543	80.006	19.992	104.256	20.093	1.425	0.525
1041.000	609.266	80.006	19.993	104.270	20.093	1.416	0.477
1042.500	610.029	80.006	19.993	104.235	20.095	1.297	0.532
1044.000	610.791	80.008	19.993	104.236	20.092	1.509	0.525
1045.500	611.536	80.008	19.994	104.242	20.096	1.253	0.511
1047.000	612.252	80.007	19.993	104.243	20.091	1.579	0.466
1048.500	613.017	80.007	19.994	104.244	20.094	1.388	0.520
1050.000	613.801	80.007	19.993	104.249	20.093	1.468	0.523
1051.500	614.550	80.006	19.994	104.248	20.096	1.247	0.506
1053.000	615.307	80.006	19.994	104.240	20.092	1.523	0.510
1054.500	616.085	80.008	19.995	104.246	20.094	1.367	0.521
1056.000	616.856	80.007	19.993	104.244	20.093	1.470	0.517
1057.501	617.613	80.006	19.993	104.236	20.092	1.519	0.500
1059.000	618.347	80.007	19.993	104.244	20.095	1.315	0.508
1060.500	619.136	80.007	19.994	104.237	20.093	1.472	0.520
1062.000	619.907	80.007	19.993	104.251	20.096	1.257	0.519
1063.500	620.654	80.008	19.994	104.251	20.093	1.453	0.500
1065.000	621.417	80.008	19.994	104.250	20.095	1.338	0.524
1066.500	622.199	80.008	19.993	104.247	20.090	1.624	0.521
1068.000	622.982	80.008	19.993	104.239	20.092	1.505	0.539
1069.500	623.761	80.010	19.993	104.248	20.090	1.631	0.534
1071.000	624.517	80.008	19.993	104.256	20.094	1.365	0.514
1072.500	625.277	80.008	19.993	104.253	20.094	1.371	0.520
1074.000	626.090	80.006	19.994	104.251	20.093	1.461	0.534
1075.500	626.870	80.007	19.994	104.248	20.092	1.546	0.526
1077.000	627.675	80.007	19.993	104.248	20.093	1.443	0.540
1078.500	628.456	80.006	19.995	104.250	20.093	1.435	0.516
1080.000	629.227	80.005	19.994	104.252	20.090	1.629	0.499
1081.500	630.014	80.005	19.994	104.253	20.096	1.223	0.522
1083.000	630.821	80.005	19.994	104.249	20.093	1.480	0.537
1084.500	631.590	80.006	19.995	104.252	20.098	1.111	0.513
1086.000	632.350	80.005	19.994	104.250	20.096	1.254	0.488
1087.500	633.127	80.005	19.993	104.240	20.096	1.264	0.506
1089.000	633.909	80.007	19.992	104.235	20.094	1.394	0.523
1090.500	634.725	80.007	19.992	104.230	20.093	1.480	0.518
1092.000	635.467	80.007	19.993	104.241	20.094	1.346	0.521
1093.500	636.241	80.006	19.993	104.234	20.095	1.272	0.513
1095.000	637.022	80.005	19.992	104.222	20.090	1.637	0.532
1096.501	637.774	80.006	19.992	104.225	20.093	1.455	0.509
1098.001	638.535	80.006	19.992	104.223	20.090	1.651	0.516
1099.501	639.324	80.005	19.992	104.225	20.093	1.439	0.528
1101.000	640.081	80.007	19.991	104.226	20.092	1.492	0.483
1102.500	640.814	80.007	19.993	104.244	20.092	1.538	0.483
1104.000	641.600	80.007	19.992	104.239	20.095	1.289	0.530
1105.500	642.375	80.007	19.993	104.232	20.091	1.557	0.529
1107.000	643.117	80.006	19.994	104.258	20.097	1.161	0.493
1108.501	643.882	80.007	19.993	104.258	20.094	1.390	0.514
1110.001	644.674	80.006	19.993	104.240	20.097	1.181	0.505
1111.501	645.371	80.006	19.993	104.245	20.092	1.486	0.488
1113.001	646.165	80.006	19.994	104.249	20.092	1.551	0.539
1114.500	646.948	80.006	19.992	104.240	20.089	1.724	0.521
1116.000	647.679	80.007	19.993	104.228	20.096	1.256	0.502
1117.500	648.469	80.006	19.993	104.228	20.090	1.637	0.498
1119.001	649.237	80.006	19.992	104.239	20.094	1.367	0.493
1120.500	650.011	80.007	19.992	104.248	20.094	1.357	0.521
1122.000	650.808	80.007	19.992	104.244	20.093	1.474	0.537
1123.500	651.507	80.009	19.992	104.238	20.093	1.456	0.502
1125.000	652.333	80.008	19.993	104.227	20.092	1.495	0.550
1126.500	653.056	80.009	19.992	104.246	20.089	1.730	0.501
1128.000	653.839	80.008	19.993	104.238	20.091	1.562	0.505
1129.500	654.566	80.010	19.993	104.230	20.087	1.888	0.496
1131.000	655.378	80.009	19.993	104.216	20.091	1.567	0.539
1132.500	656.167	80.008	19.993	104.224	20.087	1.851	0.540
1134.000	656.921	80.007	19.993	104.229	20.092	1.490	0.491
1135.501	657.656	80.007	19.993	104.232	20.089	1.734	0.499
1137.000	658.426	80.008	19.993	104.251	20.096	1.227	0.519
1138.500	659.204	80.007	19.994	104.253	20.092	1.509	0.481
1140.000	659.969	80.007	19.993	104.256	20.093	1.462	0.529
1141.501	660.747	80.008	19.993	104.256	20.092	1.497	0.523
1143.000	661.546	80.008	19.994	104.247	20.094	1.361	0.518
1144.500	662.238	80.008	19.994	104.243	20.098	1.124	0.489
1146.001	663.067	80.008	19.994	104.255	20.096	1.266	0.509
1147.500	663.889	80.010	19.993	104.236	20.094	1.404	0.555
1149.000	664.652	80.010	19.992	104.217	20.093	1.476	0.466
1150.500	665.320	80.010	19.992	104.245	20.096	1.221	0.506
1152.000	666.099	80.010	19.992	104.220	20.094	1.396	0.470
1153.500	666.939	80.009	19.993	104.222	20.097	1.177	0.518
1155.000	667.686	80.009	19.993	104.249	20.095	1.338	0.464
1156.500	668.423	80.008	19.993	104.218	20.091	1.579	0.486
1158.000	669.226	80.007	19.994	104.219	20.093	1.439	0.562
1159.500	669.991	80.006	19.993	104.241	20.094	1.362	0.521
1161.000	670.776	80.006	19.993	104.233	20.094	1.381	0.506
1162.500	671.541	80.006	19.994	104.247	20.093	1.421	0.505
1164.000	672.243	80.006	19.994	104.240	20.093	1.449	0.430
1165.500	673.050	80.006	19.994	104.218	20.095	1.313	0.534
1167.000	673.882	80.006	19.994	104.247	20.096	1.258	0.532
1168.501	674.639	80.006	19.993	104.256	20.092	1.488	0.488
1170.001	675.391	80.005	19.995	104.253	20.094	1.344	0.499
1171.501	676.196	80.006	19.995	104.256	20.092	1.483	0.536
1173.001	676.944	80.005	19.994	104.238	20.093	1.435	0.500
1174.500	677.639	80.005	19.993	104.247	20.094	1.393	0.471
1176.000	678.407	80.006	19.994	104.237	20.093	1.474	0.515
1177.500	679.097	80.007	19.993	104.230	20.092	1.524	0.483
1179.000	679.927	80.006	19.994	104.251	20.092	1.482	0.530
1180.500	680.663	80.007	19.993	104.243	20.094	1.387	0.496
1182.000	681.390	80.006	19.993	104.223	20.095	1.318	0.499
1183.500	682.100	80.005	19.993	104.253	20.090	1.655	0.472
1185.000	682.895	80.006	19.992	104.259	20.094	1.398	0.549
1186.500	683.664	80.006	19.994	104.240	20.095	1.313	0.498
1188.000	684.430	80.005	19.993	104.222	20.091	1.584	0.527
1189.500	685.186	80.007	19.993	104.252	20.092	1.548	0.513
1191.000	685.987	80.005	19.993	104.258	20.089	1.734	0.522
1192.500	686.751	80.004	19.994	104.230	20.090	1.652	0.504
1194.000	687.563	80.005	19.994	104.244	20.092	1.511	0.540
1195.500	688.352	80.005	19.993	104.259	20.090	1.690	0.516
1197.000	689.103	80.005	19.992	104.243	20.093	1.470	0.487
1198.500	689.872	80.005	19.993	104.222	20.090	1.682	0.520
1200.000	690.643	80.006	19.994	104.249	20.096	1.254	0.530
1201.500	691.406	80.008	19.994	104.259	20.095	1.319	0.505
1203.001	692.148	80.007	19.992	104.224	20.092	1.540	0.502
1204.500	692.906	80.008	19.994	104.257	20.093	1.454	0.494
1206.000	693.671	80.009	19.992	104.263	20.098	1.117	0.508
1207.500	694.417	80.008	19.993	104.239	20.096	1.255	0.504
1209.000	695.192	80.009	19.992	104.254	20.093	1.480	0.511
1210.500	695.905	80.008	19.993	104.228	20.092	1.514	0.472
1212.000	696.640	80.008	19.993	104.223	20.095	1.321	0.511
1213.500	697.394	80.007	19.994	104.249	20.096	1.243	0.493
1215.000	698.123	80.007	19.994	104.215	20.090	1.658	0.486
1216.500	698.889	80.009	19.994	104.227	20.097	1.130	0.493
1218.001	699.551	80.007	19.994	104.244	20.096	1.227	0.434
1219.501	700.329	80.007	19.992	104.243	20.097	1.128	0.499
1221.000	701.060	80.008	19.993	104.212	20.096	1.208	0.490
1222.500	701.777	80.008	19.993	104.230	20.095	1.307	0.464
1224.000	702.510	80.008	19.993	104.237	20.094	1.352	0.478
1225.500	703.257	80.008	19.994	104.226	20.094	1.342	0.484
1227.001	704.008	80.009	19.993	104.250	20.093	1.441	0.513
1228.500	704.703	80.009	19.994	104.229	20.094	1.369	0.486
1230.000	705.497	80.008	19.994	104.234	20.093	1.456	0.521
1231.500	706.197	80.008	19.994	104.267	20.094	1.371	0.461
1233.000	706.967	80.007	19.993	104.232	20.099	1.020	0.511
1234.501	707.672	80.007	19.994	104.238	20.094	1.370	0.472
1236.001	708.405	80.007	19.992	104.244	20.092	1.501	0.499
1237.501	709.180	80.007	19.992	104.229	20.092	1.538	0.511
1239.000	709.941	80.005	19.993	104.253	20.097	1.150	0.518
1240.500	710.696	80.005	19.993	104.244	20.095	1.270	0.494
1242.001	711.462	80.006	19.994	104.244	20.095	1.309	0.516
1243.500	712.219	80.005	19.993	104.274	20.095	1.305	0.507
1245.001	712.990	80.006	19.994	104.278	20.095	1.330	0.519
1246.501	713.731	80.005	19.992	104.257	20.095	1.313	0.504
1248.000	714.537	80.004	19.994	104.242	20.096	1.260	0.539
1249.500	715.285	80.004	19.992	104.267	20.098	1.116	0.500
1251.000	716.088	80.005	19.993	104.235	20.096	1.212	0.540
1252.500	716.840	80.005	19.993	104.226	20.095	1.301	0.514
1254.000	717.638	80.006	19.994	104.241	20.093	1.425	0.515
1255.500	718.357	80.005	19.994	104.215	20.095	1.317	0.492
1257.000	719.123	80.005	19.995	104.245	20.095	1.279	0.527
1258.500	719.886	80.005	19.995	104.223	20.091	1.563	0.502
1260.000	720.654	80.005	19.994	104.204	20.094	1.361	0.518
1261.500	721.430	80.005	19.994	104.246	20.095	1.284	0.527
1263.000	722.178	80.006	19.994	104.214	20.088	1.835	0.514
1264.500	722.975	80.006	19.994	104.216	20.094	1.360	0.534
1266.000	723.728	80.007	19.994	104.233	20.095	1.320	0.496
1267.500	724.481	80.006	19.994	104.229	20.091	1.613	0.503
1269.001	725.244	80.005	19.994	104.202	20.090	1.650	0.514
1270.500	726.025	80.006	19.993	104.222	20.094	1.394	0.507
1272.000	726.747	80.006	19.992	104.242	20.092	1.491	0.499
1273.500	727.503	80.004	19.994	104.223	20.093	1.422	0.497
1275.000	728.314	80.006	19.993	104.248	20.093	1.462	0.536
1276.500	729.071	80.006	19.993	104.239	20.088	1.784	0.507
1278.000	729.847	80.006	19.993	104.215	20.090	1.680	0.506
1279.500	730.649	80.005	19.993	104.223	20.089	1.763	0.519
1281.000	731.446	80.007	19.993	104.224	20.088	1.831	0.532
1282.500	732.251	80.007	19.993	104.227	20.092	1.499	0.522
1284.000	733.053	80.006	19.993	104.244	20.094	1.404	0.528
1285.500	733.854	80.006	19.993	104.254	20.090	1.631	0.539
1287.001	734.624	80.005	19.993	104.238	20.088	1.794	0.510
1288.501	735.401	80.007	19.992	104.224	20.084	2.064	0.511
1290.000	736.223	80.008	19.993	104.231	20.089	1.719	0.540
1291.500	737.026	80.006	19.994	104.245	20.090	1.661	0.522
1293.000	737.797	80.007	19.993	104.249	20.091	1.606	0.506
1294.500	738.621	80.007	19.993	104.254	20.091	1.573	0.562
1296.000	739.420	80.006	19.993	104.256	20.093	1.431	0.529
1297.500	740.227	80.005	19.992	104.259	20.092	1.521	0.546
1299.000	741.043	80.006	19.993	104.226	20.091	1.565	0.555
1300.501	741.823	80.006	19.992	104.241	20.097	1.167	0.513
1302.001	742.627	80.007	19.993	104.258	20.091	1.600	0.533
1303.500	743.416	80.007	19.993	104.245	20.095	1.288	0.523