File: 01_Data/Engineered_Flooring/STA/N2/3K_min/EF_STA_N2_3KData_211512_R1.csv
##Temp./Â°C,Time/min,Mass loss(subtr.2)/mg,DSC(subtr.2)/(mW/mg),Sensit./(uV/mW)
49.899,10.00917,-0.02435,0.01381883,1.06381
50.599,11.15531,-0.02468666,0.03731657,1.06364
51.299,11.55037,-0.02467802,0.05099444,1.06347
51.999,11.87257,-0.02587894,0.06004572,1.0633
52.699,12.16565,-0.02457991,0.06525716,1.06314
53.399,12.4449,-0.02715174,0.06810549,1.06297
54.099,12.7171,-0.02702699,0.07174993,1.0628
54.799,12.9845,-0.02720003,0.0719643,1.06263
55.499,13.24758,-0.02719885,0.0758903,1.06246
56.199,13.5069,-0.02850672,0.07542261,1.06229
56.899,13.7627,-0.02717718,0.08028784,1.06212
57.599,14.0165,-0.02863213,0.07966738,1.06195
58.299,14.26885,-0.02882429,0.08021256,1.06178
58.999,14.5191,-0.02885001,0.07889093,1.06161
59.699,14.76704,-0.03015996,0.08276847,1.06143
60.399,15.013,-0.028559,0.08285186,1.06126
61.099,15.256,-0.02983814,0.08403574,1.06109
61.799,15.4989,-0.02983,0.08561933,1.06092
62.499,15.7407,-0.03121583,0.08716873,1.06075
63.199,15.98311,-0.03041187,0.09135697,1.06058
63.899,16.22242,-0.03207905,0.08987402,1.0604
64.599,16.4615,-0.0317983,0.08917189,1.06023
65.299,16.69887,-0.03247185,0.09200077,1.06006
65.999,16.93749,-0.03411535,0.09224583,1.05989
66.699,17.17517,-0.03379,0.09335868,1.05971
67.399,17.41299,-0.03411999,0.09255067,1.05954
68.099,17.64819,-0.03543093,0.09414449,1.05936
68.799,17.8844,-0.03441836,0.09439396,1.05919
69.499,18.11956,-0.03543,0.09688265,1.05902
70.199,18.35634,-0.03543,0.09405894,1.05884
70.899,18.59287,-0.03674372,0.09757602,1.05867
71.599,18.8294,-0.03674,0.09568074,1.05849
72.299,19.0651,-0.03742088,0.09602195,1.05832
72.999,19.29978,-0.03675,0.09606679,1.05814
73.699,19.53594,-0.03708152,0.09564678,1.05797
74.399,19.77157,-0.03839,0.09626343,1.05779
75.099,20.00667,-0.03830322,0.09430768,1.05761
75.799,20.24084,-0.03838773,0.09450897,1.05744
76.499,20.47549,-0.04072637,0.09418946,1.05726
77.199,20.71031,-0.04101935,0.09399916,1.05708
77.899,20.94596,-0.04069,0.09467025,1.05691
78.599,21.18079,-0.04109087,0.09339543,1.05673
79.299,21.41587,-0.04168,0.09350249,1.05655
79.999,21.65074,-0.04299153,0.09098164,1.05637
80.699,21.88578,-0.04168184,0.09192929,1.0562
81.399,22.12136,-0.04168002,0.08980623,1.05602
82.099,22.35641,-0.04333,0.09065467,1.05584
82.799,22.59188,-0.04196104,0.08837435,1.05566
83.499,22.828,-0.0423124,0.09088573,1.05548
84.199,23.06474,-0.04417982,0.087542,1.0553
84.899,23.29985,-0.04365045,0.08690827,1.05512
85.599,23.533,-0.043055,0.08931236,1.05494
86.299,23.76605,-0.04332595,0.08774666,1.05476
86.999,23.9987,-0.04366,0.08822237,1.05458
87.699,24.2324,-0.04366101,0.08978951,1.0544
88.399,24.46471,-0.04563436,0.08829897,1.05422
89.099,24.69782,-0.04398,0.08948413,1.05404
89.799,24.93046,-0.04596305,0.09126484,1.05385
90.499,25.16337,-0.04596688,0.09019759,1.05367
91.199,25.39551,-0.04511818,0.08910717,1.05349
91.899,25.6266,-0.04629,0.09092166,1.05331
92.599,25.8597,-0.04726991,0.08899248,1.05313
93.299,26.09283,-0.0453,0.08775167,1.05294
93.999,26.32757,-0.0475996,0.09017473,1.05276
94.699,26.56046,-0.04761,0.08685723,1.05257
95.399,26.793,-0.04761,0.08734957,1.05239
96.099,27.02535,-0.04728,0.08995874,1.05221
96.799,27.25725,-0.04727972,0.08818358,1.05202
97.499,27.48961,-0.0482627,0.09052235,1.05184
98.199,27.7222,-0.04850733,0.08817133,1.05165
98.899,27.9546,-0.04759982,0.0894214,1.05147
99.599,28.1874,-0.04793,0.08854909,1.05128
100.299,28.42,-0.04793918,0.08814522,1.05109
100.999,28.6533,-0.04794,0.08803358,1.05091
101.699,28.8867,-0.04924059,0.08674033,1.05072
102.399,29.1203,-0.04793,0.08662667,1.05053
103.099,29.3537,-0.04922544,0.08455658,1.05035
103.799,29.5857,-0.0490179,0.08762964,1.05016
104.499,29.81747,-0.04826,0.08846964,1.04997
105.199,30.0486,-0.04957,0.08829855,1.04978
105.899,30.2801,-0.04954635,0.08878761,1.0496
106.599,30.5113,-0.049226,0.08981372,1.04941
107.299,30.7432,-0.04858999,0.08751083,1.04922
107.999,30.97431,-0.04990999,0.08668916,1.04903
108.699,31.2067,-0.04929564,0.08625944,1.04884
109.399,31.4387,-0.04925,0.08799759,1.04865
110.099,31.67085,-0.0482721,0.0916353,1.04846
110.799,31.90178,-0.04859,0.09331453,1.04827
111.499,32.1325,-0.04789144,0.09309479,1.04808
112.199,32.3634,-0.04859,0.09245227,1.04788
112.899,32.59448,-0.04924998,0.09528745,1.04769
113.599,32.82587,-0.04793013,0.09366077,1.0475
114.299,33.05789,-0.04924836,0.09543051,1.04731
114.999,33.28918,-0.04891925,0.09258696,1.04712
115.699,33.52029,-0.05048667,0.09316672,1.04692
116.399,33.75124,-0.04821629,0.09271537,1.04673
117.099,33.98242,-0.04919899,0.09420308,1.04653
117.799,34.2142,-0.04957002,0.09518958,1.04634
118.499,34.44528,-0.05023002,0.09365222,1.04615
119.199,34.6773,-0.04957987,0.09744263,1.04595
119.899,34.90815,-0.04958,0.09406223,1.04576
120.599,35.13883,-0.0508987,0.09739049,1.04556
121.299,35.36889,-0.05089746,0.09684559,1.04537
121.999,35.59959,-0.04958,0.09773746,1.04517
122.699,35.83113,-0.05081068,0.09847899,1.04497
123.399,36.06196,-0.05122242,0.09724038,1.04478
124.099,36.29254,-0.05122122,0.09765625,1.04458
124.799,36.52282,-0.05155,0.0996433,1.04438
125.499,36.7539,-0.05155,0.10079,1.04418
126.199,36.98486,-0.05155001,0.1017,1.04399
126.899,37.21541,-0.05121475,0.09995128,1.04379
127.599,37.44532,-0.05124383,0.1034,1.04359
128.299,37.67468,-0.05056814,0.10029,1.04339
128.999,37.90459,-0.05057003,0.10142,1.04319
129.699,38.13451,-0.05056998,0.10137,1.04299
130.399,38.36593,-0.05121966,0.10403,1.04279
131.099,38.5972,-0.05254298,0.10389,1.04259
131.799,38.82907,-0.05385006,0.10443,1.04239
132.499,39.0595,-0.05253989,0.10368,1.04218
133.199,39.29101,-0.05254,0.10536,1.04198
133.899,39.52264,-0.05320003,0.10594,1.04178
134.599,39.75495,-0.05287001,0.10759,1.04158
135.299,39.98633,-0.05220998,0.10876,1.04137
135.999,40.2179,-0.05357652,0.10986,1.04117
136.699,40.4483,-0.05517088,0.10674,1.04097
137.399,40.67818,-0.05385908,0.10882,1.04076
138.099,40.90665,-0.05519545,0.11107,1.04056
138.799,41.13535,-0.05379046,0.10964,1.04035
139.499,41.36396,-0.05520245,0.11222,1.04015
140.199,41.59305,-0.0548399,0.1111,1.03994
140.899,41.82223,-0.05483999,0.10988,1.03974
141.599,42.0511,-0.0555,0.11293,1.03953
142.299,42.28065,-0.05616002,0.11298,1.03932
142.999,42.51062,-0.05616,0.11429,1.03912
143.699,42.74135,-0.05607827,0.11327,1.03891
144.399,42.9713,-0.05846994,0.1152,1.0387
145.099,43.20114,-0.05715026,0.11448,1.03849
145.799,43.43095,-0.05748,0.11505,1.03828
146.499,43.66039,-0.05944992,0.11741,1.03807
147.199,43.89025,-0.05881723,0.11618,1.03786
147.899,44.1197,-0.05878988,0.1176,1.03765
148.599,44.34932,-0.05814652,0.1209,1.03744
149.299,44.5777,-0.06043047,0.12217,1.03723
149.999,44.80643,-0.06192102,0.12052,1.03702
150.699,45.0354,-0.06077052,0.12152,1.03681
151.399,45.2654,-0.06207284,0.12209,1.0366
152.099,45.49518,-0.0634,0.12289,1.03638
152.799,45.7247,-0.06340018,0.12251,1.03617
153.499,45.95401,-0.06404826,0.12101,1.03596
154.199,46.1837,-0.06536987,0.12549,1.03574
154.899,46.41284,-0.06422659,0.12607,1.03553
155.599,46.6413,-0.06534015,0.12661,1.03532
156.299,46.8698,-0.06772484,0.12799,1.0351
156.999,47.09881,-0.0666904,0.13007,1.03488
157.699,47.32882,-0.06899003,0.13149,1.03467
158.399,47.558,-0.06998,0.13107,1.03445
159.099,47.78755,-0.06998,0.1349,1.03424
159.799,48.0162,-0.07039903,0.1352,1.03402
160.499,48.2447,-0.0722603,0.13753,1.0338
161.199,48.47283,-0.0732667,0.13841,1.03358
161.899,48.70145,-0.07391684,0.13799,1.03336
162.599,48.93027,-0.07392185,0.14158,1.03314
163.299,49.15947,-0.07787968,0.14077,1.03293
163.999,49.38825,-0.07655834,0.14226,1.03271
164.699,49.61653,-0.07992774,0.1425,1.03249
165.399,49.84519,-0.07912765,0.14523,1.03226
166.099,50.0742,-0.08113605,0.14824,1.03204
166.799,50.30298,-0.08314288,0.14932,1.03182
167.499,50.53137,-0.08446585,0.15283,1.0316
168.199,50.75952,-0.08445957,0.15608,1.03138
168.899,50.98837,-0.08578,0.15455,1.03115
169.599,51.21676,-0.08675997,0.15641,1.03093
170.299,51.44515,-0.08936933,0.15884,1.03071
170.999,51.67346,-0.08939,0.1604,1.03048
171.699,51.9022,-0.09236049,0.16304,1.03026
172.399,52.13057,-0.09233379,0.16393,1.03003
173.099,52.35892,-0.09465996,0.16714,1.02981
173.799,52.5865,-0.09597,0.17117,1.02958
174.499,52.8151,-0.09762377,0.17539,1.02935
175.199,53.04359,-0.101,0.17531,1.02913
175.899,53.2729,-0.10228,0.17145,1.0289
176.599,53.50176,-0.10355,0.17425,1.02867
177.299,53.73101,-0.10518,0.17362,1.02844
177.999,53.96029,-0.10651,0.1747,1.02821
178.699,54.18931,-0.10815,0.17544,1.02798
179.399,54.4185,-0.11076,0.17831,1.02775
180.099,54.64812,-0.11177,0.17994,1.02752
180.799,54.87741,-0.11342,0.18044,1.02729
181.499,55.10519,-0.11591,0.18322,1.02706
182.199,55.3315,-0.11835,0.1874,1.02683
182.899,55.55887,-0.12131,0.18872,1.0266
183.599,55.7869,-0.12261,0.1892,1.02636
184.299,56.01583,-0.12525,0.18714,1.02613
184.999,56.2445,-0.12665,0.18468,1.0259
185.699,56.47391,-0.12885,0.18832,1.02566
186.399,56.704,-0.13185,0.18985,1.02543
187.099,56.93415,-0.13316,0.19179,1.02519
187.799,57.16406,-0.13579,0.19324,1.02496
188.499,57.39355,-0.13875,0.19097,1.02472
189.199,57.6232,-0.13974,0.1939,1.02448
189.899,57.8528,-0.14232,0.19638,1.02424
190.599,58.08171,-0.14501,0.19879,1.02401
191.299,58.30975,-0.14895,0.19812,1.02377
191.999,58.53735,-0.15027,0.2015,1.02353
192.699,58.7649,-0.1529,0.20096,1.02329
193.399,58.9929,-0.15649,0.2004,1.02305
194.099,59.221,-0.15913,0.20097,1.02281
194.799,59.4493,-0.1608,0.20255,1.02257
195.499,59.67754,-0.16343,0.20126,1.02233
196.199,59.90566,-0.16534,0.20028,1.02209
196.899,60.134,-0.16739,0.20234,1.02184
197.599,60.36245,-0.17004,0.20142,1.0216
198.299,60.5911,-0.17307,0.20189,1.02136
198.999,60.8186,-0.1766,0.20144,1.02111
199.699,61.0464,-0.17925,0.20258,1.02087
200.399,61.2747,-0.1822,0.2017,1.02062
201.099,61.5039,-0.18482,0.20015,1.02038
201.799,61.73275,-0.18745,0.19907,1.02013
202.499,61.96082,-0.18875,0.20208,1.01988
203.199,62.1893,-0.19141,0.19872,1.01964
203.899,62.4176,-0.19436,0.1982,1.01939
204.599,62.6464,-0.19732,0.19909,1.01914
205.299,62.8743,-0.20127,0.19571,1.01889
205.999,63.10179,-0.20346,0.19524,1.01864
206.699,63.32905,-0.20522,0.19714,1.01839
207.399,63.55665,-0.20784,0.19344,1.01814
208.099,63.7843,-0.21164,0.19467,1.01789
208.799,64.01223,-0.21326,0.19456,1.01764
209.499,64.23983,-0.21712,0.19326,1.01739
210.199,64.46721,-0.22036,0.1938,1.01714
210.899,64.6957,-0.22296,0.19236,1.01688
211.599,64.92302,-0.22431,0.19472,1.01663
212.299,65.1515,-0.22824,0.19281,1.01637
212.999,65.37833,-0.23288,0.19227,1.01612
213.699,65.60608,-0.23553,0.19014,1.01586
214.399,65.83312,-0.23777,0.18754,1.01561
215.099,66.06015,-0.24076,0.18649,1.01535
215.799,66.28835,-0.24365,0.18458,1.0151
216.499,66.51671,-0.24536,0.18293,1.01484
217.199,66.74586,-0.24926,0.18404,1.01458
217.899,66.9746,-0.25326,0.18372,1.01432
218.599,67.20311,-0.25589,0.1827,1.01406
219.299,67.43154,-0.25854,0.18239,1.0138
219.999,67.65942,-0.26247,0.1836,1.01354
220.699,67.887,-0.26643,0.18152,1.01328
221.399,68.11437,-0.26992,0.17975,1.01302
222.099,68.3417,-0.27285,0.17846,1.01276
222.799,68.56913,-0.27465,0.17846,1.01249
223.499,68.79689,-0.27992,0.17705,1.01223
224.199,69.024,-0.28167,0.1793,1.01197
224.899,69.25153,-0.28453,0.17571,1.0117
225.599,69.47924,-0.28847,0.17459,1.01144
226.299,69.70719,-0.29261,0.17398,1.01117
226.999,69.93551,-0.29637,0.17201,1.01091
227.699,70.16402,-0.30025,0.1707,1.01064
228.399,70.39283,-0.30329,0.17104,1.01037
229.099,70.6212,-0.30755,0.16844,1.0101
229.799,70.84895,-0.31181,0.1679,1.00984
230.499,71.07669,-0.31381,0.17196,1.00957
231.199,71.30402,-0.31906,0.17145,1.0093
231.899,71.53118,-0.32186,0.16865,1.00903
232.599,71.75794,-0.32565,0.1679,1.00876
233.299,71.9847,-0.33027,0.16643,1.00848
233.999,72.21136,-0.33433,0.16621,1.00821
234.699,72.43856,-0.33882,0.16721,1.00794
235.399,72.66592,-0.34274,0.16358,1.00767
236.099,72.8934,-0.34678,0.16273,1.00739
236.799,73.12137,-0.35079,0.16174,1.00712
237.499,73.34874,-0.35339,0.16154,1.00684
238.199,73.5766,-0.35866,0.15981,1.00657
238.899,73.80407,-0.36326,0.15649,1.00629
239.599,74.03197,-0.3672,0.15674,1.00601
240.299,74.26001,-0.37153,0.15493,1.00574
240.999,74.4883,-0.37572,0.15314,1.00546
241.699,74.71679,-0.38054,0.15299,1.00518
242.399,74.94491,-0.38524,0.15388,1.0049
243.099,75.1725,-0.38956,0.15299,1.00462
243.799,75.39997,-0.3959,0.14941,1.00434
244.499,75.62786,-0.39981,0.14564,1.00406
245.199,75.85677,-0.40506,0.14795,1.00378
245.899,76.0857,-0.41112,0.1451,1.00349
246.599,76.31479,-0.41559,0.14548,1.00321
247.299,76.54326,-0.42171,0.14291,1.00293
247.999,76.77111,-0.42702,0.142,1.00264
248.699,76.99939,-0.4336,0.14221,1.00236
249.399,77.2274,-0.43882,0.1384,1.00207
250.099,77.45625,-0.44557,0.13762,1.00179
250.799,77.68427,-0.45095,0.13835,1.0015
251.499,77.912,-0.45686,0.1374,1.00121
252.199,78.13956,-0.46375,0.13718,1.00092
252.899,78.3665,-0.47144,0.13684,1.00063
253.599,78.5937,-0.47731,0.13486,1.00034
254.299,78.82039,-0.48393,0.1331,1.00005
254.999,79.0467,-0.49227,0.13449,0.99976
255.699,79.27323,-0.499,0.13182,0.99947
256.399,79.50004,-0.5065,0.13044,0.99918
257.099,79.72782,-0.51384,0.12951,0.99889
257.799,79.95613,-0.52172,0.12557,0.99859
258.499,80.18465,-0.52974,0.12278,0.9983
259.199,80.4136,-0.53697,0.12211,0.99801
259.899,80.6413,-0.54651,0.12071,0.99771
260.599,80.8695,-0.55578,0.12166,0.99741
261.299,81.0974,-0.56288,0.11956,0.99712
261.999,81.3261,-0.57127,0.11625,0.99682
262.699,81.5546,-0.58003,0.11692,0.99652
263.399,81.7827,-0.59048,0.11713,0.99622
264.099,82.01143,-0.59928,0.1126,0.99593
264.799,82.23954,-0.60671,0.11676,0.99563
265.499,82.46696,-0.61742,0.11147,0.99533
266.199,82.6935,-0.6263,0.11174,0.99502
266.899,82.92148,-0.63751,0.11011,0.99472
267.599,83.14993,-0.64698,0.10747,0.99442
268.299,83.37869,-0.65635,0.10821,0.99412
268.999,83.60559,-0.66776,0.10745,0.99381
269.699,83.83199,-0.6765,0.10622,0.99351
270.399,84.05835,-0.68538,0.10738,0.9932
271.099,84.28542,-0.69794,0.10631,0.9929
271.799,84.51353,-0.70682,0.10334,0.99259
272.499,84.74162,-0.71738,0.10234,0.99228
273.199,84.96983,-0.73001,0.09815051,0.99198
273.899,85.19833,-0.73931,0.09769293,0.99167
274.599,85.42706,-0.75053,0.09560363,0.99136
275.299,85.65605,-0.76162,0.09550055,0.99105
275.999,85.8841,-0.77304,0.09521623,0.99074
276.699,86.1112,-0.78437,0.09149418,0.99043
277.399,86.33891,-0.79577,0.09490291,0.99011
278.099,86.5668,-0.80657,0.0914975,0.9898
278.799,86.79547,-0.81783,0.0933091,0.98949
279.499,87.02351,-0.83134,0.09089056,0.98917
280.199,87.25135,-0.84125,0.08689881,0.98886
280.899,87.47877,-0.85296,0.08785437,0.98854
281.599,87.70661,-0.86493,0.08774479,0.98823
282.299,87.93518,-0.87726,0.08570717,0.98791
282.999,88.16464,-0.88842,0.0847153,0.98759
283.699,88.39326,-0.90161,0.08616073,0.98728
284.399,88.6211,-0.91377,0.08282621,0.98696
285.099,88.84877,-0.92538,0.08319402,0.98664
285.799,89.07624,-0.93878,0.08228027,0.98632
286.499,89.3044,-0.95007,0.08363039,0.986
287.199,89.5328,-0.96453,0.08220564,0.98567
287.899,89.7622,-0.97523,0.08394184,0.98535
288.599,89.9914,-0.9881,0.08115054,0.98503
289.299,90.22,-0.99826,0.07997528,0.98471
289.999,90.44806,-1.0114,0.07983097,0.98438
290.699,90.67572,-1.02564,0.0789768,0.98406
291.399,90.90279,-1.03855,0.0792334,0.98373
292.099,91.1302,-1.05047,0.07993134,0.9834
292.799,91.35761,-1.0638,0.07863532,0.98308
293.499,91.58604,-1.07717,0.07843416,0.98275
294.199,91.81453,-1.09087,0.077424,0.98242
294.899,92.04345,-1.10321,0.07908618,0.98209
295.599,92.2722,-1.11792,0.07711985,0.98176
296.299,92.5007,-1.13084,0.0751808,0.98143
296.999,92.7289,-1.14608,0.07906997,0.9811
297.699,92.95705,-1.15941,0.07823431,0.98076
298.399,93.1858,-1.17354,0.07795863,0.98043
299.099,93.4143,-1.18814,0.0804852,0.9801
299.799,93.64269,-1.20139,0.0772447,0.97976
300.499,93.8712,-1.21648,0.07968449,0.97943
301.199,94.1004,-1.22785,0.08202128,0.97909
301.899,94.33,-1.24243,0.08225261,0.97876
302.599,94.55881,-1.25896,0.08078472,0.97842
303.299,94.78781,-1.27222,0.08143208,0.97808
303.999,95.01664,-1.288,0.08264499,0.97774
304.699,95.2455,-1.30189,0.08421479,0.9774
305.399,95.47376,-1.31743,0.08524631,0.97706
306.099,95.70225,-1.33143,0.08501599,0.97672
306.799,95.93035,-1.34703,0.08521681,0.97638
307.499,96.1584,-1.36233,0.08708064,0.97604
308.199,96.38575,-1.37921,0.08692095,0.97569
308.899,96.6139,-1.39438,0.08812191,0.97535
309.599,96.8425,-1.40981,0.08859474,0.975
310.299,97.07127,-1.42755,0.08807697,0.97466
310.999,97.30073,-1.44178,0.08783535,0.97431
311.699,97.53057,-1.46004,0.08851136,0.97396
312.399,97.76043,-1.476,0.08697769,0.97362
313.099,97.98989,-1.49321,0.08672545,0.97327
313.799,98.2188,-1.51122,0.09004241,0.97292
314.499,98.44766,-1.52936,0.0910926,0.97257
315.199,98.676,-1.54493,0.0920816,0.97222
315.899,98.9042,-1.5631,0.09347535,0.97187
316.599,99.13201,-1.58236,0.09280162,0.97151
317.299,99.3605,-1.59906,0.09428785,0.97116
317.999,99.58925,-1.61863,0.09451704,0.97081
318.699,99.81864,-1.63712,0.09820139,0.97045
319.399,100.048,-1.65548,0.09738611,0.9701
320.099,100.277,-1.67469,0.09942624,0.96974
320.799,100.506,-1.69439,0.10063,0.96939
321.499,100.735,-1.71356,0.10336,0.96903
322.199,100.965,-1.73309,0.10263,0.96867
322.899,101.194,-1.75448,0.10565,0.96831
323.599,101.4231,-1.77495,0.10664,0.96795
324.299,101.652,-1.79563,0.10681,0.96759
324.999,101.88,-1.81682,0.10812,0.96723
325.699,102.109,-1.83844,0.11182,0.96687
326.399,102.338,-1.86025,0.1114,0.9665
327.099,102.5661,-1.88228,0.11697,0.96614
327.799,102.7944,-1.90506,0.11383,0.96578
328.499,103.023,-1.92796,0.11654,0.96541
329.199,103.2516,-1.95137,0.11825,0.96505
329.899,103.48,-1.97397,0.11814,0.96468
330.599,103.7092,-1.99958,0.1181,0.96431
331.299,103.939,-2.0228,0.11929,0.96394
331.999,104.17,-2.04636,0.11861,0.96357
332.699,104.4,-2.07057,0.11871,0.9632
333.399,104.631,-2.09557,0.11806,0.96283
334.099,104.86,-2.12059,0.11866,0.96246
334.799,105.09,-2.14419,0.11603,0.96209
335.499,105.32,-2.16993,0.11764,0.96172
336.199,105.551,-2.19568,0.1165,0.96134
336.899,105.781,-2.22092,0.11944,0.96097
337.599,106.011,-2.2462,0.11597,0.96059
338.299,106.24,-2.27127,0.11485,0.96022
338.999,106.47,-2.29523,0.11253,0.95984
339.699,106.699,-2.31943,0.11189,0.95946
340.399,106.928,-2.34346,0.10829,0.95909
341.099,107.158,-2.36676,0.10719,0.95871
341.799,107.386,-2.38957,0.10607,0.95833
342.499,107.615,-2.41268,0.10071,0.95795
343.199,107.8427,-2.4336,0.09622466,0.95756
343.899,108.071,-2.45393,0.09326404,0.95718
344.599,108.3,-2.47346,0.08738032,0.9568
345.299,108.529,-2.4931,0.08144178,0.95642
345.999,108.758,-2.51048,0.07688501,0.95603
346.699,108.987,-2.52761,0.06991892,0.95565
347.399,109.217,-2.54326,0.06661226,0.95526
348.099,109.446,-2.55733,0.06022727,0.95487
348.799,109.676,-2.57082,0.05599688,0.95448
349.499,109.905,-2.5819,0.05241404,0.9541
350.199,110.136,-2.59535,0.04739372,0.95371
350.899,110.365,-2.60446,0.04294914,0.95332
351.599,110.594,-2.61316,0.03634104,0.95293
352.299,110.822,-2.62094,0.03369785,0.95253
352.999,111.051,-2.62738,0.0301601,0.95214
353.699,111.281,-2.6356,0.0231619,0.95175
354.399,111.511,-2.64146,0.02322661,0.95135
355.099,111.74,-2.64674,0.02179215,0.95096
355.799,111.969,-2.65078,0.01709388,0.95056
356.499,112.199,-2.65616,0.01639806,0.95017
357.199,112.43,-2.66142,0.01381634,0.94977
357.899,112.662,-2.66546,0.01328076,0.94937
358.599,112.8934,-2.66888,0.009751785,0.94897
359.299,113.124,-2.6728,0.01192978,0.94857
359.999,113.355,-2.67534,0.01416147,0.94817
360.699,113.584,-2.6786,0.01247893,0.94777
361.399,113.814,-2.68325,0.00950666,0.94737
362.099,114.0439,-2.68589,0.008809943,0.94697
362.799,114.274,-2.68902,0.01090791,0.94656
363.499,114.505,-2.69175,0.009613075,0.94616
364.199,114.734,-2.69443,0.01036115,0.94575
364.899,114.963,-2.69798,0.008795991,0.94535
365.599,115.193,-2.70076,0.008445652,0.94494
366.299,115.423,-2.70436,0.006934219,0.94453
366.999,115.653,-2.70563,0.00795541,0.94412
367.699,115.883,-2.70958,0.006420306,0.94371
368.399,116.114,-2.71122,0.004496935,0.9433
369.099,116.345,-2.71451,0.004161366,0.94289
369.799,116.5758,-2.7171,0.003932324,0.94248
370.499,116.807,-2.72207,0.00369581,0.94207
371.199,117.037,-2.72199,0.00640313,0.94165
371.899,117.267,-2.72471,0.00596043,0.94124
372.599,117.496,-2.72866,0.005610554,0.94082
373.299,117.727,-2.73065,0.00590514,0.94041
373.999,117.957,-2.7344,0.005493557,0.93999
374.699,118.187,-2.7359,0.005974971,0.93957
375.399,118.418,-2.73751,0.004107319,0.93915
376.099,118.648,-2.74111,0.0025219,0.93873
376.799,118.879,-2.74381,0.004526392,0.93831
377.499,119.1083,-2.74643,0.00252937,0.93789
378.199,119.339,-2.7494,0.00341485,0.93747
378.899,119.569,-2.75171,0.002970037,0.93705
379.599,119.799,-2.75334,0.0009911806,0.93663
380.299,120.029,-2.75597,0.0005896175,0.9362
380.999,120.259,-2.75696,-0.001600927,0.93578
381.699,120.49,-2.76056,-0.0009216211,0.93535
382.399,120.721,-2.76221,0.001505576,0.93492
383.099,120.952,-2.76464,0.0005535657,0.9345
383.799,121.182,-2.76848,0.00256659,0.93407
384.499,121.412,-2.77111,0.002900018,0.93364
385.199,121.641,-2.77246,0.001459981,0.93321
385.899,121.872,-2.7744,0.0003414655,0.93278
386.599,122.103,-2.77703,0.00359658,0.93235
387.299,122.335,-2.77967,0.00455,0.93191
387.999,122.566,-2.7823,0.003565528,0.93148
388.699,122.797,-2.78562,0.004115635,0.93105
389.399,123.027,-2.7869,0.006041464,0.93061
390.099,123.258,-2.78954,0.00603865,0.93018
390.799,123.489,-2.78953,0.005766932,0.92974
391.499,123.72,-2.79494,0.00253339,0.9293
392.199,123.952,-2.79643,0.0006935211,0.92886
392.899,124.182,-2.79888,0.00164331,0.92842
393.599,124.413,-2.80177,0.004039964,0.92798
394.299,124.643,-2.80413,0.003043488,0.92754
394.999,124.874,-2.80544,0.004998163,0.9271
395.699,125.105,-2.80841,0.0006173384,0.92666
396.399,125.337,-2.80972,0.002969277,0.92622
397.099,125.568,-2.81169,0.00394589,0.92577
397.799,125.798,-2.81433,0.005758091,0.92533
398.499,126.029,-2.81707,0.00663502,0.92488
399.199,126.26,-2.81839,0.008055268,0.92443
399.899,126.491,-2.82102,0.00766783,0.92399
400.599,126.723,-2.82376,0.004830575,0.92354
401.299,126.955,-2.82439,0.007074513,0.92309
401.999,127.187,-2.82741,0.009306901,0.92264
402.699,127.419,-2.83089,0.00776378,0.92219
403.399,127.65,-2.83352,0.009511357,0.92174
404.099,127.882,-2.83343,0.009417837,0.92128
404.799,128.113,-2.83747,0.00856524,0.92083
405.499,128.344,-2.83877,0.00691709,0.92038
406.199,128.575,-2.84008,0.008008978,0.91992
406.899,128.807,-2.8422,0.00773898,0.91947
407.599,129.04,-2.84405,0.01139151,0.91901
408.299,129.271,-2.84668,0.01158185,0.91855
408.999,129.503,-2.84811,0.01286782,0.91809
409.699,129.733,-2.85063,0.01118395,0.91763
410.399,129.963,-2.85195,0.01202065,0.91717
411.099,130.194,-2.85293,0.0152845,0.91671
411.799,130.424,-2.85557,0.01238025,0.91625
412.499,130.655,-2.85688,0.01285392,0.91579
413.199,130.886,-2.8595,0.01387908,0.91532
413.899,131.116,-2.86012,0.01464608,0.91486
414.599,131.347,-2.86316,0.01599164,0.9144
415.299,131.578,-2.86354,0.01725053,0.91393
415.999,131.81,-2.86675,0.01527621,0.91346
416.699,132.0424,-2.8689,0.01750773,0.91299
417.399,132.274,-2.86819,0.01561759,0.91253
418.099,132.506,-2.87208,0.0167744,0.91206
418.799,132.737,-2.87399,0.01701165,0.91159
419.499,132.969,-2.87564,0.01818205,0.91112
420.199,133.201,-2.87695,0.01708503,0.91064
420.899,133.432,-2.87795,0.01959054,0.91017
421.599,133.664,-2.88093,0.02130999,0.9097
422.299,133.895,-2.88118,0.02347635,0.90922
422.999,134.126,-2.88484,0.02318738,0.90875
423.699,134.358,-2.88617,0.02245368,0.90827
424.399,134.59,-2.88617,0.0240565,0.90779
425.099,134.823,-2.88857,0.02224281,0.90732
425.799,135.055,-2.8911,0.02218292,0.90684
426.499,135.288,-2.89242,0.02136367,0.90636
427.199,135.52,-2.89374,0.0233332,0.90588
427.899,135.751,-2.89514,0.02671745,0.9054
428.599,135.982,-2.89768,0.02679864,0.90492
429.299,136.212,-2.899,0.02803256,0.90443
429.999,136.442,-2.90164,0.03186779,0.90395
430.699,136.673,-2.90293,0.03136556,0.90346
431.399,136.904,-2.90459,0.03143288,0.90298
432.099,137.137,-2.90591,0.03096539,0.90249
432.799,137.37,-2.90726,0.02665846,0.902
433.499,137.603,-2.90884,0.03007485,0.90152
434.199,137.836,-2.91118,0.03150767,0.90103
434.899,138.07,-2.91249,0.02981142,0.90054
435.599,138.304,-2.91381,0.03127764,0.90005
436.299,138.537,-2.91411,0.03609335,0.89956
436.999,138.769,-2.91677,0.03670278,0.89906
437.699,139,-2.91678,0.03528024,0.89857
438.399,139.231,-2.91908,0.035723,0.89808
439.099,139.461,-2.92039,0.03963377,0.89758
439.799,139.692,-2.92171,0.03951782,0.89709
440.499,139.922,-2.92424,0.0386538,0.89659
441.199,140.152,-2.92303,0.03750404,0.89609
441.899,140.383,-2.92731,0.04092163,0.89559
442.599,140.615,-2.92565,0.04153845,0.8951
443.299,140.847,-2.9296,0.03952959,0.8946
443.999,141.0801,-2.9296,0.03914491,0.8941
444.699,141.3132,-2.93223,0.03855269,0.89359
445.399,141.547,-2.93354,0.04233499,0.89309
446.099,141.781,-2.93323,0.04139109,0.89259
446.799,142.014,-2.93454,0.04053955,0.89208
447.499,142.246,-2.93748,0.04341009,0.89158
448.199,142.478,-2.93846,0.04255983,0.89107
448.899,142.711,-2.93926,0.04042973,0.89057
449.599,142.943,-2.94169,0.03835506,0.89006
450.299,143.1756,-2.94243,0.03988357,0.88955
450.999,143.408,-2.94243,0.03888754,0.88904
451.699,143.639,-2.94474,0.04064111,0.88853
452.399,143.87,-2.94441,0.04243191,0.88802
453.099,144.1014,-2.94606,0.04197155,0.88751
453.799,144.333,-2.94737,0.04134084,0.887
454.499,144.565,-2.94959,0.03759284,0.88648
455.199,144.797,-2.94868,0.03810585,0.88597
455.899,145.029,-2.9513,0.04267037,0.88545
456.599,145.262,-2.95363,0.03997264,0.88494
457.299,145.495,-2.95469,0.04073484,0.88442
457.999,145.728,-2.95527,0.03928711,0.8839
458.699,145.962,-2.95535,0.03913087,0.88338
459.399,146.196,-2.95598,0.03818575,0.88287
460.099,146.429,-2.95757,0.04195972,0.88235
460.799,146.662,-2.95922,0.03773232,0.88182
461.499,146.895,-2.9602,0.04110537,0.8813
462.199,147.128,-2.96053,0.03843893,0.88078
462.899,147.36,-2.96087,0.03464093,0.88026
463.599,147.592,-2.96253,0.03529486,0.87973
464.299,147.824,-2.96515,0.03733646,0.87921
464.999,148.056,-2.9658,0.0348027,0.87868
465.699,148.288,-2.96711,0.03624032,0.87815
466.399,148.519,-2.96843,0.03413291,0.87763
467.099,148.751,-2.96843,0.03490385,0.8771
467.799,148.983,-2.9704,0.03381414,0.87657
468.499,149.216,-2.97041,0.03510819,0.87604
469.199,149.449,-2.97173,0.03528056,0.87551
469.899,149.682,-2.97303,0.03042118,0.87497
470.599,149.915,-2.97338,0.03185525,0.87444
471.299,150.1485,-2.97469,0.03302841,0.87391
471.999,150.382,-2.97633,0.02974992,0.87337
472.699,150.616,-2.97765,0.02837735,0.87284
473.399,150.849,-2.97798,0.02772481,0.8723
474.099,151.082,-2.98061,0.02869198,0.87176
474.799,151.315,-2.98191,0.02465172,0.87123
475.499,151.55,-2.98156,0.02442517,0.87069
476.199,151.784,-2.98324,0.02378093,0.87015
476.899,152.018,-2.98555,0.02321209,0.86961
477.599,152.253,-2.98521,0.01835165,0.86907
478.299,152.486,-2.98785,0.01599707,0.86853
478.999,152.718,-2.98851,0.0120875,0.86798
479.699,152.95,-2.9885,0.005660045,0.86744
480.399,153.182,-2.99081,0.005873019,0.86689
481.099,153.415,-2.98979,-0.0006257678,0.86635
481.799,153.648,-2.99246,-0.0001148918,0.8658
482.499,153.882,-2.99377,-0.006017495,0.86526
483.199,154.116,-2.99509,-0.00580513,0.86471
483.899,154.35,-2.99641,-0.006395175,0.86416
484.599,154.583,-2.99541,-0.009995716,0.86361
485.299,154.816,-2.99784,-0.00831609,0.86306
485.999,155.049,-2.99904,-0.009952086,0.86251
486.699,155.282,-2.99897,-0.01096779,0.86196
487.399,155.516,-3.00011,-0.01339248,0.8614
488.099,155.75,-3.00034,-0.01649395,0.86085
488.799,155.983,-3.00201,-0.01503472,0.86029
489.499,156.2156,-3.00299,-0.01566297,0.85974
490.199,156.4479,-3.00265,-0.01637425,0.85918
490.899,156.68,-3.0043,-0.01702565,0.85863
491.599,156.912,-3.00562,-0.0167951,0.85807
492.299,157.145,-3.00693,-0.01950651,0.85751
492.999,157.379,-3.00724,-0.01866924,0.85695
493.699,157.613,-3.0083,-0.02250275,0.85639
494.399,157.848,-3.00825,-0.0205891,0.85583
495.099,158.083,-3.00957,-0.02374661,0.85527
495.799,158.318,-3.01088,-0.02159979,0.8547
496.499,158.552,-3.0118,-0.02484633,0.85414
497.199,158.7865,-3.01253,-0.02349273,0.85357
497.899,159.0201,-3.01385,-0.02405424,0.85301
498.599,159.254,-3.01517,-0.02707101,0.85244
499.299,159.487,-3.01516,-0.02557057,0.85188
499.999,159.72,-3.01516,-0.02791689,0.85131
500.699,159.953,-3.01758,-0.02605673,0.85074
501.399,160.185,-3.01672,-0.03007333,0.85017
502.099,160.418,-3.01845,-0.02968825,0.8496
502.799,160.651,-3.01849,-0.03449229,0.84903
503.499,160.884,-3.01977,-0.02967766,0.84846
504.199,161.117,-3.02112,-0.03380736,0.84788
504.899,161.351,-3.02109,-0.03948299,0.84731
505.599,161.585,-3.02108,-0.04073088,0.84674
506.299,161.818,-3.02207,-0.03976451,0.84616
506.999,162.051,-3.02339,-0.04445153,0.84559
507.699,162.284,-3.02337,-0.04497394,0.84501
508.399,162.518,-3.02471,-0.04462066,0.84443
509.099,162.752,-3.02603,-0.04892512,0.84385
509.799,162.986,-3.02555,-0.05106974,0.84327
510.499,163.221,-3.02732,-0.05216381,0.84269
511.199,163.454,-3.02736,-0.05170339,0.84211
511.899,163.689,-3.02901,-0.05348526,0.84153
512.599,163.9231,-3.03031,-0.05589738,0.84095
513.299,164.157,-3.02997,-0.0561014,0.84037
513.999,164.391,-3.03129,-0.05571284,0.83978
514.699,164.6237,-3.03128,-0.05779258,0.8392
515.399,164.858,-3.03161,-0.06063414,0.83861
516.099,165.092,-3.03293,-0.06109667,0.83802
516.799,165.327,-3.03523,-0.06078501,0.83744
517.499,165.564,-3.03388,-0.06144727,0.83685
518.199,165.8002,-3.03589,-0.06751062,0.83626
518.899,166.036,-3.03622,-0.06721295,0.83567
519.599,166.27,-3.03655,-0.06779739,0.83508
520.299,166.505,-3.03741,-0.06519686,0.83449
520.999,166.7383,-3.03951,-0.06731573,0.8339
521.699,166.973,-3.03851,-0.06602137,0.8333
522.399,167.206,-3.04017,-0.06803085,0.83271
523.099,167.44,-3.04017,-0.07264841,0.83211
523.799,167.675,-3.04116,-0.06925845,0.83152
524.499,167.9103,-3.04214,-0.07327384,0.83092
525.199,168.146,-3.0418,-0.07442461,0.83033
525.899,168.381,-3.04412,-0.07451055,0.82973
526.599,168.615,-3.04376,-0.07204014,0.82913
527.299,168.849,-3.04379,-0.07318953,0.82853
527.999,169.083,-3.04608,-0.07389739,0.82793
528.699,169.317,-3.04577,-0.07391441,0.82733
529.399,169.552,-3.04642,-0.07581439,0.82673
530.099,169.787,-3.04774,-0.07582979,0.82613
530.799,170.023,-3.04872,-0.07752872,0.82552
531.499,170.258,-3.04806,-0.07825341,0.82492
532.199,170.493,-3.04905,-0.07695822,0.82431
532.899,170.727,-3.05169,-0.0761672,0.82371
533.599,170.962,-3.05169,-0.07462656,0.8231
534.299,171.196,-3.0507,-0.0790544,0.82249
534.999,171.43,-3.05201,-0.07933072,0.82189
535.699,171.664,-3.05333,-0.07944297,0.82128
536.399,171.898,-3.05333,-0.08266521,0.82067
537.099,172.132,-3.05432,-0.08276384,0.82006
537.799,172.365,-3.05465,-0.08381577,0.81945
538.499,172.599,-3.05662,-0.08296368,0.81883
539.199,172.833,-3.05695,-0.08225785,0.81822
539.899,173.069,-3.0583,-0.08206704,0.81761
540.599,173.303,-3.05832,-0.08375406,0.81699
541.299,173.538,-3.0586,-0.08318601,0.81638
541.999,173.7726,-3.05991,-0.08292025,0.81576
542.699,174.007,-3.06057,-0.0837886,0.81515
543.399,174.241,-3.06057,-0.08435725,0.81453
544.099,174.475,-3.06254,-0.08133483,0.81391
544.799,174.709,-3.06254,-0.08212589,0.81329
545.499,174.943,-3.06271,-0.08368773,0.81267
546.199,175.1769,-3.06386,-0.08351568,0.81205
546.899,175.411,-3.06386,-0.08355344,0.81143
547.599,175.644,-3.06519,-0.08705953,0.81081
548.299,175.878,-3.06583,-0.08360901,0.81019
548.999,176.113,-3.06583,-0.08295016,0.80956
549.699,176.348,-3.06814,-0.07936505,0.80894
550.399,176.582,-3.06782,-0.08419554,0.80831
551.099,176.816,-3.06946,-0.08661641,0.80769
551.799,177.0514,-3.06912,-0.08158001,0.80706
552.499,177.2868,-3.06912,-0.08504947,0.80643
553.199,177.522,-3.06978,-0.08597117,0.8058
553.899,177.758,-3.0711,-0.08627704,0.80518
554.599,177.993,-3.07346,-0.08583623,0.80455
555.299,178.2289,-3.07275,-0.08618757,0.80392
555.999,178.465,-3.07407,-0.08255844,0.80328
556.699,178.7,-3.07338,-0.08507405,0.80265
557.399,178.935,-3.07373,-0.08305518,0.80202
558.099,179.168,-3.07538,-0.0839058,0.80139
558.799,179.402,-3.07538,-0.08320668,0.80075
559.499,179.637,-3.07669,-0.08447337,0.80012
560.199,179.872,-3.07697,-0.08494687,0.79948
560.899,180.1074,-3.07636,-0.08271033,0.79885
561.599,180.343,-3.07774,-0.08520095,0.79821
562.299,180.578,-3.07735,-0.08332029,0.79757
562.999,180.813,-3.07766,-0.08557348,0.79693
563.699,181.047,-3.07965,-0.09010159,0.79629
564.399,181.282,-3.07933,-0.08657621,0.79565
565.099,181.516,-3.08064,-0.08416527,0.79501
565.799,181.751,-3.07934,-0.08549941,0.79437
566.499,181.986,-3.08215,-0.08356794,0.79373
567.199,182.221,-3.08065,-0.08872687,0.79309
567.899,182.456,-3.08228,-0.08987148,0.79244
568.599,182.692,-3.08294,-0.08969603,0.7918
569.299,182.927,-3.08426,-0.091748,0.79115
569.999,183.162,-3.08361,-0.08958833,0.79051
570.699,183.396,-3.08412,-0.08776037,0.78986
571.399,183.631,-3.08624,-0.0878982,0.78921
572.099,183.867,-3.08493,-0.09135526,0.78856
572.799,184.103,-3.08624,-0.08933013,0.78792
573.499,184.339,-3.08722,-0.09194099,0.78727
574.199,184.574,-3.0869,-0.08975008,0.78662
574.899,184.81,-3.08788,-0.09154821,0.78596
575.599,185.046,-3.0882,-0.08780419,0.78531
576.299,185.2809,-3.08788,-0.09117401,0.78466
576.999,185.515,-3.08919,-0.08760616,0.78401
577.699,185.749,-3.0905,-0.08913971,0.78335
578.399,185.982,-3.08986,-0.09159342,0.7827
579.099,186.217,-3.09216,-0.0927918,0.78204
579.799,186.451,-3.09154,-0.09166355,0.78139
580.499,186.6846,-3.09314,-0.09247389,0.78073
581.199,186.919,-3.09314,-0.09232215,0.78007
581.899,187.155,-3.09224,-0.09709622,0.77941
582.599,187.391,-3.09512,-0.09448066,0.77876
583.299,187.627,-3.09545,-0.09583806,0.7781
583.999,187.8638,-3.09454,-0.0941742,0.77744
584.699,188.1,-3.09671,-0.0969833,0.77677
585.399,188.336,-3.09742,-0.0965217,0.77611
586.099,188.571,-3.09873,-0.09519274,0.77545
586.799,188.806,-3.09808,-0.09893316,0.77479
587.499,189.042,-3.10009,-0.10039,0.77412
588.199,189.278,-3.10006,-0.09926079,0.77346
588.899,189.515,-3.10079,-0.09748721,0.77279
589.599,189.752,-3.10137,-0.099099,0.77213
590.299,189.988,-3.10137,-0.09653612,0.77146
590.999,190.224,-3.10189,-0.09688758,0.77079
591.699,190.459,-3.10137,-0.09906245,0.77013
592.399,190.693,-3.10269,-0.09940072,0.76946
593.099,190.927,-3.10269,-0.09682506,0.76879
593.799,191.161,-3.104,-0.10007,0.76812
594.499,191.3951,-3.10383,-0.10105,0.76745
595.199,191.6305,-3.10466,-0.10502,0.76678
595.899,191.866,-3.10466,-0.10395,0.7661
596.599,192.101,-3.10532,-0.10707,0.76543
597.299,192.336,-3.10525,-0.10498,0.76476
597.999,192.571,-3.10664,-0.10623,0.76408
598.699,192.807,-3.10593,-0.10791,0.76341
599.399,193.043,-3.10729,-0.10617,0.76273
600.099,193.278,-3.10729,-0.1073,0.76206
600.799,193.514,-3.10861,-0.10767,0.76138
601.499,193.749,-3.10927,-0.10689,0.7607
602.199,193.986,-3.11059,-0.10556,0.76003
602.899,194.2219,-3.11134,-0.10901,0.75935
603.599,194.459,-3.10993,-0.10719,0.75867
604.299,194.695,-3.11124,-0.10778,0.75799
604.999,194.932,-3.1112,-0.10518,0.75731
605.699,195.168,-3.11223,-0.10851,0.75663
606.399,195.403,-3.1126,-0.10585,0.75594
607.099,195.639,-3.11355,-0.10727,0.75526
607.799,195.874,-3.11355,-0.10453,0.75458
608.499,196.109,-3.11519,-0.10365,0.75389
609.199,196.344,-3.11519,-0.10353,0.75321
609.899,196.58,-3.11486,-0.10603,0.75252
610.599,196.816,-3.11551,-0.10641,0.75184
611.299,197.052,-3.11688,-0.10529,0.75115
611.999,197.288,-3.1175,-0.10855,0.75046
612.699,197.5242,-3.11815,-0.10719,0.74977
613.399,197.76,-3.11816,-0.10774,0.74909
614.099,197.996,-3.11947,-0.11044,0.7484
614.799,198.232,-3.11947,-0.10617,0.74771
615.499,198.467,-3.11947,-0.10543,0.74702
616.199,198.702,-3.11947,-0.1109,0.74633
616.899,198.937,-3.12078,-0.10584,0.74563
617.599,199.172,-3.12079,-0.10469,0.74494
618.299,199.405,-3.12178,-0.10599,0.74425
618.999,199.64,-3.12177,-0.10642,0.74355
619.699,199.8758,-3.12243,-0.10424,0.74286
620.399,200.112,-3.12243,-0.1067,0.74217
621.099,200.348,-3.12272,-0.10987,0.74147
621.799,200.584,-3.12419,-0.10952,0.74077
622.499,200.82,-3.12419,-0.1097,0.74008
623.199,201.055,-3.12551,-0.10947,0.73938
623.899,201.291,-3.12584,-0.10852,0.73868
624.599,201.527,-3.12748,-0.10635,0.73798
625.299,201.763,-3.12551,-0.10724,0.73728
625.999,202,-3.12814,-0.10895,0.73658
626.699,202.238,-3.12814,-0.10548,0.73588
627.399,202.475,-3.12741,-0.10083,0.73518
628.099,202.712,-3.12913,-0.10229,0.73448
628.799,202.948,-3.13083,-0.10149,0.73378
629.499,203.183,-3.12946,-0.10005,0.73308
630.199,203.419,-3.12946,-0.10239,0.73237
630.899,203.6559,-3.12961,-0.10126,0.73167
631.599,203.892,-3.13077,-0.10254,0.73096
632.299,204.129,-3.13077,-0.1017,0.73026
632.999,204.364,-3.13143,-0.10433,0.72955
633.699,204.601,-3.13104,-0.10167,0.72885
634.399,204.838,-3.13336,-0.09863527,0.72814
635.099,205.076,-3.13242,-0.10092,0.72743
635.799,205.312,-3.13242,-0.10029,0.72672
636.499,205.5486,-3.13375,-0.10308,0.72601
637.199,205.785,-3.13373,-0.10273,0.7253
637.899,206.021,-3.13505,-0.0999427,0.72459
638.599,206.257,-3.13606,-0.10304,0.72388
639.299,206.493,-3.1343,-0.10037,0.72317
639.999,206.729,-3.13571,-0.10094,0.72246
640.699,206.964,-3.13432,-0.09844245,0.72175
641.399,207.2,-3.13637,-0.09976757,0.72103
642.099,207.4354,-3.13736,-0.10252,0.72032
642.799,207.672,-3.13756,-0.09647333,0.71961
643.499,207.908,-3.13768,-0.09938482,0.71889
644.199,208.145,-3.13669,-0.09859838,0.71818
644.899,208.382,-3.13801,-0.09660642,0.71746
645.599,208.62,-3.13801,-0.09811355,0.71675
646.299,208.857,-3.13669,-0.09664689,0.71603
646.999,209.093,-3.13801,-0.09056343,0.71531
647.699,209.3287,-3.13867,-0.09293471,0.71459
648.399,209.564,-3.13968,-0.09191304,0.71387
649.099,209.8,-3.13768,-0.09379243,0.71316
649.799,210.035,-3.14031,-0.0900862,0.71244
650.499,210.27,-3.14027,-0.09155313,0.71172
651.199,210.5051,-3.14064,-0.09115253,0.71099
651.899,210.74,-3.14096,-0.09050918,0.71027
652.599,210.975,-3.141,-0.08805644,0.70955
653.299,211.2094,-3.14097,-0.0905821,0.70883
653.999,211.444,-3.14238,-0.09008399,0.70811
654.699,211.68,-3.14262,-0.08786619,0.70738
655.399,211.916,-3.14295,-0.08716154,0.70666
656.099,212.153,-3.14196,-0.0916811,0.70593
656.799,212.391,-3.1436,-0.09198754,0.70521
657.499,212.63,-3.14294,-0.08830791,0.70448
658.199,212.868,-3.13863,-0.09376504,0.70376
658.899,213.106,-3.13589,-0.09099671,0.70303
659.599,213.343,-3.14358,-0.08549901,0.7023
660.299,213.579,-3.14799,-0.083772,0.70158
660.999,213.815,-3.14536,-0.08466071,0.70085
661.699,214.051,-3.1447,-0.08506887,0.70012
662.399,214.287,-3.14069,-0.08380187,0.69939
663.099,214.523,-3.14467,-0.08173873,0.69866
663.799,214.758,-3.15506,-0.07399846,0.69793
664.499,214.993,-3.1495,-0.0763671,0.6972
665.199,215.229,-3.14645,-0.07508867,0.69647
665.899,215.466,-3.14542,-0.07499212,0.69573
666.599,215.702,-3.14547,-0.07517002,0.695
667.299,215.9391,-3.14547,-0.07345332,0.69427
667.999,216.175,-3.14712,-0.07360723,0.69354
668.699,216.412,-3.1458,-0.07319744,0.6928
669.399,216.648,-3.14581,-0.07070919,0.69207
670.099,216.885,-3.14646,-0.07061203,0.69133
670.799,217.121,-3.14646,-0.06706021,0.6906
671.499,217.356,-3.14614,-0.06634926,0.68986
672.199,217.5935,-3.14753,-0.06664937,0.68913
672.899,217.83,-3.14749,-0.06599373,0.68839
673.599,218.067,-3.14744,-0.06712123,0.68765
674.299,218.302,-3.14876,-0.06550775,0.68691
674.999,218.5381,-3.1504,-0.06548472,0.68618
675.699,218.774,-3.14941,-0.06720929,0.68544
676.399,219.01,-3.14876,-0.06940794,0.6847
677.099,219.246,-3.15106,-0.06348202,0.68396
677.799,219.482,-3.15079,-0.06572208,0.68322
678.499,219.719,-3.15106,-0.06518683,0.68248
679.199,219.956,-3.15106,-0.0601885,0.68174
679.899,220.192,-3.1527,-0.06106936,0.68099
680.599,220.429,-3.1517,-0.06077069,0.68025
681.299,220.666,-3.15204,-0.05949222,0.67951
681.999,220.902,-3.15337,-0.06214948,0.67877
682.699,221.138,-3.15205,-0.06308317,0.67802
683.399,221.374,-3.15435,-0.06351962,0.67728
684.099,221.61,-3.15369,-0.06315,0.67653
684.799,221.847,-3.15336,-0.06068467,0.67579
685.499,222.083,-3.15336,-0.06479244,0.67504
686.199,222.319,-3.15336,-0.06240161,0.6743
686.899,222.555,-3.15654,-0.06036715,0.67355
687.599,222.792,-3.15402,-0.05772042,0.67281
688.299,223.029,-3.156,-0.06172994,0.67206
688.999,223.266,-3.15468,-0.06177373,0.67131
689.699,223.501,-3.15468,-0.06154505,0.67056
690.399,223.737,-3.1547,-0.06033966,0.66981
691.099,223.974,-3.1574,-0.05655102,0.66907
691.799,224.213,-3.15599,-0.05518983,0.66832
692.499,224.451,-3.15698,-0.05850787,0.66757
693.199,224.69,-3.15728,-0.05857754,0.66682
693.899,224.927,-3.15698,-0.06064406,0.66607
694.599,225.164,-3.15567,-0.05706216,0.66531
695.299,225.4,-3.15798,-0.05657714,0.66456
695.999,225.636,-3.15798,-0.05736954,0.66381
696.699,225.872,-3.15699,-0.06111711,0.66306
697.399,226.109,-3.157,-0.05984754,0.66231
698.099,226.345,-3.15929,-0.06342204,0.66155
698.799,226.581,-3.15699,-0.06067872,0.6608
699.499,226.817,-3.15731,-0.05805119,0.66005
700.199,227.053,-3.15863,-0.06148826,0.65929
700.899,227.288,-3.15863,-0.05981733,0.65854
701.599,227.524,-3.15764,-0.06396577,0.65778
702.299,227.76,-3.15862,-0.06266357,0.65703
702.999,227.997,-3.15999,-0.06154145,0.65627
703.699,228.233,-3.15995,-0.06494637,0.65551
704.399,228.47,-3.15863,-0.06454004,0.65476
705.099,228.705,-3.15962,-0.06602143,0.654
705.799,228.94,-3.15994,-0.06525902,0.65324
706.499,229.176,-3.16093,-0.06638621,0.65248
707.199,229.414,-3.16126,-0.06640088,0.65173
707.899,229.655,-3.16095,-0.06429111,0.65097
708.599,229.895,-3.15995,-0.06686618,0.65021
709.299,230.134,-3.15996,-0.06780997,0.64945
709.999,230.373,-3.16094,-0.06737449,0.64869
710.699,230.61,-3.16094,-0.06893672,0.64793
711.399,230.847,-3.16159,-0.06972932,0.64717
712.099,231.084,-3.16324,-0.06549142,0.64641
712.799,231.321,-3.16146,-0.07231469,0.64565
713.499,231.5581,-3.16323,-0.07242559,0.64488
714.199,231.796,-3.16357,-0.07135348,0.64412
714.899,232.032,-3.16291,-0.07341234,0.64336
715.599,232.269,-3.16423,-0.0698039,0.6426
716.299,232.504,-3.1639,-0.07010391,0.64183
716.999,232.739,-3.1639,-0.0746497,0.64107
717.699,232.974,-3.16643,-0.073746,0.64031
718.399,233.21,-3.16489,-0.07441386,0.63954
719.099,233.446,-3.16587,-0.08107316,0.63878
719.799,233.682,-3.16482,-0.08114744,0.63801
720.499,233.918,-3.16554,-0.08118036,0.63725
721.199,234.154,-3.16653,-0.08476555,0.63648
721.899,234.391,-3.16655,-0.07736453,0.63572
722.599,234.628,-3.16686,-0.07852501,0.63495
723.299,234.865,-3.16587,-0.08019279,0.63418
723.999,235.102,-3.16719,-0.0815142,0.63342
724.699,235.3408,-3.16719,-0.08482659,0.63265
725.399,235.579,-3.16785,-0.08774473,0.63188
726.099,235.818,-3.16784,-0.08617475,0.63111
726.799,236.055,-3.16686,-0.08764905,0.63034
727.499,236.292,-3.16817,-0.08534888,0.62958
728.199,236.528,-3.16955,-0.09586336,0.62881
728.899,236.763,-3.16948,-0.09594023,0.62804
729.599,236.999,-3.16916,-0.09731142,0.62727
730.299,237.235,-3.16949,-0.09776626,0.6265
730.999,237.473,-3.16949,-0.09934886,0.62573
731.699,237.71,-3.1682,-0.10207,0.62496
732.399,237.948,-3.16949,-0.10514,0.62419
733.099,238.185,-3.17048,-0.10935,0.62342
733.799,238.4211,-3.16949,-0.10937,0.62264
734.499,238.657,-3.17015,-0.11061,0.62187
735.199,238.894,-3.1714,-0.11357,0.6211
735.899,239.132,-3.17179,-0.11378,0.62033
736.599,239.371,-3.17146,-0.1176,0.61956
737.299,239.608,-3.17113,-0.12008,0.61878
737.999,239.845,-3.17113,-0.11996,0.61801
738.699,240.082,-3.17281,-0.12457,0.61724
739.399,240.318,-3.17278,-0.124,0.61646
740.099,240.555,-3.17246,-0.13028,0.61569
740.799,240.792,-3.17213,-0.12794,0.61491
741.499,241.03,-3.17311,-0.12787,0.61414
742.199,241.266,-3.1731,-0.12869,0.61337
742.899,241.502,-3.17311,-0.12893,0.61259
743.599,241.739,-3.17442,-0.13351,0.61181
744.299,241.976,-3.17508,-0.13423,0.61104
744.999,242.214,-3.17442,-0.1376,0.61026
745.699,242.45,-3.17473,-0.13796,0.60949
746.399,242.6864,-3.17505,-0.13892,0.60871
747.099,242.923,-3.17572,-0.14267,0.60793
747.799,243.159,-3.17607,-0.14527,0.60716
748.299,243.324,-3.17607,-0.14755,0.6066