File: 01_Data/PP/STA/N2/3K_min/PP_STA_N2_3KData_210826_R1.csv
##Temp./Â°C,Time/min,Mass loss(subtr.2)/mg,DSC(subtr.2)/(mW/mg),Sensit./(uV/mW)
49.687,10.00917,-0.02896,-0.02861364,1.03585
50.287,12.10759,-0.03383613,-0.01600857,1.03582
50.887,12.7895,-0.03499017,-0.00491842,1.03579
51.487,13.31078,-0.03583401,0.003513058,1.03576
52.087,13.7607,-0.03624173,0.008068399,1.03573
52.687,14.16669,-0.03727424,0.01276478,1.03569
53.287,14.5403,-0.0369577,0.01617419,1.03565
53.887,14.8919,-0.03760239,0.01897525,1.03562
54.487,15.22781,-0.03859334,0.0234967,1.03558
55.087,15.54817,-0.03762008,0.02701044,1.03554
55.687,15.8534,-0.04030807,0.02812555,1.03549
56.287,16.14762,-0.03893945,0.03142352,1.03545
56.887,16.4356,-0.04026186,0.03171742,1.0354
57.487,16.7153,-0.04026362,0.03242415,1.03536
58.087,16.9872,-0.04014947,0.03559746,1.03531
58.687,17.25314,-0.04003997,0.03551023,1.03526
59.287,17.51503,-0.04008376,0.03853486,1.03521
59.887,17.77039,-0.04201419,0.04217921,1.03515
60.487,18.0211,-0.04267443,0.04057728,1.0351
61.087,18.26831,-0.04266987,0.04386653,1.03504
61.687,18.51246,-0.04133979,0.04731725,1.03498
62.287,18.75416,-0.04319488,0.04695076,1.03492
62.887,18.99373,-0.04131634,0.04631487,1.03486
63.487,19.2302,-0.04144173,0.05165122,1.0348
64.087,19.46402,-0.04234,0.04921219,1.03474
64.687,19.6947,-0.04233998,0.05035129,1.03467
65.287,19.92399,-0.04224288,0.05182374,1.0346
65.887,20.15168,-0.04265684,0.05393436,1.03453
66.487,20.37769,-0.04504309,0.05144059,1.03446
67.087,20.6019,-0.04362608,0.0537318,1.03439
67.687,20.8235,-0.04506856,0.05636712,1.03432
68.287,21.0445,-0.04367327,0.05659182,1.03424
68.887,21.26408,-0.0450593,0.05753887,1.03417
69.487,21.48264,-0.04461564,0.05765764,1.03409
70.087,21.69988,-0.04497005,0.05891077,1.03401
70.687,21.9161,-0.04352757,0.0594683,1.03393
71.287,22.13091,-0.04500831,0.06031895,1.03385
71.887,22.34486,-0.04496997,0.06208404,1.03376
72.487,22.55806,-0.04635981,0.06263512,1.03368
73.087,22.77107,-0.05251409,0.06360785,1.03359
73.687,22.9832,-0.04541007,0.06400813,1.0335
74.287,23.19429,-0.04671638,0.06360702,1.03341
74.887,23.4048,-0.0480466,0.06127232,1.03332
75.487,23.61453,-0.04640027,0.06194646,1.03323
76.087,23.824,-0.04752119,0.06398378,1.03314
76.687,24.03256,-0.04748846,0.06337433,1.03304
77.287,24.24095,-0.04753824,0.06318817,1.03294
77.887,24.44829,-0.04788248,0.06228023,1.03284
78.487,24.6558,-0.0476096,0.06342865,1.03274
79.087,24.86315,-0.04761951,0.06175833,1.03264
79.687,25.06972,-0.0476,0.06276047,1.03254
80.287,25.27619,-0.04889298,0.06186427,1.03244
80.887,25.4821,-0.04892,0.06220947,1.03233
81.487,25.68811,-0.04890995,0.06118932,1.03222
82.087,25.893,-0.05024004,0.06354299,1.03211
82.687,26.09785,-0.05122832,0.06363538,1.032
83.287,26.30108,-0.0492425,0.06436911,1.03189
83.887,26.50463,-0.04870816,0.06576616,1.03178
84.487,26.7079,-0.04998569,0.06281024,1.03166
85.087,26.91102,-0.0500391,0.06435493,1.03155
85.687,27.11386,-0.04990672,0.06332699,1.03143
86.287,27.3162,-0.05123,0.06532372,1.03131
86.887,27.5191,-0.05122,0.06420312,1.03119
87.487,27.7213,-0.052224,0.06537492,1.03107
88.087,27.92277,-0.05353385,0.06754637,1.03094
88.687,28.12385,-0.05205308,0.06717836,1.03082
89.287,28.3243,-0.05353527,0.06653804,1.03069
89.887,28.5249,-0.05255286,0.06700084,1.03056
90.487,28.72525,-0.05308688,0.06624951,1.03043
91.087,28.92418,-0.05307791,0.06795942,1.0303
91.687,29.12368,-0.05408092,0.06673938,1.03017
92.287,29.32293,-0.05330996,0.06757705,1.03004
92.887,29.52269,-0.05327659,0.0680646,1.0299
93.487,29.7216,-0.05329987,0.06888695,1.02977
94.087,29.9196,-0.05461671,0.07016972,1.02963
94.687,30.1169,-0.05320326,0.0701839,1.02949
95.287,30.31386,-0.05437506,0.06962614,1.02935
95.887,30.51078,-0.05441019,0.07236933,1.02921
96.487,30.70802,-0.05307373,0.07085698,1.02906
97.087,30.90568,-0.05303884,0.07045598,1.02892
97.687,31.1033,-0.05440326,0.06994184,1.02877
98.287,31.30061,-0.05715189,0.07181922,1.02862
98.887,31.49711,-0.05429344,0.07075572,1.02847
99.487,31.6931,-0.05659834,0.07056882,1.02832
100.087,31.88907,-0.05374248,0.07083024,1.02817
100.687,32.08549,-0.05482188,0.07342647,1.02802
101.287,32.28195,-0.05357043,0.07289732,1.02786
101.887,32.4782,-0.05604588,0.07476253,1.02771
102.487,32.6741,-0.05398153,0.07290847,1.02755
103.087,32.8703,-0.05540941,0.07415137,1.02739
103.687,33.06641,-0.05714048,0.07436091,1.02723
104.287,33.26197,-0.05605567,0.07470774,1.02707
104.887,33.45735,-0.05597737,0.07466693,1.02691
105.487,33.6522,-0.05475499,0.07514674,1.02674
106.087,33.8469,-0.05704468,0.07823823,1.02658
106.687,34.04181,-0.0573634,0.07667705,1.02641
107.287,34.23531,-0.05657542,0.07726924,1.02624
107.887,34.42985,-0.0558793,0.07903591,1.02607
108.487,34.6241,-0.05442705,0.07692771,1.0259
109.087,34.81835,-0.05657807,0.07762149,1.02573
109.687,35.01299,-0.05724976,0.08132597,1.02555
110.287,35.20738,-0.05649005,0.08052485,1.02538
110.887,35.40159,-0.05780857,0.07738416,1.0252
111.487,35.59677,-0.05650733,0.07951267,1.02502
112.087,35.7913,-0.05617908,0.08089414,1.02484
112.687,35.98598,-0.0564238,0.07915104,1.02466
113.287,36.18091,-0.05729196,0.08061809,1.02448
113.887,36.37563,-0.0572249,0.07894869,1.0243
114.487,36.56993,-0.05759478,0.08055295,1.02411
115.087,36.7649,-0.05593997,0.08057983,1.02393
115.687,36.95968,-0.05896804,0.08043333,1.02374
116.287,37.15506,-0.05508551,0.07994812,1.02355
116.887,37.3493,-0.05615781,0.07865413,1.02336
117.487,37.54419,-0.05916915,0.07945309,1.02317
118.087,37.73834,-0.05788382,0.08050564,1.02298
118.687,37.9332,-0.06010983,0.08254848,1.02278
119.287,38.1279,-0.05858605,0.082284,1.02259
119.887,38.32249,-0.05857991,0.08237808,1.02239
120.487,38.5173,-0.05849524,0.0834591,1.02219
121.087,38.71182,-0.05986993,0.08223906,1.02199
121.687,38.90654,-0.05964597,0.08387945,1.02179
122.287,39.10112,-0.06094444,0.08709701,1.02159
122.887,39.2954,-0.05820142,0.08541416,1.02139
123.487,39.48939,-0.0595595,0.08489533,1.02118
124.087,39.68311,-0.0570457,0.08485288,1.02098
124.687,39.8768,-0.05935458,0.08545753,1.02077
125.287,40.07055,-0.05957616,0.0852449,1.02056
125.887,40.2639,-0.05944143,0.08747559,1.02035
126.487,40.45755,-0.06081762,0.08824105,1.02014
127.087,40.6513,-0.05955997,0.08756458,1.01993
127.687,40.84536,-0.06122018,0.08830672,1.01972
128.287,41.03869,-0.06087852,0.08890445,1.0195
128.887,41.2316,-0.05956327,0.08802895,1.01928
129.487,41.42409,-0.05913158,0.09034859,1.01907
130.087,41.6167,-0.06037879,0.09185614,1.01885
130.687,41.80982,-0.06042604,0.0939101,1.01863
131.287,42.00327,-0.06002868,0.09292297,1.01841
131.887,42.19632,-0.05802032,0.09251164,1.01818
132.487,42.38872,-0.06196036,0.09204394,1.01796
133.087,42.5809,-0.06196986,0.09511129,1.01774
133.687,42.77346,-0.05887347,0.09660547,1.01751
134.287,42.96587,-0.06292172,0.0984625,1.01728
134.887,43.1588,-0.06394365,0.09787575,1.01705
135.487,43.35117,-0.06355913,0.09882699,1.01682
136.087,43.54356,-0.06467026,0.10232,1.01659
136.687,43.7358,-0.05895544,0.10166,1.01636
137.287,43.92785,-0.06397915,0.102,1.01613
137.887,44.1203,-0.06055339,0.10605,1.01589
138.487,44.31187,-0.06074865,0.10549,1.01565
139.087,44.5036,-0.06295345,0.1061,1.01542
139.687,44.69526,-0.06241914,0.1085,1.01518
140.287,44.88692,-0.0615408,0.10783,1.01494
140.887,45.07886,-0.06329002,0.11175,1.0147
141.487,45.27065,-0.0623,0.11284,1.01445
142.087,45.46206,-0.06360973,0.11466,1.01421
142.687,45.65357,-0.06351011,0.11883,1.01397
143.287,45.84518,-0.06316017,0.1225,1.01372
143.887,46.03653,-0.06340699,0.12498,1.01347
144.487,46.22787,-0.06538113,0.12616,1.01322
145.087,46.41943,-0.0640742,0.12807,1.01297
145.687,46.61085,-0.06449318,0.13312,1.01272
146.287,46.8029,-0.06351149,0.14051,1.01247
146.887,46.99432,-0.06216434,0.14313,1.01222
147.487,47.18594,-0.06552964,0.1487,1.01196
148.087,47.37737,-0.06439,0.15357,1.01171
148.687,47.5687,-0.06558973,0.15974,1.01145
149.287,47.7604,-0.06328596,0.16315,1.01119
149.887,47.95205,-0.06482522,0.16974,1.01093
150.487,48.14311,-0.06346231,0.17799,1.01067
151.087,48.33441,-0.06450805,0.1857,1.01041
151.687,48.52555,-0.06557584,0.19556,1.01015
152.287,48.71692,-0.06585261,0.20072,1.00988
152.887,48.90854,-0.06450124,0.2111,1.00962
153.487,49.1,-0.06547925,0.2207,1.00935
154.087,49.29118,-0.06509386,0.23225,1.00908
154.687,49.48198,-0.06536798,0.24368,1.00882
155.287,49.6723,-0.06417001,0.25846,1.00855
155.887,49.86356,-0.06548174,0.26875,1.00827
156.487,50.0548,-0.06314163,0.27939,1.008
157.087,50.24645,-0.0660769,0.29483,1.00773
157.687,50.43776,-0.06625208,0.30762,1.00745
158.287,50.629,-0.06392322,0.31936,1.00718
158.887,50.8204,-0.06393897,0.33148,1.0069
159.487,51.01128,-0.06460146,0.34246,1.00662
160.087,51.20196,-0.0646,0.34885,1.00634
160.687,51.39312,-0.06726672,0.3532,1.00606
161.287,51.58403,-0.06303526,0.35462,1.00578
161.887,51.7748,-0.06625006,0.34689,1.0055
162.487,51.9657,-0.06568283,0.33176,1.00522
163.087,52.15613,-0.06427914,0.30726,1.00493
163.687,52.34584,-0.0641076,0.27336,1.00465
164.287,52.53541,-0.06405963,0.23648,1.00436
164.887,52.7243,-0.06547427,0.20192,1.00407
165.487,52.91285,-0.06512665,0.17384,1.00378
166.087,53.1019,-0.06548002,0.14609,1.00349
166.687,53.2906,-0.06526,0.12982,1.0032
167.287,53.4794,-0.06526,0.11641,1.00291
167.887,53.6685,-0.06964983,0.10774,1.00261
168.487,53.85745,-0.06339761,0.10026,1.00232
169.087,54.04659,-0.06444475,0.09391399,1.00202
169.687,54.23587,-0.06406462,0.09141953,1.00172
170.287,54.42504,-0.0635067,0.08720436,1.00143
170.887,54.6147,-0.06613996,0.08729106,1.00113
171.487,54.80475,-0.06504716,0.08340236,1.00083
172.087,54.99484,-0.06297028,0.08551755,1.00053
172.687,55.1849,-0.06406511,0.08475441,1.00022
173.287,55.374,-0.06745002,0.0851048,0.99992
173.887,55.5632,-0.06843992,0.08798471,0.99961
174.487,55.75285,-0.06235889,0.08550643,0.99931
175.087,55.94301,-0.0628284,0.08653956,0.999
175.687,56.1336,-0.06359761,0.08755721,0.99869
176.287,56.3238,-0.06625026,0.08453127,0.99838
176.887,56.5138,-0.06239493,0.08495761,0.99807
177.487,56.70326,-0.06668995,0.08449519,0.99776
178.087,56.8927,-0.06402251,0.08521583,0.99745
178.687,57.08237,-0.06500883,0.08413916,0.99714
179.287,57.27242,-0.06724292,0.08575248,0.99682
179.887,57.4622,-0.06757011,0.08568532,0.99651
180.487,57.6519,-0.06592,0.0868615,0.99619
181.087,57.8414,-0.05966259,0.08514883,0.99587
181.687,58.03083,-0.06924017,0.08766922,0.99556
182.287,58.2199,-0.0679,0.08629664,0.99524
182.887,58.4093,-0.06592001,0.08534509,0.99492
183.487,58.59867,-0.06723,0.08520067,0.99459
184.087,58.7883,-0.06691,0.08480385,0.99427
184.687,58.978,-0.06558094,0.08534394,0.99395
185.287,59.1672,-0.06528783,0.08665833,0.99362
185.887,59.35637,-0.06581084,0.08583605,0.9933
186.487,59.5455,-0.06472466,0.08819926,0.99297
187.087,59.7351,-0.06614,0.08697718,0.99264
187.687,59.92456,-0.06613288,0.0873492,0.99231
188.287,60.11407,-0.0706419,0.08638404,0.99198
188.887,60.30365,-0.06942966,0.0857916,0.99165
189.487,60.4932,-0.06810466,0.086032,0.99132
190.087,60.6827,-0.06669,0.08600653,0.99099
190.687,60.87249,-0.06530409,0.0879058,0.99065
191.287,61.0613,-0.06554643,0.0880746,0.99032
191.887,61.2502,-0.06953949,0.08686028,0.98998
192.487,61.43878,-0.06690668,0.08671121,0.98965
193.087,61.6276,-0.06726318,0.08700819,0.98931
193.687,61.81645,-0.06824941,0.08692065,0.98897
194.287,62.00552,-0.06811994,0.08689319,0.98863
194.887,62.1947,-0.06656462,0.08915307,0.98829
195.487,62.3839,-0.06778001,0.08846837,0.98795
196.087,62.57356,-0.06752598,0.08804563,0.9876
196.687,62.7634,-0.0688321,0.08835446,0.98726
197.287,62.9532,-0.06781729,0.08908262,0.98692
197.887,63.14306,-0.06790007,0.08672895,0.98657
198.487,63.33249,-0.06779949,0.08639666,0.98622
199.087,63.52214,-0.06854999,0.08754784,0.98588
199.687,63.7109,-0.06854984,0.08579179,0.98553
200.287,63.90019,-0.06987001,0.08901253,0.98518
200.887,64.08971,-0.06856,0.08829889,0.98483
201.487,64.28023,-0.06763966,0.0862254,0.98448
202.087,64.46941,-0.06822,0.08516123,0.98412
202.687,64.6592,-0.06855,0.08685122,0.98377
203.287,64.84855,-0.07053,0.08623526,0.98342
203.887,65.038,-0.06859179,0.08493106,0.98306
204.487,65.2278,-0.06986176,0.08715048,0.9827
205.087,65.41768,-0.06953993,0.08550509,0.98235
205.687,65.60704,-0.06957153,0.08745147,0.98199
206.287,65.7962,-0.06955361,0.08504565,0.98163
206.887,65.98583,-0.07085617,0.08702465,0.98127
207.487,66.17563,-0.07029495,0.0868688,0.98091
208.087,66.36521,-0.06764411,0.08599146,0.98055
208.687,66.55471,-0.06900063,0.08483595,0.98018
209.287,66.74406,-0.06932,0.08608991,0.97982
209.887,66.93398,-0.06932092,0.08596481,0.97946
210.487,67.12386,-0.06931952,0.08422853,0.97909
211.087,67.3141,-0.06898634,0.08383667,0.97872
211.687,67.50411,-0.07031,0.08346631,0.97836
212.287,67.6939,-0.06932002,0.08276453,0.97799
212.887,67.88339,-0.06932,0.08213934,0.97762
213.487,68.07302,-0.06932,0.08395104,0.97725
214.087,68.2624,-0.07030053,0.0832961,0.97688
214.687,68.452,-0.07109285,0.08347264,0.97651
215.287,68.64185,-0.07029962,0.0830794,0.97613
215.887,68.8315,-0.06947606,0.0856783,0.97576
216.487,69.0211,-0.07255285,0.0854221,0.97539
217.087,69.21051,-0.07054682,0.08474657,0.97501
217.687,69.39973,-0.0706394,0.08508255,0.97464
218.287,69.589,-0.07163,0.08542859,0.97426
218.887,69.7787,-0.07031001,0.08662004,0.97388
219.487,69.96845,-0.07163,0.08417288,0.9735
220.087,70.15895,-0.07174028,0.08439267,0.97312
220.687,70.34895,-0.0702,0.08311835,0.97274
221.287,70.53912,-0.0702,0.08297256,0.97236
221.887,70.72846,-0.07053,0.08394783,0.97198
222.487,70.91824,-0.07184173,0.08339046,0.97159
223.087,71.10851,-0.07184,0.08327836,0.97121
223.687,71.29823,-0.07216999,0.08414994,0.97083
224.287,71.48788,-0.07172206,0.08519899,0.97044
224.887,71.67684,-0.0718435,0.0832255,0.97005
225.487,71.8659,-0.07052098,0.08400158,0.96967
226.087,72.0556,-0.07316026,0.08351086,0.96928
226.687,72.2454,-0.07184,0.08188715,0.96889
227.287,72.43567,-0.07053031,0.08127077,0.9685
227.887,72.62544,-0.07161755,0.08077308,0.96811
228.487,72.8155,-0.07284457,0.08203143,0.96772
229.087,73.0051,-0.07150161,0.0816924,0.96733
229.687,73.19456,-0.07019997,0.08218415,0.96693
230.287,73.3837,-0.07184071,0.08174667,0.96654
230.887,73.57343,-0.07185114,0.08220619,0.96614
231.487,73.76309,-0.07283,0.07805348,0.96575
232.087,73.95312,-0.07150623,0.0822722,0.96535
232.687,74.14283,-0.07283696,0.08309299,0.96495
233.287,74.33241,-0.07151036,0.08301862,0.96456
233.887,74.5225,-0.07053008,0.08038323,0.96416
234.487,74.71256,-0.07184,0.07668147,0.96376
235.087,74.90258,-0.07183982,0.07907186,0.96336
235.687,75.09302,-0.07183261,0.07877305,0.96296
236.287,75.2833,-0.07184,0.07852735,0.96255
236.887,75.47359,-0.07218758,0.0794261,0.96215
237.487,75.66363,-0.07119156,0.08048718,0.96175
238.087,75.85399,-0.07381811,0.07954141,0.96134
238.687,76.04405,-0.07120313,0.08031916,0.96094
239.287,76.2343,-0.07218636,0.07949655,0.96053
239.887,76.42477,-0.07116751,0.08018816,0.96013
240.487,76.615,-0.07118625,0.08012497,0.95972
241.087,76.80587,-0.07250991,0.07869394,0.95931
241.687,76.99673,-0.07119009,0.08002932,0.9589
242.287,77.18777,-0.07253518,0.08100314,0.95849
242.887,77.3788,-0.07250989,0.07937007,0.95808
243.487,77.57046,-0.07250996,0.07974472,0.95767
244.087,77.7615,-0.07315974,0.07879441,0.95726
244.687,77.95264,-0.07283003,0.08173795,0.95685
245.287,78.14369,-0.07283,0.0808919,0.95643
245.887,78.33419,-0.07282348,0.07875043,0.95602
246.487,78.52486,-0.07140012,0.07962239,0.9556
247.087,78.71565,-0.07304946,0.0814139,0.95519
247.687,78.9063,-0.07435676,0.08117966,0.95477
248.287,79.0973,-0.07206008,0.08138343,0.95436
248.887,79.28843,-0.07338,0.07887907,0.95394
249.487,79.47928,-0.07337624,0.08192023,0.95352
250.087,79.66977,-0.07470015,0.08218027,0.9531
250.687,79.8602,-0.0733776,0.08306221,0.95268
251.287,80.0503,-0.07238985,0.08206834,0.95226
251.887,80.24078,-0.07502411,0.08364537,0.95184
252.487,80.43156,-0.07502002,0.08336644,0.95142
253.087,80.62188,-0.07501999,0.08312712,0.95099
253.687,80.81282,-0.07469054,0.0802116,0.95057
254.287,81.00324,-0.07505557,0.08280961,0.95015
254.887,81.1932,-0.07502095,0.08274508,0.94972
255.487,81.3835,-0.07566786,0.0815717,0.94929
256.087,81.57285,-0.0740121,0.08516619,0.94887
256.687,81.7629,-0.07656328,0.08629162,0.94844
257.287,81.95375,-0.07527043,0.08296116,0.94801
257.887,82.14404,-0.07520554,0.08159548,0.94759
258.487,82.3356,-0.07655867,0.08367777,0.94716
259.087,82.52662,-0.07525007,0.08064677,0.94673
259.687,82.717,-0.0765719,0.08263174,0.9463
260.287,82.90825,-0.07918963,0.08069489,0.94587
260.887,83.0992,-0.07591411,0.0801198,0.94543
261.487,83.28998,-0.07722027,0.08167568,0.945
262.087,83.4803,-0.07722489,0.0817996,0.94457
262.687,83.66986,-0.07755001,0.08122124,0.94413
263.287,83.85976,-0.07755,0.08216556,0.9437
263.887,84.04979,-0.07886,0.08599064,0.94326
264.487,84.23946,-0.07755,0.08268577,0.94283
265.087,84.42962,-0.07918987,0.08347481,0.94239
265.687,84.62011,-0.07787862,0.08269745,0.94196
266.287,84.81058,-0.07919007,0.08361184,0.94152
266.887,85.00188,-0.07788,0.08184344,0.94108
267.487,85.19296,-0.08051028,0.08191193,0.94064
268.087,85.38386,-0.07830803,0.08041997,0.9402
268.687,85.5749,-0.08018057,0.0831215,0.93976
269.287,85.76539,-0.08018,0.08372387,0.93932
269.887,85.95566,-0.08026629,0.08231773,0.93888
270.487,86.1463,-0.08150384,0.08216428,0.93844
271.087,86.33735,-0.07750969,0.0808783,0.93799
271.687,86.52895,-0.0790995,0.08345919,0.93755
272.287,86.72009,-0.08106083,0.08190694,0.93711
272.887,86.91117,-0.07990566,0.08182995,0.93666
273.487,87.1018,-0.08041,0.08473708,0.93622
274.087,87.29255,-0.08041,0.08308839,0.93577
274.687,87.48343,-0.08139012,0.08476707,0.93533
275.287,87.67429,-0.08073,0.08462426,0.93488
275.887,87.8652,-0.08171,0.08305045,0.93443
276.487,88.05611,-0.08063857,0.08398025,0.93398
277.087,88.24615,-0.07942809,0.08448201,0.93353
277.687,88.4362,-0.08075946,0.0844337,0.93308
278.287,88.6267,-0.08194013,0.08425169,0.93263
278.887,88.8175,-0.08165604,0.08518862,0.93218
279.487,89.00856,-0.08161,0.08620784,0.93173
280.087,89.19964,-0.08161,0.08652601,0.93128
280.687,89.39033,-0.08161,0.08504105,0.93083
281.287,89.5814,-0.0806162,0.08625244,0.93038
281.887,89.77274,-0.08062002,0.08540914,0.92992
282.487,89.96375,-0.07996,0.08575618,0.92947
283.087,90.15465,-0.08128024,0.08582453,0.92901
283.687,90.34571,-0.08198888,0.08665332,0.92856
284.287,90.53698,-0.08062599,0.08599185,0.9281
284.887,90.7278,-0.08194003,0.08579473,0.92765
285.487,90.91905,-0.08192999,0.08682999,0.92719
286.087,91.1102,-0.08260018,0.0871318,0.92673
286.687,91.3019,-0.08061987,0.08253038,0.92628
287.287,91.49333,-0.08325,0.08628239,0.92582
287.887,91.6845,-0.08289205,0.08803879,0.92536
288.487,91.8758,-0.08325502,0.08567525,0.9249
289.087,92.06699,-0.08391012,0.08762322,0.92444
289.687,92.25836,-0.08350803,0.08925224,0.92398
290.287,92.44991,-0.08259,0.08719299,0.92352
290.887,92.64118,-0.0832503,0.08598652,0.92306
291.487,92.83251,-0.08403442,0.08847935,0.92259
292.087,93.02408,-0.08390993,0.08653948,0.92213
292.687,93.21522,-0.0832515,0.08688684,0.92167
293.287,93.407,-0.0849,0.08634054,0.9212
293.887,93.5982,-0.08617644,0.08576565,0.92074
294.487,93.79011,-0.08728437,0.0884483,0.92027
295.087,93.98191,-0.08837768,0.09202939,0.91981
295.687,94.17368,-0.08708905,0.08859641,0.91934
296.287,94.36638,-0.08613675,0.08562813,0.91888
296.887,94.5586,-0.08867582,0.08600065,0.91841
297.487,94.7516,-0.08068629,0.08511353,0.91794
298.087,94.94395,-0.07840879,0.08022184,0.91748
298.687,95.1357,-0.08137446,0.07698333,0.91701
299.287,95.32732,-0.08610479,0.08292609,0.91654
299.887,95.518,-0.08740411,0.08718055,0.91607
300.487,95.70934,-0.08742,0.08813828,0.9156
301.087,95.90122,-0.0861004,0.08896916,0.91513
301.687,96.0932,-0.08742,0.08535791,0.91466
302.287,96.28506,-0.08602162,0.08678729,0.91419
302.887,96.47666,-0.08675907,0.08615788,0.91372
303.487,96.6687,-0.08808804,0.08586103,0.91324
304.087,96.8612,-0.08823507,0.08813831,0.91277
304.687,97.0541,-0.0894,0.08704356,0.9123
305.287,97.24706,-0.0894,0.08668794,0.91183
305.887,97.43979,-0.0894,0.08995123,0.91135
306.487,97.63243,-0.0894,0.08697673,0.91088
307.087,97.8254,-0.0893988,0.08511701,0.9104
307.687,98.0183,-0.09013222,0.08663749,0.90993
308.287,98.21114,-0.08939805,0.08960052,0.90945
308.887,98.4038,-0.08907183,0.08774458,0.90898
309.487,98.59644,-0.09039,0.08692096,0.9085
310.087,98.78871,-0.09036198,0.08667656,0.90802
310.687,98.98088,-0.0903695,0.08761805,0.90754
311.287,99.1729,-0.09136992,0.09070629,0.90707
311.887,99.36541,-0.09006187,0.08877095,0.90659
312.487,99.55827,-0.09003148,0.0885925,0.90611
313.087,99.7513,-0.09105,0.08651988,0.90563
313.687,99.9443,-0.0910497,0.08915397,0.90515
314.287,100.137,-0.09202921,0.08873557,0.90467
314.887,100.33,-0.09071182,0.08951506,0.90419
315.487,100.522,-0.09235939,0.0887291,0.90371
316.087,100.715,-0.09151295,0.08906631,0.90323
316.687,100.9071,-0.09137,0.09056343,0.90275
317.287,101.1002,-0.09268022,0.08955902,0.90227
317.887,101.293,-0.09268,0.08888511,0.90178
318.487,101.4857,-0.0913629,0.0889048,0.9013
319.087,101.678,-0.09268,0.08967828,0.90082
319.687,101.871,-0.09261183,0.08884759,0.90033
320.287,102.063,-0.09264186,0.09016333,0.89985
320.887,102.256,-0.09479335,0.0865585,0.89936
321.487,102.448,-0.09268078,0.08783947,0.89888
322.087,102.642,-0.09399953,0.08874334,0.89839
322.687,102.835,-0.09344723,0.08772127,0.89791
323.287,103.027,-0.09565002,0.08604468,0.89742
323.887,103.22,-0.0956562,0.08982204,0.89694
324.487,103.413,-0.09566872,0.09060856,0.89645
325.087,103.606,-0.09565,0.09064455,0.89596
325.687,103.799,-0.09564884,0.08908291,0.89548
326.287,103.992,-0.09696,0.08961163,0.89499
326.887,104.184,-0.09663995,0.08954131,0.8945
327.487,104.377,-0.09762,0.08927126,0.89401
328.087,104.57,-0.09827954,0.09138031,0.89352
328.687,104.763,-0.09850214,0.09331808,0.89303
329.287,104.957,-0.09926,0.09221511,0.89254
329.887,105.15,-0.09926,0.09591458,0.89205
330.487,105.344,-0.09976451,0.09416712,0.89156
331.087,105.538,-0.09990171,0.09238711,0.89107
331.687,105.732,-0.09991998,0.09527242,0.89058
332.287,105.9248,-0.10124,0.09535363,0.89009
332.887,106.118,-0.10124,0.0946499,0.8896
333.487,106.31,-0.10124,0.0925104,0.88911
334.087,106.503,-0.10091,0.09524035,0.88861
334.687,106.696,-0.10419,0.09369984,0.88812
335.287,106.8891,-0.1042,0.0941855,0.88763
335.887,107.082,-0.10453,0.09565981,0.88714
336.487,107.276,-0.10453,0.09507246,0.88664
337.087,107.469,-0.10617,0.09415084,0.88615
337.687,107.662,-0.10585,0.09371982,0.88565
338.287,107.855,-0.10716,0.09521717,0.88516
338.887,108.049,-0.10848,0.09665652,0.88466
339.487,108.243,-0.10978,0.09443459,0.88417
340.087,108.437,-0.10979,0.09406093,0.88367
340.687,108.63,-0.10979,0.09212004,0.88318
341.287,108.824,-0.11103,0.0946711,0.88268
341.887,109.017,-0.1088,0.09773601,0.88219
342.487,109.21,-0.1122,0.09537104,0.88169
343.087,109.404,-0.11243,0.09604119,0.88119
343.687,109.598,-0.11291,0.09689821,0.8807
344.287,109.791,-0.11373,0.09457704,0.8802
344.887,109.984,-0.11541,0.09281343,0.8797
345.487,110.176,-0.11639,0.09487771,0.8792
346.087,110.37,-0.11638,0.09434154,0.8787
346.687,110.564,-0.11902,0.09657801,0.87821
347.287,110.758,-0.11863,0.09594119,0.87771
347.887,110.953,-0.12034,0.09463036,0.87721
348.487,111.146,-0.12066,0.09745395,0.87671
349.087,111.34,-0.12263,0.09720202,0.87621
349.687,111.534,-0.12256,0.09721666,0.87571
350.287,111.728,-0.12357,0.09586006,0.87521
350.887,111.9223,-0.12691,0.096129,0.87471
351.487,112.116,-0.12591,0.09818189,0.87421
352.087,112.31,-0.1279,0.09905568,0.87371
352.687,112.504,-0.12955,0.10076,0.8732
353.287,112.697,-0.13117,0.09955689,0.8727
353.887,112.891,-0.13023,0.09706391,0.8722
354.487,113.0855,-0.13364,0.1018,0.8717
355.087,113.28,-0.13611,0.09784566,0.8712
355.687,113.474,-0.13764,0.09873556,0.8707
356.287,113.669,-0.13974,0.1007,0.87019
356.887,113.864,-0.14106,0.0991604,0.86969
357.487,114.058,-0.14237,0.10024,0.86919
358.087,114.253,-0.14238,0.09845953,0.86868
358.687,114.447,-0.14504,0.09780997,0.86818
359.287,114.642,-0.14863,0.09873304,0.86768
359.887,114.837,-0.14863,0.09664906,0.86717
360.487,115.031,-0.14994,0.09587254,0.86667
361.087,115.225,-0.15182,0.09575889,0.86616
361.687,115.419,-0.15125,0.09709048,0.86566
362.287,115.612,-0.15416,0.09571896,0.86515
362.887,115.807,-0.1552,0.09832077,0.86465
363.487,116.002,-0.15652,0.09632392,0.86414
364.087,116.196,-0.15915,0.09724305,0.86364
364.687,116.391,-0.16096,0.09577172,0.86313
365.287,116.585,-0.16365,0.09429402,0.86263
365.887,116.78,-0.16442,0.09291133,0.86212
366.487,116.974,-0.16705,0.09486845,0.86162
367.087,117.169,-0.16968,0.09476753,0.86111
367.687,117.364,-0.1718,0.09418461,0.8606
368.287,117.559,-0.17363,0.09015874,0.8601
368.887,117.7539,-0.17518,0.09238891,0.85959
369.487,117.949,-0.17857,0.0943338,0.85908
370.087,118.145,-0.17956,0.09183046,0.85857
370.687,118.34,-0.17992,0.09036338,0.85807
371.287,118.536,-0.18382,0.09154631,0.85756
371.887,118.732,-0.18644,0.09250585,0.85705
372.487,118.928,-0.19108,0.09259317,0.85654
373.087,119.124,-0.19324,0.08992295,0.85604
373.687,119.32,-0.19765,0.0922872,0.85553
374.287,119.515,-0.20028,0.09150288,0.85502
374.887,119.711,-0.20423,0.09297905,0.85451
375.487,119.907,-0.20555,0.09247009,0.854
376.087,120.103,-0.20819,0.09033335,0.85349
376.687,120.299,-0.21111,0.08754891,0.85298
377.287,120.4944,-0.2148,0.08945142,0.85248
377.887,120.69,-0.21844,0.08472848,0.85197
378.487,120.886,-0.22102,0.08665239,0.85146
379.087,121.082,-0.22496,0.08850179,0.85095
379.687,121.277,-0.22741,0.08823056,0.85044
380.287,121.473,-0.22899,0.08682174,0.84993
380.887,121.668,-0.23331,0.08785392,0.84942
381.487,121.864,-0.23602,0.08563604,0.84891
382.087,122.059,-0.24131,0.08928019,0.8484
382.687,122.255,-0.24378,0.08670042,0.84789
383.287,122.45,-0.24657,0.08355148,0.84738
383.887,122.6464,-0.25057,0.08397791,0.84687
384.487,122.842,-0.25447,0.08353804,0.84636
385.087,123.037,-0.25709,0.08264067,0.84584
385.687,123.232,-0.26138,0.08332997,0.84533
386.287,123.427,-0.26632,0.08290813,0.84482
386.887,123.623,-0.26816,0.08294134,0.84431
387.487,123.818,-0.27147,0.0827072,0.8438
388.087,124.0139,-0.27652,0.08449731,0.84329
388.687,124.209,-0.27915,0.08137078,0.84278
389.287,124.406,-0.28442,0.07959444,0.84227
389.887,124.602,-0.28755,0.07982459,0.84175
390.487,124.798,-0.29244,0.08110548,0.84124
391.087,124.994,-0.29647,0.08022696,0.84073
391.687,125.189,-0.30043,0.08027672,0.84022
392.287,125.386,-0.30538,0.0794567,0.83971
392.887,125.582,-0.31037,0.08151621,0.8392
393.487,125.778,-0.31547,0.08517765,0.83868
394.087,125.974,-0.31964,0.08452122,0.83817
394.687,126.17,-0.32571,0.08503904,0.83766
395.287,126.366,-0.32996,0.08802456,0.83715
395.887,126.5616,-0.3377,0.08759883,0.83663
396.487,126.758,-0.34304,0.09141608,0.83612
397.087,126.954,-0.34759,0.08958544,0.83561
397.687,127.151,-0.35516,0.08449125,0.8351
398.287,127.348,-0.36075,0.08625031,0.83458
398.887,127.544,-0.36794,0.08992966,0.83407
399.487,127.7402,-0.37413,0.08806596,0.83356
400.087,127.937,-0.38273,0.09131191,0.83305
400.687,128.134,-0.38893,0.09231507,0.83253
401.287,128.331,-0.39755,0.09215406,0.83202
401.887,128.527,-0.40525,0.09422991,0.83151
402.487,128.723,-0.41411,0.0945219,0.83099
403.087,128.919,-0.42317,0.10006,0.83048
403.687,129.115,-0.43185,0.10082,0.82997
404.287,129.311,-0.44209,0.10581,0.82946
404.887,129.507,-0.45047,0.10862,0.82894
405.487,129.703,-0.45934,0.10596,0.82843
406.087,129.8985,-0.46977,0.11025,0.82792
406.687,130.094,-0.47999,0.11209,0.8274
407.287,130.291,-0.49172,0.1163,0.82689
407.887,130.488,-0.5013,0.1161,0.82638
408.487,130.684,-0.51412,0.12103,0.82586
409.087,130.881,-0.52592,0.12696,0.82535
409.687,131.077,-0.53934,0.12981,0.82484
410.287,131.2734,-0.55243,0.13378,0.82432
410.887,131.47,-0.56669,0.13729,0.82381
411.487,131.666,-0.58172,0.14535,0.8233
412.087,131.863,-0.59658,0.14771,0.82278
412.687,132.06,-0.61253,0.1553,0.82227
413.287,132.256,-0.62742,0.16336,0.82176
413.887,132.453,-0.64537,0.16598,0.82124
414.487,132.65,-0.66188,0.17191,0.82073
415.087,132.847,-0.68109,0.17637,0.82022
415.687,133.045,-0.69992,0.17929,0.8197
416.287,133.243,-0.71995,0.18496,0.81919
416.887,133.44,-0.73961,0.18906,0.81868
417.487,133.638,-0.76182,0.19319,0.81816
418.087,133.834,-0.78535,0.19633,0.81765
418.687,134.031,-0.80986,0.20046,0.81714
419.287,134.228,-0.83324,0.2016,0.81662
419.887,134.425,-0.85845,0.2043,0.81611
420.487,134.621,-0.88503,0.20497,0.8156
421.087,134.817,-0.91297,0.20978,0.81508
421.687,135.014,-0.94195,0.21587,0.81457
422.287,135.211,-0.9724,0.21879,0.81406
422.887,135.409,-1.00261,0.22512,0.81354
423.487,135.607,-1.03617,0.22942,0.81303
424.087,135.804,-1.07124,0.23828,0.81252
424.687,136.002,-1.10625,0.24324,0.812
425.287,136.198,-1.1428,0.24679,0.81149
425.887,136.395,-1.18117,0.24861,0.81098
426.487,136.592,-1.22351,0.2518,0.81047
427.087,136.789,-1.26746,0.25437,0.80995
427.687,136.985,-1.31092,0.2547,0.80944
428.287,137.183,-1.35655,0.2574,0.80893
428.887,137.379,-1.40458,0.25642,0.80841
429.487,137.576,-1.45381,0.25984,0.8079
430.087,137.773,-1.50621,0.25995,0.80739
430.687,137.97,-1.55899,0.27198,0.80688
431.287,138.168,-1.615,0.27331,0.80636
431.887,138.366,-1.67213,0.27811,0.80585
432.487,138.564,-1.7314,0.27706,0.80534
433.087,138.762,-1.79148,0.27499,0.80483
433.687,138.96,-1.8537,0.27217,0.80432
434.287,139.158,-1.92085,0.26541,0.8038
434.887,139.356,-1.98838,0.26058,0.80329
435.487,139.554,-2.05582,0.24941,0.80278
436.087,139.753,-2.12604,0.2412,0.80227
436.687,139.951,-2.19813,0.23097,0.80176
437.287,140.149,-2.27281,0.22332,0.80124
437.887,140.348,-2.34684,0.21106,0.80073
438.487,140.546,-2.42318,0.19607,0.80022
439.087,140.745,-2.49873,0.17936,0.79971
439.687,140.942,-2.57522,0.16105,0.7992
440.287,141.14,-2.65404,0.14049,0.79869
440.887,141.337,-2.73181,0.12154,0.79818
441.487,141.534,-2.80832,0.09713899,0.79766
442.087,141.731,-2.88736,0.06986663,0.79715
442.687,141.927,-2.96503,0.04089195,0.79664
443.287,142.125,-3.04143,0.01149213,0.79613
443.887,142.322,-3.11558,-0.0181443,0.79562
444.487,142.519,-3.18943,-0.052891,0.79511
445.087,142.717,-3.26264,-0.08524334,0.7946
445.687,142.914,-3.33071,-0.12264,0.79409
446.287,143.111,-3.39696,-0.15657,0.79358
446.887,143.308,-3.46147,-0.19111,0.79307
447.487,143.505,-3.52213,-0.22723,0.79256
448.087,143.702,-3.58124,-0.25924,0.79205
448.687,143.901,-3.6361,-0.29024,0.79154
449.287,144.099,-3.68698,-0.32327,0.79103
449.887,144.297,-3.73546,-0.34548,0.79052
450.487,144.494,-3.77956,-0.37018,0.79001
451.087,144.692,-3.81864,-0.39001,0.7895
451.687,144.89,-3.85387,-0.40619,0.78899
452.287,145.088,-3.88869,-0.41252,0.78848
452.887,145.286,-3.91781,-0.42111,0.78798
453.487,145.484,-3.94419,-0.42052,0.78747
454.087,145.682,-3.96747,-0.41645,0.78696
454.687,145.8813,-3.98954,-0.40471,0.78645
455.287,146.081,-4.00737,-0.38774,0.78594
455.887,146.28,-4.02322,-0.36912,0.78543
456.487,146.4788,-4.03613,-0.34425,0.78493
457.087,146.6775,-4.05127,-0.31571,0.78442
457.687,146.876,-4.06109,-0.28983,0.78391
458.287,147.075,-4.07236,-0.25767,0.7834
458.887,147.274,-4.08123,-0.22646,0.7829
459.487,147.472,-4.08998,-0.19137,0.78239
460.087,147.67,-4.09708,-0.15779,0.78188
460.687,147.869,-4.10413,-0.12356,0.78137
461.287,148.0684,-4.11101,-0.09151112,0.78087
461.887,148.267,-4.11578,-0.06091887,0.78036
462.487,148.466,-4.12274,-0.03723237,0.77985
463.087,148.665,-4.12798,-0.01983573,0.77935
463.687,148.864,-4.13193,-0.00365742,0.77884
464.287,149.063,-4.13547,0.003972767,0.77834
464.887,149.262,-4.13847,0.008224194,0.77783
465.487,149.462,-4.14241,0.01270836,0.77732
466.087,149.662,-4.14438,0.01363319,0.77682
466.687,149.861,-4.1457,0.01527776,0.77631
467.287,150.0603,-4.14833,0.01297377,0.77581
467.887,150.259,-4.15097,0.01179923,0.7753
468.487,150.4582,-4.15129,0.008273094,0.7748
469.087,150.6576,-4.15261,0.0075481,0.77429
469.687,150.857,-4.15426,0.003329092,0.77379
470.287,151.056,-4.15426,0.003689772,0.77329
470.887,151.255,-4.15557,0.003593796,0.77278
471.487,151.454,-4.15473,-0.0008790544,0.77228
472.087,151.653,-4.15426,-0.00246917,0.77178
472.687,151.851,-4.15426,-0.00452045,0.77127
473.287,152.049,-4.15426,-0.01211553,0.77077
473.887,152.247,-4.15558,-0.01832599,0.77027
474.487,152.4455,-4.15426,-0.0202971,0.76976
475.087,152.6444,-4.15426,-0.01399977,0.76926
475.687,152.844,-4.15426,-0.01284377,0.76876
476.287,153.043,-4.15656,-0.0140405,0.76826
476.887,153.242,-4.15414,-0.01688553,0.76775
477.487,153.442,-4.15394,-0.01423573,0.76725
478.087,153.641,-4.15589,-0.0145618,0.76675
478.687,153.841,-4.15393,-0.01185917,0.76625
479.287,154.04,-4.1559,-0.01038233,0.76575
479.887,154.24,-4.15426,-0.01019739,0.76525
480.487,154.44,-4.15426,-0.01339584,0.76475
481.087,154.641,-4.15428,-0.01613346,0.76425
481.687,154.84,-4.15392,-0.01170504,0.76375
482.287,155.04,-4.1536,-0.01461453,0.76325
482.887,155.24,-4.1536,-0.01384474,0.76275
483.487,155.439,-4.15491,-0.01250523,0.76225
484.087,155.639,-4.1536,-0.01573293,0.76175
484.687,155.838,-4.1536,-0.01465462,0.76125
485.287,156.0368,-4.15491,-0.01159773,0.76075
485.887,156.235,-4.15491,-0.01213879,0.76025
486.487,156.433,-4.15442,-0.0132383,0.75975
487.087,156.632,-4.15426,-0.01460291,0.75926
487.687,156.831,-4.15426,-0.01496516,0.75876
488.287,157.031,-4.15297,-0.01561161,0.75826
488.887,157.23,-4.15492,-0.01277631,0.75776
489.487,157.429,-4.15261,-0.01352599,0.75727
490.087,157.629,-4.15491,-0.0112003,0.75677
490.687,157.828,-4.15273,-0.01171101,0.75627
491.287,158.027,-4.15278,-0.0124153,0.75578
491.887,158.227,-4.15359,-0.01088304,0.75528
492.487,158.426,-4.15308,-0.01134268,0.75478
493.087,158.626,-4.15327,-0.01202722,0.75429
493.687,158.826,-4.15392,-0.009920179,0.75379
494.287,159.026,-4.15524,-0.006799451,0.7533
494.887,159.226,-4.15392,-0.01224894,0.7528
495.487,159.426,-4.15326,-0.009209046,0.75231
496.087,159.626,-4.15326,-0.01082241,0.75181
496.687,159.825,-4.15373,-0.01215233,0.75132
497.287,160.025,-4.15326,-0.01422078,0.75083
497.887,160.225,-4.15289,-0.01222087,0.75033
498.487,160.426,-4.15323,-0.01099722,0.74984
499.087,160.628,-4.15326,-0.009139926,0.74935
499.687,160.8282,-4.15186,-0.004718868,0.74885
500.287,161.028,-4.15228,-0.007854322,0.74836
500.887,161.228,-4.15214,-0.009079216,0.74787
501.487,161.427,-4.15221,-0.005310289,0.74738
502.087,161.6272,-4.15097,-0.008699489,0.74689
502.687,161.827,-4.15097,-0.00736777,0.74639
503.287,162.027,-4.15259,-0.009813013,0.7459
503.887,162.228,-4.15129,-0.009978635,0.74541
504.487,162.428,-4.15194,-0.01059652,0.74492
505.087,162.628,-4.15162,-0.00938244,0.74443
505.687,162.829,-4.15162,-0.00618687,0.74394
506.287,163.03,-4.15222,-0.00674636,0.74345
506.887,163.231,-4.15064,-0.005273611,0.74296
507.487,163.432,-4.15195,-0.007364451,0.74247
508.087,163.633,-4.15064,-0.008567672,0.74199
508.687,163.833,-4.15064,-0.005499342,0.7415
509.287,164.033,-4.15064,-0.009066936,0.74101
509.887,164.2321,-4.15195,-0.009594849,0.74052
510.487,164.431,-4.1493,-0.01205581,0.74003
511.087,164.6302,-4.15066,-0.01369549,0.73955
511.687,164.831,-4.15129,-0.01260628,0.73906
512.287,165.032,-4.15129,-0.009875576,0.73857
512.887,165.232,-4.15157,-0.01371447,0.73809
513.487,165.433,-4.14899,-0.009927704,0.7376
514.087,165.632,-4.15073,-0.00747347,0.73711
514.687,165.832,-4.15097,-0.009334893,0.73663
515.287,166.031,-4.15024,-0.008952664,0.73614
515.887,166.231,-4.15002,-0.006061932,0.73566
516.487,166.431,-4.1503,-0.008241019,0.73517
517.087,166.632,-4.14967,-0.004097961,0.73469
517.687,166.832,-4.14965,-0.01048088,0.73421
518.287,167.033,-4.15096,-0.005026486,0.73372
518.887,167.234,-4.14965,-0.004802,0.73324
519.487,167.435,-4.14965,-0.00656026,0.73276
520.087,167.636,-4.14838,-0.00803706,0.73227
520.687,167.837,-4.14965,-0.00760287,0.73179
521.287,168.038,-4.14895,-0.01090736,0.73131
521.887,168.239,-4.14998,-0.01102172,0.73083
522.487,168.44,-4.14866,-0.00976852,0.73035
523.087,168.64,-4.15096,-0.00847131,0.72987
523.687,168.84,-4.15095,-0.008857437,0.72939
524.287,169.041,-4.15129,-0.01147874,0.72891
524.887,169.241,-4.14998,-0.01247651,0.72843
525.487,169.442,-4.15096,-0.01262318,0.72795
526.087,169.643,-4.15129,-0.009548153,0.72747
526.687,169.845,-4.14995,-0.01056901,0.72699
527.287,170.047,-4.15108,-0.01069308,0.72651
527.887,170.248,-4.14866,-0.007250771,0.72603
528.487,170.45,-4.14866,-0.00982918,0.72555
529.087,170.651,-4.15001,-0.008711718,0.72507
529.687,170.853,-4.14866,-0.004901775,0.7246
530.287,171.053,-4.14866,-0.01040515,0.72412
530.887,171.253,-4.14847,-0.006812218,0.72364
531.487,171.453,-4.14866,-0.0117332,0.72317
532.087,171.653,-4.14857,-0.01269603,0.72269
532.687,171.853,-4.14767,-0.0103545,0.72222
533.287,172.0542,-4.14897,-0.00825315,0.72174
533.887,172.255,-4.14766,-0.00513672,0.72127
534.487,172.456,-4.14708,-0.004049001,0.72079
535.087,172.658,-4.14731,-0.004170076,0.72032
535.687,172.86,-4.14965,-0.00602374,0.71984
536.287,173.0621,-4.14899,-0.003397955,0.71937
536.887,173.265,-4.1469,-0.002097765,0.7189
537.487,173.467,-4.14636,-0.001254498,0.71842
538.087,173.671,-4.14765,-0.004051599,0.71795
538.687,173.8735,-4.14702,-0.002039267,0.71748
539.287,174.075,-4.14739,-0.00230859,0.71701
539.887,174.275,-4.14603,-0.0002365329,0.71654
540.487,174.475,-4.14794,-0.0009712718,0.71607
541.087,174.675,-4.14738,-0.001910215,0.7156
541.687,174.8766,-4.148,0.000561593,0.71513
542.287,175.0772,-4.14669,-0.001783162,0.71466
542.887,175.2777,-4.14667,0.001839589,0.71419
543.487,175.479,-4.14668,-0.000472658,0.71372
544.087,175.68,-4.14767,-0.0008372986,0.71325
544.687,175.882,-4.14669,0.002190769,0.71278
545.287,176.084,-4.14781,0.00288461,0.71231
545.887,176.285,-4.14701,0.003906397,0.71184
546.487,176.486,-4.1457,0.002153847,0.71138
547.087,176.687,-4.14723,0.001245562,0.71091
547.687,176.888,-4.14603,0.001848522,0.71044
548.287,177.0894,-4.1457,0.002050389,0.70998
548.887,177.292,-4.14645,0.002780569,0.70951
549.487,177.494,-4.14636,0.005109644,0.70905
550.087,177.696,-4.14568,0.002438508,0.70858
550.687,177.898,-4.14504,0.00306883,0.70812
551.287,178.099,-4.14438,-0.001824756,0.70765
551.887,178.3,-4.1457,0.00160491,0.70719
552.487,178.501,-4.14536,0.00229517,0.70673
553.087,178.703,-4.1451,0.001692797,0.70626
553.687,178.9045,-4.14405,0.002580788,0.7058
554.287,179.105,-4.14537,0.00222086,0.70534
554.887,179.305,-4.14438,0.00154197,0.70488
555.487,179.505,-4.14438,0.0028921,0.70442
556.087,179.706,-4.14569,-0.000872638,0.70395
556.687,179.907,-4.14543,-0.000437541,0.70349
557.287,180.109,-4.14602,0.002075102,0.70303
557.887,180.312,-4.14405,0.00300917,0.70257
558.487,180.515,-4.1448,0.003476488,0.70211
559.087,180.718,-4.14405,0.00641271,0.70166
559.687,180.921,-4.14405,0.00639562,0.7012
560.287,181.124,-4.14405,0.00321001,0.70074
560.887,181.327,-4.144,0.0005179972,0.70028
561.487,181.528,-4.14438,0.003183379,0.69982
562.087,181.73,-4.14438,0.00418867,0.69937
562.687,181.931,-4.14568,0.004131613,0.69891
563.287,182.133,-4.14443,0.000203212,0.69845
563.887,182.335,-4.14438,0.0001292245,0.698
564.487,182.538,-4.14438,-0.00282339,0.69754
565.087,182.74,-4.14242,0.000118538,0.69709
565.687,182.942,-4.14375,-1.124644e-05,0.69663
566.287,183.144,-4.14371,0.0005289171,0.69618
566.887,183.346,-4.14438,0.00440105,0.69573
567.487,183.548,-4.14443,0.001194943,0.69527
568.087,183.7503,-4.14288,0.00106502,0.69482
568.687,183.953,-4.14307,-0.001140123,0.69437
569.287,184.156,-4.14438,0.002154835,0.69391
569.887,184.36,-4.14241,0.006884198,0.69346
570.487,184.563,-4.14372,0.00156456,0.69301
571.087,184.765,-4.14372,0.00793964,0.69256
571.687,184.968,-4.14372,0.006247164,0.69211
572.287,185.17,-4.14346,0.006100751,0.69166
572.887,185.371,-4.14438,0.002805551,0.69121
573.487,185.573,-4.14438,0.004465608,0.69076
574.087,185.775,-4.14305,0.0001530187,0.69031
574.687,185.979,-4.14438,0.004998919,0.68986
575.287,186.1818,-4.14398,0.00678696,0.68942
575.887,186.384,-4.14373,0.008915097,0.68897
576.487,186.586,-4.14275,0.002738237,0.68852
577.087,186.788,-4.14208,0.00749344,0.68808
577.687,186.99,-4.14339,0.00722123,0.68763
578.287,187.193,-4.14274,0.01001638,0.68718
578.887,187.396,-4.14273,0.00930004,0.68674
579.487,187.598,-4.14273,0.005660617,0.68629
580.087,187.8,-4.14274,0.009625605,0.68585
580.687,188.002,-4.14171,0.009334333,0.6854
581.287,188.205,-4.14207,0.00796871,0.68496
581.887,188.408,-4.14241,0.005993514,0.68452
582.487,188.61,-4.14114,0.005952821,0.68408
583.087,188.813,-4.14109,0.005435724,0.68363
583.687,189.016,-4.14109,0.007744298,0.68319
584.287,189.218,-4.14109,0.00888482,0.68275
584.887,189.42,-4.1401,0.00655812,0.68231
585.487,189.622,-4.13879,0.00852166,0.68187
586.087,189.8245,-4.14011,0.008936207,0.68143
586.687,190.028,-4.13916,0.01003026,0.68099
587.287,190.231,-4.14044,0.00605825,0.68055
587.887,190.434,-4.13945,0.008882661,0.68011
588.487,190.637,-4.14077,0.00578147,0.67967
589.087,190.84,-4.14044,0.0123438,0.67923
589.687,191.043,-4.13978,0.01107814,0.6788
590.287,191.247,-4.14043,0.01338499,0.67836
590.887,191.449,-4.13945,0.01052093,0.67792
591.487,191.6508,-4.14076,0.01549507,0.67749
592.087,191.8527,-4.14043,0.01580799,0.67705
592.687,192.055,-4.1417,0.01205827,0.67662
593.287,192.258,-4.14076,0.00951735,0.67618
593.887,192.461,-4.14109,0.0152965,0.67575
594.487,192.665,-4.14109,0.01198567,0.67531
595.087,192.869,-4.14109,0.01272746,0.67488
595.687,193.073,-4.14109,0.01219618,0.67445
596.287,193.276,-4.14043,0.01423524,0.67402
596.887,193.479,-4.13978,0.01223092,0.67358
597.487,193.683,-4.14077,0.01036037,0.67315
598.087,193.886,-4.13872,0.007875982,0.67272
598.687,194.088,-4.1388,0.00959398,0.67229
599.287,194.29,-4.1401,0.01373824,0.67186
599.887,194.493,-4.13988,0.01320722,0.67143
600.487,194.696,-4.13846,0.01154646,0.671
601.087,194.9,-4.13978,0.01315788,0.67057
601.687,195.103,-4.13945,0.01016411,0.67014
602.287,195.306,-4.13813,0.0099578,0.66972
602.887,195.509,-4.13813,0.00811834,0.66929
603.487,195.713,-4.13846,0.009658688,0.66886
604.087,195.916,-4.13945,0.00856391,0.66843
604.687,196.12,-4.13813,0.009742966,0.66801
605.287,196.325,-4.13813,0.01046961,0.66758
605.887,196.527,-4.13846,0.006597986,0.66716
606.487,196.73,-4.13714,0.00539638,0.66673
607.087,196.933,-4.13813,0.006716849,0.66631
607.687,197.135,-4.13813,0.009811149,0.66589
608.287,197.338,-4.13813,0.01135175,0.66546
608.887,197.541,-4.13813,0.01163579,0.66504
609.487,197.745,-4.13714,0.006551632,0.66462
610.087,197.948,-4.13714,0.009428023,0.6642
610.687,198.152,-4.13714,0.006322213,0.66377
611.287,198.356,-4.13754,0.008548283,0.66335
611.887,198.56,-4.13747,0.01106726,0.66293
612.487,198.763,-4.13648,0.0113467,0.66251
613.087,198.967,-4.13747,0.01465254,0.66209
613.687,199.17,-4.13615,0.01185338,0.66167
614.287,199.374,-4.13614,0.01441501,0.66126
614.887,199.578,-4.13652,0.01408539,0.66084
615.487,199.781,-4.13549,0.01363396,0.66042
616.087,199.985,-4.13681,0.01323731,0.66
616.687,200.188,-4.13713,0.01016345,0.65959
617.287,200.393,-4.13587,0.01204286,0.65917
617.887,200.5974,-4.13583,0.01079144,0.65875
618.487,200.802,-4.1345,0.01114739,0.65834
619.087,201.007,-4.13714,0.01388419,0.65792
619.687,201.211,-4.13582,0.01729492,0.65751
620.287,201.415,-4.1345,0.01521801,0.6571
620.887,201.618,-4.13582,0.01536552,0.65668
621.487,201.821,-4.13516,0.01370778,0.65627
622.087,202.026,-4.13509,0.01214624,0.65586
622.687,202.23,-4.13549,0.01161398,0.65545
623.287,202.434,-4.13549,0.01334625,0.65503
623.887,202.639,-4.13483,0.00872705,0.65462
624.487,202.843,-4.13483,0.01256453,0.65421
625.087,203.048,-4.13549,0.01246296,0.6538
625.687,203.252,-4.13516,0.01549251,0.65339
626.287,203.456,-4.13648,0.01447627,0.65298
626.887,203.66,-4.13516,0.01305206,0.65258
627.487,203.865,-4.13451,0.009791171,0.65217
628.087,204.07,-4.13418,0.01243336,0.65176
628.687,204.275,-4.13424,0.01167611,0.65135
629.287,204.48,-4.13287,0.01324595,0.65095
629.887,204.684,-4.13418,0.01148555,0.65054
630.487,204.8869,-4.13418,0.0059017,0.65013
631.087,205.09,-4.13417,0.01284721,0.64973
631.687,205.293,-4.1355,0.009316709,0.64932
632.287,205.496,-4.13418,0.009549024,0.64892
632.887,205.7,-4.13386,0.01267283,0.64852
633.487,205.904,-4.13387,0.01068506,0.64811
634.087,206.108,-4.13285,0.01299931,0.64771
634.687,206.312,-4.13417,0.01375877,0.64731
635.287,206.516,-4.13484,0.01578991,0.64691
635.887,206.719,-4.13484,0.01668881,0.64651
636.487,206.922,-4.13484,0.01981237,0.6461
637.087,207.1248,-4.13353,0.01714039,0.6457
637.687,207.328,-4.1336,0.01545006,0.6453
638.287,207.531,-4.13434,0.01840963,0.64491
638.887,207.736,-4.13418,0.01600668,0.64451
639.487,207.94,-4.13287,0.01580094,0.64411
640.087,208.144,-4.13352,0.01703981,0.64371
640.687,208.349,-4.13286,0.01532164,0.64331
641.287,208.5531,-4.13296,0.01549757,0.64292
641.887,208.758,-4.1322,0.01424703,0.64252
642.487,208.963,-4.1322,0.011764,0.64212
643.087,209.167,-4.1322,0.01203557,0.64173
643.687,209.373,-4.1322,0.009417621,0.64133
644.287,209.578,-4.1322,0.00704535,0.64094
644.887,209.783,-4.13293,0.008707499,0.64055
645.487,209.989,-4.13154,0.01118125,0.64015