File: 01_Data/Vinyl_Tile/MCC/Vinyl_Tile_MCC_30K_min_211104_R3.txt
Sample ID:	C:\MCC\MCC Cal\Test\Vinyl_Tile_MCC_30K_min_211104_R4.txt
Sample Weight (mg):	4.68
Heating Rate (C/s):	0.5
Combustor Temp (C):	900
N2 Flow Rate (cc/min):	80
O2 Flow Rate (cc/min):	20
Calibration File:	C:\MCC\MCC Cal\Coeff1 JN10440_30_210304.txt.txt
T Correction Coefficients:	0	1.024463	0
Time Shift (s):	14
*
Time (s)	Temperature (C)	N2 flow rate (cc/min)	O2 flow rate (cc/min)	Flow Rate (cc/min)	Oxygen (%)	HRR (W/g)	Heating rate (C/s)
-0.001	106.498	80.015	19.998	103.056	20.176	0.206	0.001
2.000	106.481	80.005	19.995	103.050	20.175	0.318	0.028
4.000	106.461	80.010	19.995	103.054	20.174	0.355	0.011
6.000	106.474	79.993	19.996	103.058	20.173	0.428	0.021
8.000	106.452	79.999	19.999	103.055	20.170	0.652	-0.024
10.000	106.510	80.008	19.994	103.070	20.169	0.723	0.057
12.000	106.456	80.010	19.995	103.100	20.168	0.748	-0.011
14.000	106.502	80.006	19.995	103.096	20.166	0.889	0.013
16.000	106.543	80.010	19.994	103.093	20.164	1.028	0.052
18.000	106.588	79.997	19.996	103.090	20.158	1.467	0.021
20.000	106.684	79.999	19.995	103.091	20.160	1.342	0.046
22.000	106.739	80.006	19.995	103.104	20.160	1.320	0.017
24.000	106.788	80.024	19.991	103.142	20.156	1.615	0.044
26.000	106.898	80.023	19.995	103.214	20.146	2.292	0.090
28.000	107.009	80.013	19.994	103.211	20.145	2.327	0.105
30.000	107.187	80.005	20.000	103.217	20.148	2.179	0.093
32.000	107.364	80.009	19.995	103.224	20.140	2.709	0.090
34.000	107.577	80.022	19.994	103.220	20.136	3.000	0.131
35.999	107.787	80.006	19.995	103.243	20.139	2.772	0.109
37.999	108.114	80.013	19.995	103.252	20.138	2.837	0.162
39.999	108.397	80.006	19.995	103.255	20.138	2.841	0.145
41.999	108.770	80.008	19.996	103.257	20.134	3.126	0.162
43.999	109.136	80.012	19.996	103.260	20.131	3.322	0.203
45.999	109.483	80.004	19.996	103.276	20.131	3.319	0.185
47.999	109.930	80.011	19.995	103.280	20.128	3.512	0.238
50.000	110.381	80.005	19.995	103.292	20.130	3.360	0.247
52.000	110.819	80.013	19.994	103.289	20.128	3.530	0.229
53.999	111.341	80.008	20.000	103.265	20.130	3.371	0.240
55.999	111.820	80.015	19.993	103.290	20.122	3.929	0.250
57.999	112.392	80.014	19.994	103.291	20.123	3.864	0.278
59.999	112.945	80.009	19.994	103.292	20.123	3.905	0.291
61.999	113.545	80.004	19.994	103.287	20.130	3.380	0.309
64.000	114.159	79.999	19.995	103.286	20.131	3.329	0.306
65.999	114.778	80.009	19.995	103.259	20.133	3.195	0.302
67.999	115.437	80.009	19.995	103.272	20.129	3.485	0.312
69.999	116.033	80.004	19.995	103.275	20.135	3.073	0.292
72.000	116.750	80.006	19.994	103.279	20.129	3.477	0.355
73.999	117.448	80.005	19.995	103.266	20.130	3.410	0.361
75.999	118.144	80.004	19.995	103.265	20.128	3.500	0.334
77.999	118.869	80.004	19.994	103.282	20.129	3.437	0.345
79.999	119.630	80.018	19.994	103.275	20.130	3.416	0.340
81.999	120.354	80.000	19.996	103.275	20.132	3.253	0.346
83.999	121.150	80.007	19.996	103.273	20.129	3.440	0.371
86.000	121.875	80.009	19.992	103.281	20.129	3.491	0.408
87.999	122.702	80.010	19.994	103.284	20.128	3.540	0.388
90.000	123.523	80.010	19.993	103.289	20.127	3.619	0.441
91.999	124.337	80.009	19.994	103.287	20.127	3.576	0.424
93.999	125.182	80.009	19.993	103.292	20.126	3.647	0.431
95.999	126.009	80.006	19.994	103.278	20.128	3.536	0.454
97.999	126.871	80.008	19.995	103.288	20.127	3.615	0.445
99.999	127.703	80.004	19.994	103.286	20.120	4.064	0.422
102.000	128.528	80.013	19.994	103.293	20.123	3.853	0.413
103.999	129.486	80.011	19.994	103.294	20.123	3.839	0.453
105.999	130.336	80.007	19.996	103.277	20.126	3.688	0.453
107.999	131.245	80.005	19.996	103.278	20.125	3.718	0.468
109.999	132.102	80.009	19.995	103.286	20.127	3.615	0.428
111.999	133.037	80.009	19.995	103.290	20.127	3.626	0.444
113.999	133.952	80.010	19.996	103.284	20.125	3.759	0.474
116.000	134.905	80.012	19.993	103.285	20.125	3.747	0.451
117.999	135.853	80.011	19.994	103.286	20.123	3.906	0.508
119.999	136.797	80.011	19.995	103.288	20.127	3.571	0.507
121.999	137.757	80.007	19.994	103.292	20.124	3.820	0.462
123.999	138.719	80.007	19.995	103.286	20.121	4.005	0.489
125.999	139.647	80.004	19.996	103.280	20.126	3.637	0.481
127.999	140.649	80.008	19.995	103.272	20.125	3.736	0.504
130.000	141.625	80.005	19.994	103.277	20.122	3.915	0.505
132.000	142.600	80.008	19.995	103.276	20.122	3.946	0.489
134.000	143.621	80.010	19.996	103.273	20.124	3.807	0.543
136.000	144.602	80.007	19.995	103.268	20.127	3.606	0.532
138.000	145.576	80.008	19.997	103.275	20.121	4.033	0.481
140.000	146.512	80.011	19.995	103.263	20.124	3.799	0.443
142.000	147.514	80.008	19.997	103.274	20.124	3.818	0.503
144.000	148.631	80.002	19.997	103.262	20.121	3.990	0.615
146.000	149.564	80.007	19.997	103.262	20.127	3.604	0.499
148.000	150.630	80.007	19.995	103.261	20.128	3.499	0.547
150.000	151.610	80.006	19.996	103.262	20.121	3.983	0.486
152.000	152.595	80.005	19.995	103.269	20.125	3.704	0.486
154.000	153.632	80.006	19.995	103.255	20.128	3.537	0.500
156.000	154.616	80.007	19.995	103.256	20.129	3.471	0.472
158.000	155.599	80.007	19.995	103.260	20.129	3.443	0.469
160.000	156.602	80.002	19.995	103.259	20.127	3.630	0.506
162.000	157.672	80.008	19.993	103.258	20.125	3.707	0.493
164.000	158.683	80.007	19.994	103.263	20.125	3.703	0.507
166.000	159.661	80.006	19.995	103.255	20.127	3.582	0.479
168.000	160.713	80.006	19.995	103.255	20.125	3.705	0.503
170.000	161.714	80.011	19.994	103.254	20.124	3.771	0.482
172.000	162.731	80.007	19.995	103.259	20.123	3.838	0.514
174.000	163.701	80.009	19.995	103.256	20.123	3.903	0.481
176.000	164.733	80.008	19.994	103.254	20.127	3.624	0.534
178.000	165.749	80.005	19.995	103.249	20.123	3.849	0.516
180.000	166.742	80.011	19.995	103.249	20.125	3.733	0.481
182.000	167.782	80.011	19.993	103.249	20.120	4.067	0.498
184.000	168.756	80.006	19.996	103.246	20.126	3.699	0.516
186.000	169.745	80.008	19.995	103.245	20.118	4.197	0.460
188.000	170.727	80.006	19.995	103.239	20.122	3.954	0.493
190.000	171.732	80.012	19.993	103.244	20.121	4.004	0.491
192.000	172.739	80.011	19.994	103.252	20.119	4.126	0.516
194.000	173.762	80.014	19.994	103.248	20.116	4.364	0.537
196.000	174.735	80.003	19.994	103.244	20.117	4.263	0.514
198.000	175.724	80.010	19.994	103.242	20.114	4.507	0.502
200.000	176.719	80.007	19.995	103.230	20.117	4.306	0.511
202.000	177.679	80.028	20.001	103.241	20.118	4.244	0.464
204.000	178.652	80.026	20.002	103.252	20.117	4.273	0.471
206.000	179.658	80.028	20.001	103.255	20.117	4.277	0.531
208.000	180.643	80.026	20.002	103.256	20.114	4.504	0.525
210.000	181.603	80.025	19.999	103.252	20.114	4.498	0.484
212.000	182.603	80.006	19.996	103.254	20.111	4.682	0.503
214.000	183.544	80.010	19.995	103.239	20.105	5.084	0.475
216.000	184.580	80.007	19.995	103.227	20.106	5.015	0.515
218.000	185.538	80.008	19.995	103.233	20.106	5.024	0.495
220.000	186.553	80.008	19.995	103.226	20.103	5.220	0.504
222.000	187.540	80.007	19.994	103.232	20.104	5.204	0.485
224.000	188.529	80.006	19.995	103.237	20.103	5.232	0.496
226.000	189.473	80.007	19.995	103.232	20.100	5.464	0.485
228.000	190.498	80.007	19.995	103.238	20.099	5.544	0.501
230.000	191.482	80.006	19.997	103.233	20.095	5.826	0.483
232.000	192.462	80.007	19.996	103.225	20.093	5.947	0.524
234.000	193.425	80.005	19.996	103.235	20.093	5.920	0.518
236.000	194.379	80.007	19.996	103.226	20.087	6.349	0.504
238.000	195.402	80.004	19.996	103.225	20.085	6.517	0.498
240.000	196.387	80.006	19.996	103.233	20.088	6.278	0.485
242.000	197.341	80.009	19.995	103.229	20.083	6.650	0.462
244.000	198.325	80.007	19.996	103.224	20.085	6.499	0.499
246.000	199.310	80.006	19.995	103.216	20.078	6.974	0.509
248.000	200.293	80.008	19.995	103.224	20.078	6.990	0.495
250.000	201.257	80.008	19.994	103.218	20.076	7.129	0.478
252.000	202.252	80.009	19.995	103.221	20.073	7.338	0.488
254.000	203.275	80.009	19.994	103.220	20.073	7.325	0.535
256.000	204.209	80.009	19.994	103.226	20.069	7.614	0.490
258.000	205.230	80.008	19.994	103.216	20.066	7.801	0.504
260.000	206.221	80.009	19.994	103.215	20.059	8.300	0.496
262.000	207.210	80.006	19.994	103.231	20.055	8.531	0.487
264.000	208.218	80.009	19.995	103.221	20.054	8.604	0.529
266.000	209.219	80.009	19.994	103.196	20.050	8.885	0.524
268.000	210.216	80.008	19.995	103.167	20.049	8.997	0.516
270.000	211.221	80.008	19.995	103.292	20.046	9.141	0.492
272.000	212.162	80.008	19.996	103.220	20.039	9.645	0.477
274.000	213.128	80.011	19.995	103.223	20.038	9.731	0.468
276.000	214.152	80.010	19.994	103.215	20.029	10.348	0.511
278.000	215.139	80.011	19.994	103.222	20.029	10.330	0.509
280.000	216.170	80.010	19.995	103.224	20.024	10.665	0.527
282.000	217.121	80.010	19.994	103.225	20.020	10.932	0.488
284.000	218.128	80.007	19.994	103.225	20.018	11.073	0.483
286.000	219.119	80.009	19.994	103.217	20.013	11.433	0.481
288.000	220.080	80.008	19.994	103.218	20.012	11.518	0.488
290.000	221.056	80.008	19.995	103.220	20.005	12.022	0.487
292.000	222.073	80.009	19.995	103.219	20.002	12.232	0.532
294.000	223.073	80.008	19.995	103.220	19.997	12.565	0.494
296.000	224.060	80.008	19.995	103.224	19.993	12.804	0.515
298.000	225.048	80.005	19.995	103.202	19.989	13.099	0.493
300.000	226.063	80.006	19.996	103.168	19.984	13.446	0.514
302.000	227.053	80.005	19.995	103.281	19.985	13.352	0.484
304.000	228.077	80.008	19.996	103.220	19.976	14.014	0.518
306.000	229.108	80.008	19.996	103.230	19.974	14.152	0.519
308.000	230.129	80.007	19.994	103.231	19.968	14.563	0.513
310.000	231.117	80.008	19.994	103.219	19.965	14.745	0.505
312.000	232.102	80.009	19.994	103.216	19.960	15.087	0.477
314.000	233.115	80.008	19.995	103.215	19.956	15.330	0.537
316.000	234.100	80.007	19.994	103.215	19.955	15.431	0.517
318.000	235.091	80.008	19.995	103.220	19.946	16.079	0.511
320.000	236.115	80.009	19.996	103.215	19.940	16.481	0.521
322.000	237.126	80.006	19.996	103.218	19.938	16.631	0.511
324.000	238.114	80.007	19.996	103.213	19.935	16.822	0.499
326.000	239.103	80.007	19.996	103.214	19.932	17.024	0.510
328.000	240.084	80.007	19.996	103.215	19.926	17.414	0.481
330.000	241.139	80.008	19.997	103.222	19.930	17.142	0.542
332.000	242.110	80.008	19.995	103.218	19.923	17.619	0.493
334.000	243.101	80.009	19.995	103.228	19.922	17.669	0.479
336.000	244.087	80.008	19.995	103.225	19.920	17.845	0.490
338.000	245.133	80.011	19.996	103.213	19.918	17.953	0.469
340.000	246.097	80.008	19.995	103.213	19.914	18.273	0.473
342.000	247.107	80.009	19.995	103.213	19.915	18.217	0.490
344.000	248.138	80.009	19.995	103.219	19.916	18.095	0.538
346.000	249.139	80.008	19.994	103.221	19.918	18.006	0.518
348.000	250.181	80.011	19.994	103.223	19.914	18.238	0.521
350.000	251.184	80.010	19.994	103.225	19.916	18.132	0.490
352.000	252.237	80.009	19.994	103.226	19.918	17.980	0.507
354.000	253.230	80.009	19.995	103.221	19.918	17.961	0.534
356.000	254.165	80.007	19.995	103.218	19.923	17.634	0.472
358.000	255.171	80.009	19.994	103.222	19.929	17.258	0.454
360.000	256.210	80.010	19.995	103.223	19.928	17.278	0.508
362.000	257.184	80.009	19.994	103.226	19.940	16.497	0.502
364.000	258.196	80.010	19.994	103.223	19.942	16.331	0.489
366.000	259.186	80.009	19.994	103.226	19.946	16.073	0.488
368.000	260.204	80.007	19.994	103.244	19.958	15.223	0.479
370.000	261.156	80.007	19.994	103.250	19.962	14.939	0.469
372.000	262.142	80.008	19.996	103.242	19.972	14.284	0.487
374.000	263.155	80.008	19.995	103.246	19.979	13.784	0.503
376.000	264.144	80.008	19.995	103.247	19.987	13.213	0.494
378.000	265.162	80.007	19.994	103.252	19.995	12.712	0.531
380.000	266.160	80.009	19.995	103.252	20.004	12.043	0.483
382.000	267.137	80.007	19.995	103.252	20.013	11.473	0.489
384.000	268.165	80.008	19.995	103.257	20.023	10.750	0.506
386.000	269.158	80.009	19.995	103.255	20.026	10.571	0.511
388.000	270.155	80.008	19.994	103.256	20.036	9.842	0.503
390.000	271.196	80.009	19.995	103.268	20.041	9.528	0.504
392.000	272.194	80.008	19.995	103.270	20.048	9.043	0.476
394.000	273.222	80.007	19.995	103.280	20.054	8.627	0.516
396.000	274.230	80.008	19.995	103.290	20.060	8.185	0.506
398.000	275.235	80.008	19.995	103.283	20.066	7.803	0.507
400.000	276.208	80.008	19.996	103.287	20.072	7.411	0.482
402.000	277.219	80.008	19.995	103.290	20.075	7.189	0.517
404.000	278.218	80.009	19.996	103.290	20.079	6.878	0.534
406.000	279.220	80.008	19.995	103.291	20.080	6.820	0.506
408.000	280.224	80.007	19.995	103.294	20.086	6.450	0.472
410.000	281.231	80.007	19.994	103.296	20.087	6.377	0.470
412.000	282.263	80.008	19.995	103.293	20.091	6.079	0.526
414.000	283.235	80.007	19.995	103.295	20.094	5.898	0.521
416.000	284.207	80.007	19.994	103.293	20.097	5.690	0.494
418.000	285.239	80.009	19.995	103.289	20.100	5.465	0.531
420.000	286.255	80.010	19.995	103.283	20.101	5.407	0.501
422.000	287.269	80.010	19.996	103.280	20.100	5.433	0.548
424.000	288.263	80.009	19.996	103.277	20.100	5.482	0.496
426.000	289.271	80.009	19.996	103.259	20.103	5.222	0.498
428.000	290.256	80.010	19.995	103.253	20.107	4.941	0.474
430.000	291.305	80.006	19.995	103.254	20.108	4.926	0.487
432.000	292.290	80.008	19.995	103.247	20.113	4.553	0.479
434.000	293.336	80.008	19.994	103.254	20.111	4.679	0.533
436.000	294.339	80.008	19.994	103.233	20.114	4.515	0.521
438.000	295.322	80.008	19.995	103.219	20.117	4.293	0.489
440.000	296.341	80.009	19.995	103.219	20.114	4.478	0.489
442.000	297.353	80.010	19.994	103.210	20.116	4.321	0.511
444.000	298.398	80.011	19.994	103.211	20.119	4.145	0.512
446.000	299.371	80.011	19.995	103.197	20.119	4.152	0.494
448.000	300.409	80.010	19.994	103.203	20.119	4.117	0.522
450.000	301.364	80.009	19.995	103.196	20.123	3.879	0.513
452.000	302.380	80.009	19.996	103.186	20.126	3.679	0.539
454.000	303.355	80.008	19.995	103.201	20.124	3.825	0.491
456.000	304.393	80.008	19.995	103.200	20.124	3.808	0.512
458.000	305.369	80.008	19.995	103.196	20.126	3.678	0.499
460.000	306.379	80.009	19.994	103.199	20.130	3.419	0.502
462.000	307.400	80.008	19.995	103.196	20.131	3.338	0.503
464.000	308.406	80.008	19.996	103.195	20.126	3.695	0.505
466.000	309.428	80.008	19.996	103.188	20.127	3.568	0.524
468.000	310.396	80.008	19.995	103.189	20.130	3.407	0.488
470.000	311.387	80.009	19.995	103.187	20.132	3.267	0.488
472.000	312.454	80.008	19.995	103.193	20.131	3.310	0.519
474.000	313.478	80.008	19.994	103.186	20.131	3.338	0.525
476.000	314.474	80.009	19.995	103.186	20.130	3.391	0.501
478.000	315.500	80.008	19.994	103.194	20.130	3.383	0.505
480.000	316.485	80.009	19.995	103.198	20.132	3.219	0.489
482.000	317.486	80.008	19.995	103.202	20.130	3.398	0.504
484.000	318.515	80.007	19.994	103.201	20.132	3.275	0.511
486.000	319.507	80.006	19.995	103.201	20.130	3.382	0.472
488.000	320.528	80.007	19.996	103.198	20.130	3.408	0.506
490.000	321.543	80.006	19.994	103.198	20.130	3.402	0.511
492.000	322.526	80.008	19.996	103.202	20.133	3.159	0.508
494.000	323.501	80.007	19.996	103.193	20.133	3.215	0.488
496.000	324.535	80.007	19.996	103.197	20.130	3.362	0.480
498.000	325.478	80.008	19.995	103.198	20.127	3.600	0.490
500.000	326.518	80.008	19.994	103.193	20.130	3.366	0.525
502.000	327.492	80.009	19.994	103.190	20.133	3.154	0.468
504.000	328.513	80.008	19.995	103.194	20.130	3.368	0.504
506.000	329.514	80.010	19.994	103.189	20.131	3.310	0.500
508.000	330.517	80.009	19.995	103.177	20.133	3.176	0.516
510.000	331.490	80.008	19.995	103.182	20.133	3.149	0.464
512.000	332.529	80.008	19.995	103.186	20.133	3.154	0.522
514.000	333.515	80.007	19.996	103.177	20.128	3.536	0.504
516.000	334.565	80.009	19.996	103.193	20.132	3.233	0.522
518.000	335.561	80.008	19.996	103.171	20.132	3.255	0.497
520.000	336.568	80.007	19.997	103.174	20.132	3.240	0.498
522.000	337.583	80.009	19.996	103.172	20.135	3.074	0.527
524.000	338.577	80.009	19.996	103.180	20.135	3.010	0.511
526.000	339.546	80.010	19.996	103.181	20.133	3.193	0.481
528.000	340.508	80.010	19.995	103.173	20.131	3.324	0.514
530.000	341.554	80.010	19.995	103.172	20.133	3.181	0.541
532.000	342.552	80.010	19.994	103.171	20.133	3.195	0.545
534.000	343.516	80.009	19.995	103.184	20.134	3.128	0.503
536.000	344.545	80.008	19.995	103.175	20.135	3.078	0.527
538.000	345.522	80.008	19.995	103.172	20.132	3.284	0.533
540.000	346.522	80.008	19.995	103.179	20.132	3.225	0.522
542.000	347.554	80.007	19.995	103.178	20.133	3.199	0.534
544.000	348.511	80.007	19.995	103.176	20.131	3.313	0.482
546.000	349.536	80.006	19.995	103.178	20.134	3.143	0.514
548.000	350.601	80.008	19.994	103.187	20.130	3.409	0.540
550.000	351.585	80.006	19.994	103.180	20.132	3.222	0.509
552.000	352.603	80.008	19.994	103.169	20.132	3.281	0.517
554.000	353.628	80.008	19.994	103.161	20.130	3.378	0.502
556.000	354.607	80.007	19.995	103.175	20.129	3.460	0.492
558.000	355.614	80.008	19.994	103.172	20.130	3.384	0.474
560.000	356.634	80.008	19.995	103.178	20.131	3.289	0.507
562.000	357.623	80.009	19.995	103.170	20.131	3.330	0.493
564.000	358.660	80.008	19.995	103.156	20.130	3.397	0.526
566.000	359.640	80.008	19.994	103.162	20.133	3.205	0.499
568.000	360.641	80.009	19.994	103.161	20.133	3.195	0.502
570.000	361.668	80.008	19.994	103.163	20.130	3.388	0.515
572.000	362.679	80.008	19.994	103.163	20.129	3.435	0.480
574.000	363.667	80.007	19.994	103.174	20.128	3.506	0.516
576.000	364.675	80.009	19.995	103.170	20.129	3.485	0.502
578.000	365.663	80.009	19.995	103.172	20.127	3.609	0.521
580.000	366.671	80.010	19.995	103.174	20.128	3.511	0.481
582.000	367.688	80.008	19.995	103.171	20.128	3.558	0.547
584.000	368.709	80.009	19.995	103.163	20.130	3.391	0.522
586.000	369.748	80.009	19.995	103.171	20.128	3.537	0.513
588.000	370.707	80.008	19.995	103.165	20.128	3.503	0.463
590.000	371.741	80.008	19.995	103.164	20.125	3.730	0.511
592.000	372.762	80.008	19.995	103.160	20.128	3.530	0.488
594.000	373.796	80.008	19.995	103.159	20.130	3.385	0.485
596.000	374.798	80.009	19.995	103.156	20.129	3.441	0.509
598.000	375.848	80.008	19.996	103.153	20.130	3.387	0.525
600.000	376.882	80.008	19.994	103.149	20.124	3.767	0.491
602.000	377.913	80.009	19.995	103.164	20.126	3.645	0.520
604.000	378.949	80.010	19.995	103.162	20.125	3.752	0.516
606.000	379.965	80.010	19.995	103.142	20.120	4.051	0.539
608.000	381.005	80.010	19.996	103.148	20.120	4.049	0.522
610.000	382.048	80.012	19.994	103.153	20.125	3.761	0.497
612.000	383.045	80.010	19.996	103.145	20.121	3.978	0.523
614.000	384.089	80.009	19.995	103.140	20.119	4.155	0.490
616.000	385.094	80.009	19.995	103.150	20.120	4.093	0.522
618.000	386.079	80.007	19.996	103.138	20.115	4.407	0.514
620.000	387.080	80.007	19.996	103.142	20.113	4.527	0.553
622.000	388.102	80.007	19.995	103.147	20.114	4.521	0.493
624.000	389.142	80.007	19.995	103.152	20.108	4.893	0.511
626.000	390.142	80.008	19.995	103.162	20.113	4.571	0.497
628.000	391.108	80.008	19.995	103.154	20.105	5.097	0.493
630.000	392.170	80.009	19.995	103.162	20.114	4.459	0.497
632.000	393.159	80.007	19.995	103.159	20.113	4.579	0.452
634.000	394.271	80.008	19.995	103.147	20.108	4.872	0.527
636.000	395.231	80.008	19.994	103.150	20.105	5.104	0.484
638.000	396.259	80.008	19.995	103.150	20.106	5.010	0.512
640.000	397.286	80.009	19.995	103.152	20.104	5.188	0.423
642.000	398.264	80.009	19.994	103.142	20.102	5.306	0.527
644.000	399.299	80.009	19.995	103.144	20.105	5.140	0.501
646.000	400.307	80.007	19.996	103.145	20.100	5.482	0.521
648.000	401.322	80.007	19.995	103.144	20.100	5.476	0.501
650.000	402.309	80.008	19.994	103.141	20.099	5.514	0.498
652.000	403.329	80.007	19.995	103.140	20.095	5.794	0.492
654.000	404.327	80.007	19.995	103.145	20.092	6.005	0.488
656.000	405.354	80.007	19.995	103.149	20.094	5.843	0.520
658.000	406.356	80.008	19.995	103.149	20.092	6.017	0.538
660.000	407.342	80.009	19.995	103.141	20.090	6.119	0.465
662.000	408.369	80.012	19.995	103.147	20.088	6.290	0.504
664.000	409.365	80.010	19.995	103.138	20.083	6.608	0.515
666.000	410.388	80.011	19.994	103.152	20.085	6.488	0.473
668.000	411.375	80.010	19.994	103.153	20.078	6.993	0.479
670.000	412.401	80.010	19.993	103.142	20.078	6.986	0.469
672.000	413.400	80.009	19.995	103.145	20.078	6.965	0.473
674.000	414.399	80.010	19.995	103.148	20.073	7.313	0.514
676.000	415.376	80.010	19.996	103.139	20.073	7.339	0.470
678.000	416.390	80.010	19.995	103.148	20.071	7.437	0.519
680.000	417.431	80.009	19.994	103.146	20.066	7.762	0.538
682.000	418.367	80.007	19.995	103.143	20.065	7.876	0.472
684.000	419.387	80.008	19.995	103.152	20.058	8.328	0.493
686.000	420.436	80.008	19.996	103.145	20.056	8.506	0.517
688.000	421.418	80.011	19.995	103.148	20.054	8.638	0.489
690.000	422.418	80.010	19.995	103.150	20.048	9.045	0.527
692.000	423.458	80.011	19.995	103.146	20.048	9.050	0.517
694.000	424.427	80.011	19.994	103.139	20.041	9.477	0.471
696.000	425.460	80.010	19.994	103.138	20.037	9.764	0.494
698.000	426.467	80.009	19.995	103.152	20.033	10.023	0.515
700.000	427.480	80.008	19.995	103.149	20.029	10.345	0.530
702.000	428.474	80.007	19.996	103.142	20.026	10.534	0.483
704.000	429.500	80.008	19.995	103.146	20.019	11.051	0.505
706.000	430.467	80.007	19.995	103.137	20.012	11.492	0.496
708.000	431.501	80.007	19.996	103.141	20.008	11.756	0.517
710.000	432.475	80.008	19.996	103.144	20.000	12.302	0.487
712.000	433.463	80.009	19.996	103.140	20.000	12.349	0.486
714.000	434.527	80.007	19.997	103.135	19.989	13.090	0.521
716.000	435.471	80.008	19.997	103.136	19.984	13.407	0.504
718.000	436.477	80.009	19.995	103.136	19.979	13.789	0.476
720.000	437.512	80.009	19.995	103.135	19.974	14.141	0.508
722.000	438.479	80.009	19.994	103.139	19.969	14.472	0.493
724.000	439.477	80.008	19.995	103.144	19.965	14.740	0.499
726.000	440.478	80.009	19.995	103.137	19.956	15.332	0.520
728.000	441.475	80.008	19.995	103.137	19.946	16.070	0.493
730.000	442.464	80.008	19.995	103.139	19.944	16.153	0.495
732.000	443.454	80.008	19.995	103.146	19.937	16.657	0.488
734.000	444.486	80.008	19.994	103.139	19.932	16.987	0.499
736.000	445.463	80.007	19.996	103.147	19.928	17.293	0.488
738.000	446.436	80.008	19.995	103.147	19.923	17.597	0.474
740.000	447.429	80.006	19.994	103.142	19.914	18.225	0.487
742.000	448.448	80.008	19.995	103.161	19.907	18.714	0.497
744.000	449.423	80.007	19.996	103.150	19.902	19.077	0.493
746.000	450.464	80.009	19.995	103.151	19.900	19.182	0.500
748.000	451.456	80.010	19.995	103.154	19.898	19.364	0.508
750.000	452.447	80.010	19.995	103.153	19.895	19.553	0.485
752.000	453.494	80.009	19.994	103.160	19.892	19.721	0.558
754.000	454.457	80.009	19.994	103.155	19.885	20.212	0.493
756.000	455.483	80.008	19.994	103.146	19.884	20.281	0.520
758.000	456.440	80.009	19.995	103.143	19.886	20.187	0.502
760.000	457.456	80.009	19.995	103.143	19.882	20.427	0.499
762.000	458.486	80.010	19.993	103.149	19.883	20.369	0.520
764.000	459.501	80.009	19.995	103.145	19.883	20.368	0.532
766.000	460.527	80.010	19.994	103.154	19.886	20.180	0.501
768.000	461.515	80.008	19.995	103.147	19.890	19.862	0.510
770.000	462.554	80.009	19.995	103.145	19.889	19.973	0.548
772.000	463.553	80.010	19.994	103.152	19.892	19.735	0.500
774.000	464.558	80.010	19.995	103.144	19.892	19.732	0.499
776.000	465.560	80.010	19.995	103.140	19.895	19.551	0.525
778.000	466.524	80.011	19.995	103.145	19.901	19.144	0.485
780.000	467.567	80.010	19.994	103.155	19.902	19.074	0.486
782.000	468.559	80.009	19.995	103.156	19.908	18.638	0.525
784.000	469.578	80.009	19.995	103.141	19.913	18.280	0.510
786.000	470.551	80.008	19.995	103.152	19.918	17.988	0.509
788.000	471.543	80.009	19.995	103.153	19.921	17.793	0.501
790.000	472.503	80.007	19.994	103.152	19.926	17.424	0.462
792.000	473.559	80.007	19.995	103.153	19.933	16.935	0.528
794.000	474.531	80.008	19.996	103.158	19.941	16.377	0.491
796.000	475.598	80.007	19.995	103.152	19.948	15.929	0.501
798.000	476.609	80.008	19.996	103.157	19.954	15.469	0.497
800.000	477.654	80.007	19.996	103.157	19.960	15.076	0.546
802.000	478.638	80.008	19.996	103.162	19.969	14.452	0.532
804.000	479.668	80.007	19.995	103.162	19.976	14.000	0.494
806.000	480.737	80.008	19.995	103.164	19.978	13.843	0.516
808.000	481.772	80.008	19.996	103.165	19.987	13.228	0.525
810.000	482.783	80.007	19.995	103.165	19.993	12.785	0.518
812.000	483.803	80.007	19.996	103.162	19.995	12.664	0.530
814.000	484.895	80.009	19.995	103.159	20.004	12.018	0.521
816.000	485.871	80.008	19.995	103.162	20.013	11.425	0.510
818.000	486.940	80.007	19.995	103.154	20.017	11.150	0.508
820.000	487.953	80.009	19.994	103.162	20.022	10.792	0.480
822.000	488.998	80.008	19.995	103.155	20.031	10.182	0.511
824.000	490.019	80.007	19.994	103.153	20.034	9.956	0.499
826.000	491.018	80.008	19.995	103.157	20.042	9.421	0.496
828.000	492.070	80.008	19.994	103.157	20.045	9.232	0.512
830.000	493.067	80.008	19.995	103.159	20.054	8.583	0.548
832.000	494.054	80.010	19.995	103.150	20.056	8.455	0.536
834.000	495.071	80.009	19.995	103.147	20.063	8.011	0.501
836.000	496.085	80.009	19.994	103.156	20.065	7.839	0.506
838.000	497.079	80.011	19.995	103.159	20.070	7.508	0.490
840.000	498.014	80.010	19.995	103.144	20.074	7.246	0.446
842.000	499.030	80.008	19.994	103.153	20.082	6.716	0.514
844.000	500.063	80.009	19.994	103.152	20.082	6.721	0.521
846.000	500.978	80.009	19.995	103.152	20.087	6.360	0.491
848.000	501.984	80.011	19.994	103.150	20.090	6.121	0.500
850.000	502.925	80.009	19.994	103.145	20.093	5.965	0.470
852.000	503.929	80.010	19.994	103.158	20.094	5.851	0.501
854.000	504.902	80.011	19.995	103.163	20.096	5.726	0.501
856.000	505.927	80.011	19.995	103.162	20.099	5.543	0.506
858.000	506.864	80.011	19.995	103.165	20.101	5.357	0.523
860.000	507.862	80.012	19.994	103.166	20.101	5.371	0.507
862.000	508.809	80.012	19.994	103.163	20.103	5.251	0.508
864.000	509.785	80.010	19.994	103.170	20.107	4.971	0.509
866.000	510.817	80.011	19.994	103.164	20.109	4.814	0.500
868.000	511.767	80.009	19.995	103.161	20.112	4.645	0.492
870.000	512.725	80.008	19.996	103.167	20.111	4.666	0.461
872.000	513.752	80.009	19.995	103.173	20.115	4.419	0.487
874.000	514.749	80.008	19.995	103.170	20.114	4.501	0.526
876.000	515.735	80.008	19.995	103.170	20.116	4.374	0.492
878.000	516.782	80.009	19.995	103.168	20.112	4.640	0.524
880.000	517.812	80.008	19.995	103.168	20.113	4.591	0.510
882.000	518.779	80.009	19.996	103.178	20.115	4.402	0.502
884.000	519.763	80.009	19.995	103.180	20.114	4.505	0.445
886.000	520.865	80.010	19.996	103.173	20.114	4.479	0.544
888.000	521.858	80.008	19.995	103.177	20.114	4.516	0.533
890.000	522.847	80.008	19.996	103.175	20.113	4.537	0.527
892.000	523.842	80.008	19.995	103.177	20.115	4.449	0.490
894.000	524.840	80.008	19.994	103.177	20.114	4.492	0.490
896.000	525.883	80.007	19.995	103.178	20.118	4.239	0.488
898.000	526.870	80.007	19.995	103.177	20.116	4.342	0.493
900.000	527.888	80.008	19.996	103.177	20.118	4.211	0.490
902.000	528.912	80.007	19.995	103.177	20.122	3.918	0.500
904.000	529.955	80.006	19.996	103.179	20.123	3.863	0.492
906.000	530.957	80.008	19.996	103.173	20.122	3.927	0.489
908.000	531.974	80.009	19.996	103.173	20.122	3.966	0.489
910.000	533.021	80.009	19.995	103.173	20.123	3.860	0.518
912.000	534.058	80.009	19.995	103.175	20.125	3.710	0.525
914.000	535.131	80.011	19.996	103.174	20.123	3.843	0.551
916.000	536.157	80.010	19.995	103.176	20.124	3.794	0.510
918.000	537.146	80.010	19.994	103.173	20.121	4.009	0.487
920.000	538.178	80.010	19.995	103.174	20.124	3.833	0.506
922.000	539.167	80.009	19.994	103.172	20.126	3.676	0.520
924.000	540.193	80.011	19.995	103.174	20.125	3.725	0.518
926.000	541.200	80.009	19.995	103.174	20.123	3.869	0.496
928.000	542.193	80.010	19.995	103.178	20.125	3.714	0.494
930.000	543.203	80.007	19.995	103.178	20.125	3.716	0.478
932.000	544.210	80.010	19.994	103.177	20.128	3.557	0.500
934.000	545.220	80.010	19.995	103.177	20.124	3.824	0.524
936.000	546.202	80.011	19.995	103.178	20.126	3.675	0.499
938.000	547.203	80.011	19.995	103.183	20.126	3.671	0.500
940.000	548.216	80.011	19.994	103.176	20.127	3.588	0.502
942.000	549.240	80.010	19.994	103.177	20.124	3.772	0.484
944.000	550.294	80.010	19.995	103.182	20.125	3.721	0.470
946.000	551.291	80.009	19.994	103.184	20.122	3.933	0.535
948.000	552.323	80.009	19.994	103.203	20.123	3.894	0.509
950.000	553.339	80.011	19.995	103.183	20.121	3.977	0.528
952.000	554.362	80.009	19.995	103.177	20.123	3.845	0.530
954.000	555.371	80.009	19.994	103.178	20.121	3.991	0.505
956.000	556.343	80.007	19.994	103.178	20.123	3.847	0.484
958.000	557.381	80.006	19.995	103.180	20.121	3.994	0.537
960.000	558.335	80.007	19.994	103.194	20.122	3.961	0.495
962.000	559.378	80.007	19.995	103.198	20.121	3.977	0.518
964.000	560.375	80.007	19.995	103.191	20.121	3.990	0.499
966.000	561.333	80.008	19.995	103.192	20.125	3.747	0.495
968.000	562.375	80.007	19.996	103.200	20.122	3.927	0.490
970.000	563.336	80.008	19.995	103.199	20.116	4.323	0.477
972.000	564.353	80.008	19.996	103.197	20.121	4.026	0.492
974.000	565.320	80.008	19.996	103.212	20.119	4.160	0.508
976.000	566.333	80.010	19.995	103.211	20.118	4.181	0.500
978.000	567.316	80.009	19.995	103.213	20.117	4.292	0.467
980.000	568.387	80.010	19.995	103.213	20.118	4.221	0.512
982.000	569.354	80.008	19.995	103.215	20.119	4.131	0.487
984.000	570.406	80.007	19.994	103.216	20.120	4.076	0.514
986.000	571.410	80.007	19.995	103.219	20.115	4.408	0.534
988.000	572.437	80.007	19.995	103.223	20.117	4.303	0.516
990.000	573.496	80.008	19.995	103.216	20.119	4.162	0.549
992.000	574.608	80.009	19.995	103.226	20.116	4.370	0.561
994.000	575.649	80.009	19.996	103.215	20.116	4.320	0.526
996.000	576.657	80.010	19.997	103.218	20.116	4.349	0.502
998.000	577.732	80.010	19.995	103.216	20.120	4.065	0.504
1000.000	578.776	80.009	19.996	103.214	20.120	4.044	0.513
1002.000	579.820	80.008	19.996	103.214	20.117	4.312	0.546
1004.000	580.879	80.010	19.996	103.222	20.117	4.268	0.556
1006.000	581.924	80.009	19.996	103.215	20.114	4.457	0.541
1008.000	582.993	80.010	19.995	103.214	20.121	3.989	0.510
1010.000	584.027	80.009	19.994	103.212	20.116	4.341	0.513
1012.000	585.081	80.009	19.995	103.209	20.119	4.144	0.529
1014.000	586.134	80.008	19.995	103.198	20.123	3.899	0.525
1016.000	587.159	80.010	19.995	103.196	20.123	3.852	0.538
1018.000	588.181	80.009	19.995	103.182	20.126	3.643	0.530
1020.000	589.216	80.011	19.994	103.182	20.129	3.463	0.492
1022.000	590.301	80.011	19.994	103.184	20.126	3.644	0.562
1024.000	591.256	80.011	19.994	103.175	20.128	3.500	0.493
1025.999	592.291	80.011	19.994	103.171	20.130	3.405	0.515
1027.999	593.300	80.009	19.995	103.171	20.129	3.476	0.478
1030.000	594.332	80.007	19.993	103.173	20.132	3.278	0.524
1031.999	595.340	80.008	19.994	103.175	20.131	3.311	0.465
1034.001	596.369	80.009	19.994	103.173	20.134	3.126	0.490
1035.999	597.347	80.008	19.994	103.167	20.126	3.691	0.502
1037.999	598.336	80.008	19.994	103.175	20.131	3.306	0.511
1039.999	599.380	80.008	19.995	103.174	20.128	3.512	0.533
1041.999	600.358	80.008	19.995	103.173	20.130	3.405	0.497
1043.999	601.372	80.007	19.995	103.174	20.126	3.695	0.517
1046.000	602.350	80.009	19.995	103.173	20.126	3.678	0.500
1047.999	603.308	80.007	19.994	103.166	20.130	3.412	0.486
1050.000	604.304	80.007	19.994	103.173	20.125	3.732	0.498
1051.999	605.339	80.009	19.994	103.173	20.128	3.553	0.508
1053.999	606.295	80.008	19.994	103.167	20.124	3.811	0.482
1055.999	607.290	80.010	19.994	103.166	20.127	3.570	0.504
1057.999	608.283	80.008	19.995	103.174	20.125	3.727	0.496
1059.999	609.257	80.008	19.995	103.170	20.120	4.045	0.479
1061.999	610.290	80.009	19.996	103.174	20.122	3.966	0.519
1063.999	611.258	80.008	19.997	103.174	20.120	4.071	0.519
1065.999	612.241	80.006	19.996	103.174	20.122	3.946	0.534
1067.999	613.245	80.008	19.996	103.174	20.119	4.124	0.485
1069.999	614.302	80.007	19.995	103.178	20.120	4.054	0.512
1071.999	615.294	80.008	19.996	103.177	20.122	3.939	0.494
1074.000	616.275	80.007	19.996	103.177	20.120	4.105	0.493
1075.999	617.241	80.008	19.995	103.177	20.118	4.199	0.507
1077.999	618.322	80.010	19.996	103.186	20.117	4.251	0.502
1079.999	619.302	80.009	19.994	103.179	20.116	4.351	0.493
1082.000	620.320	80.009	19.995	103.180	20.118	4.211	0.503
1084.000	621.313	80.009	19.995	103.194	20.116	4.323	0.487
1086.000	622.306	80.010	19.995	103.190	20.117	4.291	0.506
1087.999	623.367	80.007	19.995	103.193	20.115	4.396	0.505
1090.000	624.337	80.007	19.994	103.194	20.113	4.538	0.483
1091.999	625.336	80.008	19.996	103.199	20.116	4.362	0.502
1094.000	626.350	80.008	19.996	103.207	20.119	4.170	0.515
1095.999	627.374	80.008	19.997	103.198	20.117	4.285	0.500
1097.999	628.372	80.009	19.995	103.204	20.117	4.314	0.515
1099.999	629.368	80.008	19.996	103.212	20.118	4.196	0.501
1101.999	630.351	80.009	19.995	103.204	20.116	4.361	0.474
1104.000	631.413	80.011	19.995	103.204	20.118	4.249	0.519
1105.999	632.406	80.011	19.994	103.206	20.115	4.416	0.523
1107.999	633.414	80.011	19.994	103.195	20.116	4.340	0.505
1109.999	634.444	80.011	19.995	103.213	20.115	4.407	0.510
1111.999	635.486	80.012	19.995	103.212	20.115	4.395	0.512
1113.999	636.541	80.010	19.995	103.216	20.115	4.451	0.505
1115.999	637.554	80.008	19.995	103.231	20.113	4.565	0.531
1117.999	638.599	80.009	19.995	103.221	20.113	4.555	0.514
1119.999	639.583	80.008	19.994	103.225	20.114	4.459	0.517
1121.999	640.608	80.009	19.995	103.234	20.113	4.573	0.514
1123.999	641.665	80.008	19.995	103.231	20.114	4.474	0.494
1125.999	642.662	80.007	19.995	103.230	20.114	4.511	0.490
1127.999	643.672	80.009	19.996	103.221	20.115	4.448	0.487
1129.999	644.732	80.009	19.995	103.215	20.110	4.782	0.518
1131.999	645.717	80.009	19.996	103.239	20.110	4.796	0.503
1133.999	646.771	80.009	19.996	103.239	20.109	4.817	0.506
1136.000	647.778	80.008	19.995	103.240	20.113	4.531	0.526
1137.999	648.821	80.010	19.996	103.233	20.113	4.567	0.509
1139.999	649.842	80.009	19.995	103.251	20.110	4.799	0.536
1141.999	650.875	80.008	19.995	103.254	20.109	4.831	0.519
1143.999	651.896	80.008	19.994	103.246	20.109	4.861	0.489
1145.999	652.906	80.008	19.994	103.255	20.110	4.738	0.486
1148.000	653.940	80.008	19.994	103.258	20.106	5.026	0.516
1149.999	655.038	80.008	19.994	103.258	20.108	4.886	0.551
1151.999	656.071	80.010	19.995	103.270	20.110	4.787	0.515
1153.999	657.072	80.008	19.995	103.257	20.111	4.711	0.504
1155.999	658.112	80.008	19.995	103.266	20.110	4.800	0.516
1157.999	659.135	80.007	19.996	103.268	20.110	4.754	0.489
1160.000	660.146	80.009	19.995	103.265	20.112	4.643	0.508
1162.000	661.194	80.010	19.996	103.285	20.106	5.023	0.492
1163.999	662.226	80.010	19.996	103.293	20.109	4.832	0.513
1165.999	663.245	80.009	19.995	103.292	20.109	4.850	0.477
1168.000	664.264	80.010	19.995	103.289	20.109	4.828	0.502
1170.001	665.266	80.009	19.995	103.291	20.107	4.960	0.477
1171.999	666.314	80.008	19.995	103.291	20.104	5.151	0.492
1174.000	667.305	80.009	19.996	103.291	20.106	5.036	0.448
1175.999	668.351	80.010	19.996	103.301	20.102	5.288	0.518
1177.999	669.360	80.009	19.996	103.314	20.098	5.572	0.506
1179.999	670.405	80.009	19.995	103.319	20.098	5.611	0.515
1181.999	671.420	80.010	19.996	103.328	20.096	5.703	0.484
1183.999	672.432	80.009	19.996	103.330	20.095	5.790	0.495
1185.999	673.467	80.010	19.995	103.330	20.092	6.001	0.533
1188.001	674.483	80.010	19.996	103.332	20.094	5.850	0.477
1189.999	675.519	80.010	19.996	103.338	20.090	6.130	0.511
1191.999	676.506	80.010	19.996	103.347	20.093	5.973	0.458
1193.999	677.542	80.008	19.995	103.361	20.090	6.159	0.529
1195.999	678.527	80.008	19.996	103.354	20.088	6.293	0.501
1197.999	679.541	80.009	19.996	103.356	20.090	6.145	0.496
1199.999	680.512	80.008	19.996	103.371	20.083	6.631	0.485
1201.999	681.539	80.009	19.995	103.386	20.082	6.730	0.504
1203.999	682.574	80.008	19.995	103.386	20.082	6.694	0.516
1205.999	683.619	80.008	19.995	103.407	20.082	6.696	0.496
1207.999	684.633	80.009	19.994	103.408	20.078	6.995	0.484
1209.999	685.671	80.008	19.994	103.420	20.075	7.213	0.503
1212.000	686.692	80.009	19.995	103.412	20.076	7.141	0.528
1214.000	687.664	80.008	19.994	103.412	20.073	7.326	0.455
1215.999	688.691	80.009	19.994	103.411	20.073	7.306	0.492
1218.000	689.709	80.009	19.995	103.420	20.071	7.471	0.501
1219.999	690.737	80.009	19.995	103.415	20.072	7.424	0.501
1222.000	691.731	80.008	19.994	103.428	20.073	7.350	0.497
1223.999	692.731	80.008	19.995	103.419	20.070	7.551	0.502
1226.000	693.706	80.007	19.995	103.443	20.074	7.248	0.479
1227.999	694.715	80.006	19.995	103.439	20.071	7.446	0.492
1229.999	695.734	80.008	19.995	103.448	20.070	7.518	0.513
1231.999	696.763	80.008	19.995	103.446	20.073	7.334	0.490
1233.999	697.774	80.008	19.995	103.453	20.069	7.601	0.488
1235.999	698.768	80.008	19.994	103.457	20.065	7.888	0.493
1237.999	699.794	80.008	19.994	103.451	20.063	8.024	0.531
1240.000	700.797	80.009	19.995	103.465	20.065	7.905	0.523
1241.999	701.773	80.010	19.994	103.470	20.062	8.089	0.489
1243.999	702.776	80.010	19.993	103.463	20.062	8.114	0.478
1245.999	703.802	80.010	19.995	103.457	20.059	8.274	0.495
1247.999	704.823	80.011	19.994	103.483	20.056	8.471	0.509
1250.000	705.784	80.010	19.995	103.483	20.057	8.433	0.471
1251.999	706.804	80.011	19.995	103.483	20.057	8.402	0.488
1253.999	707.847	80.009	19.995	103.484	20.060	8.233	0.494
1255.999	708.808	80.009	19.995	103.483	20.055	8.565	0.504
1257.999	709.838	80.008	19.995	103.488	20.056	8.508	0.513
1259.999	710.843	80.010	19.994	103.487	20.054	8.623	0.496
1261.999	711.839	80.009	19.996	103.490	20.054	8.627	0.523
1263.999	712.814	80.010	19.994	103.488	20.052	8.752	0.497
1265.999	713.820	80.009	19.994	103.492	20.052	8.775	0.489
1267.999	714.899	80.011	19.995	103.491	20.054	8.666	0.505
1270.000	715.921	80.010	19.994	103.488	20.055	8.568	0.560
1271.999	716.890	80.010	19.992	103.495	20.052	8.764	0.492
1273.999	717.915	80.028	19.998	103.489	20.057	8.433	0.505
1275.999	718.902	80.009	19.996	103.484	20.053	8.707	0.485
1277.999	719.947	80.010	19.995	103.470	20.057	8.450	0.504
1280.000	720.960	80.008	19.995	103.452	20.055	8.559	0.504
1281.999	722.007	80.006	19.995	103.432	20.058	8.338	0.510
1284.000	722.998	80.008	19.996	103.421	20.061	8.135	0.500
1285.999	724.026	80.007	19.995	103.411	20.065	7.866	0.493
1287.999	725.086	80.007	19.996	103.385	20.064	7.939	0.498
1289.999	726.154	80.007	19.997	103.365	20.069	7.587	0.553
1292.000	727.166	80.007	19.996	103.343	20.073	7.297	0.524
1293.999	728.224	80.008	19.996	103.314	20.078	6.978	0.517
1295.999	729.260	80.008	19.994	103.297	20.076	7.101	0.521
1297.999	730.337	80.009	19.994	103.271	20.086	6.421	0.553
1300.000	731.359	80.008	19.995	103.250	20.093	5.922	0.535
1301.999	732.398	80.009	19.995	103.222	20.094	5.866	0.503
1303.999	733.448	80.009	19.994	103.210	20.103	5.276	0.536
1305.999	734.495	80.008	19.995	103.195	20.103	5.246	0.494
1308.000	735.554	80.009	19.995	103.176	20.105	5.085	0.543
1309.999	736.535	80.009	19.994	103.168	20.107	4.983	0.526
1311.999	737.587	80.008	19.995	103.148	20.107	4.943	0.525
1313.999	738.678	80.009	19.995	103.151	20.109	4.853	0.567
1315.999	739.683	80.008	19.995	103.145	20.109	4.801	0.497
1317.999	740.717	80.008	19.995	103.153	20.111	4.687	0.520
1319.999	741.729	80.007	19.995	103.141	20.110	4.730	0.500
1321.999	742.734	80.010	19.995	103.147	20.109	4.810	0.482
1323.999	743.788	80.010	19.995	103.143	20.112	4.601	0.518