File: 01_Data/Vinyl_Tile/MCC/Vinyl_Tile_MCC_30K_min_211103_R1.txt
Sample ID:	C:\MCC\MCC Cal\Test\Vinyl_Tile_MCC_30K_min_211103_R1.txt
Sample Weight (mg):	4.81
Heating Rate (C/s):	0.5
Combustor Temp (C):	900
N2 Flow Rate (cc/min):	80
O2 Flow Rate (cc/min):	20
Calibration File:	C:\MCC\MCC Cal\Coeff1 JN10440_30_210304.txt.txt
T Correction Coefficients:	0	1.024463	0
Time Shift (s):	14
*
Time (s)	Temperature (C)	N2 flow rate (cc/min)	O2 flow rate (cc/min)	Flow Rate (cc/min)	Oxygen (%)	HRR (W/g)	Heating rate (C/s)
0.000	105.845	80.008	19.995	103.060	20.148	-0.339	0.008
2.000	105.822	80.008	19.995	103.059	20.146	-0.212	0.003
4.001	105.821	80.008	19.995	103.061	20.144	-0.051	0.010
6.000	105.834	80.007	19.994	103.066	20.145	-0.180	0.038
8.000	105.842	80.008	19.995	103.076	20.144	-0.067	0.013
10.000	105.796	80.006	19.993	103.075	20.141	0.096	-0.009
12.000	105.818	80.008	19.994	103.086	20.140	0.212	-0.017
14.000	105.856	80.007	19.994	103.098	20.137	0.419	0.008
16.000	105.880	80.007	19.995	103.111	20.137	0.414	0.038
18.000	105.929	80.008	19.995	103.135	20.135	0.546	0.033
20.000	105.976	80.009	19.996	103.139	20.131	0.790	0.015
22.000	106.061	80.008	19.996	103.161	20.130	0.870	0.038
24.000	106.158	80.009	19.996	103.174	20.124	1.271	0.044
26.000	106.280	80.010	19.996	103.185	20.119	1.562	0.078
28.000	106.431	80.008	19.996	103.217	20.119	1.591	0.054
30.000	106.591	80.010	19.996	103.230	20.112	2.060	0.093
32.000	106.768	80.009	19.995	103.249	20.110	2.189	0.063
34.000	106.896	80.009	19.995	103.264	20.110	2.214	0.037
36.000	107.275	80.008	19.995	103.271	20.105	2.554	0.228
38.000	107.575	80.008	19.994	103.266	20.105	2.516	0.146
40.000	107.891	80.008	19.995	103.285	20.102	2.721	0.142
42.000	108.248	80.010	19.994	103.287	20.097	3.059	0.193
44.001	108.601	80.010	19.994	103.287	20.096	3.166	0.168
46.000	109.041	80.011	19.995	103.291	20.096	3.146	0.239
48.000	109.423	80.010	19.993	103.294	20.099	2.901	0.243
50.000	109.915	80.010	19.994	103.302	20.095	3.190	0.204
52.001	110.445	80.009	19.994	103.299	20.094	3.292	0.264
54.001	110.911	80.010	19.995	103.303	20.097	3.068	0.227
56.000	111.385	80.009	19.994	103.290	20.096	3.141	0.225
58.000	111.909	80.008	19.994	103.290	20.095	3.183	0.251
60.001	112.433	80.009	19.994	103.307	20.095	3.221	0.260
62.001	113.014	80.009	19.994	103.296	20.098	3.018	0.271
64.000	113.597	80.008	19.994	103.294	20.096	3.137	0.269
66.000	114.223	80.008	19.994	103.295	20.099	2.947	0.305
68.000	114.831	80.008	19.994	103.306	20.098	2.985	0.292
70.000	115.457	80.007	19.993	103.308	20.097	3.102	0.309
72.001	116.078	80.008	19.995	103.316	20.095	3.216	0.329
74.001	116.753	80.007	19.995	103.316	20.094	3.287	0.330
76.001	117.448	80.008	19.993	103.303	20.094	3.280	0.363
78.000	118.146	80.008	19.994	103.317	20.093	3.351	0.351
80.000	118.806	80.009	19.994	103.325	20.091	3.485	0.316
82.001	119.533	80.007	19.993	103.325	20.090	3.551	0.323
84.000	120.236	80.009	19.995	103.330	20.092	3.413	0.348
86.000	120.991	80.009	19.994	103.328	20.091	3.480	0.371
88.001	121.746	80.007	19.995	103.328	20.089	3.638	0.389
90.000	122.518	80.008	19.996	103.328	20.091	3.484	0.387
92.000	123.321	80.008	19.995	103.329	20.089	3.573	0.414
94.001	124.077	80.008	19.996	103.329	20.088	3.703	0.393
96.000	124.855	80.007	19.995	103.329	20.087	3.716	0.377
98.000	125.662	80.008	19.996	103.329	20.088	3.659	0.406
100.000	126.488	80.006	19.994	103.332	20.088	3.663	0.426
102.000	127.319	80.008	19.994	103.328	20.086	3.810	0.441
104.001	128.135	80.009	19.996	103.325	20.084	3.972	0.443
106.000	128.991	80.010	19.994	103.326	20.084	3.967	0.424
108.000	129.841	80.010	19.995	103.319	20.086	3.801	0.410
110.001	130.702	80.010	19.994	103.328	20.086	3.779	0.419
112.001	131.545	80.009	19.994	103.323	20.085	3.841	0.416
114.000	132.412	80.011	19.995	103.328	20.083	3.983	0.455
116.001	133.297	80.009	19.995	103.328	20.086	3.832	0.484
118.001	134.141	80.008	19.995	103.323	20.088	3.700	0.438
120.001	135.023	80.008	19.996	103.313	20.086	3.809	0.411
122.001	135.903	80.008	19.995	103.314	20.085	3.884	0.415
124.001	136.847	80.007	19.995	103.322	20.089	3.591	0.433
126.000	137.726	80.006	19.995	103.329	20.088	3.653	0.443
128.000	138.596	80.009	19.995	103.328	20.087	3.760	0.442
130.000	139.521	80.009	19.994	103.324	20.088	3.677	0.480
132.000	140.482	80.009	19.994	103.331	20.084	3.909	0.476
134.001	141.418	80.011	19.994	103.335	20.087	3.727	0.484
136.000	142.331	80.010	19.994	103.336	20.084	3.917	0.471
138.000	143.302	80.011	19.994	103.330	20.086	3.780	0.491
140.000	144.225	80.010	19.994	103.341	20.086	3.791	0.477
142.000	145.191	80.009	19.994	103.333	20.086	3.836	0.493
144.000	146.179	80.008	19.993	103.331	20.086	3.778	0.475
146.000	147.089	80.008	19.994	103.335	20.085	3.860	0.455
148.000	148.084	80.007	19.994	103.345	20.083	3.987	0.486
150.001	149.060	80.007	19.994	103.330	20.088	3.686	0.468
152.000	150.089	80.009	19.994	103.322	20.086	3.782	0.514
154.000	151.028	80.009	19.994	103.332	20.083	4.016	0.493
156.000	152.022	80.009	19.995	103.326	20.084	3.918	0.507
158.000	152.964	80.008	19.995	103.330	20.086	3.794	0.498
160.000	153.993	80.009	19.995	103.339	20.082	4.059	0.497
162.000	154.932	80.009	19.994	103.331	20.079	4.305	0.463
164.000	155.949	80.008	19.995	103.332	20.081	4.165	0.477
166.000	156.966	80.009	19.994	103.330	20.081	4.135	0.513
168.000	157.948	80.010	19.994	103.335	20.082	4.052	0.504
170.000	158.965	80.008	19.994	103.328	20.080	4.175	0.477
172.000	159.970	80.008	19.995	103.326	20.079	4.251	0.502
174.000	160.974	80.008	19.994	103.326	20.078	4.346	0.470
176.000	161.991	80.008	19.995	103.327	20.077	4.437	0.504
178.000	162.975	80.008	19.995	103.311	20.076	4.502	0.477
180.000	164.063	80.009	19.994	103.318	20.077	4.389	0.513
182.000	165.054	80.007	19.995	103.301	20.076	4.464	0.524
184.000	166.100	80.007	19.995	103.315	20.077	4.423	0.456
186.000	167.145	80.009	19.994	103.324	20.075	4.532	0.580
188.000	168.122	80.008	19.995	103.311	20.076	4.495	0.487
190.000	169.248	80.007	19.994	103.313	20.075	4.548	0.531
192.001	170.198	80.010	19.996	103.308	20.076	4.466	0.561
194.000	171.196	80.010	19.995	103.311	20.073	4.651	0.439
196.000	172.239	80.010	19.994	103.320	20.075	4.536	0.603
198.000	173.215	80.010	19.995	103.325	20.072	4.715	0.474
200.000	174.211	80.008	19.994	103.319	20.073	4.676	0.490
202.000	175.224	80.008	19.996	103.309	20.068	5.029	0.502
204.000	176.262	80.008	19.994	103.313	20.073	4.670	0.474
206.000	177.285	80.008	19.995	103.304	20.069	4.952	0.509
208.000	178.373	80.008	19.994	103.303	20.069	4.970	0.537
210.000	179.344	80.008	19.995	103.314	20.067	5.059	0.501
212.000	180.341	80.010	19.994	103.296	20.065	5.213	0.512
214.000	181.429	80.010	19.995	103.301	20.066	5.177	0.543
216.000	182.465	80.008	19.995	103.294	20.066	5.115	0.593
218.000	183.410	80.010	19.996	103.291	20.061	5.470	0.464
220.000	184.430	80.012	19.996	103.296	20.060	5.526	0.514
222.000	185.433	80.010	19.995	103.285	20.062	5.444	0.506
224.000	186.512	80.010	19.995	103.285	20.060	5.524	0.511
226.000	187.453	80.009	19.995	103.285	20.058	5.693	0.438
228.000	188.476	80.009	19.994	103.277	20.062	5.413	0.468
230.001	189.482	80.008	19.995	103.273	20.053	6.018	0.509
232.000	190.397	80.011	19.994	103.283	20.057	5.751	0.500
234.000	191.419	80.009	19.994	103.285	20.053	6.020	0.451
236.000	192.395	80.007	19.994	103.286	20.051	6.146	0.459
238.000	193.418	80.009	19.995	103.287	20.048	6.328	0.497
240.000	194.434	80.010	19.994	103.284	20.053	5.999	0.483
242.000	195.292	80.008	19.995	103.287	20.047	6.416	0.476
244.000	196.393	80.009	19.995	103.286	20.046	6.514	0.499
246.000	197.284	80.009	19.994	103.281	20.045	6.582	0.526
248.000	198.321	80.008	19.994	103.282	20.044	6.649	0.511
250.000	199.261	80.008	19.994	103.282	20.039	6.925	0.469
252.000	200.140	80.007	19.995	103.281	20.043	6.658	0.428
254.000	201.130	80.009	19.995	103.285	20.037	7.097	0.436
256.000	202.112	80.007	19.994	103.279	20.031	7.480	0.499
258.000	203.075	80.007	19.995	103.270	20.028	7.673	0.437
260.000	204.070	80.007	19.995	103.271	20.021	8.182	0.477
262.000	205.031	80.007	19.994	103.270	20.023	8.012	0.505
264.000	206.001	80.008	19.994	103.278	20.019	8.298	0.483
266.000	207.000	80.008	19.996	103.286	20.014	8.640	0.449
268.000	207.941	80.009	19.995	103.269	20.014	8.621	0.490
270.000	208.952	80.010	19.994	103.279	20.012	8.788	0.490
272.000	209.785	80.009	19.994	103.273	20.007	9.103	0.482
274.000	210.836	80.009	19.994	103.271	20.005	9.245	0.481
276.000	211.715	80.010	19.994	103.273	19.998	9.704	0.490
278.000	212.676	80.008	19.994	103.280	19.994	9.979	0.471
280.001	213.708	80.009	19.995	103.285	19.988	10.369	0.486
282.000	214.716	80.009	19.994	103.279	19.984	10.627	0.461
284.000	215.564	80.010	19.995	103.277	19.978	11.009	0.392
286.000	216.558	80.010	19.995	103.278	19.977	11.084	0.474
288.000	217.488	80.008	19.994	103.276	19.976	11.196	0.474
290.000	218.546	80.009	19.995	103.267	19.974	11.292	0.518
292.000	219.469	80.009	19.994	103.284	19.967	11.802	0.450
294.000	220.433	80.010	19.995	103.268	19.965	11.905	0.451
296.000	221.444	80.010	19.994	103.271	19.964	11.983	0.507
298.000	222.415	80.011	19.995	103.275	19.958	12.389	0.513
300.000	223.307	80.011	19.995	103.272	19.952	12.768	0.413
302.000	224.300	80.011	19.994	103.285	19.953	12.737	0.493
304.000	225.321	80.010	19.995	103.273	19.949	12.988	0.490
306.000	226.274	80.009	19.996	103.276	19.949	12.956	0.481
308.000	227.262	80.008	19.995	103.262	19.942	13.476	0.494
310.000	228.210	80.005	19.995	103.264	19.939	13.677	0.483
312.000	229.262	80.006	19.998	103.269	19.930	14.223	0.498
314.000	230.269	80.008	19.996	103.276	19.929	14.296	0.502
316.000	231.219	80.008	19.996	103.274	19.923	14.719	0.493
318.000	232.240	80.008	19.996	103.273	19.920	14.906	0.513
320.000	233.217	80.008	19.995	103.280	19.923	14.711	0.495
322.000	234.195	80.007	19.995	103.283	19.913	15.390	0.498
324.000	235.163	80.008	19.995	103.267	19.911	15.526	0.458
326.000	236.171	80.007	19.995	103.277	19.909	15.677	0.510
328.000	237.197	80.008	19.995	103.285	19.905	15.950	0.523
330.000	238.137	80.008	19.995	103.272	19.905	15.910	0.498
332.000	239.191	80.007	19.994	103.277	19.901	16.230	0.493
334.000	240.138	80.008	19.994	103.285	19.894	16.675	0.465
336.000	241.165	80.008	19.995	103.279	19.892	16.807	0.473
338.000	242.156	80.008	19.994	103.287	19.889	17.027	0.490
340.000	243.164	80.007	19.994	103.279	19.885	17.236	0.491
342.000	244.208	80.005	19.995	103.282	19.886	17.181	0.531
344.000	245.178	80.006	19.995	103.275	19.882	17.442	0.495
346.001	246.164	80.006	19.995	103.279	19.882	17.456	0.491
348.000	247.159	80.007	19.995	103.288	19.879	17.698	0.496
350.000	248.189	80.008	19.995	103.283	19.881	17.550	0.488
352.000	249.190	80.008	19.995	103.274	19.878	17.771	0.497
354.000	250.230	80.008	19.995	103.275	19.881	17.542	0.527
356.000	251.223	80.010	19.994	103.280	19.880	17.630	0.488
358.000	252.226	80.009	19.994	103.279	19.881	17.544	0.459
360.000	253.258	80.010	19.994	103.275	19.887	17.147	0.516
362.000	254.262	80.010	19.994	103.271	19.879	17.699	0.568
364.000	255.225	80.009	19.995	103.278	19.883	17.400	0.553
366.000	256.219	80.009	19.995	103.283	19.888	17.081	0.521
368.000	257.234	80.009	19.994	103.264	19.890	16.955	0.445
370.000	258.227	80.007	19.994	103.275	19.889	17.005	0.481
372.000	259.214	80.009	19.995	103.287	19.898	16.396	0.475
374.000	260.183	80.009	19.994	103.286	19.899	16.333	0.533
376.000	261.265	80.009	19.995	103.285	19.907	15.811	0.603
378.000	262.205	80.008	19.995	103.286	19.908	15.703	0.514
380.000	263.170	80.010	19.995	103.298	19.906	15.827	0.539
382.000	264.132	80.009	19.995	103.274	19.921	14.846	0.485
384.000	265.158	80.011	19.995	103.281	19.929	14.351	0.501
386.000	266.061	80.011	19.995	103.287	19.930	14.238	0.496
388.000	267.030	80.010	19.995	103.292	19.937	13.788	0.506
390.000	268.023	80.009	19.995	103.240	19.949	13.017	0.466
392.000	268.940	80.007	19.995	103.345	19.956	12.540	0.472
394.000	270.039	80.006	19.994	103.329	19.964	11.970	0.549
396.000	270.939	80.009	19.994	103.311	19.970	11.581	0.475
398.001	271.973	80.008	19.995	103.324	19.979	10.965	0.527
400.000	272.982	80.007	19.995	103.319	19.984	10.662	0.552
402.000	273.890	80.007	19.994	103.319	19.990	10.269	0.488
404.000	274.884	80.008	19.996	103.329	19.996	9.839	0.528
406.000	275.868	80.007	19.995	103.329	20.000	9.575	0.501
408.000	276.875	80.008	19.995	103.329	20.004	9.308	0.514
410.000	277.830	80.008	19.996	103.333	20.021	8.163	0.531
412.000	278.828	80.008	19.996	103.332	20.021	8.139	0.486
414.000	279.808	80.008	19.995	103.336	20.017	8.424	0.488
416.000	280.755	80.009	19.996	103.332	20.028	7.672	0.518
418.000	281.703	80.007	19.995	103.334	20.035	7.238	0.487
420.000	282.702	80.007	19.994	103.341	20.030	7.546	0.476
422.000	283.693	80.008	19.994	103.331	20.038	7.004	0.528
424.000	284.611	80.008	19.995	103.327	20.041	6.812	0.500
426.000	285.607	80.008	19.994	103.328	20.046	6.509	0.499
428.000	286.668	80.008	19.994	103.327	20.046	6.512	0.585
430.000	287.608	80.008	19.993	103.323	20.055	5.893	0.495
432.000	288.570	80.008	19.995	103.304	20.058	5.671	0.467
434.000	289.578	80.008	19.994	103.307	20.049	6.263	0.461
436.000	290.537	80.008	19.994	103.293	20.054	5.930	0.462
438.000	291.599	80.010	19.995	103.293	20.058	5.650	0.496
440.000	292.514	80.010	19.995	103.288	20.059	5.596	0.503
442.000	293.517	80.010	19.995	103.287	20.063	5.338	0.483
444.000	294.507	80.011	19.995	103.286	20.063	5.320	0.519
446.000	295.502	80.010	19.995	103.280	20.059	5.582	0.489
448.000	296.563	80.010	19.995	103.270	20.058	5.656	0.467
450.000	297.463	80.010	19.995	103.259	20.063	5.346	0.473
452.000	298.472	80.008	19.995	103.251	20.067	5.064	0.502
454.000	299.446	80.008	19.994	103.251	20.069	4.973	0.513
456.000	300.474	80.009	19.994	103.253	20.071	4.828	0.499
458.000	301.475	80.009	19.995	103.252	20.074	4.614	0.531
460.000	302.474	80.009	19.994	103.251	20.074	4.578	0.515
462.000	303.523	80.010	19.994	103.253	20.073	4.687	0.593
464.000	304.539	80.010	19.994	103.252	20.073	4.663	0.532
466.000	305.549	80.011	19.995	103.251	20.073	4.681	0.508
468.000	306.522	80.011	19.995	103.250	20.079	4.302	0.432
470.000	307.538	80.008	19.994	103.246	20.074	4.583	0.523
472.000	308.568	80.009	19.995	103.250	20.076	4.439	0.557
474.000	309.547	80.008	19.993	103.252	20.076	4.459	0.487
476.000	310.552	80.008	19.995	103.252	20.078	4.343	0.510
478.000	311.611	80.008	19.995	103.254	20.078	4.334	0.541
480.000	312.623	80.008	19.995	103.253	20.077	4.414	0.529
482.000	313.658	80.008	19.996	103.255	20.076	4.469	0.510
484.000	314.672	80.007	19.995	103.242	20.079	4.243	0.512
486.000	315.655	80.008	19.995	103.252	20.080	4.238	0.491
488.000	316.692	80.010	19.994	103.249	20.078	4.342	0.518
490.000	317.646	80.008	19.995	103.248	20.080	4.233	0.482
492.000	318.713	80.009	19.995	103.250	20.083	4.002	0.542
494.000	319.751	80.008	19.995	103.248	20.081	4.105	0.512
496.000	320.798	80.008	19.995	103.249	20.084	3.929	0.544
498.000	321.737	80.007	19.996	103.251	20.082	4.038	0.503
500.000	322.759	80.008	19.995	103.251	20.080	4.214	0.464
502.000	323.825	80.008	19.995	103.248	20.079	4.249	0.557
504.000	324.811	80.006	19.996	103.247	20.080	4.200	0.482
506.000	325.844	80.007	19.996	103.246	20.081	4.167	0.460
508.000	326.867	80.008	19.996	103.246	20.083	3.986	0.511
510.000	327.876	80.008	19.996	103.248	20.079	4.271	0.503
512.000	328.884	80.009	19.996	103.245	20.079	4.280	0.490
514.000	329.859	80.008	19.995	103.248	20.078	4.351	0.483
516.000	330.873	80.008	19.995	103.250	20.073	4.676	0.489
518.000	331.899	80.008	19.995	103.249	20.075	4.534	0.506
520.000	332.986	80.009	19.995	103.249	20.081	4.145	0.530
522.000	333.982	80.009	19.994	103.250	20.083	4.018	0.502
524.000	334.985	80.008	19.994	103.251	20.081	4.133	0.503
526.000	335.964	80.009	19.995	103.254	20.082	4.049	0.478
528.000	337.044	80.010	19.995	103.258	20.082	4.051	0.529
530.000	338.041	80.009	19.994	103.248	20.083	3.984	0.540
532.000	339.016	80.008	19.994	103.247	20.085	3.855	0.470
534.000	340.067	80.009	19.995	103.250	20.078	4.349	0.523
536.000	341.109	80.008	19.995	103.250	20.081	4.111	0.526
538.000	342.056	80.009	19.994	103.252	20.082	4.040	0.480
540.000	343.108	80.008	19.994	103.251	20.079	4.240	0.431
542.000	344.130	80.008	19.994	103.250	20.083	4.006	0.473
544.000	345.099	80.009	19.994	103.252	20.082	4.038	0.405
546.000	346.174	80.011	19.995	103.253	20.082	4.103	0.495
548.000	347.161	80.010	19.994	103.247	20.081	4.147	0.509
550.000	348.173	80.009	19.993	103.252	20.081	4.165	0.500
552.000	349.200	80.012	19.994	103.251	20.083	4.000	0.496
554.000	350.244	80.011	19.994	103.245	20.082	4.069	0.505
556.000	351.272	80.010	19.995	103.247	20.084	3.957	0.530
558.000	352.277	80.011	19.995	103.246	20.081	4.162	0.502
560.000	353.330	80.007	19.994	103.250	20.078	4.328	0.522
562.000	354.375	80.007	19.995	103.243	20.078	4.328	0.506
564.000	355.372	80.009	19.995	103.244	20.079	4.289	0.465
566.000	356.392	80.008	19.995	103.249	20.082	4.080	0.515
568.000	357.495	80.008	19.995	103.248	20.079	4.270	0.542
570.000	358.434	80.008	19.995	103.248	20.081	4.121	0.497
572.000	359.452	80.009	19.995	103.240	20.081	4.107	0.461
574.000	360.567	80.007	19.994	103.246	20.078	4.358	0.589
576.000	361.535	80.009	19.995	103.248	20.080	4.238	0.571
578.000	362.477	80.008	19.995	103.240	20.077	4.405	0.491
580.000	363.480	80.009	19.995	103.234	20.074	4.594	0.506
582.000	364.509	80.010	19.995	103.237	20.075	4.563	0.489
584.000	365.508	80.007	19.995	103.236	20.076	4.467	0.472
586.000	366.513	80.008	19.995	103.242	20.074	4.610	0.508
588.000	367.549	80.009	19.994	103.248	20.074	4.577	0.498
590.000	368.578	80.008	19.996	103.248	20.077	4.429	0.528
592.000	369.534	80.009	19.995	103.251	20.072	4.720	0.494
594.000	370.535	80.008	19.995	103.252	20.074	4.573	0.470
596.000	371.587	80.007	19.996	103.240	20.075	4.570	0.533
598.000	372.579	80.007	19.996	103.243	20.071	4.775	0.518
600.000	373.606	80.008	19.996	103.235	20.071	4.814	0.522
602.000	374.599	80.008	19.995	103.223	20.070	4.853	0.483
604.000	375.653	80.007	19.996	103.221	20.074	4.628	0.535
606.000	376.628	80.008	19.995	103.241	20.074	4.619	0.503
608.000	377.610	80.008	19.995	103.232	20.070	4.882	0.483
610.000	378.617	80.009	19.994	103.249	20.071	4.829	0.473
612.000	379.662	80.009	19.994	103.248	20.070	4.864	0.505
614.000	380.628	80.008	19.994	103.233	20.071	4.788	0.491
616.000	381.681	80.009	19.994	103.247	20.068	4.989	0.532
618.000	382.679	80.008	19.994	103.244	20.067	5.069	0.503
620.000	383.719	80.008	19.994	103.235	20.067	5.049	0.505
622.000	384.683	80.009	19.994	103.240	20.067	5.098	0.499
624.000	385.724	80.009	19.994	103.202	20.065	5.178	0.490
626.000	386.699	80.008	19.994	103.241	20.062	5.439	0.497
628.000	387.712	80.009	19.993	103.274	20.062	5.425	0.498
630.000	388.754	80.009	19.994	103.231	20.063	5.320	0.504
632.000	389.711	80.011	19.994	103.233	20.057	5.754	0.480
634.000	390.755	80.011	19.994	103.238	20.060	5.528	0.504
636.000	391.757	80.010	19.994	103.238	20.059	5.629	0.480
638.000	392.748	80.009	19.994	103.239	20.059	5.631	0.483
640.000	393.785	80.010	19.994	103.234	20.057	5.755	0.502
642.000	394.805	80.008	19.995	103.242	20.055	5.892	0.503
644.000	395.824	80.008	19.994	103.242	20.052	6.102	0.495
646.000	396.841	80.008	19.994	103.218	20.051	6.122	0.507
648.000	397.840	80.007	19.993	103.218	20.051	6.176	0.520
650.000	398.856	80.008	19.993	103.226	20.049	6.259	0.514
652.000	399.886	80.008	19.995	103.233	20.046	6.481	0.525
654.000	400.916	80.008	19.993	103.239	20.045	6.564	0.529
656.000	401.890	80.009	19.994	103.245	20.044	6.613	0.513
658.000	402.926	80.007	19.994	103.228	20.043	6.706	0.532
660.000	403.922	80.008	19.994	103.220	20.043	6.700	0.491
662.000	404.917	80.009	19.994	103.223	20.040	6.898	0.497
664.000	405.933	80.007	19.994	103.223	20.038	6.985	0.479
666.000	406.944	80.008	19.994	103.218	20.035	7.193	0.509
668.000	407.980	80.008	19.995	103.218	20.035	7.212	0.513
670.000	408.956	80.006	19.994	103.227	20.030	7.573	0.497
672.000	409.946	80.007	19.995	103.238	20.027	7.737	0.497
674.000	411.003	80.006	19.996	103.231	20.027	7.725	0.520
676.000	411.990	80.006	19.995	103.245	20.025	7.870	0.498
678.001	413.001	80.007	19.995	103.229	20.023	8.013	0.467
680.000	414.010	80.007	19.995	103.224	20.018	8.334	0.478
682.000	414.995	80.009	19.995	103.222	20.017	8.396	0.464
684.000	415.986	80.008	19.994	103.220	20.012	8.753	0.509
686.000	416.962	80.008	19.994	103.233	20.009	8.957	0.483
688.000	417.983	80.010	19.995	103.230	20.008	9.054	0.498
690.000	418.992	80.009	19.995	103.217	20.004	9.274	0.538
692.000	420.048	80.008	19.995	103.224	20.000	9.575	0.513
694.000	421.023	80.009	19.995	103.225	19.999	9.640	0.483
696.000	422.056	80.009	19.997	103.221	19.994	9.975	0.506
698.000	423.051	80.010	19.996	103.218	19.991	10.176	0.477
700.000	424.044	80.007	19.995	103.219	19.988	10.340	0.493
702.000	425.086	80.008	19.995	103.211	19.980	10.895	0.513
704.000	426.124	80.010	19.995	103.217	19.979	10.957	0.507
706.000	427.138	80.009	19.995	103.219	19.977	11.092	0.463
708.000	428.207	80.010	19.994	103.227	19.969	11.656	0.524
710.000	429.184	80.009	19.993	103.214	19.963	12.060	0.488
712.000	430.157	80.010	19.994	103.228	19.959	12.331	0.480
714.000	431.195	80.012	19.995	103.220	19.952	12.771	0.503
716.000	432.217	80.011	19.994	103.226	19.945	13.269	0.505
718.000	433.210	80.010	19.994	103.220	19.938	13.710	0.493
720.000	434.282	80.009	19.994	103.220	19.935	13.893	0.536
722.000	435.293	80.009	19.994	103.217	19.931	14.154	0.509
724.000	436.299	80.007	19.995	103.222	19.927	14.474	0.496
726.000	437.320	80.008	19.994	103.219	19.918	15.071	0.480
728.000	438.336	80.007	19.994	103.218	19.911	15.547	0.507
730.000	439.328	80.007	19.994	103.215	19.904	15.970	0.507
732.000	440.326	80.008	19.994	103.224	19.900	16.274	0.462
734.000	441.352	80.008	19.994	103.224	19.888	17.042	0.466
736.000	442.396	80.007	19.995	103.226	19.886	17.168	0.517
738.000	443.428	80.008	19.994	103.229	19.875	17.904	0.503
740.000	444.455	80.009	19.994	103.217	19.875	17.913	0.531
742.000	445.418	80.009	19.994	103.226	19.869	18.340	0.492
744.000	446.472	80.008	19.994	103.228	19.861	18.844	0.521
746.000	447.479	80.009	19.994	103.224	19.858	19.045	0.497
748.000	448.489	80.008	19.994	103.233	19.852	19.441	0.548
750.000	449.479	80.008	19.993	103.229	19.850	19.592	0.495
752.000	450.488	80.009	19.995	103.224	19.839	20.309	0.492
754.000	451.531	80.008	19.994	103.221	19.838	20.418	0.527
756.000	452.569	80.007	19.995	103.221	19.828	21.094	0.529
758.000	453.536	80.008	19.995	103.217	19.827	21.167	0.500
760.000	454.596	80.007	19.995	103.218	19.826	21.198	0.536
762.000	455.579	80.007	19.995	103.217	19.823	21.387	0.501
764.000	456.657	80.007	19.995	103.222	19.823	21.418	0.505
766.000	457.634	80.009	19.996	103.214	19.823	21.431	0.470
768.000	458.696	80.010	19.995	103.218	19.822	21.490	0.459
770.000	459.712	80.011	19.996	103.215	19.823	21.382	0.557
772.000	460.704	80.010	19.995	103.217	19.823	21.413	0.525
774.000	461.716	80.011	19.993	103.220	19.824	21.350	0.562
776.000	462.686	80.010	19.995	103.209	19.826	21.217	0.518
778.000	463.682	80.009	19.995	103.218	19.830	20.942	0.514
780.000	464.660	80.009	19.995	103.226	19.830	20.970	0.475
782.000	465.631	80.008	19.995	103.216	19.832	20.827	0.510
784.001	466.677	80.008	19.995	103.212	19.836	20.545	0.502
786.000	467.673	80.008	19.995	103.227	19.840	20.279	0.505
788.000	468.702	80.007	19.995	103.221	19.847	19.802	0.538
790.000	469.697	80.007	19.995	103.218	19.850	19.597	0.523
792.000	470.724	80.008	19.996	103.219	19.855	19.240	0.492
794.000	471.698	80.009	19.995	103.212	19.864	18.640	0.440
796.000	472.742	80.010	19.995	103.224	19.864	18.650	0.519
798.000	473.775	80.010	19.995	103.219	19.874	18.001	0.522
800.001	474.792	80.011	19.995	103.216	19.877	17.824	0.529
802.000	475.802	80.009	19.995	103.218	19.888	17.026	0.500
804.000	476.822	80.009	19.994	103.219	19.894	16.659	0.478
806.000	477.831	80.008	19.994	103.215	19.897	16.462	0.512
808.000	478.784	80.008	19.993	103.226	19.906	15.839	0.477
810.000	479.921	80.008	19.995	103.221	19.913	15.401	0.563
812.000	480.924	80.008	19.995	103.223	19.921	14.872	0.504
814.000	481.960	80.009	19.994	103.229	19.925	14.559	0.512
816.000	482.948	80.009	19.995	103.226	19.933	14.052	0.508
818.000	483.925	80.008	19.994	103.218	19.941	13.530	0.528
820.000	484.916	80.009	19.995	103.212	19.946	13.198	0.517
822.000	486.007	80.007	19.994	103.213	19.959	12.295	0.525
824.000	486.994	80.010	19.996	103.220	19.965	11.882	0.452
826.000	488.019	80.009	19.994	103.227	19.964	11.963	0.515
828.000	489.008	80.008	19.995	103.220	19.971	11.491	0.488
830.000	490.055	80.010	19.995	103.211	19.977	11.125	0.558
832.000	491.174	80.009	19.995	103.219	19.984	10.633	0.569
834.000	492.104	80.008	19.995	103.214	19.989	10.328	0.529
836.000	493.114	80.009	19.995	103.215	19.998	9.705	0.504
838.000	494.233	80.009	19.995	103.221	20.003	9.392	0.552
840.000	495.205	80.007	19.995	103.222	20.009	8.968	0.525
842.000	496.242	80.009	19.995	103.236	20.013	8.663	0.503
844.000	497.316	80.009	19.995	103.223	20.020	8.219	0.513
846.000	498.365	80.008	19.994	103.233	20.024	7.940	0.517
848.000	499.415	80.008	19.994	103.224	20.026	7.833	0.546
850.000	500.437	80.008	19.994	103.219	20.031	7.461	0.507
852.000	501.468	80.009	19.995	103.229	20.034	7.269	0.513
854.000	502.513	80.010	19.995	103.220	20.038	7.015	0.512
856.000	503.543	80.010	19.995	103.217	20.043	6.678	0.537
858.000	504.575	80.009	19.995	103.215	20.048	6.373	0.520
860.000	505.548	80.007	19.995	103.219	20.046	6.452	0.500
862.000	506.616	80.009	19.995	103.218	20.049	6.277	0.548
864.000	507.602	80.008	19.995	103.227	20.055	5.859	0.498
866.000	508.687	80.009	19.995	103.220	20.057	5.726	0.506
868.000	509.729	80.008	19.995	103.216	20.055	5.902	0.546
870.000	510.759	80.007	19.995	103.232	20.055	5.866	0.537
872.000	511.751	80.008	19.995	103.226	20.060	5.520	0.497
874.000	512.804	80.009	19.995	103.224	20.061	5.498	0.531
876.000	513.800	80.011	19.994	103.232	20.063	5.376	0.498
878.000	514.851	80.010	19.994	103.226	20.062	5.437	0.552
880.000	515.899	80.010	19.995	103.232	20.065	5.214	0.511
882.000	516.914	80.010	19.996	103.222	20.061	5.461	0.521
884.000	517.887	80.008	19.996	103.214	20.063	5.315	0.486
886.000	518.961	80.008	19.996	103.232	20.065	5.181	0.545
888.001	519.960	80.006	19.996	103.231	20.070	4.904	0.496
890.000	520.965	80.007	19.996	103.229	20.069	4.955	0.490
892.000	522.011	80.007	19.996	103.232	20.067	5.078	0.523
894.000	523.020	80.007	19.995	103.232	20.068	4.974	0.478
896.000	524.031	80.007	19.995	103.222	20.067	5.106	0.483
898.000	525.043	80.007	19.994	103.235	20.070	4.848	0.516
900.000	526.070	80.007	19.994	103.237	20.075	4.572	0.538
902.000	527.067	80.007	19.994	103.238	20.079	4.301	0.502
904.000	528.127	80.008	19.995	103.235	20.074	4.620	0.511
906.000	529.128	80.008	19.994	103.235	20.071	4.839	0.478
908.000	530.165	80.008	19.995	103.245	20.072	4.722	0.525
910.000	531.240	80.008	19.993	103.243	20.076	4.495	0.537
912.000	532.233	80.007	19.994	103.244	20.073	4.659	0.549
914.000	533.225	80.007	19.996	103.239	20.071	4.785	0.516
916.000	534.213	80.006	19.995	103.235	20.073	4.688	0.528
918.000	535.267	80.007	19.996	103.241	20.071	4.777	0.528
920.000	536.338	80.007	19.995	103.226	20.072	4.726	0.541
922.000	537.316	80.006	19.995	103.234	20.070	4.875	0.491
924.000	538.332	80.007	19.994	103.246	20.072	4.730	0.495
926.000	539.369	80.006	19.995	103.246	20.072	4.719	0.497
928.000	540.370	80.006	19.995	103.238	20.075	4.547	0.506
930.000	541.359	80.007	19.995	103.245	20.074	4.587	0.478
932.000	542.378	80.009	19.994	103.243	20.073	4.657	0.474
934.000	543.382	80.009	19.994	103.252	20.076	4.450	0.483
936.000	544.397	80.010	19.994	103.250	20.077	4.389	0.502
938.000	545.409	80.009	19.994	103.240	20.077	4.428	0.526
940.000	546.423	80.008	19.993	103.252	20.079	4.269	0.503
942.000	547.397	80.008	19.994	103.243	20.079	4.252	0.512
944.000	548.410	80.007	19.994	103.252	20.079	4.271	0.491
946.000	549.372	80.007	19.995	103.248	20.079	4.287	0.448
948.000	550.407	80.007	19.994	103.244	20.076	4.447	0.511
950.000	551.422	80.008	19.996	103.243	20.078	4.305	0.516
952.000	552.437	80.008	19.995	103.249	20.076	4.454	0.497
954.000	553.502	80.008	19.995	103.247	20.080	4.174	0.508
956.000	554.544	80.008	19.994	103.249	20.076	4.454	0.522
958.000	555.588	80.009	19.994	103.248	20.077	4.380	0.508
960.000	556.641	80.010	19.995	103.247	20.079	4.246	0.538
962.000	557.682	80.010	19.994	103.249	20.077	4.424	0.518
964.000	558.739	80.010	19.995	103.249	20.079	4.298	0.533
966.000	559.871	80.009	19.995	103.249	20.079	4.300	0.548
968.000	560.906	80.008	19.995	103.249	20.079	4.240	0.574
970.000	561.940	80.006	19.994	103.251	20.079	4.295	0.527
972.000	562.984	80.007	19.995	103.268	20.077	4.406	0.514
974.000	564.027	80.006	19.995	103.263	20.076	4.472	0.526
976.000	565.140	80.006	19.996	103.253	20.078	4.345	0.529
978.000	566.192	80.008	19.995	103.257	20.079	4.265	0.574
980.000	567.227	80.008	19.996	103.269	20.079	4.278	0.527
982.000	568.299	80.007	19.996	103.271	20.080	4.225	0.540
984.000	569.329	80.007	19.995	103.276	20.082	4.083	0.532
986.000	570.385	80.007	19.996	103.278	20.081	4.171	0.531
988.000	571.397	80.007	19.995	103.281	20.082	4.098	0.519
990.000	572.455	80.006	19.994	103.289	20.083	4.016	0.503
992.000	573.536	80.007	19.995	103.284	20.079	4.252	0.527
994.000	574.598	80.008	19.995	103.280	20.081	4.111	0.510
996.000	575.735	80.008	19.995	103.285	20.082	4.091	0.520
998.001	576.777	80.006	19.995	103.292	20.077	4.383	0.524
1000.000	577.811	80.007	19.994	103.291	20.080	4.190	0.522
1002.000	578.876	80.007	19.995	103.292	20.080	4.201	0.536
1004.000	579.899	80.006	19.995	103.293	20.079	4.297	0.512
1006.000	580.946	80.006	19.995	103.291	20.080	4.200	0.521
1008.000	582.031	80.006	19.995	103.290	20.083	4.004	0.542
1010.000	583.086	80.007	19.996	103.272	20.082	4.096	0.538
1012.000	584.117	80.008	19.995	103.280	20.081	4.113	0.544
1014.000	585.140	80.009	19.995	103.275	20.080	4.192	0.513
1016.000	586.187	80.009	19.995	103.265	20.079	4.277	0.533
1018.000	587.202	80.009	19.995	103.258	20.083	4.026	0.485
1020.001	588.243	80.009	19.995	103.249	20.084	3.903	0.522
1022.000	589.306	80.008	19.995	103.244	20.084	3.930	0.547
1024.001	590.311	80.010	19.995	103.242	20.084	3.919	0.493
1026.000	591.364	80.007	19.995	103.236	20.084	3.919	0.505
1028.000	592.390	80.009	19.995	103.217	20.086	3.777	0.515
1030.001	593.428	80.008	19.995	103.212	20.087	3.745	0.554
1032.000	594.467	80.008	19.995	103.219	20.087	3.723	0.538
1034.000	595.454	80.010	19.995	103.217	20.092	3.391	0.535
1036.000	596.452	80.009	19.994	103.213	20.089	3.576	0.504
1038.000	597.451	80.011	19.995	103.209	20.088	3.658	0.503
1040.000	598.437	80.010	19.994	103.218	20.088	3.696	0.492
1042.000	599.435	80.010	19.995	103.208	20.086	3.805	0.488
1044.000	600.397	80.011	19.996	103.207	20.087	3.736	0.479
1046.000	601.365	80.009	19.995	103.210	20.088	3.665	0.478
1048.000	602.387	80.008	19.996	103.211	20.090	3.520	0.516
1050.001	603.334	80.008	19.995	103.214	20.089	3.585	0.486
1052.000	604.305	80.009	19.995	103.216	20.087	3.727	0.494
1054.000	605.273	80.008	19.996	103.214	20.091	3.486	0.473
1056.000	606.231	80.007	19.995	103.215	20.088	3.681	0.473
1058.000	607.224	80.008	19.994	103.218	20.086	3.798	0.475
1060.000	608.175	80.008	19.995	103.224	20.089	3.634	0.479
1062.001	609.226	80.007	19.995	103.219	20.090	3.559	0.496
1064.000	610.193	80.008	19.995	103.219	20.088	3.691	0.463
1066.000	611.144	80.007	19.995	103.227	20.086	3.777	0.506
1068.000	612.141	80.006	19.995	103.231	20.085	3.876	0.486
1070.000	613.111	80.006	19.995	103.232	20.088	3.693	0.473
1072.000	614.105	80.006	19.995	103.231	20.088	3.653	0.512
1074.000	615.074	80.008	19.996	103.249	20.089	3.620	0.490
1076.000	616.107	80.008	19.996	103.245	20.089	3.606	0.515
1078.000	617.111	80.008	19.996	103.232	20.088	3.668	0.516
1080.000	618.087	80.007	19.997	103.226	20.087	3.733	0.487
1082.001	619.058	80.008	19.996	103.233	20.086	3.815	0.495
1084.000	620.076	80.007	19.996	103.236	20.086	3.771	0.516
1086.000	621.086	80.007	19.995	103.241	20.083	3.986	0.498
1088.000	622.122	80.009	19.995	103.243	20.088	3.681	0.498
1090.000	623.138	80.006	19.994	103.250	20.085	3.899	0.530
1092.001	624.123	80.009	19.995	103.253	20.089	3.592	0.535
1094.000	625.081	80.008	19.994	103.253	20.082	4.082	0.485
1096.001	626.116	80.009	19.995	103.255	20.080	4.207	0.491
1098.000	627.111	80.009	19.995	103.254	20.082	4.084	0.487
1100.000	628.161	80.008	19.994	103.258	20.081	4.126	0.493
1102.000	629.162	80.009	19.996	103.251	20.084	3.961	0.533
1104.000	630.102	80.009	19.994	103.252	20.078	4.328	0.490
1106.001	631.104	80.008	19.994	103.258	20.080	4.225	0.487
1108.000	632.151	80.009	19.994	103.250	20.080	4.183	0.472
1110.000	633.181	80.008	19.995	103.257	20.083	3.993	0.503
1112.000	634.223	80.008	19.994	103.280	20.085	3.845	0.518
1114.000	635.239	80.009	19.994	103.278	20.082	4.085	0.517
1116.000	636.276	80.008	19.995	103.280	20.080	4.236	0.517
1118.001	637.273	80.008	19.994	103.284	20.083	4.011	0.492
1120.000	638.315	80.009	19.994	103.286	20.079	4.276	0.514
1122.001	639.341	80.011	19.994	103.286	20.078	4.314	0.526
1124.001	640.331	80.011	19.994	103.284	20.080	4.220	0.476
1126.001	641.306	80.010	19.994	103.282	20.080	4.222	0.435
1128.001	642.395	80.010	19.994	103.289	20.080	4.240	0.516
1130.000	643.405	80.008	19.995	103.287	20.077	4.440	0.533
1132.000	644.392	80.008	19.995	103.288	20.076	4.503	0.521
1134.000	645.370	80.007	19.994	103.293	20.079	4.249	0.529
1136.000	646.377	80.008	19.995	103.289	20.076	4.442	0.489
1138.001	647.399	80.008	19.995	103.295	20.080	4.220	0.505
1140.001	648.414	80.007	19.995	103.295	20.080	4.178	0.509
1142.001	649.367	80.007	19.995	103.292	20.079	4.249	0.499
1144.000	650.545	80.007	19.996	103.298	20.078	4.344	0.566
1146.000	651.517	80.007	19.995	103.298	20.080	4.193	0.446
1148.000	652.577	80.007	19.995	103.299	20.078	4.338	0.515
1150.000	653.527	80.007	19.993	103.290	20.076	4.504	0.471
1152.000	654.549	80.009	19.995	103.294	20.077	4.439	0.488
1154.000	655.573	80.008	19.995	103.298	20.075	4.514	0.526
1156.000	656.518	80.008	19.995	103.303	20.075	4.525	0.466
1158.000	657.565	80.007	19.995	103.299	20.073	4.694	0.492
1160.000	658.561	80.006	19.995	103.306	20.075	4.576	0.501
1162.000	659.599	80.009	19.995	103.319	20.077	4.412	0.496
1164.001	660.593	80.007	19.995	103.323	20.077	4.400	0.486
1166.000	661.585	80.006	19.996	103.325	20.078	4.313	0.476
1168.000	662.584	80.006	19.996	103.329	20.078	4.340	0.489
1170.000	663.588	80.007	19.997	103.329	20.079	4.265	0.477
1172.000	664.568	80.007	19.997	103.333	20.075	4.563	0.500
1174.000	665.617	80.007	19.997	103.331	20.069	4.967	0.550
1176.000	666.604	80.007	19.995	103.343	20.075	4.538	0.479
1178.000	667.578	80.009	19.996	103.352	20.072	4.742	0.481
1180.000	668.617	80.009	19.995	103.360	20.072	4.726	0.476
1182.001	669.675	80.010	19.994	103.361	20.072	4.766	0.534
1184.000	670.655	80.009	19.994	103.369	20.070	4.883	0.507
1186.000	671.593	80.008	19.995	103.374	20.067	5.072	0.481
1188.000	672.734	80.007	19.995	103.387	20.072	4.763	0.613
1190.001	673.611	80.008	19.995	103.387	20.061	5.515	0.463
1192.000	674.612	80.007	19.994	103.391	20.062	5.387	0.530
1194.000	675.661	80.008	19.994	103.408	20.065	5.188	0.523
1196.000	676.682	80.008	19.994	103.411	20.055	5.894	0.502
1198.001	677.644	80.008	19.995	103.411	20.065	5.245	0.480
1200.000	678.627	80.009	19.994	103.430	20.062	5.399	0.463
1202.000	679.675	80.009	19.994	103.422	20.055	5.898	0.480
1204.000	680.661	80.010	19.994	103.434	20.058	5.705	0.450
1206.001	681.704	80.009	19.994	103.443	20.054	5.966	0.513
1208.000	682.705	80.011	19.994	103.447	20.055	5.919	0.551
1210.000	683.801	80.010	19.993	103.445	20.051	6.143	0.608
1212.000	684.694	80.008	19.995	103.447	20.050	6.257	0.469
1214.000	685.811	80.008	19.994	103.446	20.051	6.130	0.490
1216.000	686.747	80.008	19.995	103.454	20.049	6.300	0.480
1218.000	687.767	80.008	19.993	103.452	20.048	6.389	0.458
1220.000	688.808	80.009	19.995	103.463	20.049	6.288	0.555
1222.000	689.830	80.008	19.995	103.454	20.049	6.317	0.511
1224.000	690.797	80.008	19.994	103.470	20.050	6.248	0.462
1226.000	691.893	80.007	19.995	103.465	20.050	6.250	0.512
1228.000	692.877	80.008	19.995	103.479	20.047	6.412	0.520
1230.000	693.897	80.008	19.995	103.483	20.045	6.548	0.519
1232.000	694.881	80.009	19.995	103.483	20.044	6.651	0.476
1234.000	695.902	80.008	19.995	103.483	20.041	6.834	0.503
1236.000	696.944	80.007	19.994	103.484	20.047	6.443	0.507
1238.000	697.920	80.008	19.995	103.488	20.043	6.721	0.532
1240.000	698.942	80.007	19.995	103.484	20.042	6.769	0.530
1242.000	699.916	80.007	19.995	103.490	20.042	6.790	0.492
1244.000	700.941	80.007	19.995	103.496	20.043	6.671	0.533
1246.000	701.925	80.007	19.995	103.489	20.042	6.778	0.509
1248.001	702.933	80.005	19.994	103.507	20.043	6.720	0.472
1250.000	703.924	80.008	19.995	103.524	20.042	6.793	0.539
1252.000	704.990	80.007	19.995	103.519	20.041	6.835	0.463
1254.001	705.977	80.006	19.996	103.522	20.037	7.102	0.506
1256.000	707.067	80.007	19.995	103.525	20.040	6.909	0.562
1258.000	708.038	80.008	19.996	103.520	20.043	6.676	0.479
1260.000	709.044	80.007	19.995	103.526	20.044	6.627	0.538
1262.001	710.074	80.009	19.996	103.526	20.036	7.140	0.533
1264.000	711.068	80.008	19.996	103.525	20.036	7.142	0.542
1266.001	712.057	80.008	19.995	103.527	20.035	7.204	0.504
1268.000	713.111	80.007	19.996	103.526	20.033	7.363	0.540
1270.000	714.106	80.008	19.995	103.526	20.034	7.295	0.500
1272.001	715.165	80.007	19.996	103.524	20.030	7.587	0.551
1274.000	716.165	80.009	19.995	103.516	20.030	7.589	0.494
1276.000	717.276	80.009	19.995	103.523	20.037	7.105	0.499
1278.000	718.255	80.008	19.995	103.524	20.035	7.229	0.517
1280.000	719.340	80.008	19.994	103.523	20.037	7.112	0.534
1282.000	720.411	80.010	19.994	103.521	20.037	7.116	0.575
1284.000	721.384	80.010	19.994	103.503	20.040	6.868	0.511
1286.000	722.424	80.010	19.994	103.499	20.039	6.950	0.527
1288.000	723.532	80.011	19.994	103.488	20.035	7.242	0.581
1290.000	724.449	80.010	19.995	103.484	20.044	6.632	0.498
1292.001	725.487	80.010	19.995	103.482	20.036	7.135	0.493
1294.001	726.521	80.008	19.994	103.472	20.042	6.740	0.519
1296.000	727.548	80.007	19.995	103.450	20.038	7.025	0.540
1298.000	728.593	80.008	19.995	103.446	20.045	6.588	0.527
1300.001	729.601	80.007	19.995	103.439	20.047	6.421	0.512
1302.000	730.684	80.008	19.995	103.427	20.043	6.692	0.587
1304.000	731.619	80.007	19.994	103.411	20.041	6.803	0.530
1306.000	732.728	80.007	19.995	103.407	20.047	6.401	0.525
1308.000	733.723	80.008	19.995	103.406	20.051	6.167	0.575
1310.000	734.824	80.007	19.994	103.381	20.054	5.929	0.575
1312.001	735.814	80.007	19.994	103.361	20.059	5.614	0.502
1314.000	736.788	80.007	19.995	103.319	20.066	5.158	0.478
1316.000	737.830	80.007	19.995	103.294	20.076	4.485	0.514
1318.000	738.873	80.007	19.994	103.270	20.078	4.324	0.459
1320.000	739.855	80.007	19.995	103.252	20.076	4.442	0.540
1322.000	740.928	80.007	19.995	103.247	20.088	3.690	0.519
1324.000	741.940	80.008	19.995	103.239	20.090	3.530	0.523
1326.000	742.943	80.006	19.995	103.219	20.089	3.624	0.479
1327.001	743.400	80.007	19.994	103.215	20.095	3.192	0.437