File: 01_Data/Vinyl_Tile/MCC/Vinyl_Tile_MCC_30K_min_211103_R2.txt
Sample ID:	C:\MCC\MCC Cal\Test\Vinyl_Tile_MCC_30K_min_211103_R2.txt
Sample Weight (mg):	4.87
Heating Rate (C/s):	0.5
Combustor Temp (C):	900
N2 Flow Rate (cc/min):	80
O2 Flow Rate (cc/min):	20
Calibration File:	C:\MCC\MCC Cal\Coeff1 JN10440_30_210304.txt.txt
T Correction Coefficients:	0	1.024463	0
Time Shift (s):	14
*
Time (s)	Temperature (C)	N2 flow rate (cc/min)	O2 flow rate (cc/min)	Flow Rate (cc/min)	Oxygen (%)	HRR (W/g)	Heating rate (C/s)
0.000	107.327	80.008	19.993	103.099	20.228	0.061	0.034
2.000	107.291	80.008	19.992	103.100	20.230	-0.093	-0.016
3.999	107.331	80.008	19.993	103.104	20.229	-0.050	0.040
5.999	107.294	80.007	19.993	103.110	20.228	0.048	-0.012
7.999	107.312	80.006	19.993	103.124	20.226	0.156	-0.005
9.999	107.310	80.006	19.993	103.154	20.226	0.143	-0.038
11.999	107.337	80.004	19.993	103.147	20.227	0.099	0.024
13.999	107.384	80.006	19.996	103.137	20.225	0.258	-0.016
16.000	107.422	80.005	19.996	103.137	20.225	0.258	0.030
18.000	107.468	80.004	19.995	103.137	20.223	0.351	0.005
20.000	107.542	80.006	19.995	103.134	20.223	0.337	0.021
22.000	107.610	80.005	19.995	103.141	20.223	0.340	0.033
24.000	107.669	80.005	19.996	103.153	20.218	0.665	0.069
26.000	107.731	80.007	19.994	103.170	20.218	0.706	0.038
28.000	107.824	80.006	19.995	103.180	20.218	0.710	0.036
30.000	107.949	80.004	19.996	103.167	20.218	0.676	0.066
32.000	108.017	80.006	19.996	103.168	20.218	0.717	0.044
33.999	108.123	80.005	19.995	103.179	20.216	0.836	0.061
35.999	108.277	80.005	19.995	103.203	20.212	1.119	0.073
37.999	108.424	80.007	19.994	103.205	20.215	0.883	0.058
39.999	108.582	80.006	19.995	103.206	20.210	1.223	0.118
41.999	108.729	80.005	19.995	103.213	20.209	1.299	0.072
43.999	108.917	80.004	19.996	103.236	20.207	1.414	0.100
46.000	109.162	80.005	19.995	103.271	20.205	1.566	0.100
47.999	109.384	80.005	19.995	103.279	20.203	1.684	0.118
49.999	109.642	80.003	19.995	103.270	20.201	1.801	0.144
51.999	109.917	80.004	19.995	103.283	20.198	2.025	0.111
53.999	110.218	80.005	19.995	103.276	20.198	2.025	0.143
55.999	110.537	80.006	19.994	103.263	20.197	2.067	0.168
57.999	110.911	80.006	19.994	103.256	20.197	2.062	0.189
59.999	111.226	80.007	19.994	103.259	20.194	2.268	0.181
61.999	111.596	80.006	19.994	103.264	20.198	2.030	0.173
63.999	111.958	80.006	19.994	103.273	20.191	2.489	0.202
65.999	112.353	80.006	19.993	103.287	20.190	2.532	0.197
67.999	112.742	80.006	19.993	103.291	20.190	2.529	0.196
69.999	113.214	80.006	19.994	103.309	20.189	2.619	0.226
71.999	113.623	80.005	19.995	103.321	20.187	2.780	0.221
73.999	114.084	80.005	19.994	103.329	20.184	2.954	0.249
75.999	114.563	80.006	19.993	103.331	20.185	2.890	0.253
78.000	115.072	80.006	19.995	103.330	20.182	3.065	0.267
79.999	115.600	80.007	19.995	103.329	20.182	3.078	0.253
81.999	116.130	80.007	19.994	103.333	20.181	3.141	0.269
83.999	116.758	80.008	19.994	103.328	20.185	2.905	0.305
85.999	117.329	80.006	19.993	103.327	20.181	3.150	0.272
88.000	117.900	80.007	19.994	103.329	20.178	3.316	0.293
89.999	118.518	80.008	19.995	103.328	20.180	3.196	0.309
91.999	119.168	80.006	19.993	103.341	20.181	3.143	0.341
93.999	119.842	80.005	19.993	103.352	20.182	3.055	0.340
95.999	120.508	80.005	19.994	103.337	20.181	3.167	0.334
97.999	121.195	80.006	19.994	103.347	20.177	3.397	0.350
99.999	121.873	80.005	19.995	103.349	20.175	3.538	0.320
101.999	122.606	80.002	19.996	103.361	20.178	3.375	0.357
103.999	123.329	80.005	19.995	103.346	20.178	3.378	0.348
105.999	124.054	80.005	19.994	103.358	20.179	3.276	0.355
107.999	124.795	80.004	19.996	103.355	20.181	3.115	0.320
109.999	125.591	80.004	19.995	103.358	20.182	3.091	0.381
111.999	126.393	80.005	19.994	103.352	20.174	3.625	0.382
113.999	127.124	80.005	19.994	103.359	20.178	3.355	0.359
115.999	127.922	80.003	19.994	103.345	20.179	3.289	0.384
117.999	128.725	80.004	19.994	103.359	20.176	3.501	0.399
119.999	129.551	80.004	19.995	103.362	20.180	3.210	0.394
121.999	130.373	80.005	19.995	103.349	20.181	3.142	0.418
124.001	131.195	80.003	19.994	103.356	20.176	3.456	0.406
125.999	132.014	80.004	19.995	103.360	20.174	3.616	0.428
128.000	132.845	80.004	19.994	103.361	20.179	3.311	0.414
130.000	133.705	80.003	19.994	103.368	20.181	3.151	0.427
132.000	134.574	80.003	19.994	103.363	20.176	3.480	0.428
134.000	135.451	80.004	19.995	103.368	20.177	3.406	0.434
136.000	136.307	80.005	19.995	103.365	20.173	3.673	0.405
138.000	137.153	80.003	19.995	103.369	20.175	3.566	0.415
140.000	138.071	80.005	19.995	103.364	20.171	3.828	0.424
142.000	138.952	80.005	19.995	103.365	20.177	3.427	0.423
144.000	139.902	80.004	19.996	103.367	20.175	3.530	0.461
146.000	140.780	80.005	19.995	103.355	20.175	3.557	0.466
148.000	141.662	80.005	19.995	103.357	20.176	3.483	0.437
150.000	142.619	80.006	19.995	103.364	20.172	3.739	0.486
152.000	143.570	80.004	19.995	103.361	20.175	3.538	0.472
154.000	144.491	80.004	19.995	103.361	20.175	3.565	0.447
156.000	145.413	80.005	19.994	103.364	20.172	3.727	0.479
158.000	146.357	80.007	19.995	103.359	20.175	3.520	0.463
160.000	147.311	80.006	19.994	103.344	20.169	3.915	0.489
162.000	148.245	80.007	19.994	103.349	20.170	3.857	0.476
164.000	149.178	80.006	19.994	103.339	20.171	3.825	0.468
166.000	150.169	80.007	19.994	103.353	20.168	3.996	0.475
168.000	151.136	80.008	19.994	103.353	20.172	3.739	0.491
170.000	152.091	80.006	19.994	103.342	20.171	3.802	0.480
172.000	153.054	80.008	19.994	103.332	20.170	3.903	0.523
174.000	153.984	80.007	19.994	103.332	20.173	3.687	0.466
176.000	154.948	80.006	19.994	103.343	20.171	3.818	0.460
178.000	155.881	80.005	19.995	103.356	20.166	4.137	0.484
180.000	156.847	80.005	19.993	103.342	20.169	3.936	0.466
182.000	157.833	80.004	19.994	103.351	20.168	4.037	0.501
184.000	158.808	80.005	19.994	103.348	20.166	4.159	0.500
186.000	159.739	80.003	19.995	103.336	20.167	4.042	0.477
188.000	160.740	80.005	19.994	103.346	20.170	3.850	0.501
190.000	161.736	80.004	19.993	103.333	20.169	3.942	0.520
192.000	162.728	80.004	19.994	103.343	20.167	4.057	0.456
194.000	163.671	80.004	19.994	103.340	20.164	4.259	0.504
196.000	164.657	80.005	19.995	103.336	20.164	4.279	0.507
198.000	165.686	80.004	19.994	103.331	20.168	3.984	0.479
200.000	166.718	80.004	19.995	103.333	20.166	4.119	0.508
202.000	167.679	80.005	19.995	103.337	20.162	4.404	0.512
204.000	168.670	80.003	19.995	103.335	20.165	4.189	0.496
206.000	169.677	80.005	19.994	103.332	20.164	4.266	0.511
208.000	170.650	80.003	19.995	103.331	20.167	4.101	0.462
210.000	171.612	80.006	19.996	103.329	20.164	4.273	0.481
212.000	172.618	80.003	19.995	103.330	20.163	4.320	0.494
214.000	173.640	80.005	19.994	103.328	20.162	4.399	0.495
216.000	174.605	80.004	19.995	103.328	20.164	4.273	0.481
218.000	175.620	80.006	19.995	103.328	20.160	4.559	0.511
220.000	176.586	80.005	19.995	103.326	20.163	4.361	0.470
222.000	177.587	80.006	19.995	103.327	20.160	4.565	0.460
224.000	178.612	80.006	19.995	103.323	20.158	4.641	0.491
226.000	179.621	80.006	19.994	103.324	20.158	4.657	0.530
228.000	180.606	80.006	19.995	103.325	20.155	4.891	0.507
230.000	181.625	80.006	19.995	103.324	20.150	5.204	0.509
232.000	182.580	80.005	19.996	103.322	20.151	5.106	0.483
234.000	183.624	80.005	19.996	103.312	20.153	5.030	0.518
236.000	184.585	80.004	19.995	103.323	20.151	5.104	0.462
238.000	185.601	80.004	19.996	103.324	20.150	5.222	0.502
240.000	186.625	80.005	19.995	103.318	20.147	5.375	0.520
242.000	187.639	80.006	19.995	103.315	20.151	5.105	0.489
244.000	188.635	80.005	19.994	103.319	20.149	5.271	0.488
246.000	189.630	80.006	19.994	103.314	20.149	5.265	0.527
248.000	190.619	80.006	19.993	103.317	20.150	5.217	0.522
250.000	191.602	80.007	19.994	103.320	20.148	5.339	0.483
252.000	192.584	80.005	19.993	103.317	20.144	5.620	0.469
254.000	193.576	80.007	19.993	103.313	20.138	5.972	0.486
256.000	194.613	80.007	19.994	103.314	20.135	6.164	0.498
258.000	195.587	80.005	19.994	103.312	20.132	6.385	0.481
260.000	196.609	80.004	19.994	103.313	20.136	6.104	0.528
262.000	197.569	80.003	19.994	103.312	20.129	6.558	0.480
264.000	198.521	80.004	19.995	103.313	20.125	6.832	0.499
266.000	199.536	80.005	19.994	103.311	20.125	6.831	0.504
268.000	200.488	80.003	19.994	103.315	20.119	7.242	0.456
270.000	201.512	80.003	19.995	103.325	20.119	7.233	0.469
272.000	202.501	80.004	19.994	103.326	20.114	7.598	0.502
274.000	203.463	80.005	19.994	103.322	20.114	7.606	0.504
276.000	204.478	80.006	19.994	103.309	20.111	7.761	0.453
278.000	205.423	80.004	19.994	103.308	20.105	8.176	0.491
280.000	206.449	80.005	19.994	103.308	20.101	8.443	0.509
282.000	207.428	80.004	19.993	103.312	20.097	8.695	0.491
284.000	208.431	80.005	19.994	103.304	20.096	8.769	0.505
286.000	209.378	80.006	19.994	103.309	20.095	8.850	0.488
288.000	210.391	80.004	19.995	103.306	20.093	8.986	0.508
290.000	211.404	80.004	19.995	103.304	20.091	9.130	0.506
292.000	212.377	80.004	19.995	103.309	20.086	9.423	0.496
294.000	213.380	80.005	19.995	103.321	20.082	9.672	0.497
296.000	214.414	80.004	19.994	103.306	20.083	9.639	0.540
298.000	215.369	80.004	19.994	103.306	20.076	10.102	0.466
300.000	216.383	80.005	19.996	103.307	20.073	10.314	0.478
302.000	217.387	80.006	19.994	103.307	20.069	10.550	0.523
304.000	218.399	80.006	19.995	103.310	20.064	10.879	0.485
306.000	219.434	80.006	19.995	103.305	20.061	11.064	0.516
308.000	220.401	80.007	19.994	103.297	20.057	11.357	0.482
310.000	221.386	80.004	19.995	103.306	20.052	11.691	0.489
312.000	222.396	80.006	19.994	103.303	20.047	11.982	0.506
314.000	223.366	80.006	19.995	103.303	20.046	12.055	0.500
316.000	224.340	80.005	19.995	103.306	20.043	12.297	0.456
318.000	225.351	80.006	19.994	103.295	20.035	12.797	0.507
320.000	226.365	80.005	19.995	103.304	20.032	12.980	0.500
322.000	227.350	80.007	19.995	103.301	20.030	13.137	0.474
324.000	228.382	80.005	19.994	103.297	20.026	13.402	0.516
326.000	229.400	80.005	19.994	103.299	20.022	13.638	0.504
328.000	230.387	80.006	19.994	103.290	20.015	14.120	0.509
330.000	231.410	80.007	19.996	103.289	20.013	14.248	0.488
332.000	232.384	80.006	19.995	103.283	20.009	14.549	0.471
334.000	233.365	80.007	19.995	103.287	20.003	14.905	0.504
336.000	234.363	80.007	19.996	103.287	20.004	14.877	0.511
338.000	235.365	80.007	19.994	103.287	19.998	15.270	0.520
340.000	236.316	80.005	19.994	103.289	19.991	15.702	0.476
342.000	237.268	80.004	19.994	103.284	19.988	15.946	0.472
344.000	238.240	80.004	19.995	103.286	19.988	15.948	0.512
346.000	239.193	80.005	19.995	103.288	19.976	16.699	0.477
348.000	240.150	80.005	19.994	103.293	19.976	16.700	0.509
350.000	241.166	80.005	19.994	103.294	19.972	16.954	0.472
352.000	242.162	80.006	19.995	103.288	19.971	17.055	0.497
354.000	243.112	80.005	19.994	103.289	19.966	17.376	0.513
356.000	244.114	80.004	19.995	103.294	19.964	17.487	0.487
358.000	245.103	80.005	19.994	103.294	19.965	17.442	0.490
360.000	246.137	80.006	19.994	103.289	19.956	18.004	0.508
362.000	247.094	80.004	19.995	103.291	19.957	17.978	0.487
364.000	248.088	80.007	19.995	103.290	19.960	17.803	0.487
366.000	249.122	80.004	19.994	103.294	19.955	18.110	0.504
368.000	250.145	80.005	19.994	103.297	19.950	18.410	0.484
370.000	251.167	80.004	19.994	103.300	19.950	18.441	0.515
372.000	252.160	80.005	19.996	103.290	19.953	18.208	0.504
374.000	253.158	80.004	19.994	103.299	19.953	18.230	0.503
376.000	254.177	80.004	19.994	103.297	19.958	17.873	0.469
378.000	255.203	80.005	19.994	103.293	19.959	17.866	0.507
380.000	256.202	80.004	19.993	103.297	19.965	17.460	0.507
382.000	257.217	80.005	19.994	103.306	19.970	17.121	0.495
384.000	258.267	80.006	19.995	103.305	19.976	16.711	0.519
386.000	259.222	80.007	19.994	103.302	19.978	16.561	0.504
388.000	260.263	80.006	19.993	103.305	19.986	16.060	0.536
390.000	261.227	80.006	19.993	103.295	19.988	15.890	0.473
392.000	262.292	80.008	19.994	103.307	19.994	15.503	0.510
394.000	263.293	80.007	19.995	103.310	20.000	15.128	0.502
396.000	264.290	80.006	19.995	103.318	20.013	14.254	0.540
398.000	265.319	80.006	19.995	103.320	20.017	14.004	0.443
400.000	266.360	80.006	19.994	103.318	20.027	13.357	0.531
402.000	267.279	80.007	19.995	103.315	20.038	12.587	0.461
404.000	268.395	80.006	19.993	103.320	20.047	11.995	0.480
406.000	269.339	80.005	19.994	103.324	20.055	11.460	0.564
408.000	270.265	80.007	19.995	103.325	20.064	10.914	0.498
410.000	271.504	80.007	19.995	103.326	20.076	10.119	0.452
412.000	272.541	80.008	19.996	103.327	20.081	9.738	0.483
414.000	273.498	80.007	19.994	103.327	20.087	9.396	0.474
416.000	274.498	80.008	19.994	103.336	20.092	9.024	0.467
418.000	275.520	80.008	19.995	103.340	20.100	8.485	0.530
420.000	276.522	80.007	19.995	103.338	20.114	7.616	0.503
422.000	277.488	80.006	19.996	103.354	20.112	7.693	0.497
424.000	278.525	80.004	19.996	103.357	20.118	7.299	0.483
426.000	279.539	80.005	19.996	103.352	20.125	6.889	0.487
428.000	280.570	80.003	19.995	103.365	20.126	6.788	0.503
430.000	281.514	80.005	19.995	103.364	20.126	6.802	0.484
432.000	282.559	80.005	19.995	103.364	20.134	6.276	0.495
434.000	283.588	80.006	19.996	103.367	20.135	6.162	0.506
436.000	284.576	80.006	19.993	103.367	20.137	6.063	0.503
438.000	285.528	80.004	19.995	103.366	20.143	5.655	0.493
440.000	286.547	80.006	19.994	103.361	20.148	5.357	0.489
442.000	287.557	80.005	19.994	103.360	20.147	5.370	0.514
444.000	288.526	80.005	19.994	103.349	20.151	5.121	0.508
446.000	289.528	80.006	19.993	103.333	20.151	5.153	0.486
448.000	290.514	80.005	19.993	103.326	20.152	5.034	0.473
450.000	291.539	80.006	19.994	103.329	20.153	4.980	0.527
452.000	292.564	80.006	19.994	103.328	20.157	4.703	0.494
454.000	293.531	80.006	19.995	103.312	20.158	4.644	0.500
456.000	294.521	80.004	19.995	103.293	20.163	4.322	0.524
458.000	295.506	80.003	19.995	103.294	20.168	4.035	0.496
460.000	296.514	80.004	19.995	103.284	20.164	4.249	0.508
462.000	297.462	80.004	19.994	103.270	20.163	4.331	0.474
464.000	298.459	80.004	19.994	103.273	20.169	3.928	0.465
466.000	299.412	80.004	19.994	103.258	20.168	4.021	0.496
468.000	300.386	80.005	19.993	103.252	20.170	3.861	0.479
470.000	301.384	80.007	19.994	103.253	20.174	3.578	0.492
472.000	302.329	80.007	19.994	103.250	20.174	3.630	0.526
474.000	303.272	80.007	19.995	103.249	20.176	3.479	0.487
476.000	304.222	80.006	19.994	103.247	20.177	3.395	0.460
478.000	305.175	80.006	19.994	103.248	20.173	3.675	0.448
480.000	306.178	80.006	19.994	103.248	20.176	3.490	0.468
482.000	307.163	80.006	19.994	103.249	20.178	3.336	0.506
484.000	308.126	80.006	19.995	103.248	20.180	3.230	0.521
486.000	309.063	80.006	19.994	103.245	20.180	3.203	0.451
488.000	310.040	80.005	19.994	103.249	20.177	3.404	0.505
490.000	311.010	80.007	19.995	103.248	20.179	3.280	0.469
492.000	312.002	80.007	19.995	103.248	20.175	3.531	0.495
494.000	312.977	80.008	19.995	103.248	20.178	3.359	0.494
496.000	313.966	80.007	19.994	103.248	20.177	3.422	0.515
498.000	314.931	80.008	19.994	103.253	20.181	3.164	0.457
500.000	315.884	80.007	19.995	103.252	20.184	2.942	0.487
502.000	316.902	80.008	19.994	103.254	20.180	3.233	0.495
504.000	317.854	80.007	19.994	103.253	20.179	3.247	0.500
506.000	318.859	80.006	19.994	103.258	20.181	3.168	0.488
508.000	319.850	80.005	19.994	103.256	20.178	3.366	0.474
510.000	320.891	80.003	19.995	103.267	20.183	3.022	0.522
512.000	321.900	80.004	19.997	103.276	20.182	3.096	0.518
514.000	322.921	80.004	19.996	103.274	20.181	3.137	0.508
516.000	323.922	80.005	19.997	103.256	20.177	3.435	0.517
518.000	324.957	80.003	19.995	103.275	20.178	3.351	0.509
520.000	325.983	80.004	19.996	103.273	20.182	3.078	0.524
522.000	327.039	80.005	19.995	103.271	20.176	3.453	0.523
524.000	328.049	80.003	19.995	103.277	20.178	3.338	0.512
526.000	329.061	80.004	19.995	103.272	20.173	3.682	0.501
528.000	330.093	80.005	19.994	103.267	20.181	3.146	0.508
530.000	331.103	80.006	19.994	103.265	20.179	3.288	0.515
532.000	332.147	80.005	19.994	103.269	20.174	3.618	0.518
534.000	333.186	80.005	19.995	103.275	20.180	3.221	0.533
536.000	334.232	80.004	19.994	103.266	20.183	3.026	0.550
538.000	335.264	80.005	19.995	103.261	20.178	3.354	0.530
540.000	336.294	80.004	19.993	103.264	20.179	3.278	0.538
542.000	337.338	80.005	19.995	103.258	20.182	3.047	0.544
544.000	338.393	80.006	19.994	103.254	20.184	2.947	0.525
546.000	339.370	80.006	19.994	103.252	20.182	3.076	0.513
548.000	340.407	80.006	19.995	103.260	20.180	3.223	0.523
550.000	341.469	80.005	19.996	103.260	20.179	3.277	0.520
552.000	342.460	80.007	19.995	103.253	20.181	3.164	0.490
554.000	343.458	80.008	19.995	103.250	20.176	3.458	0.507
556.000	344.531	80.008	19.995	103.251	20.178	3.320	0.529
558.000	345.525	80.007	19.995	103.260	20.182	3.095	0.473
560.000	346.576	80.008	19.996	103.258	20.179	3.250	0.502
562.000	347.597	80.007	19.995	103.251	20.179	3.309	0.517
564.000	348.585	80.006	19.996	103.252	20.181	3.160	0.490
566.000	349.605	80.006	19.995	103.251	20.176	3.458	0.499
568.000	350.632	80.006	19.994	103.251	20.174	3.580	0.503
570.000	351.643	80.006	19.995	103.253	20.182	3.061	0.510
572.000	352.631	80.006	19.994	103.256	20.180	3.201	0.491
574.000	353.715	80.006	19.994	103.253	20.180	3.219	0.545
576.000	354.636	80.006	19.994	103.248	20.178	3.351	0.494
578.000	355.663	80.006	19.994	103.251	20.180	3.216	0.525
580.000	356.587	80.007	19.994	103.248	20.180	3.205	0.467
582.000	357.615	80.007	19.994	103.238	20.177	3.418	0.501
584.000	358.596	80.007	19.994	103.248	20.179	3.287	0.509
586.000	359.603	80.006	19.994	103.237	20.180	3.183	0.540
588.000	360.557	80.006	19.996	103.243	20.176	3.474	0.493
590.000	361.483	80.004	19.995	103.249	20.180	3.210	0.460
592.000	362.472	80.004	19.996	103.250	20.182	3.050	0.470
594.000	363.461	80.004	19.995	103.251	20.178	3.343	0.507
596.000	364.414	80.004	19.994	103.236	20.179	3.250	0.440
598.000	365.378	80.004	19.995	103.240	20.181	3.149	0.482
600.000	366.336	80.004	19.995	103.241	20.176	3.479	0.495
602.000	367.309	80.006	19.995	103.235	20.182	3.097	0.469
604.000	368.268	80.007	19.994	103.242	20.179	3.267	0.483
606.000	369.289	80.005	19.995	103.244	20.175	3.516	0.491
608.000	370.176	80.005	19.995	103.248	20.174	3.599	0.465
610.000	371.189	80.005	19.994	103.242	20.177	3.418	0.470
612.000	372.155	80.005	19.996	103.249	20.174	3.590	0.462
614.000	373.112	80.004	19.995	103.246	20.176	3.500	0.467
616.000	374.098	80.003	19.996	103.232	20.177	3.389	0.472
618.000	375.077	80.005	19.996	103.235	20.179	3.267	0.481
620.000	376.030	80.004	19.995	103.243	20.176	3.463	0.492
622.000	376.980	80.005	19.996	103.245	20.172	3.766	0.456
624.000	377.960	80.004	19.995	103.238	20.175	3.574	0.469
626.000	378.945	80.005	19.995	103.243	20.172	3.719	0.513
628.000	379.913	80.006	19.994	103.241	20.168	3.981	0.528
630.000	380.858	80.005	19.996	103.243	20.173	3.703	0.487
632.000	381.870	80.006	19.995	103.244	20.166	4.123	0.477
634.000	382.827	80.006	19.994	103.236	20.173	3.700	0.495
636.000	383.779	80.006	19.993	103.243	20.169	3.926	0.485
638.000	384.740	80.007	19.994	103.250	20.171	3.803	0.494
640.000	385.696	80.006	19.994	103.238	20.170	3.892	0.489
642.000	386.658	80.006	19.995	103.247	20.166	4.162	0.459
644.000	387.641	80.006	19.994	103.241	20.166	4.138	0.487
646.000	388.631	80.006	19.995	103.248	20.165	4.229	0.503
648.000	389.638	80.007	19.995	103.236	20.163	4.338	0.512
650.000	390.579	80.006	19.994	103.245	20.164	4.262	0.477
652.000	391.633	80.006	19.994	103.251	20.154	4.935	0.493
654.000	392.604	80.006	19.994	103.247	20.159	4.625	0.495
656.000	393.613	80.005	19.995	103.254	20.160	4.503	0.495
658.000	394.642	80.008	19.994	103.245	20.157	4.707	0.525
660.000	395.621	80.008	19.993	103.227	20.157	4.704	0.486
662.000	396.646	80.009	19.993	103.238	20.151	5.159	0.524
664.000	397.610	80.010	19.994	103.245	20.158	4.675	0.489
666.000	398.626	80.007	19.994	103.241	20.152	5.057	0.498
668.000	399.616	80.007	19.993	103.237	20.147	5.367	0.525
670.000	400.640	80.007	19.994	103.246	20.149	5.238	0.503
672.000	401.664	80.006	19.995	103.240	20.150	5.209	0.546
674.000	402.653	80.006	19.995	103.238	20.148	5.336	0.525
676.000	403.691	80.007	19.994	103.238	20.144	5.575	0.503
678.000	404.698	80.005	19.994	103.236	20.143	5.679	0.496
680.000	405.747	80.004	19.995	103.238	20.140	5.888	0.516
682.000	406.730	80.006	19.994	103.235	20.140	5.874	0.494
684.000	407.806	80.005	19.995	103.228	20.139	5.890	0.511
686.000	408.795	80.005	19.996	103.230	20.137	6.045	0.502
688.000	409.810	80.006	19.995	103.244	20.138	6.020	0.499
690.000	410.882	80.006	19.996	103.229	20.134	6.261	0.533
692.000	411.865	80.006	19.995	103.234	20.136	6.125	0.496
694.000	412.896	80.005	19.995	103.222	20.132	6.379	0.501
696.000	413.933	80.005	19.995	103.226	20.128	6.680	0.494
698.000	414.954	80.005	19.995	103.238	20.127	6.734	0.550
700.000	415.954	80.006	19.995	103.232	20.125	6.870	0.489
702.000	416.965	80.006	19.996	103.231	20.116	7.454	0.502
704.000	418.009	80.004	19.996	103.241	20.113	7.612	0.505
706.000	419.049	80.003	19.996	103.244	20.108	7.961	0.486
708.000	420.063	80.005	19.996	103.244	20.108	7.961	0.514
710.000	421.143	80.004	19.996	103.242	20.105	8.181	0.521
712.000	422.133	80.004	19.996	103.234	20.096	8.734	0.522
714.000	423.156	80.004	19.996	103.231	20.098	8.659	0.529
716.000	424.123	80.003	19.995	103.229	20.090	9.174	0.471
718.000	425.157	80.005	19.994	103.223	20.090	9.141	0.497
720.000	426.209	80.007	19.994	103.222	20.086	9.429	0.531
722.000	427.196	80.006	19.995	103.215	20.083	9.643	0.496
724.000	428.194	80.006	19.994	103.232	20.081	9.771	0.490
726.000	429.211	80.005	19.993	103.225	20.075	10.130	0.506
728.000	430.243	80.005	19.994	103.220	20.071	10.441	0.490
730.000	431.267	80.006	19.994	103.236	20.057	11.320	0.523
732.000	432.301	80.005	19.994	103.230	20.060	11.163	0.514
734.000	433.305	80.005	19.993	103.227	20.050	11.806	0.483
736.000	434.316	80.006	19.996	103.220	20.051	11.771	0.513
738.000	435.370	80.006	19.995	103.233	20.040	12.498	0.527
740.000	436.354	80.007	19.995	103.233	20.038	12.588	0.486
742.000	437.371	80.008	19.995	103.229	20.031	13.063	0.513
744.001	438.362	80.008	19.994	103.220	20.022	13.659	0.502
746.000	439.387	80.009	19.994	103.213	20.023	13.568	0.523
748.000	440.432	80.009	19.993	103.219	20.019	13.825	0.526
750.000	441.441	80.008	19.995	103.235	20.015	14.103	0.506
752.000	442.379	80.006	19.993	103.228	19.999	15.198	0.454
754.000	443.472	80.006	19.994	103.219	19.992	15.652	0.524
756.000	444.452	80.006	19.993	103.226	19.990	15.799	0.496
758.000	445.516	80.005	19.994	103.219	19.983	16.217	0.505
760.000	446.496	80.006	19.995	103.221	19.975	16.768	0.514
762.000	447.484	80.006	19.995	103.217	19.972	16.972	0.489
764.000	448.498	80.005	19.994	103.217	19.970	17.102	0.491
766.000	449.552	80.007	19.995	103.223	19.960	17.730	0.496
768.000	450.544	80.005	19.995	103.227	19.958	17.862	0.500
770.000	451.550	80.004	19.993	103.228	19.954	18.152	0.515
772.000	452.523	80.005	19.994	103.229	19.946	18.698	0.507
774.000	453.516	80.008	19.996	103.222	19.946	18.708	0.492
776.000	454.526	80.006	19.995	103.223	19.938	19.214	0.485
778.000	455.572	80.007	19.996	103.225	19.941	19.032	0.519
780.000	456.530	80.005	19.995	103.230	19.933	19.519	0.465
782.000	457.535	80.006	19.995	103.221	19.937	19.254	0.459
784.000	458.544	80.004	19.995	103.220	19.924	20.119	0.474
786.000	459.571	80.003	19.994	103.233	19.928	19.869	0.526
788.000	460.540	80.004	19.995	103.223	19.932	19.640	0.495
790.000	461.595	80.005	19.994	103.222	19.930	19.715	0.518
792.000	462.586	80.006	19.994	103.220	19.935	19.429	0.517
794.000	463.547	80.007	19.995	103.240	19.932	19.624	0.488
796.000	464.585	80.006	19.996	103.223	19.936	19.369	0.505
798.000	465.622	80.006	19.994	103.218	19.932	19.634	0.525
800.000	466.574	80.006	19.995	103.228	19.936	19.328	0.518
802.000	467.573	80.008	19.996	103.224	19.943	18.892	0.505
804.000	468.606	80.008	19.996	103.222	19.947	18.601	0.496
806.000	469.662	80.006	19.996	103.215	19.950	18.432	0.507
808.000	470.637	80.007	19.996	103.213	19.955	18.112	0.508
810.000	471.692	80.007	19.996	103.212	19.957	17.945	0.499
812.000	472.692	80.006	19.994	103.214	19.958	17.883	0.503
814.000	473.717	80.006	19.994	103.220	19.968	17.226	0.535
816.000	474.798	80.007	19.995	103.215	19.969	17.181	0.532
818.000	475.765	80.008	19.995	103.228	19.977	16.648	0.511
820.000	476.789	80.008	19.995	103.216	19.986	16.040	0.501
822.000	477.790	80.007	19.995	103.218	19.988	15.939	0.513
824.000	478.764	80.007	19.994	103.225	20.000	15.114	0.513
826.000	479.759	80.008	19.994	103.222	19.997	15.297	0.494
828.000	480.852	80.009	19.994	103.212	20.008	14.567	0.538
830.000	481.820	80.008	19.994	103.214	20.016	14.048	0.521
832.000	482.847	80.010	19.994	103.219	20.023	13.586	0.519
834.000	483.819	80.007	19.994	103.216	20.030	13.129	0.494
836.000	484.826	80.006	19.994	103.231	20.034	12.891	0.504
838.000	485.861	80.006	19.996	103.223	20.043	12.302	0.477
840.000	486.875	80.004	19.993	103.220	20.053	11.634	0.538
842.000	487.866	80.006	19.996	103.219	20.059	11.231	0.509
844.000	488.846	80.005	19.994	103.214	20.065	10.785	0.481
846.000	489.915	80.006	19.994	103.218	20.068	10.599	0.519
848.000	490.864	80.004	19.994	103.230	20.083	9.653	0.474
850.000	491.908	80.005	19.994	103.223	20.086	9.445	0.515
852.000	492.892	80.006	19.995	103.218	20.089	9.219	0.502
854.000	493.985	80.008	19.996	103.223	20.097	8.673	0.514
856.000	495.010	80.007	19.994	103.227	20.102	8.388	0.512
858.000	495.969	80.007	19.995	103.227	20.109	7.915	0.488
860.000	497.031	80.006	19.994	103.223	20.112	7.675	0.469
862.000	498.026	80.006	19.996	103.223	20.120	7.210	0.506
864.000	499.018	80.006	19.994	103.215	20.128	6.639	0.496
866.000	500.021	80.006	19.995	103.215	20.132	6.399	0.506
868.000	501.064	80.004	19.995	103.236	20.142	5.739	0.502
870.000	502.087	80.004	19.996	103.225	20.142	5.733	0.505
872.000	503.093	80.003	19.996	103.225	20.142	5.702	0.509
874.000	504.099	80.005	19.995	103.223	20.149	5.259	0.533
876.000	505.117	80.006	19.995	103.221	20.152	5.054	0.516
878.000	506.122	80.006	19.995	103.218	20.153	5.026	0.516
880.000	507.176	80.006	19.995	103.223	20.155	4.851	0.530
882.000	508.180	80.006	19.995	103.217	20.158	4.642	0.538
884.000	509.168	80.006	19.994	103.235	20.159	4.627	0.486
886.000	510.193	80.006	19.993	103.221	20.159	4.597	0.479
888.000	511.222	80.007	19.995	103.222	20.161	4.452	0.502
890.000	512.220	80.006	19.995	103.218	20.167	4.056	0.503
892.000	513.220	80.007	19.995	103.213	20.167	4.059	0.514
894.000	514.211	80.007	19.995	103.220	20.167	4.067	0.493
896.000	515.252	80.006	19.995	103.222	20.168	3.993	0.503
898.000	516.322	80.006	19.995	103.224	20.172	3.768	0.528
900.000	517.296	80.005	19.996	103.225	20.168	3.978	0.505
902.000	518.312	80.007	19.995	103.223	20.168	3.976	0.533
904.000	519.311	80.006	19.994	103.225	20.176	3.454	0.480
906.000	520.345	80.007	19.995	103.228	20.174	3.608	0.496
908.000	521.412	80.006	19.995	103.245	20.176	3.465	0.522
910.000	522.403	80.009	19.995	103.241	20.174	3.613	0.527
912.000	523.462	80.008	19.993	103.242	20.179	3.305	0.511
914.000	524.429	80.008	19.993	103.240	20.176	3.447	0.494
916.000	525.463	80.006	19.993	103.223	20.174	3.597	0.513
918.000	526.462	80.006	19.994	103.240	20.176	3.445	0.509
920.000	527.507	80.007	19.993	103.234	20.177	3.380	0.524
922.000	528.509	80.006	19.994	103.230	20.179	3.271	0.497
924.000	529.513	80.005	19.994	103.232	20.176	3.495	0.509
926.000	530.565	80.005	19.994	103.238	20.176	3.486	0.504
928.000	531.574	80.005	19.995	103.240	20.177	3.393	0.481
930.000	532.621	80.005	19.994	103.241	20.178	3.357	0.508
932.000	533.640	80.006	19.994	103.242	20.176	3.445	0.501
934.000	534.646	80.006	19.995	103.247	20.180	3.208	0.497
936.000	535.713	80.006	19.996	103.247	20.175	3.565	0.519
938.000	536.748	80.005	19.994	103.240	20.179	3.266	0.520
940.000	537.761	80.006	19.995	103.241	20.176	3.492	0.533
942.000	538.793	80.007	19.996	103.243	20.181	3.174	0.519
944.000	539.847	80.007	19.995	103.247	20.177	3.406	0.546
946.000	540.854	80.005	19.995	103.247	20.181	3.165	0.490
948.000	541.894	80.006	19.994	103.248	20.181	3.131	0.527
950.000	542.897	80.006	19.995	103.250	20.176	3.490	0.501
952.000	543.927	80.005	19.995	103.250	20.182	3.079	0.520
954.000	544.912	80.006	19.994	103.249	20.177	3.429	0.507
956.000	545.974	80.005	19.994	103.250	20.187	2.776	0.552
958.000	546.965	80.004	19.994	103.249	20.182	3.088	0.506
960.000	547.995	80.005	19.994	103.252	20.181	3.149	0.553
962.000	549.023	80.005	19.993	103.252	20.183	3.036	0.525
964.000	550.021	80.006	19.995	103.252	20.175	3.517	0.523
966.000	551.059	80.007	19.996	103.250	20.179	3.292	0.508
968.000	551.986	80.006	19.994	103.247	20.179	3.302	0.509
970.000	553.016	80.006	19.995	103.249	20.181	3.128	0.509
972.000	554.046	80.007	19.996	103.250	20.180	3.232	0.513
974.000	555.054	80.007	19.995	103.251	20.179	3.250	0.489
976.000	556.050	80.006	19.995	103.245	20.183	2.987	0.488
978.000	557.036	80.004	19.995	103.246	20.179	3.300	0.489
980.000	558.078	80.006	19.994	103.265	20.182	3.073	0.487
982.000	559.088	80.006	19.995	103.266	20.178	3.349	0.513
984.000	560.161	80.006	19.995	103.261	20.179	3.304	0.505
986.000	561.210	80.006	19.994	103.276	20.181	3.121	0.561
988.000	562.284	80.008	19.995	103.266	20.178	3.321	0.544
990.000	563.361	80.007	19.997	103.263	20.182	3.061	0.526
992.000	564.446	80.008	19.996	103.278	20.175	3.574	0.542
994.000	565.512	80.009	19.995	103.267	20.180	3.178	0.553
996.000	566.608	80.008	19.996	103.262	20.175	3.522	0.534
998.000	567.709	80.008	19.997	103.272	20.173	3.678	0.551
1000.000	568.829	80.007	19.997	103.283	20.178	3.373	0.543
1002.000	569.899	80.006	19.995	103.284	20.175	3.545	0.539
1004.000	571.038	80.006	19.996	103.266	20.179	3.294	0.549
1006.000	572.082	80.007	19.996	103.270	20.178	3.357	0.537
1008.000	573.222	80.005	19.994	103.287	20.175	3.565	0.566
1010.000	574.341	80.005	19.994	103.285	20.176	3.472	0.562
1012.000	575.466	80.007	19.994	103.286	20.178	3.316	0.552
1014.000	576.575	80.005	19.996	103.283	20.174	3.599	0.544
1016.000	577.656	80.006	19.995	103.287	20.175	3.511	0.510
1018.000	578.784	80.006	19.995	103.287	20.172	3.768	0.554
1020.000	579.913	80.007	19.995	103.288	20.173	3.672	0.586
1022.000	580.992	80.006	19.995	103.288	20.179	3.256	0.542
1024.000	582.086	80.007	19.994	103.290	20.178	3.355	0.560
1025.999	583.177	80.006	19.994	103.290	20.173	3.657	0.569
1027.999	584.267	80.006	19.996	103.287	20.174	3.583	0.539
1029.999	585.339	80.006	19.996	103.290	20.175	3.548	0.537
1031.999	586.471	80.005	19.995	103.282	20.176	3.463	0.556
1033.999	587.541	80.005	19.995	103.284	20.173	3.675	0.556
1035.999	588.669	80.006	19.995	103.277	20.176	3.492	0.552
1037.999	589.774	80.005	19.995	103.260	20.179	3.294	0.542
1039.999	590.848	80.006	19.994	103.255	20.178	3.310	0.556
1042.000	591.947	80.006	19.995	103.254	20.178	3.357	0.564
1044.000	593.002	80.007	19.996	103.246	20.182	3.071	0.524
1045.999	594.132	80.007	19.995	103.248	20.183	3.010	0.573
1047.999	595.198	80.007	19.994	103.246	20.179	3.295	0.546
1049.999	596.261	80.007	19.993	103.230	20.188	2.690	0.532
1051.999	597.405	80.009	19.995	103.236	20.185	2.898	0.578
1053.999	598.453	80.008	19.996	103.225	20.184	2.946	0.538
1055.999	599.534	80.008	19.994	103.228	20.182	3.082	0.556
1057.999	600.589	80.008	19.995	103.217	20.186	2.794	0.538
1060.000	601.634	80.007	19.996	103.226	20.188	2.648	0.527
1061.999	602.728	80.007	19.996	103.242	20.189	2.638	0.557
1063.999	603.744	80.007	19.996	103.224	20.185	2.894	0.520
1065.999	604.834	80.007	19.995	103.220	20.185	2.891	0.524
1067.999	605.834	80.008	19.995	103.225	20.183	3.030	0.483
1069.999	606.930	80.007	19.995	103.228	20.190	2.573	0.487
1071.999	607.938	80.007	19.994	103.226	20.185	2.887	0.526
1074.000	608.956	80.009	19.994	103.231	20.186	2.845	0.529
1075.999	610.048	80.009	19.995	103.234	20.183	2.984	0.536
1077.999	611.093	80.009	19.995	103.233	20.184	2.955	0.531
1079.999	612.101	80.008	19.994	103.231	20.186	2.844	0.501
1081.999	613.148	80.008	19.996	103.222	20.186	2.796	0.507
1083.999	614.170	80.007	19.995	103.226	20.185	2.891	0.500
1085.999	615.231	80.007	19.995	103.223	20.188	2.702	0.525
1088.000	616.272	80.005	19.995	103.245	20.184	2.954	0.517
1089.999	617.259	80.004	19.996	103.243	20.192	2.450	0.516
1091.999	618.292	80.005	19.995	103.241	20.184	2.927	0.531
1093.999	619.276	80.006	19.995	103.241	20.183	3.006	0.505
1095.999	620.307	80.005	19.995	103.239	20.187	2.740	0.527
1097.999	621.335	80.006	19.995	103.243	20.183	2.995	0.491
1099.999	622.306	80.005	19.995	103.249	20.182	3.092	0.514
1102.000	623.370	80.007	19.994	103.260	20.187	2.733	0.513
1103.999	624.334	80.006	19.994	103.256	20.178	3.317	0.479
1105.999	625.339	80.007	19.994	103.255	20.182	3.089	0.500
1107.999	626.308	80.007	19.995	103.255	20.181	3.153	0.500
1109.999	627.305	80.006	19.993	103.256	20.180	3.189	0.512
1111.999	628.313	80.006	19.993	103.263	20.174	3.629	0.477
1113.999	629.334	80.006	19.995	103.261	20.178	3.330	0.515
1115.999	630.331	80.005	19.995	103.271	20.182	3.047	0.476
1117.999	631.320	80.006	19.995	103.268	20.183	3.001	0.519
1119.999	632.336	80.005	19.995	103.274	20.178	3.329	0.489
1121.999	633.306	80.006	19.994	103.271	20.181	3.155	0.500
1123.999	634.325	80.006	19.995	103.288	20.180	3.195	0.497
1126.000	635.343	80.007	19.994	103.276	20.176	3.466	0.499
1127.999	636.372	80.007	19.995	103.270	20.178	3.314	0.531
1129.999	637.356	80.007	19.995	103.275	20.175	3.552	0.472
1131.999	638.381	80.007	19.995	103.275	20.172	3.726	0.498
1134.000	639.413	80.008	19.995	103.284	20.180	3.217	0.490
1135.999	640.394	80.008	19.994	103.287	20.174	3.633	0.501
1137.999	641.382	80.007	19.994	103.287	20.177	3.405	0.492
1139.999	642.389	80.005	19.993	103.289	20.174	3.588	0.476
1141.999	643.429	80.007	19.995	103.286	20.177	3.382	0.516
1143.999	644.406	80.007	19.995	103.292	20.179	3.303	0.482
1145.999	645.421	80.007	19.994	103.292	20.170	3.876	0.535
1147.999	646.429	80.006	19.994	103.291	20.171	3.829	0.500
1149.999	647.431	80.007	19.995	103.289	20.173	3.678	0.483
1151.999	648.442	80.006	19.994	103.294	20.171	3.835	0.522
1153.999	649.431	80.006	19.995	103.296	20.176	3.469	0.501
1155.999	650.443	80.008	19.995	103.291	20.174	3.594	0.514
1157.999	651.459	80.007	19.995	103.299	20.174	3.609	0.499
1159.999	652.447	80.009	19.995	103.302	20.173	3.694	0.510
1161.999	653.482	80.010	19.995	103.306	20.168	3.985	0.515
1164.000	654.482	80.009	19.995	103.314	20.166	4.159	0.514
1165.999	655.493	80.008	19.994	103.304	20.167	4.056	0.503
1167.999	656.497	80.006	19.994	103.319	20.166	4.126	0.496
1169.999	657.537	80.006	19.994	103.328	20.166	4.152	0.490
1172.000	658.509	80.006	19.996	103.331	20.164	4.239	0.509
1174.000	659.490	80.005	19.995	103.330	20.165	4.197	0.476
1175.999	660.531	80.005	19.995	103.333	20.164	4.294	0.524
1178.000	661.514	80.005	19.995	103.334	20.166	4.114	0.505
1179.999	662.543	80.004	19.996	103.335	20.165	4.228	0.494
1181.999	663.562	80.005	19.995	103.333	20.161	4.478	0.499
1183.999	664.547	80.005	19.995	103.334	20.163	4.363	0.488
1185.999	665.591	80.005	19.996	103.350	20.159	4.597	0.493
1188.000	666.587	80.005	19.996	103.345	20.160	4.536	0.523
1189.999	667.621	80.006	19.995	103.340	20.154	4.904	0.519
1192.000	668.579	80.006	19.995	103.362	20.156	4.811	0.512
1193.999	669.633	80.006	19.996	103.364	20.156	4.781	0.505
1195.999	670.610	80.005	19.995	103.372	20.150	5.177	0.493
1197.999	671.613	80.005	19.995	103.378	20.154	4.956	0.473
1200.000	672.683	80.006	19.994	103.375	20.153	5.037	0.523
1201.999	673.691	80.004	19.994	103.383	20.151	5.170	0.507
1203.999	674.680	80.006	19.995	103.390	20.150	5.217	0.488
1205.999	675.684	80.006	19.994	103.407	20.151	5.135	0.514
1207.999	676.691	80.007	19.994	103.412	20.149	5.259	0.496
1210.000	677.694	80.008	19.996	103.408	20.149	5.299	0.517
1212.000	678.691	80.007	19.995	103.417	20.141	5.780	0.468
1213.999	679.720	80.007	19.994	103.434	20.142	5.746	0.507
1215.999	680.734	80.007	19.994	103.433	20.143	5.697	0.514
1217.999	681.772	80.007	19.994	103.442	20.143	5.661	0.527
1219.999	682.755	80.008	19.994	103.442	20.138	6.012	0.496
1221.999	683.776	80.007	19.993	103.451	20.138	6.027	0.535
1224.000	684.792	80.006	19.994	103.447	20.139	5.953	0.483
1226.000	685.776	80.007	19.994	103.462	20.137	6.079	0.497
1228.000	686.813	80.008	19.993	103.464	20.141	5.790	0.497
1230.000	687.841	80.007	19.995	103.465	20.136	6.148	0.512
1231.999	688.857	80.006	19.994	103.483	20.135	6.225	0.499
1233.999	689.884	80.008	19.994	103.485	20.140	5.851	0.524
1235.999	690.957	80.008	19.994	103.486	20.133	6.362	0.527
1238.000	691.946	80.008	19.994	103.486	20.134	6.270	0.494
1240.000	692.963	80.009	19.995	103.488	20.132	6.406	0.494
1241.999	693.993	80.008	19.994	103.491	20.129	6.609	0.492
1243.999	694.993	80.008	19.994	103.488	20.129	6.593	0.502
1245.999	696.032	80.007	19.994	103.495	20.125	6.892	0.508
1248.000	697.075	80.008	19.994	103.492	20.124	6.905	0.519
1249.999	698.094	80.008	19.995	103.502	20.124	6.932	0.488
1251.999	699.113	80.007	19.996	103.520	20.124	6.930	0.501
1253.999	700.093	80.008	19.995	103.514	20.126	6.798	0.502
1255.999	701.100	80.006	19.995	103.522	20.128	6.695	0.482
1257.999	702.117	80.006	19.994	103.524	20.122	7.078	0.497
1259.999	703.108	80.005	19.995	103.523	20.120	7.186	0.495
1261.999	704.131	80.006	19.995	103.523	20.116	7.453	0.518
1263.999	705.121	80.006	19.994	103.530	20.119	7.246	0.515
1265.999	706.137	80.006	19.994	103.536	20.117	7.388	0.528
1267.999	707.127	80.007	19.995	103.543	20.115	7.516	0.497
1269.999	708.072	80.005	19.995	103.555	20.117	7.431	0.452
1271.999	709.141	80.006	19.995	103.557	20.111	7.797	0.517
1273.999	710.144	80.005	19.996	103.564	20.114	7.614	0.509
1276.000	711.127	80.005	19.996	103.562	20.113	7.682	0.511
1277.999	712.147	80.005	19.997	103.564	20.113	7.698	0.501
1279.999	713.118	80.004	19.996	103.565	20.111	7.825	0.481
1281.999	714.128	80.006	19.996	103.571	20.112	7.721	0.473
1283.999	715.174	80.004	19.996	103.571	20.109	7.945	0.525
1285.999	716.189	80.005	19.995	103.570	20.110	7.855	0.519
1287.999	717.218	80.007	19.994	103.575	20.107	8.081	0.507
1289.999	718.208	80.005	19.994	103.581	20.109	7.942	0.515
1292.000	719.203	80.007	19.995	103.584	20.107	8.039	0.498
1294.000	720.213	80.007	19.994	103.569	20.107	8.059	0.491
1295.999	721.249	80.006	19.994	103.579	20.105	8.195	0.526
1297.999	722.273	80.007	19.994	103.568	20.108	8.003	0.535
1299.999	723.267	80.009	19.995	103.567	20.107	8.057	0.514
1301.999	724.313	80.008	19.994	103.563	20.109	7.936	0.543
1303.999	725.332	80.006	19.995	103.558	20.109	7.898	0.512
1305.999	726.356	80.007	19.995	103.532	20.110	7.880	0.535
1307.999	727.419	80.006	19.993	103.522	20.114	7.599	0.521
1309.999	728.451	80.006	19.994	103.501	20.118	7.292	0.529
1311.999	729.503	80.007	19.995	103.478	20.123	6.959	0.530
1313.999	730.559	80.006	19.994	103.447	20.129	6.571	0.544
1315.999	731.598	80.008	19.994	103.419	20.131	6.430	0.502
1317.999	732.625	80.009	19.994	103.396	20.137	6.044	0.473
1319.999	733.743	80.008	19.994	103.363	20.144	5.566	0.554
1321.999	734.784	80.009	19.995	103.334	20.148	5.307	0.525
1324.000	735.829	80.009	19.995	103.297	20.154	4.950	0.503
1326.000	736.907	80.009	19.993	103.266	20.158	4.658	0.529
1328.000	737.927	80.009	19.993	103.249	20.163	4.320	0.514
1330.000	738.971	80.008	19.994	103.243	20.167	4.048	0.522
1332.000	740.023	80.007	19.994	103.236	20.174	3.602	0.519
1334.000	741.087	80.007	19.995	103.215	20.174	3.637	0.551
1336.000	742.103	80.007	19.996	103.212	20.176	3.471	0.558
1338.000	743.116	80.004	19.995	103.210	20.172	3.709	0.519
1339.000	743.652	80.006	19.996	103.206	20.179	3.295	0.520