File: 01_Data/Nylon_Carpet_High_Pile/MCC/Nylon_Carpet_High_Pile_MCC_30K_min_211027_R2.txt
Sample ID:	C:\MCC\MCC Cal\Test\Nylon_Carpet_HighPile_MCC_30K_min_211027_R2.txt
Sample Weight (mg):	4.14
Heating Rate (C/s):	1
Combustor Temp (C):	900
N2 Flow Rate (cc/min):	80
O2 Flow Rate (cc/min):	20
Calibration File:	C:\MCC\MCC Cal\Coeff1 JN10440_30_210304.txt.txt
T Correction Coefficients:	0	1.024463	0
Time Shift (s):	14
*
Time (s)	Temperature (C)	N2 flow rate (cc/min)	O2 flow rate (cc/min)	Flow Rate (cc/min)	Oxygen (%)	HRR (W/g)	Heating rate (C/s)
0.000	108.464	80.001	19.995	103.045	20.031	0.333	-0.000
1.000	108.468	80.001	19.995	103.045	20.031	0.303	0.001
2.000	108.450	80.002	19.995	103.051	20.031	0.311	0.010
3.000	108.434	80.001	19.996	103.050	20.032	0.241	-0.026
4.000	108.438	80.001	19.994	103.053	20.032	0.260	-0.004
5.000	108.443	80.001	19.996	103.055	20.031	0.305	0.015
6.000	108.420	80.000	19.996	103.047	20.032	0.286	-0.027
7.000	108.450	80.001	19.996	103.052	20.031	0.320	0.014
8.000	108.392	80.000	19.994	103.070	20.027	0.634	-0.030
9.000	108.419	80.001	19.995	103.094	20.024	0.846	-0.005
10.000	108.396	80.000	19.995	103.110	20.027	0.682	0.007
11.000	108.446	80.000	19.995	103.128	20.022	1.064	0.037
12.000	108.453	80.000	19.996	103.159	20.019	1.244	-0.007
13.000	108.480	80.000	19.995	103.188	20.015	1.571	0.034
14.000	108.502	80.001	19.997	103.214	20.013	1.766	0.021
15.000	108.506	80.000	19.995	103.237	20.009	2.050	0.007
16.000	108.591	80.001	19.995	103.257	20.006	2.283	0.071
17.000	108.616	80.002	19.995	103.265	20.000	2.740	0.045
18.000	108.743	80.002	19.995	103.269	19.998	2.901	0.092
19.000	108.815	80.001	19.995	103.287	19.994	3.196	0.061
20.000	108.892	80.000	19.996	103.316	19.993	3.295	0.094
21.000	109.045	80.001	19.995	103.344	19.983	4.060	0.132
22.000	109.139	80.003	19.996	103.361	19.990	3.545	0.110
23.000	109.300	80.002	19.995	103.377	19.983	4.105	0.141
24.000	109.452	80.001	19.994	103.384	19.979	4.417	0.161
25.000	109.609	80.002	19.995	103.393	19.975	4.686	0.157
26.000	109.876	80.001	19.996	103.402	19.978	4.474	0.232
27.000	110.011	80.004	19.995	103.399	19.973	4.863	0.200
28.000	110.239	80.002	19.996	103.387	19.968	5.220	0.187
29.000	110.474	80.002	19.996	103.390	19.969	5.143	0.224
30.000	110.705	80.001	19.995	103.404	19.967	5.311	0.229
31.000	111.025	80.001	19.997	103.416	19.968	5.212	0.311
32.001	111.290	80.001	19.997	103.419	19.968	5.259	0.246
33.000	111.559	80.000	19.996	103.419	19.963	5.626	0.261
34.000	111.818	80.001	19.996	103.417	19.967	5.303	0.270
35.001	112.106	80.001	19.996	103.405	19.972	4.899	0.290
36.001	112.509	79.999	19.996	103.395	19.962	5.701	0.387
37.000	112.760	80.000	19.995	103.392	19.962	5.704	0.267
38.000	113.048	79.999	19.995	103.391	19.967	5.317	0.328
39.001	113.409	80.000	19.995	103.390	19.967	5.309	0.331
40.001	113.800	80.000	19.995	103.402	19.963	5.619	0.378
41.000	114.159	79.999	19.995	103.415	19.966	5.405	0.361
42.000	114.559	80.000	19.995	103.411	19.966	5.403	0.403
43.001	114.910	80.001	19.995	103.399	19.965	5.462	0.322
44.000	115.377	80.001	19.995	103.391	19.967	5.358	0.484
45.000	115.695	79.999	19.996	103.395	19.964	5.535	0.321
46.001	116.079	80.000	19.995	103.398	19.964	5.536	0.369
47.000	116.546	80.001	19.995	103.403	19.965	5.489	0.458
48.000	116.974	80.000	19.995	103.410	19.964	5.547	0.395
49.000	117.439	80.001	19.995	103.419	19.963	5.656	0.452
50.000	117.777	80.001	19.995	103.421	19.961	5.765	0.411
51.000	118.271	80.001	19.995	103.423	19.963	5.605	0.475
52.000	118.719	80.000	19.996	103.420	19.962	5.689	0.440
53.001	119.193	80.000	19.996	103.414	19.962	5.739	0.474
54.001	119.662	79.999	19.995	103.409	19.960	5.897	0.476
55.000	120.153	80.000	19.995	103.412	19.960	5.866	0.470
56.001	120.616	80.000	19.995	103.417	19.962	5.725	0.480
57.000	121.118	80.000	19.995	103.423	19.962	5.711	0.499
58.001	121.630	80.000	19.995	103.426	19.958	6.011	0.493
59.000	122.138	80.001	19.997	103.427	19.960	5.878	0.515
60.000	122.603	79.999	19.995	103.430	19.955	6.272	0.479
61.000	123.166	80.000	19.995	103.433	19.959	5.940	0.542
62.000	123.674	80.002	19.995	103.443	19.954	6.346	0.521
63.001	124.247	80.001	19.994	103.456	19.954	6.305	0.554
64.000	124.776	80.000	19.996	103.465	19.952	6.517	0.529
65.000	125.300	79.999	19.994	103.468	19.955	6.286	0.528
66.000	125.902	79.999	19.995	103.478	19.951	6.593	0.589
67.001	126.506	80.000	19.994	103.490	19.947	6.865	0.618
68.001	127.053	80.001	19.994	103.498	19.951	6.606	0.541
69.000	127.654	79.999	19.995	103.500	19.948	6.806	0.605
70.001	128.242	80.000	19.995	103.501	19.949	6.722	0.597
71.000	128.867	79.999	19.994	103.500	19.949	6.707	0.602
72.000	129.500	79.998	19.995	103.499	19.946	6.965	0.627
73.000	130.098	80.000	19.996	103.498	19.949	6.736	0.591
74.000	130.725	79.998	19.994	103.491	19.948	6.789	0.657
75.000	131.378	79.999	19.995	103.490	19.946	6.958	0.629
76.001	132.079	80.000	19.995	103.492	19.947	6.855	0.685
77.001	132.709	80.001	19.994	103.502	19.952	6.532	0.656
78.000	133.395	80.001	19.994	103.503	19.947	6.902	0.685
79.000	134.094	80.001	19.995	103.505	19.944	7.102	0.672
80.000	134.763	80.003	19.994	103.500	19.943	7.232	0.675
81.000	135.453	80.002	19.994	103.491	19.944	7.123	0.691
82.000	136.166	80.002	19.995	103.490	19.945	7.078	0.698
83.000	136.867	80.003	19.994	103.498	19.943	7.160	0.712
84.000	137.594	80.003	19.993	103.494	19.943	7.190	0.721
85.000	138.311	80.002	19.995	103.494	19.943	7.173	0.717
86.000	139.008	80.002	19.996	103.494	19.945	7.044	0.690
87.001	139.799	80.002	19.995	103.491	19.945	7.006	0.788
88.000	140.541	80.002	19.996	103.489	19.945	7.036	0.725
89.000	141.265	80.001	19.996	103.492	19.946	6.959	0.745
90.000	142.035	80.001	19.997	103.502	19.944	7.138	0.761
91.000	142.834	80.001	19.996	103.502	19.948	6.841	0.784
92.000	143.525	80.002	19.996	103.501	19.944	7.119	0.745
93.000	144.381	80.002	19.997	103.502	19.948	6.826	0.797
94.000	145.136	80.001	19.996	103.503	19.946	6.969	0.786
95.001	145.895	80.001	19.996	103.502	19.947	6.913	0.756
96.001	146.706	80.001	19.995	103.501	19.945	7.044	0.803
97.000	147.535	80.002	19.997	103.501	19.943	7.166	0.837
98.000	148.362	80.002	19.996	103.501	19.943	7.215	0.800
99.001	149.134	80.001	19.996	103.501	19.948	6.827	0.811
100.000	149.986	80.003	19.995	103.501	19.945	7.024	0.846
101.001	150.823	80.002	19.996	103.501	19.945	7.048	0.819
102.000	151.650	80.001	19.996	103.499	19.946	6.981	0.824
103.000	152.462	80.002	19.995	103.499	19.943	7.186	0.840
104.000	153.372	80.003	19.995	103.500	19.945	7.033	0.878
105.000	154.185	80.003	19.996	103.502	19.946	6.956	0.813
106.000	155.018	80.003	19.995	103.498	19.948	6.797	0.842
107.000	155.885	80.004	19.994	103.496	19.947	6.853	0.862
108.001	156.741	80.004	19.995	103.494	19.947	6.849	0.843
109.000	157.589	80.002	19.995	103.496	19.945	7.072	0.854
110.001	158.441	80.003	19.994	103.489	19.946	6.969	0.849
111.000	159.327	80.003	19.996	103.488	19.948	6.774	0.895
112.000	160.217	80.003	19.995	103.492	19.943	7.180	0.884
113.000	161.075	80.002	19.996	103.487	19.946	6.956	0.867
114.000	162.014	80.001	19.996	103.486	19.950	6.656	0.909
115.000	162.843	79.999	19.994	103.492	19.947	6.910	0.858
116.000	163.785	80.000	19.997	103.493	19.946	6.961	0.907
117.001	164.650	80.000	19.997	103.492	19.946	6.983	0.887
118.000	165.616	80.000	19.996	103.494	19.950	6.685	0.955
119.000	166.536	79.999	19.996	103.500	19.945	7.025	0.932
120.000	167.439	80.000	19.998	103.500	19.946	6.948	0.904
121.001	168.390	79.999	19.996	103.492	19.945	7.033	0.923
122.000	169.325	79.999	19.996	103.488	19.948	6.841	0.951
123.001	170.231	79.999	19.997	103.485	19.947	6.849	0.913
124.000	171.196	80.000	19.996	103.494	19.946	6.980	0.941
125.000	172.142	79.999	19.997	103.489	19.945	7.036	0.934
126.000	173.057	79.999	19.996	103.476	19.948	6.792	0.932
127.001	174.020	79.999	19.997	103.470	19.947	6.854	0.972
128.000	174.971	80.000	19.995	103.479	19.947	6.860	0.927
129.000	175.895	80.000	19.996	103.481	19.946	6.990	0.938
130.000	176.826	80.000	19.996	103.476	19.949	6.725	0.956
131.000	177.812	80.001	19.996	103.471	19.948	6.843	0.953
132.000	178.800	79.999	19.997	103.471	19.949	6.712	0.990
133.000	179.762	79.999	19.995	103.470	19.949	6.708	0.970
134.000	180.739	80.000	19.995	103.467	19.950	6.644	0.954
135.000	181.723	80.000	19.995	103.466	19.949	6.723	0.998
136.000	182.698	80.001	19.995	103.471	19.949	6.693	0.984
137.000	183.654	80.000	19.995	103.472	19.948	6.780	0.964
138.000	184.635	79.999	19.994	103.470	19.952	6.517	0.966
139.000	185.657	80.002	19.995	103.466	19.950	6.616	1.016
140.000	186.703	80.000	19.995	103.466	19.950	6.669	1.017
141.000	187.663	79.999	19.995	103.466	19.953	6.395	0.986
142.000	188.656	79.999	19.994	103.466	19.951	6.562	1.004
143.000	189.665	79.999	19.995	103.466	19.949	6.750	1.005
144.000	190.673	80.000	19.996	103.466	19.950	6.647	0.994
145.000	191.645	80.000	19.995	103.466	19.948	6.825	0.979
146.000	192.634	80.000	19.996	103.466	19.950	6.630	1.009
147.000	193.692	80.001	19.995	103.464	19.952	6.454	1.036
148.001	194.696	80.000	19.996	103.459	19.953	6.452	1.000
149.000	195.694	79.999	19.995	103.458	19.949	6.691	1.021
150.000	196.708	80.000	19.996	103.460	19.950	6.627	0.992
151.001	197.702	80.000	19.995	103.461	19.954	6.306	1.010
152.000	198.715	80.002	19.994	103.456	19.953	6.413	1.004
153.000	199.752	80.001	19.995	103.453	19.954	6.363	1.041
154.000	200.799	80.000	19.996	103.446	19.957	6.065	1.017
155.000	201.814	80.001	19.995	103.447	19.953	6.379	1.023
156.000	202.815	80.002	19.995	103.451	19.957	6.130	0.997
157.000	203.799	80.001	19.995	103.445	19.954	6.308	1.002
158.001	204.870	80.001	19.995	103.438	19.957	6.122	1.054
159.000	205.844	80.002	19.995	103.444	19.955	6.233	0.995
160.000	206.945	80.001	19.996	103.442	19.958	6.034	1.079
161.000	207.986	80.001	19.995	103.441	19.954	6.363	1.045
162.001	209.017	80.002	19.995	103.438	19.956	6.213	1.033
163.000	210.013	80.004	19.996	103.430	19.955	6.294	1.012
164.000	211.069	80.003	19.995	103.427	19.954	6.339	1.073
165.000	212.132	80.001	19.995	103.438	19.955	6.221	1.031
166.000	213.173	80.002	19.994	103.438	19.954	6.341	1.044
167.000	214.213	80.002	19.994	103.430	19.957	6.134	1.046
168.000	215.264	80.001	19.994	103.424	19.957	6.108	1.056
169.001	216.284	80.002	19.995	103.423	19.958	5.990	1.019
170.000	217.347	80.002	19.996	103.423	19.954	6.343	1.057
171.000	218.410	80.001	19.994	103.423	19.957	6.127	1.045
172.000	219.421	80.002	19.995	103.423	19.956	6.184	1.036
173.000	220.464	80.002	19.995	103.421	19.958	5.994	1.032
174.000	221.498	80.001	19.996	103.414	19.958	6.060	1.034
175.000	222.549	80.002	19.994	103.406	19.959	5.928	1.042
176.000	223.582	80.002	19.995	103.412	19.958	6.030	1.039
177.000	224.604	80.002	19.995	103.412	19.961	5.777	1.048
178.000	225.654	80.000	19.997	103.410	19.960	5.880	1.047
179.000	226.708	80.002	19.995	103.413	19.959	5.925	1.041
180.000	227.748	80.001	19.995	103.409	19.961	5.825	1.038
181.000	228.813	80.000	19.995	103.412	19.960	5.867	1.056
182.001	229.901	80.001	19.994	103.410	19.960	5.899	1.079
183.000	230.929	80.002	19.995	103.403	19.961	5.762	1.055
184.001	231.953	80.003	19.996	103.394	19.960	5.873	1.030
185.000	233.005	80.002	19.996	103.394	19.960	5.895	1.027
186.000	234.021	80.002	19.995	103.395	19.962	5.726	1.044
187.000	235.093	80.002	19.995	103.389	19.962	5.683	1.040
188.000	236.093	80.003	19.996	103.387	19.960	5.882	1.028
189.000	237.124	80.003	19.995	103.385	19.961	5.765	1.012
190.000	238.179	80.001	19.993	103.388	19.963	5.600	1.051
191.000	239.179	80.002	19.996	103.389	19.959	5.944	1.026
192.000	240.203	80.003	19.995	103.388	19.966	5.407	1.018
193.000	241.232	80.002	19.998	103.386	19.963	5.668	0.989
194.000	242.302	80.000	19.996	103.386	19.961	5.758	1.071
195.000	243.290	79.999	19.997	103.383	19.960	5.839	1.009
196.000	244.303	80.000	19.994	103.383	19.963	5.614	1.030
197.000	245.297	80.001	19.996	103.385	19.963	5.639	0.980
198.000	246.329	79.999	19.995	103.383	19.961	5.763	1.034
199.000	247.358	79.999	19.995	103.384	19.963	5.663	1.040
200.000	248.359	80.001	19.996	103.387	19.962	5.669	1.009
201.000	249.451	80.000	19.995	103.380	19.961	5.763	1.070
202.000	250.458	79.999	19.995	103.381	19.963	5.660	1.014
203.000	251.510	79.999	19.995	103.378	19.962	5.722	1.048
204.000	252.554	80.000	19.995	103.382	19.963	5.613	1.020
205.000	253.534	79.999	19.995	103.378	19.960	5.893	1.000
206.000	254.470	79.999	19.996	103.379	19.961	5.816	0.985
207.000	255.511	80.000	19.995	103.369	19.957	6.081	1.010
208.000	256.544	80.000	19.996	103.363	19.962	5.726	1.016
209.000	257.524	79.999	19.995	103.364	19.959	5.944	0.991
210.000	258.512	80.000	19.996	103.368	19.961	5.818	0.990
211.000	259.573	80.001	19.996	103.360	19.960	5.835	1.043
212.000	260.504	80.001	19.996	103.355	19.958	6.036	0.965
213.000	261.555	80.000	19.996	103.351	19.961	5.790	1.030
214.000	262.519	80.000	19.997	103.350	19.958	6.034	0.983
215.000	263.535	80.000	19.997	103.350	19.958	6.046	0.990
216.001	264.512	80.001	19.997	103.353	19.960	5.886	0.997
217.000	265.516	80.002	19.997	103.358	19.957	6.070	0.999
218.000	266.477	80.001	19.996	103.355	19.959	5.914	0.968
219.000	267.500	80.001	19.996	103.348	19.960	5.875	0.986
220.000	268.459	80.001	19.995	103.349	19.958	6.029	0.992
221.000	269.439	80.002	19.996	103.349	19.958	5.999	0.973
222.001	270.450	80.001	19.995	103.348	19.957	6.098	0.994
223.000	271.485	80.000	19.996	103.345	19.956	6.207	1.045
224.000	272.453	80.002	19.995	103.344	19.956	6.145	0.988
225.000	273.404	80.001	19.994	103.345	19.955	6.249	0.964
226.000	274.434	80.000	19.995	103.345	19.955	6.290	1.021
227.000	275.369	79.999	19.994	103.347	19.957	6.083	0.928
228.000	276.341	80.001	19.995	103.344	19.951	6.553	0.973
229.001	277.356	80.001	19.994	103.343	19.956	6.199	0.994
230.000	278.290	80.002	19.995	103.344	19.955	6.252	0.962
231.000	279.305	80.001	19.995	103.347	19.954	6.344	0.989
232.000	280.296	80.001	19.995	103.346	19.953	6.424	1.009
233.000	281.231	80.001	19.995	103.346	19.954	6.305	0.928
234.000	282.236	80.002	19.996	103.347	19.953	6.384	0.993
235.000	283.189	80.000	19.995	103.346	19.952	6.457	0.979
236.000	284.217	80.001	19.995	103.344	19.952	6.516	0.992
237.000	285.130	80.000	19.995	103.344	19.948	6.809	0.951
238.000	286.119	80.001	19.995	103.344	19.948	6.807	0.976
239.000	287.088	80.001	19.995	103.343	19.947	6.894	0.986
240.000	288.076	80.002	19.994	103.329	19.944	7.083	0.995
241.000	289.062	80.002	19.995	103.321	19.945	6.995	0.947
242.000	290.001	80.003	19.994	103.322	19.945	7.012	0.964
243.000	290.981	80.001	19.994	103.334	19.948	6.779	0.981
244.000	291.995	80.002	19.997	103.340	19.943	7.158	0.986
245.000	292.978	80.003	19.996	103.344	19.945	7.036	0.991
246.000	293.922	80.001	19.996	103.346	19.942	7.282	0.945
247.000	294.904	80.002	19.994	103.344	19.942	7.270	0.997
248.000	295.876	80.002	19.995	103.344	19.938	7.565	0.967
249.000	296.819	80.000	19.995	103.342	19.941	7.352	0.962
250.000	297.794	80.001	19.995	103.343	19.939	7.529	0.962
251.000	298.758	80.003	19.996	103.345	19.939	7.494	0.958
252.000	299.731	80.000	19.995	103.345	19.937	7.629	0.984
253.000	300.675	80.002	19.994	103.343	19.936	7.714	0.948
254.000	301.607	80.001	19.995	103.338	19.930	8.221	0.931
255.000	302.617	80.000	19.995	103.328	19.929	8.311	0.984
256.000	303.599	80.001	19.996	103.326	19.924	8.629	0.992
257.000	304.591	80.002	19.995	103.331	19.924	8.693	1.001
258.000	305.538	80.000	19.994	103.336	19.917	9.208	0.946
259.000	306.514	80.002	19.995	103.339	19.918	9.170	0.974
260.000	307.470	80.001	19.993	103.344	19.913	9.547	0.957
261.000	308.455	80.002	19.995	103.344	19.909	9.806	0.992
262.000	309.427	80.001	19.995	103.335	19.904	10.214	0.972
263.000	310.446	80.002	19.993	103.331	19.901	10.463	0.980
264.000	311.410	80.002	19.995	103.337	19.903	10.317	1.002
265.001	312.427	80.002	19.995	103.340	19.896	10.882	0.994
266.000	313.389	80.003	19.994	103.349	19.888	11.458	0.979
267.000	314.422	80.003	19.995	103.342	19.889	11.404	1.010
268.000	315.371	80.004	19.995	103.336	19.884	11.771	0.975
269.000	316.330	80.003	19.995	103.336	19.879	12.177	0.961
270.000	317.290	80.003	19.994	103.344	19.873	12.671	0.964
271.000	318.331	80.002	19.994	103.337	19.867	13.081	1.002
272.000	319.292	80.002	19.994	103.335	19.863	13.448	0.969
273.000	320.248	80.001	19.995	103.334	19.858	13.778	0.968
274.000	321.234	80.002	19.995	103.328	19.849	14.479	0.995
275.000	322.219	80.000	19.996	103.323	19.843	14.985	0.974
276.000	323.202	80.000	19.994	103.332	19.839	15.288	1.003
277.000	324.174	80.001	19.997	103.342	19.832	15.846	0.964
278.000	325.173	79.999	19.996	103.341	19.825	16.408	0.991
279.001	326.203	80.000	19.996	103.335	19.816	17.069	1.012
280.000	327.204	80.001	19.994	103.336	19.806	17.896	1.007
281.001	328.198	80.001	19.995	103.339	19.799	18.367	0.992
282.001	329.168	80.000	19.995	103.341	19.793	18.897	0.980
283.000	330.202	80.000	19.995	103.337	19.784	19.594	1.025
284.000	331.183	80.000	19.995	103.340	19.773	20.415	0.982
285.001	332.173	80.001	19.995	103.343	19.764	21.139	0.983
286.000	333.208	80.001	19.995	103.340	19.755	21.842	1.050
287.000	334.236	79.999	19.994	103.339	19.745	22.601	1.009
288.000	335.229	80.001	19.994	103.339	19.732	23.586	0.999
289.000	336.181	80.000	19.996	103.341	19.723	24.330	0.988
290.000	337.208	80.002	19.995	103.345	19.712	25.142	0.993
291.000	338.200	80.001	19.994	103.345	19.700	26.077	0.996
292.000	339.212	80.001	19.995	103.341	19.688	27.065	1.010
293.000	340.194	80.000	19.996	103.342	19.675	28.079	0.974
294.000	341.178	80.001	19.995	103.343	19.664	28.942	1.004
295.000	342.188	80.000	19.995	103.347	19.652	29.858	1.010
296.000	343.164	80.001	19.995	103.347	19.636	31.083	0.975
297.000	344.158	80.001	19.996	103.347	19.626	31.903	1.003
298.000	345.143	80.001	19.996	103.347	19.607	33.393	0.987
299.000	346.167	80.001	19.996	103.350	19.594	34.400	1.007
300.000	347.152	80.001	19.997	103.351	19.578	35.649	0.980
301.000	348.187	80.000	19.997	103.349	19.563	36.826	1.026
302.000	349.162	80.001	19.995	103.348	19.544	38.285	1.006
303.000	350.205	80.000	19.995	103.349	19.528	39.531	1.022
304.000	351.208	80.001	19.996	103.356	19.510	40.940	0.999
305.000	352.218	79.999	19.997	103.362	19.493	42.279	1.016
306.000	353.209	80.000	19.996	103.367	19.472	43.898	0.996
307.000	354.211	79.997	19.995	103.356	19.453	45.350	1.022
308.000	355.243	80.000	19.997	103.352	19.432	47.000	1.028
309.000	356.297	79.998	19.996	103.361	19.412	48.592	1.014
310.000	357.283	79.999	19.997	103.369	19.387	50.488	1.006
311.000	358.300	79.999	19.994	103.367	19.363	52.348	1.026
312.000	359.281	79.999	19.995	103.370	19.341	54.120	0.998
313.000	360.299	80.000	19.995	103.375	19.316	56.042	0.993
314.000	361.289	80.000	19.994	103.379	19.289	58.154	0.999
315.000	362.336	80.001	19.996	103.377	19.265	60.022	1.020
316.000	363.314	80.000	19.995	103.375	19.235	62.358	1.022
317.000	364.313	80.000	19.995	103.376	19.207	64.524	0.985
318.000	365.335	80.000	19.995	103.384	19.181	66.608	1.025
319.000	366.328	80.001	19.994	103.389	19.148	69.177	1.003
320.000	367.362	80.001	19.995	103.387	19.120	71.343	1.006
321.000	368.391	80.003	19.995	103.387	19.084	74.127	1.026
322.000	369.375	80.000	19.994	103.389	19.053	76.580	1.012
323.000	370.388	80.001	19.995	103.388	19.020	79.102	1.006
324.000	371.428	80.001	19.995	103.389	18.985	81.854	1.036
325.000	372.426	80.001	19.994	103.394	18.951	84.539	0.992
326.000	373.445	80.001	19.994	103.402	18.914	87.363	1.024
327.000	374.463	80.002	19.994	103.403	18.878	90.205	1.012
328.000	375.484	80.000	19.995	103.401	18.838	93.344	1.022
329.000	376.545	80.000	19.994	103.411	18.798	96.420	1.039
330.001	377.496	80.001	19.994	103.422	18.759	99.503	0.983
331.000	378.560	79.999	19.995	103.422	18.716	102.843	1.027
332.000	379.525	80.000	19.994	103.420	18.667	106.654	0.976
333.000	380.529	80.001	19.995	103.421	18.624	109.970	1.015
334.000	381.560	80.001	19.996	103.424	18.576	113.741	1.025
335.000	382.559	80.001	19.995	103.427	18.528	117.458	0.997
336.000	383.557	80.000	19.995	103.427	18.479	121.318	1.006
337.000	384.588	80.001	19.996	103.429	18.428	125.293	1.029
338.000	385.590	80.001	19.994	103.429	18.377	129.270	0.990
339.000	386.576	80.000	19.995	103.426	18.323	133.463	0.997
340.000	387.611	80.002	19.995	103.428	18.270	137.567	1.011
341.000	388.581	80.000	19.995	103.430	18.215	141.885	1.009
342.000	389.613	80.001	19.995	103.432	18.160	146.192	1.007
343.000	390.615	80.002	19.995	103.428	18.101	150.793	1.017
344.000	391.619	80.003	19.995	103.433	18.045	155.122	0.999
345.000	392.652	80.002	19.995	103.433	17.985	159.829	1.027
346.000	393.660	80.002	19.994	103.437	17.928	164.251	1.026
347.000	394.712	80.002	19.994	103.441	17.865	169.138	1.019
348.000	395.705	80.003	19.994	103.441	17.803	173.926	1.033
349.000	396.738	80.003	19.994	103.430	17.742	178.691	1.028
350.000	397.736	80.003	19.994	103.426	17.682	183.323	0.988
351.000	398.766	80.003	19.994	103.425	17.619	188.240	1.023
352.000	399.788	80.002	19.994	103.426	17.556	193.086	1.011
353.000	400.739	80.004	19.994	103.426	17.493	198.027	0.969
354.000	401.735	80.001	19.994	103.425	17.436	202.392	0.997
355.000	402.746	80.002	19.994	103.421	17.370	207.527	1.014
356.000	403.733	80.002	19.993	103.418	17.310	212.135	0.991
357.000	404.762	80.002	19.996	103.415	17.255	216.317	1.028
358.000	405.741	80.001	19.995	103.413	17.192	221.191	0.992
359.000	406.791	80.001	19.994	103.400	17.135	225.615	1.019
360.000	407.766	80.000	19.995	103.389	17.080	229.830	1.001
361.000	408.803	80.000	19.994	103.374	17.025	234.135	1.016
362.000	409.800	79.999	19.995	103.358	16.973	238.065	0.994
363.000	410.802	80.000	19.996	103.348	16.926	241.746	1.023
364.000	411.801	80.000	19.995	103.341	16.880	245.251	0.988
365.000	412.792	80.000	19.994	103.326	16.836	248.671	0.981
366.000	413.786	80.000	19.996	103.304	16.796	251.695	1.010
367.000	414.746	80.000	19.996	103.284	16.766	254.048	0.965
368.000	415.733	79.998	19.995	103.259	16.737	256.300	0.994
369.000	416.746	79.999	19.995	103.236	16.715	257.994	1.002
370.000	417.766	80.001	19.995	103.219	16.698	259.280	1.005
371.000	418.798	79.999	19.996	103.203	16.691	259.752	1.022
372.001	419.748	80.001	19.995	103.190	16.689	259.925	0.988
373.000	420.751	79.999	19.995	103.171	16.694	259.505	0.994
374.001	421.771	80.000	19.995	103.155	16.709	258.266	0.998
375.000	422.724	80.000	19.995	103.147	16.730	256.686	0.987
376.001	423.731	80.000	19.996	103.131	16.756	254.657	0.990
377.000	424.730	80.000	19.995	103.119	16.802	251.090	0.977
378.000	425.762	79.999	19.994	103.116	16.830	248.892	1.026
379.000	426.724	79.999	19.995	103.106	16.903	243.232	0.993
380.000	427.719	80.000	19.995	103.094	16.962	238.728	1.004
381.000	428.765	79.999	19.994	103.079	17.037	232.911	1.012
382.001	429.739	79.999	19.995	103.072	17.123	226.308	0.991
383.000	430.694	80.000	19.993	103.066	17.212	219.348	0.976
384.000	431.700	79.999	19.994	103.054	17.310	211.778	0.991
385.000	432.725	79.999	19.995	103.043	17.419	203.392	1.013
386.000	433.687	79.997	19.995	103.041	17.526	195.041	1.025
387.000	434.732	79.999	19.995	103.039	17.645	185.877	1.021
388.000	435.850	79.999	19.995	103.036	17.759	177.004	1.036
389.000	436.801	79.998	19.995	103.044	17.878	167.784	0.960
390.000	437.768	79.999	19.995	103.057	17.994	158.713	0.971
391.000	439.129	79.997	19.995	103.070	18.110	149.736	1.208
392.000	439.298	79.999	19.995	103.080	18.220	141.150	0.408
393.000	440.660	79.997	19.996	103.096	18.323	133.177	1.114
394.000	441.664	79.996	19.995	103.110	18.419	125.689	1.334
395.000	442.776	79.998	19.996	103.123	18.503	119.160	1.052
396.000	443.818	79.999	19.996	103.138	18.586	112.679	0.969
397.000	444.798	79.999	19.996	103.151	18.664	106.669	1.001
398.000	445.791	79.999	19.996	103.168	18.728	101.691	0.966
399.000	446.772	79.999	19.995	103.182	18.786	97.186	0.994
400.000	447.786	79.999	19.995	103.193	18.837	93.152	1.033
401.000	448.834	80.000	19.995	103.193	18.884	89.527	0.994
402.000	449.792	80.000	19.995	103.193	18.924	86.430	1.022
403.000	450.818	80.001	19.995	103.192	18.953	84.149	0.995
404.000	451.814	80.000	19.996	103.192	18.987	81.527	0.974
405.000	452.803	80.001	19.995	103.196	19.014	79.456	0.988
406.000	453.761	80.001	19.996	103.198	19.034	77.847	0.977
407.000	454.774	80.002	19.995	103.193	19.053	76.381	1.017
408.000	455.757	80.002	19.994	103.189	19.069	75.131	1.004
409.000	456.779	80.002	19.994	103.189	19.086	73.840	0.998
410.000	457.773	80.002	19.995	103.190	19.095	73.122	0.993
411.000	458.752	80.000	19.995	103.190	19.111	71.880	0.984
412.000	459.761	80.001	19.994	103.190	19.116	71.462	1.024
413.000	460.723	80.001	19.995	103.190	19.123	70.941	0.955
414.000	461.759	80.000	19.994	103.189	19.132	70.228	0.997
415.000	462.753	80.001	19.994	103.190	19.132	70.195	1.010
416.000	463.683	80.001	19.994	103.191	19.137	69.816	0.967
417.000	464.668	80.001	19.995	103.190	19.136	69.886	0.997
418.000	465.657	80.002	19.995	103.186	19.143	69.397	0.965
419.000	466.641	80.000	19.994	103.183	19.142	69.445	0.971
420.000	467.673	80.001	19.995	103.174	19.143	69.344	1.009
421.000	468.623	80.001	19.995	103.172	19.143	69.389	0.975
422.000	469.610	80.002	19.995	103.165	19.142	69.444	0.975
423.000	470.600	80.001	19.995	103.165	19.140	69.564	1.013
424.000	471.571	80.002	19.995	103.164	19.139	69.676	0.969
425.000	472.592	80.003	19.995	103.169	19.133	70.102	1.003
426.000	473.588	80.002	19.995	103.158	19.134	70.037	0.989
427.000	474.594	80.001	19.994	103.157	19.128	70.482	1.009
428.000	475.596	80.002	19.995	103.149	19.129	70.466	0.995
429.000	476.532	80.001	19.994	103.149	19.124	70.853	0.974
430.000	477.521	80.003	19.996	103.150	19.123	70.876	0.991
431.000	478.519	80.003	19.995	103.150	19.119	71.212	0.988
432.000	479.509	80.002	19.994	103.149	19.115	71.497	0.973
433.000	480.498	80.001	19.994	103.149	19.110	71.881	0.989
434.000	481.490	80.001	19.994	103.149	19.109	71.986	1.003
435.000	482.476	80.002	19.994	103.148	19.103	72.396	0.991
436.000	483.476	80.002	19.995	103.144	19.099	72.749	1.007
437.000	484.441	80.000	19.994	103.137	19.100	72.617	0.956
438.000	485.483	80.000	19.994	103.126	19.105	72.299	1.018
439.000	486.477	80.000	19.994	103.122	19.104	72.337	1.019
440.000	487.445	80.001	19.994	103.126	19.108	71.985	0.967
441.000	488.441	80.001	19.994	103.125	19.117	71.297	0.972
442.000	489.432	80.002	19.994	103.114	19.123	70.828	0.985
443.000	490.415	80.002	19.994	103.114	19.135	69.948	1.015
444.000	491.420	80.000	19.993	103.105	19.153	68.518	0.985
445.000	492.409	79.999	19.993	103.100	19.169	67.328	1.013
446.000	493.420	80.000	19.994	103.092	19.193	65.409	0.995
447.000	494.413	80.001	19.995	103.081	19.223	63.119	1.006
448.000	495.419	80.000	19.993	103.076	19.252	60.902	1.005
449.000	496.418	79.999	19.994	103.076	19.287	58.178	0.984
450.000	497.386	80.000	19.994	103.075	19.326	55.142	0.985
451.000	498.379	79.999	19.995	103.064	19.369	51.846	0.990
452.000	499.388	80.000	19.994	103.062	19.416	48.145	0.997
453.000	500.356	80.000	19.994	103.070	19.468	44.103	0.983
454.000	501.356	80.000	19.994	103.080	19.516	40.381	0.989
455.000	502.340	80.001	19.994	103.080	19.564	36.668	0.994
456.000	503.345	80.001	19.994	103.086	19.610	33.041	1.009
457.000	504.341	80.001	19.995	103.100	19.655	29.581	0.969
458.000	505.332	80.001	19.995	103.123	19.700	26.108	1.023
459.000	506.333	79.999	19.995	103.139	19.737	23.164	0.967
460.001	507.349	80.000	19.995	103.160	19.774	20.309	1.013
461.000	508.320	79.999	19.994	103.177	19.808	17.660	0.979
462.000	509.309	80.000	19.995	103.189	19.836	15.492	0.990
463.001	510.315	80.000	19.995	103.195	19.865	13.229	1.017
464.000	511.320	80.000	19.996	103.203	19.881	11.979	0.997
465.000	512.303	80.000	19.995	103.205	19.902	10.381	0.991
466.000	513.293	80.000	19.996	103.203	19.918	9.114	0.987
467.001	514.290	80.000	19.995	103.209	19.934	7.864	0.992
468.000	515.303	79.999	19.995	103.205	19.940	7.382	1.016
469.000	516.334	79.999	19.994	103.198	19.947	6.879	1.028
470.000	517.350	79.999	19.996	103.191	19.960	5.889	1.015
471.000	518.347	79.999	19.994	103.189	19.964	5.507	1.012
472.000	519.327	79.998	19.995	103.189	19.969	5.127	0.964
473.000	520.411	79.999	19.995	103.190	19.975	4.703	1.071
474.000	521.407	80.000	19.994	103.192	19.979	4.398	1.023
475.000	522.432	80.000	19.995	103.195	19.981	4.258	0.991
476.000	523.430	80.001	19.995	103.196	19.984	3.999	1.030
477.000	524.446	80.001	19.996	103.195	19.983	4.078	1.015
478.000	525.486	80.000	19.997	103.196	19.989	3.577	1.018
479.000	526.505	80.000	19.995	103.202	19.991	3.476	1.028
480.000	527.543	80.000	19.995	103.203	19.990	3.485	1.020
481.000	528.575	80.001	19.995	103.208	19.992	3.404	1.052
482.000	529.637	80.001	19.995	103.211	19.993	3.314	1.047
483.000	530.643	80.000	19.995	103.212	19.995	3.158	1.002
484.000	531.722	80.000	19.995	103.217	19.993	3.284	1.089
485.000	532.755	80.000	19.995	103.226	19.998	2.915	1.014
486.000	533.781	80.001	19.996	103.228	19.997	2.968	1.038
487.000	534.835	80.000	19.995	103.227	19.998	2.900	1.069
488.000	535.884	80.002	19.996	103.227	19.999	2.796	1.047
489.000	536.945	80.001	19.994	103.226	20.001	2.653	1.052
490.000	537.945	80.000	19.996	103.226	19.998	2.877	1.008
491.000	539.020	80.000	19.997	103.227	20.001	2.648	1.063
492.000	540.067	80.000	19.996	103.227	20.005	2.335	1.059
493.000	541.113	80.001	19.996	103.226	20.001	2.687	1.043
494.000	542.172	80.001	19.996	103.226	20.003	2.478	1.062
495.000	543.218	80.001	19.996	103.225	20.005	2.369	1.043
496.000	544.297	80.001	19.996	103.225	20.004	2.463	1.084
497.000	545.320	80.001	19.996	103.226	20.001	2.668	1.033
498.000	546.388	80.001	19.996	103.226	20.004	2.450	1.033
499.000	547.475	80.002	19.995	103.228	20.005	2.348	1.089
500.000	548.516	80.001	19.995	103.229	20.006	2.309	1.053
501.000	549.578	80.001	19.995	103.232	20.006	2.277	1.079
502.000	550.635	80.001	19.995	103.230	20.009	2.068	1.049
503.000	551.689	80.001	19.994	103.226	20.008	2.111	1.061
504.000	552.772	80.002	19.994	103.226	20.010	1.957	1.070
505.001	553.837	80.001	19.994	103.232	20.008	2.111	1.084
506.000	554.998	80.002	19.994	103.231	20.010	1.965	1.105
507.000	555.989	80.002	19.994	103.226	20.006	2.277	1.032
508.000	557.024	80.002	19.994	103.226	20.008	2.121	1.045
509.000	558.126	80.002	19.994	103.227	20.004	2.422	1.090
510.000	559.195	80.002	19.995	103.229	20.008	2.106	1.058
511.000	560.253	80.002	19.994	103.220	20.008	2.134	1.070
512.000	561.325	80.003	19.995	103.213	20.007	2.219	1.057
513.000	562.401	80.001	19.994	103.215	20.009	2.066	1.067
514.000	563.437	80.002	19.995	103.225	20.009	2.077	1.064
515.000	564.484	80.001	19.994	103.228	20.008	2.109	1.035
516.000	565.554	80.002	19.994	103.227	20.007	2.222	1.076
517.000	566.610	80.000	19.994	103.222	20.008	2.119	1.029
518.000	567.607	79.999	19.994	103.222	20.008	2.115	1.046
519.000	568.682	80.000	19.994	103.218	20.008	2.123	1.055
520.000	569.770	80.000	19.995	103.222	20.009	2.012	1.073
521.000	570.819	79.999	19.995	103.227	20.012	1.839	1.056
522.000	571.875	80.000	19.995	103.223	20.011	1.908	1.073
523.000	572.890	80.000	19.994	103.223	20.010	1.982	1.000
524.000	574.007	79.999	19.994	103.223	20.010	1.955	1.105
525.000	575.053	79.999	19.995	103.230	20.011	1.914	1.063
526.000	576.116	80.001	19.995	103.230	20.015	1.615	1.055
527.000	577.149	80.000	19.995	103.230	20.014	1.683	1.058
528.000	578.209	80.000	19.995	103.230	20.014	1.630	1.036
529.000	579.220	80.000	19.995	103.221	20.014	1.656	1.025
530.000	580.293	80.000	19.994	103.215	20.017	1.430	1.066
531.000	581.325	80.000	19.994	103.215	20.018	1.383	1.027
532.000	582.380	79.999	19.994	103.215	20.014	1.662	1.070
533.000	583.393	80.000	19.994	103.218	20.015	1.600	0.997
534.000	584.419	80.000	19.994	103.218	20.016	1.502	1.040
535.000	585.473	80.001	19.994	103.223	20.013	1.703	1.052
536.000	586.477	80.001	19.995	103.219	20.015	1.600	1.028
537.000	587.503	80.001	19.994	103.217	20.016	1.504	1.007
538.000	588.517	80.001	19.995	103.207	20.016	1.483	1.017
539.000	589.519	80.000	19.995	103.203	20.016	1.532	1.017
540.000	590.613	80.001	19.995	103.209	20.015	1.587	1.053
541.000	591.620	80.000	19.995	103.211	20.015	1.547	1.014
542.000	592.623	80.000	19.995	103.210	20.017	1.459	1.027
543.000	593.675	80.002	19.994	103.206	20.018	1.333	1.035
544.000	594.720	79.999	19.994	103.200	20.012	1.813	1.051
545.000	595.730	80.000	19.995	103.195	20.014	1.645	1.018
546.000	596.762	80.001	19.994	103.197	20.015	1.585	1.031
547.000	597.783	80.001	19.994	103.198	20.016	1.521	1.019
548.000	598.758	80.000	19.996	103.198	20.016	1.530	0.985
549.000	599.774	79.999	19.995	103.202	20.013	1.703	1.007
550.000	600.787	79.999	19.995	103.199	20.016	1.470	0.992
551.000	601.800	79.999	19.995	103.201	20.017	1.440	1.039
552.000	602.819	80.000	19.996	103.201	20.020	1.169	1.027
553.000	603.798	79.998	19.996	103.203	20.017	1.408	0.979
554.000	604.809	80.000	19.996	103.198	20.013	1.767	0.999
555.000	605.836	80.000	19.996	103.195	20.020	1.193	0.999
556.000	606.792	80.000	19.996	103.195	20.019	1.255	0.997
557.000	607.812	80.001	19.995	103.198	20.021	1.127	1.016
558.000	608.808	79.999	19.995	103.201	20.018	1.357	0.975
559.000	609.779	80.001	19.996	103.201	20.017	1.421	0.959
560.000	610.792	80.002	19.996	103.203	20.021	1.122	1.024
561.000	611.763	80.001	19.995	103.204	20.020	1.152	0.965
562.000	612.750	80.001	19.994	103.204	20.023	0.958	1.003
563.000	613.759	80.002	19.995	103.201	20.020	1.223	0.999
564.000	614.746	80.002	19.995	103.197	20.021	1.144	0.979
565.000	615.695	80.003	19.995	103.199	20.021	1.080	0.960
566.000	616.693	80.002	19.995	103.203	20.020	1.159	0.989
567.000	617.640	80.002	19.995	103.209	20.019	1.240	0.972
568.000	618.619	80.003	19.995	103.212	20.017	1.445	0.973
569.000	619.651	80.003	19.995	103.209	20.018	1.355	1.032
570.000	620.688	80.003	19.994	103.203	20.017	1.451	1.011
571.000	621.635	80.002	19.995	103.211	20.018	1.338	0.972
572.000	622.632	80.001	19.995	103.225	20.015	1.552	1.005
573.000	623.644	80.001	19.996	103.229	20.016	1.511	1.008
574.000	624.631	80.001	19.996	103.231	20.018	1.383	0.982
575.001	625.611	80.000	19.996	103.231	20.014	1.624	0.992
576.000	626.665	80.002	19.996	103.232	20.018	1.362	1.034
577.000	627.630	80.002	19.995	103.236	20.019	1.283	0.997
578.000	628.677	80.000	19.996	103.236	20.020	1.197	1.016
579.000	629.667	80.000	19.996	103.231	20.017	1.424	0.990
580.000	630.661	80.001	19.996	103.233	20.018	1.315	1.016
581.000	631.713	80.000	19.996	103.232	20.018	1.366	1.028
582.000	632.718	80.000	19.996	103.231	20.021	1.134	1.019
583.000	633.765	80.001	19.996	103.230	20.017	1.392	1.027
584.000	634.795	80.001	19.995	103.230	20.018	1.381	1.047
585.000	635.853	80.001	19.996	103.230	20.016	1.496	1.041
586.000	636.847	80.000	19.995	103.230	20.018	1.345	1.012
587.000	637.875	80.001	19.995	103.233	20.016	1.531	1.019
588.000	638.915	80.002	19.995	103.234	20.016	1.473	1.040
589.000	639.978	80.002	19.996	103.231	20.018	1.362	1.060
590.000	641.000	80.001	19.995	103.235	20.017	1.409	1.020
591.000	642.030	80.001	19.994	103.236	20.020	1.213	1.017
592.000	643.097	80.002	19.995	103.247	20.017	1.435	1.080
593.000	644.094	80.002	19.994	103.257	20.016	1.469	1.015
594.000	645.141	80.002	19.994	103.263	20.019	1.296	1.045
595.000	646.193	80.001	19.995	103.254	20.018	1.371	1.040
596.000	647.258	80.001	19.994	103.246	20.014	1.665	1.042
597.000	648.258	80.001	19.994	103.251	20.019	1.283	1.028
598.000	649.282	80.000	19.995	103.260	20.017	1.407	1.018
599.000	650.367	80.000	19.995	103.263	20.016	1.471	1.089
600.000	651.380	80.000	19.996	103.265	20.020	1.177	1.013
601.000	652.432	80.001	19.995	103.259	20.014	1.623	1.030
602.001	653.437	80.000	19.995	103.259	20.021	1.142	1.037
603.000	654.493	79.999	19.995	103.263	20.018	1.326	1.044
604.000	655.581	80.000	19.994	103.269	20.017	1.396	1.067
605.000	656.616	80.000	19.994	103.273	20.018	1.371	1.054
606.000	657.645	79.998	19.994	103.275	20.020	1.198	1.023
607.000	658.700	79.999	19.994	103.272	20.020	1.228	1.072
608.000	659.763	80.000	19.996	103.269	20.020	1.215	1.038
609.000	660.774	79.999	19.994	103.268	20.019	1.303	1.022
610.000	661.811	79.998	19.995	103.277	20.015	1.580	1.037
611.000	662.843	80.001	19.996	103.282	20.016	1.482	1.034
612.000	663.883	80.001	19.996	103.285	20.019	1.234	1.044
613.000	664.934	80.000	19.995	103.279	20.017	1.399	1.041
614.000	665.959	80.001	19.996	103.286	20.014	1.642	1.035
615.000	666.997	79.999	19.995	103.285	20.017	1.461	1.038
616.000	668.018	80.001	19.996	103.294	20.013	1.719	1.040
617.000	669.052	80.001	19.996	103.299	20.013	1.760	1.029
618.000	670.091	80.002	19.995	103.303	20.012	1.812	1.039
619.000	671.175	80.001	19.995	103.300	20.015	1.557	1.054
620.000	672.169	80.001	19.995	103.300	20.011	1.905	1.011
621.000	673.249	80.000	19.995	103.303	20.013	1.748	1.054
622.000	674.259	80.002	19.994	103.307	20.015	1.585	1.027
623.000	675.303	80.001	19.995	103.307	20.015	1.555	1.056
624.000	676.314	80.001	19.994	103.306	20.013	1.699	1.009
625.000	677.367	80.001	19.996	103.307	20.014	1.690	1.032
626.000	678.374	80.000	19.995	103.308	20.013	1.701	1.034
627.000	679.376	80.001	19.996	103.314	20.012	1.835	1.005
628.000	680.459	80.000	19.995	103.323	20.014	1.645	1.037
629.000	681.471	79.999	19.995	103.331	20.009	2.066	1.039
630.000	682.465	80.000	19.994	103.324	20.010	1.996	0.998
631.000	683.478	80.000	19.995	103.327	20.013	1.739	1.024
632.000	684.474	80.000	19.994	103.338	20.011	1.876	1.001
633.000	685.548	80.000	19.994	103.344	20.009	2.068	1.047
634.000	686.517	80.000	19.994	103.346	20.010	1.998	0.988
635.000	687.556	79.999	19.994	103.348	20.011	1.880	1.035
636.000	688.598	79.998	19.994	103.349	20.009	2.020	1.025
637.000	689.637	80.001	19.996	103.350	20.007	2.206	1.043
638.000	690.649	80.000	19.994	103.352	20.006	2.287	1.039
639.000	691.628	79.999	19.995	103.353	20.005	2.330	0.973
640.000	692.661	79.999	19.996	103.354	20.007	2.174	1.027
641.000	693.672	80.001	19.995	103.355	20.009	2.082	1.010
642.000	694.718	80.000	19.995	103.354	20.008	2.110	1.033
643.000	695.763	80.000	19.994	103.352	20.007	2.204	1.045
644.001	696.717	80.001	19.995	103.350	20.008	2.163	0.981
645.000	697.743	80.002	19.997	103.355	20.007	2.242	1.002
646.000	698.750	80.001	19.995	103.362	20.005	2.366	1.027
647.000	699.775	80.001	19.995	103.376	20.005	2.324	1.005
648.000	700.765	80.002	19.995	103.383	20.001	2.702	1.007
649.000	701.782	80.002	19.995	103.386	20.000	2.719	1.003
650.000	702.813	80.002	19.995	103.386	20.001	2.668	1.028
651.000	703.761	79.999	19.994	103.386	19.999	2.848	0.972
652.000	704.814	79.999	19.995	103.387	20.000	2.739	1.035
653.000	705.822	80.002	19.995	103.389	19.998	2.869	0.998
654.000	706.804	80.002	19.995	103.390	19.998	2.910	0.997
655.000	707.842	80.001	19.995	103.388	19.993	3.329	1.026
656.000	708.798	80.001	19.995	103.388	19.996	3.056	0.975
657.000	709.801	80.001	19.995	103.402	19.991	3.465	0.988
658.000	710.812	80.001	19.995	103.414	19.993	3.315	1.015
659.000	711.826	80.001	19.995	103.416	19.994	3.247	1.037
660.000	712.837	80.002	19.996	103.409	19.992	3.351	0.988
661.000	713.824	79.999	19.994	103.411	19.996	3.063	0.992
662.000	714.841	80.003	19.996	103.416	19.990	3.508	1.009
663.000	715.862	80.003	19.995	103.423	19.988	3.658	1.003
664.000	716.875	80.001	19.995	103.424	19.994	3.245	1.027
665.000	717.871	80.002	19.996	103.426	19.991	3.474	1.001
666.000	718.842	80.002	19.996	103.431	19.995	3.138	0.979
667.000	719.845	80.001	19.995	103.444	19.991	3.449	1.022
668.000	720.883	80.001	19.995	103.456	19.987	3.729	1.015
669.000	721.824	80.002	19.995	103.455	19.987	3.734	0.938
670.000	722.821	80.002	19.997	103.450	19.989	3.584	1.009
671.000	723.820	80.002	19.996	103.451	19.987	3.777	0.982
672.000	724.835	80.002	19.996	103.458	19.988	3.723	1.021
673.000	725.844	80.003	19.996	103.466	19.986	3.824	1.020
674.000	726.809	80.003	19.996	103.467	19.984	4.034	0.967
675.000	727.819	80.003	19.997	103.467	19.986	3.872	1.012
676.000	728.816	80.001	19.995	103.472	19.986	3.855	0.994
677.000	729.825	80.001	19.995	103.471	19.982	4.155	0.990
678.000	730.824	80.003	19.996	103.481	19.985	3.958	1.001
679.000	731.808	80.000	19.996	103.490	19.976	4.591	0.986
680.000	732.831	80.000	19.995	103.500	19.979	4.354	1.029
681.000	733.816	80.002	19.996	103.502	19.977	4.542	0.977
682.000	734.834	80.000	19.996	103.504	19.981	4.253	1.022
683.000	735.785	80.000	19.996	103.504	19.978	4.470	0.974
684.000	736.786	80.002	19.995	103.500	19.979	4.422	0.985
684.500	737.273	80.000	19.995	103.505	19.981	4.204	0.994