File: 01_Data/Nylon_Carpet_High_Pile/MCC/Nylon_Carpet_High_Pile_MCC_30K_min_211028_O3.txt
Sample ID:	C:\MCC\MCC Cal\Test\Nylon_Carpet_HighPile_MCC_30K_min_211028_R3.txt
Sample Weight (mg):	4.37
Heating Rate (C/s):	0.5
Combustor Temp (C):	900
N2 Flow Rate (cc/min):	80
O2 Flow Rate (cc/min):	20
Calibration File:	C:\MCC\MCC Cal\Coeff1 JN10440_30_210304.txt.txt
T Correction Coefficients:	0	1.024463	0
Time Shift (s):	14
*
Time (s)	Temperature (C)	N2 flow rate (cc/min)	O2 flow rate (cc/min)	Flow Rate (cc/min)	Oxygen (%)	HRR (W/g)	Heating rate (C/s)
0.000	107.488	79.997	19.997	102.928	20.061	-0.010	-0.005
2.000	107.442	79.997	19.996	102.925	20.063	-0.152	-0.035
4.000	107.436	79.997	19.996	102.925	20.063	-0.144	-0.021
6.000	107.453	79.997	19.999	102.931	20.063	-0.124	0.003
8.000	107.439	79.997	19.995	102.931	20.063	-0.166	0.006
10.000	107.451	79.999	19.996	102.925	20.061	-0.014	0.033
12.000	107.475	79.999	19.995	102.927	20.065	-0.282	-0.033
14.000	107.471	79.998	19.996	102.925	20.066	-0.363	-0.006
16.000	107.481	79.999	19.995	102.934	20.064	-0.243	0.025
18.000	107.449	80.001	19.996	102.938	20.064	-0.183	-0.012
20.000	107.455	79.999	19.995	102.934	20.063	-0.177	0.007
22.000	107.456	80.000	19.995	102.957	20.060	0.073	-0.002
24.000	107.454	79.999	19.996	102.955	20.056	0.363	0.013
26.000	107.485	79.998	19.997	102.920	20.055	0.479	0.031
28.000	107.481	79.996	19.996	102.932	20.054	0.550	0.042
30.000	107.524	79.996	19.997	103.074	20.052	0.698	0.012
32.000	107.574	79.995	19.997	103.060	20.048	0.928	0.031
34.000	107.636	79.996	19.997	103.086	20.041	1.472	0.020
36.000	107.797	79.996	19.996	103.111	20.037	1.783	0.075
38.000	107.955	79.997	19.997	103.122	20.037	1.806	0.099
40.000	108.108	79.997	19.996	103.125	20.029	2.399	0.085
42.000	108.341	79.997	19.996	103.140	20.026	2.551	0.112
44.000	108.581	79.997	19.996	103.158	20.023	2.817	0.119
46.000	108.940	79.996	19.996	103.159	20.025	2.690	0.172
48.000	109.250	79.999	19.995	103.159	20.022	2.881	0.164
50.001	109.613	79.997	19.995	103.164	20.017	3.241	0.192
52.000	109.981	79.997	19.995	103.162	20.020	2.995	0.185
54.000	110.378	79.999	19.994	103.164	20.020	3.050	0.211
56.000	110.788	79.998	19.996	103.180	20.019	3.096	0.202
58.000	111.272	79.998	19.997	103.197	20.017	3.218	0.221
60.000	111.734	79.997	19.996	103.196	20.017	3.253	0.254
62.000	112.248	79.995	19.996	103.197	20.017	3.273	0.258
64.000	112.786	79.998	19.995	103.197	20.015	3.375	0.244
66.001	113.365	79.997	19.995	103.197	20.015	3.411	0.303
68.001	113.984	79.999	19.995	103.199	20.015	3.379	0.288
70.000	114.620	79.998	19.996	103.197	20.019	3.135	0.304
72.000	115.245	80.001	19.994	103.198	20.021	2.946	0.326
74.000	115.943	79.998	19.995	103.199	20.019	3.080	0.353
76.000	116.578	80.000	19.994	103.195	20.018	3.164	0.305
78.000	117.241	79.999	19.994	103.197	20.017	3.231	0.323
80.000	117.974	79.999	19.994	103.196	20.013	3.522	0.360
82.000	118.703	79.998	19.995	103.196	20.017	3.227	0.357
84.000	119.471	79.998	19.996	103.199	20.014	3.501	0.389
86.000	120.231	80.000	19.995	103.203	20.010	3.743	0.382
88.000	120.993	79.997	19.994	103.209	20.012	3.587	0.393
90.000	121.782	79.998	19.996	103.218	20.008	3.903	0.391
92.000	122.593	79.997	19.997	103.220	20.011	3.674	0.409
94.000	123.395	79.999	19.995	103.207	20.011	3.657	0.403
96.000	124.198	79.998	19.995	103.203	20.010	3.761	0.431
98.000	125.045	80.001	19.996	103.203	20.014	3.491	0.414
100.000	125.909	80.001	19.996	103.212	20.012	3.609	0.425
102.000	126.779	79.999	19.996	103.204	20.013	3.525	0.438
104.000	127.613	79.999	19.995	103.205	20.013	3.570	0.447
106.000	128.510	79.997	19.995	103.199	20.014	3.495	0.446
108.000	129.439	79.998	19.995	103.201	20.010	3.775	0.476
110.000	130.306	79.997	19.995	103.201	20.012	3.635	0.448
112.000	131.248	79.998	19.995	103.201	20.014	3.499	0.469
114.000	132.167	79.995	19.995	103.200	20.016	3.314	0.471
116.000	133.071	79.995	19.996	103.199	20.017	3.222	0.452
118.000	134.012	79.997	19.996	103.197	20.017	3.216	0.453
120.000	134.958	79.997	19.996	103.198	20.019	3.111	0.442
122.001	135.847	79.997	19.996	103.195	20.016	3.306	0.442
124.000	136.782	79.996	19.998	103.195	20.021	2.946	0.461
126.000	137.727	79.996	19.995	103.195	20.019	3.107	0.476
128.000	138.710	79.996	19.997	103.197	20.021	2.972	0.460
130.000	139.715	79.998	19.996	103.195	20.017	3.273	0.482
132.000	140.653	79.997	19.996	103.194	20.018	3.161	0.498
134.000	141.638	79.997	19.996	103.195	20.020	3.029	0.480
136.000	142.577	79.998	19.995	103.196	20.018	3.155	0.491
138.000	143.583	79.996	19.995	103.196	20.018	3.157	0.494
140.000	144.538	79.997	19.995	103.196	20.016	3.291	0.476
142.000	145.546	79.996	19.996	103.196	20.018	3.177	0.498
144.000	146.512	79.997	19.996	103.194	20.021	2.936	0.485
146.000	147.455	79.997	19.996	103.196	20.021	2.956	0.503
148.000	148.475	79.996	19.995	103.194	20.022	2.846	0.510
150.000	149.488	79.997	19.995	103.195	20.018	3.153	0.517
152.000	150.441	79.999	19.995	103.190	20.018	3.180	0.478
154.000	151.422	79.999	19.995	103.192	20.017	3.253	0.472
156.000	152.390	79.999	19.994	103.187	20.017	3.269	0.453
158.000	153.414	80.000	19.995	103.193	20.016	3.289	0.482
160.000	154.353	79.997	19.995	103.198	20.020	3.019	0.448
162.000	155.381	79.999	19.995	103.195	20.020	3.031	0.522
164.000	156.335	79.999	19.994	103.194	20.021	2.933	0.516
166.000	157.310	79.998	19.995	103.197	20.021	2.933	0.496
168.000	158.296	79.998	19.995	103.184	20.023	2.813	0.501
170.000	159.273	79.999	19.994	103.185	20.021	2.945	0.518
172.000	160.282	79.999	19.994	103.193	20.023	2.825	0.495
174.000	161.282	79.998	19.995	103.188	20.022	2.913	0.516
176.000	162.306	79.999	19.994	103.179	20.020	3.055	0.518
178.000	163.306	80.000	19.994	103.174	20.021	2.937	0.509
180.000	164.290	79.999	19.994	103.169	20.025	2.671	0.465
182.000	165.308	80.002	19.995	103.169	20.026	2.561	0.485
184.000	166.295	80.000	19.996	103.161	20.024	2.756	0.486
186.000	167.294	79.998	19.996	103.160	20.022	2.845	0.510
188.000	168.278	79.999	19.997	103.157	20.025	2.638	0.468
190.000	169.206	79.998	19.996	103.160	20.030	2.321	0.473
192.000	170.251	79.997	19.995	103.158	20.024	2.719	0.529
194.000	171.269	79.999	19.995	103.158	20.025	2.632	0.514
196.000	172.195	79.998	19.996	103.158	20.025	2.632	0.487
198.000	173.183	79.997	19.996	103.158	20.026	2.555	0.501
200.000	174.172	79.998	19.995	103.158	20.029	2.360	0.471
202.000	175.180	79.999	19.996	103.158	20.024	2.705	0.501
204.000	176.156	79.999	19.996	103.158	20.027	2.520	0.517
206.000	177.119	79.997	19.995	103.157	20.028	2.437	0.474
208.000	178.099	79.998	19.997	103.155	20.030	2.273	0.507
210.000	179.050	79.998	19.997	103.154	20.028	2.453	0.470
212.000	180.055	79.998	19.997	103.151	20.027	2.522	0.518
214.000	180.996	79.996	19.996	103.151	20.027	2.533	0.480
216.000	181.961	79.996	19.998	103.157	20.028	2.465	0.491
218.000	182.951	79.996	19.997	103.156	20.024	2.719	0.468
220.000	183.944	79.997	19.996	103.153	20.030	2.325	0.503
222.000	184.850	79.997	19.996	103.154	20.027	2.496	0.457
224.000	185.850	79.995	19.995	103.159	20.026	2.571	0.467
226.000	186.849	79.996	19.995	103.153	20.027	2.490	0.500
228.001	187.833	79.997	19.994	103.154	20.031	2.252	0.479
230.000	188.759	79.997	19.995	103.158	20.031	2.248	0.463
232.000	189.741	79.998	19.995	103.151	20.029	2.355	0.472
234.000	190.747	79.999	19.995	103.156	20.028	2.465	0.510
236.000	191.647	80.000	19.995	103.153	20.031	2.203	0.459
238.000	192.643	79.998	19.995	103.154	20.032	2.148	0.479
240.000	193.639	80.000	19.995	103.155	20.033	2.043	0.501
242.000	194.569	79.999	19.995	103.135	20.029	2.331	0.524
244.000	195.544	79.999	19.994	103.140	20.034	2.010	0.487
246.000	196.457	79.998	19.995	103.146	20.028	2.429	0.480
248.000	197.440	80.000	19.995	103.146	20.030	2.293	0.512
250.000	198.382	79.999	19.995	103.147	20.031	2.220	0.440
252.000	199.376	79.998	19.994	103.145	20.030	2.278	0.491
254.000	200.321	79.999	19.995	103.142	20.032	2.116	0.485
256.000	201.257	79.999	19.995	103.141	20.029	2.344	0.463
258.000	202.225	80.001	19.994	103.143	20.032	2.108	0.487
260.000	203.176	80.000	19.994	103.139	20.034	1.986	0.492
262.000	204.104	80.000	19.994	103.149	20.032	2.112	0.481
264.000	205.100	79.998	19.995	103.137	20.035	1.958	0.490
266.000	206.035	79.999	19.995	103.148	20.033	2.069	0.477
268.000	207.076	79.999	19.995	103.154	20.032	2.142	0.511
270.000	207.987	79.997	19.994	103.153	20.032	2.106	0.483
272.000	209.039	79.996	19.996	103.140	20.034	1.996	0.492
274.000	210.045	79.998	19.996	103.146	20.032	2.124	0.518
276.000	211.024	79.997	19.996	103.144	20.034	2.018	0.509
278.000	211.992	79.997	19.996	103.138	20.033	2.067	0.492
280.000	212.985	80.000	19.996	103.142	20.033	2.094	0.504
282.000	213.977	79.998	19.996	103.125	20.031	2.224	0.478
284.000	215.015	79.996	19.995	103.128	20.031	2.224	0.507
286.000	215.999	79.998	19.996	103.134	20.031	2.209	0.470
288.000	217.025	79.999	19.996	103.135	20.032	2.173	0.529
290.000	217.985	79.999	19.995	103.140	20.033	2.075	0.475
292.000	219.011	79.998	19.995	103.145	20.033	2.097	0.496
294.000	219.983	79.997	19.996	103.140	20.036	1.844	0.474
296.000	220.969	79.997	19.995	103.138	20.034	1.992	0.511
298.000	221.984	79.997	19.996	103.135	20.036	1.850	0.495
300.000	222.963	79.996	19.996	103.131	20.033	2.036	0.461
302.000	224.033	79.994	19.997	103.129	20.037	1.777	0.501
304.000	224.989	79.996	19.997	103.133	20.035	1.929	0.497
306.000	225.981	79.996	19.997	103.129	20.039	1.594	0.499
308.000	227.018	79.998	19.996	103.129	20.037	1.793	0.483
310.000	228.005	79.995	19.996	103.129	20.040	1.584	0.503
312.000	229.001	79.999	19.995	103.124	20.038	1.720	0.510
314.000	230.020	79.998	19.994	103.124	20.036	1.868	0.489
316.000	231.024	80.000	19.995	103.121	20.039	1.642	0.523
318.000	232.012	79.997	19.997	103.122	20.037	1.793	0.516
320.000	233.019	79.999	19.995	103.118	20.039	1.622	0.502
322.000	234.008	80.000	19.995	103.119	20.034	1.988	0.501
324.000	235.017	79.999	19.994	103.119	20.036	1.860	0.514
326.000	235.977	79.999	19.996	103.117	20.034	1.983	0.488
328.000	237.000	80.000	19.995	103.118	20.035	1.921	0.510
330.000	237.977	79.997	19.996	103.127	20.034	2.006	0.506
332.000	238.947	79.997	19.995	103.119	20.034	1.967	0.491
334.000	239.895	79.999	19.996	103.118	20.036	1.829	0.491
336.000	240.851	79.998	19.996	103.117	20.037	1.778	0.475
338.000	241.868	80.001	19.995	103.117	20.036	1.864	0.490
340.000	242.828	80.001	19.996	103.118	20.035	1.888	0.475
342.000	243.830	80.001	19.995	103.119	20.040	1.553	0.489
344.000	244.791	80.001	19.995	103.117	20.035	1.939	0.453
346.000	245.821	80.000	19.996	103.117	20.034	1.961	0.519
348.000	246.854	80.001	19.995	103.118	20.037	1.787	0.540
350.000	247.818	79.998	19.995	103.118	20.032	2.140	0.508
352.000	248.810	79.998	19.996	103.118	20.032	2.174	0.504
354.000	249.852	80.000	19.995	103.122	20.035	1.900	0.523
356.000	250.840	79.999	19.994	103.124	20.035	1.910	0.515
358.000	251.825	79.997	19.995	103.121	20.038	1.669	0.476
360.000	252.812	79.998	19.995	103.121	20.035	1.902	0.493
362.000	253.808	79.997	19.994	103.119	20.034	1.965	0.496
364.000	254.783	79.997	19.995	103.121	20.034	2.012	0.478
366.000	255.806	79.996	19.996	103.121	20.034	2.022	0.513
368.000	256.800	79.997	19.995	103.121	20.031	2.217	0.528
370.000	257.771	79.997	19.996	103.120	20.031	2.239	0.484
372.000	258.821	79.996	19.996	103.121	20.031	2.185	0.529
374.000	259.815	79.998	19.995	103.119	20.034	2.000	0.506
376.000	260.808	79.998	19.996	103.121	20.029	2.365	0.503
378.000	261.808	79.998	19.996	103.121	20.031	2.221	0.487
380.000	262.811	79.999	19.995	103.120	20.026	2.572	0.508
382.000	263.808	79.997	19.996	103.119	20.028	2.404	0.505
384.000	264.840	79.997	19.995	103.119	20.026	2.554	0.509
386.000	265.827	79.996	19.996	103.119	20.023	2.838	0.515
388.000	266.844	79.997	19.997	103.111	20.026	2.590	0.501
390.000	267.892	79.997	19.995	103.111	20.023	2.801	0.511
392.000	268.892	79.996	19.996	103.117	20.026	2.614	0.492
394.000	269.917	79.997	19.997	103.116	20.025	2.655	0.519
396.000	270.962	79.997	19.996	103.110	20.026	2.566	0.514
398.000	272.006	79.999	19.997	103.113	20.028	2.470	0.503
400.000	273.015	79.999	19.995	103.115	20.025	2.620	0.517
402.000	274.031	79.999	19.995	103.102	20.023	2.810	0.481
404.000	275.065	79.999	19.996	103.102	20.023	2.840	0.508
406.000	276.076	79.998	19.997	103.115	20.025	2.623	0.510
408.000	277.118	79.997	19.996	103.113	20.022	2.905	0.531
410.000	278.143	79.997	19.995	103.095	20.025	2.676	0.521
412.000	279.158	79.997	19.995	103.103	20.026	2.598	0.499
414.000	280.164	79.999	19.995	103.108	20.025	2.653	0.500
416.000	281.188	79.996	19.995	103.106	20.025	2.679	0.529
418.000	282.200	79.999	19.996	103.108	20.024	2.754	0.504
420.000	283.231	80.000	19.994	103.105	20.022	2.860	0.483
422.000	284.248	79.999	19.995	103.104	20.021	2.970	0.506
424.000	285.276	79.999	19.995	103.091	20.021	2.941	0.487
426.000	286.304	79.999	19.995	103.086	20.022	2.884	0.523
428.000	287.304	79.998	19.995	103.092	20.022	2.901	0.505
430.000	288.288	79.997	19.995	103.094	20.018	3.189	0.505
432.000	289.290	79.997	19.995	103.095	20.017	3.256	0.497
434.000	290.303	79.997	19.995	103.095	20.017	3.262	0.511
436.000	291.330	79.996	19.995	103.088	20.018	3.193	0.542
438.000	292.314	79.997	19.995	103.094	20.017	3.217	0.483
440.000	293.305	79.996	19.996	103.099	20.014	3.458	0.525
442.000	294.291	79.998	19.994	103.089	20.012	3.580	0.503
444.000	295.312	79.999	19.994	103.087	20.014	3.460	0.496
446.000	296.293	79.998	19.996	103.094	20.010	3.728	0.485
448.000	297.304	79.998	19.995	103.090	20.011	3.692	0.476
450.000	298.298	79.998	19.996	103.085	20.005	4.156	0.509
452.000	299.322	79.996	19.997	103.091	20.005	4.146	0.502
454.000	300.311	79.999	19.996	103.085	20.003	4.276	0.522
456.000	301.291	79.998	19.995	103.085	19.997	4.737	0.468
458.000	302.287	79.997	19.997	103.083	19.997	4.717	0.498
460.000	303.253	80.000	19.996	103.085	19.991	5.124	0.503
462.000	304.221	79.995	19.996	103.084	19.989	5.299	0.474
464.000	305.180	79.997	19.996	103.083	19.985	5.634	0.475
466.000	306.235	79.998	19.996	103.081	19.982	5.797	0.522
468.000	307.182	79.998	19.996	103.083	19.974	6.408	0.477
470.000	308.152	79.997	19.995	103.080	19.970	6.722	0.484
472.000	309.137	79.998	19.996	103.084	19.965	7.039	0.517
474.000	310.117	79.999	19.995	103.084	19.964	7.163	0.476
476.000	311.130	79.999	19.995	103.099	19.960	7.437	0.504
478.000	312.089	79.998	19.996	103.093	19.954	7.906	0.503
480.000	313.116	79.998	19.996	103.110	19.955	7.795	0.537
482.000	314.083	79.998	19.996	103.109	19.948	8.310	0.513
484.000	315.076	79.997	19.994	103.090	19.939	8.957	0.494
486.000	316.100	79.998	19.995	103.098	19.937	9.122	0.538
488.000	317.096	79.995	19.996	103.095	19.930	9.678	0.525
490.000	318.085	79.997	19.996	103.105	19.924	10.095	0.495
492.000	319.080	79.997	19.996	103.095	19.918	10.511	0.492
494.000	320.115	79.997	19.996	103.100	19.913	10.906	0.494
496.000	321.100	79.998	19.995	103.095	19.904	11.532	0.515
498.000	322.159	79.997	19.995	103.104	19.901	11.787	0.515
500.000	323.137	79.999	19.993	103.093	19.893	12.335	0.489
502.000	324.122	80.000	19.994	103.102	19.885	12.946	0.510
504.000	325.131	79.999	19.994	103.099	19.877	13.527	0.513
506.000	326.131	80.000	19.996	103.091	19.871	14.001	0.477
508.000	327.148	79.999	19.994	103.084	19.863	14.583	0.511
510.000	328.113	79.999	19.996	103.083	19.857	15.000	0.504
512.000	329.133	79.997	19.995	103.090	19.849	15.630	0.520
514.000	330.145	79.996	19.995	103.092	19.838	16.410	0.501
516.000	331.123	79.997	19.995	103.108	19.831	16.952	0.494
518.000	332.118	79.996	19.996	103.104	19.823	17.507	0.494
520.000	333.146	79.997	19.995	103.099	19.812	18.341	0.495
522.000	334.167	79.997	19.996	103.097	19.803	19.017	0.513
524.000	335.204	79.997	19.996	103.096	19.790	19.921	0.494
526.000	336.203	79.997	19.995	103.097	19.776	20.997	0.511
528.000	337.214	79.999	19.994	103.117	19.771	21.389	0.490
530.000	338.204	79.997	19.996	103.110	19.754	22.622	0.516
532.000	339.252	79.998	19.995	103.095	19.741	23.535	0.521
534.000	340.223	79.997	19.994	103.094	19.734	24.116	0.501
536.000	341.264	79.997	19.995	103.093	19.715	25.490	0.521
538.000	342.212	79.999	19.995	103.103	19.700	26.588	0.465
540.000	343.236	79.999	19.993	103.109	19.690	27.325	0.504
542.000	344.250	79.996	19.995	103.103	19.671	28.744	0.526
544.000	345.202	79.995	19.996	103.109	19.656	29.830	0.515
546.000	346.163	79.997	19.995	103.118	19.637	31.186	0.485
548.000	347.224	79.996	19.996	103.121	19.621	32.428	0.501
550.000	348.203	79.995	19.996	103.120	19.603	33.733	0.469
552.000	349.211	79.995	19.996	103.118	19.586	34.948	0.514
554.000	350.269	79.997	19.996	103.121	19.569	36.253	0.512
556.000	351.310	79.996	19.996	103.118	19.550	37.617	0.501
558.000	352.310	79.998	19.995	103.118	19.528	39.210	0.494
560.000	353.334	79.997	19.996	103.116	19.513	40.328	0.513
562.000	354.352	79.997	19.995	103.116	19.486	42.348	0.511
564.000	355.317	79.997	19.996	103.118	19.466	43.824	0.501
566.000	356.368	79.997	19.994	103.121	19.443	45.481	0.487
568.000	357.376	79.997	19.995	103.120	19.422	47.021	0.471
570.000	358.383	79.999	19.995	103.113	19.397	48.872	0.520
572.000	359.337	79.997	19.997	103.114	19.376	50.442	0.477
574.000	360.391	79.998	19.996	103.103	19.348	52.491	0.510
576.000	361.382	79.999	19.996	103.114	19.324	54.231	0.495
578.000	362.362	79.997	19.997	103.110	19.300	56.009	0.496
580.000	363.356	79.996	19.996	103.100	19.276	57.807	0.512
582.000	364.298	79.995	19.997	103.109	19.246	60.000	0.469
584.000	365.267	79.999	19.996	103.116	19.215	62.282	0.444
586.000	366.265	79.997	19.997	103.115	19.187	64.338	0.500
588.000	367.239	79.999	19.995	103.117	19.158	66.528	0.502
590.000	368.149	79.998	19.996	103.117	19.130	68.570	0.441
592.001	369.159	79.998	19.995	103.117	19.097	70.984	0.485
594.000	370.115	79.998	19.996	103.119	19.065	73.359	0.469
596.000	371.093	79.997	19.995	103.118	19.033	75.731	0.469
598.000	372.039	79.999	19.996	103.136	18.999	78.196	0.480
600.000	373.078	79.999	19.994	103.136	18.963	80.878	0.505
602.000	374.078	79.995	19.994	103.134	18.927	83.481	0.506
604.000	375.076	79.995	19.996	103.132	18.889	86.294	0.498
606.000	376.084	79.997	19.995	103.135	18.851	89.090	0.502
608.000	377.085	79.997	19.995	103.134	18.813	91.871	0.456
610.000	378.128	79.997	19.994	103.146	18.772	94.877	0.508
612.000	379.144	79.996	19.995	103.133	18.735	97.661	0.538
614.000	380.119	79.996	19.995	103.138	18.689	100.997	0.484
616.000	381.152	79.997	19.995	103.128	18.647	104.136	0.493
618.000	382.158	79.998	19.995	103.130	18.605	107.229	0.485
620.000	383.217	79.997	19.994	103.127	18.569	109.891	0.534
622.000	384.238	79.995	19.995	103.127	18.522	113.311	0.524
624.000	385.248	79.996	19.996	103.122	18.482	116.244	0.499
626.000	386.289	79.995	19.995	103.128	18.446	118.909	0.509
628.000	387.309	79.997	19.995	103.128	18.404	121.990	0.509
630.000	388.361	79.995	19.994	103.129	18.366	124.750	0.522
632.000	389.360	79.997	19.995	103.123	18.325	127.766	0.503
634.000	390.407	79.999	19.994	103.119	18.292	130.216	0.514
636.000	391.395	79.997	19.995	103.111	18.261	132.455	0.492
638.000	392.442	79.998	19.995	103.111	18.231	134.645	0.500
640.000	393.472	79.999	19.996	103.092	18.202	136.829	0.516
642.000	394.550	79.998	19.996	103.087	18.178	138.572	0.535
644.000	395.566	80.000	19.996	103.081	18.152	140.425	0.499
646.000	396.603	80.000	19.995	103.079	18.136	141.591	0.504
648.000	397.612	79.998	19.996	103.077	18.121	142.703	0.509
650.000	398.644	79.998	19.996	103.063	18.114	143.209	0.518
652.000	399.686	79.997	19.996	103.064	18.109	143.589	0.522
654.000	400.674	79.996	19.996	103.042	18.108	143.637	0.510
656.000	401.665	79.999	19.996	103.042	18.116	143.037	0.541
658.000	402.679	79.999	19.995	103.039	18.130	141.981	0.493
660.000	403.712	79.998	19.996	103.032	18.152	140.380	0.510
662.000	404.697	79.999	19.995	103.012	18.183	138.069	0.478
664.000	405.702	80.000	19.996	103.015	18.216	135.655	0.514
666.000	406.703	79.999	19.996	103.006	18.254	132.847	0.466
668.000	407.709	79.998	19.995	103.005	18.307	128.997	0.519
670.000	408.677	79.997	19.996	102.998	18.360	125.051	0.464
672.000	409.731	79.997	19.996	102.992	18.422	120.498	0.531
674.000	410.712	79.997	19.996	102.999	18.491	115.482	0.491
676.000	411.752	79.997	19.996	102.993	18.561	110.332	0.512
678.000	412.743	79.996	19.996	102.989	18.636	104.770	0.488
680.000	413.717	79.996	19.995	102.994	18.723	98.420	0.514
682.000	414.718	79.996	19.995	102.991	18.805	92.419	0.473
684.000	415.689	79.996	19.995	102.994	18.890	86.107	0.476
686.000	416.709	79.997	19.996	102.982	18.976	79.787	0.499
688.000	417.709	79.996	19.995	102.995	19.055	74.007	0.480
690.000	418.743	79.996	19.996	103.003	19.131	68.436	0.514
692.000	419.689	79.996	19.995	103.016	19.200	63.357	0.476
694.000	420.759	79.996	19.994	103.006	19.264	58.626	0.536
696.000	421.739	79.998	19.994	103.014	19.322	54.356	0.528
698.000	422.727	79.996	19.995	103.026	19.371	50.751	0.513
700.000	423.762	79.998	19.996	103.033	19.415	47.542	0.522
702.000	424.754	79.997	19.995	103.039	19.447	45.155	0.515
704.000	425.788	79.997	19.995	103.040	19.481	42.687	0.543
706.000	426.797	79.996	19.996	103.037	19.507	40.755	0.514
708.000	427.843	79.996	19.995	103.040	19.530	39.104	0.519
710.000	428.868	79.996	19.996	103.041	19.552	37.473	0.515
712.000	429.892	79.998	19.995	103.031	19.565	36.467	0.509
714.000	430.918	79.997	19.996	103.033	19.581	35.337	0.506
716.000	431.832	79.997	19.995	103.039	19.592	34.493	0.473
718.000	432.863	80.000	19.997	103.036	19.601	33.834	0.467
720.000	433.889	79.999	19.996	103.029	19.608	33.319	0.518
722.000	434.912	80.000	19.994	103.036	19.614	32.879	0.516
724.000	435.934	79.998	19.996	103.036	19.622	32.278	0.501
726.000	436.892	79.997	19.996	103.034	19.626	32.015	0.482
728.000	437.895	79.999	19.996	103.028	19.626	32.026	0.511
730.000	438.866	79.999	19.995	103.034	19.629	31.821	0.471
732.000	439.845	79.998	19.996	103.038	19.630	31.704	0.494
734.000	440.867	79.996	19.996	103.043	19.630	31.684	0.469
736.000	441.864	79.997	19.996	103.038	19.635	31.373	0.482
738.000	442.875	79.998	19.996	103.037	19.635	31.349	0.512
740.000	443.892	79.998	19.996	103.041	19.633	31.510	0.518
742.000	444.897	79.997	19.995	103.033	19.633	31.470	0.511
744.000	445.852	79.999	19.995	103.039	19.634	31.444	0.504
746.000	446.896	79.999	19.995	103.040	19.631	31.666	0.507
748.000	447.879	80.000	19.994	103.041	19.628	31.847	0.500
750.000	448.926	80.000	19.995	103.038	19.623	32.212	0.489
752.000	449.965	79.998	19.994	103.039	19.623	32.253	0.526
754.000	450.977	79.997	19.994	103.033	19.623	32.210	0.508
756.000	452.003	79.996	19.996	103.037	19.619	32.506	0.556
758.000	452.990	79.996	19.995	103.033	19.613	32.984	0.528
760.000	454.021	79.997	19.995	103.027	19.612	33.039	0.509
762.000	455.054	79.995	19.996	103.024	19.607	33.366	0.468
764.000	456.063	79.995	19.996	103.019	19.608	33.318	0.478
766.000	457.106	79.996	19.995	103.020	19.598	34.069	0.523
768.000	458.137	79.997	19.996	103.022	19.594	34.339	0.519
770.000	459.120	79.996	19.995	103.020	19.593	34.450	0.490
772.000	460.137	79.996	19.996	103.019	19.588	34.769	0.509
774.000	461.200	79.998	19.995	103.014	19.580	35.352	0.509
776.000	462.272	79.997	19.994	103.021	19.572	35.936	0.539
778.000	463.245	79.996	19.995	103.011	19.569	36.206	0.551
780.000	464.296	79.998	19.995	103.013	19.557	37.089	0.524
782.000	465.304	79.997	19.996	103.003	19.546	37.864	0.518
784.000	466.324	79.997	19.995	103.002	19.557	37.089	0.558
786.000	467.408	79.997	19.995	103.001	19.549	37.642	0.531
788.000	468.318	79.997	19.996	103.001	19.540	38.299	0.456
790.000	469.408	79.997	19.995	102.996	19.543	38.067	0.493
792.000	470.456	79.998	19.994	103.000	19.541	38.204	0.474
794.000	471.606	79.997	19.995	103.003	19.540	38.314	0.572
796.000	472.063	79.997	19.995	102.990	19.543	38.085	-0.039
798.000	474.133	79.998	19.994	102.997	19.548	37.742	1.273
800.000	474.287	79.997	19.995	102.994	19.552	37.449	0.237
802.000	475.764	79.999	19.994	102.989	19.558	36.974	0.342
804.000	476.760	79.999	19.996	102.972	19.572	36.007	0.437
806.000	477.720	80.000	19.994	102.988	19.586	34.968	0.511
808.000	478.754	79.998	19.995	102.992	19.602	33.768	0.536
810.000	479.777	79.998	19.994	102.988	19.626	32.013	0.477
812.000	480.801	79.998	19.996	102.944	19.649	30.295	0.494
814.000	481.791	79.999	19.995	102.963	19.679	28.088	0.498
816.000	482.801	79.998	19.996	103.050	19.707	26.071	0.514
818.000	483.790	79.998	19.994	102.986	19.743	23.416	0.490
820.000	484.798	79.998	19.995	102.993	19.776	20.998	0.491
822.000	485.778	79.998	19.996	103.005	19.808	18.617	0.474
824.000	486.802	79.997	19.995	103.011	19.842	16.087	0.507
826.000	487.799	80.000	19.994	103.003	19.878	13.454	0.519
828.000	488.747	79.999	19.996	103.023	19.902	11.710	0.472
830.000	489.726	80.000	19.996	103.025	19.927	9.833	0.487
832.000	490.762	80.000	19.996	103.031	19.950	8.157	0.484
834.000	491.721	79.999	19.996	103.039	19.970	6.699	0.489
836.000	492.730	79.999	19.995	103.039	19.984	5.684	0.507
838.000	493.789	79.997	19.996	103.044	19.996	4.792	0.539
840.000	494.843	79.998	19.996	103.040	20.005	4.163	0.506
842.000	495.826	79.997	19.996	103.042	20.016	3.305	0.531
844.000	496.840	79.997	19.996	103.041	20.024	2.739	0.492
846.000	497.828	79.995	19.995	103.041	20.027	2.493	0.475
848.000	498.884	79.997	19.996	103.040	20.031	2.213	0.536
850.000	499.905	79.997	19.997	103.040	20.034	2.021	0.499
852.000	500.964	79.996	19.996	103.040	20.036	1.832	0.537
854.000	501.998	79.997	19.997	103.040	20.038	1.682	0.507
856.000	503.011	79.997	19.996	103.037	20.039	1.611	0.499
858.000	504.027	79.996	19.997	103.038	20.039	1.595	0.505
860.000	505.057	79.996	19.997	103.044	20.039	1.601	0.502
862.000	506.069	79.997	19.996	103.037	20.045	1.201	0.480
864.000	507.117	79.995	19.995	103.042	20.047	1.053	0.511
866.000	508.149	79.995	19.996	103.041	20.045	1.197	0.524
868.000	509.141	79.996	19.994	103.042	20.043	1.309	0.511
870.000	510.184	79.996	19.995	103.043	20.047	1.063	0.504
872.000	511.173	79.997	19.995	103.042	20.049	0.917	0.515
874.000	512.183	79.996	19.996	103.043	20.045	1.215	0.499
876.000	513.181	79.998	19.994	103.044	20.048	0.972	0.536
878.000	514.160	79.997	19.994	103.043	20.045	1.167	0.490
880.000	515.212	79.997	19.996	103.043	20.046	1.088	0.548
882.001	516.204	79.999	19.994	103.043	20.041	1.453	0.477
884.000	517.165	79.998	19.994	103.044	20.045	1.148	0.489
886.000	518.240	79.998	19.994	103.045	20.043	1.331	0.531
888.000	519.198	79.998	19.995	103.044	20.045	1.175	0.478
890.000	520.240	79.998	19.995	103.050	20.043	1.307	0.509
892.000	521.225	79.997	19.995	103.062	20.044	1.250	0.479
894.000	522.277	79.997	19.995	103.051	20.042	1.375	0.500
896.000	523.321	79.998	19.995	103.058	20.044	1.292	0.515
898.000	524.372	79.998	19.995	103.047	20.040	1.542	0.534
900.000	525.463	79.998	19.996	103.042	20.042	1.371	0.556
902.000	526.551	79.998	19.995	103.057	20.041	1.461	0.526
904.000	527.607	79.999	19.995	103.058	20.041	1.453	0.523
906.000	528.683	80.000	19.994	103.043	20.043	1.323	0.532
908.000	529.818	80.001	19.996	103.044	20.043	1.321	0.581
910.000	530.908	80.000	19.995	103.044	20.047	1.053	0.555
912.000	531.966	79.998	19.994	103.047	20.043	1.345	0.534
914.000	533.096	79.998	19.995	103.043	20.044	1.252	0.528
916.000	534.201	79.997	19.995	103.044	20.044	1.292	0.555
918.000	535.342	79.996	19.995	103.041	20.047	1.006	0.573
920.000	536.426	79.998	19.995	103.045	20.043	1.315	0.557
922.000	537.572	79.998	19.996	103.042	20.046	1.112	0.550
924.000	538.658	79.998	19.995	103.039	20.045	1.193	0.548
926.000	539.779	79.997	19.996	103.049	20.049	0.901	0.553
928.000	540.909	79.998	19.996	103.043	20.045	1.211	0.577
930.000	541.976	79.997	19.996	103.054	20.049	0.872	0.544
932.000	543.072	79.997	19.995	103.058	20.047	1.065	0.545
934.000	544.195	79.998	19.995	103.050	20.048	0.943	0.560
936.000	545.264	79.996	19.996	103.050	20.048	0.945	0.554
938.000	546.361	79.997	19.996	103.047	20.049	0.909	0.544
940.000	547.498	79.995	19.996	103.050	20.048	0.978	0.518
942.000	548.625	79.995	19.996	103.046	20.046	1.104	0.552
944.000	549.727	79.996	19.997	103.046	20.047	1.053	0.553
946.000	550.826	79.995	19.996	103.044	20.048	0.974	0.561
948.000	551.937	79.996	19.996	103.043	20.046	1.102	0.564
950.000	552.992	79.996	19.996	103.046	20.047	1.065	0.539
952.000	554.109	79.996	19.995	103.051	20.047	1.020	0.553
954.000	555.205	79.997	19.996	103.051	20.045	1.177	0.540
956.000	556.265	79.996	19.995	103.053	20.043	1.321	0.544
958.000	557.309	79.998	19.995	103.045	20.046	1.114	0.527
960.001	558.384	79.999	19.995	103.049	20.043	1.361	0.529
962.000	559.453	79.999	19.994	103.045	20.043	1.339	0.513
964.000	560.525	79.998	19.995	103.044	20.045	1.181	0.502
966.001	561.579	79.999	19.995	103.040	20.045	1.193	0.522
968.001	562.659	79.999	19.995	103.040	20.046	1.102	0.513
970.000	563.661	79.998	19.995	103.044	20.044	1.240	0.518
972.000	564.718	79.997	19.995	103.041	20.044	1.262	0.531
974.000	565.746	79.999	19.994	103.039	20.047	1.018	0.519
976.000	566.807	79.997	19.995	103.040	20.043	1.365	0.540
978.000	567.835	79.998	19.995	103.040	20.047	1.012	0.539
980.000	568.874	79.998	19.995	103.040	20.048	0.980	0.518
982.000	569.926	79.998	19.995	103.039	20.044	1.256	0.528
984.000	570.963	79.998	19.995	103.042	20.044	1.231	0.481
986.000	571.997	79.997	19.994	103.040	20.047	1.059	0.527
988.000	573.013	80.000	19.995	103.041	20.049	0.901	0.508
990.000	574.071	80.001	19.995	103.041	20.048	0.966	0.507
992.000	575.139	79.999	19.994	103.041	20.046	1.128	0.519
994.000	576.159	79.999	19.995	103.038	20.048	0.929	0.512
996.000	577.157	79.997	19.995	103.042	20.050	0.850	0.483
998.000	578.184	79.996	19.995	103.043	20.046	1.134	0.511
1000.000	579.199	79.997	19.996	103.042	20.050	0.801	0.483
1002.000	580.205	79.997	19.995	103.043	20.048	0.954	0.503
1004.000	581.256	79.996	19.996	103.044	20.050	0.852	0.491
1006.000	582.242	79.996	19.995	103.036	20.049	0.905	0.484
1008.000	583.242	79.997	19.996	103.043	20.046	1.108	0.531
1010.000	584.243	79.998	19.995	103.043	20.047	1.035	0.496
1012.000	585.244	79.996	19.997	103.045	20.048	0.978	0.508
1014.000	586.225	79.997	19.996	103.042	20.045	1.201	0.473
1016.000	587.234	79.996	19.996	103.042	20.048	0.978	0.491
1018.000	588.216	79.996	19.997	103.045	20.046	1.140	0.471
1020.000	589.222	79.998	19.995	103.045	20.048	0.949	0.508
1022.000	590.197	79.997	19.995	103.045	20.046	1.079	0.506
1024.000	591.196	79.997	19.995	103.043	20.046	1.136	0.482
1026.000	592.197	79.996	19.996	103.043	20.044	1.246	0.502
1028.000	593.155	79.996	19.996	103.044	20.044	1.276	0.486
1030.000	594.205	79.996	19.995	103.040	20.042	1.375	0.505
1032.000	595.174	79.996	19.995	103.041	20.042	1.396	0.502
1034.001	596.186	79.997	19.996	103.039	20.043	1.355	0.496
1036.000	597.170	79.997	19.997	103.041	20.041	1.461	0.502
1038.000	598.148	79.997	19.996	103.045	20.042	1.375	0.494
1040.000	599.133	79.998	19.996	103.044	20.044	1.276	0.459
1042.000	600.141	79.999	19.996	103.043	20.042	1.372	0.491
1044.000	601.128	79.998	19.995	103.044	20.045	1.162	0.507
1046.000	602.130	79.999	19.995	103.048	20.045	1.185	0.528
1048.000	603.160	79.998	19.995	103.049	20.044	1.231	0.511
1050.000	604.097	79.999	19.995	103.045	20.042	1.428	0.475
1052.000	605.075	79.999	19.994	103.050	20.042	1.408	0.482
1054.000	606.110	79.997	19.996	103.048	20.041	1.467	0.466
1056.000	607.105	79.996	19.995	103.046	20.041	1.451	0.488
1058.000	608.108	79.998	19.995	103.046	20.044	1.258	0.509
1060.000	609.142	79.998	19.995	103.047	20.042	1.398	0.513
1062.000	610.148	79.999	19.995	103.052	20.042	1.372	0.490
1064.001	611.189	79.998	19.995	103.059	20.042	1.437	0.532
1066.000	612.159	79.999	19.995	103.062	20.042	1.376	0.518
1068.000	613.157	80.000	19.996	103.055	20.044	1.281	0.509
1070.000	614.226	80.000	19.994	103.071	20.044	1.258	0.507
1072.001	615.279	80.001	19.996	103.071	20.038	1.693	0.533
1074.000	616.285	79.999	19.996	103.074	20.040	1.552	0.529
1076.000	617.324	79.997	19.995	103.071	20.039	1.654	0.522
1078.000	618.330	79.997	19.995	103.076	20.037	1.804	0.512
1080.001	619.377	79.996	19.995	103.068	20.042	1.406	0.508
1082.000	620.408	79.998	19.995	103.077	20.036	1.816	0.517
1084.000	621.422	79.998	19.994	103.079	20.038	1.705	0.505
1086.000	622.458	79.998	19.995	103.072	20.038	1.719	0.504
1088.000	623.462	79.997	19.996	103.073	20.040	1.567	0.500
1090.000	624.489	79.997	19.996	103.080	20.039	1.642	0.523
1092.000	625.500	79.998	19.995	103.079	20.038	1.676	0.509
1094.000	626.551	79.998	19.996	103.079	20.039	1.597	0.506
1096.000	627.528	79.999	19.995	103.077	20.040	1.581	0.492
1098.000	628.551	79.999	19.996	103.077	20.039	1.640	0.472
1100.000	629.581	79.999	19.995	103.079	20.037	1.757	0.502
1102.000	630.624	79.999	19.995	103.080	20.038	1.735	0.512
1104.000	631.630	79.997	19.996	103.077	20.038	1.721	0.503
1106.001	632.601	79.997	19.996	103.077	20.037	1.808	0.485
1108.000	633.636	79.998	19.995	103.076	20.036	1.820	0.530
1110.000	634.660	79.997	19.995	103.077	20.039	1.593	0.509
1112.000	635.678	79.997	19.997	103.081	20.038	1.727	0.543
1114.000	636.675	79.996	19.995	103.080	20.038	1.664	0.506
1116.001	637.669	79.997	19.996	103.080	20.038	1.731	0.503
1118.000	638.687	79.997	19.995	103.080	20.034	1.985	0.518
1120.000	639.692	79.998	19.996	103.081	20.036	1.869	0.488
1122.000	640.754	79.999	19.997	103.082	20.037	1.800	0.508
1124.000	641.739	79.999	19.995	103.086	20.034	1.963	0.512
1126.000	642.812	79.999	19.996	103.092	20.035	1.928	0.542
1128.000	643.789	79.998	19.996	103.092	20.035	1.955	0.487
1130.000	644.753	79.998	19.997	103.083	20.036	1.813	0.440
1132.000	645.787	79.998	19.996	103.090	20.035	1.900	0.491
1134.000	646.805	79.998	19.996	103.105	20.037	1.793	0.500
1136.000	647.833	79.997	19.995	103.097	20.039	1.659	0.507
1138.000	648.829	79.999	19.995	103.097	20.038	1.732	0.519
1140.000	649.834	79.998	19.995	103.103	20.036	1.821	0.491
1142.000	650.889	79.998	19.995	103.113	20.038	1.689	0.518
1144.000	651.905	79.999	19.995	103.106	20.038	1.703	0.510
1146.000	652.895	79.999	19.994	103.112	20.037	1.740	0.508
1148.000	653.939	79.999	19.994	103.115	20.038	1.732	0.539
1150.000	654.975	80.001	19.995	103.104	20.034	1.959	0.490
1152.000	655.991	80.001	19.995	103.103	20.036	1.839	0.494
1154.000	657.007	80.001	19.995	103.117	20.034	2.030	0.533
1156.000	658.029	79.998	19.994	103.114	20.034	2.010	0.526
1158.000	659.023	79.997	19.995	103.116	20.033	2.061	0.508
1160.000	659.970	79.997	19.995	103.114	20.032	2.170	0.440
1162.001	661.034	79.997	19.995	103.111	20.035	1.898	0.542
1164.000	662.006	79.997	19.995	103.119	20.032	2.134	0.507
1166.000	663.012	79.997	19.996	103.121	20.033	2.053	0.526
1168.000	663.988	79.998	19.995	103.120	20.033	2.036	0.517
1170.000	665.042	79.999	19.994	103.121	20.032	2.164	0.533
1172.000	665.982	79.998	19.994	103.123	20.035	1.892	0.472
1174.000	666.988	79.997	19.995	103.132	20.036	1.872	0.496
1176.000	667.986	79.997	19.995	103.134	20.037	1.787	0.483
1178.000	668.976	79.999	19.995	103.134	20.033	2.098	0.501
1180.000	669.961	79.998	19.996	103.125	20.032	2.138	0.496
1182.000	670.984	79.999	19.994	103.134	20.034	1.972	0.519
1184.001	672.035	79.997	19.995	103.138	20.032	2.136	0.501
1186.000	673.032	79.997	19.995	103.147	20.030	2.291	0.510
1188.000	674.032	79.997	19.994	103.144	20.027	2.516	0.534
1190.001	675.077	79.997	19.996	103.155	20.030	2.319	0.534
1192.000	676.077	79.996	19.995	103.151	20.033	2.092	0.529
1194.000	677.090	79.998	19.996	103.155	20.031	2.238	0.505
1196.000	678.115	79.997	19.996	103.153	20.032	2.124	0.501
1198.000	679.140	79.998	19.996	103.152	20.029	2.392	0.503
1200.000	680.169	79.998	19.996	103.158	20.027	2.543	0.522
1202.000	681.160	79.998	19.995	103.159	20.026	2.602	0.520
1204.000	682.169	79.999	19.996	103.158	20.026	2.590	0.511
1206.000	683.202	80.000	19.995	103.158	20.027	2.507	0.519
1208.000	684.185	79.998	19.996	103.159	20.031	2.202	0.523
1210.000	685.203	79.998	19.995	103.158	20.028	2.470	0.493
1212.000	686.233	79.998	19.995	103.157	20.029	2.336	0.509
1214.000	687.216	79.996	19.996	103.161	20.025	2.665	0.490
1216.000	688.262	79.998	19.996	103.167	20.025	2.669	0.512
1218.000	689.269	79.997	19.996	103.167	20.023	2.779	0.533
1220.000	690.246	79.997	19.996	103.165	20.024	2.749	0.492
1222.000	691.289	79.999	19.996	103.160	20.024	2.765	0.504
1224.000	692.318	79.998	19.996	103.161	20.023	2.804	0.532
1226.000	693.363	79.999	19.996	103.172	20.023	2.836	0.526
1228.000	694.307	80.000	19.994	103.183	20.020	3.043	0.511
1230.000	695.357	80.002	19.994	103.186	20.019	3.121	0.499
1232.000	696.335	80.001	19.994	103.193	20.017	3.236	0.458
1234.000	697.361	80.000	19.996	103.192	20.018	3.198	0.483
1236.000	698.355	79.999	19.995	103.194	20.014	3.452	0.527
1238.000	699.340	79.998	19.996	103.195	20.015	3.420	0.521
1240.000	700.375	79.996	19.996	103.195	20.013	3.511	0.518
1242.000	701.356	79.996	19.995	103.192	20.013	3.552	0.487
1244.000	702.323	79.997	19.996	103.193	20.013	3.568	0.469
1246.000	703.329	79.996	19.995	103.200	20.013	3.546	0.495
1248.000	704.316	79.997	19.996	103.203	20.010	3.747	0.504
1250.000	705.326	79.996	19.996	103.199	20.012	3.636	0.490
1252.000	706.348	79.998	19.995	103.205	20.010	3.752	0.501
1254.000	707.344	79.996	19.994	103.214	20.011	3.711	0.505
1256.000	708.360	79.996	19.996	103.206	20.012	3.642	0.495
1258.000	709.386	79.997	19.996	103.220	20.011	3.705	0.515
1260.000	710.398	79.998	19.995	103.221	20.009	3.860	0.515
1262.001	711.379	79.998	19.995	103.232	20.010	3.768	0.482
1264.000	712.412	79.997	19.996	103.217	20.011	3.719	0.487
1266.000	713.467	79.997	19.995	103.227	20.007	3.971	0.531
1268.001	714.462	79.996	19.995	103.220	20.007	3.969	0.500
1270.000	715.483	79.997	19.995	103.229	20.011	3.699	0.524
1272.000	716.530	79.997	19.995	103.232	20.010	3.732	0.532
1274.000	717.575	79.996	19.995	103.223	20.009	3.861	0.511
1276.000	718.570	79.996	19.996	103.216	20.007	4.015	0.517
1278.000	719.580	79.997	19.995	103.220	20.010	3.764	0.527
1280.000	720.565	79.997	19.996	103.234	20.012	3.650	0.487
1282.000	721.633	79.998	19.996	103.235	20.012	3.634	0.517
1284.000	722.625	79.999	19.995	103.228	20.013	3.552	0.533
1286.000	723.603	79.999	19.997	103.221	20.011	3.674	0.470
1288.000	724.607	79.998	19.996	103.213	20.011	3.708	0.499
1290.000	725.594	79.998	19.995	103.229	20.015	3.403	0.491
1292.000	726.582	80.000	19.996	103.224	20.010	3.774	0.473
1294.000	727.593	79.996	19.996	103.221	20.014	3.486	0.520
1296.000	728.613	79.998	19.995	103.203	20.014	3.475	0.525
1298.000	729.598	79.998	19.996	103.204	20.012	3.627	0.526
1300.001	730.637	79.999	19.995	103.194	20.016	3.288	0.526
1302.000	731.618	79.998	19.996	103.178	20.015	3.397	0.485
1304.000	732.660	79.998	19.997	103.187	20.018	3.191	0.522
1306.000	733.648	79.998	19.996	103.172	20.019	3.123	0.482
1308.000	734.657	79.998	19.996	103.157	20.021	2.955	0.490
1310.000	735.670	80.000	19.995	103.152	20.021	2.981	0.517
1312.000	736.698	79.999	19.997	103.137	20.024	2.697	0.523
1314.000	737.756	79.998	19.996	103.128	20.029	2.348	0.528
1316.000	738.787	79.997	19.996	103.089	20.031	2.244	0.562
1318.000	739.822	79.999	19.996	103.076	20.035	1.948	0.529
1320.000	740.868	79.996	19.996	103.078	20.035	1.927	0.505
1322.000	741.894	79.997	19.994	103.071	20.038	1.680	0.489
1324.000	742.918	79.998	19.995	103.067	20.039	1.599	0.512
1325.000	743.458	79.998	19.995	103.058	20.039	1.592	0.525