File: 01_Data/Carpet_Polyolefin_LowPile/Cone/Polyolefin_Carpet_LowPile_Cone_HF75Scan_220411_R2.csv
Names,Time,Stack TC,Smoke TC,Exh Press,Smoke Comp,Smoke Meas,CO Meter,CO2 Meter,O2 Meter,Sample Mass,Ext Coeff,Start Test,Flame Verif
Chan Gain,,500,500,1,1,1,1,1,1,1,1,1.0,1.0
Offset,,0,0,0.133936,0,0,0,0,0,0,0,0.0,0.0
Gain,,1,1,25.011,13.0656,13.5076,1,1,1,1.00089,1.01037,1.0,1.0
Units,sec,C,C,Pa,%,%,%,%,%,g,/m,,
Baseline,,42.7731,44.2981,142.557,98.8534,94.9229,0.000624809,0.0514667,21.005,-839.885,0.359659,,
3,0.5,41.779,43.5634,142.135,97.9965,93.6181,0.000478858,0.0548727,20.9948,195.074,0.405105,0.0,0.0
6,1.25,41.2526,42.5458,148.562,97.9985,94.2921,0.000487259,0.0554346,20.9939,194.764,0.341708,0.0,0.0
9,2,41.2781,42.3242,142.172,97.9861,94.0138,0.000497728,0.0558985,20.9927,194.874,0.366782,0.0,0.0
12,2.75,40.784,42.7038,139.61,97.9694,93.8897,0.000510524,0.05631,20.9913,194.734,0.376972,0.0,0.0
15,3.5,41.1487,42.5237,137.823,97.9582,93.6037,0.000540374,0.0566957,20.989,194.764,0.403009,0.0,0.0
18,4.25,40.4942,43.0776,145.347,97.9538,92.7079,0.000570883,0.0577917,20.9853,194.844,0.487835,0.0,0.0
21,5,40.8116,42.3715,140.484,97.9387,91.3295,0.000746633,0.0618689,20.9826,194.894,0.619235,0.0,0.0
24,5.75,40.9985,42.5715,134.943,97.9155,92.1877,0.000874754,0.0699427,20.971,194.674,0.534244,0.0,0.0
27,6.5,40.9069,42.5366,136.538,97.9271,92.0991,0.001159,0.0821622,20.9585,194.674,0.543815,0.0,1.0
30,7.25,41.1493,42.6031,131.504,97.9091,87.5379,0.00169257,0.103348,20.9333,194.694,0.992368,0.0,1.0
33,8,41.0302,42.8113,132.531,97.8904,82.9441,0.00257582,0.124026,20.8962,194.604,1.46842,0.0,1.0
36,8.75,41.3672,42.8936,129.111,97.8737,80.3529,0.00359563,0.151818,20.8612,194.584,1.74821,0.0,1.0
39,9.5,41.9422,43.2494,119.574,97.8509,76.2942,0.00469917,0.193827,20.7786,194.524,2.20552,0.0,1.0
42,10.25,42.2761,43.5548,122.916,97.8549,70.5854,0.00584534,0.241056,20.6811,194.483,2.89519,0.0,1.0
45,11,42.8143,44.4118,121.343,97.8274,65.5357,0.00707575,0.282564,20.5757,194.373,3.55057,0.0,1.0
48,11.75,43.4396,44.586,116.773,97.8063,64.5043,0.00814105,0.331861,20.491,194.273,3.68925,0.0,1.0
51,12.5,44.2904,45.5296,124.291,97.7915,63.3328,0.00980995,0.377529,20.4134,194.243,3.85036,0.0,1.0
54,13.25,44.8691,46.0202,121.494,97.7847,59.7713,0.0115402,0.419896,20.3406,194.143,4.36272,0.0,1.0
57,14,46.1843,47.3832,117.142,97.7708,56.6038,0.0133116,0.459209,20.2714,194.083,4.84403,0.0,1.0
60,14.75,47.0389,48.7239,113.705,97.7461,56.0419,0.0151009,0.500667,20.1908,193.923,4.93021,0.0,0.0
63,15.5,47.1701,49.3506,114.128,97.7421,51.512,0.017203,0.536348,20.1143,193.843,5.67685,0.0,0.0
66,16.25,48.5884,50.0987,110.482,97.7253,52.6543,0.0191647,0.585836,20.0281,193.753,5.48095,0.0,0.0
69,17,50.0134,51.5783,110.059,97.713,54.4722,0.0213285,0.63821,19.9331,193.603,5.179,0.0,0.0
72,17.75,50.4775,53.1284,108.46,97.6771,51.6501,0.0237832,0.693482,19.8323,193.493,5.64723,0.0,0.0
75,18.5,52.2969,53.957,107.821,97.6659,50.3178,0.0259467,0.751121,19.7279,193.363,5.87783,0.0,0.0
78,19.25,53.303,55.2732,101.584,97.6763,49.7869,0.0286177,0.824681,19.6122,193.202,5.97279,0.0,0.0
81,20,54.9037,56.9959,99.3763,97.6611,48.5053,0.0313989,0.89242,19.5111,193.082,6.20254,0.0,0.0
84,20.75,56.7178,58.867,92.0191,97.6264,46.3779,0.0340554,0.965939,19.3685,192.952,6.59691,0.0,0.0
87,21.5,58.2866,60.6828,93.3937,97.6061,48.9633,0.0366575,1.04454,19.2329,192.762,6.11426,0.0,0.0
90,22.25,60.5173,63.0643,90.146,97.5993,46.6273,0.0388036,1.11249,19.1025,192.612,6.54691,0.0,0.0
93,23,62.1739,65.1467,106.245,97.5854,47.3692,0.0405094,1.19169,18.9766,192.462,6.40572,0.0,0.0
96,23.75,64.7116,67.8424,80.2127,97.5786,47.5374,0.0418128,1.26031,18.8673,192.372,6.37369,0.0,0.0
99,24.5,66.4714,70.4518,94.5013,97.5387,49.5285,0.0426807,1.31755,18.7876,192.171,6.00642,0.0,0.0
102,25.25,68.8295,72.6854,105.743,97.5375,49.1711,0.0433134,1.36366,18.7296,192.051,6.0705,0.0,0.0
105,26,71.0386,75.52,101.045,97.528,51.4514,0.0433479,1.39604,18.6872,191.911,5.66785,0.0,0.0
108,26.75,73.1014,77.8877,97.2216,97.5056,51.5133,0.0431759,1.41447,18.6563,191.711,5.65517,0.0,0.0
111,27.5,75.4979,80.3596,90.4429,97.4905,52.771,0.0427136,1.42569,18.6545,191.641,5.44001,0.0,0.0
114,28.25,77.221,82.3961,96.3346,97.4869,55.0691,0.0417068,1.4237,18.6532,191.461,5.06188,0.0,0.0
117,29,78.9178,85.1497,100.817,97.4829,53.3514,0.0411922,1.4179,18.6601,191.371,5.34237,0.0,0.0
120,29.75,80.6997,86.7634,103.076,97.4618,53.7059,0.0402707,1.3975,18.6779,191.291,5.28175,0.0,0.0
123,30.5,82.2289,88.5637,112.176,97.4494,55.0369,0.0388548,1.37714,18.72,191.12,5.06365,0.0,0.0
126,31.25,83.9178,90.5583,101.517,97.4291,54.3234,0.0375066,1.35293,18.763,191.02,5.17746,0.0,0.0
129,32,84.9859,92.0434,107.821,97.4271,53.2446,0.0361376,1.34055,18.8152,190.91,5.35505,0.0,0.0
132,32.75,86.281,93.3458,103.256,97.4175,53.4008,0.0349749,1.30015,18.8766,190.82,5.32821,0.0,0.0
135,33.5,87.6434,94.9398,102.788,97.3968,51.8303,0.0337154,1.25898,18.9313,190.7,5.5909,0.0,0.0
138,34.25,88.6221,95.9653,104.452,97.3876,54.7067,0.0324995,1.21471,19.0119,190.61,5.11136,0.0,0.0
141,35,89.4997,97.317,109.751,97.3768,57.1483,0.0314043,1.17848,19.0948,190.53,4.7234,0.0,0.0
144,35.75,90.451,98.1398,109.805,97.3832,55.7031,0.0302258,1.13332,19.1785,190.4,4.951,0.0,0.0
147,36.5,91.1663,98.6813,108.609,97.3549,55.7933,0.029053,1.09326,19.2617,190.27,4.93407,0.0,0.0
150,37.25,91.3539,99.7614,112.055,97.3481,57.9361,0.0280642,1.05185,19.346,190.21,4.59945,0.0,0.0
153,38,91.995,100.175,113.434,97.3354,58.4072,0.0268049,1.00559,19.4176,190.15,4.5265,0.0,0.0
156,38.75,92.4626,100.397,114.523,97.3362,61.7981,0.0256857,0.965524,19.4909,190.05,4.02641,0.0,0.0
159,39.5,92.7762,101.314,113.037,97.3138,63.0542,0.0245258,0.925451,19.5534,189.989,3.84604,0.0,0.0
162,40.25,92.9254,101.57,120.401,97.3003,62.9775,0.0234406,0.883135,19.6258,189.899,3.85559,0.0,0.0
165,41,93.3728,102.068,116.562,97.2943,60.7828,0.0222395,0.84102,19.6897,189.839,4.16941,0.0,0.0
168,41.75,93.6565,102.131,118.617,97.3138,64.3823,0.0209604,0.800603,19.7553,189.759,3.66129,0.0,0.0
171,42.5,94.0099,102.387,120.124,97.2728,64.1915,0.0198917,0.765184,19.8301,189.729,3.68387,0.0,0.0
174,43.25,93.4952,102.016,118.773,97.272,63.764,0.0188796,0.72918,19.9021,189.649,3.74301,0.0,0.0
177,44,93.6567,102.058,121.213,97.2784,64.694,0.0177619,0.692819,19.9622,189.539,3.61526,0.0,0.0
180,44.75,93.2885,101.991,122.681,97.2576,67.3895,0.0168161,0.658156,20.0285,189.529,3.25158,0.0,0.0
183,45.5,93.2573,102.137,126.51,97.256,66.1524,0.0157801,0.626313,20.0887,189.479,3.41565,0.0,0.0
186,46.25,92.9722,101.573,122.907,97.2413,67.6219,0.0148158,0.596677,20.1377,189.389,3.21957,0.0,0.0
189,47,92.7795,101.599,128.194,97.2421,70.5784,0.0141129,0.568917,20.1884,189.339,2.84039,0.0,0.0
192,47.75,92.4802,101.03,125.818,97.2401,69.7659,0.0131769,0.542838,20.2346,189.299,2.94282,0.0,0.0
195,48.5,92.0659,101.256,127.218,97.2313,70.8504,0.0123719,0.516349,20.2722,189.229,2.80531,0.0,0.0
198,49.25,92.029,100.919,127.105,97.2062,71.1885,0.0115755,0.494196,20.312,189.189,2.76083,0.0,0.0
201,50,91.9478,100.379,124.227,97.209,73.076,0.0107901,0.473187,20.3501,189.139,2.52915,0.0,0.0
204,50.75,91.627,100.436,125.015,97.2138,72.8794,0.010107,0.457871,20.3856,189.139,2.55347,0.0,0.0
207,51.5,91.0767,99.9924,127.25,97.2006,74.4685,0.00950459,0.437023,20.4178,189.089,2.36109,0.0,0.0
210,52.25,90.9747,99.071,130.294,97.1898,75.6017,0.00896737,0.417257,20.4452,189.019,2.22626,0.0,0.0
213,53,90.6677,98.9665,131.696,97.1803,75.8919,0.00850019,0.399115,20.4719,188.969,2.19143,0.0,0.0
216,53.75,90.116,98.7862,131.489,97.1791,75.8931,0.00803043,0.382839,20.4986,188.959,2.19118,0.0,0.0
219,54.5,89.7895,98.2254,129.752,97.1743,78.8483,0.00762121,0.36656,20.518,188.878,1.85218,0.0,0.0
222,55.25,89.2031,98.1843,131.986,97.1532,81.1435,0.00720871,0.354692,20.5397,188.889,1.59594,0.0,0.0
225,56,88.9213,97.4193,128.855,97.1551,80.9815,0.00679123,0.33902,20.5616,188.838,1.61383,0.0,0.0
228,56.75,88.3582,96.8087,135.946,97.1579,83.2508,0.00642376,0.325955,20.5837,188.808,1.36915,0.0,0.0
231,57.5,88.2131,96.4597,132.267,97.1559,82.2145,0.00609968,0.313627,20.6058,188.808,1.47998,0.0,0.0
234,58.25,87.7438,96.1674,129.523,97.136,82.395,0.00581337,0.301694,20.6271,188.768,1.45872,0.0,0.0
237,59,87.157,95.4138,131.864,97.1248,84.4095,0.00556434,0.29174,20.6449,188.748,1.24362,0.0,0.0
240,59.75,86.7915,95.0444,131.922,97.1304,83.3522,0.00531388,0.281318,20.6635,188.708,1.35585,0.0,0.0
243,60.5,86.1928,94.4719,132.264,97.1388,85.0287,0.00503644,0.271458,20.6812,188.688,1.18012,0.0,0.0
246,61.25,85.8056,94.0777,135.275,97.1348,85.0031,0.00483419,0.263306,20.6959,188.678,1.18242,0.0,0.0
249,62,85.2162,93.8593,136.309,97.1129,85.9393,0.00456229,0.253886,20.7105,188.678,1.08334,0.0,0.0
252,62.75,85.2372,92.9073,135.947,97.1209,86.2204,0.00431255,0.245886,20.7247,188.618,1.05512,0.0,0.0
255,63.5,84.2615,92.4928,134.931,97.1244,86.7011,0.00408467,0.238116,20.7382,188.588,1.00618,0.0,0.0
258,64.25,84.005,91.9134,132.676,97.1169,86.6677,0.00387775,0.229781,20.7524,188.598,1.0089,0.0,0.0
261,65,82.947,92.0932,135.54,97.1053,86.9274,0.00365709,0.222632,20.7659,188.558,0.981331,0.0,0.0
264,65.75,82.6447,91.0237,133.676,97.1085,86.7538,0.00344248,0.215587,20.7782,188.538,0.999333,0.0,0.0
267,66.5,82.6098,90.8269,138.397,97.1197,87.3095,0.00323485,0.208965,20.7891,188.518,0.943766,0.0,0.0
270,67.25,81.829,90.0592,132.107,97.1101,88.8326,0.00303517,0.202779,20.8002,188.518,0.789608,0.0,0.0
273,68,81.9174,88.9952,135.878,97.1113,88.8446,0.00286524,0.196466,20.8083,188.498,0.788525,0.0,0.0
276,68.75,81.0728,89.2868,132.488,97.1093,88.8182,0.00269968,0.190902,20.816,188.488,0.790975,0.0,0.0
279,69.5,80.4975,88.6383,136.968,97.1125,89.1735,0.00254492,0.185243,20.8226,188.448,0.755879,0.0,0.0
282,70.25,79.9235,87.9325,134.417,97.1149,89.1212,0.00240733,0.180461,20.829,188.468,0.761301,0.0,0.0
285,71,79.637,87.7586,137.368,97.1041,90.665,0.00228951,0.175852,20.8362,188.458,0.60811,0.0,0.0
288,71.75,79.2598,87.35,139.573,97.1213,90.6134,0.00218628,0.171814,20.8432,188.418,0.614713,0.0,0.0
291,72.5,78.5236,86.2954,138.35,97.1177,90.5405,0.00210251,0.167713,20.8502,188.398,0.621525,0.0,0.0
294,73.25,78.1953,85.8479,136.98,97.1296,90.4786,0.00203463,0.163755,20.8572,188.388,0.628672,0.0,0.0
297,74,77.6882,85.6659,139.293,97.1177,90.5466,0.0019961,0.160015,20.8626,188.378,0.62092,0.0,0.0
300,74.75,77.7118,85.1535,135.316,97.138,90.9642,0.00194391,0.156534,20.8688,188.388,0.581996,0.0,0.0
303,75.5,76.6206,84.7144,136.39,97.136,91.0273,0.00189275,0.152724,20.874,188.358,0.575671,0.0,0.0
306,76.25,76.271,84.3248,139.444,97.14,91.2548,0.00185545,0.148635,20.879,188.368,0.553908,0.0,0.0
309,77,76.0791,83.8083,139.496,97.142,91.9861,0.00182826,0.146545,20.8832,188.328,0.483349,0.0,0.0
312,77.75,75.3142,82.9151,131.187,97.142,91.9259,0.00182403,0.142784,20.8872,188.318,0.48915,0.0,0.0
315,78.5,75.268,82.8043,140.525,97.1591,91.6897,0.00183674,0.140042,20.8914,188.308,0.513517,0.0,0.0
318,79.25,74.4498,81.9269,137.077,97.1599,91.4659,0.00185274,0.136179,20.896,188.308,0.535252,0.0,0.0
321,80,74.4631,81.9826,138.683,97.1512,92.3386,0.00186441,0.132648,20.8994,188.288,0.450292,0.0,0.0
324,80.75,74.015,81.6076,137.897,97.1603,91.698,0.00187292,0.129769,20.9037,188.258,0.512829,0.0,0.0
327,81.5,73.5772,80.9759,137.837,97.1691,92.2825,0.00184446,0.126753,20.9078,188.268,0.457312,0.0,0.0
330,82.25,73.1925,80.3021,139.75,97.1827,92.5323,0.00182371,0.123996,20.9111,188.248,0.434589,0.0,0.0
333,83,72.6624,80.0961,141.909,97.1815,91.6914,0.0017601,0.121747,20.9142,188.248,0.515394,0.0,0.0
336,83.75,71.9518,79.3017,142.946,97.1874,92.3851,0.00168777,0.119564,20.9173,188.258,0.449132,0.0,0.0
339,84.5,71.9624,79.4839,138.519,97.1839,92.8332,0.00162803,0.117741,20.9201,188.268,0.405922,0.0,0.0
342,85.25,71.7875,79.0318,135.913,97.2269,92.9552,0.00157247,0.115816,20.9226,188.268,0.398208,0.0,0.0
345,86,71.2604,78.1394,140.596,97.2209,92.5838,0.00152851,0.114186,20.9253,188.238,0.433146,0.0,0.0
348,86.75,70.6308,77.9308,140.763,97.2114,92.3666,0.00150737,0.112609,20.9279,188.218,0.453093,0.0,0.0
351,87.5,70.1181,77.6968,135.352,97.2209,92.9928,0.00150236,0.110984,20.9301,188.218,0.394087,0.0,0.0
354,88.25,70.2163,77.1057,142.481,97.2349,92.341,0.00150853,0.109508,20.9318,188.198,0.457691,0.0,0.0
357,89,69.7865,76.8286,139.127,97.2409,92.4408,0.00151431,0.108161,20.933,188.198,0.448666,0.0,0.0
360,89.75,68.9933,76.153,138.906,97.2417,93.0484,0.0015207,0.106929,20.9345,188.198,0.390673,0.0,0.0
363,90.5,68.4875,75.7838,141.086,97.2524,92.6143,0.0015193,0.105656,20.9358,188.178,0.433096,0.0,0.0
366,91.25,68.3585,75.3498,137.081,97.2819,92.231,0.00151314,0.10456,20.9372,188.198,0.472548,0.0,0.0
369,92,67.742,75.1178,138.114,97.2696,92.447,0.00150428,0.103474,20.9388,188.188,0.45069,0.0,0.0
372,92.75,68.0285,74.3748,140.961,97.2704,92.6737,0.00149782,0.102391,20.94,188.178,0.429053,0.0,0.0
375,93.5,67.6602,74.7209,138.195,97.2851,92.954,0.00149247,0.101478,20.9408,188.158,0.40363,0.0,0.0
378,94.25,66.6797,73.7206,136.924,97.3142,92.353,0.00148749,0.100591,20.9421,188.138,0.463772,0.0,0.0
381,95,66.6503,73.288,136.829,97.3063,92.7104,0.00148039,0.0997919,20.943,188.138,0.428814,0.0,0.0
384,95.75,65.9438,72.8944,138.647,97.3083,92.935,0.00147522,0.0991097,20.9437,188.128,0.407544,0.0,0.0
387,96.5,66.2481,73.3627,136.848,97.3126,93.1766,0.00146453,0.0984151,20.9442,188.108,0.384937,0.0,0.0
390,97.25,66.4442,72.9325,138.757,97.3294,92.9697,0.00144582,0.0977153,20.9447,188.158,0.406168,0.0,0.0
393,98,65.5925,72.1064,139.119,97.3433,92.7116,0.00141351,0.0971226,20.9456,188.148,0.432073,0.0,0.0
396,98.75,64.9748,71.869,141.537,97.3473,92.7462,0.00136596,0.0962768,20.9464,188.098,0.429126,0.0,0.0
399,99.5,64.6392,72.0092,140.936,97.3441,92.9581,0.00133129,0.0955512,20.9474,188.088,0.408612,0.0,0.0
402,100.25,64.7673,70.9052,139.389,97.3681,92.5055,0.00123697,0.0948358,20.9478,188.078,0.454049,0.0,0.0
405,101,64.3658,70.5013,140.324,97.3892,92.6733,0.00116375,0.0942178,20.948,188.088,0.439911,0.0,0.0
408,101.75,64.5623,70.6903,143.42,97.3892,93.0946,0.00110275,0.093726,20.9485,188.078,0.399714,0.0,0.0
411,102.5,63.89,70.1198,136.618,97.4012,92.6341,0.00108369,0.093202,20.9491,188.078,0.444746,0.0,0.0
414,103.25,63.521,69.7412,140.852,97.4067,93.1003,0.00108062,0.092655,20.9496,188.028,0.40076,0.0,0.0
417,104,63.4034,69.5841,138.433,97.4303,92.6354,0.00112787,0.0920949,20.95,188.038,0.447276,0.0,0.0
420,104.75,63.0732,69.1591,141.049,97.4291,93.3069,0.001162,0.0916431,20.9501,188.038,0.383153,0.0,0.0
423,105.5,62.8432,69.1363,138.353,97.4374,93.1519,0.00121372,0.0912393,20.9503,188.038,0.398649,0.0,0.0
426,106.25,62.4589,68.641,139.649,97.4646,93.2182,0.00127735,0.0907933,20.9508,188.028,0.394803,0.0,0.0
429,107,62.3281,68.4621,138.796,97.4745,92.8744,0.00133951,0.090219,20.9517,188.018,0.428457,0.0,0.0
432,107.75,61.8357,67.5918,140.394,97.4837,94.0476,0.00139729,0.0899033,20.9527,188.018,0.318037,0.0,0.0
435,108.5,61.6009,67.8328,140.067,97.4821,92.8353,0.00144924,0.0894284,20.9534,188.028,0.432883,0.0,0.0
438,109.25,61.4717,67.5716,140.25,97.4905,92.9235,0.00149923,0.0890135,20.9539,187.998,0.425227,0.0,0.0
441,110,61.4855,67.5255,140.344,97.5136,93.6634,0.00153567,0.0886739,20.9543,187.988,0.357035,0.0,0.0
444,110.75,61.4636,67.3335,139.43,97.5363,94.0179,0.00156224,0.0884263,20.9546,187.988,0.325618,0.0,0.0
447,111.5,61.0411,66.6489,142.683,97.5204,92.6774,0.00157432,0.0882045,20.9548,187.988,0.451449,0.0,0.0
450,112.25,60.5727,66.9577,138.467,97.5395,93.4783,0.00158003,0.0880252,20.955,187.988,0.376921,0.0,0.0
453,113,60.4225,66.41,139.641,97.5507,93.6849,0.00156182,0.087757,20.9548,187.998,0.358376,0.0,0.0
456,113.75,60.6637,66.2179,141.79,97.5638,93.1642,0.00151915,0.0874239,20.955,187.958,0.408962,0.0,0.0
459,114.5,59.9761,65.7546,138.631,97.5726,93.1535,0.00146622,0.0871224,20.9555,187.988,0.410779,0.0,0.0
462,115.25,60.2202,65.8192,139.904,97.5838,92.9944,0.00141834,0.0868054,20.9558,188.018,0.426945,0.0,0.0
465,116,59.4955,65.595,140.539,97.6013,93.1927,0.00135925,0.0865257,20.9561,187.998,0.409661,0.0,0.0
468,116.75,59.4227,65.2478,138.392,97.6213,93.8143,0.00131617,0.0863094,20.9563,187.958,0.35255,0.0,0.0
471,117.5,59.2271,64.7633,143.863,97.6205,92.9227,0.00126577,0.0861713,20.9564,187.948,0.437114,0.0,0.0
474,118.25,59.3201,64.7827,137.992,97.6344,93.2982,0.00122903,0.0860982,20.9565,187.948,0.402636,0.0,0.0
477,119,59.0667,64.2509,142.161,97.644,93.2302,0.00120543,0.0860566,20.9566,187.958,0.409968,0.0,0.0
480,119.75,58.7756,63.7267,137.129,97.6703,93.6288,0.00119813,0.0860655,20.9567,187.948,0.374542,0.0,0.0
483,120.5,58.1074,63.8384,141.92,97.6727,93.637,0.00120045,0.0860793,20.9567,187.898,0.37398,0.0,0.0
486,121.25,58.0631,63.6943,135.717,97.6851,93.2182,0.00120731,0.0861017,20.9567,187.918,0.414831,0.0,0.0
489,122,58.2088,63.4842,140.99,97.6974,93.4272,0.00121232,0.0860788,20.9568,187.928,0.396104,0.0,0.0
492,122.75,58.0805,63.7997,138.756,97.7166,93.3683,0.00120317,0.0860071,20.9568,187.908,0.403435,0.0,0.0
495,123.5,57.858,62.9622,140.165,97.7194,93.4367,0.00117463,0.0858589,20.9575,187.898,0.397195,0.0,0.0
498,124.25,57.5183,63.0684,136.195,97.7217,93.487,0.00114109,0.0856271,20.958,187.888,0.392642,0.0,0.0
501,125,57.584,62.7799,137.95,97.7297,93.4895,0.00109486,0.0854582,20.9586,187.878,0.393131,0.0,0.0
504,125.75,57.7483,62.8498,142.013,97.7445,92.7516,0.00103356,0.0851781,20.9594,187.868,0.464698,0.0,0.0
507,126.5,56.8484,62.2765,138.894,97.7524,93.992,0.000982828,0.0849739,20.9603,187.858,0.347682,0.0,0.0
510,127.25,56.8511,62.2057,138.766,97.758,93.2355,0.000944541,0.0846302,20.9609,187.838,0.419803,0.0,0.0
513,128,57.0286,62.1491,141.83,97.7756,93.393,0.000918806,0.0843218,20.9613,187.848,0.406437,0.0,0.0
516,128.75,56.6687,62.0781,139.739,97.8079,92.8588,0.000910391,0.0840125,20.9616,187.858,0.460209,0.0,0.0
519,129.5,56.463,61.9081,139.41,97.8055,92.853,0.000921186,0.0838118,20.9619,187.868,0.460543,0.0,0.0
522,130.25,56.2196,61.4595,136.858,97.8059,92.7359,0.000936273,0.0837242,20.962,187.848,0.47176,0.0,0.0
525,131,56.3396,61.4572,140.159,97.8509,93.4206,0.000988694,0.0837429,20.9617,187.838,0.410646,0.0,0.0
528,131.75,56.0609,60.9836,139.67,97.843,92.6292,0.00104093,0.0838278,20.9613,187.828,0.48533,0.0,0.0
531,132.5,56.0881,60.9401,135.95,97.8553,92.9907,0.00110299,0.0839515,20.961,187.828,0.451926,0.0,0.0
534,133.25,55.9154,60.6516,139.076,97.8549,93.2257,0.00117732,0.0840143,20.9608,187.828,0.429524,0.0,0.0
537,134,55.5265,60.6724,139.143,97.8733,92.961,0.00125539,0.0840483,20.9606,187.828,0.45638,0.0,0.0
540,134.75,55.5717,60.3028,142.729,97.8944,92.7842,0.00133195,0.0840731,20.9611,187.818,0.47517,0.0,0.0
543,135.5,55.4058,60.2829,142.736,97.9083,93.1564,0.00139262,0.0840774,20.9615,187.798,0.440948,0.0,0.0
546,136.25,55.4552,59.9631,138.782,97.9083,92.5434,0.00142921,0.0840747,20.9618,187.778,0.499459,0.0,0.0
549,137,55.0694,60.1925,139.004,97.9215,93.0554,0.00145174,0.0840452,20.962,187.768,0.451752,0.0,0.0
552,137.75,54.9333,59.573,140.143,97.9299,93.1329,0.00144271,0.0839614,20.9621,187.798,0.445133,0.0,0.0
555,138.5,55.2587,59.386,138.035,97.9514,94.3432,0.0014208,0.0838137,20.9622,187.788,0.332648,0.0,0.0
558,139.25,54.847,59.4591,140.218,97.9506,93.7603,0.0013972,0.0835297,20.9623,187.757,0.387504,0.0,0.0
561,140,54.7403,59.4748,140.672,97.9666,93.0331,0.00137307,0.0832264,20.9624,187.768,0.457951,0.0,0.0
564,140.75,54.6433,59.2692,139.154,97.9709,93.6952,0.00135549,0.0829644,20.9626,187.768,0.395501,0.0,0.0
567,141.5,54.5755,59.1852,142.278,97.9889,93.0022,0.00134458,0.0826558,20.9632,187.747,0.462916,0.0,0.0
570,142.25,54.4703,59.098,138.078,97.9841,93.2166,0.00133991,0.0823347,20.9643,187.757,0.44208,0.0,0.0
573,143,54.8856,59.2301,138.807,97.9997,92.9878,0.00135032,0.0819947,20.965,187.737,0.465264,0.0,0.0
576,143.75,54.2438,58.3113,137.07,98.004,93.0723,0.00135792,0.0816356,20.9656,187.727,0.457611,0.0,0.0
579,144.5,54.2096,59.0013,138.982,98.0192,93.9813,0.00136839,0.0812503,20.966,187.737,0.372846,0.0,0.0
582,145.25,54.0591,58.3697,139.899,98.0264,93.2792,0.00137814,0.0808345,20.9663,187.737,0.439946,0.0,0.0
585,146,54.0417,58.3026,138.318,98.0272,93.8827,0.00137503,0.0804962,20.9665,187.717,0.382863,0.0,0.0
588,146.75,53.9715,58.2325,142.458,98.0451,92.9256,0.00135532,0.0800931,20.9665,187.717,0.47531,0.0,0.0
591,147.5,53.8029,58.241,137.772,98.065,93.7702,0.00131331,0.0797992,20.9669,187.737,0.396917,0.0,0.0
594,148.25,53.7633,58.1043,136.919,98.0658,93.8205,0.00126089,0.079585,20.9673,187.717,0.392236,0.0,0.0
597,149,53.8417,58.1119,140.246,98.0682,93.3497,0.00119874,0.0791539,20.9677,187.757,0.437036,0.0,0.0
600,149.75,53.627,57.6768,139.351,98.0702,93.6638,0.00112839,0.0788121,20.9679,187.727,0.407444,0.0,0.0
603,150.5,53.486,57.8482,142.543,98.0786,93.9437,0.00105297,0.0785513,20.9681,187.717,0.381754,0.0,0.0
606,151.25,53.176,57.2371,140.989,98.0981,94.3172,0.00099798,0.0783221,20.9682,187.717,0.348356,0.0,0.0
609,152,53.2728,56.9095,138.571,98.1113,93.3291,0.000976863,0.0780316,20.9683,187.707,0.442883,0.0,0.0
612,152.75,53.0389,57.1857,139.016,98.1053,93.7582,0.000978402,0.077685,20.9686,187.717,0.401686,0.0,0.0
615,153.5,52.7491,57.144,141.078,98.144,94.0876,0.000992474,0.0773974,20.9692,187.697,0.3741,0.0,0.0
618,154.25,52.859,56.6704,140.936,98.1456,93.5641,0.00101253,0.0770899,20.9697,187.687,0.423696,0.0,0.0
621,155,52.9318,56.7814,139.783,98.1388,94.0802,0.00103735,0.0768226,20.97,187.687,0.37433,0.0,0.0
624,155.75,52.6922,56.94,141.19,98.1496,94.0365,0.00107287,0.0765537,20.9709,187.677,0.379419,0.0,0.0
627,156.5,52.9849,56.497,141.995,98.1627,94.0897,0.00112986,0.0762481,20.9715,187.657,0.375597,0.0,0.0
630,157.25,52.6332,56.454,143.92,98.1847,93.2281,0.001192,0.0758922,20.9722,187.657,0.459106,0.0,0.0
633,158,52.4497,56.2841,141.018,98.1791,93.1824,0.00124609,0.0754848,20.9731,187.647,0.462952,0.0,0.0
636,158.75,52.4185,56.3738,139.219,98.1823,93.924,0.0012868,0.07501,20.974,187.667,0.392985,0.0,0.0
639,159.5,52.3575,56.0491,141.679,98.1934,93.7937,0.00131483,0.074588,20.975,187.647,0.406292,0.0,0.0
642,160.25,51.6009,55.9809,142.701,98.2074,93.8366,0.00132871,0.0740267,20.9758,187.647,0.403501,0.0,0.0
645,161,52.2258,55.7129,141.508,98.2022,93.4816,0.00134126,0.0735311,20.9763,187.627,0.43662,0.0,0.0
648,161.75,51.8933,55.6714,136.069,98.2074,93.7735,0.00135399,0.0730222,20.9767,187.637,0.40946,0.0,0.0
651,162.5,51.9449,55.5769,139.767,98.2182,93.884,0.00136764,0.0725008,20.977,187.627,0.399998,0.0,0.0
654,163.25,51.7535,55.3934,139.472,98.2237,93.8465,0.00138105,0.0720062,20.9779,187.627,0.404042,0.0,0.0
657,164,51.8184,55.2474,137.855,98.2301,94.3032,0.0013839,0.0715596,20.9785,187.617,0.361588,0.0,0.0
660,164.75,51.7755,55.6098,139.076,98.2265,93.6581,0.00138599,0.0711756,20.9789,187.617,0.422103,0.0,0.0
663,165.5,51.4357,55.5168,142.348,98.2337,93.7302,0.0013656,0.0708409,20.9795,187.607,0.415928,0.0,0.0
666,166.25,51.7452,55.0637,141.746,98.2481,94.0122,0.0013414,0.0705234,20.9803,187.607,0.3906,0.0,0.0
669,167,51.3005,54.6493,139.108,98.26,94.0241,0.0013013,0.0702058,20.9811,187.617,0.390553,0.0,0.0
672,167.75,51.357,54.9475,141.601,98.2385,93.7343,0.00125825,0.069906,20.9817,187.607,0.415969,0.0,0.0
675,168.5,51.3777,54.9844,139.708,98.2528,94.3914,0.00122687,0.0696584,20.9821,187.577,0.355351,0.0,0.0
678,169.25,51.1769,54.5732,139.66,98.2632,93.7863,0.00119431,0.0693967,20.9824,187.587,0.413289,0.0,0.0
681,170,51.1893,54.7831,139.07,98.2752,94.0983,0.00117027,0.0691354,20.9824,187.607,0.384928,0.0,0.0
684,170.75,51.105,54.4218,140.675,98.2564,93.6519,0.00115928,0.0688834,20.9824,187.607,0.425387,0.0,0.0
687,171.5,50.8204,54.5433,139.483,98.268,93.9132,0.00116853,0.0686351,20.9824,187.647,0.40173,0.0,0.0
690,172.25,51.0196,54.3793,141.247,98.2744,94.6111,0.00117719,0.0683435,20.9824,187.597,0.336688,0.0,0.0
693,173,50.9287,54.219,142.997,98.2907,94.0002,0.00118677,0.0680726,20.9824,187.607,0.395576,0.0,0.0
696,173.75,50.904,54.0573,143.334,98.278,93.5043,0.00118649,0.0679706,20.9824,187.607,0.441305,0.0,0.0
699,174.5,50.4623,54.2331,143.134,98.2923,93.6709,0.00117618,0.0679369,20.9824,187.587,0.426828,0.0,0.0
702,175.25,50.5326,53.7575,138.292,98.2927,93.8934,0.00115668,0.0681072,20.9824,187.577,0.405828,0.0,0.0
705,176,50.2409,53.6477,145.551,98.3059,93.5554,0.00112916,0.0683103,20.9824,187.587,0.438978,0.0,0.0
708,176.75,50.3451,53.7016,142.494,98.3099,94.48,0.00110341,0.0685936,20.9824,187.547,0.352176,0.0,0.0
711,177.5,50.5904,53.5423,139.37,98.3067,94.2088,0.00109328,0.0689365,20.9824,187.557,0.37737,0.0,0.0
714,178.25,50.7624,53.7377,139.476,98.3162,93.4454,0.00111373,0.0691455,20.9824,187.527,0.450346,0.0,0.0
717,179,50.683,53.6348,138.035,98.327,94.4087,0.00114051,0.0692804,20.9824,187.557,0.360413,0.0,0.0
720,179.75,50.035,53.5237,136.407,98.3242,93.8469,0.00120487,0.0693515,20.9824,187.527,0.413065,0.0,0.0
723,180.5,50.3294,53.3599,138.257,98.3182,94.2261,0.00127346,0.0693413,20.9824,187.547,0.376782,0.0,0.0
726,181.25,50.253,53.3267,141.172,98.3226,94.0262,0.00132782,0.0692478,20.9824,187.527,0.396003,0.0,0.0
729,182,50.2932,53.4878,139.115,98.3509,94.4541,0.00134497,0.0690704,20.9824,187.557,0.358314,0.0,0.0
732,182.75,50.0698,53.362,145.331,98.333,94.0484,0.00131945,0.0688945,20.9829,187.527,0.394839,0.0,0.0
735,183.5,49.8951,53.328,138.855,98.3278,94.6672,0.00128874,0.0686494,20.9834,187.517,0.336255,0.0,0.0
738,184.25,49.8701,53.1214,141.76,98.3346,94.2335,0.00123927,0.0683752,20.9838,187.497,0.377559,0.0,0.0
741,185,50.1939,53.067,139.154,98.3442,93.9359,0.00119232,0.0680843,20.984,187.507,0.406458,0.0,0.0
744,185.75,49.9771,52.8269,144.05,98.3565,94.3518,0.00116127,0.0677863,20.9842,187.517,0.368415,0.0,0.0
747,186.5,50.1057,53.1782,138.573,98.3438,93.952,0.00114409,0.0674328,20.9844,187.527,0.404905,0.0,0.0
750,187.25,49.9851,53.0313,141.663,98.3521,93.9701,0.00114972,0.0670659,20.9845,187.527,0.403948,0.0,0.0
753,188,49.6225,52.8258,141.978,98.3705,94.0249,0.00116603,0.066752,20.9845,187.517,0.400432,0.0,0.0
756,188.75,49.7769,52.4751,140.749,98.3629,94.4524,0.00118554,0.0664647,20.9852,187.477,0.359547,0.0,0.0
759,189.5,49.9488,52.5256,142.246,98.3621,93.708,0.00118462,0.0662123,20.9856,187.487,0.429608,0.0,0.0
762,190.25,49.5367,52.6427,143.926,98.3661,94.9421,0.00117272,0.0659546,20.986,187.497,0.314001,0.0,0.0
765,191,49.8516,52.9659,140.324,98.3697,94.0336,0.00114553,0.0656986,20.9865,187.467,0.399544,0.0,0.0
768,191.75,49.6677,52.2745,138.605,98.3781,94.6082,0.00112125,0.0654183,20.9873,187.487,0.346302,0.0,0.0
771,192.5,49.6497,52.3481,139.6,98.3745,93.9359,0.00109592,0.0651976,20.9875,187.507,0.409188,0.0,0.0
774,193.25,49.6672,52.4925,147.277,98.388,94.4413,0.00107746,0.0648745,20.9876,187.507,0.362855,0.0,0.0
777,194,49.5574,52.5866,144.83,98.3796,94.2488,0.00108816,0.0646099,20.9882,187.497,0.380185,0.0,0.0
780,194.75,49.5244,52.5995,138.836,98.3932,93.8753,0.00110633,0.0642944,20.9887,187.487,0.416595,0.0,0.0
783,195.5,49.3422,52.2611,138.741,98.3832,94.3172,0.00112085,0.0640121,20.9891,187.487,0.374075,0.0,0.0
786,196.25,49.4283,52.2156,142.559,98.3844,93.9507,0.0011415,0.0637674,20.9894,187.457,0.408687,0.0,0.0
789,197,49.0209,52.1442,136.068,98.3872,93.9038,0.001155,0.0635676,20.9895,187.477,0.413372,0.0,0.0
792,197.75,49.1072,51.7282,142.579,98.3984,93.4594,0.00117761,0.0633851,20.9897,187.467,0.456419,0.0,0.0
795,198.5,49.1673,52.0451,140.258,98.3948,94.7414,0.00120608,0.0631743,20.9898,187.457,0.335348,0.0,0.0
798,199.25,49.3314,51.9372,140.322,98.392,94.0979,0.0012424,0.0629112,20.9898,187.477,0.395497,0.0,0.0
801,200,49.0887,52.005,143.025,98.3924,94.1931,0.00126887,0.0627854,20.9899,187.477,0.386569,0.0,0.0
804,200.75,48.9898,52.0556,141.381,98.4111,94.4231,0.0013141,0.0625623,20.9899,187.467,0.366639,0.0,0.0
807,201.5,48.9959,51.7456,138.014,98.4111,94.1474,0.00135071,0.0623925,20.9899,187.457,0.392562,0.0,0.0
810,202.25,49.2949,51.7797,141.643,98.3944,94.2574,0.00137576,0.0622565,20.99,187.457,0.380699,0.0,0.0
813,203,49.3862,51.8296,140.902,98.4024,93.635,0.00138857,0.0622254,20.99,187.467,0.440141,0.0,0.0
816,203.75,49.0615,51.5791,139.484,98.4088,94.4128,0.00137715,0.0622318,20.99,187.457,0.367392,0.0,0.0
819,204.5,48.8569,51.7384,140.973,98.4111,94.1371,0.00134703,0.0623724,20.99,187.437,0.393533,0.0,0.0
822,205.25,48.8206,51.4125,142.887,98.41,94.6284,0.00130493,0.0625721,20.99,187.427,0.347284,0.0,0.0
825,206,48.7999,51.5588,135.178,98.4016,94.3766,0.00125572,0.0627858,20.9896,187.437,0.370151,0.0,0.0
828,206.75,49.0132,51.2459,140.755,98.4227,94.3852,0.00121284,0.0629993,20.9891,187.417,0.371242,0.0,0.0
831,207.5,49.2999,51.6045,139.505,98.4163,93.9808,0.00116959,0.063204,20.9887,187.397,0.408721,0.0,0.0
834,208.25,48.7808,51.3019,136.697,98.4119,94.1181,0.00112848,0.0634623,20.9884,187.407,0.39539,0.0,0.0
837,209,48.5337,51.3581,143.246,98.406,95.0666,0.00109443,0.0636971,20.9889,187.397,0.305979,0.0,0.0
840,209.75,48.6998,51.385,139.538,98.4167,93.9005,0.00103855,0.0638682,20.989,187.387,0.41634,0.0,0.0
843,210.5,48.8987,51.1371,139.789,98.4147,94.8185,0.000977269,0.0639424,20.9891,187.397,0.329934,0.0,0.0
846,211.25,48.702,50.7578,139.062,98.4084,94.0497,0.000917478,0.0639099,20.9891,187.387,0.401513,0.0,0.0
849,212,48.5593,50.6934,141.854,98.406,93.4548,0.000863017,0.0638316,20.9891,187.417,0.45753,0.0,0.0
852,212.75,48.4634,50.7573,140.855,98.4119,93.9668,0.000814702,0.0637084,20.9891,187.397,0.409647,0.0,0.0
855,213.5,48.0584,50.792,139.168,98.4135,94.9594,0.00077948,0.0635449,20.9891,187.397,0.316659,0.0,0.0
858,214.25,48.6678,50.7799,145.112,98.408,94.2319,0.000774477,0.0633576,20.9891,187.407,0.384324,0.0,0.0
861,215,48.6172,51.0041,138.616,98.3996,94.187,0.00077083,0.0631849,20.9892,187.397,0.387796,0.0,0.0
864,215.75,48.3553,50.8432,141.316,98.4127,94.4095,0.000825071,0.0630467,20.9892,187.407,0.368061,0.0,0.0
867,216.5,48.0421,50.7165,144.085,98.4115,93.8172,0.0008876,0.0629849,20.9892,187.397,0.423736,0.0,0.0
870,217.25,48.1405,50.7115,142.834,98.4068,94.4648,0.000945532,0.0629397,20.9893,187.417,0.362338,0.0,0.0
873,218,48.1498,50.706,141.379,98.402,94.4042,0.000992122,0.063084,20.9893,187.377,0.367593,0.0,0.0
876,218.75,47.9934,50.7271,141.463,98.4048,94.1849,0.00102354,0.0632934,20.9893,187.377,0.388457,0.0,0.0
879,219.5,48.4958,50.8504,142.352,98.4088,94.2739,0.00104208,0.063495,20.9887,187.377,0.380442,0.0,0.0
882,220.25,48.1327,50.5232,139.706,98.4131,94.8527,0.00105733,0.0635876,20.9883,187.357,0.326593,0.0,0.0
885,221,47.994,50.0982,138.161,98.402,94.7096,0.00107481,0.0635815,20.9882,187.367,0.338962,0.0,0.0
888,221.75,48.2241,50.4816,143.581,98.3988,94.0802,0.00109845,0.0634913,20.9885,187.347,0.397776,0.0,0.0
891,222.5,48.3387,50.3787,140.137,98.3996,94.1424,0.00113642,0.0632893,20.9892,187.357,0.391987,0.0,0.0
894,223.25,48.1314,50.5679,138.851,98.4095,94.5744,0.00117257,0.062998,20.9899,187.367,0.352307,0.0,0.0
897,224,47.9603,50.573,137.435,98.3896,94.3935,0.00120254,0.0626385,20.9904,187.357,0.367486,0.0,0.0
900,224.75,48.1749,50.5049,138.416,98.394,93.6395,0.00122439,0.0621723,20.9913,187.327,0.438956,0.0,0.0
903,225.5,47.844,50.3417,139.449,98.4084,93.9169,0.00122477,0.0616522,20.9921,187.317,0.41403,0.0,0.0
906,226.25,48.0996,50.0143,141.644,98.4091,93.6404,0.00120204,0.0611139,20.9928,187.327,0.440243,0.0,0.0
909,227,48.0139,50.0529,143.825,98.396,94.3691,0.00117566,0.0605468,20.9938,187.307,0.370345,0.0,0.0
912,227.75,47.6188,50.3253,138.86,98.3936,93.8081,0.00112619,0.0600246,20.9945,187.307,0.422978,0.0,0.0
915,228.5,47.7365,49.6497,141.053,98.3964,93.9565,0.00107722,0.0595403,20.995,187.307,0.409219,0.0,0.0
918,229.25,46.9299,49.4565,142.776,98.4076,94.0484,0.00101726,0.0590893,20.9953,187.307,0.401558,0.0,0.0
921,230,47.3162,49.4813,137.961,98.3781,94.6157,0.00096845,0.058679,20.9956,187.317,0.345608,0.0,0.0
924,230.75,47.4557,49.5836,141.021,98.3788,94.2043,0.000924169,0.0583451,20.996,187.337,0.3843,0.0,0.0
927,231.5,47.2098,49.0496,141.015,98.4175,94.081,0.00088327,0.0579659,20.9968,187.327,0.399388,0.0,0.0
930,232.25,47.5987,49.5179,140.901,98.4,94.3094,0.00084379,0.0576896,20.9975,187.327,0.37632,0.0,0.0
933,233,47.2228,49.2269,140.479,98.386,94.0142,0.000810888,0.0573728,20.998,187.317,0.402843,0.0,0.0
936,233.75,47.1425,49.2028,140.749,98.3673,94.1169,0.000786902,0.057074,20.9984,187.317,0.391484,0.0,0.0
939,234.5,47.2063,49.1837,140.288,98.3792,94.377,0.000785954,0.05682,20.9987,187.317,0.368101,0.0,0.0
942,235.25,47.292,49.259,140.06,98.39,94.3617,0.000813541,0.0566227,20.9989,187.337,0.370503,0.0,0.0
945,236,47.1272,49.155,139.628,98.3804,94.2999,0.000866427,0.0564207,20.9991,187.327,0.375451,0.0,0.0
948,236.75,46.9233,49.3019,138.895,98.3661,94.0093,0.00091587,0.0562448,20.9992,187.297,0.401513,0.0,0.0
951,237.5,47.0586,48.7625,141.644,98.3625,93.715,0.000944396,0.0560677,20.9992,187.297,0.428981,0.0,0.0
954,238.25,46.9896,49.4673,141.309,98.3709,94.372,0.000967672,0.0559522,20.9995,187.277,0.367812,0.0,0.0
957,239,47.0237,49.0635,138.36,98.3673,93.6478,0.000980514,0.0558666,21,187.297,0.43577,0.0,0.0
960,239.75,46.8873,48.8444,141.7,98.3565,94.0468,0.000967448,0.055792,21.0003,187.277,0.397116,0.0,0.0
963,240.5,47.0221,49.0707,140.689,98.3581,93.9677,0.000953468,0.0557538,21.0006,187.287,0.404721,0.0,0.0
966,241.25,47.0689,48.6959,143.099,98.3601,94.1659,0.000935659,0.0556323,21.0007,187.257,0.38622,0.0,0.0
969,242,46.8758,49.3152,140.638,98.3561,94.3036,0.000921404,0.0555165,21.0009,187.247,0.372911,0.0,0.0
972,242.75,46.8835,49.2371,139.293,98.3414,94.5876,0.000908836,0.0554205,21.001,187.247,0.344929,0.0,0.0
975,243.5,47.0544,49.1622,141.991,98.3541,94.2298,0.000918645,0.0552924,21.001,187.247,0.379668,0.0,0.0
978,244.25,46.8259,48.894,140.808,98.341,94.2871,0.000937891,0.0551919,21.0013,187.277,0.373095,0.0,0.0
981,245,46.3149,48.9534,138.815,98.3426,94.3325,0.000955805,0.0551064,21.0019,187.247,0.368977,0.0,0.0
984,245.75,46.6019,48.9974,139.041,98.3274,94.3605,0.000966686,0.0550848,21.0024,187.217,0.364978,0.0,0.0
987,246.5,46.8213,48.7594,138.345,98.3266,93.858,0.000978069,0.0550936,21.0027,187.237,0.41223,0.0,0.0
990,247.25,46.5191,48.6865,141.197,98.3147,93.8897,0.00100089,0.0551122,21.0029,187.227,0.408155,0.0,0.0
993,248,46.5113,48.7191,141.031,98.3246,94.5748,0.00102371,0.0551451,21.0031,187.237,0.344617,0.0,0.0
996,248.75,46.757,48.3755,136.576,98.3095,94.2921,0.00105367,0.0552099,21.0032,187.247,0.369791,0.0,0.0
999,249.5,46.4317,48.2489,142.083,98.3095,93.5216,0.00108118,0.0552602,21.0033,187.247,0.442505,0.0,0.0
1002,250.25,46.7043,49.0286,143.186,98.3023,94.14,0.00109088,0.0552724,21.0029,187.247,0.383453,0.0,0.0
1005,251,46.809,48.6332,139.954,98.3047,94.1713,0.00108706,0.0552134,21.0025,187.247,0.380718,0.0,0.0
1008,251.75,46.7664,48.2843,140.596,98.2836,93.8258,0.00107835,0.0551415,21.0021,187.247,0.411385,0.0,0.0
1011,252.5,46.5259,48.2674,140.55,98.2808,94.0542,0.00106983,0.0550309,21.0019,187.237,0.389587,0.0,0.0
1014,253.25,46.753,48.8169,139.138,98.2704,94.6021,0.00107397,0.0549503,21.0017,187.207,0.337178,0.0,0.0
1017,254,46.4737,48.7526,139.595,98.2828,94.2018,0.00109273,0.0549109,21.0016,187.217,0.375871,0.0,0.0
1020,254.75,46.3597,48.7231,142.682,98.2768,94.3939,0.00111311,0.0549403,21.0015,187.217,0.357277,0.0,0.0
1023,255.5,46.5793,48.5755,137.746,98.2616,94.0245,0.00113281,0.0549481,21.0014,187.217,0.390658,0.0,0.0
1026,256.25,46.2876,48.4173,139.584,98.2596,93.6375,0.00113905,0.0549481,21.0014,187.217,0.42704,0.0,0.0
1029,257,46.9267,48.6812,141.333,98.256,94.2818,0.00112616,0.054948,21.0013,187.217,0.36594,0.0,0.0
1032,257.75,46.0513,48.3531,142.405,98.2624,94.0666,0.00108932,0.0550023,21.0013,187.227,0.386768,0.0,0.0
1035,258.5,46.543,48.6028,138.906,98.2329,93.9891,0.0010315,0.055065,21.0013,187.197,0.39141,0.0,0.0
1038,259.25,46.5305,48.2307,139.794,98.2289,94.3201,0.000963239,0.055072,21.0013,187.217,0.359892,0.0,0.0
1041,260,46.1933,48.3794,142.365,98.2293,93.7129,0.000894521,0.0550364,21.0013,187.197,0.417169,0.0,0.0
1044,260.75,46.3043,48.9815,141.562,98.2301,94.0418,0.000844425,0.055006,21.0013,187.217,0.386184,0.0,0.0
1047,261.5,46.5448,48.3382,141.86,98.2142,93.5328,0.000820037,0.0549515,21.0013,187.197,0.432855,0.0,0.0
1050,262.25,47.0439,48.4639,142.111,98.2202,93.8671,0.000823003,0.0549525,21.0011,187.187,0.401773,0.0,0.0
1053,263,46.8949,48.3164,140.16,98.2046,94.2673,0.000857813,0.0549706,21.0008,187.177,0.362657,0.0,0.0
1056,263.75,46.1694,48.0995,137.107,98.207,93.5781,0.000904113,0.0549691,21.0005,187.187,0.427911,0.0,0.0
1059,264.5,46.4485,48.3589,138.005,98.1887,94.3691,0.000949843,0.054943,21.0003,187.187,0.351649,0.0,0.0
1062,265.25,46.2955,48.4519,144.686,98.1739,94.7616,0.000986811,0.0549167,21.0002,187.197,0.313537,0.0,0.0
1065,266,46.3779,48.0146,143.329,98.1763,94.0658,0.00101021,0.0548854,21,187.177,0.379074,0.0,0.0
1068,266.75,46.0377,47.8806,143.919,98.1839,94.5501,0.00101856,0.0549033,21,187.167,0.334239,0.0,0.0
1071,267.5,46.2249,48.14,138.131,98.1615,94.0398,0.000991868,0.0549194,20.9999,187.157,0.380188,0.0,0.0
1074,268.25,46.421,47.5661,140.295,98.154,94.7039,0.000947023,0.0549067,20.9998,187.157,0.317136,0.0,0.0
1077,269,45.827,47.95,143.132,98.15,93.851,0.00090351,0.0548587,20.9998,187.177,0.396956,0.0,0.0
1080,269.75,45.8153,48.1115,140.147,98.158,94.0035,0.000844222,0.0548373,20.9998,187.157,0.383285,0.0,0.0
1083,270.5,46.0113,47.832,141.154,98.1416,93.8864,0.000797773,0.0548489,20.9998,187.167,0.392852,0.0,0.0
1086,271.25,45.8489,48.2575,139.322,98.1508,93.9244,0.000758394,0.054894,20.9998,187.157,0.390102,0.0,0.0
1089,272,46.0182,48.0639,137.218,98.1348,93.7092,0.000722442,0.0548998,20.9998,187.137,0.408989,0.0,0.0
1092,272.75,46.3589,47.8283,142.846,98.1376,93.6086,0.000689332,0.0548852,21,187.137,0.418759,0.0,0.0
1095,273.5,46.0045,48.1583,140.063,98.132,94.7406,0.000667839,0.0548624,21.0001,187.127,0.311725,0.0,0.0
1098,274.25,45.4112,47.5656,141.738,98.1276,94.2096,0.000640594,0.0549008,21.0003,187.117,0.361137,0.0,0.0
1101,275,45.9474,48.3085,139.873,98.1185,94.2195,0.000626946,0.0549523,21.0003,187.127,0.359378,0.0,0.0
1104,275.75,46.1441,47.7263,142.216,98.1284,94.3354,0.000620084,0.0549899,21.0004,187.127,0.349389,0.0,0.0
1107,276.5,45.7653,48.3265,143.197,98.1145,93.7516,0.000634401,0.055009,21.0005,187.117,0.403137,0.0,0.0
1110,277.25,46.2886,47.5137,138.266,98.1348,94.039,0.000655619,0.0550312,21.0005,187.127,0.377854,0.0,0.0
1113,278,45.7177,47.6184,143.767,98.1061,93.7945,0.000675435,0.0550473,21.0005,187.107,0.398329,0.0,0.0
1116,278.75,45.9201,47.323,141.217,98.1149,94.0781,0.000688672,0.0550377,21.0005,187.127,0.372363,0.0,0.0
1119,279.5,46.1359,47.8544,140.07,98.1033,93.7615,0.0006959,0.054994,21.0003,187.097,0.401194,0.0,0.0
1122,280.25,45.9515,47.83,139.089,98.1356,93.7714,0.000697908,0.0549621,20.9998,187.097,0.403176,0.0,0.0
1125,281,46.1979,47.777,140.882,98.091,93.8617,0.000685592,0.0549603,20.9994,187.077,0.390613,0.0,0.0
1128,281.75,46.0001,48.2413,138.634,98.0969,93.7426,0.000669038,0.0549957,20.9991,187.107,0.40241,0.0,0.0
1131,282.5,45.7025,47.6477,140.85,98.0957,93.6713,0.000644016,0.0550215,20.9988,187.107,0.409047,0.0,0.0
1134,283.25,45.8833,47.6968,140.147,98.0846,93.475,0.000626409,0.0550131,20.9987,187.077,0.426623,0.0,0.0
1137,284,45.9071,47.7681,136.689,98.0806,94.1779,0.000614661,0.0549954,20.9985,187.097,0.359873,0.0,0.0
1140,284.75,46.3555,47.8397,139.223,98.0858,93.6206,0.000613086,0.0549621,20.9982,187.087,0.412945,0.0,0.0
1143,285.5,45.7412,47.6568,142.978,98.0993,93.9409,0.00062389,0.0549378,20.9988,187.087,0.383899,0.0,0.0
1146,286.25,46.1644,48.0531,141.26,98.0798,93.4215,0.000641427,0.0549589,20.9997,187.077,0.431274,0.0,0.0
1149,287,46.0996,47.5057,138.727,98.0615,93.6432,0.000666596,0.0549742,21.0003,187.077,0.408601,0.0,0.0
1152,287.75,46.2227,47.9425,142.059,98.0718,93.9293,0.000699079,0.0549854,21.0007,187.107,0.382503,0.0,0.0
1155,288.5,45.6418,47.7755,139.157,98.073,94.6763,0.000760689,0.0549935,21.0006,187.077,0.31241,0.0,0.0
1158,289.25,45.6591,47.9838,139.509,98.0615,93.8988,0.000817698,0.0549995,21.0003,187.067,0.384444,0.0,0.0
1161,290,45.9582,47.8975,139.533,98.0619,93.616,0.000864413,0.0549844,21.0001,187.087,0.411213,0.0,0.0
1164,290.75,46.0986,47.6705,140.511,98.0523,94.40625,0.000880328,0.0549735,21,187.077,0.335848,0.0,0.0
1167,291.5,45.8146,47.6742,144.783,98.0595,93.8745,0.000876513,0.0549655,20.9999,187.087,0.38656,0.0,0.0
1170,292.25,45.9846,47.333,143.219,98.0547,93.7236,0.000860594,0.0549984,20.9998,187.097,0.400383,0.0,0.0
1173,293,45.8646,47.5035,141.595,98.0391,94.2842,0.000845809,0.055036,20.9998,187.077,0.346122,0.0,0.0
1176,293.75,45.9156,47.6358,140.559,98.0347,93.9532,0.00082832,0.0550692,21,187.057,0.376895,0.0,0.0
1179,294.5,45.6564,47.3637,139.763,98.0395,93.8609,0.000813396,0.055074,21.0001,187.087,0.386043,0.0,0.0
1182,295.25,45.7851,47.4344,139.51,98.0403,93.5624,0.000793901,0.0550493,21.0006,187.067,0.414341,0.0,0.0
1185,296,46.0153,47.4244,141.652,98.0192,94.4454,0.000773331,0.0549831,21.0012,187.067,0.329181,0.0,0.0
1188,296.75,45.8595,47.7812,140.555,98.0164,93.6956,0.000747464,0.0549755,21.0016,187.057,0.399574,0.0,0.0
1191,297.5,45.8112,47.7892,139.365,98.0196,94.0023,0.000718948,0.0549874,21.0019,187.057,0.370899,0.0,0.0
1194,298.25,45.6097,47.6754,140.449,98.02,94.5353,0.000694041,0.0549961,21.0022,187.047,0.320824,0.0,0.0
1197,299,46.0345,47.4777,140.831,98.0084,94.6923,0.000675884,0.0549636,21.0023,187.047,0.305066,0.0,0.0
1200,299.75,45.9518,47.9518,140.747,98.006,93.3992,0.000683317,0.0549328,21.0024,187.037,0.426717,0.0,0.0
1203,300.5,46.0334,47.7668,139.771,98.0172,93.7677,0.0007129,0.0548982,21.0025,187.007,0.392825,0.0,0.0
1206,301.25,46.1723,47.1695,140.82,98.0148,93.9198,0.000744768,0.0548729,21.0026,187.017,0.378243,0.0,0.0
1209,302,45.7789,47.9153,138.341,98.01,93.3984,0.00079904,0.0548759,21.0026,187.007,0.427156,0.0,0.0
1212,302.75,45.6505,47.6332,142.031,98.0005,93.5653,0.000838016,0.0549148,21.0027,186.987,0.410462,0.0,0.0
1215,303.5,45.826,47.9905,140.751,97.9997,94.1152,0.000865425,0.0549238,21.0027,186.987,0.358454,0.0,0.0
1218,304.25,46.1288,47.7895,139.837,98.0112,94.4405,0.000885406,0.0549167,21.0027,186.997,0.328924,0.0,0.0
1221,305,46.0684,47.482,139.978,97.9981,94.2389,0.00085342,0.0549058,21.0025,186.987,0.346671,0.0,0.0
1224,305.75,45.8687,47.6644,137.924,97.9929,93.7826,0.0008144,0.0548774,21.0023,186.997,0.389223,0.0,0.0
1227,306.5,45.8327,47.9128,139.748,97.9921,93.3947,0.00078371,0.0548567,21.0022,186.997,0.425885,0.0,0.0
1230,307.25,45.7859,47.561,141.793,98.0124,93.9755,0.000768946,0.0548223,21.0021,187.007,0.372777,0.0,0.0
1233,308,45.5033,47.6402,142.191,98.0001,93.7714,0.000779812,0.0548043,21.0021,186.977,0.390924,0.0,0.0
1236,308.75,46.2351,47.4308,138.808,97.9821,93.3811,0.000824718,0.0548034,21.0025,186.957,0.426274,0.0,0.0
1239,309.5,45.6521,47.5366,140.763,97.9909,93.8638,0.00089369,0.0548609,21.0029,186.977,0.381371,0.0,0.0
1242,310.25,45.7807,47.6477,139.955,98.0192,93.8374,0.000947156,0.0549028,21.0032,186.977,0.386423,0.0,0.0
1245,311,45.1439,47.0721,141.163,97.9961,93.4858,0.000991579,0.0548946,21.0034,186.967,0.417605,0.0,0.0
1248,311.75,45.4378,47.5521,142.846,97.9909,93.9627,0.00101568,0.0548957,21.0035,186.967,0.372035,0.0,0.0
1251,312.5,45.659,47.6743,143.826,97.9909,93.9689,0.0010191,0.0549088,21.0036,186.967,0.371452,0.0,0.0
1254,313.25,45.9063,47.1716,141.859,97.9953,93.3967,0.00101433,0.054899,21.0037,186.967,0.425978,0.0,0.0
1257,314,45.8165,47.5783,142.336,98.0108,94.4157,0.000998796,0.0548918,21.0037,186.957,0.331209,0.0,0.0
1260,314.75,45.8054,47.7968,142.358,97.9821,93.4511,0.000972152,0.0548866,21.004,186.987,0.419626,0.0,0.0
1263,315.5,45.4363,47.2104,140.558,97.9865,93.5563,0.00091889,0.0549235,21.0042,186.977,0.41006,0.0,0.0
1266,316.25,45.3571,47.275,142.663,97.9809,94.0546,0.000845302,0.0549678,21.0043,186.937,0.362467,0.0,0.0
1269,317,45.3881,47.0584,140.364,97.9925,93.743,0.000756887,0.0549624,21.0044,186.937,0.392927,0.0,0.0
1272,317.75,45.7866,47.3867,139.654,97.9717,94.0373,0.000664902,0.054937,21.0045,186.917,0.363268,0.0,0.0
1275,318.5,46.1232,47.202,140.324,97.9865,93.9466,0.000597845,0.0548818,21.0046,186.937,0.373155,0.0,0.0
1278,319.25,45.7475,47.3272,140.766,97.9813,93.5732,0.000559282,0.054861,21.0046,186.937,0.407989,0.0,0.0
1281,320,45.4506,47.4143,142.558,97.9777,94.1713,0.000545648,0.0548529,21.0046,186.937,0.351191,0.0,0.0
1284,320.75,45.4976,47.5043,139.139,97.9897,93.6523,0.000549504,0.0548593,21.0047,186.927,0.401254,0.0,0.0
1287,321.5,45.3204,47.087,139.077,97.9809,93.7859,0.00056535,0.0548911,21.0047,186.907,0.38783,0.0,0.0
1290,322.25,45.4529,47.6343,142.955,97.9765,93.6156,0.000596223,0.0549258,21.0047,186.917,0.403536,0.0,0.0
1293,323,45.7147,47.4619,139.286,97.9873,93.9911,0.000648715,0.0549124,21.0047,186.897,0.369029,0.0,0.0
1296,323.75,45.2617,47.3071,137.887,97.9725,93.7203,0.000696254,0.0548891,21.0041,186.907,0.393268,0.0,0.0
1299,324.5,45.656,47.4106,141.86,97.9654,93.5183,0.000749874,0.0548663,21.0036,186.877,0.41174,0.0,0.0
1302,325.25,45.7208,47.274,142.751,97.9614,94.1404,0.000788964,0.0548497,21.0033,186.897,0.352624,0.0,0.0
1305,326,45.4027,47.6287,138.738,97.9757,94.7739,0.000808998,0.0548956,21.003,186.897,0.294472,0.0,0.0
1308,326.75,45.414,47.3778,142.407,97.9789,94.3069,0.000816814,0.0549156,21.0029,186.897,0.338545,0.0,0.0
1311,327.5,45.7554,47.3929,141.349,97.9578,93.8728,0.000817073,0.0549243,21.0027,186.897,0.377521,0.0,0.0
1314,328.25,45.5015,47.4963,139.976,97.9622,93.7731,0.000827606,0.05489,21.0026,186.897,0.387342,0.0,0.0
1317,329,45.3878,46.7398,139.401,97.9626,93.642,0.000854631,0.0548475,21.0026,186.897,0.399775,0.0,0.0
1320,329.75,45.1837,47.1952,139.767,97.9626,94.2471,0.000890219,0.0548747,21.0025,186.897,0.342685,0.0,0.0
1323,330.5,45.3091,47.1235,142.791,97.9534,94.0324,0.000929228,0.0549081,21.0025,186.877,0.362076,0.0,0.0
1326,331.25,45.2614,47.2951,141.179,97.9542,93.8522,0.000955755,0.054924,21.0025,186.867,0.379143,0.0,0.0
1329,332,45.5038,47.2394,142.788,97.953,93.7789,0.000971826,0.0549111,21.003,186.867,0.385967,0.0,0.0
1332,332.75,45.4415,46.9683,143.849,97.9558,93.9128,0.000968902,0.0549404,21.0034,186.887,0.373567,0.0,0.0
1335,333.5,45.4219,46.8406,142.412,97.9398,93.5439,0.000941738,0.0549618,21.0037,186.867,0.407011,0.0,0.0
1338,334.25,45.7373,47.2149,138.554,97.9387,93.3773,0.000903807,0.0550453,21.0039,186.857,0.422695,0.0,0.0
1341,335,45.3949,46.8965,139.237,97.9351,93.438,0.000862068,0.0551137,21.0041,186.847,0.416619,0.0,0.0
1344,335.75,45.1475,47.436,140.837,97.9442,93.7249,0.000820767,0.0551269,21.0042,186.837,0.390278,0.0,0.0
1347,336.5,44.7417,47.49,143.129,97.9331,94.128,,0.0550686,,186.837,0.351227,0.0,0.0
1350,337.25,45.4747,46.9318,142.504,97.941,94.1985,,0.0549971,,186.827,0.345313,0.0,0.0
1353,338,45.5699,46.6327,143.658,97.9339,93.2393,,0.0550031,,186.827,0.435379,0.0,0.0
1356,338.75,45.3743,47.1115,140.288,97.9382,94.1198,,0.0550075,,186.827,0.352471,0.0,0.0
1359,339.5,45.2139,47.3023,139.164,97.9359,94.5336,,,,186.807,0.313369,0.0,0.0
1362,340.25,44.9302,47.1983,137.017,97.9279,94.201,,,,186.807,0.34389,0.0,0.0
1365,341,45.4459,47.174,141.142,97.9315,93.9697,,,,186.827,0.365999,0.0,0.0
1368,341.75,44.6533,46.7796,140.508,97.947,93.4948,,,,186.817,0.412308,0.0,0.0
1371,342.5,45.2529,46.9487,140.015,97.9426,93.8473,,,,186.827,0.378563,0.0,0.0
1374,343.25,44.9122,46.4647,140.183,97.9307,94.694,,,,186.827,0.297878,0.0,0.0
1377,344,45.3109,46.8379,141.843,97.9263,93.7426,,,,186.817,0.386978,0.0,0.0
1380,344.75,45.511,47.3161,141.968,97.9319,93.642,,,,186.827,0.396998,0.0,0.0
1383,345.5,45.1158,46.9733,143.156,97.9311,94.0002,,,,186.827,0.363086,0.0,0.0
1386,346.25,45.3554,46.9667,142.393,97.9175,94.4392,,,,186.807,0.320563,0.0,0.0
1389,347,45.3261,46.9033,142.582,97.9243,93.9211,,,,186.817,0.369938,0.0,0.0
1390,347.25,45.3002,47.0968,142.801,97.9191,93.9165,,,,186.797,0.369897,0.0,0.0