File: 01_Data/Carpet_Polyolefin_LowPile/Cone/Polyolefin_Carpet_LowPile_Cone_HF75Scan_220411_R3.csv
Names,Time,Stack TC,Smoke TC,Exh Press,Smoke Comp,Smoke Meas,CO Meter,CO2 Meter,O2 Meter,Sample Mass,Ext Coeff,Start Test,Flame Verif
Chan Gain,,500,500,1,1,1,1,1,1,1,1,1.0,1.0
Offset,,0,0,0.133936,0,0,0,0,0,0,0,0.0,0.0
Gain,,1,1,25.011,13.0656,13.5076,1,1,1,1.00089,1.01037,1.0,1.0
Units,sec,C,C,Pa,%,%,%,%,%,g,/m,,
Baseline,,42.975,44.4554,142.436,98.5093,94.4693,0.000516927,0.0524298,21.0007,-839.889,0.3712,,
4,0.75,42.4095,44.0613,139.215,98.8163,94.553,0.000493841,0.0680321,20.9869,189.929,0.390869,0.0,0.0
8,1.75,41.1051,42.9949,146.72,98.829,94.1511,0.000493096,0.068339,20.9874,189.969,0.429767,0.0,0.0
12,2.75,41.1445,42.6462,141.032,98.8218,94.5307,0.000556846,0.0679226,20.9855,189.959,0.393457,0.0,0.0
16,3.75,41.5024,42.7597,141.263,98.8198,93.3473,0.000783491,0.0686874,20.9731,189.869,0.504938,0.0,0.0
20,4.75,41.4527,42.8528,133.002,98.8282,94.5328,0.00102537,0.0767184,20.9476,189.909,0.393836,0.0,0.0
24,5.75,41.2098,42.7962,135.188,98.8517,91.8377,0.00172408,0.0951362,20.9101,189.759,0.652294,0.0,1.0
28,6.75,41.3313,42.9799,134.344,98.8609,85.6095,0.00272468,0.12403,20.8543,189.719,1.27553,0.0,1.0
32,7.75,42.0329,43.3773,126.534,98.8609,81.599,0.00399071,0.160895,20.7819,189.679,1.70076,0.0,1.0
36,8.75,42.4097,43.7805,129.961,98.8482,77.9286,0.00539091,0.213068,20.6771,189.609,2.10753,0.0,1.0
40,9.75,43.0921,44.3833,125.937,98.8585,71.0273,0.0068724,0.267161,20.5656,189.469,2.93031,0.0,1.0
44,10.75,43.4021,44.703,121.424,98.8625,64.3959,0.00842555,0.32372,20.4658,189.399,3.79936,0.0,1.0
48,11.75,44.3345,45.0529,121.91,98.8633,64.5938,0.00944457,0.378234,20.3952,189.339,3.77224,0.0,1.0
52,12.75,45.3624,46.6376,120.421,98.8749,60.7614,0.011596,0.43044,20.3195,189.229,4.31536,0.0,0.0
56,13.75,46.648,48.0241,118.117,98.8641,58.6591,0.0136284,0.476736,20.2445,189.109,4.62648,0.0,0.0
60,14.75,47.6875,49.2831,108.162,98.8681,52.5681,0.0163807,0.534999,20.1584,188.969,5.5985,0.0,0.0
64,15.75,49.3664,50.6764,114.015,98.8705,52.2004,0.0192216,0.600889,20.0293,188.848,5.66093,0.0,0.0
68,16.75,50.3874,52.1721,107.291,98.8753,52.7227,0.0218563,0.670838,19.8783,188.628,5.57312,0.0,0.0
72,17.75,51.7321,53.6169,105.941,98.8832,51.578,0.0246696,0.750188,19.7217,188.498,5.76839,0.0,0.0
76,18.75,54.0154,55.8434,101.135,98.8797,51.0837,0.0272611,0.834549,19.5912,188.268,5.8534,0.0,0.0
80,19.75,55.7555,58.0369,103.456,98.8797,49.6637,0.0299949,0.921322,19.4543,188.148,6.10328,0.0,0.0
84,20.75,57.9652,60.2456,98.3863,98.886,50.8632,0.03229,1.00111,19.3328,187.918,5.89232,0.0,0.0
88,21.75,60.7322,62.9778,105.689,98.892,49.6942,0.0341702,1.0757,19.2206,187.707,6.09894,0.0,0.0
92,22.75,63.1835,65.9706,94.2234,98.8856,51.8113,0.0355416,1.14758,19.1281,187.597,5.7286,0.0,0.0
96,23.75,65.6289,68.4789,97.0178,98.8936,52.4156,0.0364612,1.2032,19.0427,187.347,5.62654,0.0,0.0
100,24.75,67.9129,71.6622,102.29,98.8892,53.1683,0.0368123,1.2397,18.9867,187.207,5.49978,0.0,0.0
104,25.75,70.5826,74.5553,101.646,98.9131,51.0207,0.0368988,1.26334,18.9499,187.037,5.86736,0.0,0.0
108,26.75,73.0548,77.1402,101.715,98.8988,55.2467,0.0362855,1.27025,18.9396,186.907,5.16077,0.0,0.0
112,27.75,75.0268,79.7681,99.6381,98.9056,52.2495,0.0353077,1.26491,18.9489,186.717,5.65575,0.0,0.0
116,28.75,76.8257,81.7145,100.784,98.896,54.8873,0.034067,1.24938,18.9869,186.586,5.21838,0.0,0.0
120,29.75,79.0876,84.3858,100.769,98.9108,56.8049,0.0326509,1.22502,19.0516,186.406,4.91533,0.0,0.0
124,30.75,80.5435,86.7434,107.153,98.9211,55.4829,0.0310994,1.18755,19.1308,186.266,5.12496,0.0,0.0
128,31.75,82.3367,87.9734,101.597,98.9215,56.1713,0.0295616,1.14399,19.2078,186.166,5.01571,0.0,0.0
132,32.75,82.941,90.1219,107.601,98.9231,57.5527,0.0281872,1.09643,19.2725,186.076,4.80053,0.0,0.0
136,33.75,84.1638,90.8088,111.022,98.9219,59.054,0.0267348,1.04693,19.3452,185.926,4.57219,0.0,0.0
140,34.75,84.9718,91.9288,106.959,98.9159,60.5351,0.025116,1.00088,19.4177,185.836,4.35211,0.0,0.0
144,35.75,86.4493,92.7458,113.671,98.9315,58.6269,0.023649,0.949651,19.5052,185.706,4.63738,0.0,0.0
148,36.75,86.973,93.7961,116.512,98.9327,63.2557,0.0223063,0.901687,19.6057,185.566,3.96398,0.0,0.0
152,37.75,87.0568,95.0567,115.878,98.9446,62.4626,0.0210674,0.849687,19.7058,185.525,4.07688,0.0,0.0
156,38.75,87.9216,95.261,118.004,98.9383,62.8035,0.0200279,0.800237,19.7962,185.435,4.02806,0.0,0.0
160,39.75,88.0329,95.1295,119.971,98.9466,64.2739,0.0190056,0.753972,19.8683,185.305,3.8237,0.0,0.0
164,40.75,88.3144,95.9333,120.563,98.9566,66.4587,0.0180182,0.710906,19.9373,185.245,3.52834,0.0,0.0
168,41.75,88.2851,96.1441,118.53,98.9582,65.1585,0.0170818,0.673001,20.0029,185.145,3.70359,0.0,0.0
172,42.75,88.1306,95.5854,120.903,98.9594,68.6748,0.0161882,0.638118,20.0622,185.055,3.23788,0.0,0.0
176,43.75,88.5642,95.9584,125.041,98.9674,67.7365,0.0153474,0.602241,20.1192,185.005,3.36051,0.0,0.0
180,44.75,88.4889,96.1099,123.85,98.9714,71.2276,0.014637,0.568395,20.1672,184.935,2.91546,0.0,0.0
184,45.75,87.9418,96.1786,122.672,98.973,67.2753,0.0138072,0.536117,20.2136,184.865,3.42157,0.0,0.0
188,46.75,87.836,95.433,127.079,98.9845,69.1665,0.0130354,0.506099,20.2554,184.775,3.17688,0.0,0.0
192,47.75,87.8904,95.5258,128.473,98.9765,73.1634,0.0120476,0.480093,20.3028,184.735,2.67827,0.0,0.0
196,48.75,87.5094,94.9346,127.523,98.9893,73.8324,0.0111694,0.453436,20.3468,184.645,2.59873,0.0,0.0
200,49.75,87.0328,94.8294,131.757,98.9949,74.8791,0.0102801,0.427852,20.3917,184.595,2.47448,0.0,0.0
204,50.75,86.5204,94.0536,131.567,98.9941,74.764,0.0094389,0.404906,20.4378,184.555,2.48803,0.0,0.0
208,51.75,86.126,93.7907,129.513,98.9977,77.8466,0.0086746,0.383544,20.4792,184.505,2.13026,0.0,0.0
212,52.75,85.9075,93.1742,132.159,98.9949,79.0412,0.00802738,0.363953,20.5151,184.445,1.99503,0.0,0.0
216,53.75,85.4839,92.7142,129.404,98.9993,80.2317,0.00737534,0.346219,20.5435,184.435,1.86293,0.0,0.0
220,54.75,85.2404,92.5201,130.401,99.0172,80.9374,0.00685822,0.330323,20.5681,184.374,1.78692,0.0,0.0
224,55.75,84.0529,92.0791,131.75,99.0045,81.3398,0.00639088,0.3161,20.5914,184.324,1.74183,0.0,0.0
228,56.75,83.9216,91.528,131.229,99.01,83.2273,0.00598968,0.302983,20.6146,184.284,1.53901,0.0,0.0
232,57.75,83.7312,90.9181,136.597,99.0232,85.1783,0.00562837,0.290906,20.6384,184.224,1.33482,0.0,0.0
236,58.75,83.1774,90.6586,131.28,99.0176,84.7723,0.00528391,0.279397,20.6599,184.204,1.37667,0.0,0.0
240,59.75,82.3976,89.6644,131.923,99.0124,84.2438,0.00497402,0.26886,20.6774,184.154,1.43163,0.0,0.0
244,60.75,81.9831,89.387,134.798,99.0304,85.9554,0.00466858,0.259247,20.6937,184.154,1.25498,0.0,0.0
248,61.75,81.5229,88.9364,131.398,99.0296,86.1075,0.00442716,0.250364,20.7075,184.124,1.23924,0.0,0.0
252,62.75,80.7426,88.6646,134.488,99.0256,86.7864,0.00422876,0.242303,20.7206,184.104,1.16927,0.0,0.0
256,63.75,80.1394,87.8372,136.259,99.0344,86.5255,0.0040586,0.235034,20.7329,184.054,1.19674,0.0,0.0
260,64.75,79.8371,87.2786,134.429,99.0308,87.683,0.00392259,0.227907,20.7447,184.034,1.07864,0.0,0.0
264,65.75,79.5637,86.6891,135.337,99.0419,87.8891,0.0038093,0.220946,20.7566,183.954,1.05883,0.0,0.0
268,66.75,79.0072,86.1024,133.238,99.0471,88.7745,0.00371221,0.214126,20.766,183.954,0.970455,0.0,0.0
272,67.75,78.3862,85.4793,132.605,99.0352,89.0932,0.00360447,0.208667,20.7744,183.914,0.937628,0.0,0.0
276,68.75,77.9341,85.2967,134.949,99.0447,89.803,0.00343778,0.2021,20.7835,183.914,0.868151,0.0,0.0
280,69.75,77.3286,84.7404,138.623,99.0543,89.8966,0.00323463,0.195764,20.7927,183.894,0.859776,0.0,0.0
284,70.75,77.1012,83.9492,137.007,99.0535,90.1963,0.00303257,0.191061,20.8028,183.854,0.830208,0.0,0.0
288,71.75,76.3642,83.4654,140.363,99.0487,90.6291,0.00283346,0.184865,20.8147,183.834,0.787352,0.0,0.0
292,72.75,75.873,82.8358,135.28,99.0599,90.9234,0.00265871,0.178681,20.8252,183.824,0.759614,0.0,0.0
296,73.75,75.6704,82.3939,137.094,99.0579,91.8773,0.00254657,0.173045,20.8311,183.824,0.66694,0.0,0.0
300,74.75,74.9631,81.9841,133.713,99.0615,92.0269,0.00239557,0.167718,20.8389,183.794,0.652838,0.0,0.0
304,75.75,74.2599,81.2936,135.369,99.0599,92.1782,0.00224129,0.1625,20.8471,183.784,0.638137,0.0,0.0
308,76.75,73.6337,80.7831,145.273,99.0678,92.649,0.00213568,0.158709,20.8548,183.744,0.593703,0.0,0.0
312,77.75,73.5318,80.2176,139.9,99.0726,92.6119,0.00207958,0.153523,20.8625,183.754,0.597681,0.0,0.0
316,78.75,72.9502,79.6974,136.02,99.073,93.6585,0.00204278,0.149053,20.8711,183.744,0.498116,0.0,0.0
320,79.75,72.4793,79.2528,138.261,99.0675,93.4252,0.00199643,0.144142,20.8814,183.694,0.519723,0.0,0.0
324,80.75,71.861,78.8911,141.423,99.0854,94.1948,0.00195946,0.139304,20.886,183.724,0.448618,0.0,0.0
328,81.75,71.1768,78.0163,136.307,99.0706,94.1272,0.00187577,0.135011,20.8935,183.724,0.45366,0.0,0.0
332,82.75,71.1343,77.8843,143.281,99.0794,95.1054,0.00178366,0.129259,20.9008,183.684,0.362815,0.0,0.0
336,83.75,70.449,76.9981,137.99,99.0794,94.7476,0.00171743,0.126122,20.908,183.674,0.396222,0.0,0.0
340,84.75,69.7186,76.7489,136.865,99.0822,94.687,0.00169602,0.121966,20.9151,183.654,0.402142,0.0,0.0
344,85.75,69.2663,76.0725,138.683,99.0822,94.7282,0.00170535,0.118192,20.9222,183.654,0.398285,0.0,0.0
348,86.75,68.9489,75.83,141.521,99.0886,94.572,0.00175306,0.114487,20.928,183.634,0.413484,0.0,0.0
352,87.75,68.6053,74.8927,140.764,99.0838,94.2747,0.00180066,0.110834,20.9322,183.634,0.440953,0.0,0.0
356,88.75,68.1995,74.6264,139.875,99.087,94.6189,0.00184054,0.107238,20.9365,183.604,0.408939,0.0,0.0
360,89.75,67.5273,74.091,138.235,99.0894,94.6565,0.00184903,0.104362,20.9418,183.604,0.40564,0.0,0.0
364,90.75,66.7112,73.8519,141.434,99.0886,94.7278,0.00183432,0.101628,20.9454,183.594,0.398894,0.0,0.0
368,91.75,66.4647,72.9398,138.005,99.0914,94.1,0.00180645,0.0990336,20.9485,183.574,0.458078,0.0,0.0
372,92.75,66.2886,72.6818,138.744,99.095,93.8477,0.00176127,0.0969021,20.9509,183.554,0.482191,0.0,0.0
376,93.75,65.8382,71.9721,140.757,99.089,94.6045,0.00170116,0.09528,20.9525,183.564,0.410468,0.0,0.0
380,94.75,65.5939,71.4687,140.48,99.0862,94.5373,0.00164502,0.0935168,20.9535,183.534,0.416515,0.0,0.0
384,95.75,64.9621,70.9988,137.838,99.0914,94.7113,0.00154855,0.0920259,20.9545,183.534,0.400686,0.0,0.0
388,96.75,64.3634,71.1034,139.846,99.0814,94.9965,0.00142835,0.090506,20.9561,183.544,0.37314,0.0,0.0
392,97.75,63.9566,70.4405,141.264,99.0854,94.4203,0.00134236,0.0889751,20.9582,183.514,0.427427,0.0,0.0
396,98.75,63.7055,69.4152,138.902,99.083,94.0835,0.00129419,0.0879298,20.9596,183.524,0.458882,0.0,0.0
400,99.75,63.1882,69.478,141.444,99.099,94.5555,0.00127574,0.0866015,20.9611,183.514,0.415957,0.0,0.0
404,100.75,63.0891,68.939,139.446,99.0834,95.1169,0.0012671,0.0852062,20.9623,183.514,0.362096,0.0,0.0
408,101.75,62.4098,68.4382,139.421,99.0826,94.4784,0.00125309,0.0839924,20.9636,183.524,0.421723,0.0,0.0
412,102.75,62.0991,68.0283,142.99,99.079,94.9566,0.00122836,0.0828979,20.9645,183.514,0.376658,0.0,0.0
416,103.75,62.0667,67.8213,140.725,99.099,94.5996,0.00120556,0.0818568,20.9651,183.494,0.411824,0.0,0.0
420,104.75,61.4299,67.3557,143.313,99.0842,94.5711,0.00120594,0.0809195,20.9661,183.474,0.413169,0.0,0.0
424,105.75,61.4842,67.1546,141.86,99.0834,93.8708,0.00123249,0.0801126,20.9676,183.514,0.478978,0.0,0.0
428,106.75,60.767,66.3212,140.029,99.077,94.7752,0.00126746,0.0794147,20.9687,183.514,0.393425,0.0,0.0
432,107.75,60.9517,66.4381,141.649,99.0862,94.572,0.00130576,0.0787642,20.9694,183.464,0.41327,0.0,0.0
436,108.75,60.0499,65.4689,142.322,99.0794,94.1453,0.00134907,0.0780894,20.9699,183.464,0.452738,0.0,0.0
440,109.75,60.0404,65.6032,139.351,99.0798,94.9496,0.0014018,0.0774535,20.9702,183.444,0.377383,0.0,0.0
444,110.75,59.4823,65.0858,143.697,99.081,94.1795,0.00146678,0.0769697,20.9704,183.444,0.44966,0.0,0.0
448,111.75,59.4597,64.7108,139.87,99.0742,94.7966,0.00152463,0.0764787,20.9714,183.464,0.39117,0.0,0.0
452,112.75,58.7423,64.0079,140.663,99.073,94.431,0.00154833,0.0760003,20.972,183.484,0.425314,0.0,0.0
456,113.75,58.9764,64.5133,141.257,99.0683,94.5114,0.00154052,0.0755468,20.9724,183.444,0.417345,0.0,0.0
460,114.75,58.532,63.8612,142.268,99.0643,94.6218,0.00149561,0.0750864,20.9728,183.434,0.406635,0.0,0.0
464,115.75,58.4001,63.5048,140.305,99.0615,94.7121,0.00144015,0.0746889,20.9732,183.404,0.397934,0.0,0.0
468,116.75,58.0378,63.08,139.164,99.079,95.1309,0.00135496,0.0744124,20.9735,183.414,0.360398,0.0,0.0
472,117.75,58.0567,63.3018,144.522,99.0607,94.5608,0.00127109,0.0740824,20.9737,183.404,0.412031,0.0,0.0
476,118.75,57.3936,62.2738,139.393,99.0507,94.7649,0.00120932,0.0737488,20.9744,183.394,0.392034,0.0,0.0
480,119.75,57.4237,62.4774,139.245,99.0587,94.5035,0.00118632,0.073471,20.9753,183.384,0.417224,0.0,0.0
484,120.75,57.0666,61.8611,141.719,99.0531,95.0242,0.00119754,0.0731717,20.9759,183.374,0.368032,0.0,0.0
488,121.75,56.5222,61.516,141.24,99.0611,94.379,0.00122462,0.072848,20.9764,183.404,0.429121,0.0,0.0
492,122.75,56.5396,61.2881,139.569,99.0475,94.2463,0.0012424,0.0724718,20.9766,183.394,0.440382,0.0,0.0
496,123.75,56.1824,61.496,143.855,99.0511,94.2294,0.00124921,0.072137,20.9768,183.384,0.442292,0.0,0.0
500,124.75,56.0525,60.9462,141.683,99.0379,94.0633,0.00124612,0.0718587,20.9769,183.374,0.456754,0.0,0.0
504,125.75,55.7108,60.4021,141.309,99.0391,94.7673,0.001246,0.071641,20.9773,183.394,0.390769,0.0,0.0
508,126.75,55.332,60.8432,141.96,99.0359,94.4652,0.0012656,0.0714486,20.978,183.364,0.418786,0.0,0.0
512,127.75,55.3341,59.9601,138.57,99.0256,94.3642,0.00130697,0.0712055,20.9785,183.364,0.427339,0.0,0.0
516,128.75,55.5229,60.4545,141.04,99.0228,94.8032,0.00133842,0.0709155,20.9788,183.344,0.385952,0.0,0.0
520,129.75,54.9055,59.4941,143.297,99.0132,94.5765,0.00141781,0.0707253,20.979,183.354,0.406316,0.0,0.0
524,130.75,55.2174,59.1774,140.744,99.0236,94.945,0.00150421,0.070581,20.979,183.344,0.372776,0.0,0.0
528,131.75,54.7314,58.8012,138.857,99.0216,94.6441,0.00155436,0.0704468,20.9789,183.344,0.400733,0.0,0.0
532,132.75,54.1077,59.4105,141.516,99.018,94.1585,0.00155631,0.0702927,20.9788,183.334,0.446002,0.0,0.0
536,133.75,53.9483,59.1118,142.542,99.0061,94.3366,0.0015242,0.0703152,20.9787,183.344,0.428185,0.0,0.0
540,134.75,53.7439,59.1272,139.476,98.9953,94.5126,0.00148887,0.0703053,20.9787,183.334,0.410699,0.0,0.0
544,135.75,53.6936,58.3588,141.453,98.9869,94.4932,0.00146619,0.0701998,20.9787,183.304,0.411766,0.0,0.0
548,136.75,53.6053,58.4503,138.963,98.9877,94.3337,0.00146687,0.070007,20.9787,183.334,0.426814,0.0,0.0
552,137.75,53.4838,57.9611,141.876,98.9825,94.4372,0.00148793,0.0699547,20.9787,183.304,0.416633,0.0,0.0
556,138.75,53.365,57.7233,137.178,98.9801,94.8432,0.0015123,0.0699788,20.9789,183.314,0.378395,0.0,0.0
560,139.75,53.5358,57.5463,141.691,98.9722,94.4178,0.00150862,0.0700103,20.979,183.314,0.417523,0.0,0.0
564,140.75,53.5779,57.1009,140.263,98.9594,94.1119,0.00145765,0.0699074,20.9794,183.294,0.44514,0.0,0.0
568,141.75,52.9837,57.0985,139.328,98.9574,95.1268,0.00138417,0.0698399,20.9797,183.283,0.349896,0.0,0.0
572,142.75,52.9837,57.072,137.621,98.9554,94.386,0.00131419,0.0698551,20.9798,183.304,0.419004,0.0,0.0
576,143.75,52.7975,56.8377,137.849,98.9458,94.511,0.00123375,0.0698617,20.9799,183.304,0.406426,0.0,0.0
580,144.75,52.5415,56.4363,142.364,98.9426,94.3189,0.0011527,0.0698198,20.98,183.273,0.424173,0.0,0.0
584,145.75,52.9224,56.2743,140.558,98.9227,94.4083,0.00109269,0.0698001,20.98,183.273,0.413985,0.0,0.0
588,146.75,52.1049,56.6562,139.173,98.9227,94.525,0.00106737,0.0698204,20.9801,183.273,0.40304,0.0,0.0
592,147.75,52.777,55.8904,143.963,98.9155,94.4149,0.00108842,0.0699573,20.9801,183.294,0.412723,0.0,0.0
596,148.75,51.731,56.3672,137.414,98.8972,95.0394,0.00112736,0.0700224,20.9801,183.263,0.352648,0.0,0.0
600,149.75,52.4869,55.3385,141.738,98.8892,94.4285,0.00116762,0.0700899,20.9801,183.253,0.409088,0.0,0.0
604,150.75,51.8333,55.5145,140.292,98.8884,94.1218,0.00123789,0.0702083,20.9801,183.243,0.437848,0.0,0.0
608,151.75,51.2594,55.9809,140.584,98.8968,94.3646,0.00130994,0.0703355,20.9801,183.243,0.415766,0.0,0.0
612,152.75,51.2409,55.7487,140.35,98.8792,94.5118,0.00138149,0.070378,20.9801,183.243,0.400382,0.0,0.0
616,153.75,51.61,54.7357,143.902,98.8653,93.7925,0.00143308,0.0703798,20.9797,183.243,0.466844,0.0,0.0
620,154.75,51.2804,54.9759,141.117,98.8625,94.1618,0.00145137,0.0704058,20.979,183.233,0.431761,0.0,0.0
624,155.75,51.8594,54.5836,141.166,98.8474,94.2273,0.00143669,0.0704475,20.9786,183.233,0.424236,0.0,0.0
628,156.75,50.8283,54.6283,143.136,98.8482,94.3263,0.00140635,0.0704924,20.9783,183.243,0.415006,0.0,0.0
632,157.75,50.904,54.6298,142.2,98.8358,95.6775,0.0013411,0.0705147,20.9782,183.213,0.287835,0.0,0.0
636,158.75,50.8693,54.436,138.736,98.8306,94.5225,0.00126988,0.0705118,20.9781,183.223,0.395016,0.0,0.0
640,159.75,50.3318,55.0411,141.495,98.8167,94.7542,0.00121072,0.070411,20.978,183.223,0.372069,0.0,0.0
644,160.75,51.1223,53.8125,140.25,98.8059,94.6021,0.00116949,0.0701889,20.9779,183.213,0.385343,0.0,0.0
648,161.75,50.5384,54.2296,139.816,98.7883,94.3799,0.00114238,0.0699428,20.9788,183.183,0.404609,0.0,0.0
652,162.75,50.2141,54.5581,142.727,98.7859,93.9763,0.00113308,0.0697656,20.9794,183.203,0.442373,0.0,0.0
656,163.75,49.9164,54.3497,139.31,98.7816,94.1152,0.0011363,0.0695752,20.9798,183.203,0.428888,0.0,0.0
660,164.75,50.864,53.6136,142.149,98.7656,93.9932,0.00115396,0.0694893,20.9801,183.163,0.438955,0.0,0.0
664,165.75,50.754,52.9916,137.342,98.7624,94.2764,0.00116811,0.0694707,20.9802,183.183,0.412005,0.0,0.0
668,166.75,50.7014,53.2093,139.802,98.7505,94.1771,0.00117084,0.0695762,20.9803,183.193,0.420276,0.0,0.0
672,167.75,49.7124,54.083,141.163,98.7485,94.3881,0.00115776,0.0697877,20.98,183.173,0.400256,0.0,0.0
676,168.75,50.7118,53.0042,142.907,98.7409,94.3358,0.00113038,0.0700214,20.9794,183.153,0.404494,0.0,0.0
680,169.75,49.7648,53.7826,140.361,98.7301,93.8242,0.00110479,0.0703366,20.979,183.143,0.45172,0.0,0.0
684,170.75,49.9695,53.0941,143.558,98.7285,94.0744,0.00108707,0.0705433,20.9788,183.123,0.427973,0.0,0.0
688,171.75,50.0779,53.0917,139.209,98.723,93.7636,0.00111707,0.0705904,20.9786,183.143,0.456802,0.0,0.0
692,172.75,49.6137,52.7922,143.616,98.7066,94.4978,0.00116087,0.0705862,20.9789,183.133,0.386208,0.0,0.0
696,173.75,49.7261,52.646,138.252,98.6974,93.3835,0.00119838,0.070486,20.9795,183.133,0.490508,0.0,0.0
700,174.75,49.45,52.6672,141.115,98.697,94.7298,0.00123175,0.0703509,20.9799,183.143,0.363609,0.0,0.0
704,175.75,49.8951,52.6096,144.181,98.6831,93.8704,0.00125585,0.0701498,20.9801,183.113,0.443135,0.0,0.0
708,176.75,49.3711,52.5885,140.589,98.6855,93.8675,0.00127604,0.06995,20.9803,183.133,0.443623,0.0,0.0
712,177.75,49.6421,52.6818,141.475,98.6899,94.4359,0.00130484,0.0695869,20.9808,183.133,0.390505,0.0,0.0
716,178.75,49.4868,52.23,141.71,98.6596,94.6845,0.00134248,0.0691237,20.9815,183.113,0.364486,0.0,0.0
720,179.75,49.5524,52.4667,139.501,98.6444,94.8226,0.0013741,0.0686136,20.982,183.123,0.350208,0.0,0.0
724,180.75,49.3587,51.9515,141.85,98.6396,94.6359,0.00137404,0.0682016,20.9823,183.123,0.367249,0.0,0.0
728,181.75,48.9042,52.2613,141.615,98.6304,94.3077,0.00133974,0.0679312,20.9825,183.103,0.397209,0.0,0.0
732,182.75,48.8544,52.3313,142.149,98.6145,93.6807,0.00130055,0.0677539,20.9825,183.133,0.454894,0.0,0.0
736,183.75,49.5319,52.0667,139.109,98.6121,93.9202,0.00122131,0.0675634,20.9825,183.103,0.432051,0.0,0.0
740,184.75,48.5686,52.0874,142.078,98.5962,93.7459,0.00115493,0.0673382,20.9826,183.113,0.447087,0.0,0.0
744,185.75,48.5328,51.7858,142.845,98.5997,93.8733,0.00105884,0.0671904,20.9835,183.133,0.435375,0.0,0.0
748,186.75,48.6532,51.1628,139.384,98.5782,93.9351,0.000980479,0.0669947,20.9841,183.103,0.427603,0.0,0.0
752,187.75,48.3129,51.9283,140.192,98.5647,94.1206,0.000935629,0.0667885,20.9845,183.073,0.4089,0.0,0.0
756,188.75,48.9591,51.7194,143.41,98.5599,94.1478,0.000908391,0.0665776,20.9847,183.083,0.405908,0.0,0.0
760,189.75,48.8464,51.1415,136.957,98.5531,94.0686,0.000890521,0.0663542,20.9849,183.063,0.412753,0.0,0.0
764,190.75,48.6756,50.8336,141.042,98.5332,94.3774,0.000875348,0.0661336,20.985,183.063,0.381917,0.0,0.0
768,191.75,48.3742,50.8593,138.055,98.5164,94.14,0.0008606,0.0659341,20.9851,183.073,0.402737,0.0,0.0
772,192.75,48.0826,51.146,140.267,98.5068,94.1033,0.000841497,0.0657292,20.9851,183.063,0.405329,0.0,0.0
776,193.75,48.7657,51.5235,140.046,98.4953,93.6605,0.000824587,0.0655423,20.9854,183.053,0.446085,0.0,0.0
780,194.75,48.1881,51.3045,142.672,98.4877,93.9771,0.000820388,0.0654196,20.9861,183.043,0.415496,0.0,0.0
784,195.75,48.6713,50.8485,143.12,98.4789,94.7451,0.000817765,0.0653535,20.9869,183.043,0.342575,0.0,0.0
788,196.75,48.415,50.6338,138.292,98.471,94.5707,0.000808685,0.0653003,20.9874,183.033,0.358183,0.0,0.0
792,197.75,48.2877,51.0893,142.935,98.4622,93.4693,0.000794312,0.0651842,20.9877,183.023,0.461224,0.0,0.0
796,198.75,47.6931,50.3758,140.289,98.4474,93.7178,0.000787299,0.0649949,20.988,183.023,0.436358,0.0,0.0
800,199.75,48.3461,50.7604,137.228,98.441,93.9994,0.00079553,0.0647586,20.9881,183.013,0.409197,0.0,0.0
804,200.75,48.1693,50.7404,143.964,98.4267,93.8003,0.000818013,0.0645861,20.9882,183.003,0.426698,0.0,0.0
808,201.75,48.0553,50.2896,139.031,98.408,94.2471,0.000859304,0.0644235,20.9883,183.003,0.382889,0.0,0.0
812,202.75,48.3005,50.858,142.241,98.3932,94.2492,0.00090192,0.0642391,20.9883,182.973,0.381367,0.0,0.0
816,203.75,48.2378,50.772,140.865,98.3765,93.6552,0.000921124,0.0641166,20.9883,182.983,0.435894,0.0,0.0
820,204.75,47.9876,50.2057,140.768,98.3697,93.8522,0.000909579,0.0640221,20.9883,182.963,0.416656,0.0,0.0
824,205.75,47.7093,50.379,140.707,98.3513,93.898,0.00087738,0.0639139,20.9884,182.953,0.410683,0.0,0.0
828,206.75,48.1609,50.6317,144.101,98.3446,93.7113,0.00084157,0.063774,20.9884,182.953,0.427716,0.0,0.0
832,207.75,47.9675,50.5731,143.955,98.3342,94.0893,0.000818075,0.0635732,20.9883,182.963,0.391103,0.0,0.0
836,208.75,48.1477,50.2607,140.214,98.3111,93.8897,0.000813596,0.063389,20.9889,182.953,0.407832,0.0,0.0
840,209.75,47.5868,50.3691,145.803,98.3059,94.4866,0.000834722,0.0632681,20.9894,182.953,0.351197,0.0,0.0
844,210.75,47.9445,50.2027,141.382,98.3023,93.9153,0.000872729,0.0632161,20.9898,182.953,0.404629,0.0,0.0
848,211.75,47.5247,49.7702,139.344,98.2899,93.7718,0.00094558,0.063204,20.99,182.953,0.417063,0.0,0.0
852,212.75,47.3197,49.7756,137.555,98.2915,95.3803,0.00101982,0.0632176,20.9902,182.913,0.266469,0.0,0.0
856,213.75,47.7741,49.7116,140.145,98.2632,93.9491,0.00110583,0.0633005,20.9903,182.943,0.397916,0.0,0.0
860,214.75,47.8699,50.0645,144.401,98.2477,93.5426,0.00117981,0.0634074,20.9897,182.943,0.434939,0.0,0.0
864,215.75,47.7231,50.0334,138.393,98.2524,94.1338,0.0012437,0.0636008,20.9898,182.953,0.379539,0.0,0.0
868,216.75,47.305,50.1439,140.393,98.2572,93.4965,0.0012922,0.0637823,20.9896,182.943,0.440178,0.0,0.0
872,217.75,47.0058,49.9,138.654,98.2333,93.8984,0.00132402,0.0639319,20.9891,182.923,0.400003,0.0,0.0
876,218.75,47.4186,49.7146,139.773,98.2186,93.5274,0.00133393,0.064019,20.9888,182.933,0.433758,0.0,0.0
880,219.75,46.8906,49.5439,138.596,98.2078,94.2253,0.00131499,0.0640474,20.9888,182.923,0.366898,0.0,0.0
884,220.75,47.4505,49.7434,137.527,98.1998,93.9895,0.00127469,0.0639674,20.9894,182.913,0.388386,0.0,0.0
888,221.75,47.0882,49.8447,140.531,98.1727,93.6284,0.00125326,0.0638449,20.9898,182.933,0.420054,0.0,0.0
892,222.75,47.397,49.7847,139.947,98.1695,93.3893,0.00126499,0.0637646,20.99,182.913,0.442428,0.0,0.0
896,223.75,47.2942,49.0814,139.562,98.1595,93.3868,0.0012928,0.0636872,20.9902,182.883,0.441762,0.0,0.0
900,224.75,47.1042,49.3488,140.098,98.1619,94.5262,0.00132661,0.0636118,20.9903,182.913,0.3345,0.0,0.0
904,225.75,47.4205,49.7046,140.669,98.1524,94.053,0.00134879,0.0635376,20.9904,182.903,0.378117,0.0,0.0
908,226.75,47.4923,49.5322,143.615,98.152,93.9165,0.00134606,0.0634306,20.9904,182.913,0.390948,0.0,0.0
912,227.75,47.214,49.4614,144.597,98.1352,93.2306,0.00132406,0.0632767,20.9904,182.893,0.454405,0.0,0.0
916,228.75,46.9519,49.3122,139.976,98.1209,93.4998,0.00129162,0.0630796,20.9905,182.863,0.427557,0.0,0.0
920,229.75,46.95,49.1017,143.078,98.1161,93.8634,0.00125706,0.06291,20.9905,182.863,0.392727,0.0,0.0
924,230.75,46.8785,48.798,143.772,98.1125,93.5023,0.00120279,0.062767,20.9907,182.873,0.426566,0.0,0.0
928,231.75,47.1475,49.0029,139.981,98.1037,94.7323,0.00114699,0.0626381,20.9909,182.873,0.309937,0.0,0.0
932,232.75,46.7678,48.6801,141.308,98.0938,93.9837,0.00106659,0.0624719,20.991,182.883,0.379352,0.0,0.0
936,233.75,46.7219,48.8,140.547,98.1025,93.9639,0.000977639,0.0622189,20.9912,182.833,0.382011,0.0,0.0
940,234.75,46.9506,48.6865,140.771,98.0794,93.7533,0.000903814,0.062032,20.992,182.833,0.399812,0.0,0.0
944,235.75,46.713,48.6003,140.336,98.0706,93.966,0.000841419,0.0618879,20.9925,182.853,0.378934,0.0,0.0
948,236.75,46.854,48.4553,143.385,98.0738,93.3559,0.00079921,0.061741,20.9928,182.833,0.436953,0.0,0.0
952,237.75,46.9497,49.0039,141.717,98.0579,93.5765,0.000768416,0.0615953,20.993,182.833,0.414599,0.0,0.0
956,238.75,46.3925,48.893,138.403,98.0527,93.9227,0.000755206,0.0615191,20.9932,182.823,0.381395,0.0,0.0
960,239.75,46.7405,48.5699,143.098,98.0483,93.6049,0.000763599,0.0613578,20.9933,182.823,0.41104,0.0,0.0
964,240.75,46.9665,48.6491,141.502,98.0371,93.5719,0.00081505,0.0612401,20.9933,182.833,0.413154,0.0,0.0
968,241.75,46.7323,48.7986,140.947,98.0415,94.2813,0.000870695,0.0612069,20.9934,182.833,0.346608,0.0,0.0
972,242.75,46.9322,48.7303,144.52,98.0379,93.5925,0.000942243,0.0611547,20.9934,182.823,0.411274,0.0,0.0
976,243.75,46.8792,48.6166,140.939,98.0351,93.4557,0.00101163,0.0610874,20.9934,182.833,0.423991,0.0,0.0
980,244.75,46.8707,48.3757,138.92,98.0196,93.8774,0.00107874,0.0610432,20.9934,182.833,0.382684,0.0,0.0
984,245.75,46.6484,48.2218,138,98.028,93.7302,0.00112341,0.0610788,20.9934,182.823,0.397345,0.0,0.0
988,246.75,46.6812,48.4781,138.711,98.0036,93.8023,0.00114985,0.0613597,20.9931,182.813,0.388327,0.0,0.0
992,247.75,46.6033,48.4048,142.984,98.0152,93.4342,0.00114747,0.0617888,20.9923,182.793,0.424223,0.0,0.0
996,248.75,46.4827,48.653,138.941,98.016,93.9351,0.00113057,0.0624384,20.991,182.793,0.376913,0.0,0.0
1000,249.75,46.5644,48.3807,140.057,98.0005,93.7587,0.00110635,0.0631776,20.9899,182.763,0.392168,0.0,0.0
1004,250.75,46.2581,48.2066,142.055,97.9857,93.9495,0.00106417,0.0638155,20.9893,182.783,0.372811,0.0,0.0
1008,251.75,46.1407,48.2078,140.75,97.9897,93.5134,0.00100586,0.0642841,20.9888,182.773,0.414409,0.0,0.0
1012,252.75,46.3909,48.2533,142.064,97.9785,93.6956,0.000966324,0.064474,20.989,182.773,0.396148,0.0,0.0
1016,253.75,46.173,48.2208,142.505,97.9602,93.3361,0.000937283,0.064471,20.9903,182.793,0.428556,0.0,0.0
1020,254.75,46.4812,48.5731,138.902,97.9486,93.2949,0.000940114,0.0643466,20.9912,182.783,0.431425,0.0,0.0
1024,255.75,46.1749,48.0094,141.077,97.9418,93.9949,0.000946717,0.064129,20.9917,182.773,0.364565,0.0,0.0
1028,256.75,45.9877,48.1898,141.114,97.9187,93.4132,0.000960942,0.0638678,20.9922,182.753,0.417487,0.0,0.0
1032,257.75,46.4448,48.3635,143.991,97.9195,93.541,0.000976384,0.0636302,20.9927,182.763,0.405443,0.0,0.0
1036,258.75,46.289,48.0538,141.754,97.9119,93.6053,0.000983865,0.0634003,20.993,182.783,0.398666,0.0,0.0
1040,259.75,46.3045,47.8175,136.993,97.892,92.9169,0.000982206,0.0632263,20.9932,182.783,0.462284,0.0,0.0
1044,260.75,46.12,47.9236,139.468,97.89,93.7751,0.000973722,0.0630874,20.9934,182.753,0.380615,0.0,0.0
1048,261.75,46.4403,48.2138,139.541,97.8856,93.6214,0.000955379,0.0628977,20.9943,182.763,0.394763,0.0,0.0
1052,262.75,46.0861,48.0584,144.637,97.8721,93.5043,0.000938688,0.0626992,20.9949,182.743,0.404624,0.0,0.0
1056,263.75,46.0907,47.9727,140.081,97.8597,93.2714,0.000937564,0.0624331,20.9952,182.763,0.425608,0.0,0.0
1060,264.75,46.2381,47.9852,140.689,97.8529,93.682,0.000955457,0.0621401,20.9955,182.743,0.386066,0.0,0.0
1064,265.75,46.1295,48.179,140.874,97.8442,93.8019,0.00100443,0.0618001,20.9963,182.753,0.373932,0.0,0.0
1068,266.75,45.9761,47.7723,141.675,97.825,93.1152,0.00104346,0.061402,20.997,182.743,0.437324,0.0,0.0
1072,267.75,46.0132,47.9976,139.521,97.8222,93.5402,0.00106392,0.0610117,20.9974,182.733,0.396711,0.0,0.0
1076,268.75,46.1504,47.8117,139.413,97.8298,93.8621,0.00105962,0.0607362,20.9977,182.723,0.366945,0.0,0.0
1080,269.75,46.024,48.0899,138.647,97.8067,93.1671,0.00105971,0.0605665,20.9979,182.723,0.43072,0.0,0.0
1084,270.75,45.9113,47.9478,144.058,97.7963,94.1305,0.00107255,0.0603566,20.9973,182.713,0.338607,0.0,0.0
1088,271.75,46.2564,47.9324,140.826,97.7792,93.2545,0.00108308,0.0601412,20.9968,182.733,0.419917,0.0,0.0
1092,272.75,46.2141,47.831,140.354,97.7808,93.5402,0.00108314,0.0599985,20.9973,182.713,0.392954,0.0,0.0
1096,273.75,46.2373,47.712,144.139,97.7704,93.7484,0.00108163,0.0599683,20.9977,182.733,0.372311,0.0,0.0
1100,274.75,45.7345,47.9149,144.909,97.7632,93.2912,0.0010979,0.0599641,20.9979,182.723,0.414984,0.0,0.0
1104,275.75,46.0987,47.4668,142.123,97.7477,93.203,0.00111322,0.0600022,20.998,182.733,0.42196,0.0,0.0
1108,276.75,45.9537,47.5961,141.196,97.7524,94.4347,0.00114738,0.0600602,20.9972,182.703,0.306034,0.0,0.0
1112,277.75,46.2504,47.8109,146.324,97.7281,93.0018,0.00115664,0.0600983,20.9967,182.713,0.439337,0.0,0.0
1116,278.75,46.2854,48.0029,138.01,97.7205,93.3497,0.00114545,0.0600263,20.9964,182.683,0.405557,0.0,0.0
1120,279.75,45.9931,48.0458,140.372,97.7189,93.649,0.00112483,0.0599314,20.9962,182.663,0.377044,0.0,0.0
1124,280.75,46.331,48.0352,142.37,97.711,93.5295,0.00110381,0.059781,20.996,182.673,0.387642,0.0,0.0
1128,281.75,45.6651,47.2975,143.647,97.6918,93.9866,0.00108015,0.0595735,20.9959,182.683,0.342691,0.0,0.0
1132,282.75,45.8903,47.4854,139.525,97.6918,93.7343,0.00105012,0.0593635,20.9959,182.663,0.366513,0.0,0.0
1136,283.75,45.7651,47.6003,141.59,97.6831,93.3617,0.00100288,0.0591733,20.9958,182.653,0.401023,0.0,0.0
1140,284.75,46.2339,47.9322,141.137,97.6715,93.3473,0.000950162,0.0589993,20.9958,182.643,0.401343,0.0,0.0
1144,285.75,46.016,47.8612,138.668,97.6719,93.7113,0.000891509,0.0589046,20.9958,182.613,0.366886,0.0,0.0
1148,286.75,45.5916,47.4862,141.038,97.6671,93.3201,0.000847857,0.0588068,20.9958,182.643,0.403529,0.0,0.0
1152,287.75,45.8119,47.687,138.809,97.6651,92.9841,0.000823868,0.0586824,20.9958,182.623,0.435313,0.0,0.0
1156,288.75,45.9336,47.2677,139.434,97.652,93.6354,0.000825109,0.0585931,20.9958,182.623,0.372254,0.0,0.0
1160,289.75,45.8306,47.8479,140.718,97.6456,93.2187,0.000868775,0.0585694,20.9958,182.613,0.41121,0.0,0.0
1164,290.75,45.7526,47.7566,140.044,97.6312,93.3258,0.000930032,0.0584554,20.9958,182.623,0.399724,0.0,0.0
1168,291.75,45.9822,47.7445,139.488,97.6225,93.0682,0.00100746,0.0583224,20.9958,182.623,0.423427,0.0,0.0
1172,292.75,45.8459,47.5269,139.74,97.6157,93.8349,0.00107361,0.0582195,20.9958,182.643,0.350096,0.0,0.0
1176,293.75,45.94,47.4936,136.872,97.6029,93.0274,0.00110824,0.0581656,20.9958,182.603,0.42554,0.0,0.0
1180,294.75,45.8184,47.538,140.611,97.5914,93.0789,0.0011222,0.0581413,20.9958,182.623,0.419582,0.0,0.0
1184,295.75,45.6924,47.4565,142.749,97.5961,93.2986,0.00112046,0.0581117,20.9958,182.633,0.399121,0.0,0.0
1188,296.75,45.9065,47.5252,141.959,97.5846,93.7591,0.00110667,0.0580269,20.9958,182.623,0.354438,0.0,0.0
1192,297.75,45.7934,47.479,140.749,97.5734,93.311,0.00108831,0.0579415,20.9966,182.613,0.395883,0.0,0.0
1196,298.75,45.5919,47.534,141.935,97.5746,93.2228,0.00106312,0.0579204,20.9971,182.613,0.404373,0.0,0.0
1200,299.75,45.6868,47.6065,141.434,97.577,93.2689,0.00102724,0.0578484,20.9974,182.593,0.400204,0.0,0.0
1204,300.75,45.7204,47.446,140.611,97.5615,93.7615,0.000978351,0.0577719,20.9977,182.583,0.352104,0.0,0.0
1208,301.75,45.7382,47.5868,139.228,97.5511,93.0859,0.000945695,0.0577106,20.9978,182.593,0.415257,0.0,0.0
1212,302.75,45.4565,47.3187,142.201,97.5499,93.5847,0.000930145,0.0575967,20.9979,182.593,0.367785,0.0,0.0
1216,303.75,45.3513,47.0952,140.318,97.5483,93.2661,0.000945014,0.0574481,20.998,182.593,0.397869,0.0,0.0
1220,304.75,45.4087,47.6533,142.994,97.5459,94.0649,0.000962534,0.0573998,20.998,182.593,0.322059,0.0,0.0
1224,305.75,45.7488,47.3973,139.953,97.5391,93.2318,0.000971592,0.0573294,20.998,182.593,0.400287,0.0,0.0
1228,306.75,45.4327,47.141,141.863,97.5391,93.1947,0.000975592,0.0572455,20.998,182.583,0.403815,0.0,0.0
1232,307.75,45.5819,47.3996,143.242,97.5507,93.0319,0.000969591,0.0571685,20.9981,182.593,0.420364,0.0,0.0
1236,308.75,45.5636,47.4391,140.826,97.5323,93.6568,0.000962125,0.0571358,20.9981,182.573,0.359362,0.0,0.0
1240,309.75,45.4594,47.1854,143.133,97.5264,93.4161,0.000956246,0.0570782,20.9981,182.583,0.381629,0.0,0.0
1244,310.75,45.5968,47.2619,141.708,97.5363,93.8238,0.000956767,0.0569357,20.9987,182.573,0.34394,0.0,0.0
1248,311.75,45.514,47.6266,141.513,97.51,92.9911,0.000970245,0.0568176,20.9993,182.563,0.420557,0.0,0.0
1252,312.75,45.6185,47.2377,141.85,97.5064,93.1098,0.000987847,0.0567595,20.999,182.543,0.408923,0.0,0.0
1256,313.75,45.6382,47.4039,140.674,97.5076,93.5303,0.00101035,0.0567538,20.9987,182.553,0.369099,0.0,0.0
1260,314.75,45.404,47.1508,141.011,97.4973,93.5365,0.00103719,0.0567721,20.9985,182.573,0.36757,0.0,0.0
1264,315.75,45.5213,47.1035,141.79,97.4917,93.1308,0.00106669,0.0567984,20.9984,182.563,0.405582,0.0,0.0
1268,316.75,45.3428,47.1193,139.784,97.4825,92.7627,0.00109078,0.0568219,20.9983,182.553,0.439849,0.0,0.0
1272,317.75,45.1455,47.3935,141.741,97.4861,93.3773,0.00111178,0.056739,20.9982,182.553,0.381645,0.0,0.0
1276,318.75,45.6391,46.8254,141.721,97.4757,93.0764,0.00113345,0.0566148,20.9982,182.503,0.409311,0.0,0.0
1280,319.75,45.6738,47.275,140.36,97.4709,93.5229,0.0011389,0.0564595,20.9985,182.523,0.366467,0.0,0.0
1284,320.75,45.4103,46.6157,142.189,97.4809,93.4627,0.00111619,0.0563822,20.9989,182.503,0.373079,0.0,0.0
1288,321.75,45.0612,46.6804,142.768,97.4733,93.1209,0.00105969,0.0562336,20.9991,182.483,0.404856,0.0,0.0
1292,322.75,44.8648,46.7969,139.075,97.4733,92.8147,0.0010081,0.0560825,20.9994,182.493,0.434054,0.0,0.0
1296,323.75,44.8738,46.5451,140.974,97.4721,92.6415,0.000962506,0.0560022,21,182.493,0.450493,0.0,0.0
1300,324.75,44.6461,46.2836,139.188,97.4638,93.1461,0.000934778,0.0559824,21.0003,182.473,0.401592,0.0,0.0
1304,325.75,44.4962,46.7238,138.553,97.4634,93.4227,0.000936283,0.0558726,21.0006,182.493,0.375276,0.0,0.0
1308,326.75,45.067,46.6447,138.855,97.4622,92.8984,0.000961352,0.0557474,21.0008,182.483,0.425052,0.0,0.0
1312,327.75,44.8732,46.8112,139.931,97.4582,92.9231,0.000986559,0.0556839,21.0009,182.453,0.42233,0.0,0.0
1316,328.75,44.8725,46.563,140.296,97.4498,93.3464,0.000987568,0.0556753,21.0009,182.443,0.381281,0.0,0.0
1320,329.75,44.9007,46.6832,138.661,97.455,93.4116,0.0009546,0.0556553,21.0011,182.413,0.37557,0.0,0.0
1324,330.75,44.5101,46.3105,141.746,97.4506,93.6523,0.000921866,0.0556481,21.0014,182.443,0.352361,0.0,0.0
1328,331.75,44.8997,46.3278,142.475,97.4562,93.2388,0.000897084,0.0556625,21.0016,182.443,0.392082,0.0,0.0
1332,332.75,44.8733,46.9419,142.195,97.4558,93.9433,0.000892323,0.055638,21.0017,182.463,0.325333,0.0,0.0
1336,333.75,44.7361,46.7808,143.757,97.4462,93.1181,0.000886934,0.055525,21.0018,182.443,0.402664,0.0,0.0
1340,334.75,44.7782,46.6038,141.302,97.4542,93.076,0.000874087,0.0554656,21.0018,182.433,0.407392,0.0,0.0
1344,335.75,44.8875,46.495,139.665,97.4514,93.0533,0.000817034,0.0554325,21.0019,182.413,0.409298,0.0,0.0
1348,336.75,44.8451,46.9004,140.785,97.4422,93.0909,0.000751695,0.0554295,21.0019,182.413,0.404891,0.0,0.0
1352,337.75,45.1545,46.4,139.249,97.465,93.365,0.000696773,0.0554741,21.0019,182.403,0.380898,0.0,0.0
1356,338.75,44.7337,46.5728,139.35,97.4426,92.8163,0.000688496,0.0554601,21.0019,182.433,0.431105,0.0,0.0
1360,339.75,44.9606,46.7178,141.181,97.4514,93.299,0.000704759,0.0554068,21.0019,182.403,0.385928,0.0,0.0
1364,340.75,45.2567,46.4844,141.014,97.441,93.4998,0.000744819,0.0553791,21.0019,182.413,0.365935,0.0,0.0
1368,341.75,44.7677,46.2093,144.564,97.4315,93.182,0.000758257,0.0553783,21.0019,182.403,0.395243,0.0,0.0
1372,342.75,45.3398,46.9869,138.458,97.4203,93.102,0.000751042,0.0553778,21.0019,182.403,0.401837,0.0,0.0
1376,343.75,44.52,46.8024,138.299,97.4151,92.858,0.000743372,0.0553387,21.0019,182.393,0.424627,0.0,0.0
1380,344.75,45.0799,47.0814,143.874,97.4275,92.8423,0.000738341,0.0553413,21.0019,182.483,0.427247,0.0,0.0
1384,345.75,45.3667,46.6715,140.26,97.4211,93.426,0.000733132,0.0553342,21.0019,182.443,0.371118,0.0,0.0
1388,346.75,45.1357,46.4629,145.858,97.4167,92.5987,0.000725698,0.0553048,21.0021,182.433,0.449554,0.0,0.0
1392,347.75,45.1074,46.6733,133.828,97.4187,92.8959,0.000727458,0.0552804,21.0022,182.423,0.421335,0.0,0.0
1396,348.75,45.034,46.5363,139.189,97.4103,92.7376,0.000745471,0.0552256,21.0022,182.413,0.435688,0.0,0.0
1400,349.75,44.9277,46.6509,144.306,97.4012,92.724,0.000768148,0.0551599,21.0023,182.403,0.436154,0.0,0.0
1404,350.75,45.0313,46.7202,138.547,97.404,93.2141,0.000804904,0.0551697,21.0023,182.393,0.389682,0.0,0.0
1408,351.75,44.7011,46.7521,140.091,97.3984,92.8773,0.000830272,0.0552692,21.0023,182.363,0.421253,0.0,0.0
1412,352.75,45.1219,46.3883,142.423,97.3892,93.6461,0.000865639,0.0553146,21.0023,182.393,0.347359,0.0,0.0
1416,353.75,44.9387,46.4025,139.605,97.3844,93.2219,0.000884823,0.0553114,21.0023,182.383,0.387159,0.0,0.0
1420,354.75,45.1915,46.7498,142.333,97.3824,92.9594,0.000903417,0.0553679,21.0016,182.383,0.411978,0.0,0.0
1424,355.75,44.413,46.4006,144.51,97.3772,92.8476,0.000932851,0.0555557,21.0018,182.343,0.422164,0.0,0.0
1428,356.75,45.0789,46.8551,141.146,97.3776,93.2442,0.000967692,0.0558511,21.002,182.343,0.384427,0.0,0.0
1432,357.75,44.9385,46.4319,139.77,97.3629,92.8444,0.000990551,0.056159,21.0013,182.343,0.421171,0.0,0.0
1436,358.75,45.1637,46.5457,138.367,97.3661,93.2644,0.00100727,0.0564012,21.0009,182.323,0.381454,0.0,0.0
1440,359.75,44.8057,46.0665,138.629,97.3621,93.0995,0.00103079,0.0566429,21.0006,182.303,0.396774,0.0,0.0
1444,360.75,44.8693,46.5821,143.268,97.3545,92.966,0.00105075,0.0568359,21.0004,182.293,0.408809,0.0,0.0
1448,361.75,44.902,46.3688,140.618,97.3653,93.0571,0.00105867,0.0569735,21.0003,182.293,0.401108,0.0,0.0
1452,362.75,44.7043,46.1535,139.732,97.3549,93.8712,0.00103094,0.0570147,21.0002,182.283,0.322961,0.0,0.0
1456,363.75,44.7921,46.7762,142.41,97.3429,92.8431,0.000966433,0.0570029,21.0002,182.293,0.419475,0.0,0.0
1460,364.75,44.4731,46.4829,143.134,97.333,93.1993,0.000886877,0.0569265,21.0001,182.263,0.384632,0.0,0.0
1464,365.75,44.376,45.7573,145.221,97.3429,92.7108,0.000798509,0.05682,21.0001,182.293,0.432115,0.0,0.0
1468,366.75,44.5996,46.2045,139.105,97.3449,92.8967,0.000741132,0.0566628,21.0001,182.283,0.414542,0.0,0.0
1472,367.75,44.9767,46.3366,140.057,97.3318,92.919,0.000742445,0.0565292,21.0001,182.263,0.411221,0.0,0.0
1476,368.75,44.7511,46.3557,141.308,97.3378,92.818,0.00077531,0.0564239,21.0009,182.273,0.421404,0.0,0.0
1480,369.75,45.0244,46.4511,141.691,97.325,93.3716,0.000855648,0.0562636,21.0011,182.223,0.367536,0.0,0.0
1484,370.75,45.2998,46.861,141.683,97.3254,93.1956,0.000919229,0.0561062,21.0007,182.253,0.384296,0.0,0.0
1488,371.75,44.8711,46.5218,138.628,97.3138,93.9446,0.000948865,0.0560436,21.0003,182.223,0.312298,0.0,0.0
1492,372.75,44.7547,46.6159,139.63,97.317,92.8815,0.000965061,0.056022,21,182.233,0.413456,0.0,0.0
1496,373.75,45.0082,47.0587,142.755,97.3158,93.5818,0.000986575,0.0559753,20.9998,182.233,0.346768,0.0,0.0
1500,374.75,44.8187,46.3464,142.195,97.3246,92.8551,0.00101588,0.0558924,20.9996,182.213,0.416664,0.0,0.0
1504,375.75,45.0002,46.9456,145.081,97.3063,92.7553,0.00105192,0.0558626,20.9996,182.233,0.42452,0.0,0.0
1508,376.75,45.0759,46.8049,137.493,97.3079,93.0628,0.00107612,0.0558237,20.9995,182.223,0.39533,0.0,0.0
1512,377.75,44.9683,47.0559,143.644,97.3047,93.6519,0.00108324,0.0557735,21.0003,182.213,0.339117,0.0,0.0
1516,378.75,44.933,46.6665,139.212,97.2903,93.3312,0.00108169,0.0556967,21,182.233,0.368212,0.0,0.0
1520,379.75,45.1778,46.7139,142.34,97.2847,93.2875,0.00105307,0.0556746,21.0002,182.243,0.371854,0.0,0.0
1524,380.75,44.7054,46.5563,140.52,97.2863,92.7219,0.00100616,0.0557286,21.0007,182.243,0.425895,0.0,0.0
1528,381.75,45.2405,46.9173,139.173,97.2931,92.8926,0.000955311,0.0557526,21.0011,182.223,0.410214,0.0,0.0
1532,382.75,44.722,46.441,140.353,97.2819,93.4305,0.000915033,0.055732,21.0011,182.183,0.35802,0.0,0.0
1536,383.75,45.4231,46.3928,141.584,97.2815,93.2368,0.000900795,0.0556836,21.0005,182.243,0.376381,0.0,0.0
1540,384.75,44.7249,46.6781,140.918,97.2732,93.0937,0.000930984,0.0555289,21.0001,182.223,0.389226,0.0,0.0
1544,385.75,44.8275,46.582,139.656,97.2716,93.0274,0.000966467,0.0554028,20.9999,182.203,0.395401,0.0,0.0
1548,386.75,44.9944,46.5337,138.87,97.2867,92.8283,0.00103795,0.0554557,20.9991,182.213,0.415772,0.0,0.0
1552,387.75,45.0057,46.6028,143.136,97.272,93.4157,0.00108922,0.0556044,20.9984,182.203,0.358519,0.0,0.0
1556,388.75,44.6824,46.5051,142.536,97.2708,92.6391,0.00109,0.0556957,20.9979,182.173,0.432402,0.0,0.0
1560,389.75,44.6728,46.414,140.295,97.2716,93.1304,0.00105547,0.0557471,20.9976,182.203,0.385588,0.0,0.0
1564,390.75,45.0513,46.5772,144.58,97.2572,93.7883,0.00101092,0.0558734,20.9974,182.193,0.321892,0.0,0.0
1568,391.75,44.4428,46.4452,146.286,97.2704,93.0385,0.000991882,0.056063,20.9973,182.193,0.394232,0.0,0.0
1572,392.75,44.865,46.4696,142.638,97.2632,93.2681,0.00100423,0.0562205,20.9979,182.183,0.371733,0.0,0.0
1576,393.75,44.2365,45.9872,141.765,97.262,92.8254,0.00102202,0.0563238,20.9983,182.163,0.413794,0.0,0.0
1580,394.75,44.8863,46.734,143.059,97.2692,93.1477,0.00102338,0.0564407,20.9986,182.152,0.383723,0.0,0.0
1584,395.75,44.658,46.1381,139.976,97.26,92.9614,0.000973297,0.0565604,20.9987,182.142,0.400634,0.0,0.0
1588,396.75,44.5431,46.246,143.426,97.2616,92.4,0.000882072,0.0567436,20.9988,182.132,0.45447,0.0,0.0
1592,397.75,44.6911,46.4753,138.187,97.2469,92.7652,0.000791493,0.0568146,20.9989,182.132,0.418163,0.0,0.0
1596,398.75,44.8588,46.4976,142.544,97.2636,92.5055,0.000746725,0.0568857,20.9994,182.112,0.444535,0.0,0.0
1600,399.75,44.7148,46.2067,139.441,97.2624,92.82,0.000761973,0.0568832,21.0001,182.092,0.414343,0.0,0.0
1604,400.75,44.2494,46.2551,138.915,97.2564,92.8782,0.0008549,0.0568324,21.0005,182.122,0.408249,0.0,0.0
1608,401.75,44.5073,46.3185,143.01,97.2548,93.5014,0.000951598,0.0567253,21.0008,182.142,0.348827,0.0,0.0
1612,402.75,44.5384,46.1346,143.314,97.2524,92.583,0.00103038,0.0565774,21.001,182.142,0.436095,0.0,0.0
1616,403.75,44.4541,46.342,140.252,97.2556,93.4553,0.00105962,0.0564596,21.0011,182.132,0.353277,0.0,0.0
1620,404.75,44.7442,46.2481,140.107,97.2584,92.8794,0.00104868,0.0563823,21.0006,182.132,0.408312,0.0,0.0
1624,405.75,44.6978,45.9571,142.689,97.2477,92.6523,0.00104667,0.0563173,21.0007,182.102,0.429032,0.0,0.0
1628,406.75,44.784,45.8076,137.076,97.2524,93.0571,0.00107944,0.0562182,21.0009,182.102,0.39083,0.0,0.0
1632,407.75,44.7051,45.9851,141.35,97.252,92.9585,0.00115043,0.0560867,21.0011,182.102,0.400182,0.0,0.0
1636,408.75,44.5902,46.1137,138.771,97.2556,92.9136,0.00121501,0.0559655,21.0012,182.082,0.404794,0.0,0.0
1640,409.75,44.8091,46.1455,140.655,97.2425,93.2689,0.00124129,0.0558368,21.0012,182.082,0.369766,0.0,0.0
1644,410.75,44.4986,46.464,140.494,97.2477,93.292,0.0012442,0.0557911,21.0013,182.092,0.368044,0.0,0.0
1648,411.75,44.6988,46.2385,139.343,97.2524,92.7413,0.00123384,0.0557522,21.0013,182.092,0.420954,0.0,0.0
1652,412.75,44.7171,46.0477,140.439,97.2393,93.0183,0.00122213,0.0556633,21.0013,182.102,0.393322,0.0,0.0
1656,413.75,44.8931,46.2487,142.668,97.25,92.9247,0.0011867,0.05557,21.0013,182.062,0.403224,0.0,0.0
1660,414.75,44.1873,46.4155,143.987,97.2628,93.3192,0.0011477,0.055581,21.0013,182.102,0.366841,0.0,0.0
1664,415.75,44.648,46.0973,139.971,97.254,92.8621,0.00110192,0.055551,21.0017,182.092,0.409565,0.0,0.0
1668,416.75,44.8962,46.1332,140.384,97.2564,93.1721,0.00106531,0.0555157,21.002,182.082,0.380247,0.0,0.0
1672,417.75,44.3227,46.5892,141.711,97.2293,92.9631,0.00104567,0.0554117,21.0015,182.092,0.397678,0.0,0.0
1676,418.75,44.5858,46.425,139.631,97.2508,93.4281,0.00104593,0.0553053,21.0011,182.102,0.355421,0.0,0.0
1680,419.75,44.8295,46.2638,138.675,97.2488,93.1725,0.00105705,0.055271,21.0008,182.102,0.379517,0.0,0.0
1684,420.75,44.7969,46.4698,140.905,97.2496,92.5224,0.00104191,0.0552052,21.0007,182.062,0.441645,0.0,0.0
1688,421.75,44.6978,46.5842,142.619,97.2469,93.2648,0.000998338,0.0551316,21.0006,182.092,0.370557,0.0,0.0
1692,422.75,44.5546,45.9609,138.672,97.2473,93.292,0.00094681,0.0550872,21.0009,182.102,0.368007,0.0,0.0
1696,423.75,44.559,46.413,141.97,97.2496,92.9375,0.00090892,0.0550549,21.0015,182.072,0.401969,0.0,0.0
1700,424.75,44.6858,46.4403,139.47,97.2496,93.3283,0.000884773,0.0550686,21.0019,182.052,0.36478,0.0,0.0
1704,425.75,44.1268,46.1327,141.611,97.2512,92.6222,0.000865393,0.0550458,21.0019,182.042,0.432238,0.0,0.0
1708,426.75,44.1997,45.7592,144.122,97.2516,93.083,0.000840266,0.0550135,21.0019,182.042,0.388285,0.0,0.0
1712,427.75,44.5806,46.3931,139.857,97.2441,93.264,0.000803101,0.0549912,21.0018,182.012,0.370381,0.0,0.0
1716,428.75,44.517,46.2836,141.021,97.2496,92.4041,,0.0549763,,182.052,0.452984,0.0,0.0
1720,429.75,44.3765,46.4323,139.218,97.2373,93.4206,,0.0549394,,182.062,0.354889,0.0,0.0
1724,430.75,44.562,46.2234,144.152,97.2457,93.1238,,0.0549003,,182.012,0.383854,0.0,0.0
1728,431.75,44.0643,46.2331,143.935,97.2369,93.0435,,,,181.992,0.390708,0.0,0.0
1732,432.75,44.4669,46.0646,142.676,97.2369,93.088,,,,181.992,0.386468,0.0,0.0
1736,433.75,44.443,45.8687,139.398,97.2369,93.6523,,,,181.972,0.332902,0.0,0.0
1740,434.75,44.264,45.9629,140.541,97.2429,93.1354,,,,181.992,0.382502,0.0,0.0
1744,435.75,44.106,45.3896,141.997,97.2333,92.8563,,,,182.012,0.408227,0.0,0.0
1748,436.75,44.0717,45.8226,140.617,97.2465,92.8118,,,,181.992,0.413676,0.0,0.0
1752,437.75,44.1573,46.0193,139.85,97.2389,93.074,,,,181.952,0.387985,0.0,0.0
1756,438.75,44.3168,46.3402,141.9,97.2357,92.4136,,,,181.972,0.450802,0.0,0.0
1759,439.5,44.5138,46.3721,143.668,97.2453,92.8044,,,,181.962,0.414276,0.0,0.0