File: 01_Data/Carpet_Polyolefin_LowPile/Cone/Polyolefin_Carpet_LowPile_Cone_HF50Scan_220411_R1.csv
Names,Time,Stack TC,Smoke TC,Exh Press,Smoke Comp,Smoke Meas,CO Meter,CO2 Meter,O2 Meter,Sample Mass,Ext Coeff,Start Test,Flame Verif
Chan Gain,,500,500,1,1,1,1,1,1,1,1,1.0,1.0
Offset,,0,0,0.133936,0,0,0,0,0,0,0,0.0,0.0
Gain,,1,1,25.011,13.0656,13.5076,1,1,1,1.00089,1.01037,1.0,1.0
Units,sec,C,C,Pa,%,%,%,%,%,g,/m,,
Baseline,,29.106,30.2865,149.019,98.0413,94.8889,0.00115553,0.0536855,21.0035,-834.922,0.289718,,
5,1,28.7329,30.0134,153.604,98.1005,95.0728,0.000874238,0.0561833,21.0008,199.338,0.277851,0.0,0.0
10,2.25,27.8523,29.0864,153.983,98.1001,95.4269,0.000799639,0.056312,21.0005,199.318,0.244867,0.0,0.0
15,3.5,27.6733,28.867,150.063,98.0782,95.3494,0.000763398,0.0563348,21.0003,199.308,0.250087,0.0,0.0
20,4.75,28.0057,28.8815,148.855,98.0898,94.9302,0.000795809,0.0562598,21.0002,199.258,0.290185,0.0,0.0
25,6,27.2311,28.8601,148.489,98.0886,94.5761,0.000869884,0.0559227,20.9992,199.258,0.323198,0.0,0.0
30,7.25,27.4751,28.842,150.199,98.1041,94.3234,0.000993042,0.0555037,20.9986,199.238,0.348315,0.0,0.0
35,8.5,27.942,28.8405,150.583,98.0969,93.9474,0.00116593,0.0556946,20.9968,199.218,0.383061,0.0,0.0
40,9.75,28.2419,28.9688,149.535,98.1141,92.7978,0.00133145,0.0588655,20.9915,199.138,0.493739,0.0,0.0
45,11,28.0311,28.8288,144.343,98.1029,93.7166,0.00163469,0.0710984,20.9794,199.178,0.405406,0.0,0.0
50,12.25,27.9487,28.9796,143.882,98.1065,92.5781,0.00205498,0.0919893,20.9533,199.138,0.514063,0.0,1.0
55,13.5,27.9777,29.087,144.675,98.0954,90.1917,0.00277783,0.123626,20.896,199.088,0.744506,0.0,1.0
60,14.75,28.7851,29.8408,135.742,98.1221,83.9528,0.00364809,0.159581,20.8206,198.998,1.38224,0.0,1.0
65,16,29.06,30.2101,138.422,98.1141,79.54,0.00474631,0.199157,20.7418,198.957,1.86007,0.0,1.0
70,17.25,29.3749,30.3441,133.531,98.1109,77.1223,0.00628288,0.244018,20.6514,198.847,2.13335,0.0,1.0
75,18.5,30.3661,31.1663,132.663,98.1141,74.6577,0.0073872,0.2915,20.5898,198.777,2.42151,0.0,1.0
80,19.75,31.1286,32.3121,122.601,98.1145,68.7729,0.00899417,0.339426,20.5099,198.657,3.14923,0.0,0.0
85,21,32.0336,33.2791,125.74,98.1161,68.9765,0.0105739,0.399386,20.4068,198.597,3.12317,0.0,0.0
90,22.25,33.3121,33.595,124.326,98.1061,65.5102,0.012169,0.440466,20.3146,198.487,3.57924,0.0,0.0
95,23.5,34.8092,35.9305,124.132,98.1073,67.6083,0.0136592,0.492503,20.2377,198.347,3.29994,0.0,0.0
100,24.75,35.0613,36.5994,122.189,98.1213,64.1775,0.0151934,0.541995,20.1635,198.207,3.76277,0.0,0.0
105,26,37.2801,38.4108,114.105,98.1169,62.3744,0.0167688,0.595043,20.0765,198.037,4.01494,0.0,0.0
110,27.25,38.8029,39.917,115.784,98.1105,60.7635,0.0182862,0.652386,19.9687,197.927,4.24628,0.0,0.0
115,28.5,39.8708,41.4412,118.552,98.1225,60.4357,0.0198665,0.712317,19.8609,197.726,4.29529,0.0,0.0
120,29.75,42.4762,44.0084,115.608,98.1169,60.39,0.0212105,0.772071,19.7553,197.546,4.3015,0.0,0.0
125,31,44.2659,46.3574,112.057,98.1197,58.9023,0.0227252,0.830362,19.6613,197.386,4.52282,0.0,0.0
130,32.25,46.1968,47.7951,113.749,98.1073,58.2011,0.0239426,0.891191,19.5785,197.186,4.62784,0.0,0.0
135,33.5,49.0484,51.0252,105.617,98.1205,58.0201,0.0251036,0.945526,19.51,196.986,4.65663,0.0,0.0
140,34.75,51.225,53.3098,102.082,98.1408,57.8548,0.026005,0.989421,19.4413,196.806,4.68375,0.0,0.0
145,36,53.6641,56.1849,102.266,98.1408,59.0964,0.0265789,1.0303,19.3701,196.585,4.49556,0.0,0.0
150,37.25,56.3592,59.3122,107.643,98.1249,62.4643,0.0268687,1.06402,19.3173,196.425,4.0029,0.0,0.0
155,38.5,58.7972,62.4525,103.56,98.1324,62.6329,0.0267992,1.08448,19.2861,196.275,3.9797,0.0,0.0
160,39.75,61.1141,64.4862,109.812,98.1324,61.8637,0.026478,1.09341,19.2691,196.035,4.08922,0.0,0.0
165,41,63.6818,67.3306,106.488,98.1264,62.2338,0.0259753,1.09282,19.2726,195.885,4.0358,0.0,0.0
170,42.25,65.8874,69.9731,114.259,98.1316,64.0979,0.0254734,1.08363,19.2911,195.725,3.77471,0.0,0.0
175,43.5,67.3415,72.1127,105.161,98.1488,62.8654,0.0247652,1.0666,19.321,195.554,3.94834,0.0,0.0
180,44.75,69.8006,74.5269,109.804,98.1476,65.0922,0.0239486,1.0414,19.3584,195.384,3.63972,0.0,0.0
185,46,71.2926,76.5688,120.102,98.1344,64.6968,0.0230209,1.01569,19.4013,195.204,3.69252,0.0,0.0
190,47.25,73.0145,78.2117,112.899,98.1452,66.8841,0.0219703,0.979893,19.4587,195.064,3.39882,0.0,0.0
195,48.5,74.0438,79.7019,110.068,98.1572,65.9364,0.0207838,0.940722,19.5378,194.914,3.52638,0.0,0.0
200,49.75,75.2677,81.4825,120.534,98.1416,68.0985,0.0195834,0.895175,19.6329,194.804,3.23901,0.0,0.0
205,51,76.3137,82.522,120.437,98.1408,67.6318,0.0184374,0.843975,19.7181,194.654,3.29988,0.0,0.0
210,52.25,77.6475,83.8056,124.273,98.1528,72.954,0.0172803,0.792153,19.8055,194.554,2.6296,0.0,0.0
215,53.5,78.0849,84.264,119.449,98.1623,73.5867,0.0161863,0.743144,19.8929,194.453,2.55392,0.0,0.0
220,54.75,77.9908,84.5547,123.715,98.1611,74.6148,0.015152,0.694891,19.9643,194.363,2.43085,0.0,0.0
225,56,78.7029,84.9901,125.567,98.158,76.626,0.0142265,0.645212,20.0421,194.253,2.19482,0.0,0.0
230,57.25,78.4569,85.3002,126.804,98.1843,77.0325,0.0131964,0.595742,20.1174,194.193,2.15031,0.0,0.0
235,58.5,78.4315,85.1545,131.612,98.191,76.1512,0.0122282,0.551731,20.1921,194.123,2.25291,0.0,0.0
240,59.75,77.986,84.8407,132.905,98.1859,78.8211,0.0112961,0.502839,20.2786,194.043,1.94702,0.0,0.0
245,61,77.6748,84.3088,131.081,98.1743,80.6728,0.0104533,0.45975,20.3596,193.943,1.74018,0.0,0.0
250,62.25,77.457,84.0641,136.413,98.1914,82.0842,0.00948299,0.420631,20.4324,193.933,1.588,0.0,0.0
255,63.5,76.4582,83.3918,137.239,98.1978,82.4424,0.00841122,0.385372,20.498,193.873,1.54998,0.0,0.0
260,64.75,76.106,83.1303,137.751,98.2022,84.4912,0.00755793,0.353219,20.5474,193.813,1.33282,0.0,0.0
265,66,75.0645,82.2449,136.304,98.1918,86.1306,0.00665448,0.324876,20.5908,193.773,1.16157,0.0,0.0
270,67.25,74.5819,81.2219,135.655,98.2038,86.6545,0.00586672,0.300606,20.6308,193.713,1.1089,0.0,0.0
275,68.5,73.9108,79.9151,141.195,98.2014,88.7626,0.00522338,0.278429,20.6693,193.693,0.895648,0.0,0.0
280,69.75,72.7614,79.7114,142.693,98.1982,90.1431,0.00470342,0.258436,20.7058,193.653,0.758576,0.0,0.0
285,71,72.2105,79.2248,142.042,98.2098,90.005,0.00428599,0.240677,20.7365,193.623,0.773208,0.0,0.0
290,72.25,71.4493,78.2932,138.959,98.2217,91.3171,0.00393813,0.22516,20.7614,193.603,0.646016,0.0,0.0
295,73.5,70.8851,76.7302,141.037,98.2162,91.9152,0.00365946,0.211488,20.7851,193.563,0.58765,0.0,0.0
300,74.75,69.9839,77.102,142.329,98.2166,92.4008,0.00342434,0.199159,20.8048,193.553,0.540986,0.0,0.0
305,76,68.8327,75.2881,144.266,98.2253,92.4441,0.00322495,0.18738,20.8245,193.513,0.537626,0.0,0.0
310,77.25,67.8531,74.7517,143.204,98.2409,92.5014,0.00303942,0.177305,20.8387,193.483,0.533538,0.0,0.0
315,78.5,67.2595,73.6554,144.883,98.2321,93.1655,0.00288379,0.168422,20.8492,193.463,0.469345,0.0,0.0
320,79.75,66.572,73.4361,144.82,98.2489,93.0917,0.00262796,0.160824,20.8567,193.483,0.477879,0.0,0.0
325,81,65.8028,72.0106,137.442,98.2441,94.1655,0.00237321,0.154695,20.8647,193.453,0.375797,0.0,0.0
330,82.25,65.0477,71.5319,144.306,98.2509,93.8419,0.00212469,0.14797,20.8738,193.423,0.406917,0.0,0.0
335,83.5,63.9038,70.5607,143.365,98.2465,93.3563,0.00191406,0.142003,20.8829,193.423,0.452502,0.0,0.0
340,84.75,63.4183,69.8543,145.816,98.2772,94.304,0.00175557,0.136893,20.8905,193.393,0.365755,0.0,0.0
345,86,62.3837,68.6388,144.225,98.272,93.682,0.00165853,0.132715,20.8962,193.403,0.423942,0.0,0.0
350,87.25,61.8843,68.5031,144.203,98.278,94.1808,0.00159068,0.12845,20.9011,193.393,0.377418,0.0,0.0
355,88.5,61.51,67.6012,144.094,98.2855,94.4013,0.0015593,0.124817,20.906,193.372,0.357373,0.0,0.0
360,89.75,60.3982,66.8592,145.207,98.2875,95.1882,0.00160505,0.121604,20.9111,193.363,0.283977,0.0,0.0
365,91,59.7626,66.342,143.435,98.2987,93.7368,0.00169418,0.118487,20.9163,193.342,0.421165,0.0,0.0
370,92.25,59.3083,65.5,142.372,98.2895,94.5612,0.0018098,0.115791,20.9194,193.342,0.342728,0.0,0.0
375,93.5,58.3385,64.5162,148.437,98.2903,94.2682,0.0019113,0.113117,20.9233,193.312,0.370313,0.0,0.0
380,94.75,57.1003,63.3436,143.272,98.325,93.8535,0.0019476,0.110607,20.9263,193.302,0.412515,0.0,0.0
385,96,56.9652,63.4009,143.579,98.331,93.6065,0.0019232,0.108595,20.929,193.292,0.436402,0.0,0.0
390,97.25,56.1067,61.8792,147.963,98.321,94.4046,0.00186047,0.106576,20.932,193.272,0.360261,0.0,0.0
395,98.5,55.8174,62.1296,143.042,98.343,95.1033,0.00177813,0.104604,20.9347,193.272,0.296883,0.0,0.0
400,99.75,54.9333,61.2465,146.24,98.3465,94.8848,0.00170853,0.102659,20.9365,193.262,0.31759,0.0,0.0
405,101,54.9544,60.8973,145.55,98.3629,94.3724,0.00166559,0.100824,20.938,193.252,0.367054,0.0,0.0
410,102.25,54.5462,60.215,148.06,98.3581,95.5213,0.00165408,0.0992307,20.9407,193.262,0.259381,0.0,0.0
415,103.5,53.5778,59.9813,144.664,98.3765,93.7871,0.00164997,0.0978879,20.9434,193.232,0.42342,0.0,0.0
420,104.75,52.9169,58.8696,143.681,98.4008,94.2282,0.00160191,0.0965995,20.9461,193.222,0.384026,0.0,0.0
425,106,52.5453,58.5136,144.226,98.4032,94.8704,0.00153205,0.0954672,20.9478,193.192,0.324039,0.0,0.0
430,107.25,52.379,58.0612,146.106,98.4036,94.2459,0.00145772,0.0944702,20.9488,193.202,0.382611,0.0,0.0
435,108.5,51.7664,57.6991,144.716,98.4163,94.6041,0.0014514,0.093289,20.9503,193.202,0.350137,0.0,0.0
440,109.75,50.9346,57.0496,147.351,98.4315,94.4343,0.00152582,0.0920566,20.9524,193.182,0.367426,0.0,0.0
445,111,50.7849,56.1522,144.526,98.4367,94.9421,0.00159407,0.090479,20.9545,193.172,0.320357,0.0,0.0
450,112.25,50.751,56.1066,145.965,98.4287,94.3127,0.00164107,0.0895892,20.956,193.152,0.378595,0.0,0.0
455,113.5,50.2427,55.4926,142.939,98.461,94.2418,0.00165164,0.0883244,20.9571,193.142,0.388168,0.0,0.0
460,114.75,49.376,54.8035,143.877,98.4698,94.6082,0.00161715,0.0872658,20.9584,193.142,0.35456,0.0,0.0
465,116,49.1161,54.2531,142.736,98.4622,94.5798,0.00158528,0.0864311,20.9596,193.142,0.356543,0.0,0.0
470,117.25,48.4216,53.7452,145.665,98.4765,95.1511,0.00159722,0.0856641,20.9609,193.142,0.304457,0.0,0.0
475,118.5,48.3623,53.8542,144.954,98.4845,94.6993,0.00164957,0.0847891,20.9621,193.122,0.347359,0.0,0.0
480,119.75,48.1568,53.0581,147.224,98.4969,94.3935,0.00169311,0.0839882,20.9628,193.132,0.377143,0.0,0.0
485,121,47.3627,52.8389,145.213,98.4997,94.5489,0.00171614,0.0832319,20.9633,193.122,0.362815,0.0,0.0
490,122.25,47.4238,52.56,146.638,98.5224,94.3823,0.0017224,0.0825008,20.9644,193.132,0.380485,0.0,0.0
495,123.5,46.4748,51.8239,149.546,98.5423,94.4916,0.00173825,0.081865,20.9653,193.102,0.372025,0.0,0.0
500,124.75,46.3933,51.4815,146.33,98.5403,94.1548,0.00176164,0.081095,20.9664,193.112,0.403491,0.0,0.0
505,126,46.1891,50.3447,147.647,98.5539,94.5645,0.00181345,0.0801541,20.9672,193.102,0.366224,0.0,0.0
510,127.25,46.2008,50.7643,146.498,98.5694,94.8143,0.00184008,0.0793528,20.9686,193.092,0.344242,0.0,0.0
515,128.5,45.3268,50.3299,145.303,98.5694,94.8354,0.00183224,0.0786,20.9703,193.092,0.342277,0.0,0.0
520,129.75,44.6815,50.0661,147.305,98.5702,94.9483,0.00183075,0.0779927,20.9714,193.082,0.331799,0.0,0.0
525,131,44.9037,49.6497,145.14,98.5734,94.7624,0.00186226,0.0775448,20.972,193.062,0.349456,0.0,0.0
530,132.25,44.495,49.0448,146.146,98.589,94.8123,0.00190293,0.0770749,20.973,193.072,0.34619,0.0,0.0
535,133.5,44.5669,48.7521,146.597,98.6013,94.5344,0.0019034,0.0765231,20.974,193.052,0.373312,0.0,0.0
540,134.75,43.505,47.2419,142.41,98.5922,94.6866,0.00186409,0.0759889,20.9745,193.042,0.358238,0.0,0.0
545,136,43.7632,48.5247,146.183,98.6081,94.2982,0.00184512,0.0754997,20.9748,193.032,0.396092,0.0,0.0
550,137.25,43.551,47.6845,148.266,98.6257,94.9561,0.00187554,0.075088,20.975,193.042,0.33605,0.0,0.0
555,138.5,43.1847,47.2776,142.959,98.6296,94.5246,0.00193392,0.0747269,20.9751,193.032,0.376782,0.0,0.0
560,139.75,42.3938,47.2266,145.62,98.6197,94.4013,0.00196419,0.0743998,20.9755,193.042,0.387451,0.0,0.0
565,141,42.8709,46.8273,147.84,98.6336,95.0827,0.00196442,0.074074,20.9767,193.032,0.324962,0.0,0.0
570,142.25,42.2722,47.1175,147.257,98.6532,95.2736,0.00194667,0.0737477,20.9774,193.032,0.308945,0.0,0.0
575,143.5,42.0064,46.3167,144.139,98.6631,94.7158,0.00194943,0.0734256,20.9778,193.022,0.361876,0.0,0.0
580,144.75,41.8787,45.5906,144.703,98.6456,95.2748,0.00197489,0.073029,20.9781,193.002,0.308149,0.0,0.0
585,146,41.2193,45.32,143.003,98.6647,94.8869,0.00200008,0.0725432,20.979,193.012,0.346026,0.0,0.0
590,147.25,41.4877,45.4587,142.119,98.6739,94.5456,0.00201298,0.0720288,20.9797,193.002,0.378788,0.0,0.0
595,148.5,41.2168,45.2079,147.475,98.6731,95.027,0.00197205,0.0715415,20.9799,192.972,0.333697,0.0,0.0
600,149.75,41.0289,44.5983,146.941,98.6755,96.0786,0.00188672,0.0710829,20.9794,192.992,0.236373,0.0,0.0
605,151,40.7305,44.8001,147.997,98.7006,94.971,0.00174589,0.0706638,20.9788,193.012,0.341399,0.0,0.0
610,152.25,40.7373,44.3402,142.105,98.7158,95.4591,0.00165965,0.0702779,20.9784,192.982,0.297328,0.0,0.0
615,153.5,40.4894,44.3259,146.252,98.7146,94.8325,0.0015813,0.069806,20.9789,192.972,0.355586,0.0,0.0
620,154.75,40.5112,43.938,144.814,98.7154,94.5431,0.00152249,0.0695065,20.9794,192.962,0.382744,0.0,0.0
625,156,39.8755,43.8329,144.027,98.7198,94.3168,0.0014956,0.069399,20.9796,192.962,0.404378,0.0,0.0
630,157.25,39.847,43.3184,147.723,98.7218,94.7933,0.00151161,0.0692273,20.9806,192.952,0.359892,0.0,0.0
635,158.5,39.5537,43.3051,142.57,98.7186,95.3638,0.00154492,0.0688021,20.9813,192.952,0.306424,0.0,0.0
640,159.75,39.0771,42.7633,145.67,98.7313,95.3527,0.00156974,0.0685073,20.9817,192.942,0.308604,0.0,0.0
645,161,38.8896,42.7678,145.912,98.7529,94.715,0.00160605,0.0682341,20.9819,192.922,0.370009,0.0,0.0
650,162.25,38.9472,42.6633,146.915,98.7409,94.7191,0.00167346,0.0680026,20.9823,192.922,0.368549,0.0,0.0
655,163.5,39.5999,42.3805,146.675,98.7433,95.1441,0.00175561,0.067642,20.9833,192.932,0.329086,0.0,0.0
660,164.75,38.8093,42.5051,150.318,98.7437,94.222,0.00178967,0.067325,20.9838,192.912,0.41544,0.0,0.0
665,166,38.7117,42.2282,145.515,98.7465,94.527,0.00180567,0.0670127,20.9841,192.922,0.387043,0.0,0.0
670,167.25,38.754,42.32,144.019,98.7417,95.1004,0.0018396,0.0667639,20.9843,192.932,0.333014,0.0,0.0
675,168.5,38.5273,41.9684,145.697,98.7517,95.0584,0.00189593,0.0666118,20.9847,192.922,0.337828,0.0,0.0
680,169.75,38.1327,41.248,147.432,98.7632,95.3766,0.00195532,0.0664722,20.9856,192.902,0.309245,0.0,0.0
685,171,38.3409,41.576,141.734,98.7636,94.9145,0.00199461,0.066166,20.9861,192.892,0.352326,0.0,0.0
690,172.25,37.8965,41.701,147.58,98.7744,94.7913,0.00198616,0.0658928,20.9877,192.882,0.364808,0.0,0.0
695,173.5,37.6444,40.8917,149.01,98.7525,95.3519,0.00196557,0.0657157,20.9888,192.872,0.310577,0.0,0.0
700,174.75,38.2735,41.1266,146.858,98.7732,95.2105,0.00192178,0.0656644,20.9894,192.882,0.32559,0.0,0.0
705,176,37.7925,40.4413,144.638,98.7676,94.5295,0.00187524,0.0655904,20.9898,192.862,0.388708,0.0,0.0
710,177.25,38.4195,40.1609,149.778,98.7616,94.8935,0.00185535,0.06548,20.9901,192.862,0.354109,0.0,0.0
715,178.5,38.0936,40.4757,148.137,98.7556,95.4669,0.00188191,0.0654421,20.9902,192.862,0.30018,0.0,0.0
720,179.75,37.8028,40.4085,143.765,98.7672,94.9244,0.00195107,0.0654124,20.9903,192.862,0.351723,0.0,0.0
725,181,37.4428,40.082,142.517,98.7628,94.8115,0.00200255,0.0653166,20.9903,192.852,0.361882,0.0,0.0
730,182.25,37.4692,40.0101,146.256,98.766,95.2604,0.00203115,0.0651808,20.9904,192.842,0.320303,0.0,0.0
735,183.5,37.4107,39.8416,143.914,98.7652,95.0951,0.00199388,0.0650619,20.9904,192.832,0.335625,0.0,0.0
740,184.75,37.4176,40.1481,143.362,98.776,95.4092,0.0018735,0.0648741,20.9904,192.842,0.307363,0.0,0.0
745,186,36.8494,40.1307,149.227,98.76,95.1635,0.00173798,0.0646457,20.9904,192.832,0.328785,0.0,0.0
750,187.25,37.7295,40.4205,147.044,98.7513,94.9487,0.0016366,0.0644815,20.9908,192.812,0.348021,0.0,0.0
755,188.5,36.938,39.5116,147.107,98.7636,95.2196,0.00159342,0.0643336,20.9916,192.812,0.323886,0.0,0.0
760,189.75,36.819,39.6804,147.466,98.758,94.9739,0.00159543,0.064166,20.992,192.812,0.346283,0.0,0.0
765,191,36.6482,39.9913,149.311,98.7497,94.7133,0.00158585,0.064002,20.9923,192.832,0.369877,0.0,0.0
770,192.25,36.8901,39.3538,145.011,98.7533,94.701,0.00154872,0.0637971,20.9925,192.812,0.371356,0.0,0.0
775,193.5,36.7885,39.2255,146.465,98.7461,94.5023,0.00148624,0.0636079,20.9926,192.812,0.389326,0.0,0.0
780,194.75,36.6471,39.2467,147.27,98.7549,95.3346,0.00139772,0.0633882,20.9926,192.822,0.312401,0.0,0.0
785,196,36.9366,38.7966,146.4,98.7345,96.023,0.00129838,0.0631903,20.9927,192.792,0.246806,0.0,0.0
790,197.25,36.6134,39.0316,147.229,98.7401,94.9895,0.0012403,0.0631418,20.9927,192.782,0.343211,0.0,0.0
795,198.5,36.178,38.5647,144.432,98.7501,95.4838,0.00123276,0.0630542,20.9927,192.782,0.298109,0.0,0.0
800,199.75,36.1627,38.8571,147.245,98.7317,95.1235,0.00127896,0.0630084,20.9927,192.772,0.329967,0.0,0.0
805,201,36.5919,38.6687,148.495,98.7437,94.964,0.00135945,0.062986,20.9927,192.772,0.345918,0.0,0.0
810,202.25,36.5516,38.4228,145.307,98.7249,95.0691,0.00142004,0.0629974,20.9927,192.772,0.334431,0.0,0.0
815,203.5,36.3474,38.2813,144.635,98.7325,94.0942,0.0014323,0.0629103,20.9927,192.772,0.426466,0.0,0.0
820,204.75,36.0492,38.3057,144.819,98.7194,95.1322,0.00138134,0.0627167,20.9927,192.752,0.328052,0.0,0.0
825,206,36.348,38.2819,150.362,98.7118,94.5134,0.00126584,0.0625789,20.9933,192.742,0.385204,0.0,0.0
830,207.25,36.2305,38.3767,143.398,98.7194,95.2839,0.0011897,0.0624613,20.994,192.732,0.313931,0.0,0.0
835,208.5,36.3402,37.6716,147.096,98.7142,95.0868,0.00118469,0.062394,20.994,192.732,0.331812,0.0,0.0
840,209.75,36.0673,37.8883,149.558,98.6982,95.0303,0.00123355,0.0623218,20.9935,192.722,0.335645,0.0,0.0
845,211,36.2036,37.8767,146.067,98.693,94.7657,0.00131315,0.0623866,20.9931,192.732,0.359896,0.0,0.0
850,212.25,35.7844,37.9447,146.44,98.701,94.8094,0.00139622,0.0624526,20.993,192.722,0.356527,0.0,0.0
855,213.5,36.0303,37.5515,145.215,98.6978,95.1095,0.00143338,0.0623651,20.9927,192.692,0.328231,0.0,0.0
860,214.75,35.9365,37.7757,148.997,98.6942,94.9792,0.00142485,0.0621945,20.9924,192.702,0.340055,0.0,0.0
865,216,36.209,37.3346,148.052,98.6867,94.4376,0.00139166,0.0620829,20.9921,192.702,0.390064,0.0,0.0
870,217.25,35.6067,38.1608,143.293,98.6851,94.7958,0.00136871,0.0620269,20.9923,192.702,0.356367,0.0,0.0
875,218.5,35.8472,37.6808,146.023,98.6707,95.4454,0.00136243,0.0619938,20.9932,192.692,0.294544,0.0,0.0
880,219.75,35.8783,37.3358,148.893,98.6536,94.5777,0.00138268,0.062033,20.9945,192.692,0.373949,0.0,0.0
885,221,35.3757,37.5518,148.808,98.658,94.6478,0.0014147,0.0621106,20.9952,192.672,0.367777,0.0,0.0
890,222.25,35.7232,37.2914,144.42,98.6611,94.548,0.00145516,0.0621785,20.9957,192.672,0.37741,0.0,0.0
895,223.5,35.1053,36.7616,147.388,98.65,95.5143,0.0014906,0.0620937,20.9959,192.682,0.286293,0.0,0.0
900,224.75,35.5392,37.4284,147.965,98.6284,94.7781,0.00148903,0.0620039,20.9963,192.682,0.352937,0.0,0.0
905,226,35.9692,36.8938,148.055,98.642,95.1878,0.00142817,0.0620016,20.9967,192.662,0.315921,0.0,0.0
910,227.25,34.9778,36.8241,151.213,98.6404,94.6561,0.00131793,0.0619805,20.9969,192.662,0.365429,0.0,0.0
915,228.5,35.405,37.1647,144.49,98.6177,94.3959,0.00120563,0.0618941,20.997,192.682,0.387775,0.0,0.0
920,229.75,35.2987,36.8375,145.287,98.6165,94.5876,0.00113582,0.061903,20.9966,192.672,0.36969,0.0,0.0
925,231,34.5464,36.4153,149.863,98.6292,94.9083,0.00108645,0.0618127,20.9959,192.672,0.340836,0.0,0.0
930,232.25,35.5702,36.8146,145.725,98.6025,94.8403,0.0010276,0.0617065,20.9959,192.652,0.344788,0.0,0.0
935,233.5,35.396,36.2925,145.078,98.5974,94.6725,0.000973576,0.0616596,20.996,192.652,0.360016,0.0,0.0
940,234.75,35.4526,37.1168,145.859,98.597,94.9273,0.000939029,0.061593,20.9955,192.632,0.336163,0.0,0.0
945,236,35.9317,36.6591,148.248,98.5914,94.4203,0.000952909,0.0614756,20.9953,192.632,0.383127,0.0,0.0
950,237.25,35.1372,36.8568,144.152,98.5742,94.9529,0.00101276,0.061475,20.9951,192.642,0.331733,0.0,0.0
955,238.5,35.4002,36.8956,146.957,98.5722,94.5509,0.00107991,0.0614935,20.995,192.632,0.369148,0.0,0.0
960,239.75,34.5751,36.4448,150.985,98.5746,95.0048,0.00116642,0.061387,20.9949,192.632,0.326922,0.0,0.0
965,241,35.4368,36.2437,147.484,98.571,94.781,0.00123099,0.0613922,20.9949,192.612,0.347506,0.0,0.0
970,242.25,35.2875,36.1452,147.43,98.5587,94.6165,0.00124987,0.0614467,20.9955,192.622,0.361789,0.0,0.0
975,243.5,35.0064,36.2721,149.739,98.5563,94.4747,0.00123723,0.0614475,20.9958,192.612,0.374865,0.0,0.0
980,244.75,35.493,37.0822,143.822,98.5507,94.2628,0.00120973,0.0615045,20.9959,192.622,0.394263,0.0,0.0
985,246,35.1028,36.1624,145.702,98.5523,94.7892,0.00118819,0.061589,20.9957,192.592,0.34505,0.0,0.0
990,247.25,34.5043,36.5638,145.422,98.5296,94.7096,0.00110645,0.0616672,20.9956,192.602,0.350448,0.0,0.0
995,248.5,34.3673,36.4225,147.604,98.5188,94.8077,0.00104998,0.0616819,20.9955,192.572,0.340304,0.0,0.0
1000,249.75,35.0038,36.6043,145.841,98.5304,94.9454,0.00103291,0.0616577,20.9955,192.572,0.328482,0.0,0.0
1005,251,35.0699,36.176,147.6,98.518,94.783,0.00105091,0.0617422,20.9955,192.572,0.342543,0.0,0.0
1010,252.25,34.7943,36.0649,146.193,98.5017,94.5027,0.00108658,0.0618939,20.995,192.572,0.367323,0.0,0.0
1015,253.5,34.5167,36.4616,147.541,98.4965,95.3486,0.00109721,0.0620327,20.9943,192.552,0.28788,0.0,0.0
1020,254.75,35.0958,36.4902,150.453,98.4857,94.7455,0.00106639,0.0621733,20.9938,192.542,0.343146,0.0,0.0
1025,256,35.248,35.9116,146.622,98.4737,94.621,0.00103516,0.0622277,20.9935,192.552,0.353723,0.0,0.0
1030,257.25,34.5729,35.8197,147.84,98.4606,94.243,0.000994778,0.0621639,20.9934,192.542,0.388016,0.0,0.0
1035,258.5,34.9927,36.175,146.517,98.4494,94.9153,0.000951788,0.0621113,20.9933,192.542,0.324007,0.0,0.0
1040,259.75,34.3419,36.1404,147.445,98.4442,94.2702,0.000926177,0.0621606,20.9932,192.542,0.383986,0.0,0.0
1045,261,34.7709,36.4391,149.251,98.4355,94.3617,0.000925495,0.0622778,20.9932,192.542,0.374596,0.0,0.0
1050,262.25,35.0449,36.0644,144.924,98.4004,94.2006,0.00095327,0.0624261,20.9932,192.532,0.386588,0.0,0.0
1055,263.5,34.6395,35.9772,145.629,98.4115,94.412,0.00097937,0.0624065,20.9932,192.542,0.36772,0.0,0.0
1060,264.75,34.4734,36.6811,145.67,98.3964,94.3073,0.000970501,0.0622885,20.9935,192.512,0.37619,0.0,0.0
1065,266,34.288,36.1151,146.335,98.3765,94.1041,0.000900026,0.0622762,20.9937,192.522,0.393514,0.0,0.0
1070,267.25,33.774,35.7622,144.744,98.3613,94.2579,0.00083064,0.0623266,20.9942,192.512,0.377679,0.0,0.0
1075,268.5,34.5323,36.4096,146.554,98.3533,94.2513,0.000802864,0.0623777,20.9944,192.512,0.37758,0.0,0.0
1080,269.75,34.738,36.0028,146.726,98.3374,94.8135,0.000831947,0.0623587,20.9946,192.502,0.323428,0.0,0.0
1085,271,33.7454,35.8219,149.651,98.2979,94.9788,0.000906217,0.0623415,20.9947,192.502,0.30443,0.0,0.0
1090,272.25,34.072,35.5899,146.589,98.2883,95.1161,0.000990356,0.0622715,20.9956,192.502,0.290768,0.0,0.0
1095,273.5,34.4598,36.0774,145.59,98.2696,95.0221,0.00106394,0.0622258,20.9962,192.482,0.297839,0.0,0.0
1100,274.75,34.0656,35.9467,145.098,98.2445,94.2034,0.00112624,0.0622886,20.9966,192.492,0.372264,0.0,0.0
1105,276,34.0234,36.166,142.964,98.2206,94.4619,0.00116146,0.0622778,20.9968,192.492,0.345822,0.0,0.0
1110,277.25,35.0042,35.5963,148.091,98.2086,94.325,0.00117884,0.0622122,20.9959,192.482,0.357592,0.0,0.0
1115,278.5,34.382,35.7547,151.721,98.1902,94.6556,0.00118476,0.0622013,20.9951,192.462,0.324927,0.0,0.0
1120,279.75,34.1831,36.0388,150.636,98.1532,94.1115,0.00118388,0.0622336,20.9947,192.462,0.372676,0.0,0.0
1125,281,34.6334,35.9147,146.02,98.1328,94.2302,0.0011746,0.0622873,20.9944,192.462,0.359666,0.0,0.0
1130,282.25,34.2265,35.5994,144.021,98.1209,94.2661,0.00119375,0.0623237,20.9942,192.462,0.355213,0.0,0.0
1135,283.5,34.2379,35.9096,147.886,98.1081,93.4924,0.0012407,0.0623452,20.9941,192.462,0.427107,0.0,0.0
1140,284.75,34.1161,36.0436,148.55,98.0603,94.2364,0.00127193,0.0624565,20.9941,192.452,0.352528,0.0,0.0
1145,286,34.8719,35.8257,147.027,98.0475,94.351,0.00128756,0.0624895,20.9941,192.432,0.340603,0.0,0.0
1150,287.25,34.2333,36.3608,143.23,98.0431,94.4071,0.00131749,0.0625584,20.9938,192.442,0.334942,0.0,0.0
1155,288.5,34.4575,35.57,145.599,98.0064,94.4875,0.00132542,0.0626305,20.9938,192.432,0.324082,0.0,0.0
1160,289.75,34.2849,35.6861,147.842,97.9805,95.0695,0.00130309,0.0626438,20.9934,192.422,0.267309,0.0,0.0
1165,291,34.3257,35.5639,144.551,97.951,93.7224,0.00122898,0.062632,20.9928,192.422,0.391125,0.0,0.0
1170,292.25,34.1564,35.5637,149.633,97.947,94.6243,0.00116246,0.0625923,20.9924,192.392,0.30588,0.0,0.0
1175,293.5,34.7193,35.5851,146.241,97.9183,94.0926,0.00118794,0.0625054,20.9922,192.382,0.353229,0.0,0.0
1180,294.75,34.6562,35.6073,147.421,97.8573,93.7302,0.00126613,0.0624133,20.9925,192.392,0.381902,0.0,0.0
1185,296,34.609,35.4898,146.885,97.8473,94.4322,0.00133222,0.0623117,20.9932,192.392,0.314866,0.0,0.0
1190,297.25,34.1385,35.7102,147.066,97.8222,93.3687,0.00132392,0.0622024,20.9936,192.372,0.412974,0.0,0.0
1195,298.5,34.5649,35.3725,146.746,97.7911,93.5839,0.0012642,0.0622024,20.9939,192.362,0.389754,0.0,0.0
1200,299.75,33.5838,35.3394,145.127,97.7588,93.6593,0.00118159,0.0623339,20.994,192.362,0.379684,0.0,0.0
1205,301,34.2968,35.68,147.328,97.7273,93.2871,0.00113358,0.0623376,20.9941,192.352,0.412122,0.0,0.0
1210,302.25,34.2678,34.6148,145.57,97.6966,93.9734,0.0011156,0.0622885,20.9941,192.352,0.34437,0.0,0.0
1215,303.5,34.1314,35.5731,149.253,97.6567,93.5575,0.00110651,0.0623669,20.9942,192.372,0.380066,0.0,0.0
1220,304.75,34.0469,35.3334,143.727,97.6173,93.8869,0.00109396,0.0624526,20.9936,192.362,0.345335,0.0,0.0
1225,306,34.0508,35.34,142.961,97.6013,93.9784,0.00109354,0.0625676,20.9929,192.362,0.335254,0.0,0.0
1230,307.25,34.1529,35.7832,148.691,97.5607,94.2051,0.00111938,0.0626864,20.9925,192.372,0.310204,0.0,0.0
1235,308.5,34.415,35.3736,148.278,97.5156,94.3634,0.00116752,0.0627172,20.9922,192.352,0.29123,0.0,0.0
1240,309.75,34.1501,35.2929,145.838,97.4781,94.114,0.00120343,0.0625792,20.9921,192.332,0.311278,0.0,0.0
1245,311,34.2386,35.2198,149.291,97.4574,94.3197,0.0012155,0.0624977,20.9921,192.322,0.290042,0.0,0.0
1250,312.25,34.0727,35.0271,144.958,97.4235,93.8127,0.00119642,0.0625313,20.992,192.322,0.334732,0.0,0.0
1255,313.5,33.9784,35.555,140.412,97.3673,93.884,0.00113578,0.0626273,20.992,192.312,0.322881,0.0,0.0
1260,314.75,34.2503,35.1941,147.656,97.3517,94.0039,0.00107912,0.0626439,20.992,192.312,0.310149,0.0,0.0
1265,316,34.2591,35.4301,148.395,97.3278,94.0497,0.00106901,0.06255,20.992,192.312,0.303657,0.0,0.0
1270,317.25,34.4296,35.3897,146.707,97.2748,93.2508,0.00108199,0.0623337,20.992,192.312,0.374432,0.0,0.0
1275,318.5,34.2987,35.4906,145.485,97.2349,93.6498,0.0010984,0.0621981,20.9919,192.282,0.332955,0.0,0.0
1280,319.75,34.179,35.6208,144.525,97.2217,94.1742,0.00111164,0.0621918,20.9916,192.292,0.282269,0.0,0.0
1285,321,34.3133,35.4246,149.963,97.1851,93.5793,0.00113501,0.0621959,20.9914,192.282,0.335083,0.0,0.0
1290,322.25,34.0409,35.3782,149.899,97.1448,93.5183,0.00118796,0.0621816,20.9913,192.282,0.33719,0.0,0.0
1295,323.5,34.4726,35.7136,144.68,97.1169,93.4021,0.00123199,0.0621746,20.9913,192.282,0.345666,0.0,0.0
1300,324.75,34.5027,35.6049,151.648,97.091,93.3048,0.0012112,0.0621146,20.9912,192.282,0.352537,0.0,0.0
1305,326,34.2582,35.3292,144.59,97.0599,93.5637,0.00113482,0.0620026,20.9912,192.262,0.325142,0.0,0.0
1310,327.25,34.297,35.5863,147.202,97.0244,93.1642,0.00105071,0.0619208,20.992,192.252,0.359819,0.0,0.0
1315,328.5,33.7812,35.4596,147.208,97.0036,93.3221,0.00100302,0.0617985,20.9926,192.252,0.342918,0.0,0.0
1320,329.75,34.6818,35.5865,147.66,96.9961,93.2755,0.000983445,0.0617416,20.9929,192.252,0.346651,0.0,0.0
1325,331,34.3081,35.2982,146.231,96.9534,93.224,0.000994838,0.0617079,20.9934,192.221,0.34765,0.0,0.0
1330,332.25,33.9893,35.2115,143.882,96.9219,93.7356,0.00102719,0.061543,20.9938,192.221,0.296267,0.0,0.0
1335,333.5,34.0305,35.3828,145.335,96.9135,93.649,0.0011342,0.0614949,20.994,192.231,0.30369,0.0,0.0
1340,334.75,34.4968,35.4869,143.329,96.8892,93.8675,0.00121425,0.0614759,20.9941,192.211,0.280814,0.0,0.0
1345,336,34.0769,35.0296,146.633,96.8577,93.799,0.00124253,0.0614154,20.9942,192.211,0.284395,0.0,0.0
1350,337.25,33.8843,35.5375,148.116,96.8441,93.4577,0.00118327,0.0612973,20.9942,192.221,0.315463,0.0,0.0
1355,338.5,34.3474,35.4318,149.567,96.8318,93.0612,0.00110475,0.0611968,20.9943,192.191,0.352019,0.0,0.0
1360,339.75,33.9592,35.2233,144.47,96.8146,93.1152,0.0010417,0.0611531,20.9943,192.201,0.345308,0.0,0.0
1365,341,33.9679,35.2558,145.888,96.8071,92.717,0.00100928,0.0610886,20.9943,192.191,0.382598,0.0,0.0
1370,342.25,34.0219,35.0018,147.935,96.7768,93.4635,0.00100703,0.0610306,20.9943,192.211,0.308747,0.0,0.0
1375,343.5,34.1341,35.2514,146.534,96.7692,92.996,0.00102322,0.0609963,20.9943,192.201,0.352492,0.0,0.0
1380,344.75,33.989,35.1154,149.308,96.7576,93.0014,0.00104655,0.0610348,20.9943,192.201,0.350922,0.0,0.0
1385,346,33.8633,35.1125,145.783,96.7401,93.4738,0.00106033,0.0609343,20.9943,192.191,0.304409,0.0,0.0
1390,347.25,34.2088,35.205,146.682,96.7329,92.3987,0.0010721,0.0607283,20.9943,192.191,0.406278,0.0,0.0
1395,348.5,34.23,34.6639,145.435,96.7301,93.3106,0.00108842,0.0606054,20.9943,192.181,0.318988,0.0,0.0
1400,349.75,33.6427,34.7735,145.555,96.7189,93.0839,0.00111402,0.06053,20.9943,192.161,0.339526,0.0,0.0
1405,351,34.2427,34.9622,147.03,96.7022,93.527,0.00115785,0.0603969,20.9943,192.181,0.295898,0.0,0.0
1410,352.25,34.2465,35.6239,145.065,96.7094,92.6411,0.00121446,0.0603383,20.9943,192.171,0.380903,0.0,0.0
1415,353.5,34.172,35.3403,146.789,96.7074,93.2512,0.00124425,0.0603818,20.9943,192.181,0.322545,0.0,0.0
1420,354.75,34.01,35.2846,150.965,96.6982,93.311,0.00124752,0.0603633,20.9943,192.161,0.316025,0.0,0.0
1425,356,34.2824,35.3921,145.838,96.6874,93.4322,0.00127138,0.0602747,20.9945,192.161,0.303535,0.0,0.0
1430,357.25,34.2095,35.5153,144.032,96.7138,93.1057,0.00130867,0.0601279,20.9952,192.151,0.33697,0.0,0.0
1435,358.5,33.9968,35.1458,141.824,96.7141,92.9012,0.00135347,0.059994,20.9956,192.161,0.356492,0.0,0.0
1440,359.75,34.1804,34.9748,140.624,96.6966,92.6856,0.00136384,0.0598856,20.9963,192.141,0.375475,0.0,0.0
1445,361,33.99,35.2779,148.046,96.695,93.3456,0.00134062,0.0598145,20.997,192.131,0.312445,0.0,0.0
1450,362.25,34.4081,35.2606,148.599,96.705,93.2797,0.00131023,0.0597145,20.9973,192.121,0.319622,0.0,0.0
1455,363.5,34.3416,35.3288,146.315,96.7014,92.6283,0.00127585,0.0595847,20.9975,192.101,0.381394,0.0,0.0
1460,364.75,33.6512,34.6595,144.909,96.711,93.3493,0.00120386,0.0595271,20.9969,192.121,0.313554,0.0,0.0
1465,366,34.4267,35.3362,147.64,96.7034,93.297,0.00113175,0.0593841,20.9963,192.101,0.317832,0.0,0.0
1470,367.25,34.3055,35.0685,147.137,96.7146,93.1923,0.00109574,0.0592736,20.996,192.091,0.328807,0.0,0.0
1475,368.5,33.7649,35.0291,148.496,96.7118,93.2116,0.00110583,0.0592628,20.9958,192.091,0.326708,0.0,0.0
1480,369.75,34.2947,35.4823,147.615,96.7074,93.5682,0.00115032,0.059262,20.9956,192.081,0.292468,0.0,0.0
1485,371,34.2693,35.3,147.386,96.7249,92.9445,0.00120713,0.0592029,20.9958,192.081,0.35335,0.0,0.0
1490,372.25,33.209,34.4016,144.107,96.7337,93.1275,0.00123333,0.05908,20.9966,192.051,0.336718,0.0,0.0
1495,373.5,34.1263,35.1273,145.761,96.7345,92.9,0.00123064,0.0589632,20.9974,192.061,0.358472,0.0,0.0
1500,374.75,34.0858,35.2346,147.594,96.7437,93.3695,0.00124116,0.0587931,20.9987,192.081,0.314632,0.0,0.0
1505,376,34.2014,34.9359,147.059,96.7592,93.1848,0.00129075,0.0586038,20.9996,192.071,0.333604,0.0,0.0
1510,377.25,34.4117,34.8321,143.115,96.7636,93.5608,0.00136272,0.0584689,21.0001,192.071,0.298322,0.0,0.0
1515,378.5,34.1763,35.2176,143.784,96.7632,92.663,0.00141693,0.0583695,21.0004,192.081,0.383744,0.0,0.0
1520,379.75,34.387,35.0107,149.518,96.7827,93.3394,0.00143645,0.0583107,21.0006,192.071,0.321069,0.0,0.0
1525,381,33.8752,34.8344,147.798,96.7935,93.2648,0.00141256,0.058153,21.0007,192.061,0.329142,0.0,0.0
1530,382.25,34.2907,35.0835,144.068,96.8055,93.5534,0.00134634,0.0579588,21.0008,192.061,0.302858,0.0,0.0
1535,383.5,34.31,35.1864,147.716,96.8063,92.9622,0.00127707,0.0577061,21.0008,192.051,0.35911,0.0,0.0
1540,384.75,34.0842,34.9848,146.441,96.8134,92.7685,0.00119581,0.0572862,21.0008,192.041,0.378257,0.0,0.0
1545,386,33.7812,34.8183,149.778,96.8342,93.5806,0.00113976,0.0566635,21.0016,192.041,0.302909,0.0,0.0
1550,387.25,33.6406,34.483,145.222,96.8449,92.7891,0.00110316,0.0562184,21.0027,192.041,0.379171,0.0,0.0
1555,388.5,33.5632,34.1124,144.864,96.8453,93.2145,0.00106641,0.0558203,21.0038,192.031,0.338668,0.0,0.0
1560,389.75,33.336,34.2413,147.092,96.8581,93.1061,0.00104318,0.0555461,21.0045,192.031,0.350149,0.0,0.0
1565,391,33.4192,34.2796,146.369,96.8752,93.3563,0.00104315,0.0553705,21.0049,192.031,0.32793,0.0,0.0
1570,392.25,33.394,34.1826,144.822,96.8864,93.8947,0.00107145,0.0552318,21.0051,192.031,0.277989,0.0,0.0
1575,393.5,33.2337,34.6299,146.251,96.8748,93.4037,0.00111845,0.0550626,21.0053,192.021,0.323395,0.0,0.0
1580,394.75,33.2937,34.1019,147.861,96.9012,92.5261,0.00116883,0.0549811,21.0054,192.011,0.409471,0.0,0.0
1585,396,33.3677,34.2073,148.5625,96.9267,93.8423,0.00120299,0.054924,21.0054,192.001,0.286616,0.0,0.0
1590,397.25,33.1542,34.3291,148.733,96.941,93.0839,0.00120489,0.0548511,21.0054,191.991,0.359853,0.0,0.0
1595,398.5,32.8889,34.6071,146.633,96.9243,92.6613,0.00117314,0.0547175,21.0055,191.991,0.398644,0.0,0.0
1600,399.75,33.4693,34.0664,147.032,96.9554,93.3238,0.00113375,0.0546679,21.0055,191.971,0.338352,0.0,0.0
1605,401,33.0107,34.22,145.797,96.9697,93.0872,0.00111443,0.0546464,21.0055,191.961,0.362164,0.0,0.0
1610,402.25,33.0823,34.2467,141.831,96.9749,92.8295,0.00114998,0.0546166,21.0055,191.961,0.387202,0.0,0.0
1615,403.5,33.2709,34.5714,151.596,96.9996,93.1399,0.00119071,0.0546498,21.0055,191.981,0.359875,0.0,0.0
1620,404.75,33.0723,33.9341,146.621,97.016,93.0414,0.00120547,0.0546793,21.0052,191.981,0.370748,0.0,0.0
1625,406,33.3212,34.4571,146.832,97.0339,93.4145,0.00114407,0.0547409,21.0048,191.991,0.336921,0.0,0.0
1630,407.25,33.2395,34.2138,147.894,97.0323,93.2537,0.00102426,0.0547331,21.0051,191.961,0.352042,0.0,0.0
1635,408.5,32.6562,33.5555,146.637,97.0459,93.4487,0.000925049,0.0546699,21.0053,191.961,0.334769,0.0,0.0
1640,409.75,33.4382,34.5589,151.567,97.0818,93.7986,0.00087055,0.0545898,21.0054,191.951,0.304914,0.0,0.0
1645,411,33.0511,33.9837,144.899,97.0814,93.7772,0.000877124,0.0545404,21.0054,191.941,0.306904,0.0,0.0
1650,412.25,32.879,34.0032,145.183,97.0965,93.4516,0.000908905,0.0544881,21.0054,191.931,0.339118,0.0,0.0
1655,413.5,33.7776,34.1667,144.237,97.1304,93.1127,0.000916587,0.0544866,21.0055,191.921,0.374406,0.0,0.0
1660,414.75,33.2606,34.0493,144.848,97.1452,93.1486,0.000874311,0.0545689,21.0055,191.921,0.372339,0.0,0.0
1665,416,33.0335,34.2652,147.516,97.1603,92.8679,0.000809893,0.0545347,21.0055,191.921,0.400471,0.0,0.0
1670,417.25,33.2256,33.9725,147.408,97.189,93.6622,0.00075892,0.054465,21.0055,191.911,0.327603,0.0,0.0
1675,418.5,32.4848,33.9087,148.71,97.2022,93.4062,0.000744561,0.0544531,21.0055,191.921,0.35306,0.0,0.0
1680,419.75,32.9697,34.5008,146.056,97.2114,93.6234,0.000806405,0.054424,21.0055,191.911,0.333307,0.0,0.0
1685,421,33.4224,34.5521,144.366,97.2209,93.4689,0.000896077,0.0544289,21.0055,191.921,0.348825,0.0,0.0
1690,422.25,33.0373,34.0148,147.82,97.2357,93.7727,0.000943543,0.0544175,21.0055,191.911,0.321409,0.0,0.0
1695,423.5,33.0375,33.6888,145.134,97.2628,93.0418,0.000939927,0.0544072,21.0055,191.921,0.393227,0.0,0.0
1700,424.75,32.7966,34.2427,145.355,97.2768,93.7331,0.000904609,0.0544676,21.0055,191.901,0.328892,0.0,0.0
1705,426,32.6107,34.2634,148.773,97.2803,93.426,0.000854222,0.0544551,21.0056,191.911,0.358305,0.0,0.0
1710,427.25,32.7572,34.0896,146.193,97.3035,93.1733,0.000846342,0.0543976,21.0058,191.911,0.384416,0.0,0.0
1715,428.5,33.3394,34.1999,147.142,97.321,93.9425,0.000887553,0.0543603,21.0059,191.901,0.313145,0.0,0.0
1720,429.75,33.0898,34.1779,143.719,97.3194,94.1189,0.000882877,0.0543604,21.006,191.881,0.296371,0.0,0.0
1725,431,33.0624,34.2316,147.449,97.3394,93.7545,0.000788034,0.0543469,21.0061,191.891,0.332568,0.0,0.0
1730,432.25,32.9039,33.9954,143.368,97.3657,93.3299,0.000658421,0.0543368,21.0061,191.881,0.375192,0.0,0.0
1735,433.5,32.4888,34.0178,148.214,97.3816,93.8506,0.000587318,0.0543466,21.0061,191.891,0.32734,0.0,0.0
1740,434.75,33.1844,34.1095,148.563,97.3748,94.5081,0.000612631,0.0543523,21.0061,191.891,0.264849,0.0,0.0
1745,436,32.5431,33.8398,146.475,97.4016,94.262,0.000734942,0.0544142,21.0061,191.911,0.290389,0.0,0.0
1750,437.25,33.0318,34.0798,146.819,97.4063,94.217,0.000897792,0.0544754,21.0061,191.881,0.29505,0.0,0.0
1755,438.5,32.6978,33.7219,145.151,97.4115,93.4631,0.00103258,0.0545162,21.0061,191.891,0.366729,0.0,0.0
1760,439.75,32.0873,33.1758,143.985,97.4187,93.7694,0.00112732,0.0545546,21.0055,191.861,0.338387,0.0,0.0
1765,441,33.4057,34.1976,147.663,97.4251,93.4338,0.00116917,0.054635,21.0048,191.861,0.370739,0.0,0.0
1770,442.25,32.6125,33.6727,146.025,97.441,93.5892,0.0011609,0.0547118,21.0044,191.841,0.35746,0.0,0.0
1775,443.5,31.3636,33.0202,145.03,97.4542,93.8662,0.00110908,0.0547729,21.0042,191.841,0.332463,0.0,0.0
1780,444.75,32.8445,34.3266,150.526,97.461,93.8386,0.00104493,0.0547702,21.004,191.841,0.335688,0.0,0.0
1785,446,32.787,33.6434,147.013,97.5008,94.1123,0.00102272,0.0547733,21.004,191.841,0.313499,0.0,0.0
1790,447.25,32.3715,33.5931,146.56,97.5144,93.952,0.00107888,0.0547799,21.0043,191.851,0.329845,0.0,0.0
1795,448.5,32.278,33.8699,143.7,97.514,93.9017,0.00115735,0.0548343,21.0044,191.851,0.334553,0.0,0.0
1800,449.75,33.0103,33.7095,144.604,97.5351,93.9277,0.00125954,0.0549252,21.0045,191.831,0.334023,0.0,0.0
1805,451,32.9755,33.3753,151.713,97.5579,94.3057,0.00131931,0.0550128,21.0045,191.831,0.300492,0.0,0.0
1810,452.25,33.3459,33.9746,150.131,97.575,94.0282,0.00130763,0.0550111,21.0045,191.831,0.32816,0.0,0.0
1815,453.5,32.7952,34.0947,146.334,97.5818,93.9672,0.00125885,0.0550386,21.0045,191.811,0.334529,0.0,0.0
1820,454.75,32.8619,33.4548,147.781,97.5926,93.6572,0.00125196,0.0550845,21.0045,191.821,0.364793,0.0,0.0
1825,456,32.7828,34.1003,151.13,97.6141,93.5929,0.00128733,0.0551115,21.0044,191.811,0.372835,0.0,0.0
1830,457.25,32.8883,33.7208,146.167,97.6336,93.7347,0.00131646,0.0551275,21.0041,191.801,0.36119,0.0,0.0
1835,458.5,32.6032,33.7532,141.782,97.6324,93.8131,0.00128436,0.0551647,21.0039,191.791,0.35368,0.0,0.0
1840,459.75,33.1113,33.511,147.403,97.644,94.1173,0.00112935,0.0550181,21.0038,191.781,0.326035,0.0,0.0
1845,461,32.9286,33.6607,145.55,97.6655,93.5744,0.000965113,0.0549401,21.0037,191.771,0.379261,0.0,0.0
1850,462.25,32.7612,33.516,149.213,97.6695,93.576,0.000840372,0.0549171,21.0037,191.761,0.379466,0.0,0.0
1855,463.5,32.6823,33.9833,147.686,97.6739,94.0822,0.00083149,0.0548459,21.0037,191.771,0.33205,0.0,0.0
1860,464.75,32.3497,33.6542,146.351,97.6906,94.5048,0.000928321,0.0548029,21.0036,191.741,0.293855,0.0,0.0
1865,466,32.6528,33.7802,144.991,97.6978,94.3106,0.00102673,0.0548465,21.0039,191.751,0.312732,0.0,0.0
1870,467.25,32.9489,33.9012,146.469,97.713,94.302,0.00115022,0.0549103,21.0049,191.751,0.314921,0.0,0.0
1875,468.5,32.7937,33.9286,148.392,97.7205,93.9132,0.00123849,0.0550162,21.006,191.751,0.352217,0.0,0.0
1880,469.75,32.6241,33.8847,145.597,97.7477,93.8815,0.00126117,0.0550143,21.0067,191.751,0.357672,0.0,0.0
1885,471,32.6994,34.1875,143.894,97.7704,94.3823,0.00123905,0.0549546,21.0071,191.751,0.312575,0.0,0.0
1890,472.25,32.563,33.7956,148.108,97.7732,93.9458,0.00115503,0.0548787,21.0074,191.731,0.353916,0.0,0.0
1895,473.5,32.1953,33.6997,146.027,97.7955,94.217,0.00108163,0.0547867,21.0071,191.731,0.330389,0.0,0.0
1900,474.75,32.9956,33.4807,141.981,97.8083,93.353,0.00103937,0.0547539,21.0066,191.741,0.413196,0.0,0.0
1905,476,32.5149,34.1232,148.424,97.8278,93.9454,0.00100635,0.0548009,21.0063,191.721,0.358906,0.0,0.0
1910,477.25,33.155,34.2642,149.345,97.8274,93.8708,0.00100333,0.0548286,21.0059,191.721,0.365911,0.0,0.0
1915,478.5,32.2642,33.4079,148.788,97.8561,94.5781,0.00100288,0.0548066,21.0055,191.701,0.301975,0.0,0.0
1920,479.75,32.8388,33.4887,143.699,97.8753,94.41,0.000993741,0.0546996,21.0053,191.701,0.319484,0.0,0.0
1925,481,32.3454,33.8474,147.589,97.8852,94.229,0.000967308,0.0547202,21.0051,191.691,0.337391,0.0,0.0
1930,482.25,31.9171,33.1748,148.124,97.8932,94.7393,0.000922101,0.0547794,21.005,191.691,0.290242,0.0,0.0
1935,483.5,32.8073,33.7775,143.893,97.9175,95.1214,0.000895607,0.0547406,21.005,191.701,0.256768,0.0,0.0
1940,484.75,32.662,33.8062,150.063,97.9239,94.8448,0.000905899,0.0547282,21.005,191.681,0.283155,0.0,0.0
1945,486,31.912,33.4005,148.311,97.9263,94.5167,0.000932665,0.0546764,21.005,191.691,0.314087,0.0,0.0
1950,487.25,32.8403,34.1142,145.04,97.9295,94.6614,0.000959006,0.0546508,21.0049,191.691,0.300818,0.0,0.0
1955,488.5,33.4889,33.7419,143.907,97.9558,94.8473,0.000987791,0.0546391,21.0045,191.661,0.285811,0.0,0.0
1960,489.75,32.5329,33.5513,154.286,97.9646,93.9112,0.00104539,0.0545705,21.0043,191.681,0.374516,0.0,0.0
1965,491,32.5414,34.0356,144.205,97.9618,94.9005,0.00111797,0.0544988,21.0042,191.681,0.281384,0.0,0.0
1970,492.25,32.6146,33.7017,146.794,97.9701,94.6907,0.00117227,0.0544872,21.0042,191.671,0.301757,0.0,0.0
1975,493.5,32.7148,34.1012,145.865,97.9965,94.5048,0.00120713,0.0544782,21.0041,191.671,0.321557,0.0,0.0
1980,494.75,32.7288,34.0015,145.677,97.9981,94.419,,0.0545273,,191.661,0.329746,0.0,0.0
1985,496,33.1088,34.0234,148.843,97.9889,93.7912,,0.0546252,,191.651,0.388044,0.0,0.0
1990,497.25,33.1256,33.9595,142.692,98.0064,94.7847,,,,191.641,0.296248,0.0,0.0
1995,498.5,32.5118,33.352,144.632,98.0347,94.196,,,,191.651,0.354021,0.0,0.0
2000,499.75,32.6098,34.1818,141.168,98.0196,94.5934,,,,191.641,0.31534,0.0,0.0
2005,501,32.2398,33.7324,145.111,98.0335,94.5167,,,,191.631,0.323788,0.0,0.0
2010,502.25,32.8592,34.1362,148.342,98.0435,95.0163,,,,191.641,0.277965,0.0,0.0
2015,503.5,32.8918,33.8966,147.909,98.0523,94.4957,,,,191.631,0.327455,0.0,0.0
2020,504.75,32.5764,33.8447,154.065,98.0587,95.0761,,,,191.631,0.273761,0.0,0.0
2021,505,32.7071,33.6365,145.475,98.0483,94.9174,,,,191.621,0.28763,0.0,0.0