File: 01_Data/Carpet_Polyolefin_LowPile/Cone/Polyolefin_Carpet_LowPile_Cone_HF25Scan_220406_R3.csv
Names,Time,Stack TC,Smoke TC,Exh Press,Smoke Comp,Smoke Meas,CO Meter,CO2 Meter,O2 Meter,Sample Mass,Ext Coeff,Start Test,Flame Verif
Chan Gain,,500,500,1,1,1,1,1,1,1,1,1.0,1.0
Offset,,0,0,0.132524,0,0,0,0,0,0,0,0.0,0.0
Gain,,1,1,25.011,13.2301,13.3727,1,1,1,1.0009,1.0066,1.0,1.0
Units,sec,C,C,Pa,%,%,%,%,%,g,/m,,
Baseline,,19.0079,19.5015,161.895,98.2814,95.5032,0.000813716,0.0664175,21.006,-833.808,0.253251,,
3,0.5,19.207,19.8023,170.485,97.8791,94.331,0.000749023,0.074633,20.9962,196.165,0.326022,0.0,0.0
6,1.25,18.4944,19.313,163.85,97.8896,95.177,0.000717131,0.0752905,20.9953,196.195,0.248133,0.0,0.0
9,2,18.3942,18.7056,160.525,97.8755,94.8938,0.0006798,0.0757698,20.9947,195.815,0.273172,0.0,0.0
12,2.75,18.1163,19.4909,160.89,97.8755,95.0019,0.000627948,0.0761192,20.9942,196.015,0.263115,0.0,0.0
15,3.5,18.1158,19.7969,162.771,97.8775,94.9554,0.000576583,0.0762942,20.9939,195.895,0.267623,0.0,0.0
18,4.25,18.4612,19.0946,162.803,97.8779,95.017,0.000533356,0.0763659,20.9936,195.865,0.261931,0.0,0.0
21,5,18.6823,19.0787,159.011,97.875,94.7607,0.000494808,0.0763282,20.9939,196.025,0.285524,0.0,0.0
24,5.75,18.3013,19.0107,160.413,97.8694,95.2872,0.000466707,0.0761875,20.9943,195.955,0.236095,0.0,0.0
27,6.5,18.4028,19.3064,160.457,97.8763,95.0101,0.000483161,0.0759456,20.9946,195.925,0.26243,0.0,0.0
30,7.25,18.4348,18.9315,162.054,97.8767,95.3753,0.000524777,0.0756017,20.995,195.955,0.228586,0.0,0.0
33,8,18.2287,18.9913,161.328,97.8876,95.0032,0.000582694,0.0752795,20.9957,195.895,0.264095,0.0,0.0
36,8.75,18.308,18.9277,161.445,97.8609,95.0236,0.000650484,0.0746959,20.9963,195.915,0.259794,0.0,0.0
39,9.5,19.0214,19.0715,162.46,97.8839,94.7003,0.000724624,0.0739383,20.9967,195.945,0.291955,0.0,0.0
42,10.25,18.3692,18.7429,160.127,97.8775,94.6685,0.000789211,0.0730723,20.9969,195.925,0.294341,0.0,0.0
45,11,18.2764,19.4291,165.628,97.8759,94.8815,0.000857461,0.0722041,20.9976,195.925,0.274349,0.0,0.0
48,11.75,18.6863,19.1784,168.993,97.8694,94.8815,0.000907216,0.0713822,20.9982,195.935,0.273765,0.0,0.0
51,12.5,18.445,18.5909,162.736,97.8855,94.3114,0.000943487,0.0706327,20.9987,195.905,0.328439,0.0,0.0
54,13.25,18.3349,19.316,160.867,97.8864,94.9207,0.000954053,0.0700027,20.9995,195.915,0.27165,0.0,0.0
57,14,18.4526,19.1983,161.054,97.8783,95.2403,0.000950628,0.0694493,21.0003,195.925,0.241246,0.0,0.0
60,14.75,18.6121,19.5764,162.238,97.8831,95.0884,0.000943388,0.0689455,21.0008,195.925,0.25577,0.0,0.0
63,15.5,18.5279,19.1916,163.618,97.8924,95.1264,0.000920343,0.0685366,21.0013,195.925,0.253085,0.0,0.0
66,16.25,18.6518,19.3898,163.629,97.894,94.9881,0.000903544,0.0681987,21.0022,195.925,0.266081,0.0,0.0
69,17,18.3953,18.652,160.724,97.892,95.0472,0.000870149,0.0679148,21.0031,195.915,0.260399,0.0,0.0
72,17.75,18.335,18.7269,162.855,97.8795,95.1358,0.000837158,0.0675689,21.0039,195.905,0.251047,0.0,0.0
75,18.5,18.7279,19.645,163.539,97.8948,95.3855,0.000807472,0.0673167,21.0045,195.915,0.229281,0.0,0.0
78,19.25,18.3368,19.321,161.061,97.8908,94.9154,0.000782496,0.0671113,21.0044,195.905,0.272544,0.0,0.0
81,20,18.3847,18.6445,160.251,97.9001,95.0203,0.000764289,0.0669248,21.0042,195.885,0.26363,0.0,0.0
84,20.75,18.5723,18.7682,162.299,97.8847,95.4398,0.000751015,0.0668285,21.0041,195.905,0.223347,0.0,0.0
87,21.5,18.4901,19.0384,161.403,97.896,95.4774,0.000750147,0.0668773,21.004,195.915,0.220894,0.0,0.0
90,22.25,18.7479,18.9104,162.471,97.8981,94.764,0.000761866,0.0669129,21.0034,195.915,0.287297,0.0,0.0
93,23,18.4954,18.9874,158.442,97.8835,95.4704,0.00078153,0.0673956,21.0022,195.905,0.220407,0.0,0.0
96,23.75,17.7378,18.982,161.81,97.8884,94.6807,0.000805874,0.0679454,21.0014,195.895,0.294182,0.0,0.0
99,24.5,17.939,19.411,163.151,97.8884,94.8285,0.000837725,0.0686847,20.9998,195.895,0.280416,0.0,0.0
102,25.25,18.9079,19.8659,160.751,97.8892,94.6477,0.000864899,0.0696612,20.9983,195.905,0.297339,0.0,0.0
105,26,19.1038,19.3801,164.868,97.8888,94.1355,0.000891472,0.070638,20.9972,195.915,0.345212,0.0,0.0
108,26.75,18.7319,19.2042,157.023,97.8775,94.1718,0.000918003,0.0715954,20.9965,195.905,0.340788,0.0,0.0
111,27.5,18.0741,19.1844,164.506,97.8791,93.8135,0.000949586,0.0725194,20.995,195.905,0.374593,0.0,0.0
114,28.25,18.3861,19.5889,159.981,97.9041,94.3539,0.000988492,0.0736114,20.9935,195.895,0.326141,0.0,0.0
117,29,18.8472,19.3149,159.522,97.8884,94.1616,0.00101809,0.0744879,20.9922,195.905,0.342727,0.0,0.0
120,29.75,18.7654,19.1891,161.769,97.8807,94.2053,0.0010402,0.0752644,20.9913,195.885,0.337942,0.0,0.0
123,30.5,18.6858,19.1839,157.089,97.8771,93.9323,0.00104043,0.0757606,20.9906,195.875,0.363241,0.0,0.0
126,31.25,18.9104,18.9894,159.836,97.8633,94.1384,0.00103936,0.0760926,20.9903,195.885,0.34265,0.0,0.0
129,32,18.8891,19.3356,159.451,97.8799,94.2069,0.00104522,0.075956,20.9906,195.885,0.337716,0.0,0.0
132,32.75,18.7928,19.1178,161.951,97.875,93.9813,0.00106174,0.0754656,20.9907,195.885,0.358457,0.0,0.0
135,33.5,18.7942,19.3106,163.307,97.8767,94.0743,0.00109594,0.0748314,20.9908,195.895,0.349864,0.0,0.0
138,34.25,18.9563,19.0216,165.359,97.8577,94.1637,0.00115875,0.0741807,20.9909,195.885,0.339768,0.0,0.0
141,35,18.7813,19.6377,161.777,97.8783,93.8723,0.00126288,0.0735472,20.991,195.835,0.36899,0.0,0.0
144,35.75,18.836,19.4738,157.385,97.8726,93.9066,0.0013616,0.0733498,20.991,195.905,0.365257,0.0,0.0
147,36.5,18.8214,19.2663,161.225,97.8641,93.9784,0.00147257,0.0736578,20.9898,195.865,0.357741,0.0,0.0
150,37.25,18.7158,19.2564,159.719,97.865,94.1025,0.0015765,0.075981,20.9841,195.835,0.346165,0.0,0.0
153,38,18.4913,19.5346,157.258,97.873,94.0968,0.00165475,0.0802363,20.978,195.775,0.34743,0.0,1.0
156,38.75,18.7023,19.1443,162.107,97.8734,94.3775,0.00171285,0.0861888,20.9682,195.925,0.321158,0.0,1.0
159,39.5,18.78,19.3176,149.108,97.8625,93.6813,0.00175893,0.0952774,20.9588,195.775,0.385554,0.0,1.0
162,40.25,18.8807,19.4881,152.616,97.8746,93.3952,0.00179411,0.105986,20.9445,195.825,0.413652,0.0,1.0
165,41,18.8182,19.2419,154.95,97.8823,93.3716,0.00187198,0.117314,20.9306,195.765,0.416582,0.0,1.0
168,41.75,18.6597,19.7788,154.522,97.8868,92.5166,0.001951,0.128711,20.9144,195.745,0.498208,0.0,1.0
171,42.5,18.5084,18.4522,150.603,97.8702,91.4355,0.00210629,0.142389,20.8925,195.755,0.600498,0.0,1.0
174,43.25,18.8707,19.2654,150.798,97.8767,90.4553,0.00226551,0.154967,20.8766,195.735,0.696255,0.0,1.0
177,44,19.3337,20.1529,153.392,97.8835,89.508,0.00249751,0.168594,20.8523,195.695,0.789823,0.0,1.0
180,44.75,19.307,19.7834,150.834,97.8763,87.6585,0.00274879,0.182438,20.8244,195.675,0.973532,0.0,1.0
183,45.5,19.1655,19.3552,152.642,97.8682,85.9898,0.00307861,0.195839,20.7987,195.635,1.14251,0.0,1.0
186,46.25,19.6185,19.4031,149.848,97.8633,86.1934,0.00339651,0.204656,20.7777,195.595,1.12119,0.0,1.0
189,47,20.3049,20.508,146.831,97.8597,83.8305,0.00376071,0.219514,20.7542,195.575,1.3663,0.0,1.0
192,47.75,20.6039,20.2597,148.362,97.8702,83.2416,0.00417141,0.233813,20.734,195.545,1.4295,0.0,1.0
195,48.5,20.443,20.9872,149.856,97.8617,81.3039,0.00458871,0.245716,20.7141,195.505,1.6367,0.0,0.0
198,49.25,20.7011,21.2739,149.124,97.8613,80.3351,0.0049887,0.25958,20.6913,195.495,1.74251,0.0,0.0
201,50,21.1186,21.3534,143.404,97.869,78.7696,0.00543066,0.272031,20.6707,195.455,1.91697,0.0,0.0
204,50.75,21.1738,21.9354,142.464,97.8641,76.5675,0.00580514,0.285117,20.6489,195.405,2.1669,0.0,0.0
207,51.5,22.2279,22.9664,144.855,97.869,76.2361,0.00616753,0.298154,20.6241,195.375,2.20563,0.0,0.0
210,52.25,22.4897,23.1176,146.609,97.8609,75.9615,0.00652638,0.310406,20.6021,195.335,2.23677,0.0,0.0
213,53,22.961,23.253,144.169,97.8658,75.1453,0.00685701,0.321487,20.5815,195.265,2.3326,0.0,0.0
216,53.75,23.6817,23.6877,141.212,97.8605,75.6668,0.00712748,0.333639,20.5617,195.255,2.27105,0.0,0.0
219,54.5,23.52,23.9734,140.789,97.8621,75.3187,0.00743741,0.345065,20.5449,195.195,2.31192,0.0,0.0
222,55.25,23.8977,24.759,142.26,97.852,73.5235,0.0077486,0.355702,20.5287,195.155,2.52402,0.0,0.0
225,56,24.5953,25.7064,141.03,97.8589,75.4293,0.00803904,0.36553,20.5129,195.104,2.29867,0.0,0.0
228,56.75,25.3341,25.9408,140.419,97.8532,72.5832,0.00829819,0.375443,20.4977,195.034,2.63777,0.0,0.0
231,57.5,25.9718,26.5374,136.792,97.8561,73.9405,0.00856818,0.383841,20.4835,195.014,2.47443,0.0,0.0
234,58.25,26.2804,26.6152,136.6,97.8436,72.7721,0.00887364,0.392138,20.4685,194.984,2.61394,0.0,0.0
237,59,26.229,27.1999,138.484,97.8484,71.9776,0.00916479,0.400293,20.4536,194.914,2.71132,0.0,0.0
240,59.75,26.7397,27.8352,143.452,97.85,71.1801,0.00943416,0.408256,20.436,194.854,2.80984,0.0,0.0
243,60.5,27.1874,28.3411,142.473,97.848,71.4042,0.00967827,0.417386,20.418,194.794,2.78191,0.0,0.0
246,61.25,27.6818,28.9417,133.781,97.8395,70.4019,0.00988897,0.426403,20.4049,194.764,2.90596,0.0,0.0
249,62,28.4036,29.6176,140.04,97.8436,72.8827,0.0100985,0.43459,20.3941,194.694,2.60053,0.0,0.0
252,62.75,28.9448,30.4963,140.264,97.848,73.6226,0.0102718,0.44245,20.3843,194.654,2.51175,0.0,0.0
255,63.5,29.5284,30.6765,143.752,97.8403,71.6201,0.0104332,0.449189,20.376,194.564,2.75456,0.0,0.0
258,64.25,29.87,31.3421,137.362,97.8427,71.4748,0.0105767,0.455831,20.3668,194.514,2.77271,0.0,0.0
261,65,30.7045,31.7613,133.035,97.8387,70.6125,0.0106982,0.460672,20.3555,194.474,2.87952,0.0,0.0
264,65.75,30.9887,32.8055,139.749,97.8411,71.4205,0.0108043,0.467791,20.3417,194.454,2.77927,0.0,0.0
267,66.5,31.4032,32.8701,138.797,97.8419,71.376,0.0108991,0.476142,20.3265,194.384,2.78484,0.0,0.0
270,67.25,31.8089,33.6243,137.304,97.831,71.667,0.0110008,0.483538,20.3146,194.334,2.74794,0.0,0.0
273,68,32.5712,34.1757,138.497,97.829,71.4564,0.0110888,0.489977,20.3042,194.264,2.77374,0.0,0.0
276,68.75,33.2882,35.119,138.173,97.827,70.1835,0.0112089,0.49621,20.2955,194.184,2.93226,0.0,0.0
279,69.5,33.4694,35.4898,131.947,97.8234,70.8059,0.0113395,0.502111,20.2872,194.124,2.85398,0.0,0.0
282,70.25,34.1474,36.1053,133.208,97.8262,70.1325,0.0114676,0.506992,20.2773,194.054,2.93861,0.0,0.0
285,71,34.9503,36.6245,128.705,97.8113,71.1283,0.0116093,0.512265,20.2679,194.034,2.81277,0.0,0.0
288,71.75,35.3788,37.3136,135.087,97.8149,72.3865,0.0117312,0.516841,20.26,193.973,2.65827,0.0,0.0
291,72.5,35.8172,38.0899,131.358,97.8117,71.7425,0.0118518,0.521604,20.2518,193.923,2.73689,0.0,0.0
294,73.25,36.3962,38.687,133.867,97.8068,71.8102,0.0119583,0.525449,20.244,193.873,2.72812,0.0,0.0
297,74,36.8405,39.0858,131.815,97.7955,69.3457,0.0120386,0.528887,20.2369,193.793,3.03546,0.0,0.0
300,74.75,37.4981,39.4307,140.346,97.804,70.7475,0.0120982,0.532456,20.2305,193.753,2.85951,0.0,0.0
303,75.5,37.8479,40.4425,133.074,97.8044,70.6978,0.0121312,0.535491,20.2251,193.703,2.86576,0.0,0.0
306,76.25,38.6501,40.8651,133.298,97.7971,72.2261,0.0121467,0.538976,20.22,193.633,2.67626,0.0,0.0
309,77,38.6403,41.6809,131.038,97.7991,71.174,0.012151,0.542427,20.2137,193.543,2.806,0.0,0.0
312,77.75,39.4962,41.9429,132.738,97.8004,71.7241,0.0121305,0.545111,20.2089,193.503,2.73813,0.0,0.0
315,78.5,39.1955,42.9271,130.039,97.7886,71.8808,0.0120816,0.547355,20.205,193.443,2.7178,0.0,0.0
318,79.25,40.4505,43.2429,131.222,97.7987,72.6509,0.0120049,0.548578,20.2022,193.373,2.62462,0.0,0.0
321,80,40.6413,43.7035,138.269,97.8016,72.8211,0.0118634,0.549343,20.2001,193.323,2.60421,0.0,0.0
324,80.75,41.4886,44.3767,134.022,97.7903,72.626,0.0117174,0.549985,20.1988,193.253,2.62688,0.0,0.0
327,81.5,41.64,44.4615,126.806,97.7923,72.5216,0.0115926,0.551015,20.1983,193.213,2.63977,0.0,0.0
330,82.25,42.2645,45.2442,137.075,97.7971,72.8946,0.0114942,0.551727,20.1979,193.153,2.59491,0.0,0.0
333,83,42.894,46.0411,130.799,97.7846,73.7561,0.0114376,0.551981,20.1976,193.073,2.49004,0.0,0.0
336,83.75,43.2379,46.3769,132.084,97.7769,72.7974,0.011422,0.551827,20.1974,193.023,2.60486,0.0,0.0
339,84.5,43.6192,47.0564,134.542,97.7947,73.9842,0.0114385,0.551116,20.1973,192.983,2.46368,0.0,0.0
342,85.25,43.6764,47.2148,135.318,97.785,72.3187,0.0114506,0.550341,20.1984,192.903,2.66384,0.0,0.0
345,86,45.4894,48.3967,136.363,97.7899,73.6263,0.0114593,0.548043,20.2007,192.852,2.50606,0.0,0.0
348,86.75,44.8818,48.5481,141.515,97.779,74.9094,0.0114638,0.545623,20.2055,192.792,2.35253,0.0,0.0
351,87.5,45.5335,48.9823,130.579,97.7882,76.1431,0.0114523,0.54354,20.2088,192.742,2.20913,0.0,0.0
354,88.25,46.3574,49.5231,134.812,97.7915,72.9525,0.011427,0.541739,20.2126,192.682,2.58738,0.0,0.0
357,89,45.8546,49.6697,134.223,97.7939,74.7274,0.0114013,0.53994,20.2153,192.622,2.37535,0.0,0.0
360,89.75,45.9321,49.8121,138.342,97.7858,73.0843,0.0113658,0.538668,20.2193,192.582,2.57093,0.0,0.0
363,90.5,47.4997,50.9571,136.808,97.7838,74.7935,0.0113321,0.536476,20.2235,192.532,2.36664,0.0,0.0
366,91.25,47.4358,50.8283,139.764,97.7854,74.0332,0.0113042,0.53457,20.2273,192.472,2.457,0.0,0.0
369,92,46.9628,51.0153,129.165,97.781,74.4086,0.0112598,0.532666,20.2302,192.402,2.41193,0.0,0.0
372,92.75,47.9003,51.8617,131.787,97.7757,73.4157,0.0112027,0.531155,20.2322,192.342,2.53008,0.0,0.0
375,93.5,48.2866,52.5997,132.223,97.7713,73.3337,0.0111335,0.530221,20.2337,192.272,2.53955,0.0,0.0
378,94.25,48.3135,52.513,127.995,97.7709,74.7314,0.0110538,0.529281,20.2367,192.242,2.3728,0.0,0.0
381,95,48.4302,52.6234,141.729,97.7717,76.9221,0.0109439,0.528009,20.2402,192.192,2.11775,0.0,0.0
384,95.75,49.1571,53.3573,133.71,97.7676,74.8184,0.0108638,0.52627,20.2433,192.142,2.36224,0.0,0.0
387,96.5,48.9031,53.2216,139.564,97.7571,76.1574,0.0106982,0.523258,20.2519,192.052,2.20467,0.0,0.0
390,97.25,50.2517,54.1056,132.986,97.7632,76.8442,0.0106033,0.518549,20.2571,191.982,2.12594,0.0,0.0
393,98,49.7414,54.3013,131.342,97.7608,74.1601,0.0104779,0.514362,20.2645,191.972,2.43965,0.0,0.0
396,98.75,50.781,54.9299,139.688,97.7499,75.8133,0.0103597,0.509767,20.2717,191.902,2.24399,0.0,0.0
399,99.5,50.5344,54.8328,140.112,97.7527,76.4279,0.0102386,0.504151,20.2789,191.872,2.17295,0.0,0.0
402,100.25,50.6685,55.0432,130.935,97.7414,75.275,0.0101158,0.501398,20.2861,191.802,2.30614,0.0,0.0
405,101,50.829,55.3301,138.701,97.7418,75.7444,0.00999255,0.497515,20.2933,191.761,2.25129,0.0,0.0
408,101.75,51.1833,55.2179,133.225,97.7406,75.9594,0.00984566,0.493686,20.3016,191.731,2.22615,0.0,0.0
411,102.5,51.6453,56.1855,141.325,97.7309,76.8426,0.00973857,0.4897,20.309,191.671,2.12321,0.0,0.0
414,103.25,51.3855,56.0855,140.054,97.7378,76.7222,0.0095925,0.484909,20.317,191.651,2.13767,0.0,0.0
417,104,51.9908,56.296,140.696,97.7337,77.6053,0.00946928,0.47987,20.3242,191.601,2.03625,0.0,0.0
420,104.75,51.5273,56.5199,141.155,97.7249,76.5002,0.00936351,0.475538,20.3318,191.561,2.16209,0.0,0.0
423,105.5,52.7086,57.3095,144.255,97.7095,76.8732,0.00927134,0.469333,20.3412,191.491,2.11776,0.0,0.0
426,106.25,52.0829,56.7574,141.542,97.7119,76.4867,0.00916043,0.463465,20.3504,191.451,2.16248,0.0,0.0
429,107,52.7471,57.473,139.645,97.7043,75.1881,0.00903456,0.456886,20.3611,191.421,2.31298,0.0,0.0
432,107.75,52.0278,56.832,141.599,97.7063,76.6675,0.00889771,0.45056,20.3703,191.371,2.14112,0.0,0.0
435,108.5,52.6634,57.4586,145.719,97.6966,77.236,0.00879795,0.444577,20.3794,191.311,2.07501,0.0,0.0
438,109.25,52.466,57.4722,137.681,97.6966,78.5823,0.00866484,0.438986,20.388,191.261,1.92242,0.0,0.0
441,110,52.7337,57.879,142.504,97.6978,80.1106,0.0085678,0.432897,20.3952,191.211,1.75245,0.0,0.0
444,110.75,52.7932,57.4203,144.691,97.6881,78.9096,0.00844769,0.428459,20.4035,191.161,1.88496,0.0,0.0
447,111.5,52.9089,58.0021,144.398,97.6804,79.7568,0.00835069,0.422235,20.4109,191.131,1.78997,0.0,0.0
450,112.25,53.0528,57.7307,139.119,97.6873,78.4848,0.00826384,0.416423,20.4221,191.091,1.93255,0.0,0.0
453,113,53.0097,57.491,141.318,97.6808,79.956,0.00816218,0.409196,20.4397,191.071,1.76798,0.0,0.0
456,113.75,52.4793,57.4401,142.075,97.68,80.3212,0.00805353,0.402653,20.4553,191.051,1.72767,0.0,0.0
459,114.5,52.825,57.6962,151.643,97.6691,79.1373,0.00793068,0.393473,20.4715,190.991,1.8578,0.0,0.0
462,115.25,52.686,57.7826,141.565,97.6703,81.2848,0.00779168,0.384281,20.4897,190.981,1.6215,0.0,0.0
465,116,52.5846,57.9673,141.915,97.6768,82.6654,0.00763802,0.375375,20.5065,190.941,1.47337,0.0,0.0
468,116.75,52.9043,57.7844,144.151,97.6667,82.6495,0.00750371,0.366932,20.5202,190.911,1.47416,0.0,0.0
471,117.5,51.9418,57.3235,144.148,97.657,79.5258,0.00730221,0.358222,20.5347,190.861,1.81346,0.0,0.0
474,118.25,52.5142,57.4539,146.632,97.6562,83.4763,0.0071108,0.349687,20.549,190.851,1.38531,0.0,0.0
477,119,52.7244,57.4766,150.509,97.6639,81.5006,0.00693021,0.341591,20.5627,190.801,1.5975,0.0,0.0
480,119.75,52.1648,57.3836,141.841,97.6623,82.4817,0.00676082,0.333413,20.5757,190.791,1.49169,0.0,0.0
483,120.5,51.9607,57.2727,146.869,97.6586,82.4568,0.00658665,0.326482,20.5891,190.761,1.49403,0.0,0.0
486,121.25,51.5785,56.5756,148.102,97.6526,81.9749,0.00641072,0.318052,20.6033,190.731,1.54524,0.0,0.0
489,122,51.9633,56.9855,143.299,97.6594,82.2956,0.0062357,0.309715,20.6191,190.711,1.51138,0.0,0.0
492,122.75,52.1379,57.0668,145.877,97.6461,82.5691,0.00602146,0.302703,20.6347,190.671,1.48089,0.0,0.0
495,123.5,51.8134,56.8534,151.82,97.6465,81.892,0.00586528,0.294175,20.6477,190.661,1.55362,0.0,0.0
498,124.25,51.6895,56.9437,146.497,97.63,81.3941,0.0056271,0.285278,20.6599,190.63,1.60597,0.0,0.0
501,125,50.7905,56.2773,150.637,97.6385,83.8003,0.00541367,0.277064,20.6699,190.58,1.3495,0.0,0.0
504,125.75,50.819,55.8461,149.019,97.634,83.1171,0.00519001,0.270339,20.6816,190.56,1.42138,0.0,0.0
507,126.5,50.8588,55.7661,153.435,97.6195,84.7022,0.00493184,0.26281,20.6933,190.55,1.25326,0.0,0.0
510,127.25,50.6427,55.6434,151.81,97.6231,84.2158,0.0046821,0.257322,20.7031,190.53,1.30444,0.0,0.0
513,128,50.2744,55.4751,153.169,97.6239,84.5553,0.00444409,0.250148,20.716,190.5,1.26899,0.0,0.0
516,128.75,49.9859,55.0299,149.048,97.6389,85.0699,0.00421979,0.243313,20.7298,190.5,1.21676,0.0,0.0
519,129.5,49.7409,54.6706,151.896,97.6199,86.7893,0.00399018,0.237646,20.7425,190.49,1.03837,0.0,0.0
522,130.25,49.464,54.6481,150.926,97.6308,86.5134,0.00382279,0.231173,20.753,190.48,1.06747,0.0,0.0
525,131,49.5102,54.5601,156.257,97.6271,86.7933,0.00363948,0.225165,20.7606,190.45,1.03861,0.0,0.0
528,131.75,49.516,54.6439,152.051,97.6146,87.3382,0.00347973,0.219591,20.7688,190.41,0.982226,0.0,0.0
531,132.5,49.0551,53.7892,154.661,97.607,87.8973,0.00333299,0.214426,20.7763,190.42,0.925187,0.0,0.0
534,133.25,48.5633,53.5052,155.334,97.6066,88.6033,0.00317424,0.209352,20.7824,190.39,0.85451,0.0,0.0
537,134,48.3164,53.311,153.403,97.6061,89.0053,0.00301937,0.205095,20.7901,190.38,0.814506,0.0,0.0
540,134.75,47.9705,52.7273,149.912,97.6013,89.8027,0.00288869,0.201991,20.7973,190.36,0.735309,0.0,0.0
543,135.5,48.0721,52.774,153.956,97.6053,89.2975,0.00279342,0.196377,20.8054,190.35,0.785491,0.0,0.0
546,136.25,47.5996,52.6556,154.728,97.5961,90.6193,0.00271331,0.191152,20.8144,190.34,0.654904,0.0,0.0
549,137,47.7717,52.4583,153.684,97.5823,90.0263,0.0026387,0.186328,20.8232,190.33,0.71163,0.0,0.0
552,137.75,47.4673,52.1326,151.405,97.5852,90.0574,0.00257741,0.1819,20.8312,190.32,0.708844,0.0,0.0
555,138.5,46.8807,51.4696,153.77,97.5763,90.9678,0.00250285,0.177431,20.838,190.29,0.61922,0.0,0.0
558,139.25,46.7094,51.349,158.573,97.5779,90.5867,0.00242135,0.173068,20.8446,190.27,0.656442,0.0,0.0
561,140,46.4696,51.1705,153.068,97.5734,91.1915,0.0023373,0.168905,20.8519,190.3,0.597284,0.0,0.0
564,140.75,46.278,50.5629,157.251,97.5739,92.064,0.00224055,0.164694,20.8585,190.28,0.513237,0.0,0.0
567,141.5,45.7486,50.4045,154.695,97.5581,91.6987,0.00215826,0.161123,20.8651,190.26,0.546913,0.0,0.0
570,142.25,45.3653,50.1672,153.87,97.5549,92.0371,0.00207552,0.157034,20.8719,190.25,0.514104,0.0,0.0
573,143,45.1519,49.6692,156.421,97.546,92.1317,0.00201073,0.15313,20.8782,190.24,0.504221,0.0,0.0
576,143.75,44.4647,49.3421,157.443,97.5694,92.5786,0.00196878,0.14989,20.8865,190.24,0.463616,0.0,0.0
579,144.5,44.7306,49.0482,156.534,97.5529,92.9255,0.00195358,0.146276,20.8899,190.23,0.429096,0.0,0.0
582,145.25,44.3575,49.0829,155.617,97.5452,93.2838,0.00197146,0.142996,20.8951,190.22,0.394419,0.0,0.0
585,146,43.7602,48.4611,158.191,97.5311,93.4058,0.00197861,0.140019,20.8995,190.21,0.381597,0.0,0.0
588,146.75,43.7762,48.3364,155.055,97.5347,92.5198,0.00197376,0.136594,20.9033,190.21,0.466079,0.0,0.0
591,147.5,43.2721,47.5645,159.187,97.529,93.1495,0.00193477,0.134723,20.907,190.2,0.405675,0.0,0.0
594,148.25,43.2153,47.4797,153.967,97.5298,93.3226,0.00188153,0.132561,20.9108,190.18,0.389361,0.0,0.0
597,149,42.9445,47.4942,156.34,97.5258,93.7319,0.00182494,0.129905,20.9147,190.18,0.350351,0.0,0.0
600,149.75,42.6189,46.9906,160.271,97.527,93.0308,0.0017714,0.127691,20.9189,190.18,0.416757,0.0,0.0
603,150.5,42.4799,46.6313,155.605,97.5173,93.7956,0.0017306,0.125602,20.9228,190.17,0.343589,0.0,0.0
606,151.25,42.2487,46.3403,160.006,97.5331,93.807,0.00170086,0.123469,20.926,190.17,0.343939,0.0,0.0
609,152,41.8719,46.1677,155.573,97.5,93.0716,0.0016951,0.121445,20.9293,190.17,0.410434,0.0,0.0
612,152.75,41.8119,45.7535,153.023,97.5129,93.1014,0.00169463,0.119523,20.932,190.16,0.408779,0.0,0.0
615,153.5,40.7143,45.5017,160.025,97.5092,93.6654,0.00169588,0.117699,20.9346,190.15,0.355121,0.0,0.0
618,154.25,40.5772,44.8996,157.174,97.5032,92.6415,0.00168085,0.11554,20.9366,190.15,0.45163,0.0,0.0
621,155,41.2647,45.2377,159.113,97.4931,93.396,0.0016699,0.113966,20.9392,190.14,0.379087,0.0,0.0
624,155.75,40.7392,44.7363,157.555,97.4887,93.4413,0.00161416,0.112111,20.9417,190.13,0.374403,0.0,0.0
627,156.5,39.832,43.5606,163.07,97.4907,93.4846,0.0015546,0.110348,20.9438,190.13,0.370498,0.0,0.0
630,157.25,39.9671,44.1535,159.275,97.4883,93.5221,0.00147885,0.108888,20.946,190.13,0.366733,0.0,0.0
633,158,40.0776,44.096,159.233,97.4826,93.4487,0.00139639,0.1076,20.9478,190.13,0.373161,0.0,0.0
636,158.75,39.6366,43.7452,156.131,97.4794,93.3238,0.00132467,0.10628,20.9495,190.14,0.384675,0.0,0.0
639,159.5,39.8446,43.4556,158.239,97.483,93.5793,0.0012565,0.104873,20.9512,190.13,0.360866,0.0,0.0
642,160.25,38.7003,42.8006,156.695,97.4761,93.7148,0.00123031,0.103678,20.9528,190.11,0.347469,0.0,0.0
645,161,38.5734,42.6475,158.459,97.4725,94.2984,0.00122125,0.102513,20.9544,190.12,0.292325,0.0,0.0
648,161.75,38.8105,42.707,157.526,97.4669,93.6723,0.00126587,0.10127,20.9565,190.11,0.350628,0.0,0.0
651,162.5,37.8033,42.1538,160.522,97.483,93.916,0.00133073,0.100195,20.9586,190.1,0.329154,0.0,0.0
654,163.25,38.2407,42.2594,160.206,97.4834,93.9074,0.00137354,0.0988285,20.96,190.11,0.329997,0.0,0.0
657,164,38.0764,41.9143,159.986,97.4685,93.7127,0.00143716,0.0975085,20.9618,190.1,0.346965,0.0,0.0
660,164.75,37.8608,41.9226,157.292,97.4652,95.0431,0.00147857,0.0964082,20.9638,190.1,0.222201,0.0,0.0
663,165.5,37.2851,40.8698,160.169,97.4697,93.7915,0.00150665,0.0950831,20.966,190.09,0.339658,0.0,0.0
666,166.25,37.4367,41.1087,158.718,97.4689,94.2131,0.00151719,0.0942283,20.9676,190.1,0.299986,0.0,0.0
669,167,36.803,40.4867,162.995,97.4665,93.3446,0.0015226,0.0930128,20.9688,190.09,0.381536,0.0,0.0
672,167.75,36.9273,40.5458,155.983,97.4426,93.2083,0.0015299,0.0917661,20.9703,190.08,0.39228,0.0,0.0
675,168.5,36.4942,40.4595,155.235,97.4592,93.8315,0.00154886,0.0906947,20.9722,190.08,0.334942,0.0,0.0
678,169.25,36.5325,39.9348,158.719,97.4596,93.7866,0.00157765,0.0896357,20.9741,190.08,0.339204,0.0,0.0
681,170,36.3139,39.8718,155.911,97.4721,93.9898,0.00161427,0.0886813,20.9754,190.08,0.321225,0.0,0.0
684,170.75,36.0971,39.5276,157.711,97.4483,93.7266,0.00164805,0.0878045,20.9768,190.06,0.34383,0.0,0.0
687,171.5,35.84,39.4545,159.852,97.4438,93.7609,0.00166274,0.0869887,20.9782,190.06,0.340198,0.0,0.0
690,172.25,35.8927,38.8349,156.519,97.4556,93.976,0.00166922,0.086134,20.9797,190.06,0.321028,0.0,0.0
693,173,35.1286,38.4979,163.169,97.4471,93.6197,0.00166402,0.0853568,20.9808,190.07,0.353799,0.0,0.0
696,173.75,35.3222,38.6715,160.233,97.4507,93.876,0.0016585,0.0846582,20.9815,190.06,0.32999,0.0,0.0
699,174.5,34.9349,38.3299,159.539,97.4588,94.2343,0.00165878,0.0840354,20.9832,190.06,0.297082,0.0,0.0
702,175.25,34.9375,37.4972,162.7,97.4479,93.6821,0.00167669,0.0833574,20.9844,190.04,0.347985,0.0,0.0
705,176,34.5648,37.8521,159.842,97.4406,93.9449,0.00168846,0.0827676,20.985,190.05,0.32259,0.0,0.0
708,176.75,34.6362,37.9069,158.53,97.441,93.6793,0.0017054,0.081921,20.9864,190.04,0.347632,0.0,0.0
711,177.5,34.1195,37.3992,159.195,97.4386,93.6074,0.00170286,0.0811359,20.9874,190.04,0.354185,0.0,0.0
714,178.25,34.8617,37.5648,160.35,97.4406,93.9437,0.00169466,0.0804921,20.9885,190.05,0.322705,0.0,0.0
717,179,33.8271,37.0524,157.901,97.4556,93.3756,0.00167432,0.0800512,20.9895,190.06,0.377615,0.0,0.0
720,179.75,33.4955,36.6337,160.501,97.4358,93.9364,0.00163493,0.0794387,20.9902,190.04,0.322957,0.0,0.0
723,180.5,33.4768,36.6509,164.406,97.4273,93.0243,0.00157522,0.0788162,20.9909,190.04,0.408342,0.0,0.0
726,181.25,33.7336,36.5231,161.211,97.4446,93.2601,0.00150349,0.0783623,20.9918,190.05,0.387555,0.0,0.0
729,182,33.2696,36.2246,158.968,97.4394,93.576,0.00142556,0.0772546,20.9931,190.05,0.357224,0.0,0.0
732,182.75,32.3593,35.5726,154.247,97.4333,93.4956,0.0013405,0.0760285,20.9945,190.05,0.364263,0.0,0.0
735,183.5,32.236,35.4813,162.573,97.4325,93.1557,0.00128054,0.0749563,20.9963,190.06,0.396354,0.0,0.0
738,184.25,31.9499,35.3305,161.988,97.4523,93.6597,0.00124035,0.0737571,20.9976,190.06,0.350504,0.0,0.0
741,185,31.5972,34.3536,160.819,97.4527,93.1128,0.00121847,0.0728242,20.9987,190.05,0.402246,0.0,0.0
744,185.75,31.4985,35.1034,159.158,97.4483,93.4993,0.001207,0.0720438,20.9995,190.05,0.36527,0.0,0.0
747,186.5,31.3411,34.1747,159.916,97.4422,93.6009,0.00120086,0.0713339,21.0008,190.04,0.355131,0.0,0.0
750,187.25,30.8048,33.8642,160.546,97.4713,93.7519,0.00118921,0.0706904,21.0019,190.03,0.343532,0.0,0.0
753,188,31.4403,34.3829,159.577,97.4592,93.9425,0.00116847,0.0701085,21.0032,190.03,0.324503,0.0,0.0
756,188.75,31.2718,33.7611,160.718,97.4564,94.3339,0.00113394,0.0696644,21.0041,190.03,0.287538,0.0,0.0
759,189.5,31.0766,33.9871,162.257,97.4471,93.8225,0.00110422,0.0692967,21.0047,190.04,0.33469,0.0,0.0
762,190.25,30.1559,33.4268,159.606,97.4608,93.8784,0.0010754,0.0689535,21.0052,190.03,0.330674,0.0,0.0
765,191,30.7777,33.2489,160.381,97.4737,94.3098,0.00105551,0.068652,21.0056,190.02,0.291365,0.0,0.0
768,191.75,30.4502,33.1154,160.851,97.4794,93.6536,0.00104277,0.0683445,21.0058,190.01,0.353531,0.0,0.0
771,192.5,29.9192,32.1334,165.586,97.4689,94.0539,0.00103473,0.0680012,21.006,190.01,0.314915,0.0,0.0
774,193.25,30.04,32.5563,166.294,97.477,93.6552,0.00102939,0.067751,21.0061,190.02,0.353158,0.0,0.0
777,194,29.7391,32.9679,163.558,97.4919,93.9556,0.00101959,0.0675268,21.0062,190.02,0.326238,0.0,0.0
780,194.75,30.0751,32.1102,161.371,97.4883,93.7327,0.00100234,0.0673456,21.0063,190.02,0.346873,0.0,0.0
783,195.5,29.3964,32.3791,155.696,97.4879,94.571,0.000982711,0.0670944,21.0065,190.01,0.268225,0.0,0.0
786,196.25,29.5325,31.7621,162.813,97.4951,93.5981,0.000968403,0.0668695,21.0068,190.03,0.360191,0.0,0.0
789,197,29.022,31.7235,161.699,97.5101,93.4936,0.000957321,0.0666878,21.0069,190.03,0.371406,0.0,0.0
792,197.75,29.7239,31.9637,158.68,97.5109,93.3054,0.00094813,0.0665144,21.007,190.02,0.389265,0.0,0.0
795,198.5,28.7423,31.8723,161.216,97.5117,93.9568,0.000927326,0.0663559,21.0071,190.01,0.327915,0.0,0.0
798,199.25,28.335,31.1736,161.977,97.5222,93.7433,0.000906956,0.0662153,21.0072,190.01,0.348946,0.0,0.0
801,200,28.7322,31.8578,158.143,97.5311,93.7862,0.000883209,0.066093,21.0072,190.01,0.345716,0.0,0.0
804,200.75,28.3072,30.9898,155.12,97.5306,94.2,0.00085725,0.0660316,21.0073,189.99,0.306804,0.0,0.0
807,201.5,28.323,31.2802,162.102,97.5432,93.8286,0.000834639,0.0659988,21.0073,190,0.342817,0.0,0.0
810,202.25,28.1884,31.0274,158.036,97.5456,93.8368,0.000814255,0.0659748,21.0073,190.01,0.342267,0.0,0.0
813,203,28.6831,30.5573,154.898,97.5533,94.0004,0.000792725,0.0659573,21.0078,190.01,0.327577,0.0,0.0
816,203.75,28.3004,30.8509,160.529,97.5646,94.3335,0.00077703,0.0659446,21.0081,190,0.297373,0.0,0.0
819,204.5,27.962,30.665,162.692,97.5726,93.6123,0.000770139,0.0659353,21.0083,190.01,0.365862,0.0,0.0
822,205.25,27.688,30.6845,159.865,97.5577,94.2433,0.000772897,0.0658294,21.0085,190.01,0.305199,0.0,0.0
825,206,27.8366,30.3882,160.832,97.588,93.5874,0.000787242,0.0657938,21.009,190.01,0.369599,0.0,0.0
828,206.75,27.7816,29.8572,160.685,97.5783,93.7756,0.000813766,0.0657711,21.0096,190.01,0.350989,0.0,0.0
831,207.5,27.7542,30.5057,159.898,97.5977,93.8164,0.000839952,0.0657295,21.0101,190,0.348901,0.0,0.0
834,208.25,27.7785,29.7729,161.838,97.5985,94.1049,0.000872641,0.0656699,21.0104,190.01,0.321861,0.0,0.0
837,209,27.4414,29.3418,156.805,97.5997,94.038,0.00090227,0.0655763,21.0106,190,0.328251,0.0,0.0
840,209.75,27.4168,30.3135,154.752,97.613,94.1763,0.000918578,0.0655082,21.0108,190,0.316476,0.0,0.0
843,210.5,27.5266,29.0524,165.136,97.6106,94.3147,0.000919341,0.0654445,21.0109,190,0.303296,0.0,0.0
846,211.25,27.1762,29.262,160.792,97.6078,93.7699,0.000906697,0.0653922,21.011,189.99,0.354195,0.0,0.0
849,212,27.228,29.3092,161.216,97.6292,94.1551,0.00088302,0.0653343,21.0111,189.99,0.319927,0.0,0.0
852,212.75,26.7509,28.9578,162.137,97.6171,94.409,0.00085871,0.0652847,21.0111,189.99,0.295059,0.0,0.0
855,213.5,26.969,28.9304,156.697,97.6267,94.4914,0.000853345,0.065236,21.0112,190,0.288228,0.0,0.0
858,214.25,26.9203,28.6937,160.646,97.6191,93.363,0.000854702,0.0652006,21.0112,189.99,0.393614,0.0,0.0
861,215,26.8956,28.836,162.844,97.6267,94.2265,0.000882889,0.0651886,21.0112,190,0.313013,0.0,0.0
864,215.75,26.7915,28.6177,161.028,97.6453,93.9653,0.000920942,0.0651639,21.0112,190.01,0.339202,0.0,0.0
867,216.5,26.1281,28.744,160.948,97.6445,94.2657,0.000958787,0.0651083,21.0112,190,0.31095,0.0,0.0
870,217.25,26.3162,28.721,160.345,97.6437,94.5228,0.000983902,0.0650539,21.0111,189.99,0.286826,0.0,0.0
873,218,25.3207,27.7431,160.606,97.6457,94.1253,0.000992044,0.0650083,21.0109,189.98,0.324218,0.0,0.0
876,218.75,25.9939,27.3753,162.764,97.6615,94.4012,0.000982396,0.0650299,21.0108,189.98,0.2998,0.0,0.0
879,219.5,26.3029,27.8289,163.859,97.6655,93.9205,0.000951509,0.065047,21.0107,189.98,0.345246,0.0,0.0
882,220.25,26.1888,27.5794,162.547,97.6639,94.1372,0.000906723,0.065022,21.0106,189.96,0.324752,0.0,0.0
885,221,26.0734,27.6479,162.082,97.6594,94.3849,0.00085851,0.0650236,21.0106,189.97,0.301145,0.0,0.0
888,221.75,25.724,27.9104,158.623,97.6716,94.2037,0.000818163,0.0650247,21.0105,189.97,0.319207,0.0,0.0
891,222.5,25.1903,26.6977,159.548,97.6808,93.9666,0.000779859,0.0650253,21.0105,189.98,0.342299,0.0,0.0
894,223.25,25.1206,27.6274,158.265,97.6768,93.7548,0.000744892,0.0650399,21.0105,189.99,0.361859,0.0,0.0
897,224,25.3437,27.5987,159.945,97.6716,94.5118,0.000713555,0.0650565,21.0104,189.98,0.290375,0.0,0.0
900,224.75,25.6837,27.2362,158.871,97.7002,94.6289,0.000680713,0.0650487,21.0104,189.98,0.28203,0.0,0.0
903,225.5,25.3418,27.3181,163.252,97.6837,93.9262,0.000656771,0.0650138,21.0104,189.97,0.346352,0.0,0.0
906,226.25,24.5457,26.5949,164.897,97.6873,94.1053,0.000623477,0.0649383,21.0106,189.97,0.329855,0.0,0.0
909,227,25.0978,26.9706,160.235,97.6897,94.4747,0.000613918,0.0649229,21.0108,189.97,0.295487,0.0,0.0
912,227.75,25.0509,26.6208,160.371,97.6913,94.4824,0.000620367,0.0649116,21.0112,189.97,0.294908,0.0,0.0
915,228.5,25.0461,27.1255,158.675,97.693,94.4592,0.00063729,0.0648638,21.0121,189.99,0.297228,0.0,0.0
918,229.25,23.9802,26.1615,160.98,97.7006,94.1494,0.000652227,0.0648293,21.0127,190,0.326925,0.0,0.0
921,230,25.1436,26.825,157.291,97.7063,94.2306,0.000667561,0.0648049,21.0132,189.99,0.319822,0.0,0.0
924,230.75,24.1768,27.0446,154.693,97.7083,94.6175,0.000677504,0.064801,21.0135,190,0.283826,0.0,0.0
927,231.5,24.9695,26.6935,158.092,97.7152,94.5212,0.000685527,0.0648041,21.0135,189.99,0.293439,0.0,0.0
930,232.25,24.5204,26.542,160.58,97.7152,94.4285,0.000693598,0.0648064,21.0132,189.97,0.302097,0.0,0.0
933,233,24.832,25.9741,155.815,97.7188,94.1808,0.000708289,0.064808,21.0129,189.98,0.325619,0.0,0.0
936,233.75,24.8349,26.3842,158.841,97.7224,94.4102,0.000728881,0.0648092,21.0127,189.97,0.304471,0.0,0.0
939,234.5,24.5326,26.6506,160.194,97.7317,94.1853,0.000753048,0.0648497,21.0125,189.96,0.326366,0.0,0.0
942,235.25,24.5853,26.0355,156.553,97.7483,94.3281,0.000772772,0.0648376,21.0124,189.96,0.314481,0.0,0.0
945,236,24.665,25.56,160.789,97.7366,94.2286,0.00078468,0.0647963,21.0123,189.97,0.322749,0.0,0.0
948,236.75,24.4868,25.3216,159.155,97.739,95.0333,0.000792308,0.0647412,21.0123,189.99,0.247876,0.0,0.0
951,237.5,24.637,26.1911,161.526,97.7547,94.0739,0.000797868,0.0647407,21.0122,189.97,0.338896,0.0,0.0
954,238.25,24.7756,25.5061,164.25,97.7632,94.7509,0.0008081,0.0647403,21.0122,189.97,0.276341,0.0,0.0
957,239,24.4667,25.7526,159.788,97.7624,94.7562,0.000826,0.06474,21.0122,189.96,0.275774,0.0,0.0
960,239.75,24.3161,25.8345,162.511,97.7499,94.3135,0.000860857,0.0647676,21.0122,189.97,0.316002,0.0,0.0
963,240.5,24.1643,25.698,161.478,97.7765,94.4049,0.000900735,0.0648216,21.0121,189.97,0.309854,0.0,0.0
966,241.25,23.9462,25.9975,155.296,97.7729,93.8364,0.000930457,0.0648984,21.0121,189.96,0.362858,0.0,0.0
969,242,24.3174,25.2746,163.571,97.7785,94.5999,0.000953237,0.0649346,21.0121,189.96,0.29181,0.0,0.0
972,242.75,23.7354,25.3436,163.224,97.7834,94.5685,0.000961188,0.0650027,21.0121,189.96,0.295181,0.0,0.0
975,243.5,23.9788,25.1506,159.787,97.783,94.9236,0.000961992,0.0650994,21.0121,189.96,0.262056,0.0,0.0
978,244.25,23.988,25.024,158.011,97.7943,94.5726,0.000960353,0.06522,21.0121,189.95,0.295785,0.0,0.0
981,245,23.8928,25.549,160.209,97.8088,94.6656,0.000957395,0.0653445,21.0121,189.96,0.288414,0.0,0.0
984,245.75,24.0314,24.9873,161.712,97.7927,94.6546,0.000963893,0.0654978,21.0121,189.97,0.287983,0.0,0.0
987,246.5,23.4945,24.6985,159.529,97.8096,94.935,0.000972321,0.0656514,21.0121,189.97,0.263399,0.0,0.0
990,247.25,23.8172,25.2246,158.739,97.8286,94.5738,0.00100073,0.0657672,21.0121,189.97,0.298768,0.0,0.0
993,248,23.2092,25.3178,159.032,97.8226,94.9256,0.00103094,0.0658456,21.0121,189.97,0.265438,0.0,0.0
996,248.75,23.7873,25.0151,159.606,97.8238,94.0049,0.00106409,0.0659425,21.0119,189.97,0.351605,0.0,0.0
999,249.5,23.7291,24.7185,158.847,97.8573,94.5404,0.00109301,0.0660132,21.0118,189.96,0.30448,0.0,0.0
1002,250.25,23.8667,24.9903,164.44,97.8444,94.5347,0.00106821,0.0660647,21.0116,189.97,0.303848,0.0,0.0
1005,251,23.7256,24.8055,158.819,97.8674,94.2518,0.0010217,0.0660802,21.0115,189.96,0.33238,0.0,0.0
1008,251.75,23.6475,24.7486,159.636,97.8605,94.6416,0.00097567,0.066054,21.0114,189.95,0.295324,0.0,0.0
1011,252.5,22.8759,24.6725,158.163,97.8718,94.2273,0.000924818,0.0659932,21.0114,189.95,0.335075,0.0,0.0
1014,253.25,22.8895,24.7329,164.768,97.8855,94.7379,0.000876667,0.0659311,21.0114,189.96,0.288601,0.0,0.0
1017,254,23.2113,24.5198,159.26,97.8896,94.9183,0.000842585,0.0657668,21.0113,189.95,0.272169,0.0,0.0
1020,254.75,22.9744,24.6215,156.055,97.9037,93.9372,0.000822187,0.065647,21.0113,189.96,0.365184,0.0,0.0
1023,255.5,22.8083,24.4103,163.675,97.8884,94.3755,0.0008267,0.0655596,21.0113,189.94,0.322697,0.0,0.0
1026,256.25,22.6945,24.2635,163.315,97.9134,95.3145,0.000829991,0.065377,21.0113,189.95,0.237532,0.0,0.0
1029,257,22.962,24.5079,158.765,97.9162,94.0351,0.000839439,0.0652021,21.0113,189.94,0.357111,0.0,0.0
1032,257.75,22.9045,24.0427,160.989,97.9203,94.3212,0.000840474,0.0650715,21.0113,189.95,0.330653,0.0,0.0
1035,258.5,22.4501,23.5172,163.701,97.9215,94.5449,0.000824718,0.0650013,21.0113,189.94,0.309851,0.0,0.0
1038,259.25,22.8881,24.3586,162.243,97.9417,95.3141,0.000802114,0.0648708,21.0113,189.95,0.240118,0.0,0.0
1041,260,22.9544,23.6513,161.587,97.9413,94.7073,0.000782113,0.0647683,21.0113,189.95,0.296479,0.0,0.0
1044,260.75,22.8049,23.7195,161.148,97.9534,94.8036,0.000777414,0.0646811,21.0113,189.95,0.288596,0.0,0.0
1047,261.5,22.7425,23.887,159.198,97.9558,94.7301,0.0007782,0.0646315,21.0113,189.95,0.295658,0.0,0.0
1050,262.25,22.1606,23.4924,161.316,97.9683,95.3084,0.000803447,0.0646085,21.0113,189.94,0.24305,0.0,0.0
1053,263,22.3501,23.5766,159.876,97.9691,94.1163,0.000821851,0.0646189,21.0113,189.94,0.354257,0.0,0.0
1056,263.75,22.8931,23.791,162.336,97.9816,94.5975,0.000855984,0.0646515,21.0113,189.94,0.310359,0.0,0.0
1059,264.5,22.6456,23.5498,159.871,97.9764,94.6983,0.000909026,0.0646356,21.0113,189.93,0.300482,0.0,0.0
1062,265.25,22.3967,24.0613,162.467,97.9861,94.4085,0.000954145,0.0646241,21.0113,189.92,0.328414,0.0,0.0
1065,266,21.9033,22.8743,158.089,97.9942,94.6069,0.00098815,0.0645363,21.0113,189.93,0.310611,0.0,0.0
1068,266.75,22.3074,23.4759,157.218,98.0038,95.0668,0.00100412,0.0644915,21.0113,189.91,0.268662,0.0,0.0
1071,267.5,22.9561,23.8978,161.334,98.0071,94.4689,0.000999679,0.0644991,21.0113,189.88,0.324658,0.0,0.0
1074,268.25,22.6798,23.7684,162.999,98.0269,94.4163,0.000989589,0.0644908,21.0113,189.91,0.331362,0.0,0.0
1077,269,22.0817,23.7558,162.029,98.0244,94.9007,0.000939924,0.0644642,21.0113,189.91,0.285957,0.0,0.0
1080,269.75,22.7584,23.0367,162.109,98.0337,95.2182,0.000903718,0.0644198,21.0113,189.93,0.257302,0.0,0.0
1083,270.5,22.1724,23.1875,158.651,98.0382,94.5697,0.000856183,0.0643874,21.0113,189.94,0.318042,0.0,0.0
1086,271.25,22.2841,23.6331,159.526,98.0474,94.2722,0.000821529,0.0644296,21.0113,189.95,0.3467,0.0,0.0
1089,272,22.5268,23.5928,158.33,98.0555,95.024,0.000813883,0.064573,21.0113,189.93,0.277297,0.0,0.0
1092,272.75,22.1821,23.1487,162.033,98.0648,94.6722,0.000820668,0.0648561,21.0115,189.91,0.310884,0.0,0.0
1095,273.5,22.3805,22.9114,159.249,98.0676,94.4587,0.000846747,0.0650624,21.011,189.92,0.331066,0.0,0.0
1098,274.25,22.5261,23.2143,156.46,98.0717,94.6465,0.000897506,0.0652861,21.0106,189.9,0.313899,0.0,0.0
1101,275,22.1274,23.0456,160.261,98.0898,95.0072,0.000953067,0.0655743,21.0101,189.91,0.281942,0.0,0.0
1104,275.75,22.3805,22.8798,164.252,98.0935,94.9762,0.00100279,0.0658401,21.0093,189.92,0.285152,0.0,0.0
1107,276.5,22.1484,23.3736,155.564,98.0935,94.4412,0.00104126,0.0660715,21.0087,189.92,0.335034,0.0,0.0
1110,277.25,22.4442,23.0749,159.874,98.0915,94.6163,0.00105758,0.0662681,21.0083,189.92,0.318498,0.0,0.0
1113,278,21.8949,22.3928,162.286,98.1157,94.873,0.00104944,0.0664489,21.008,189.94,0.296756,0.0,0.0
1116,278.75,22.5085,23.0605,158.846,98.1359,94.5069,0.00102549,0.0667197,21.0081,189.93,0.332709,0.0,0.0
1119,279.5,22.2319,22.8491,155.997,98.1238,95.1958,0.000993975,0.0669611,21.0085,189.92,0.267489,0.0,0.0
1122,280.25,21.4303,23.1629,163.521,98.1266,95.1888,0.000964409,0.0672123,21.0086,189.91,0.268387,0.0,0.0
1125,281,22.2724,22.4631,159.468,98.1347,94.7522,0.000941093,0.0673814,21.0086,189.91,0.309713,0.0,0.0
1128,281.75,22.1683,22.8929,160.645,98.1371,95.0595,0.000926567,0.0674637,21.0086,189.92,0.28134,0.0,0.0
1131,282.5,21.8836,22.7915,164.609,98.1452,95.259,0.000917031,0.0673988,21.0086,189.91,0.263549,0.0,0.0
1134,283.25,22.0117,22.4279,158.445,98.1407,94.4236,0.000904791,0.0672959,21.0087,189.92,0.340926,0.0,0.0
1137,284,21.7421,23.1279,157.744,98.1662,95.4521,0.000895869,0.0671824,21.0087,189.9,0.247564,0.0,0.0
1140,284.75,22.1379,22.7249,160.148,98.1621,94.8334,0.000855881,0.0670747,21.0087,189.92,0.304618,0.0,0.0
1143,285.5,21.8324,22.7842,157.37,98.1702,95.1807,0.000804506,0.0669763,21.0087,189.9,0.273067,0.0,0.0
1146,286.25,21.5205,22.5769,159.672,98.1702,94.6599,0.000747835,0.0669046,21.0087,189.91,0.321509,0.0,0.0
1149,287,21.3797,22.0504,158.658,98.1892,95.1823,0.000689863,0.0667531,21.0087,189.9,0.274622,0.0,0.0
1152,287.75,22.0235,22.8511,159.727,98.2053,95.2464,0.000638804,0.0666426,21.0087,189.91,0.270132,0.0,0.0
1155,288.5,21.8693,22.461,157.728,98.194,95.1333,0.000606516,0.0665621,21.0087,189.91,0.279602,0.0,0.0
1158,289.25,21.5005,22.7732,159.904,98.2243,94.744,0.000585082,0.0664637,21.0087,189.91,0.318535,0.0,0.0
1161,290,21.7662,22.6152,159.381,98.2134,94.9795,0.000583398,0.0663627,21.0087,189.9,0.295636,0.0,0.0
1164,290.75,21.5807,22.8549,161.249,98.2255,94.7652,,0.066239,,189.9,0.316666,0.0,0.0
1167,291.5,21.7318,22.4053,162.238,98.2291,94.3983,,0.0661686,,189.9,0.351243,0.0,0.0
1170,292.25,21.432,22.9,162.072,98.2308,94.9134,,0.0661599,,189.88,0.303345,0.0,0.0
1173,293,21.307,21.7732,163.54,98.2368,95.1305,,0.0661716,,189.9,0.283715,0.0,0.0
1176,293.75,21.2759,21.9388,165.146,98.2509,94.9068,,,,189.9,0.305768,0.0,0.0
1179,294.5,21.4854,22.2029,163.678,98.2582,95.3655,,,,189.9,0.263847,0.0,0.0
1182,295.25,21.6206,22.8479,158.668,98.2635,94.7983,,,,189.9,0.316997,0.0,0.0
1185,296,21.6726,22.5261,155.583,98.2566,95.2345,,,,189.89,0.275839,0.0,0.0
1188,296.75,21.5581,22.3013,158.015,98.2788,95.2023,,,,189.9,0.280824,0.0,0.0
1191,297.5,21.133,21.8973,165.641,98.2857,95.4288,,,,189.91,0.260458,0.0,0.0
1194,298.25,21.8354,21.9762,162.332,98.2994,94.311,,,,189.89,0.365729,0.0,0.0
1197,299,21.5841,22.2849,160.652,98.2893,95.3129,,,,189.89,0.271516,0.0,0.0
1200,299.75,21.2334,22.0206,164.028,98.3192,95.217,,,,189.89,0.283088,0.0,0.0
1203,300.5,21.3713,22.1147,161.817,98.3212,95.7798,,,,189.89,0.231235,0.0,0.0
1206,301.25,21.0582,21.7242,159.906,98.339,95.3904,,,,189.89,0.268796,0.0,0.0
1207,301.5,20.9882,21.9947,159.027,98.339,95.4357,,,,189.88,0.264604,0.0,0.0