File: 01_Data/PP/STA/N2/30K_min/PP_STA_N2_30KData_210826_R2.csv
##Temp./Â°C,Time/min,Mass loss(subtr.2)/mg,DSC(subtr.2)/mW,Sensit./(uV/mW)
49.087,10.01,-0.04058,0.007962356,1.054
49.587,10.95368,-0.04233329,0.13847,1.05401
50.087,11.1695,-0.04397687,0.24999,1.05402
50.587,11.31775,-0.04310512,0.33917,1.05403
51.087,11.43117,-0.04404825,0.4327,1.05404
51.587,11.52863,-0.04344957,0.51065,1.05405
52.087,11.61231,-0.0514854,0.59629,1.05405
52.587,11.68838,-0.03615031,0.67638,1.05406
53.087,11.75619,-0.04515543,0.73574,1.05406
53.587,11.82036,-0.04583668,0.81377,1.05406
54.087,11.8804,-0.04563661,0.88014,1.05406
54.587,11.93557,-0.04604223,0.95754,1.05406
55.087,11.98878,-0.04848567,1.00876,1.05406
55.587,12.04001,-0.04737905,1.05678,1.05406
56.087,12.08804,-0.04667025,1.12602,1.05405
56.587,12.13505,-0.04799772,1.18221,1.05405
57.087,12.18084,-0.04575986,1.23071,1.05404
57.587,12.22488,-0.04675727,1.28538,1.05403
58.087,12.26764,-0.04765624,1.34029,1.05402
58.587,12.30916,-0.04742818,1.37877,1.05401
59.087,12.34959,-0.04674907,1.43156,1.054
59.587,12.38913,-0.04707756,1.47283,1.05399
60.087,12.42787,-0.04721183,1.51758,1.05397
60.587,12.46565,-0.04822514,1.56118,1.05396
61.087,12.50272,-0.04744698,1.59979,1.05394
61.587,12.53932,-0.04730806,1.64163,1.05392
62.087,12.57553,-0.03569816,1.68676,1.05391
62.587,12.61099,-0.04199022,1.72274,1.05389
63.087,12.64584,-0.05873161,1.75271,1.05386
63.587,12.6803,-0.05278959,1.78284,1.05384
64.087,12.71442,-0.04792825,1.82158,1.05382
64.587,12.74794,-0.04777088,1.84139,1.05379
65.087,12.78112,-0.04806708,1.8735,1.05377
65.587,12.81372,-0.04813619,1.90395,1.05374
66.087,12.846,-0.04838254,1.94319,1.05371
66.587,12.87815,-0.04766848,1.97015,1.05368
67.087,12.91008,-0.04749265,1.99133,1.05365
67.587,12.94178,-0.04748791,2.01769,1.05362
68.087,12.97308,-0.04699449,2.04062,1.05359
68.587,13.004,-0.04656832,2.05938,1.05355
69.087,13.03463,-0.04824922,2.08316,1.05352
69.587,13.06505,-0.04901584,2.11338,1.05348
70.087,13.0952,-0.04931585,2.12567,1.05344
70.587,13.1251,-0.04912323,2.14703,1.0534
71.087,13.1546,-0.04857076,2.17545,1.05336
71.587,13.18397,-0.0393724,2.19402,1.05332
72.087,13.2133,-0.04231581,2.20376,1.05328
72.587,13.2423,-0.06091136,2.22028,1.05323
73.087,13.27135,-0.05628481,2.2421,1.05319
73.587,13.29979,-0.0502698,2.24993,1.05314
74.087,13.3283,-0.04777219,2.26999,1.05309
74.587,13.3565,-0.04822865,2.29246,1.05305
75.087,13.3848,-0.04820681,2.30954,1.053
75.587,13.41252,-0.04844099,2.33275,1.05294
76.087,13.44012,-0.0492394,2.35006,1.05289
76.587,13.4677,-0.045817,2.36784,1.05284
77.087,13.49521,-0.03696484,2.39083,1.05278
77.587,13.52256,-0.04530064,2.38832,1.05273
78.087,13.54965,-0.05856357,2.41407,1.05267
78.587,13.57642,-0.05433707,2.43194,1.05261
79.087,13.6031,-0.0490782,2.43818,1.05255
79.587,13.6296,-0.04931345,2.47275,1.05249
80.087,13.65584,-0.04999852,2.48219,1.05243
80.587,13.6822,-0.04961306,2.50409,1.05237
81.087,13.70805,-0.04890372,2.52288,1.05231
81.587,13.7339,-0.04846014,2.54419,1.05224
82.087,13.7595,-0.04904399,2.55856,1.05218
82.587,13.78501,-0.05009395,2.57581,1.05211
83.087,13.81049,-0.05028571,2.59371,1.05204
83.587,13.83584,-0.04971398,2.62184,1.05197
84.087,13.86108,-0.05005541,2.63355,1.0519
84.587,13.8861,-0.05120809,2.64993,1.05183
85.087,13.9107,-0.05179916,2.67393,1.05175
85.587,13.93534,-0.05130965,2.69106,1.05168
86.087,13.95986,-0.05078537,2.70376,1.05161
86.587,13.9843,-0.05206834,2.72838,1.05153
87.087,14.0085,-0.05229961,2.74454,1.05145
87.587,14.0327,-0.05217984,2.76581,1.05137
88.087,14.05666,-0.05311923,2.78612,1.05129
88.587,14.08049,-0.05416763,2.81666,1.05121
89.087,14.1042,-0.05375641,2.8195,1.05113
89.587,14.1277,-0.05253261,2.85024,1.05105
90.087,14.15117,-0.05144212,2.87023,1.05096
90.587,14.17446,-0.05254847,2.88783,1.05088
91.087,14.1976,-0.05066381,2.90738,1.05079
91.587,14.22065,-0.04535505,2.9365,1.0507
92.087,14.24347,-0.04121577,2.95316,1.05061
92.587,14.26625,-0.05060573,2.96262,1.05052
93.087,14.289,-0.0614148,2.98755,1.05043
93.587,14.3116,-0.06376951,2.99907,1.05034
94.087,14.3341,-0.05779994,3.01415,1.05024
94.587,14.3564,-0.05476154,3.03868,1.05015
95.087,14.3787,-0.05476293,3.05993,1.05005
95.587,14.4008,-0.05352646,3.0831,1.04996
96.087,14.4229,-0.05234802,3.10159,1.04986
96.587,14.44495,-0.05188539,3.12533,1.04976
97.087,14.46684,-0.05223132,3.14001,1.04966
97.587,14.48867,-0.05231837,3.1725,1.04956
98.087,14.5103,-0.05267861,3.18749,1.04946
98.587,14.53181,-0.05324723,3.20308,1.04935
99.087,14.5531,-0.05381465,3.22462,1.04925
99.587,14.5744,-0.05484326,3.24326,1.04914
100.087,14.59565,-0.05377759,3.27047,1.04904
100.587,14.61679,-0.05363907,3.28913,1.04893
101.087,14.6379,-0.05212234,3.31118,1.04882
101.587,14.65894,-0.05343961,3.3318,1.04871
102.087,14.6798,-0.05305942,3.3569,1.0486
102.587,14.70069,-0.0532242,3.37327,1.04848
103.087,14.72156,-0.05332947,3.39242,1.04837
103.587,14.74221,-0.05362841,3.411,1.04826
104.087,14.76283,-0.05370823,3.43025,1.04814
104.587,14.78335,-0.05365019,3.45349,1.04802
105.087,14.80371,-0.05350595,3.47356,1.04791
105.587,14.8241,-0.05281108,3.50239,1.04779
106.087,14.8444,-0.05399854,3.51759,1.04767
106.587,14.86469,-0.05346654,3.53956,1.04755
107.087,14.8849,-0.05313581,3.56851,1.04742
107.587,14.90495,-0.05349953,3.58441,1.0473
108.087,14.92505,-0.05347247,3.61309,1.04718
108.587,14.9451,-0.05362552,3.63305,1.04705
109.087,14.9651,-0.0543947,3.64541,1.04692
109.587,14.9851,-0.05569534,3.67744,1.0468
110.087,15.0049,-0.05711261,3.69266,1.04667
110.587,15.02466,-0.05589686,3.71776,1.04654
111.087,15.04424,-0.05590014,3.73795,1.04641
111.587,15.0638,-0.0546066,3.76908,1.04628
112.087,15.0833,-0.05439687,3.78688,1.04614
112.587,15.10286,-0.05319991,3.80796,1.04601
113.087,15.12235,-0.05332332,3.83335,1.04587
113.587,15.1418,-0.0537647,3.85889,1.04574
114.087,15.16115,-0.05294108,3.87991,1.0456
114.587,15.1805,-0.05367158,3.90018,1.04546
115.087,15.1997,-0.05430238,3.91554,1.04532
115.587,15.2188,-0.05348651,3.95325,1.04518
116.087,15.238,-0.05425038,3.9739,1.04504
116.587,15.25699,-0.05312463,3.99369,1.0449
117.087,15.27599,-0.05439336,4.01119,1.04475
117.587,15.295,-0.05440839,4.04561,1.04461
118.087,15.31391,-0.05468976,4.07243,1.04446
118.587,15.33275,-0.05418863,4.08456,1.04432
119.087,15.3516,-0.05407015,4.12486,1.04417
119.587,15.3703,-0.05286943,4.15166,1.04402
120.087,15.389,-0.05422114,4.16853,1.04387
120.587,15.40753,-0.05468484,4.19977,1.04372
121.087,15.4261,-0.05527136,4.22674,1.04357
121.587,15.44466,-0.05555726,4.25004,1.04341
122.087,15.4632,-0.05446204,4.28582,1.04326
122.587,15.4817,-0.05430444,4.30069,1.0431
123.087,15.50025,-0.05527267,4.33923,1.04295
123.587,15.5186,-0.05425777,4.36607,1.04279
124.087,15.53685,-0.05427735,4.39633,1.04263
124.587,15.55502,-0.05419625,4.42205,1.04247
125.087,15.57311,-0.0554606,4.45874,1.04231
125.587,15.59095,-0.05554496,4.48529,1.04215
126.087,15.609,-0.05454588,4.51825,1.04199
126.587,15.6271,-0.05586758,4.55259,1.04183
127.087,15.6452,-0.0545411,4.58426,1.04166
127.587,15.66325,-0.05581871,4.62128,1.0415
128.087,15.6814,-0.05572439,4.65614,1.04133
128.587,15.69934,-0.05599021,4.69612,1.04116
129.087,15.7173,-0.05638401,4.72309,1.04099
129.587,15.7351,-0.05677335,4.76001,1.04082
130.087,15.7529,-0.05848629,4.79045,1.04065
130.587,15.7707,-0.06359993,4.82821,1.04048
131.087,15.78842,-0.06714539,4.86797,1.04031
131.587,15.80597,-0.06709433,4.91541,1.04014
132.087,15.82356,-0.06030717,4.96472,1.03996
132.587,15.84115,-0.05066346,5.00882,1.03979
133.087,15.85864,-0.04501324,5.05351,1.03961
133.587,15.87614,-0.04736068,5.09655,1.03943
134.087,15.89359,-0.05287443,5.14306,1.03925
134.587,15.911,-0.05517341,5.19499,1.03907
135.087,15.92831,-0.05531003,5.24376,1.03889
135.587,15.9456,-0.05652513,5.29297,1.03871
136.087,15.96287,-0.0569659,5.3396,1.03853
136.587,15.9801,-0.05724254,5.4024,1.03835
137.087,15.99734,-0.05682724,5.45553,1.03816
137.587,16.01451,-0.05649762,5.51377,1.03798
138.087,16.0318,-0.05661708,5.57977,1.03779
138.587,16.04889,-0.0559397,5.63351,1.0376
139.087,16.06605,-0.05679187,5.70368,1.03741
139.587,16.08319,-0.0567198,5.76499,1.03722
140.087,16.10024,-0.0567122,5.83576,1.03703
140.587,16.11724,-0.05627052,5.91484,1.03684
141.087,16.13417,-0.0560969,5.98822,1.03665
141.587,16.151,-0.05668531,6.06272,1.03646
142.087,16.16788,-0.05670339,6.14248,1.03626
142.587,16.18476,-0.05670211,6.22269,1.03607
143.087,16.2015,-0.056707,6.30021,1.03587
143.587,16.2183,-0.05663434,6.40788,1.03567
144.087,16.23511,-0.05708821,6.50326,1.03547
144.587,16.2518,-0.05671776,6.59412,1.03527
145.087,16.2685,-0.05670341,6.69472,1.03507
145.587,16.285,-0.05680261,6.80885,1.03487
146.087,16.30171,-0.05566428,6.92701,1.03467
146.587,16.31832,-0.05664202,7.04398,1.03447
147.087,16.33495,-0.05669034,7.16483,1.03426
147.587,16.35148,-0.05668372,7.29334,1.03406
148.087,16.36814,-0.05749525,7.42283,1.03385
148.587,16.3847,-0.05759415,7.55231,1.03365
149.087,16.40128,-0.05668475,7.69218,1.03344
149.587,16.41781,-0.0571653,7.83288,1.03323
150.087,16.43427,-0.05753761,7.99429,1.03302
150.587,16.4508,-0.0569297,8.14642,1.03281
151.087,16.4672,-0.05698741,8.30641,1.0326
151.587,16.48357,-0.05627988,8.45819,1.03238
152.087,16.4999,-0.05691839,8.61527,1.03217
152.587,16.51623,-0.05690861,8.77793,1.03196
153.087,16.53257,-0.05750296,8.95144,1.03174
153.587,16.54884,-0.05826089,9.12413,1.03152
154.087,16.56508,-0.05825,9.30392,1.03131
154.587,16.58136,-0.05825365,9.4837,1.03109
155.087,16.59751,-0.05778246,9.65482,1.03087
155.587,16.6137,-0.05761214,9.83348,1.03065
156.087,16.62985,-0.05835293,10.00057,1.03043
156.587,16.64605,-0.0583571,10.18367,1.03021
157.087,16.6622,-0.05835184,10.36002,1.02998
157.587,16.67841,-0.05814599,10.528,1.02976
158.087,16.6946,-0.05720787,10.6972,1.02954
158.587,16.7107,-0.05802323,10.85399,1.02931
159.087,16.72685,-0.05803434,10.99877,1.02908
159.587,16.7429,-0.05816134,11.11645,1.02886
160.087,16.75893,-0.05746437,11.22487,1.02863
160.587,16.77492,-0.05702571,11.29298,1.0284
161.087,16.79089,-0.05702971,11.34792,1.02817
161.587,16.8068,-0.05703345,11.363,1.02794
162.087,16.82273,-0.05705616,11.33239,1.02771
162.587,16.83863,-0.0564927,11.29033,1.02747
163.087,16.85453,-0.05588706,11.20704,1.02724
163.587,16.87045,-0.05703765,11.08887,1.027
164.087,16.88627,-0.05856711,10.95006,1.02677
164.587,16.90213,-0.06126233,10.77777,1.02653
165.087,16.91789,-0.06628688,10.58025,1.02629
165.587,16.9337,-0.06709142,10.3864,1.02606
166.087,16.94942,-0.06285879,10.1653,1.02582
166.587,16.96513,-0.05673432,9.94282,1.02558
167.087,16.98079,-0.05053034,9.70381,1.02534
167.587,16.9964,-0.04984463,9.46197,1.02509
168.087,17.01205,-0.05206554,9.22488,1.02485
168.587,17.02759,-0.05473874,8.98815,1.02461
169.087,17.0431,-0.05627539,8.75844,1.02436
169.587,17.05861,-0.05777614,8.55057,1.02412
170.087,17.07412,-0.05923545,8.32463,1.02387
170.587,17.0896,-0.05911811,8.13224,1.02362
171.087,17.10502,-0.0591054,7.92956,1.02338
171.587,17.12051,-0.05910795,7.76067,1.02313
172.087,17.13595,-0.05815693,7.59664,1.02288
172.587,17.15134,-0.05781562,7.43619,1.02263
173.087,17.16669,-0.05780233,7.3064,1.02238
173.587,17.18204,-0.05727391,7.17096,1.02212
174.087,17.1974,-0.05642829,7.06328,1.02187
174.587,17.21261,-0.05646989,6.94562,1.02162
175.087,17.22791,-0.05650219,6.85175,1.02136
175.587,17.24319,-0.0567453,6.76049,1.0211
176.087,17.25844,-0.05778253,6.67853,1.02085
176.587,17.27368,-0.05778983,6.60862,1.02059
177.087,17.28893,-0.05778649,6.54673,1.02033
177.587,17.30415,-0.05771095,6.48496,1.02007
178.087,17.31932,-0.05871956,6.43001,1.01981
178.587,17.33446,-0.05911677,6.3853,1.01955
179.087,17.34959,-0.05910996,6.34384,1.01929
179.587,17.3647,-0.05911505,6.29859,1.01903
180.087,17.37981,-0.05880561,6.27301,1.01876
180.587,17.3949,-0.05770749,6.24241,1.0185
181.087,17.40996,-0.05780017,6.21755,1.01823
181.587,17.42502,-0.05780165,6.19227,1.01797
182.087,17.44008,-0.05779999,6.16669,1.0177
182.587,17.45506,-0.05780522,6.15039,1.01743
183.087,17.47002,-0.05780025,6.14147,1.01717
183.587,17.485,-0.05744626,6.12039,1.0169
184.087,17.49993,-0.05746647,6.10875,1.01663
184.587,17.51489,-0.05781999,6.10522,1.01636
185.087,17.52972,-0.05779971,6.09794,1.01608
185.587,17.5446,-0.05779737,6.08366,1.01581
186.087,17.55954,-0.05780232,6.09019,1.01554
186.587,17.5745,-0.05794286,6.07532,1.01526
187.087,17.58934,-0.05813558,6.08098,1.01499
187.587,17.60426,-0.05821001,6.08115,1.01471
188.087,17.6192,-0.05907934,6.08808,1.01444
188.587,17.6341,-0.05909912,6.08354,1.01416
189.087,17.64892,-0.05909734,6.09176,1.01388
189.587,17.66369,-0.05879253,6.09731,1.0136
190.087,17.67846,-0.05780752,6.09448,1.01332
190.587,17.6932,-0.05780152,6.09509,1.01304
191.087,17.70787,-0.05779988,6.09567,1.01276
191.587,17.7226,-0.0578005,6.10062,1.01248
192.087,17.73726,-0.05779646,6.11364,1.01219
192.587,17.75196,-0.05778005,6.11801,1.01191
193.087,17.7667,-0.05818847,6.11902,1.01162
193.587,17.78131,-0.05915132,6.13885,1.01134
194.087,17.79598,-0.05910909,6.13429,1.01105
194.587,17.81063,-0.05911978,6.15258,1.01077
195.087,17.82529,-0.0591167,6.16698,1.01048
195.587,17.83994,-0.05912047,6.16957,1.01019
196.087,17.85456,-0.05935285,6.1748,1.0099
196.587,17.8691,-0.06040998,6.18914,1.00961
197.087,17.88374,-0.06042646,6.18889,1.00932
197.587,17.89838,-0.06043985,6.19576,1.00903
198.087,17.91303,-0.06041539,6.20511,1.00873
198.587,17.92759,-0.0593074,6.21128,1.00844
199.087,17.94215,-0.05914181,6.22957,1.00815
199.587,17.95673,-0.05911517,6.23318,1.00785
200.087,17.97125,-0.05911892,6.23833,1.00756
200.587,17.9857,-0.05913272,6.25427,1.00726
201.087,18.00014,-0.05912386,6.26586,1.00696
201.587,18.01465,-0.06018599,6.27356,1.00667
202.087,18.0291,-0.05985029,6.28176,1.00637
202.587,18.0437,-0.05906287,6.29594,1.00607
203.087,18.0581,-0.05910934,6.29855,1.00577
203.587,18.07252,-0.05906202,6.30607,1.00547
204.087,18.08707,-0.05980564,6.32665,1.00516
204.587,18.10154,-0.06043359,6.32891,1.00486
205.087,18.11601,-0.0604424,6.34182,1.00456
205.587,18.13042,-0.06044387,6.35289,1.00425
206.087,18.14491,-0.06147966,6.36145,1.00395
206.587,18.1595,-0.06175475,6.36545,1.00364
207.087,18.1739,-0.06175927,6.3816,1.00334
207.587,18.18826,-0.0617304,6.39273,1.00303
208.087,18.20261,-0.06154286,6.40476,1.00272
208.587,18.21702,-0.06045442,6.41227,1.00242
209.087,18.23135,-0.06043104,6.41886,1.00211
209.587,18.24568,-0.06043143,6.43409,1.0018
210.087,18.25998,-0.06042994,6.44411,1.00149
210.587,18.2743,-0.06034765,6.4542,1.00117
211.087,18.2886,-0.06129146,6.46061,1.00086
211.587,18.3029,-0.06174546,6.47246,1.00055
212.087,18.3172,-0.06173954,6.4873,1.00024
212.587,18.33149,-0.06174161,6.49613,0.99992
213.087,18.3458,-0.0616556,6.50567,0.99961
213.587,18.3601,-0.06042217,6.52478,0.99929
214.087,18.37446,-0.06045361,6.52901,0.99898
214.587,18.38873,-0.06043358,6.53499,0.99866
215.087,18.40304,-0.06051371,6.54103,0.99834
215.587,18.41731,-0.06081229,6.55152,0.99802
216.087,18.4316,-0.0604064,6.56547,0.9977
216.587,18.4459,-0.06043724,6.57485,0.99738
217.087,18.46012,-0.06043005,6.58375,0.99706
217.587,18.47435,-0.06042983,6.59312,0.99674
218.087,18.48855,-0.06043001,6.59288,0.99642
218.587,18.50279,-0.06043,6.60722,0.9961
219.087,18.51701,-0.06043,6.61898,0.99577
219.587,18.53115,-0.06043,6.63247,0.99545
220.087,18.54535,-0.06043,6.64204,0.99512
220.587,18.55958,-0.06043,6.65266,0.9948
221.087,18.57375,-0.06042999,6.6643,0.99447
221.587,18.58791,-0.06043003,6.67079,0.99415
222.087,18.60204,-0.06043019,6.67553,0.99382
222.587,18.6162,-0.06042821,6.69205,0.99349
223.087,18.63041,-0.06042827,6.69338,0.99316
223.587,18.64452,-0.06146069,6.71142,0.99283
224.087,18.65866,-0.06303314,6.71355,0.9925
224.587,18.67275,-0.0630459,6.73436,0.99217
225.087,18.68688,-0.06311087,6.7344,0.99184
225.587,18.701,-0.06233007,6.74541,0.99151
226.087,18.71504,-0.06170108,6.75743,0.99117
226.587,18.7291,-0.06175267,6.76544,0.99084
227.087,18.74318,-0.0617599,6.77448,0.99051
227.587,18.7573,-0.06170152,6.78746,0.99017
228.087,18.77136,-0.06252313,6.7893,0.98984
228.587,18.78547,-0.06311583,6.80495,0.9895
229.087,18.7995,-0.06306886,6.8151,0.98916
229.587,18.8136,-0.063069,6.81819,0.98882
230.087,18.8276,-0.06307013,6.82013,0.98849
230.587,18.8415,-0.06307001,6.83626,0.98815
231.087,18.85555,-0.06307001,6.84355,0.98781
231.587,18.86956,-0.06306998,6.85702,0.98747
232.087,18.88361,-0.06306925,6.86241,0.98713
232.587,18.8977,-0.06307335,6.88524,0.98679
233.087,18.91173,-0.06308779,6.87666,0.98644
233.587,18.92592,-0.06287226,6.89756,0.9861
234.087,18.93998,-0.06502727,6.89985,0.98576
234.587,18.95399,-0.06533877,6.91254,0.98541
235.087,18.96797,-0.06536227,6.92393,0.98507
235.587,18.98198,-0.06536033,6.94014,0.98472
236.087,18.99594,-0.0653599,6.93549,0.98438
236.587,19.00989,-0.06536001,6.94526,0.98403
237.087,19.02384,-0.06536048,6.95798,0.98368
237.587,19.0378,-0.065358,6.96445,0.98334
238.087,19.05175,-0.06534908,6.97472,0.98299
238.587,19.06567,-0.06548022,6.98556,0.98264
239.087,19.07958,-0.06439369,6.99167,0.98229
239.587,19.09352,-0.06524732,6.99896,0.98194
240.087,19.10746,-0.06537444,7.01308,0.98159
240.587,19.12141,-0.06537041,7.02057,0.98124
241.087,19.13534,-0.06536985,7.03016,0.98089
241.587,19.1493,-0.06537001,7.04357,0.98053
242.087,19.1632,-0.06537,7.05019,0.98018
242.587,19.17713,-0.06537,7.05778,0.97983
243.087,19.191,-0.06537,7.06049,0.97947
243.587,19.20488,-0.06537,7.07231,0.97912
244.087,19.21882,-0.06537,7.07831,0.97876
244.587,19.23266,-0.06537,7.0824,0.9784
245.087,19.24652,-0.06537,7.08463,0.97805
245.587,19.2604,-0.06537,7.09658,0.97769
246.087,19.27422,-0.06537,7.10694,0.97733
246.587,19.28811,-0.06537,7.12136,0.97697
247.087,19.30193,-0.06537,7.12295,0.97661
247.587,19.31577,-0.06537,7.12709,0.97625
248.087,19.3296,-0.06537,7.13738,0.97589
248.587,19.34346,-0.06537,7.15354,0.97553
249.087,19.35732,-0.06537,7.16148,0.97517
249.587,19.37115,-0.06537,7.16481,0.97481
250.087,19.38498,-0.06537001,7.17225,0.97445
250.587,19.39876,-0.06536999,7.17608,0.97408
251.087,19.41261,-0.06536986,7.19028,0.97372
251.587,19.42641,-0.06537101,7.1991,0.97335
252.087,19.44025,-0.06537056,7.21007,0.97299
252.587,19.454,-0.06532856,7.21454,0.97262
253.087,19.46784,-0.06585118,7.22723,0.97226
253.587,19.4817,-0.06672748,7.23375,0.97189
254.087,19.4955,-0.06667782,7.23586,0.97152
254.587,19.50929,-0.06669048,7.24817,0.97116
255.087,19.52309,-0.06669056,7.25332,0.97079
255.587,19.53687,-0.06668817,7.25971,0.97042
256.087,19.5506,-0.06668705,7.2659,0.97005
256.587,19.56438,-0.06590189,7.27711,0.96968
257.087,19.5781,-0.06533472,7.28986,0.96931
257.587,19.5919,-0.06536317,7.29206,0.96894
258.087,19.60567,-0.0653854,7.30379,0.96857
258.587,19.61942,-0.06535397,7.31031,0.96819
259.087,19.63319,-0.06629187,7.31538,0.96782
259.587,19.64695,-0.06672169,7.33105,0.96745
260.087,19.66062,-0.06669122,7.33026,0.96707
260.587,19.67438,-0.06668901,7.33546,0.9667
261.087,19.6881,-0.06669011,7.34774,0.96633
261.587,19.70187,-0.06669011,7.35412,0.96595
262.087,19.71561,-0.06668901,7.36751,0.96557
262.587,19.72935,-0.06669126,7.37419,0.9652
263.087,19.74309,-0.06672201,7.37912,0.96482
263.587,19.75685,-0.0662888,7.38527,0.96444
264.087,19.7706,-0.0653542,7.39166,0.96406
264.587,19.78429,-0.06538392,7.40104,0.96369
265.087,19.79792,-0.06536846,7.40341,0.96331
265.587,19.8115,-0.06536986,7.41984,0.96293
266.087,19.8252,-0.06536959,7.43285,0.96255
266.587,19.8389,-0.06537097,7.42412,0.96217
267.087,19.85266,-0.06538394,7.43743,0.96179
267.587,19.8663,-0.06527234,7.43922,0.9614
268.087,19.88008,-0.06636685,7.44908,0.96102
268.587,19.89392,-0.06669713,7.45852,0.96064
269.087,19.90772,-0.06668912,7.47084,0.96026
269.587,19.9215,-0.06668986,7.46092,0.95987
270.087,19.93522,-0.06669066,7.48025,0.95949
270.587,19.94895,-0.06668874,7.4926,0.9591
271.087,19.96266,-0.06667171,7.50014,0.95872
271.587,19.9763,-0.06689914,7.49843,0.95833
272.087,19.98999,-0.06701006,7.50877,0.95795
272.587,20.0036,-0.06698562,7.51261,0.95756
273.087,20.01727,-0.06587531,7.51935,0.95717
273.587,20.0309,-0.06604787,7.5319,0.95679
274.087,20.04459,-0.06600403,7.52669,0.9564
274.587,20.05827,-0.0660215,7.53542,0.95601
275.087,20.07191,-0.0660205,7.54933,0.95562
275.587,20.08543,-0.06601741,7.55332,0.95523
276.087,20.0991,-0.06602437,7.56655,0.95484
276.587,20.11274,-0.0660995,7.57436,0.95445
277.087,20.12644,-0.0663768,7.57593,0.95406
277.587,20.1401,-0.06635047,7.57048,0.95367
278.087,20.15377,-0.06629513,7.59302,0.95328
278.587,20.16755,-0.06687153,7.59624,0.95289
279.087,20.18134,-0.06699813,7.6029,0.95249
279.587,20.19504,-0.06701483,7.61007,0.9521
280.087,20.2087,-0.06700961,7.61938,0.95171
280.587,20.2224,-0.06700936,7.62945,0.95131
281.087,20.23604,-0.06701443,7.62689,0.95092
281.587,20.2497,-0.0670072,7.63462,0.95052
282.087,20.26335,-0.06757817,7.64386,0.95013
282.587,20.277,-0.0680375,7.6454,0.94973
283.087,20.29061,-0.06800142,7.65314,0.94933
283.587,20.30424,-0.06799883,7.67008,0.94894
284.087,20.31788,-0.06800014,7.66768,0.94854
284.587,20.33148,-0.06800002,7.67346,0.94814
285.087,20.3451,-0.068,7.67854,0.94774
285.587,20.35875,-0.068,7.6886,0.94735
286.087,20.3724,-0.068,7.70095,0.94695
286.587,20.386,-0.068,7.70319,0.94655
287.087,20.39967,-0.068,7.70555,0.94615
287.587,20.41331,-0.068,7.70862,0.94575
288.087,20.42695,-0.068,7.71871,0.94535
288.587,20.4406,-0.068,7.73243,0.94495
289.087,20.45423,-0.068,7.73973,0.94454
289.587,20.46783,-0.068,7.74436,0.94414
290.087,20.48151,-0.06799999,7.74407,0.94374
290.587,20.49515,-0.06800014,7.75729,0.94334
291.087,20.5088,-0.0679997,7.76416,0.94293
291.587,20.52242,-0.06799643,7.77124,0.94253
292.087,20.53606,-0.06810077,7.77318,0.94213
292.587,20.5497,-0.06929036,7.78805,0.94172
293.087,20.56329,-0.06928459,7.78365,0.94132
293.587,20.57688,-0.06931433,7.79266,0.94091
294.087,20.59049,-0.06931013,7.79597,0.94051
294.587,20.60407,-0.06930987,7.80425,0.9401
295.087,20.6177,-0.06931002,7.80745,0.93969
295.587,20.6313,-0.06931,7.823,0.93929
296.087,20.64496,-0.06931001,7.81835,0.93888
296.587,20.65857,-0.06930998,7.83166,0.93847
297.087,20.6722,-0.06930979,7.83714,0.93806
297.587,20.6858,-0.06931186,7.84147,0.93766
298.087,20.69943,-0.06930788,7.84966,0.93725
298.587,20.71302,-0.06925109,7.85045,0.93684
299.087,20.72665,-0.06996029,7.86163,0.93643
299.587,20.74028,-0.07063111,7.86887,0.93602
300.087,20.75382,-0.07062813,7.87226,0.93561
300.587,20.76744,-0.07063026,7.88111,0.9352
301.087,20.78106,-0.07063002,7.88427,0.93479
301.587,20.79468,-0.07062999,7.89278,0.93437
302.087,20.8083,-0.07063,7.89899,0.93396
302.587,20.82196,-0.07063001,7.90425,0.93355
303.087,20.8356,-0.07062987,7.91133,0.93314
303.587,20.84933,-0.07063018,7.91557,0.93272
304.087,20.86299,-0.07063426,7.91835,0.93231
304.587,20.87663,-0.0705078,7.92419,0.9319
305.087,20.8902,-0.06929902,7.93102,0.93148
305.587,20.9038,-0.06933622,7.94304,0.93107
306.087,20.91744,-0.06930482,7.94395,0.93065
306.587,20.93103,-0.06930503,7.95674,0.93024
307.087,20.9446,-0.06945705,7.97059,0.92982
307.587,20.95812,-0.07136634,7.96854,0.92941
308.087,20.97176,-0.07194514,7.9686,0.92899
308.587,20.9854,-0.07194979,7.98334,0.92857
309.087,20.99904,-0.07195326,7.9834,0.92816
309.587,21.01267,-0.07200178,7.98658,0.92774
310.087,21.02629,-0.07133965,8.00074,0.92732
310.587,21.04,-0.07062987,7.99237,0.92691
311.087,21.05363,-0.07063199,8.01124,0.92649
311.587,21.0672,-0.07062971,8.01585,0.92607
312.087,21.0808,-0.07063,8.02658,0.92565
312.587,21.09445,-0.07062959,8.03159,0.92523
313.087,21.10809,-0.07063143,8.04203,0.92481
313.587,21.1217,-0.07063963,8.03801,0.92439
314.087,21.1353,-0.07151918,8.05119,0.92397
314.587,21.1489,-0.07196973,8.04973,0.92355
315.087,21.16248,-0.0719563,8.04934,0.92313
315.587,21.1761,-0.07194841,8.05998,0.92271
316.087,21.18967,-0.07195012,8.0638,0.92229
316.587,21.20327,-0.07195458,8.07227,0.92186
317.087,21.2169,-0.07181513,8.08324,0.92144
317.587,21.23057,-0.07060057,8.07825,0.92102
318.087,21.2442,-0.07065577,8.08925,0.9206
318.587,21.25786,-0.07062705,8.08962,0.92017
319.087,21.27149,-0.07062967,8.10662,0.91975
319.587,21.2851,-0.07063012,8.10725,0.91933
320.087,21.29872,-0.07062999,8.11531,0.9189
320.587,21.31236,-0.07063,8.12459,0.91848
321.087,21.32593,-0.07063,8.13329,0.91805
321.587,21.33955,-0.07063,8.136,0.91763
322.087,21.3532,-0.07062999,8.14313,0.9172
322.587,21.36682,-0.07063007,8.1362,0.91678
323.087,21.38046,-0.07063008,8.14714,0.91635
323.587,21.3941,-0.07062699,8.15604,0.91593
324.087,21.40767,-0.07064202,8.16825,0.9155
324.587,21.4213,-0.07067928,8.17278,0.91507
325.087,21.4349,-0.07167982,8.18037,0.91465
325.587,21.4485,-0.07196443,8.18382,0.91422
326.087,21.46216,-0.07195395,8.1911,0.91379
326.587,21.47576,-0.07194209,8.19709,0.91336
327.087,21.48939,-0.07223181,8.1988,0.91294
327.587,21.50299,-0.07336336,8.20714,0.91251
328.087,21.51664,-0.07325255,8.21403,0.91208
328.587,21.5303,-0.07326975,8.21913,0.91165
329.087,21.5439,-0.07326867,8.22485,0.91122
329.587,21.5575,-0.07327799,8.22905,0.91079
330.087,21.57113,-0.07284286,8.22849,0.91036
330.587,21.5848,-0.07176858,8.24129,0.90993
331.087,21.59842,-0.07280011,8.24662,0.9095
331.587,21.61208,-0.07326637,8.24231,0.90907
332.087,21.62576,-0.07325824,8.25072,0.90864
332.587,21.6394,-0.07326009,8.26823,0.90821
333.087,21.65308,-0.07326112,8.26837,0.90778
333.587,21.66676,-0.07325361,8.27626,0.90735
334.087,21.6804,-0.07325369,8.28392,0.90691
334.587,21.694,-0.07277284,8.28834,0.90648
335.087,21.70759,-0.07276557,8.301,0.90605
335.587,21.72111,-0.07398618,8.30119,0.90562
336.087,21.73474,-0.07381229,8.31164,0.90519
336.587,21.74836,-0.0748461,8.31359,0.90475
337.087,21.76195,-0.07547297,8.32181,0.90432
337.587,21.7756,-0.07545612,8.33027,0.90389
338.087,21.78929,-0.07546035,8.33954,0.90345
338.587,21.80309,-0.07545529,8.33458,0.90302
339.087,21.81682,-0.0741785,8.34367,0.90258
339.587,21.8304,-0.07382784,8.36486,0.90215
340.087,21.84411,-0.0738106,8.36036,0.90171
340.587,21.85782,-0.07382103,8.36362,0.90128
341.087,21.8715,-0.07381984,8.37205,0.90084
341.587,21.88513,-0.07382349,8.39116,0.90041
342.087,21.89883,-0.07381235,8.39674,0.89997
342.587,21.91254,-0.07434948,8.40578,0.89954
343.087,21.92628,-0.07580282,8.40811,0.8991
343.587,21.93995,-0.07643956,8.40735,0.89867
344.087,21.95362,-0.07643427,8.41143,0.89823
344.587,21.9673,-0.07644966,8.42992,0.89779
345.087,21.98099,-0.07646479,8.43364,0.89736
345.587,21.9947,-0.07681576,8.43866,0.89692
346.087,22.00835,-0.07677558,8.44158,0.89648
346.587,22.02209,-0.07676875,8.44724,0.89604
347.087,22.0358,-0.07687696,8.45935,0.89561
347.587,22.04955,-0.07582872,8.45895,0.89517
348.087,22.06325,-0.07545342,8.48649,0.89473
348.587,22.077,-0.07546063,8.51194,0.89429
349.087,22.09069,-0.07545921,8.51333,0.89385
349.587,22.10437,-0.07548213,8.52313,0.89341
350.087,22.11809,-0.07538439,8.52272,0.89298
350.587,22.13179,-0.076578,8.52998,0.89254
351.087,22.1455,-0.07678599,8.52089,0.8921
351.587,22.15921,-0.07677974,8.53746,0.89166
352.087,22.1729,-0.07677987,8.54023,0.89122
352.587,22.18667,-0.07678002,8.54942,0.89078
353.087,22.20041,-0.07678,8.54525,0.89034
353.587,22.2141,-0.07678015,8.55875,0.8899
354.087,22.2279,-0.07677943,8.5587,0.88946
354.587,22.24164,-0.076777,8.56786,0.88902
355.087,22.25538,-0.07681446,8.5644,0.88858
355.587,22.26912,-0.07647088,8.5762,0.88814
356.087,22.28288,-0.07645554,8.57793,0.88769
356.587,22.29662,-0.07656655,8.58082,0.88725
357.087,22.31033,-0.07778504,8.59701,0.88681
357.587,22.32404,-0.07793934,8.58649,0.88637
358.087,22.33782,-0.07899224,8.59574,0.88593
358.587,22.3516,-0.07907055,8.59772,0.88549
359.087,22.36531,-0.07908227,8.61596,0.88504
359.587,22.37905,-0.07908166,8.61687,0.8846
360.087,22.39281,-0.07911036,8.62082,0.88416
360.587,22.40662,-0.07868929,8.62946,0.88372
361.087,22.4204,-0.07811188,8.63628,0.88327
361.587,22.43412,-0.07919041,8.64619,0.88283
362.087,22.44792,-0.07906875,8.65997,0.88239
362.587,22.46171,-0.07908293,8.66035,0.88195
363.087,22.4755,-0.07903054,8.66411,0.8815
363.587,22.48929,-0.07967151,8.66776,0.88106
364.087,22.5031,-0.08044083,8.66228,0.88062
364.587,22.5169,-0.08038126,8.66645,0.88017
365.087,22.53071,-0.08038963,8.67965,0.87973
365.587,22.5445,-0.08039023,8.68811,0.87928
366.087,22.5583,-0.08039007,8.69746,0.87884
366.587,22.57216,-0.0803908,8.69322,0.8784
367.087,22.58592,-0.08038293,8.70693,0.87795
367.587,22.59974,-0.08069868,8.70826,0.87751
368.087,22.61354,-0.08180653,8.71925,0.87706
368.587,22.62736,-0.08169633,8.71951,0.87662
369.087,22.64116,-0.08170897,8.73569,0.87617
369.587,22.65498,-0.08171047,8.73799,0.87573
370.087,22.66883,-0.08170997,8.74062,0.87528
370.587,22.68267,-0.08170999,8.7417,0.87484
371.087,22.6965,-0.08171001,8.74821,0.87439
371.587,22.71033,-0.08171001,8.76387,0.87395
372.087,22.72415,-0.08170973,8.76101,0.8735
372.587,22.73803,-0.08171099,8.77304,0.87305
373.087,22.7519,-0.08171646,8.76874,0.87261
373.587,22.76575,-0.08164618,8.78257,0.87216
374.087,22.77964,-0.08234853,8.7891,0.87172
374.587,22.7935,-0.08282003,8.79292,0.87127
375.087,22.80736,-0.08303758,8.79258,0.87082
375.587,22.8212,-0.08302692,8.80635,0.87038
376.087,22.83502,-0.08292901,8.81326,0.86993
376.587,22.84889,-0.08390722,8.81773,0.86948
377.087,22.86276,-0.08431766,8.83462,0.86904
377.587,22.87666,-0.08472517,8.83717,0.86859
378.087,22.8904,-0.08567166,8.85042,0.86814
378.587,22.9043,-0.08564752,8.84813,0.8677
379.087,22.91825,-0.08565806,8.8569,0.86725
379.587,22.93215,-0.08563488,8.86597,0.8668
380.087,22.94603,-0.08602772,8.8862,0.86635
380.587,22.9599,-0.08654371,8.89536,0.86591
381.087,22.9739,-0.08576997,8.89419,0.86546
381.587,22.98783,-0.0863598,8.90513,0.86501
382.087,23.0017,-0.08722972,8.91556,0.86456
382.587,23.0156,-0.0871777,8.92223,0.86412
383.087,23.02954,-0.08719029,8.93311,0.86367
383.587,23.0435,-0.0871899,8.94319,0.86322
384.087,23.05738,-0.08719182,8.94985,0.86277
384.587,23.07129,-0.08719743,8.95016,0.86233
385.087,23.08522,-0.08806552,8.962,0.86188
385.587,23.09911,-0.08853717,8.97993,0.86143
386.087,23.113,-0.08876409,8.98359,0.86098
386.587,23.1269,-0.0898028,9.00055,0.86053
387.087,23.14084,-0.08982807,8.99686,0.86008
387.587,23.15482,-0.08989212,9.02432,0.85964
388.087,23.16876,-0.09105566,9.03347,0.85919
388.587,23.18274,-0.09111433,9.03779,0.85874
389.087,23.19673,-0.09125696,9.04956,0.85829
389.587,23.2107,-0.09247144,9.06374,0.85784
390.087,23.22472,-0.09140017,9.06753,0.85739
390.587,23.23866,-0.09112554,9.08628,0.85694
391.087,23.2526,-0.09110001,9.10209,0.8565
391.587,23.26654,-0.09168173,9.1157,0.85605
392.087,23.2805,-0.09349094,9.13527,0.8556
392.587,23.2944,-0.09374262,9.15833,0.85515
393.087,23.3084,-0.09429942,9.17046,0.8547
393.587,23.32242,-0.09525253,9.16972,0.85425
394.087,23.33641,-0.09530105,9.19522,0.8538
394.587,23.35041,-0.09654184,9.19613,0.85335
395.087,23.36443,-0.09648891,9.21512,0.8529
395.587,23.3784,-0.09654006,9.22993,0.85245
396.087,23.39244,-0.0967107,9.244,0.852
396.587,23.40641,-0.09780295,9.25926,0.85155
397.087,23.42041,-0.09783653,9.2729,0.85111
397.587,23.43445,-0.0980387,9.29317,0.85066
398.087,23.44847,-0.09929179,9.31357,0.85021
398.587,23.46247,-0.09943565,9.33074,0.84976
399.087,23.47651,-0.10078,9.3485,0.84931
399.587,23.4906,-0.10105,9.36779,0.84886
400.087,23.5046,-0.10245,9.38918,0.84841
400.587,23.51866,-0.10249,9.40456,0.84796
401.087,23.5327,-0.10388,9.4116,0.84751
401.587,23.54675,-0.104,9.41784,0.84706
402.087,23.56082,-0.10526,9.43538,0.84661
402.587,23.57481,-0.10554,9.45933,0.84616
403.087,23.5888,-0.1065,9.49914,0.84571
403.587,23.60288,-0.10695,9.49984,0.84526
404.087,23.61694,-0.10689,9.50205,0.84481
404.587,23.631,-0.1077,9.51542,0.84436
405.087,23.64511,-0.10838,9.52507,0.84391
405.587,23.65915,-0.11083,9.56008,0.84346
406.087,23.67334,-0.11181,9.58334,0.84301
406.587,23.6874,-0.11333,9.59604,0.84256
407.087,23.70148,-0.11361,9.60917,0.84211
407.587,23.71557,-0.11497,9.62109,0.84166
408.087,23.72966,-0.11534,9.68148,0.84121
408.587,23.74376,-0.11687,9.69664,0.84076
409.087,23.75791,-0.11773,9.73114,0.84032
409.587,23.77204,-0.11856,9.76545,0.83987
410.087,23.7862,-0.1189,9.7862,0.83942
410.587,23.80033,-0.11989,9.82083,0.83897
411.087,23.81448,-0.12012,9.84704,0.83852
411.587,23.82865,-0.12152,9.88496,0.83807
412.087,23.8428,-0.12271,9.91174,0.83762
412.587,23.85686,-0.12425,9.93943,0.83717
413.087,23.871,-0.12613,9.9608,0.83672
413.587,23.88514,-0.12778,9.98346,0.83627
414.087,23.89925,-0.12829,9.99694,0.83582
414.587,23.91337,-0.1298,10.00949,0.83537
415.087,23.92751,-0.1306,10.04216,0.83492
415.587,23.94165,-0.13189,10.05326,0.83447
416.087,23.9558,-0.1333,10.0703,0.83402
416.587,23.9699,-0.13392,10.0679,0.83357
417.087,23.98405,-0.13527,10.07654,0.83312
417.587,23.99821,-0.13603,10.08197,0.83267
418.087,24.01237,-0.13727,10.07287,0.83222
418.587,24.02661,-0.13861,10.084,0.83177
419.087,24.0409,-0.13949,10.08893,0.83133
419.587,24.05509,-0.14112,10.09989,0.83088
420.087,24.0694,-0.14335,10.10863,0.83043
420.587,24.08364,-0.1448,10.11399,0.82998
421.087,24.09788,-0.14761,10.1212,0.82953
421.587,24.1121,-0.14966,10.12406,0.82908
422.087,24.1263,-0.15103,10.15323,0.82863
422.587,24.14048,-0.15228,10.17,0.82818
423.087,24.15468,-0.15315,10.18469,0.82773
423.587,24.1689,-0.15496,10.19749,0.82728
424.087,24.18309,-0.15652,10.22363,0.82683
424.587,24.19731,-0.15883,10.24519,0.82639
425.087,24.2115,-0.16051,10.27003,0.82594
425.587,24.2257,-0.1629,10.29195,0.82549
426.087,24.23996,-0.16506,10.3191,0.82504
426.587,24.2542,-0.16835,10.34528,0.82459
427.087,24.26848,-0.17085,10.38162,0.82414
427.587,24.2827,-0.17233,10.40071,0.82369
428.087,24.2971,-0.17403,10.42569,0.82325
428.587,24.31138,-0.17563,10.46901,0.8228
429.087,24.3257,-0.1771,10.48891,0.82235
429.587,24.34,-0.17878,10.51258,0.8219
430.087,24.35431,-0.18145,10.56218,0.82145
430.587,24.36859,-0.18414,10.61213,0.821
431.087,24.3829,-0.18798,10.6492,0.82056
431.587,24.39716,-0.18946,10.69386,0.82011
432.087,24.41146,-0.19062,10.74366,0.81966
432.587,24.42575,-0.19183,10.79236,0.81921
433.087,24.44003,-0.19338,10.84175,0.81877
433.587,24.45438,-0.19549,10.88162,0.81832
434.087,24.46865,-0.19867,10.96139,0.81787
434.587,24.48303,-0.20108,11.00486,0.81742
435.087,24.4974,-0.20532,11.07805,0.81698
435.587,24.5118,-0.20776,11.13499,0.81653
436.087,24.5262,-0.21085,11.21716,0.81608
436.587,24.54056,-0.21347,11.27719,0.81563
437.087,24.55494,-0.2168,11.3497,0.81519
437.587,24.56929,-0.22003,11.4258,0.81474
438.087,24.58361,-0.2243,11.49616,0.81429
438.587,24.59796,-0.2274,11.58237,0.81385
439.087,24.6123,-0.23031,11.6622,0.8134
439.587,24.6266,-0.23417,11.74739,0.81295
440.087,24.641,-0.23734,11.82667,0.81251
440.587,24.65533,-0.24188,11.9186,0.81206
441.087,24.6697,-0.24629,12.03466,0.81161
441.587,24.6841,-0.24981,12.16716,0.81117
442.087,24.6984,-0.25421,12.28138,0.81072
442.587,24.71279,-0.25782,12.3883,0.81028
443.087,24.7272,-0.26242,12.5082,0.80983
443.587,24.74161,-0.26881,12.61778,0.80938
444.087,24.75602,-0.2737,12.73258,0.80894
444.587,24.7704,-0.27932,12.83854,0.80849
445.087,24.78483,-0.28476,12.96857,0.80805
445.587,24.79925,-0.28928,13.08825,0.8076
446.087,24.81362,-0.29541,13.234,0.80716
446.587,24.828,-0.3012,13.37266,0.80671
447.087,24.84244,-0.30668,13.4956,0.80627
447.587,24.85688,-0.3133,13.60883,0.80582
448.087,24.87133,-0.31853,13.7434,0.80538
448.587,24.88579,-0.32413,13.8992,0.80493
449.087,24.9003,-0.33081,14.03541,0.80449
449.587,24.91477,-0.33621,14.2103,0.80404
450.087,24.92924,-0.34289,14.3979,0.8036
450.587,24.94367,-0.35079,14.57935,0.80316
451.087,24.9581,-0.35697,14.766,0.80271
451.587,24.97254,-0.36484,14.94268,0.80227
452.087,24.98697,-0.37287,15.1293,0.80182
452.587,25.0014,-0.38089,15.31792,0.80138
453.087,25.01582,-0.39114,15.51382,0.80094
453.587,25.0303,-0.3994,15.7312,0.80049
454.087,25.04474,-0.40799,15.94902,0.80005
454.587,25.0592,-0.41844,16.13297,0.79961
455.087,25.07368,-0.42695,16.32387,0.79916
455.587,25.08819,-0.4376,16.4919,0.79872
456.087,25.10265,-0.45017,16.69813,0.79828
456.587,25.11714,-0.45962,16.94772,0.79784
457.087,25.13166,-0.47147,17.21351,0.79739
457.587,25.14615,-0.48457,17.4672,0.79695
458.087,25.16062,-0.49528,17.69718,0.79651
458.587,25.17513,-0.50848,17.95956,0.79607
459.087,25.18966,-0.51978,18.2144,0.79562
459.587,25.20417,-0.5315,18.43721,0.79518
460.087,25.21866,-0.54679,18.66399,0.79474
460.587,25.2332,-0.55933,18.91773,0.7943
461.087,25.24771,-0.57361,19.20869,0.79386
461.587,25.26221,-0.58999,19.54897,0.79342
462.087,25.27672,-0.60252,19.82563,0.79298
462.587,25.29124,-0.61911,20.07338,0.79254
463.087,25.30574,-0.63707,20.36409,0.7921
463.587,25.32023,-0.65258,20.61757,0.79165
464.087,25.33473,-0.6726,20.8699,0.79121
464.587,25.3492,-0.69044,21.2384,0.79077
465.087,25.36376,-0.70837,21.50585,0.79033
465.587,25.37823,-0.73042,21.78164,0.78989
466.087,25.39275,-0.74732,22.02299,0.78945
466.587,25.40728,-0.76697,22.37071,0.78902
467.087,25.42183,-0.79128,22.74276,0.78858
467.587,25.43638,-0.81014,23.04251,0.78814
468.087,25.4508,-0.83335,23.376,0.7877
468.587,25.4652,-0.85843,23.81498,0.78726
469.087,25.47975,-0.87862,24.26513,0.78682
469.587,25.4942,-0.90506,24.65934,0.78638
470.087,25.50874,-0.93009,24.92099,0.78594
470.587,25.5232,-0.95568,25.17472,0.78551
471.087,25.53779,-0.98888,25.42856,0.78507
471.587,25.55246,-1.01547,25.7577,0.78463
472.087,25.56692,-1.04506,26.14538,0.78419
472.587,25.5814,-1.08036,26.5692,0.78375
473.087,25.59591,-1.10625,26.91354,0.78332
473.587,25.61035,-1.13825,27.17813,0.78288
474.087,25.62481,-1.17381,27.4519,0.78244
474.587,25.63928,-1.20423,27.72696,0.78201
475.087,25.65365,-1.2383,27.82217,0.78157
475.587,25.66814,-1.27967,28.0659,0.78113
476.087,25.6826,-1.32124,28.48177,0.7807
476.587,25.6971,-1.36693,28.83776,0.78026
477.087,25.71155,-1.40656,29.0436,0.77983
477.587,25.726,-1.44538,29.2532,0.77939
478.087,25.74054,-1.48508,29.51257,0.77895
478.587,25.75507,-1.52807,29.80357,0.77852
479.087,25.76954,-1.57173,29.9518,0.77808
479.587,25.784,-1.61367,30.22728,0.77765
480.087,25.79854,-1.65735,30.49413,0.77722
480.587,25.813,-1.70412,30.5194,0.77678
481.087,25.8275,-1.74968,30.6487,0.77635
481.587,25.84189,-1.79385,30.8981,0.77591
482.087,25.85633,-1.84133,30.9284,0.77548
482.587,25.87079,-1.89121,30.9608,0.77505
483.087,25.88518,-1.93936,31.15963,0.77461
483.587,25.8996,-1.98947,31.0899,0.77418
484.087,25.91408,-2.04285,31.0935,0.77375
484.587,25.92855,-2.09562,30.9594,0.77331
485.087,25.94305,-2.14654,30.7696,0.77288
485.587,25.9575,-2.20023,30.60355,0.77245
486.087,25.97206,-2.25683,30.37708,0.77202
486.587,25.98661,-2.31171,30.21422,0.77158
487.087,26.00113,-2.36568,29.8835,0.77115
487.587,26.0157,-2.44221,29.5244,0.77072
488.087,26.03023,-2.49749,29.13638,0.77029
488.587,26.0447,-2.55404,28.6668,0.76986
489.087,26.05932,-2.61083,28.1708,0.76943
489.587,26.0739,-2.66736,27.64265,0.769
490.087,26.08854,-2.72424,27.0521,0.76857
490.587,26.10315,-2.78174,26.4289,0.76814
491.087,26.11778,-2.83924,25.77064,0.76771
491.587,26.13249,-2.89608,25.06152,0.76728
492.087,26.14714,-2.95286,24.3215,0.76685
492.587,26.16176,-3.01023,23.54699,0.76642
493.087,26.1764,-3.06803,22.73508,0.76599
493.587,26.19095,-3.12634,21.9024,0.76556
494.087,26.20549,-3.18427,21.04004,0.76513
494.587,26.2199,-3.24074,20.17117,0.7647
495.087,26.2343,-3.29569,19.27368,0.76427
495.587,26.24868,-3.34794,18.37065,0.76385
496.087,26.26306,-3.39633,17.44063,0.76342
496.587,26.27745,-3.43953,16.49184,0.76299
497.087,26.29195,-3.47703,15.50327,0.76256
497.587,26.30655,-3.49977,14.5245,0.76214
498.087,26.32133,-3.53126,13.5317,0.76171
498.587,26.33626,-3.56213,12.53426,0.76128
499.087,26.3513,-3.59307,11.5764,0.76086
499.587,26.36648,-3.6321,10.6554,0.76043
500.087,26.38168,-3.66276,9.78007,0.76001
500.587,26.3969,-3.69354,8.92345,0.75958
501.087,26.4122,-3.72741,8.12763,0.75915
501.587,26.42748,-3.75129,7.38376,0.75873
502.087,26.4428,-3.77897,6.70245,0.7583
502.587,26.45813,-3.80339,6.08996,0.75788
503.087,26.47345,-3.82405,5.53867,0.75746
503.587,26.48885,-3.84635,5.03602,0.75703
504.087,26.5042,-3.8612,4.61492,0.75661
504.587,26.51963,-3.8772,4.21591,0.75618
505.087,26.535,-3.89325,3.89464,0.75576
505.587,26.55043,-3.90552,3.60952,0.75534
506.087,26.56591,-3.91999,3.37172,0.75491
506.587,26.5813,-3.93037,3.15044,0.75449
507.087,26.5967,-3.94038,2.96807,0.75407
507.587,26.61212,-3.95067,2.7883,0.75365
508.087,26.62749,-3.95745,2.64188,0.75323
508.587,26.6428,-3.96515,2.48004,0.7528
509.087,26.65815,-3.97064,2.35919,0.75238
509.587,26.6735,-3.97593,2.2295,0.75196
510.087,26.6888,-3.98236,2.11615,0.75154
510.587,26.7041,-3.98674,2.00338,0.75112
511.087,26.7194,-3.99168,1.90932,0.7507
511.587,26.7347,-3.99734,1.79624,0.75028
512.087,26.74987,-4.00087,1.71208,0.74986
512.587,26.7651,-4.00449,1.6131,0.74944
513.087,26.78033,-4.00688,1.52811,0.74902
513.587,26.7955,-4.00975,1.43799,0.7486
514.087,26.81077,-4.01195,1.36222,0.74818
514.587,26.82599,-4.01493,1.27968,0.74777
515.087,26.8412,-4.01674,1.19735,0.74735
515.587,26.8564,-4.0177,1.12259,0.74693
516.087,26.87152,-4.01935,1.04872,0.74651
516.587,26.88666,-4.01976,0.97849,0.74609
517.087,26.9018,-4.02138,0.92417,0.74568
517.587,26.9168,-4.02172,0.84798,0.74526
518.087,26.9319,-4.02313,0.80215,0.74484
518.587,26.94698,-4.02472,0.74586,0.74443
519.087,26.9621,-4.02518,0.68712,0.74401
519.587,26.9772,-4.02653,0.62932,0.7436
520.087,26.9923,-4.02756,0.59833,0.74318
520.587,27.00746,-4.0278,0.54517,0.74277
521.087,27.0226,-4.02789,0.50801,0.74235
521.587,27.0378,-4.029,0.47017,0.74194
522.087,27.05285,-4.02908,0.43121,0.74152
522.587,27.068,-4.02908,0.40374,0.74111
523.087,27.08308,-4.02893,0.37457,0.74069
523.587,27.0982,-4.02813,0.35224,0.74028
524.087,27.1133,-4.02811,0.32876,0.73987
524.587,27.1284,-4.02811,0.30458,0.73945
525.087,27.14345,-4.0281,0.27474,0.73904
525.587,27.15857,-4.02834,0.27001,0.73863
526.087,27.17369,-4.02969,0.24324,0.73822
526.587,27.18877,-4.03069,0.23821,0.73781
527.087,27.20389,-4.03072,0.21687,0.73739
527.587,27.219,-4.03074,0.2078,0.73698
528.087,27.2342,-4.03074,0.20062,0.73657
528.587,27.2493,-4.03074,0.19189,0.73616
529.087,27.26448,-4.03074,0.19205,0.73575
529.587,27.2796,-4.03074,0.18317,0.73534
530.087,27.2948,-4.03074,0.17648,0.73493
530.587,27.30997,-4.03074,0.16622,0.73452
531.087,27.3251,-4.03074,0.15631,0.73411
531.587,27.3403,-4.03074,0.15492,0.73371
532.087,27.35547,-4.03074,0.14167,0.7333
532.587,27.37064,-4.03074,0.13096,0.73289
533.087,27.38575,-4.03074,0.12694,0.73248
533.587,27.4009,-4.03074,0.12772,0.73207
534.087,27.416,-4.03074,0.10743,0.73167
534.587,27.43099,-4.03074,0.10622,0.73126
535.087,27.4461,-4.03073,0.11132,0.73085
535.587,27.46128,-4.0307,0.10511,0.73045
536.087,27.47648,-4.02945,0.09798076,0.73004
536.587,27.49162,-4.02924,0.09467526,0.72963
537.087,27.50693,-4.02852,0.09586959,0.72923
537.587,27.52228,-4.02789,0.09192317,0.72882
538.087,27.53758,-4.02773,0.07948995,0.72842
538.587,27.5528,-4.02587,0.0882137,0.72801
539.087,27.56803,-4.02522,0.06809581,0.72761
539.587,27.58325,-4.02525,0.05796029,0.72721
540.087,27.5984,-4.02525,0.05530268,0.7268
540.587,27.61368,-4.02596,0.05438818,0.7264
541.087,27.6289,-4.02659,0.04736388,0.726
541.587,27.6441,-4.02658,0.03323768,0.72559
542.087,27.65932,-4.02657,0.04154696,0.72519
542.587,27.67458,-4.02656,0.02446923,0.72479
543.087,27.6898,-4.02657,0.03684431,0.72439
543.587,27.705,-4.02704,0.02269629,0.72399
544.087,27.7203,-4.02789,0.02313314,0.72359
544.587,27.73558,-4.02789,0.01516434,0.72318
545.087,27.7508,-4.02789,0.0002090421,0.72278
545.587,27.766,-4.02788,-0.003653667,0.72238
546.087,27.7812,-4.02833,-0.009848282,0.72198
546.587,27.7965,-4.02927,-0.006784573,0.72159
547.087,27.8117,-4.02921,-0.01719773,0.72119
547.587,27.8269,-4.0292,-0.007732656,0.72079
548.087,27.8422,-4.02919,-0.0219585,0.72039
548.587,27.85752,-4.0294,-0.03108008,0.71999
549.087,27.87285,-4.03024,-0.03618846,0.71959
549.587,27.8881,-4.0302,-0.04451945,0.7192
550.087,27.9034,-4.03048,-0.05318354,0.7188
550.587,27.91869,-4.0315,-0.03817911,0.7184
551.087,27.93396,-4.03151,-0.04955797,0.718
551.587,27.9492,-4.03151,-0.05094779,0.71761
552.087,27.9644,-4.03151,-0.05153538,0.71721
552.587,27.97973,-4.03151,-0.0681413,0.71682
553.087,27.99502,-4.03151,-0.05897523,0.71642
553.587,28.0103,-4.03151,-0.07242131,0.71603
554.087,28.0257,-4.03057,-0.06159824,0.71563
554.587,28.04102,-4.0302,-0.05506836,0.71524
555.087,28.05632,-4.03018,-0.07196882,0.71484
555.587,28.07165,-4.03019,-0.07524273,0.71445
556.087,28.087,-4.03018,-0.06706033,0.71406
556.587,28.10235,-4.03014,-0.07871055,0.71366
557.087,28.11768,-4.03095,-0.08206902,0.71327
557.587,28.13307,-4.03152,-0.07619672,0.71288
558.087,28.1484,-4.03151,-0.07016103,0.71249
558.587,28.1638,-4.03151,-0.0770783,0.7121
559.087,28.17912,-4.03151,-0.07676071,0.71171
559.587,28.1944,-4.03151,-0.08011941,0.71131
560.087,28.2097,-4.03151,-0.07411182,0.71092
560.587,28.22503,-4.03151,-0.07935442,0.71053
561.087,28.24042,-4.03151,-0.09613837,0.71014
561.587,28.25579,-4.03151,-0.08787922,0.70975
562.087,28.27112,-4.03151,-0.08823164,0.70937
562.587,28.28647,-4.03152,-0.08468036,0.70898
563.087,28.30188,-4.03156,-0.0904749,0.70859
563.587,28.31723,-4.03186,-0.09351763,0.7082
564.087,28.33255,-4.03184,-0.08300824,0.70781
564.587,28.34785,-4.03184,-0.07420529,0.70742
565.087,28.36324,-4.03184,-0.09311722,0.70704
565.587,28.37864,-4.03184,-0.07171374,0.70665
566.087,28.39405,-4.03184,-0.08011275,0.70626
566.587,28.4094,-4.03184,-0.08573897,0.70588
567.087,28.4249,-4.03188,-0.07582239,0.70549
567.587,28.44033,-4.03151,-0.07914415,0.70511
568.087,28.4558,-4.03187,-0.08274666,0.70472
568.587,28.4712,-4.03183,-0.0702358,0.70434
569.087,28.48658,-4.03183,-0.0744324,0.70395
569.587,28.50195,-4.03183,-0.08750245,0.70357
570.087,28.51737,-4.03183,-0.09185199,0.70319
570.587,28.5328,-4.03183,-0.07362765,0.7028
571.087,28.54813,-4.03184,-0.07816962,0.70242
571.587,28.56353,-4.03184,-0.0852268,0.70204
572.087,28.57896,-4.03184,-0.07031581,0.70166
572.587,28.5945,-4.03263,-0.07525234,0.70127
573.087,28.6099,-4.03315,-0.08704135,0.70089
573.587,28.62531,-4.03316,-0.09255739,0.70051
574.087,28.64072,-4.03315,-0.07743529,0.70013
574.587,28.6562,-4.03315,-0.071521,0.69975
575.087,28.67163,-4.03315,-0.076015,0.69937
575.587,28.68703,-4.03313,-0.08487143,0.69899
576.087,28.70245,-4.03301,-0.08043682,0.69861
576.587,28.7178,-4.03246,-0.068822,0.69823
577.087,28.73327,-4.03248,-0.08120756,0.69785
577.587,28.74868,-4.03249,-0.06414357,0.69747
578.087,28.7641,-4.03248,-0.07600079,0.6971
578.587,28.77962,-4.03249,-0.06271372,0.69672
579.087,28.7951,-4.03191,-0.06590253,0.69634
579.587,28.81065,-4.03256,-0.06731841,0.69597
580.087,28.8262,-4.03343,-0.0654531,0.69559
580.587,28.84164,-4.03337,-0.06827292,0.69521
581.087,28.85714,-4.03337,-0.08110306,0.69484
581.587,28.87257,-4.03337,-0.07229764,0.69446
582.087,28.888,-4.03337,-0.07909372,0.69409
582.587,28.9035,-4.03337,-0.06407915,0.69371
583.087,28.919,-4.03337,-0.07595256,0.69334
583.587,28.9345,-4.03338,-0.07552782,0.69296
584.087,28.95005,-4.03304,-0.08481844,0.69259
584.587,28.96557,-4.03197,-0.08406754,0.69222
585.087,28.98116,-4.03205,-0.07382366,0.69184
585.587,28.99666,-4.03205,-0.07897516,0.69147
586.087,29.01217,-4.03205,-0.05865624,0.6911
586.587,29.0277,-4.03205,-0.07813708,0.69073
587.087,29.04322,-4.03205,-0.06542252,0.69036
587.587,29.0588,-4.03205,-0.06884172,0.68999
588.087,29.07425,-4.03213,-0.07688507,0.68962
588.587,29.0898,-4.03109,-0.06318226,0.68925
589.087,29.10534,-4.03073,-0.06204891,0.68888
589.587,29.1209,-4.03074,-0.0463749,0.68851
590.087,29.13642,-4.03074,-0.06342625,0.68814
590.587,29.15198,-4.03075,-0.074924,0.68777
591.087,29.1676,-4.03069,-0.06446426,0.6874
591.587,29.18318,-4.03166,-0.05747366,0.68703
592.087,29.1988,-4.03206,-0.05251256,0.68666
592.587,29.2143,-4.03205,-0.05263425,0.6863
593.087,29.2299,-4.03205,-0.04664657,0.68593
593.587,29.24548,-4.03206,-0.05733037,0.68556
594.087,29.26105,-4.03163,-0.04321024,0.6852
594.587,29.27652,-4.03067,-0.05512315,0.68483
595.087,29.29215,-4.03073,-0.05677693,0.68447
595.587,29.3077,-4.03074,-0.05252776,0.6841
596.087,29.32334,-4.03074,-0.04965534,0.68374
596.587,29.33892,-4.03075,-0.05320005,0.68337
597.087,29.35453,-4.03114,-0.04400883,0.68301
597.587,29.3702,-4.03205,-0.04459358,0.68265
598.087,29.3857,-4.03259,-0.03790505,0.68228
598.587,29.4014,-4.03337,-0.0457724,0.68192
599.087,29.417,-4.03337,-0.03450736,0.68156
599.587,29.43255,-4.03338,-0.0428965,0.68119
600.087,29.44815,-4.03333,-0.0238575,0.68083
600.587,29.4638,-4.03433,-0.03107811,0.68047
601.087,29.4795,-4.03468,-0.03893119,0.68011
601.587,29.49509,-4.03468,-0.03540439,0.67975
602.087,29.5107,-4.03468,-0.03618289,0.67939
602.587,29.52634,-4.03465,-0.03105401,0.67903
603.087,29.5419,-4.03454,-0.03041943,0.67867
603.587,29.55755,-4.03339,-0.03391751,0.67831
604.087,29.57317,-4.03337,-0.02349278,0.67795
604.587,29.5888,-4.03337,-0.03287461,0.6776
605.087,29.6044,-4.03337,-0.02307958,0.67724
605.587,29.62,-4.03337,-0.03605571,0.67688
606.087,29.63573,-4.03336,-0.01025812,0.67652
606.587,29.65137,-4.03335,-0.00634897,0.67617
607.087,29.667,-4.03405,-0.02407126,0.67581
607.587,29.68267,-4.03469,-0.01837474,0.67546
608.087,29.69834,-4.03468,-0.01930971,0.6751
608.587,29.71401,-4.03468,-0.01114024,0.67474
609.087,29.7297,-4.03468,-0.01167371,0.67439
609.587,29.7454,-4.03463,-0.00939355,0.67404
610.087,29.76108,-4.03543,0.00275417,0.67368
610.587,29.77673,-4.03603,-0.005148397,0.67333
611.087,29.7924,-4.03599,0.003730807,0.67297
611.587,29.808,-4.03608,-0.000935792,0.67262
612.087,29.8237,-4.0348,-0.00341448,0.67227
612.587,29.83936,-4.03469,-0.01726709,0.67192
613.087,29.855,-4.03469,-0.00152147,0.67157
613.587,29.87071,-4.03469,0.001618228,0.67121
614.087,29.88638,-4.03469,-0.01350441,0.67086
614.587,29.90212,-4.03469,-0.006587755,0.67051
615.087,29.91783,-4.03469,-0.01040952,0.67016
615.587,29.93355,-4.03469,0.006673318,0.66981
616.087,29.94925,-4.03469,-0.004420109,0.66946
616.587,29.9649,-4.03469,-0.00959721,0.66912
617.087,29.98058,-4.03469,0.004740169,0.66877
617.587,29.99605,-4.03469,0.002521448,0.66842
617.687,29.9991,-4.03469,0.01011027,0.66835