File: 01_Data/PP/STA/N2/30K_min/PP_STA_N2_30KData_210827_R3.csv
##Temp./Â°C,Time/min,Mass loss(subtr.2)/mg,DSC(subtr.2)/mW,Sensit./(uV/mW)
48.844,10.00917,-0.00559,0.13608,1.054
49.344,10.94629,-0.0090799,0.2756,1.05401
49.844,11.16939,-0.009187716,0.39121,1.05402
50.344,11.31827,-0.008861207,0.50098,1.05403
50.844,11.43233,-0.008772327,0.60425,1.05404
51.344,11.52994,-0.009498948,0.6916,1.05404
51.844,11.61357,-0.009218984,0.77983,1.05405
52.344,11.68933,-0.009433484,0.86876,1.05406
52.844,11.75837,-0.009118658,0.94545,1.05406
53.344,11.82129,-0.008184198,1.01275,1.05406
53.844,11.88143,-0.008499298,1.08016,1.05406
54.344,11.9377,-0.00770405,1.14148,1.05406
54.844,11.99062,-0.009290539,1.21336,1.05406
55.344,12.04095,-0.00906095,1.26867,1.05406
55.844,12.09034,-0.009142195,1.33325,1.05405
56.344,12.13682,-0.008968686,1.3873,1.05405
56.844,12.18175,-0.009220601,1.44593,1.05404
57.344,12.22626,-0.01003829,1.49382,1.05404
57.844,12.26913,-0.009432185,1.5562,1.05403
58.344,12.31077,-0.008729199,1.61152,1.05402
58.844,12.3512,-0.008451887,1.66283,1.05401
59.344,12.39054,-0.008703782,1.70321,1.05399
59.844,12.42942,-0.008452779,1.74502,1.05398
60.344,12.46739,-0.008719061,1.79435,1.05397
60.844,12.50488,-0.009731217,1.83125,1.05395
61.344,12.54153,-0.009874581,1.8793,1.05393
61.844,12.5776,-0.00950033,1.92121,1.05392
62.344,12.6127,-0.009161882,1.95664,1.0539
62.844,12.64742,-0.008648153,1.9996,1.05388
63.344,12.68205,-0.008857993,2.02524,1.05385
63.844,12.71603,-0.009920448,2.06295,1.05383
64.344,12.74959,-0.00862566,2.09183,1.05381
64.844,12.78275,-0.00752624,2.13018,1.05378
65.344,12.81535,-0.00739649,2.16137,1.05375
65.844,12.8477,-0.009004812,2.1914,1.05373
66.344,12.8798,-0.008763785,2.2151,1.0537
66.844,12.91151,-0.009834295,2.2459,1.05367
67.344,12.94323,-0.009288988,2.26724,1.05363
67.844,12.9745,-0.008420356,2.29703,1.0536
68.344,13.00538,-0.00875245,2.32063,1.05357
68.844,13.03606,-0.0082987,2.33922,1.05353
69.344,13.06643,-0.008832838,2.36338,1.0535
69.844,13.09662,-0.008888606,2.37794,1.05346
70.344,13.12631,-0.00795714,2.4004,1.05342
70.844,13.1561,-0.007339656,2.42207,1.05338
71.344,13.1856,-0.00691394,2.44193,1.05334
71.844,13.2148,-0.0069163,2.46761,1.0533
72.344,13.24364,-0.00642422,2.48213,1.05325
72.844,13.27241,-0.006391416,2.50056,1.05321
73.344,13.301,-0.007554954,2.51978,1.05316
73.844,13.32955,-0.00748272,2.53082,1.05312
74.344,13.3579,-0.007685293,2.5529,1.05307
74.844,13.386,-0.007080296,2.57947,1.05302
75.344,13.4139,-0.007428784,2.5922,1.05297
75.844,13.44155,-0.007760673,2.61376,1.05292
76.344,13.46919,-0.008107199,2.6326,1.05287
76.844,13.4968,-0.00763832,2.65423,1.05281
77.344,13.52401,-0.00763261,2.66847,1.05276
77.844,13.5511,-0.007773185,2.68298,1.0527
78.344,13.5779,-0.008879036,2.7089,1.05264
78.844,13.6047,-0.009416446,2.72124,1.05258
79.344,13.6311,-0.008095187,2.74422,1.05252
79.844,13.65749,-0.007229084,2.75893,1.05246
80.344,13.6837,-0.007227992,2.78062,1.0524
80.844,13.7095,-0.00745467,2.80013,1.05234
81.344,13.7354,-0.00719771,2.82408,1.05227
81.844,13.76118,-0.008079418,2.84818,1.05221
82.344,13.787,-0.009164705,2.86332,1.05214
82.844,13.81238,-0.00929286,2.87983,1.05207
83.344,13.8377,-0.00921605,2.90572,1.052
83.844,13.8627,-0.009363052,2.92736,1.05193
84.344,13.88769,-0.00943167,2.94201,1.05186
84.844,13.91247,-0.008416884,2.96249,1.05179
85.344,13.93711,-0.008333162,2.99071,1.05172
85.844,13.96178,-0.008183288,3.00767,1.05164
86.344,13.9862,-0.007438323,3.02934,1.05157
86.844,14.0107,-0.008252581,3.04644,1.05149
87.344,14.03474,-0.009213914,3.06183,1.05141
87.844,14.0588,-0.009290463,3.07948,1.05133
88.344,14.08252,-0.008928795,3.1031,1.05125
88.844,14.1061,-0.008847344,3.12916,1.05117
89.344,14.1296,-0.00872053,3.14052,1.05109
89.844,14.153,-0.007485289,3.16284,1.051
90.344,14.1763,-0.00832174,3.17894,1.05092
90.844,14.19946,-0.01360758,3.19252,1.05083
91.344,14.2225,-0.02078682,3.21771,1.05074
91.844,14.2454,-0.01512502,3.24208,1.05066
92.344,14.2682,-0.0002494251,3.2688,1.05057
92.844,14.29096,0.002610432,3.29579,1.05048
93.344,14.31355,-0.00399928,3.31036,1.05038
93.844,14.3361,-0.007574588,3.33956,1.05029
94.344,14.35844,-0.00942817,3.35426,1.0502
94.844,14.38061,-0.00894824,3.38303,1.0501
95.344,14.40281,-0.008207261,3.40211,1.05
95.844,14.42477,-0.00890569,3.4245,1.04991
96.344,14.4467,-0.007812225,3.44839,1.04981
96.844,14.4686,-0.009134981,3.46135,1.04971
97.344,14.4903,-0.008947224,3.48326,1.04961
97.844,14.51185,-0.009056762,3.51384,1.04951
98.344,14.5334,-0.009144051,3.52747,1.0494
98.844,14.5549,-0.008053708,3.54752,1.0493
99.344,14.57625,-0.008226725,3.56918,1.04919
99.844,14.5977,-0.007919589,3.60097,1.04909
100.344,14.61881,-0.009558592,3.61218,1.04898
100.844,14.63984,-0.008013341,3.63647,1.04887
101.344,14.66076,-0.009360485,3.66054,1.04876
101.844,14.68164,-0.008101007,3.67782,1.04865
102.344,14.70241,-0.007780561,3.70184,1.04854
102.844,14.72315,-0.008147003,3.71909,1.04843
103.344,14.74385,-0.008826747,3.74551,1.04831
103.844,14.76441,-0.008608135,3.7711,1.0482
104.344,14.785,-0.008954887,3.79391,1.04808
104.844,14.8052,-0.008815517,3.80809,1.04796
105.344,14.8256,-0.0085258,3.83694,1.04785
105.844,14.8459,-0.008638342,3.85816,1.04773
106.344,14.86617,-0.007187284,3.88334,1.04761
106.844,14.8865,-0.007737364,3.90667,1.04748
107.344,14.90678,-0.007357585,3.93156,1.04736
107.844,14.92692,-0.007090345,3.94646,1.04724
108.344,14.94696,-0.00719688,3.97343,1.04711
108.844,14.96689,-0.008411852,3.9963,1.04699
109.344,14.98679,-0.006932931,4.0192,1.04686
109.844,15.0066,-0.00755426,4.04251,1.04673
110.344,15.0263,-0.006809263,4.06377,1.0466
110.844,15.046,-0.00812371,4.08004,1.04647
111.344,15.0655,-0.00710126,4.09911,1.04634
111.844,15.08509,-0.00758035,4.13186,1.04621
112.344,15.1045,-0.006912538,4.14997,1.04607
112.844,15.12396,-0.006801358,4.1763,1.04594
113.344,15.1434,-0.006801354,4.20011,1.0458
113.844,15.16275,-0.00695072,4.22038,1.04567
114.344,15.18203,-0.00828071,4.25143,1.04553
114.844,15.2012,-0.00823042,4.2777,1.04539
115.344,15.2203,-0.008202108,4.30808,1.04525
115.844,15.23939,-0.008879056,4.33525,1.04511
116.344,15.2584,-0.008219515,4.34751,1.04497
116.844,15.27733,-0.00907425,4.38175,1.04482
117.344,15.2963,-0.00837566,4.40211,1.04468
117.844,15.31523,-0.00867112,4.42618,1.04453
118.344,15.3341,-0.008296621,4.45528,1.04439
118.844,15.3529,-0.0082893,4.48402,1.04424
119.344,15.37173,-0.009365843,4.51037,1.04409
119.844,15.3904,-0.00807091,4.53602,1.04394
120.344,15.40906,-0.008760437,4.56743,1.04379
120.844,15.4276,-0.008911261,4.59398,1.04364
121.344,15.4461,-0.007983023,4.62535,1.04349
121.844,15.46455,-0.009293416,4.65087,1.04334
122.344,15.48295,-0.008001415,4.67583,1.04318
122.844,15.5014,-0.008014065,4.69513,1.04302
123.344,15.51985,-0.006667451,4.73521,1.04287
123.844,15.53815,-0.006932708,4.76371,1.04271
124.344,15.55635,-0.00735124,4.80042,1.04255
124.844,15.5746,-0.006639806,4.82219,1.04239
125.344,15.5926,-0.007635367,4.8585,1.04223
125.844,15.6107,-0.008022447,4.89216,1.04207
126.344,15.6287,-0.007037434,4.93011,1.04191
126.844,15.64674,-0.00788524,4.96115,1.04174
127.344,15.66475,-0.007800185,4.99481,1.04158
127.844,15.68268,-0.007955005,5.02564,1.04141
128.344,15.7006,-0.008222063,5.05903,1.04124
128.844,15.7185,-0.008224801,5.10326,1.04108
129.344,15.7363,-0.008103672,5.14688,1.04091
129.844,15.75404,-0.00811262,5.18064,1.04074
130.344,15.77174,-0.008136766,5.22187,1.04057
130.844,15.7894,-0.00743044,5.2686,1.04039
131.344,15.807,-0.006782542,5.29711,1.04022
131.844,15.8246,-0.00712889,5.34998,1.04005
132.344,15.84215,-0.007237379,5.39831,1.03987
132.844,15.8596,-0.006697315,5.43653,1.0397
133.344,15.8771,-0.006614302,5.48283,1.03952
133.844,15.89455,-0.007050016,5.53797,1.03934
134.344,15.91191,-0.00671696,5.58385,1.03916
134.844,15.9293,-0.006688406,5.63339,1.03898
135.344,15.9466,-0.007980413,5.6972,1.0388
135.844,15.96385,-0.00799836,5.74745,1.03862
136.344,15.98112,-0.007448364,5.80131,1.03844
136.844,15.99841,-0.007597055,5.86573,1.03825
137.344,16.01557,-0.008217776,5.9219,1.03807
137.844,16.03271,-0.007602762,5.97517,1.03788
138.344,16.04983,-0.008098843,6.04738,1.03769
138.844,16.06689,-0.008196793,6.11867,1.0375
139.344,16.08391,-0.006861055,6.18153,1.03732
139.844,16.10089,-0.006781549,6.25088,1.03713
140.344,16.11786,-0.007072971,6.32346,1.03693
140.844,16.13478,-0.00705032,6.39918,1.03674
141.344,16.15169,-0.00689208,6.48614,1.03655
141.844,16.16853,-0.00751874,6.55722,1.03636
142.344,16.18538,-0.008357193,6.6434,1.03616
142.844,16.2022,-0.007058091,6.73939,1.03597
143.344,16.219,-0.006889622,6.83008,1.03577
143.844,16.23574,-0.007963092,6.92439,1.03557
144.344,16.25251,-0.007902441,7.04154,1.03537
144.844,16.26925,-0.007891377,7.13783,1.03517
145.344,16.28596,-0.0083487,7.25422,1.03497
145.844,16.30259,-0.007166886,7.36175,1.03477
146.344,16.31927,-0.008444508,7.48211,1.03457
146.844,16.3358,-0.00842631,7.60026,1.03436
147.344,16.35239,-0.008443585,7.73131,1.03416
147.844,16.36898,-0.00843688,7.87623,1.03395
148.344,16.3855,-0.007781092,8.00947,1.03375
148.844,16.40202,-0.00800655,8.15171,1.03354
149.344,16.41849,-0.008447681,8.28971,1.03333
149.844,16.43504,-0.008494129,8.43518,1.03312
150.344,16.45143,-0.007591077,8.58465,1.03291
150.844,16.46784,-0.00733159,8.74445,1.0327
151.344,16.48418,-0.008649435,8.90836,1.03249
151.844,16.5005,-0.008075148,9.07685,1.03228
152.344,16.5168,-0.007955296,9.25165,1.03206
152.844,16.53306,-0.008547299,9.42512,1.03185
153.344,16.54928,-0.008549518,9.60721,1.03163
153.844,16.5655,-0.008645577,9.77792,1.03141
154.344,16.5818,-0.00736348,9.96486,1.0312
154.844,16.59795,-0.00710082,10.14332,1.03098
155.344,16.61413,-0.006661038,10.34037,1.03076
155.844,16.63031,-0.00579626,10.51769,1.03054
156.344,16.64655,-0.00580103,10.70282,1.03032
156.844,16.6627,-0.005800861,10.8957,1.03009
157.344,16.6788,-0.00579925,11.0692,1.02987
157.844,16.69501,-0.005747295,11.23595,1.02965
158.344,16.71112,-0.006611255,11.38959,1.02942
158.844,16.7272,-0.00597807,11.5237,1.02919
159.344,16.74326,-0.005883286,11.64729,1.02897
159.844,16.75929,-0.00713693,11.74497,1.02874
160.344,16.77533,-0.007108601,11.8153,1.02851
160.844,16.79129,-0.00712315,11.8512,1.02828
161.344,16.8073,-0.007166269,11.85752,1.02805
161.844,16.82323,-0.00608643,11.84558,1.02782
162.344,16.83921,-0.006685166,11.78707,1.02759
162.844,16.85509,-0.009440409,11.70032,1.02735
163.344,16.87097,-0.01259885,11.59067,1.02712
163.844,16.88672,-0.01535378,11.44502,1.02688
164.344,16.90251,-0.01285744,11.26934,1.02665
164.844,16.9183,-0.006558855,11.0577,1.02641
165.344,16.93401,-0.00188033,10.83879,1.02617
165.844,16.9497,0.0001181449,10.6021,1.02593
166.344,16.96537,-0.001926435,10.34257,1.02569
166.844,16.98099,-0.003954809,10.10588,1.02545
167.344,16.9966,-0.005412239,9.8505,1.02521
167.844,17.01216,-0.00615138,9.60067,1.02497
168.344,17.02775,-0.00699293,9.33986,1.02473
168.844,17.04329,-0.007465429,9.10703,1.02448
169.344,17.05881,-0.007459913,8.87372,1.02424
169.844,17.0744,-0.007459906,8.6599,1.02399
170.344,17.08985,-0.00746,8.4644,1.02374
170.844,17.10528,-0.00745993,8.26607,1.0235
171.344,17.12069,-0.00745971,8.09365,1.02325
171.844,17.13616,-0.007463546,7.92099,1.023
172.344,17.15156,-0.007484441,7.78255,1.02275
172.844,17.16692,-0.00698663,7.63922,1.0225
173.344,17.18225,-0.006089465,7.50807,1.02225
173.844,17.19758,-0.006144399,7.3848,1.02199
174.344,17.2129,-0.006143904,7.29091,1.02174
174.844,17.2281,-0.00613222,7.20204,1.02148
175.344,17.24336,-0.005925035,7.10826,1.02123
175.844,17.25865,-0.004853918,7.02366,1.02097
176.344,17.2739,-0.0052673,6.96637,1.02072
176.844,17.2891,-0.006139638,6.89877,1.02046
177.344,17.30434,-0.006137453,6.83929,1.0202
177.844,17.31954,-0.006139522,6.78509,1.01994
178.344,17.33469,-0.00622121,6.74573,1.01968
178.844,17.34977,-0.00749094,6.70033,1.01942
179.344,17.36489,-0.007438815,6.67223,1.01916
179.844,17.37996,-0.007460185,6.64358,1.01889
180.344,17.39501,-0.007369348,6.60439,1.01863
180.844,17.4101,-0.00609482,6.58201,1.01836
181.344,17.42512,-0.006160508,6.5551,1.0181
181.844,17.4402,-0.00613963,6.53878,1.01783
182.344,17.4552,-0.006238807,6.53098,1.01756
182.844,17.47025,-0.00750069,6.51748,1.0173
183.344,17.48515,-0.00742822,6.50718,1.01703
183.844,17.50011,-0.00744672,6.49605,1.01676
184.344,17.5151,-0.007503056,6.48313,1.01649
184.844,17.53002,-0.0067204,6.48195,1.01622
185.344,17.54492,-0.006035174,6.46665,1.01594
185.844,17.5598,-0.00684178,6.47227,1.01567
186.344,17.57478,-0.00749574,6.46932,1.0154
186.844,17.58964,-0.007450993,6.47673,1.01512
187.344,17.60454,-0.00744908,6.46925,1.01485
187.844,17.61936,-0.00744999,6.47155,1.01457
188.344,17.63421,-0.007450113,6.47641,1.01429
188.844,17.649,-0.00744996,6.4691,1.01402
189.344,17.66376,-0.00744534,6.47982,1.01374
189.844,17.67856,-0.007456351,6.48478,1.01346
190.344,17.6933,-0.006907694,6.49082,1.01318
190.844,17.708,-0.007396149,6.49066,1.0129
191.344,17.7227,-0.007439202,6.50482,1.01261
191.844,17.7375,-0.007461817,6.51118,1.01233
192.344,17.7522,-0.007460389,6.51505,1.01205
192.844,17.7669,-0.00745995,6.52724,1.01176
193.344,17.78162,-0.00745999,6.5286,1.01148
193.844,17.79638,-0.00746,6.54186,1.01119
194.344,17.81109,-0.007460009,6.55418,1.01091
194.844,17.82573,-0.007459915,6.56211,1.01062
195.344,17.8403,-0.007459745,6.57308,1.01033
195.844,17.85499,-0.007464421,6.58196,1.01004
196.344,17.86962,-0.007464762,6.592,1.00975
196.844,17.88417,-0.00814809,6.60202,1.00946
197.344,17.89876,-0.00844438,6.60777,1.00917
197.844,17.91335,-0.00845811,6.61876,1.00888
198.344,17.928,-0.008179109,6.62733,1.00858
198.844,17.94249,-0.007389795,6.63217,1.00829
199.344,17.95707,-0.00745673,6.65317,1.008
199.844,17.9716,-0.00745105,6.66345,1.0077
200.344,17.98616,-0.007449811,6.67297,1.0074
200.844,18.00072,-0.00744999,6.6784,1.00711
201.344,18.01524,-0.00744988,6.69153,1.00681
201.844,18.02976,-0.007449825,6.70161,1.00651
202.344,18.04419,-0.00745608,6.70651,1.00621
202.844,18.0586,-0.007443061,6.71595,1.00591
203.344,18.07307,-0.007149761,6.72852,1.00561
203.844,18.08746,-0.007345065,6.74343,1.00531
204.344,18.10184,-0.007437448,6.75476,1.00501
204.844,18.11618,-0.007464,6.75751,1.00471
205.344,18.13053,-0.00746042,6.77024,1.0044
205.844,18.145,-0.007458018,6.79093,1.0041
206.344,18.15941,-0.00745894,6.79518,1.00379
206.844,18.17388,-0.00754836,6.80701,1.00349
207.344,18.1883,-0.00654464,6.80354,1.00318
207.844,18.20273,-0.006064135,6.81976,1.00287
208.344,18.21724,-0.00694608,6.83161,1.00257
208.844,18.2316,-0.00745508,6.83935,1.00226
209.344,18.24597,-0.007449021,6.85349,1.00195
209.844,18.26032,-0.007449939,6.8634,1.00164
210.344,18.27468,-0.007450024,6.87383,1.00133
210.844,18.28899,-0.00745,6.88743,1.00101
211.344,18.30331,-0.00745006,6.89916,1.0007
211.844,18.3176,-0.007449811,6.91288,1.00039
212.344,18.33195,-0.00744782,6.91691,1.00007
212.844,18.3462,-0.00746397,6.93306,0.99976
213.344,18.36052,-0.007502857,6.94363,0.99945
213.844,18.37487,-0.008466738,6.95236,0.99913
214.344,18.38915,-0.007451032,6.9762,0.99881
214.844,18.40344,-0.00747944,6.97867,0.99849
215.344,18.4177,-0.007447759,6.98706,0.99818
215.844,18.43194,-0.007449461,7.00393,0.99786
216.344,18.44615,-0.007450094,7.00931,0.99754
216.844,18.46036,-0.00745001,7.02887,0.99722
217.344,18.47459,-0.007449997,7.02757,0.9969
217.844,18.48881,-0.00745,7.03675,0.99658
218.344,18.503,-0.00745,7.0556,0.99625
218.844,18.5171,-0.00745,7.07425,0.99593
219.344,18.5313,-0.00745,7.07903,0.99561
219.844,18.54553,-0.00745,7.08327,0.99528
220.344,18.55975,-0.00745,7.09672,0.99496
220.844,18.574,-0.00745,7.10225,0.99463
221.344,18.5882,-0.00745,7.11817,0.9943
221.844,18.60241,-0.00745,7.11867,0.99398
222.344,18.61661,-0.007449998,7.12624,0.99365
222.844,18.63072,-0.00744999,7.14649,0.99332
223.344,18.64485,-0.00745013,7.15904,0.99299
223.844,18.65895,-0.00744994,7.16522,0.99266
224.344,18.67305,-0.00744459,7.18029,0.99233
224.844,18.6872,-0.007639428,7.18633,0.992
225.344,18.70126,-0.008852926,7.19102,0.99167
225.844,18.71539,-0.00872225,7.20353,0.99134
226.344,18.72951,-0.008747463,7.21331,0.991
226.844,18.7436,-0.007686231,7.22764,0.99067
227.344,18.75764,-0.00779814,7.23622,0.99033
227.844,18.77169,-0.007791836,7.24747,0.99
228.344,18.78576,-0.007789629,7.2598,0.98966
228.844,18.79982,-0.007789987,7.26483,0.98933
229.344,18.81383,-0.00779001,7.27624,0.98899
229.844,18.82786,-0.00779,7.29025,0.98865
230.344,18.8419,-0.00779,7.29203,0.98831
230.844,18.856,-0.00779,7.31035,0.98797
231.344,18.87002,-0.00779,7.31596,0.98763
231.844,18.88404,-0.007789983,7.32726,0.98729
232.344,18.89808,-0.00779004,7.32824,0.98695
232.844,18.91212,-0.007790593,7.34859,0.98661
233.344,18.92616,-0.007786395,7.34789,0.98627
233.844,18.94022,-0.00778005,7.36221,0.98592
234.344,18.95422,-0.008057763,7.37623,0.98558
234.844,18.9682,-0.009068998,7.38613,0.98524
235.344,18.9822,-0.009108394,7.39013,0.98489
235.844,18.9962,-0.008860018,7.39444,0.98455
236.344,19.01015,-0.008774749,7.40756,0.9842
236.844,19.0241,-0.00876753,7.41729,0.98385
237.344,19.0381,-0.008770138,7.42365,0.98351
237.844,19.05203,-0.008770029,7.44213,0.98316
238.344,19.066,-0.00877011,7.43952,0.98281
238.844,19.07997,-0.008770244,7.44948,0.98246
239.344,19.09388,-0.008764184,7.46168,0.98211
239.844,19.10783,-0.008784885,7.47592,0.98176
240.344,19.1217,-0.00832535,7.46827,0.98141
240.844,19.13561,-0.008198683,7.49077,0.98106
241.344,19.1495,-0.007102321,7.49578,0.9807
241.844,19.16346,-0.006793391,7.50916,0.98035
242.344,19.17738,-0.006800615,7.51961,0.98
242.844,19.19131,-0.006800093,7.52513,0.97964
243.344,19.20524,-0.006800105,7.54108,0.97929
243.844,19.21911,-0.006799985,7.55198,0.97893
244.344,19.23301,-0.006794739,7.55707,0.97858
244.844,19.2469,-0.006822148,7.55701,0.97822
245.344,19.26074,-0.006911265,7.55817,0.97786
245.844,19.2746,-0.008055158,7.58385,0.97751
246.344,19.28849,-0.008110854,7.59206,0.97715
246.844,19.30237,-0.008110515,7.59607,0.97679
247.344,19.31621,-0.008109916,7.60143,0.97643
247.844,19.33004,-0.008109995,7.60631,0.97607
248.344,19.3439,-0.008110002,7.6136,0.97571
248.844,19.35772,-0.00811,7.61902,0.97535
249.344,19.37155,-0.00811,7.6309,0.97498
249.844,19.3854,-0.00811,7.64503,0.97462
250.344,19.3992,-0.00811,7.65867,0.97426
250.844,19.41306,-0.008109998,7.65706,0.9739
251.344,19.4269,-0.008110009,7.67283,0.97353
251.844,19.44073,-0.008110043,7.67189,0.97317
252.344,19.45455,-0.008109471,7.68529,0.9728
252.844,19.4684,-0.0081108,7.69386,0.97244
253.344,19.4822,-0.008136633,7.69884,0.97207
253.844,19.496,-0.009161719,7.70393,0.9717
254.344,19.50984,-0.009404991,7.7176,0.97134
254.844,19.52365,-0.009072088,7.7246,0.97097
255.344,19.53746,-0.009102526,7.72803,0.9706
255.844,19.55124,-0.009100583,7.73706,0.97023
256.344,19.56502,-0.00909871,7.75379,0.96986
256.844,19.57878,-0.009100951,7.76093,0.96949
257.344,19.59252,-0.009141409,7.76283,0.96912
257.844,19.60626,-0.008645116,7.76583,0.96875
258.344,19.62002,-0.008102835,7.78441,0.96838
258.844,19.63379,-0.008114298,7.79811,0.968
259.344,19.6476,-0.008109635,7.8017,0.96763
259.844,19.66134,-0.008109928,7.80288,0.96726
260.344,19.6751,-0.008110018,7.81678,0.96688
260.844,19.68885,-0.00811,7.82422,0.96651
261.344,19.70265,-0.008109999,7.82998,0.96613
261.844,19.71639,-0.00811,7.83327,0.96576
262.344,19.73009,-0.00811,7.85141,0.96538
262.844,19.74385,-0.00811,7.85195,0.965
263.344,19.75759,-0.00811,7.85918,0.96463
263.844,19.77137,-0.00811,7.86984,0.96425
264.344,19.7851,-0.00811,7.87483,0.96387
264.844,19.79881,-0.00811,7.88332,0.96349
265.344,19.81253,-0.00811,7.8945,0.96311
265.844,19.82617,-0.00811,7.90535,0.96273
266.344,19.83983,-0.00811,7.90776,0.96235
266.844,19.85354,-0.00811,7.92241,0.96197
267.344,19.8672,-0.00811,7.91995,0.96159
267.844,19.8809,-0.00811,7.92599,0.96121
268.344,19.89461,-0.00811,7.93655,0.96083
268.844,19.90832,-0.00811,7.95207,0.96044
269.344,19.92214,-0.00811,7.95636,0.96006
269.844,19.93587,-0.00811,7.96625,0.95968
270.344,19.94961,-0.00811,7.97146,0.95929
270.844,19.9633,-0.00811,7.97759,0.95891
271.344,19.97701,-0.00811,7.99213,0.95852
271.844,19.99072,-0.00811,7.98795,0.95814
272.344,20.0044,-0.00811,7.99207,0.95775
272.844,20.01807,-0.00811,8.01871,0.95736
273.344,20.03169,-0.00811,8.01056,0.95697
273.844,20.0454,-0.00811,8.02666,0.95659
274.344,20.0591,-0.00811,8.03708,0.9562
274.844,20.07273,-0.008109986,8.03061,0.95581
275.344,20.0864,-0.008110068,8.04457,0.95542
275.844,20.10006,-0.008110161,8.0446,0.95503
276.344,20.11373,-0.008106709,8.06055,0.95464
276.844,20.12744,-0.008120228,8.07406,0.95425
277.344,20.14112,-0.008188779,8.079,0.95386
277.844,20.1548,-0.009210044,8.09257,0.95347
278.344,20.16846,-0.009436399,8.09388,0.95308
278.844,20.1821,-0.009433585,8.10188,0.95268
279.344,20.19579,-0.009429321,8.1071,0.95229
279.844,20.2094,-0.00942999,8.11442,0.9519
280.344,20.2229,-0.009430019,8.11623,0.9515
280.844,20.23656,-0.00943,8.12959,0.95111
281.344,20.25019,-0.009429999,8.13255,0.95071
281.844,20.26381,-0.00943,8.1354,0.95032
282.344,20.27746,-0.00943,8.1469,0.94992
282.844,20.2911,-0.00943,8.14892,0.94953
283.344,20.30486,-0.00943,8.15922,0.94913
283.844,20.31854,-0.00943,8.17187,0.94873
284.344,20.33219,-0.009429999,8.17989,0.94834
284.844,20.34583,-0.009430001,8.19059,0.94794
285.344,20.3595,-0.009430001,8.19345,0.94754
285.844,20.37313,-0.009429943,8.20043,0.94714
286.344,20.3868,-0.009430238,8.19671,0.94674
286.844,20.40042,-0.009430872,8.20364,0.94634
287.344,20.41408,-0.00941708,8.21184,0.94594
287.844,20.42773,-0.00946379,8.21904,0.94554
288.344,20.4414,-0.00858514,8.22994,0.94514
288.844,20.455,-0.008067195,8.23425,0.94474
289.344,20.4686,-0.008111139,8.23677,0.94434
289.844,20.48222,-0.008106701,8.24794,0.94394
290.344,20.4958,-0.00813552,8.25919,0.94353
290.844,20.50946,-0.008127383,8.25769,0.94313
291.344,20.52306,-0.009328712,8.27143,0.94273
291.844,20.53669,-0.009433454,8.27631,0.94232
292.344,20.55041,-0.009430294,8.28806,0.94192
292.844,20.56405,-0.009429873,8.28753,0.94151
293.344,20.57771,-0.00943001,8.29714,0.94111
293.844,20.59137,-0.009430002,8.3035,0.9407
294.344,20.60499,-0.009429999,8.3106,0.9403
294.844,20.61865,-0.00943,8.3079,0.93989
295.344,20.63225,-0.00943,8.32901,0.93948
295.844,20.64588,-0.00943,8.33339,0.93908
296.344,20.65948,-0.00943,8.33424,0.93867
296.844,20.67315,-0.00943,8.34434,0.93826
297.344,20.68678,-0.00943,8.34728,0.93785
297.844,20.70041,-0.00943,8.35143,0.93745
298.344,20.71405,-0.00943,8.35477,0.93704
298.844,20.72767,-0.00943,8.36529,0.93663
299.344,20.7413,-0.00943,8.37792,0.93622
299.844,20.75496,-0.00943,8.37415,0.93581
300.344,20.76856,-0.00943,8.38065,0.9354
300.844,20.78219,-0.00943,8.39042,0.93499
301.344,20.7958,-0.009429995,8.39817,0.93457
301.844,20.80944,-0.009429996,8.3991,0.93416
302.344,20.82311,-0.009430209,8.40176,0.93375
302.844,20.83667,-0.00942909,8.41446,0.93334
303.344,20.8503,-0.009427152,8.41393,0.93292
303.844,20.86385,-0.009476533,8.43016,0.93251
304.344,20.8775,-0.008909253,8.42513,0.9321
304.844,20.89112,-0.00806818,8.43845,0.93168
305.344,20.9047,-0.008124594,8.44145,0.93127
305.844,20.91831,-0.00810534,8.44372,0.93086
306.344,20.93192,-0.008693799,8.46296,0.93044
306.844,20.94554,-0.009718411,8.46611,0.93003
307.344,20.9591,-0.009760046,8.46152,0.92961
307.844,20.97273,-0.009760684,8.47128,0.92919
308.344,20.98635,-0.009759896,8.48054,0.92878
308.844,21,-0.00975999,8.47246,0.92836
309.344,21.01365,-0.009760003,8.49697,0.92794
309.844,21.02727,-0.009759999,8.50473,0.92753
310.344,21.04095,-0.00976,8.50399,0.92711
310.844,21.0546,-0.00976,8.5086,0.92669
311.344,21.0682,-0.00976,8.50796,0.92627
311.844,21.08178,-0.00976,8.52273,0.92585
312.344,21.09538,-0.00976,8.5265,0.92543
312.844,21.109,-0.00976,8.5454,0.92501
313.344,21.12262,-0.00976,8.54494,0.92459
313.844,21.13625,-0.00976,8.54658,0.92417
314.344,21.1499,-0.00976,8.55133,0.92375
314.844,21.1635,-0.00976,8.55635,0.92333
315.344,21.1771,-0.00976,8.56617,0.92291
315.844,21.19075,-0.00976,8.57462,0.92249
316.344,21.20437,-0.00975999,8.57579,0.92207
316.844,21.21795,-0.009760013,8.57979,0.92165
317.344,21.23155,-0.00976015,8.58081,0.92123
317.844,21.24514,-0.00975881,8.59353,0.9208
318.344,21.25875,-0.009761007,8.60209,0.92038
318.844,21.27238,-0.009810582,8.60743,0.91996
319.344,21.28598,-0.01058168,8.61226,0.91953
319.844,21.2996,-0.01074609,8.62404,0.91911
320.344,21.31324,-0.01075439,8.62732,0.91868
320.844,21.32689,-0.01074947,8.63592,0.91826
321.344,21.34054,-0.01074995,8.65062,0.91784
321.844,21.35416,-0.01075002,8.64655,0.91741
322.344,21.36778,-0.01075,8.65777,0.91699
322.844,21.38137,-0.01075,8.66489,0.91656
323.344,21.39498,-0.01075002,8.66406,0.91613
323.844,21.4086,-0.01074998,8.67732,0.91571
324.344,21.42216,-0.01074934,8.68064,0.91528
324.844,21.4358,-0.01075404,8.68436,0.91485
325.344,21.44941,-0.01075222,8.69642,0.91443
325.844,21.46302,-0.01134573,8.70363,0.914
326.344,21.4767,-0.01176083,8.70832,0.91357
326.844,21.4903,-0.0117324,8.71663,0.91314
327.344,21.50393,-0.01172885,8.71982,0.91272
327.844,21.51756,-0.0117301,8.72044,0.91229
328.344,21.53117,-0.01173002,8.72118,0.91186
328.844,21.54482,-0.01173,8.7379,0.91143
329.344,21.5584,-0.01173,8.7406,0.911
329.844,21.57206,-0.01173,8.74391,0.91057
330.344,21.58565,-0.01173,8.75679,0.91014
330.844,21.59927,-0.01173,8.76319,0.90971
331.344,21.61293,-0.01173,8.76993,0.90928
331.844,21.62653,-0.01173,8.77727,0.90885
332.344,21.64014,-0.01173,8.78022,0.90842
332.844,21.6538,-0.01173002,8.79334,0.90799
333.344,21.66739,-0.01172995,8.79523,0.90756
333.844,21.6811,-0.01172963,8.80459,0.90712
334.344,21.6947,-0.01173368,8.79608,0.90669
334.844,21.70838,-0.0117244,8.81123,0.90626
335.344,21.72205,-0.01160138,8.8154,0.90583
335.844,21.73572,-0.01057841,8.81432,0.9054
336.344,21.7494,-0.01042156,8.82861,0.90496
336.844,21.76304,-0.01041632,8.82927,0.90453
337.344,21.7767,-0.01042049,8.84095,0.9041
337.844,21.79032,-0.01042004,8.84624,0.90366
338.344,21.80397,-0.01041998,8.85171,0.90323
338.844,21.81765,-0.01042001,8.85884,0.90279
339.344,21.83126,-0.01042004,8.86337,0.90236
339.844,21.84494,-0.01041964,8.8627,0.90193
340.344,21.8586,-0.0104204,8.86479,0.90149
340.844,21.87236,-0.01043215,8.87398,0.90106
341.344,21.886,-0.01035082,8.8827,0.90062
341.844,21.89965,-0.01147875,8.89043,0.90019
342.344,21.91337,-0.01296537,8.89606,0.89975
342.844,21.92713,-0.01305232,8.89536,0.89931
343.344,21.94081,-0.01305087,8.9077,0.89888
343.844,21.95448,-0.0130432,8.92282,0.89844
344.344,21.96816,-0.01306281,8.92314,0.898
344.844,21.98188,-0.0132638,8.93112,0.89757
345.344,21.99555,-0.01432573,8.94712,0.89713
345.844,22.00917,-0.01436,8.94742,0.89669
346.344,22.02284,-0.01436326,8.96021,0.89626
346.844,22.03654,-0.01434695,8.95924,0.89582
347.344,22.05026,-0.01432025,8.96592,0.89538
347.844,22.06399,-0.01332132,8.96506,0.89494
348.344,22.0777,-0.01303562,8.97467,0.8945
348.844,22.09153,-0.01304034,8.98184,0.89407
349.344,22.10528,-0.01310245,8.98673,0.89363
349.844,22.119,-0.01240408,9.00536,0.89319
350.344,22.1327,-0.01171818,9.00022,0.89275
350.844,22.14643,-0.01284048,9.00238,0.89231
351.344,22.16019,-0.01304205,9.01857,0.89187
351.844,22.1738,-0.01297117,9.01678,0.89143
352.344,22.18757,-0.01388097,9.01636,0.89099
352.844,22.2013,-0.01436611,9.0271,0.89055
353.344,22.21508,-0.01435661,9.03345,0.89011
353.844,22.22885,-0.01436127,9.04386,0.88967
354.344,22.24257,-0.01442713,9.03763,0.88923
354.844,22.25636,-0.01365629,9.05701,0.88879
355.344,22.2701,-0.01304615,9.05362,0.88835
355.844,22.28383,-0.01306561,9.0711,0.88791
356.344,22.29757,-0.01300957,9.07862,0.88747
356.844,22.31128,-0.01383393,9.08187,0.88703
357.344,22.325,-0.01496313,9.08654,0.88659
357.844,22.3388,-0.01567752,9.09443,0.88614
358.344,22.35257,-0.01567717,9.09506,0.8857
358.844,22.3664,-0.01568035,9.10161,0.88526
359.344,22.38022,-0.01567981,9.10824,0.88482
359.844,22.394,-0.0156839,9.11065,0.88438
360.344,22.40785,-0.01567032,9.10616,0.88393
360.844,22.42161,-0.01556414,9.11327,0.88349
361.344,22.43543,-0.01508555,9.12337,0.88305
361.844,22.44921,-0.01512989,9.13599,0.8826
362.344,22.46296,-0.01513191,9.13255,0.88216
362.844,22.4767,-0.01512644,9.13369,0.88172
363.344,22.4905,-0.01511733,9.15158,0.88127
363.844,22.50423,-0.01539975,9.15029,0.88083
364.344,22.51799,-0.01639816,9.15551,0.88039
364.844,22.53182,-0.01642755,9.16619,0.87994
365.344,22.54562,-0.01644207,9.17701,0.8795
365.844,22.55943,-0.01643974,9.17537,0.87906
366.344,22.57325,-0.01646088,9.18484,0.87861
366.844,22.5871,-0.01636055,9.19149,0.87817
367.344,22.6009,-0.01755609,9.20727,0.87772
367.844,22.61475,-0.01776609,9.20544,0.87728
368.344,22.62852,-0.01775979,9.21068,0.87683
368.844,22.64234,-0.01775987,9.21382,0.87639
369.344,22.65617,-0.01776003,9.21448,0.87594
369.844,22.66995,-0.01776002,9.22781,0.8755
370.344,22.68375,-0.01775955,9.23782,0.87505
370.844,22.6976,-0.01776132,9.24786,0.87461
371.344,22.71145,-0.0177759,9.24024,0.87416
371.844,22.7253,-0.01874358,9.24919,0.87372
372.344,22.73913,-0.01908061,9.25634,0.87327
372.844,22.75301,-0.01908656,9.26491,0.87283
373.344,22.76686,-0.01908076,9.27477,0.87238
373.844,22.7807,-0.01908759,9.27368,0.87193
374.344,22.79459,-0.01898677,9.28472,0.87149
374.844,22.80844,-0.01999643,9.29837,0.87104
375.344,22.82231,-0.02039723,9.29746,0.87059
375.844,22.83616,-0.02038881,9.29532,0.87015
376.344,22.85006,-0.02038993,9.30587,0.8697
376.844,22.8639,-0.02039016,9.30615,0.86925
377.344,22.87774,-0.02038967,9.30866,0.86881
377.844,22.89164,-0.02038657,9.3187,0.86836
378.344,22.90556,-0.02050212,9.32446,0.86791
378.844,22.91945,-0.02172544,9.3388,0.86747
379.344,22.9333,-0.0216852,9.35063,0.86702
379.844,22.9472,-0.02170848,9.36487,0.86657
380.344,22.96115,-0.02224313,9.35774,0.86613
380.844,22.97504,-0.02406471,9.37749,0.86568
381.344,22.98891,-0.024353,9.38093,0.86523
381.844,23.00281,-0.0243562,9.40227,0.86478
382.344,23.01673,-0.02434414,9.41004,0.86433
382.844,23.03064,-0.02480619,9.41904,0.86389
383.344,23.04457,-0.02574626,9.4205,0.86344
383.844,23.05852,-0.02565698,9.43277,0.86299
384.344,23.0725,-0.02565569,9.45047,0.86254
384.844,23.08642,-0.0256733,9.451,0.8621
385.344,23.1004,-0.02570393,9.46158,0.86165
385.844,23.1143,-0.02672432,9.47355,0.8612
386.344,23.12819,-0.02698922,9.48586,0.86075
386.844,23.14208,-0.02698469,9.50179,0.8603
387.344,23.156,-0.02697249,9.50367,0.85985
387.844,23.16992,-0.02696697,9.52728,0.85941
388.344,23.1839,-0.02740956,9.53504,0.85896
388.844,23.19785,-0.02828367,9.55654,0.85851
389.344,23.21185,-0.0282864,9.5688,0.85806
389.844,23.22583,-0.02840266,9.57596,0.85761
390.344,23.23985,-0.0297603,9.59731,0.85716
390.844,23.25382,-0.02965036,9.61182,0.85671
391.344,23.26781,-0.03025499,9.62294,0.85626
391.844,23.2818,-0.03134493,9.63643,0.85582
392.344,23.29579,-0.03114191,9.65416,0.85537
392.844,23.30981,-0.03240908,9.6701,0.85492
393.344,23.3238,-0.0328075,9.67643,0.85447
393.844,23.33778,-0.03278439,9.69621,0.85402
394.344,23.3518,-0.03337983,9.71832,0.85357
394.844,23.3658,-0.03417622,9.73472,0.85312
395.344,23.37977,-0.03411223,9.75089,0.85267
395.844,23.39375,-0.03410771,9.76568,0.85222
396.344,23.40776,-0.03411142,9.78742,0.85177
396.844,23.4218,-0.03410593,9.7832,0.85132
397.344,23.4358,-0.03405118,9.81875,0.85087
397.844,23.44978,-0.03481582,9.84425,0.85043
398.344,23.46384,-0.03560244,9.84956,0.84998
398.844,23.4779,-0.03549932,9.86878,0.84953
399.344,23.49186,-0.03647143,9.88506,0.84908
399.844,23.50593,-0.03706608,9.89511,0.84863
400.344,23.51999,-0.03792326,9.90224,0.84818
400.844,23.5341,-0.03867692,9.92953,0.84773
401.344,23.54813,-0.03970468,9.94248,0.84728
401.844,23.56219,-0.04040896,9.95842,0.84683
402.344,23.5763,-0.04269835,9.97984,0.84638
402.844,23.59036,-0.04311996,9.98893,0.84593
403.344,23.60442,-0.04447404,10.00303,0.84548
403.844,23.6185,-0.04487883,10.01304,0.84503
404.344,23.63259,-0.04515054,10.0157,0.84458
404.844,23.6467,-0.04615658,10.02462,0.84413
405.344,23.66081,-0.04619735,10.04311,0.84368
405.844,23.6749,-0.04790018,10.04398,0.84323
406.344,23.68903,-0.04891728,10.05476,0.84278
406.844,23.7031,-0.04999217,10.06927,0.84233
407.344,23.71722,-0.05043605,10.07992,0.84188
407.844,23.73133,-0.05147892,10.08688,0.84143
408.344,23.74548,-0.05230159,10.1038,0.84098
408.844,23.75957,-0.05420961,10.10868,0.84053
409.344,23.77366,-0.05466299,10.11182,0.84008
409.844,23.7878,-0.05603487,10.13386,0.83963
410.344,23.80193,-0.05676087,10.1365,0.83918
410.844,23.81605,-0.05784543,10.14509,0.83874
411.344,23.83016,-0.05856019,10.16458,0.83829
411.844,23.84432,-0.05854893,10.1698,0.83784
412.344,23.85845,-0.05970137,10.18148,0.83739
412.844,23.8726,-0.06011508,10.1834,0.83694
413.344,23.88675,-0.06155146,10.20083,0.83649
413.844,23.9009,-0.06259963,10.20455,0.83604
414.344,23.91506,-0.06392792,10.2271,0.83559
414.844,23.92924,-0.06548738,10.24279,0.83514
415.344,23.94342,-0.06675104,10.25885,0.83469
415.844,23.9576,-0.06756675,10.2689,0.83424
416.344,23.9718,-0.06896502,10.2959,0.83379
416.844,23.98601,-0.06933279,10.30441,0.83334
417.344,24.00018,-0.07074747,10.32427,0.83289
417.844,24.01435,-0.07297543,10.35447,0.83244
418.344,24.0286,-0.0746297,10.37518,0.83199
418.844,24.04281,-0.07643299,10.38729,0.83154
419.344,24.05702,-0.07785953,10.41106,0.83109
419.844,24.07121,-0.07908189,10.4328,0.83064
420.344,24.0854,-0.08056108,10.45358,0.8302
420.844,24.09964,-0.08186918,10.4873,0.82975
421.344,24.11382,-0.0831512,10.50115,0.8293
421.844,24.12804,-0.08447315,10.53156,0.82885
422.344,24.14226,-0.08543767,10.5588,0.8284
422.844,24.1565,-0.08639179,10.594,0.82795
423.344,24.17073,-0.08767968,10.61943,0.8275
423.844,24.18498,-0.08922935,10.64852,0.82705
424.344,24.19921,-0.09093468,10.69008,0.8266
424.844,24.21343,-0.09253023,10.72338,0.82616
425.344,24.22764,-0.09410647,10.75561,0.82571
425.844,24.24188,-0.09735238,10.78541,0.82526
426.344,24.25617,-0.09916385,10.83312,0.82481
426.844,24.2704,-0.10198,10.87527,0.82436
427.344,24.2847,-0.10383,10.91503,0.82391
427.844,24.29897,-0.10627,10.9441,0.82346
428.344,24.3132,-0.10772,10.99645,0.82302
428.844,24.32753,-0.10921,11.04272,0.82257
429.344,24.3418,-0.1113,11.0792,0.82212
429.844,24.356,-0.11363,11.13154,0.82167
430.344,24.3702,-0.11553,11.1798,0.82122
430.844,24.38439,-0.11832,11.22132,0.82077
431.344,24.39857,-0.12032,11.27266,0.82033
431.844,24.4128,-0.12315,11.32805,0.81988
432.344,24.42703,-0.12453,11.38158,0.81943
432.844,24.4414,-0.12663,11.43338,0.81898
433.344,24.4558,-0.12986,11.481,0.81854
433.844,24.47016,-0.13197,11.55335,0.81809
434.344,24.4846,-0.13472,11.60965,0.81764
434.844,24.49905,-0.13795,11.67804,0.81719
435.344,24.51339,-0.14144,11.74912,0.81675
435.844,24.5277,-0.14436,11.82835,0.8163
436.344,24.54212,-0.14791,11.89839,0.81585
436.844,24.55649,-0.15088,11.9727,0.8154
437.344,24.57086,-0.15423,12.0589,0.81496
437.844,24.58521,-0.15752,12.13428,0.81451
438.344,24.59955,-0.16034,12.21497,0.81406
438.844,24.61392,-0.16421,12.31212,0.81362
439.344,24.62827,-0.16773,12.4019,0.81317
439.844,24.64261,-0.1714,12.49025,0.81272
440.344,24.65695,-0.17613,12.59313,0.81228
440.844,24.6713,-0.17948,12.69237,0.81183
441.344,24.6857,-0.18314,12.79702,0.81138
441.844,24.7,-0.1877,12.88237,0.81094
442.344,24.71443,-0.19165,12.9933,0.81049
442.844,24.7288,-0.19642,13.1168,0.81005
443.344,24.7432,-0.20171,13.2343,0.8096
443.844,24.7576,-0.20581,13.3509,0.80916
444.344,24.772,-0.21104,13.48942,0.80871
444.844,24.78639,-0.21652,13.6237,0.80826
445.344,24.80075,-0.22164,13.75942,0.80782
445.844,24.8151,-0.2283,13.8808,0.80737
446.344,24.82929,-0.23367,13.993,0.80693
446.844,24.84358,-0.23914,14.109,0.80648
447.344,24.85794,-0.24603,14.2665,0.80604
447.844,24.87238,-0.25151,14.42775,0.80559
448.344,24.8868,-0.25842,14.5651,0.80515
448.844,24.9013,-0.26541,14.7463,0.8047
449.344,24.91591,-0.27091,14.92266,0.80426
449.844,24.93042,-0.27789,15.09764,0.80382
450.344,24.94491,-0.28583,15.24891,0.80337
450.844,24.95932,-0.29194,15.42237,0.80293
451.344,24.9738,-0.30018,15.59428,0.80248
451.844,24.98824,-0.3079,15.79822,0.80204
452.344,25.0027,-0.3157,15.9989,0.8016
452.844,25.0171,-0.32582,16.16705,0.80115
453.344,25.03163,-0.33369,16.34572,0.80071
453.844,25.0461,-0.34271,16.5782,0.80026
454.344,25.06052,-0.35301,16.80105,0.79982
454.844,25.07495,-0.36072,17.0121,0.79938
455.344,25.08943,-0.37052,17.23605,0.79894
455.844,25.1039,-0.38218,17.444,0.79849
456.344,25.1184,-0.39228,17.6431,0.79805
456.844,25.1328,-0.40481,17.8994,0.79761
457.344,25.1474,-0.41602,18.14518,0.79717
457.844,25.1619,-0.42662,18.4111,0.79672
458.344,25.17641,-0.44028,18.6687,0.79628
458.844,25.1909,-0.4517,18.98536,0.79584
459.344,25.20541,-0.46476,19.24329,0.7954
459.844,25.21988,-0.48125,19.51878,0.79496
460.344,25.2344,-0.49406,19.80657,0.79451
460.844,25.2488,-0.50968,20.10227,0.79407
461.344,25.26331,-0.52729,20.3794,0.79363
461.844,25.27778,-0.5421,20.65672,0.79319
462.344,25.2923,-0.56021,20.87163,0.79275
462.844,25.3067,-0.57773,21.1477,0.79231
463.344,25.32125,-0.59418,21.46486,0.79187
463.844,25.3357,-0.61531,21.67717,0.79143
464.344,25.35024,-0.63277,21.9683,0.79099
464.844,25.36477,-0.65141,22.34555,0.79055
465.344,25.37927,-0.67416,22.69996,0.79011
465.844,25.39382,-0.69113,22.9943,0.78967
466.344,25.40833,-0.71205,23.2547,0.78923
466.844,25.42282,-0.73679,23.54371,0.78879
467.344,25.43734,-0.75688,23.89848,0.78835
467.844,25.45172,-0.78201,24.3447,0.78791
468.344,25.46619,-0.80643,24.67124,0.78747
468.844,25.48067,-0.82856,24.96796,0.78703
469.344,25.49517,-0.85724,25.25284,0.78659
469.844,25.50968,-0.88271,25.5818,0.78616
470.344,25.5242,-0.90954,25.83244,0.78572
470.844,25.53874,-0.94298,26.21175,0.78528
471.344,25.55331,-0.96758,26.4715,0.78484
471.844,25.56782,-0.99703,26.87335,0.7844
472.344,25.58237,-1.03134,27.2469,0.78397
472.844,25.59686,-1.05859,27.57054,0.78353
473.344,25.61136,-1.09339,27.84225,0.78309
473.844,25.62586,-1.12847,28.1017,0.78266
474.344,25.64037,-1.16014,28.3075,0.78222
474.844,25.65486,-1.19486,28.59398,0.78178
475.344,25.66935,-1.23085,28.8209,0.78135
475.844,25.6839,-1.27325,29.042,0.78091
476.344,25.6984,-1.31804,29.3601,0.78047
476.844,25.7129,-1.38088,29.6398,0.78004
477.344,25.7274,-1.41076,29.8628,0.7796
477.844,25.7419,-1.44546,29.9885,0.77917
478.344,25.75637,-1.48899,30.22813,0.77873
478.844,25.77085,-1.53287,30.3786,0.7783
479.344,25.78533,-1.57826,30.5477,0.77786
479.844,25.79982,-1.62516,30.76822,0.77743
480.344,25.81436,-1.67066,30.93,0.77699
480.844,25.82884,-1.71682,30.996,0.77656
481.344,25.8433,-1.76751,31.09253,0.77612
481.844,25.85773,-1.8183,31.27112,0.77569
482.344,25.87226,-1.86745,31.27273,0.77526
482.844,25.88685,-1.91935,31.472,0.77482
483.344,25.9014,-1.97404,31.3907,0.77439
483.844,25.916,-2.04188,31.35071,0.77396
484.344,25.93052,-2.10519,31.26635,0.77352
484.844,25.94513,-2.16499,31.2966,0.77309
485.344,25.95962,-2.225,31.14896,0.77266
485.844,25.974,-2.28593,30.96472,0.77223
486.344,25.98828,-2.34732,30.7021,0.77179
486.844,26.00254,-2.40841,30.4609,0.77136
487.344,26.01681,-2.46843,30.1024,0.77093
487.844,26.031,-2.52598,29.7046,0.7705
488.344,26.04532,-2.57994,29.2598,0.77007
488.844,26.05965,-2.63028,28.7454,0.76964
489.344,26.07414,-2.68022,28.20978,0.76921
489.844,26.08875,-2.73271,27.64245,0.76878
490.344,26.10342,-2.78984,27.06216,0.76834
490.844,26.11818,-2.85143,26.46701,0.76791
491.344,26.13295,-2.91601,25.83095,0.76748
491.844,26.1477,-2.98143,25.12973,0.76706
492.344,26.16234,-3.0462,24.4106,0.76663
492.844,26.17686,-3.10884,23.60663,0.7662
493.344,26.1913,-3.16848,22.75754,0.76577
493.844,26.20564,-3.2249,21.8778,0.76534
494.344,26.21998,-3.27793,20.95336,0.76491
494.844,26.23433,-3.32756,20.00885,0.76448
495.344,26.2487,-3.3717,19.02905,0.76405
495.844,26.2632,-3.40839,18.00999,0.76363
496.344,26.27781,-3.43527,16.98452,0.7632
496.844,26.2925,-3.47058,15.95444,0.76277
497.344,26.3073,-3.50972,14.95009,0.76234
497.844,26.32215,-3.5515,13.93185,0.76192
498.344,26.3371,-3.59722,12.94122,0.76149
498.844,26.3521,-3.63593,11.97654,0.76106
499.344,26.367,-3.6738,11.02918,0.76064
499.844,26.38205,-3.71301,10.12301,0.76021
500.344,26.3971,-3.74395,9.25068,0.75979
500.844,26.41212,-3.76907,8.44096,0.75936
501.344,26.42725,-3.79924,7.69709,0.75894
501.844,26.44237,-3.82297,7.00804,0.75851
502.344,26.45764,-3.84758,6.37487,0.75809
502.844,26.47287,-3.87174,5.81531,0.75766
503.344,26.48818,-3.88932,5.31229,0.75724
503.844,26.50352,-3.90983,4.86856,0.75681
504.344,26.51888,-3.92704,4.49871,0.75639
504.844,26.5343,-3.94293,4.16478,0.75597
505.344,26.5497,-3.95992,3.88584,0.75554
505.844,26.56516,-3.97083,3.63661,0.75512
506.344,26.58062,-3.98272,3.42528,0.7547
506.844,26.5961,-3.99311,3.23573,0.75427
507.344,26.6116,-4.00252,3.07736,0.75385
507.844,26.6271,-4.01284,2.92453,0.75343
508.344,26.64252,-4.01996,2.79426,0.75301
508.844,26.65799,-4.02731,2.65537,0.75259
509.344,26.6734,-4.03506,2.55878,0.75217
509.844,26.6888,-4.04114,2.44103,0.75175
510.344,26.7042,-4.04665,2.33723,0.75132
510.844,26.71955,-4.05069,2.22869,0.7509
511.344,26.73485,-4.05456,2.14468,0.75048
511.844,26.7502,-4.05894,2.0375,0.75006
512.344,26.7655,-4.06176,1.94961,0.74964
512.844,26.78077,-4.0644,1.86339,0.74923
513.344,26.79603,-4.06671,1.77809,0.74881
513.844,26.8113,-4.06965,1.68442,0.74839
514.344,26.8266,-4.0715,1.60587,0.74797
514.844,26.84178,-4.07392,1.51466,0.74755
515.344,26.857,-4.07649,1.44535,0.74713
515.844,26.87215,-4.07746,1.37545,0.74671
516.344,26.8873,-4.07836,1.29789,0.7463
516.844,26.9025,-4.07935,1.23164,0.74588
517.344,26.91767,-4.0801,1.18407,0.74546
517.844,26.93285,-4.08144,1.10655,0.74505
518.344,26.948,-4.08286,1.06123,0.74463
518.844,26.9631,-4.08411,1.01234,0.74421
519.344,26.97823,-4.08399,0.94417,0.7438
519.844,26.9933,-4.08527,0.91038,0.74338
520.344,27.00843,-4.08536,0.85846,0.74297
520.844,27.0235,-4.08536,0.81121,0.74255
521.344,27.03864,-4.08536,0.76884,0.74214
521.844,27.0537,-4.08559,0.75076,0.74172
522.344,27.0689,-4.08667,0.70588,0.74131
522.844,27.08393,-4.08667,0.67181,0.7409
523.344,27.09905,-4.08668,0.63909,0.74048
523.844,27.11416,-4.08668,0.61876,0.74007
524.344,27.1292,-4.08668,0.60327,0.73966
524.844,27.1444,-4.08668,0.57558,0.73924
525.344,27.1595,-4.08668,0.56308,0.73883
525.844,27.1747,-4.08663,0.54123,0.73842
526.344,27.1898,-4.08739,0.52815,0.73801
526.844,27.205,-4.08804,0.50633,0.73759
527.344,27.22008,-4.088,0.49273,0.73718
527.844,27.23517,-4.088,0.48496,0.73677
528.344,27.2503,-4.088,0.47845,0.73636
528.844,27.2654,-4.08799,0.47953,0.73595
529.344,27.2805,-4.08797,0.46849,0.73554
529.844,27.2957,-4.08872,0.45752,0.73513
530.344,27.3109,-4.08816,0.46073,0.73472
530.844,27.32606,-4.08763,0.44146,0.73431
531.344,27.34125,-4.08766,0.44922,0.7339
531.844,27.3564,-4.08766,0.42515,0.7335
532.344,27.3716,-4.08766,0.43182,0.73309
532.844,27.3867,-4.08767,0.4125,0.73268
533.344,27.40188,-4.08778,0.40811,0.73227
533.844,27.41708,-4.08889,0.41126,0.73186
534.344,27.4323,-4.08897,0.40245,0.73146
534.844,27.44748,-4.08898,0.4005,0.73105
535.344,27.4627,-4.08898,0.39209,0.73064
535.844,27.47785,-4.08898,0.38936,0.73024
536.344,27.49308,-4.0889,0.38637,0.72983
536.844,27.50832,-4.08991,0.383,0.72943
537.344,27.5235,-4.08994,0.37003,0.72902
537.844,27.5387,-4.08997,0.36571,0.72862
538.344,27.55391,-4.08998,0.36569,0.72821
538.844,27.5691,-4.08997,0.37002,0.72781
539.344,27.58435,-4.08949,0.36114,0.7274
539.844,27.59954,-4.08865,0.34761,0.727
540.344,27.6148,-4.08864,0.35311,0.7266
540.844,27.6299,-4.08822,0.36066,0.72619
541.344,27.64518,-4.08661,0.34613,0.72579
541.844,27.6604,-4.08577,0.33529,0.72539
542.344,27.67564,-4.08498,0.33633,0.72498
542.844,27.6909,-4.08503,0.31611,0.72458
543.344,27.7061,-4.08503,0.32789,0.72418
543.844,27.7214,-4.08503,0.31666,0.72378
544.344,27.73664,-4.08503,0.33299,0.72338
544.844,27.7519,-4.08503,0.31583,0.72298
545.344,27.7672,-4.08503,0.301,0.72258
545.844,27.78245,-4.08498,0.29973,0.72218
546.344,27.79775,-4.08411,0.29902,0.72178
546.844,27.813,-4.08407,0.28544,0.72138
547.344,27.82831,-4.08405,0.27564,0.72098
547.844,27.8436,-4.08405,0.25187,0.72058
548.344,27.8589,-4.08405,0.26507,0.72018
548.844,27.87418,-4.08405,0.23854,0.71979
549.344,27.8894,-4.08405,0.24601,0.71939
549.844,27.9047,-4.08405,0.23164,0.71899
550.344,27.92,-4.08405,0.23505,0.71859
550.844,27.9353,-4.08405,0.22717,0.7182
551.344,27.9505,-4.08405,0.20551,0.7178
551.844,27.96583,-4.08405,0.21332,0.7174
552.344,27.98112,-4.08405,0.20512,0.71701
552.844,27.99639,-4.08404,0.19809,0.71661
553.344,28.01168,-4.08404,0.19142,0.71622
553.844,28.02696,-4.08404,0.19021,0.71582
554.344,28.0423,-4.08402,0.18411,0.71543
554.844,28.0576,-4.08433,0.17189,0.71504
555.344,28.07295,-4.08436,0.17179,0.71464
555.844,28.08829,-4.08437,0.17457,0.71425
556.344,28.1036,-4.08437,0.15781,0.71386
556.844,28.1189,-4.08437,0.1687,0.71346
557.344,28.1343,-4.08437,0.18075,0.71307
557.844,28.1496,-4.08437,0.17108,0.71268
558.344,28.165,-4.08437,0.18333,0.71229
558.844,28.1803,-4.08437,0.15453,0.7119
559.344,28.1957,-4.08437,0.15014,0.7115
559.844,28.2111,-4.08438,0.1551,0.71111
560.344,28.2264,-4.08547,0.15966,0.71072
560.844,28.24178,-4.08567,0.15502,0.71033
561.344,28.2571,-4.08569,0.15235,0.70994
561.844,28.2725,-4.08569,0.14166,0.70955
562.344,28.28789,-4.08569,0.16261,0.70917
562.844,28.30327,-4.08569,0.14,0.70878
563.344,28.3186,-4.08569,0.15656,0.70839
563.844,28.334,-4.08569,0.15409,0.708
564.344,28.34937,-4.08569,0.16192,0.70761
564.844,28.36468,-4.08579,0.17261,0.70723
565.344,28.38005,-4.08463,0.15571,0.70684
565.844,28.39545,-4.08437,0.15904,0.70645
566.344,28.41082,-4.08437,0.15869,0.70607
566.844,28.42618,-4.08436,0.16051,0.70568
567.344,28.44156,-4.08432,0.16093,0.70529
567.844,28.45692,-4.08514,0.16825,0.70491
568.344,28.47225,-4.0857,0.15784,0.70452
568.844,28.48765,-4.08569,0.15933,0.70414
569.344,28.503,-4.08569,0.15042,0.70376
569.844,28.51843,-4.08569,0.15383,0.70337
570.344,28.53384,-4.08569,0.15433,0.70299
570.844,28.54924,-4.08569,0.14445,0.70261
571.344,28.56467,-4.0856,0.1489,0.70222
571.844,28.58,-4.08675,0.16361,0.70184
572.344,28.59545,-4.08702,0.16544,0.70146
572.844,28.6109,-4.08701,0.1652,0.70108
573.344,28.62632,-4.08701,0.16329,0.7007
573.844,28.64183,-4.08701,0.16595,0.70032
574.344,28.65724,-4.08701,0.16429,0.69993
574.844,28.67268,-4.08701,0.17402,0.69955
575.344,28.68812,-4.08701,0.16236,0.69917
575.844,28.7036,-4.08709,0.15417,0.69879
576.344,28.719,-4.08604,0.16303,0.69842
576.844,28.7344,-4.08568,0.16575,0.69804
577.344,28.7499,-4.08569,0.16694,0.69766
577.844,28.7653,-4.08569,0.16436,0.69728
578.344,28.78078,-4.08569,0.17623,0.6969
578.844,28.79628,-4.08569,0.17399,0.69653
579.344,28.8118,-4.08569,0.16781,0.69615
579.844,28.82725,-4.08569,0.1698,0.69577
580.344,28.84273,-4.08565,0.15877,0.6954
580.844,28.8582,-4.08604,0.17632,0.69502
581.344,28.8737,-4.08516,0.16568,0.69464
581.844,28.8892,-4.08525,0.17582,0.69427
582.344,28.90467,-4.08524,0.17706,0.69389
582.844,28.9201,-4.08523,0.18104,0.69352
583.344,28.93559,-4.08588,0.18297,0.69315
583.844,28.95105,-4.08606,0.16443,0.69277
584.344,28.96658,-4.08521,0.1791,0.6924
584.844,28.9821,-4.08537,0.17499,0.69203
585.344,28.99754,-4.08651,0.17216,0.69165
585.844,29.01306,-4.08656,0.18375,0.69128
586.344,29.0286,-4.08657,0.17468,0.69091
586.844,29.0441,-4.08657,0.17962,0.69054
587.344,29.05957,-4.08657,0.18829,0.69017
587.844,29.0751,-4.08658,0.19508,0.6898
588.344,29.0906,-4.0861,0.18993,0.68943
588.844,29.10618,-4.08519,0.2031,0.68906
589.344,29.1217,-4.08524,0.18562,0.68869
589.844,29.13725,-4.08525,0.18979,0.68832
590.344,29.1528,-4.08525,0.18316,0.68795
590.844,29.16832,-4.08525,0.18914,0.68758
591.344,29.18388,-4.08525,0.19148,0.68721
591.844,29.1994,-4.08525,0.18459,0.68684
592.344,29.215,-4.08534,0.18906,0.68648
592.844,29.2306,-4.08663,0.19232,0.68611
593.344,29.2461,-4.08655,0.19963,0.68574
593.844,29.2617,-4.08657,0.19861,0.68538
594.344,29.2772,-4.08658,0.19875,0.68501
594.844,29.29278,-4.08664,0.21001,0.68464
595.344,29.30835,-4.08566,0.20055,0.68428
595.844,29.32392,-4.08549,0.2069,0.68391
596.344,29.33952,-4.08658,0.21334,0.68355
596.844,29.3551,-4.08654,0.21375,0.68319
597.344,29.37067,-4.08651,0.21739,0.68282
597.844,29.3863,-4.08538,0.20804,0.68246
598.344,29.40186,-4.08526,0.21274,0.6821
598.844,29.4174,-4.08525,0.21406,0.68173
599.344,29.43297,-4.08525,0.21108,0.68137
599.844,29.44857,-4.08525,0.2175,0.68101
600.344,29.4642,-4.0853,0.21747,0.68065
600.844,29.4798,-4.08453,0.21587,0.68029
601.344,29.4955,-4.08389,0.20484,0.67993
601.844,29.51115,-4.08394,0.22788,0.67957
602.344,29.52675,-4.08368,0.22122,0.67921
602.844,29.5424,-4.08362,0.22447,0.67885
603.344,29.558,-4.08361,0.21573,0.67849
603.844,29.57355,-4.08361,0.23379,0.67813
604.344,29.58904,-4.08361,0.22626,0.67777
604.844,29.6047,-4.08352,0.23961,0.67741
605.344,29.62035,-4.08469,0.23157,0.67705
605.844,29.63595,-4.08493,0.2346,0.6767
606.344,29.6516,-4.08493,0.25117,0.67634
606.844,29.6673,-4.08493,0.23581,0.67598
607.344,29.68305,-4.08498,0.24302,0.67563
607.844,29.6987,-4.0843,0.24723,0.67527
608.344,29.7144,-4.08392,0.24976,0.67492
608.844,29.7301,-4.08394,0.24585,0.67456
609.344,29.7458,-4.08395,0.25268,0.67421
609.844,29.7615,-4.08404,0.26245,0.67385
610.344,29.77717,-4.08515,0.2591,0.6735
610.844,29.79283,-4.08494,0.24316,0.67315
611.344,29.80852,-4.08382,0.25239,0.67279
611.844,29.82419,-4.08327,0.2482,0.67244
612.344,29.8398,-4.08204,0.23009,0.67209
612.844,29.8555,-4.08068,0.22869,0.67174
613.344,29.8712,-4.08026,0.22636,0.67139
613.844,29.8869,-4.07873,0.23258,0.67103
614.344,29.90264,-4.07743,0.24645,0.67068
614.844,29.91838,-4.07582,0.23486,0.67033
615.344,29.9341,-4.07556,0.23788,0.66998
615.844,29.9498,-4.07449,0.24356,0.66963
616.344,29.9656,-4.07442,0.2454,0.66929
616.844,29.98125,-4.07299,0.24404,0.66894
617.344,29.9969,-4.0731,0.23095,0.66859