File: 01_Data/PP/STA/N2/30K_min/PP_STA_N2_30KData_210826_R1.csv
##Temp./Â°C,Time/min,Mass loss(subtr.2)/mg,DSC(subtr.2)/mW,Sensit./(uV/mW)
49.15,10.00917,-0.02237,0.03257322,1.054
49.65,10.95342,-0.02481931,0.14316,1.05401
50.15,11.1754,-0.02613685,0.25879,1.05402
50.65,11.32188,-0.02578343,0.34472,1.05403
51.15,11.43478,-0.02536285,0.43508,1.05404
51.65,11.53011,-0.02747095,0.51588,1.05405
52.15,11.61457,-0.0248292,0.57849,1.05405
52.65,11.68934,-0.02533748,0.65156,1.05406
53.15,11.75827,-0.02449071,0.71313,1.05406
53.65,11.82189,-0.0247752,0.77657,1.05406
54.15,11.88088,-0.02555416,0.84148,1.05406
54.65,11.9368,-0.02501265,0.90162,1.05406
55.15,11.98991,-0.02422388,0.95771,1.05406
55.65,12.04033,-0.02458146,1.00441,1.05406
56.15,12.0887,-0.02411016,1.05576,1.05405
56.65,12.1356,-0.02593447,1.11043,1.05405
57.15,12.18104,-0.02673596,1.15855,1.05404
57.65,12.22476,-0.02619998,1.20516,1.05403
58.15,12.2674,-0.02542725,1.24693,1.05402
58.65,12.3088,-0.02632599,1.29171,1.05401
59.15,12.34902,-0.02611397,1.34841,1.054
59.65,12.38826,-0.02698676,1.38101,1.05399
60.15,12.42687,-0.02770489,1.41588,1.05397
60.65,12.46453,-0.02716269,1.46408,1.05396
61.15,12.50186,-0.02650484,1.49887,1.05394
61.65,12.5382,-0.02623841,1.53553,1.05392
62.15,12.57393,-0.02786453,1.56567,1.0539
62.65,12.6096,-0.02855444,1.59167,1.05388
63.15,12.64428,-0.02962809,1.63035,1.05386
63.65,12.67854,-0.02907882,1.66999,1.05384
64.15,12.7128,-0.02918956,1.70016,1.05382
64.65,12.74647,-0.02966258,1.73122,1.05379
65.15,12.77972,-0.02871351,1.76525,1.05376
65.65,12.8121,-0.02915481,1.77949,1.05374
66.15,12.8445,-0.02828142,1.8033,1.05371
66.65,12.8763,-0.02819831,1.83248,1.05368
67.15,12.90809,-0.02841394,1.85538,1.05365
67.65,12.9396,-0.02797101,1.88485,1.05361
68.15,12.97083,-0.02789823,1.90123,1.05358
68.65,13.00176,-0.02756107,1.92359,1.05355
69.15,13.03224,-0.02645375,1.94249,1.05351
69.65,13.06255,-0.02503481,1.96502,1.05347
70.15,13.09256,-0.02690248,1.98754,1.05344
70.65,13.12231,-0.02705136,2.005,1.0534
71.15,13.152,-0.02697598,2.02505,1.05336
71.65,13.1817,-0.02677457,2.03816,1.05331
72.15,13.21127,-0.02667224,2.0656,1.05327
72.65,13.24027,-0.02722377,2.08155,1.05323
73.15,13.269,-0.02807894,2.09138,1.05318
73.65,13.2975,-0.02818988,2.1141,1.05314
74.15,13.32593,-0.02786021,2.12088,1.05309
74.65,13.35404,-0.0279006,2.13912,1.05304
75.15,13.38205,-0.02718063,2.15193,1.05299
75.65,13.4099,-0.026761,2.16842,1.05294
76.15,13.4376,-0.02759604,2.19327,1.05289
76.65,13.465,-0.0283851,2.20583,1.05283
77.15,13.4922,-0.02802665,2.21275,1.05278
77.65,13.5193,-0.02764112,2.24239,1.05272
78.15,13.54633,-0.02747502,2.26559,1.05267
78.65,13.5733,-0.02769713,2.27865,1.05261
79.15,13.60014,-0.02768029,2.28869,1.05255
79.65,13.62679,-0.02801266,2.30923,1.05249
80.15,13.65308,-0.02920431,2.32355,1.05243
80.65,13.6793,-0.02972656,2.34041,1.05236
81.15,13.7052,-0.02948029,2.36331,1.0523
81.65,13.731,-0.02856673,2.37952,1.05223
82.15,13.7567,-0.02917575,2.39717,1.05217
82.65,13.78222,-0.0297791,2.40378,1.0521
83.15,13.8076,-0.02946597,2.42749,1.05203
83.65,13.83298,-0.0281018,2.44534,1.05196
84.15,13.85803,-0.02789045,2.46047,1.05189
84.65,13.883,-0.02837504,2.47745,1.05182
85.15,13.9078,-0.02954202,2.50549,1.05175
85.65,13.9325,-0.03037261,2.52218,1.05167
86.15,13.95715,-0.02971867,2.52874,1.0516
86.65,13.98158,-0.03017804,2.54445,1.05152
87.15,14.0058,-0.03009572,2.5705,1.05144
87.65,14.0299,-0.02887366,2.59425,1.05136
88.15,14.05385,-0.02904205,2.60509,1.05128
88.65,14.0776,-0.02926231,2.62492,1.0512
89.15,14.10089,-0.02936815,2.63792,1.05112
89.65,14.1243,-0.02916645,2.65953,1.05104
90.15,14.14761,-0.0290024,2.67851,1.05095
90.65,14.17105,-0.03011228,2.69078,1.05086
91.15,14.19449,-0.03063875,2.70454,1.05078
91.65,14.2176,-0.02977651,2.73007,1.05069
92.15,14.24053,-0.0303947,2.74252,1.0506
92.65,14.26343,-0.03075471,2.77039,1.05051
93.15,14.28612,-0.0304483,2.78359,1.05042
93.65,14.30874,-0.02932319,2.80661,1.05033
94.15,14.3313,-0.03048096,2.81111,1.05023
94.65,14.35353,-0.02967449,2.84108,1.05014
95.15,14.3758,-0.03061932,2.87052,1.05004
95.65,14.3979,-0.02914671,2.87867,1.04995
96.15,14.42,-0.028433,2.9,1.04985
96.65,14.442,-0.02912758,2.92011,1.04975
97.15,14.46389,-0.02906615,2.94185,1.04965
97.65,14.4856,-0.02944784,2.96342,1.04955
98.15,14.5071,-0.02962325,2.97487,1.04944
98.65,14.52852,-0.02962191,2.99898,1.04934
99.15,14.55,-0.03115373,3.0104,1.04924
99.65,14.57131,-0.02991265,3.03199,1.04913
100.15,14.5926,-0.02979526,3.04651,1.04902
100.65,14.61379,-0.03086937,3.066,1.04891
101.15,14.6348,-0.03051662,3.09063,1.0488
101.65,14.65575,-0.03158433,3.1125,1.04869
102.15,14.67665,-0.0298747,3.12284,1.04858
102.65,14.6975,-0.03043004,3.14151,1.04847
103.15,14.71835,-0.0302055,3.16047,1.04836
103.65,14.73901,-0.03116658,3.18703,1.04824
104.15,14.75966,-0.03009844,3.21189,1.04813
104.65,14.78023,-0.03040285,3.22306,1.04801
105.15,14.80071,-0.03084258,3.22763,1.04789
105.65,14.8212,-0.02997022,3.25532,1.04777
106.15,14.84154,-0.03159233,3.28075,1.04765
106.65,14.86183,-0.03057799,3.30272,1.04753
107.15,14.882,-0.03136777,3.32103,1.04741
107.65,14.90206,-0.02956746,3.34754,1.04729
108.15,14.9221,-0.03109523,3.36471,1.04716
108.65,14.9421,-0.03005182,3.3766,1.04704
109.15,14.96204,-0.03054101,3.39317,1.04691
109.65,14.9819,-0.03005957,3.41185,1.04678
110.15,15.0017,-0.03147449,3.44445,1.04665
110.65,15.0213,-0.03014011,3.45593,1.04652
111.15,15.04098,-0.03137189,3.4773,1.04639
111.65,15.0605,-0.03185921,3.49365,1.04626
112.15,15.08,-0.03162033,3.52375,1.04613
112.65,15.09942,-0.0312619,3.54119,1.04599
113.15,15.1189,-0.03025601,3.56734,1.04586
113.65,15.13819,-0.03127977,3.57595,1.04572
114.15,15.15753,-0.03266766,3.59706,1.04558
114.65,15.1768,-0.03332062,3.62414,1.04544
115.15,15.196,-0.03335667,3.64142,1.0453
115.65,15.21521,-0.03307673,3.66264,1.04516
116.15,15.23439,-0.03256648,3.6811,1.04502
116.65,15.25345,-0.03292497,3.70926,1.04488
117.15,15.27244,-0.03264716,3.72784,1.04474
117.65,15.29129,-0.03146353,3.75387,1.04459
118.15,15.31011,-0.03288998,3.77256,1.04445
118.65,15.3289,-0.03148425,3.78531,1.0443
119.15,15.3476,-0.03180286,3.81555,1.04415
119.65,15.3664,-0.03133583,3.83937,1.044
120.15,15.38519,-0.0313014,3.86354,1.04385
120.65,15.4038,-0.03122953,3.88828,1.0437
121.15,15.4225,-0.03223383,3.90372,1.04355
121.65,15.44096,-0.03140055,3.93416,1.04339
122.15,15.4594,-0.03149199,3.94934,1.04324
122.65,15.4778,-0.03285174,3.97636,1.04309
123.15,15.4961,-0.03143836,4.00947,1.04293
123.65,15.51445,-0.03161106,4.03334,1.04277
124.15,15.53271,-0.03107193,4.06335,1.04261
124.65,15.55093,-0.03102847,4.08921,1.04245
125.15,15.56911,-0.02984022,4.12538,1.04229
125.65,15.58738,-0.02983644,4.15027,1.04213
126.15,15.60547,-0.03083075,4.17943,1.04197
126.65,15.62355,-0.03112475,4.21393,1.04181
127.15,15.64161,-0.03115109,4.24352,1.04164
127.65,15.6595,-0.03116113,4.26285,1.04148
128.15,15.67738,-0.03092061,4.30105,1.04131
128.65,15.69527,-0.03095486,4.33365,1.04114
129.15,15.71305,-0.03119374,4.36869,1.04097
129.65,15.7308,-0.02985181,4.40708,1.0408
130.15,15.7486,-0.0305557,4.44073,1.04063
130.65,15.7663,-0.03129135,4.47649,1.04046
131.15,15.78394,-0.03220897,4.50944,1.04029
131.65,15.8016,-0.03221731,4.5444,1.04011
132.15,15.81916,-0.03279974,4.58889,1.03994
132.65,15.8367,-0.03287166,4.62341,1.03976
133.15,15.85426,-0.03154064,4.6658,1.03959
133.65,15.87176,-0.03147914,4.70865,1.03941
134.15,15.8892,-0.03181311,4.75365,1.03923
134.65,15.90661,-0.03301379,4.79961,1.03905
135.15,15.924,-0.03187608,4.8432,1.03887
135.65,15.9413,-0.03216784,4.87984,1.03869
136.15,15.95858,-0.03230871,4.9362,1.03851
136.65,15.97586,-0.03157366,4.98057,1.03832
137.15,15.99305,-0.03177587,5.03922,1.03814
137.65,16.01031,-0.03293547,5.09015,1.03795
138.15,16.02745,-0.03294347,5.1435,1.03777
138.65,16.0445,-0.03182645,5.20779,1.03758
139.15,16.06161,-0.03160261,5.26826,1.03739
139.65,16.07864,-0.03158936,5.32724,1.0372
140.15,16.09555,-0.03160058,5.39348,1.03701
140.65,16.1125,-0.03160003,5.46194,1.03682
141.15,16.12945,-0.03159996,5.52923,1.03662
141.65,16.1464,-0.03041234,5.60814,1.03643
142.15,16.1633,-0.03152392,5.67959,1.03624
142.65,16.1802,-0.03159117,5.75175,1.03604
143.15,16.19705,-0.0314085,5.83562,1.03584
143.65,16.21384,-0.03020124,5.91951,1.03565
144.15,16.23056,-0.0303735,6.01392,1.03545
144.65,16.24728,-0.03158927,6.10916,1.03525
145.15,16.26397,-0.03039781,6.2041,1.03505
145.65,16.28066,-0.03046376,6.3021,1.03485
146.15,16.2974,-0.03136225,6.41351,1.03465
146.65,16.314,-0.03077161,6.52557,1.03444
147.15,16.3306,-0.0305064,6.63505,1.03424
147.65,16.3472,-0.03041032,6.74818,1.03403
148.15,16.36373,-0.03171976,6.85876,1.03383
148.65,16.38025,-0.03176916,6.99487,1.03362
149.15,16.3967,-0.03061511,7.11805,1.03341
149.65,16.41324,-0.0307143,7.25258,1.0332
150.15,16.42971,-0.03183552,7.38742,1.03299
150.65,16.44611,-0.03181132,7.53183,1.03278
151.15,16.46256,-0.03181971,7.69101,1.03257
151.65,16.4789,-0.03181017,7.8475,1.03236
152.15,16.49531,-0.03181024,7.99651,1.03214
152.65,16.5117,-0.03181002,8.1595,1.03193
153.15,16.52797,-0.03180999,8.31534,1.03171
153.65,16.5442,-0.03180977,8.47289,1.0315
154.15,16.5605,-0.03180916,8.62887,1.03128
154.65,16.57674,-0.03196442,8.78566,1.03106
155.15,16.59291,-0.03304635,8.95212,1.03084
155.65,16.60913,-0.03181085,9.09764,1.03062
156.15,16.62535,-0.03180705,9.25442,1.0304
156.65,16.64157,-0.03172578,9.39108,1.03018
157.15,16.65772,-0.03177204,9.53719,1.02996
157.65,16.67385,-0.0318085,9.68366,1.02973
158.15,16.6899,-0.03182058,9.82206,1.02951
158.65,16.706,-0.03168858,9.95676,1.02928
159.15,16.72192,-0.03040997,10.07499,1.02906
159.65,16.73795,-0.0305058,10.1791,1.02883
160.15,16.75393,-0.03050265,10.25097,1.0286
160.65,16.76996,-0.03050193,10.30541,1.02837
161.15,16.786,-0.03045045,10.33544,1.02814
161.65,16.80195,-0.03137702,10.3293,1.02791
162.15,16.818,-0.03182119,10.2918,1.02768
162.65,16.8339,-0.03179975,10.23299,1.02744
163.15,16.84979,-0.03178656,10.15316,1.02721
163.65,16.8656,-0.03080587,10.04188,1.02697
164.15,16.88141,-0.03072088,9.90414,1.02674
164.65,16.89719,-0.03051347,9.73717,1.0265
165.15,16.913,-0.02990768,9.56544,1.02626
165.65,16.92875,-0.03039513,9.37945,1.02603
166.15,16.94448,-0.03134349,9.1756,1.02579
166.65,16.9602,-0.03179602,8.96827,1.02555
167.15,16.9758,-0.03180867,8.7567,1.02531
167.65,16.99148,-0.03236878,8.54112,1.02506
168.15,17.00708,-0.03298518,8.32868,1.02482
168.65,17.02264,-0.03172196,8.10805,1.02458
169.15,17.03824,-0.03181081,7.89903,1.02433
169.65,17.0537,-0.03262085,7.70498,1.02409
170.15,17.0692,-0.03312948,7.50867,1.02384
170.65,17.08465,-0.03313594,7.31944,1.02359
171.15,17.1001,-0.03312992,7.15407,1.02334
171.65,17.11555,-0.03313694,6.98623,1.0231
172.15,17.13094,-0.03263335,6.84959,1.02285
172.65,17.1464,-0.03176634,6.71541,1.0226
173.15,17.16176,-0.03181366,6.57925,1.02234
173.65,17.17708,-0.03182059,6.46295,1.02209
174.15,17.19241,-0.03181814,6.35632,1.02184
174.65,17.20767,-0.03182762,6.2713,1.02158
175.15,17.22295,-0.03195832,6.17995,1.02133
175.65,17.2382,-0.03185626,6.09058,1.02107
176.15,17.2535,-0.03145475,6.02478,1.02082
176.65,17.26882,-0.0314822,5.95629,1.02056
177.15,17.28398,-0.03163857,5.89735,1.0203
177.65,17.29925,-0.03180955,5.8495,1.02004
178.15,17.31447,-0.03181226,5.79389,1.01978
178.65,17.3296,-0.03181001,5.75154,1.01952
179.15,17.3447,-0.03181177,5.71264,1.01926
179.65,17.35981,-0.03181288,5.68028,1.01899
180.15,17.37494,-0.03171422,5.64211,1.01873
180.65,17.38995,-0.0328616,5.61489,1.01847
181.15,17.405,-0.0331338,5.58882,1.0182
181.65,17.4201,-0.03312576,5.56403,1.01794
182.15,17.43504,-0.03217288,5.54758,1.01767
182.65,17.45008,-0.03182193,5.53194,1.0174
183.15,17.46508,-0.03180245,5.51967,1.01713
183.65,17.48009,-0.03180493,5.50708,1.01686
184.15,17.49502,-0.0308647,5.49416,1.01659
184.65,17.50996,-0.03051417,5.48816,1.01632
185.15,17.5249,-0.03143684,5.47787,1.01605
185.65,17.5398,-0.03181089,5.47816,1.01578
186.15,17.55472,-0.03182617,5.47005,1.0155
186.65,17.56955,-0.03182007,5.46908,1.01523
187.15,17.58444,-0.0318219,5.46627,1.01495
187.65,17.59928,-0.03182053,5.46411,1.01468
188.15,17.61414,-0.0317177,5.47396,1.0144
188.65,17.629,-0.03279083,5.46496,1.01412
189.15,17.64374,-0.03212315,5.46814,1.01384
189.65,17.6586,-0.03178913,5.4652,1.01357
190.15,17.67342,-0.03280863,5.47256,1.01329
190.65,17.6882,-0.03313917,5.47372,1.013
191.15,17.70293,-0.03313392,5.48209,1.01272
191.65,17.7177,-0.03312938,5.4895,1.01244
192.15,17.73249,-0.03312531,5.49299,1.01216
192.65,17.74723,-0.03315051,5.49736,1.01187
193.15,17.76193,-0.03334995,5.50531,1.01159
193.65,17.77668,-0.03442105,5.50675,1.0113
194.15,17.79141,-0.03443244,5.51189,1.01102
194.65,17.8061,-0.03448941,5.52092,1.01073
195.15,17.82075,-0.03363854,5.5335,1.01044
195.65,17.83535,-0.03209628,5.54047,1.01015
196.15,17.84996,-0.03181794,5.55335,1.00986
196.65,17.8645,-0.03182978,5.55796,1.00957
197.15,17.87908,-0.03180512,5.55679,1.00928
197.65,17.8937,-0.03303999,5.56724,1.00899
198.15,17.90822,-0.03312143,5.5766,1.0087
198.65,17.92286,-0.03312566,5.58779,1.0084
199.15,17.93747,-0.03310092,5.59262,1.00811
199.65,17.9521,-0.03288299,5.59747,1.00781
200.15,17.96665,-0.03185212,5.60716,1.00752
200.65,17.9812,-0.03196365,5.61353,1.00722
201.15,17.99576,-0.03309805,5.62846,1.00693
201.65,18.0103,-0.03312894,5.6325,1.00663
202.15,18.02479,-0.03313044,5.63436,1.00633
202.65,18.0393,-0.03313,5.6453,1.00603
203.15,18.05378,-0.03313088,5.65391,1.00573
203.65,18.0683,-0.03312833,5.6662,1.00543
204.15,18.08278,-0.03309226,5.66922,1.00513
204.65,18.09725,-0.03363082,5.68216,1.00482
205.15,18.11166,-0.03449643,5.68591,1.00452
205.65,18.12612,-0.03444151,5.69269,1.00422
206.15,18.14055,-0.03444937,5.71034,1.00391
206.65,18.15498,-0.03445022,5.71528,1.00361
207.15,18.1694,-0.03445,5.72239,1.0033
207.65,18.18381,-0.03444998,5.73542,1.00299
208.15,18.19825,-0.03445001,5.74409,1.00269
208.65,18.21262,-0.03445034,5.75033,1.00238
209.15,18.22705,-0.03444848,5.76174,1.00207
209.65,18.24142,-0.03443484,5.77109,1.00176
210.15,18.2558,-0.03341755,5.78179,1.00145
210.65,18.27005,-0.03314166,5.78232,1.00114
211.15,18.28434,-0.03312361,5.79735,1.00082
211.65,18.29869,-0.03313016,5.80275,1.00051
212.15,18.31295,-0.03313038,5.8189,1.0002
212.65,18.32722,-0.03312905,5.81611,0.99988
213.15,18.34155,-0.03312219,5.82624,0.99957
213.65,18.35584,-0.03319079,5.84102,0.99925
214.15,18.3702,-0.03240728,5.85577,0.99894
214.65,18.38449,-0.03215043,5.86093,0.99862
215.15,18.39881,-0.03212123,5.87207,0.9983
215.65,18.41316,-0.03335275,5.88432,0.99798
216.15,18.4274,-0.03345227,5.87842,0.99766
216.65,18.4418,-0.03345044,5.89293,0.99734
217.15,18.45598,-0.03345001,5.89903,0.99702
217.65,18.47022,-0.03345026,5.90498,0.9967
218.15,18.48443,-0.03344509,5.92242,0.99638
218.65,18.4986,-0.03345574,5.92131,0.99606
219.15,18.51278,-0.03367384,5.93241,0.99573
219.65,18.52696,-0.03413662,5.94255,0.99541
220.15,18.54116,-0.03408739,5.94775,0.99508
220.65,18.55536,-0.03452188,5.96185,0.99476
221.15,18.56953,-0.03475837,5.96674,0.99443
221.65,18.58369,-0.03442129,5.98065,0.9941
222.15,18.5979,-0.03445199,5.98321,0.99378
222.65,18.61206,-0.03445271,5.99345,0.99345
223.15,18.6262,-0.03443648,5.99764,0.99312
223.65,18.64031,-0.03440818,6.01192,0.99279
224.15,18.65445,-0.03337461,6.01636,0.99246
224.65,18.66851,-0.03312401,6.01603,0.99213
225.15,18.68265,-0.03312626,6.01894,0.9918
225.65,18.69671,-0.03313049,6.03998,0.99146
226.15,18.71079,-0.03313006,6.04782,0.99113
226.65,18.72492,-0.03312995,6.06033,0.9908
227.15,18.739,-0.03313002,6.06596,0.99046
227.65,18.75305,-0.03313145,6.07211,0.99013
228.15,18.76716,-0.03312431,6.07992,0.98979
228.65,18.78124,-0.03309027,6.08603,0.98946
229.15,18.7954,-0.03373005,6.08998,0.98912
229.65,18.8095,-0.03444102,6.10199,0.98878
230.15,18.8235,-0.03443848,6.1061,0.98844
230.65,18.83761,-0.03444012,6.11972,0.98811
231.15,18.85164,-0.03444003,6.13308,0.98777
231.65,18.86564,-0.03443999,6.13683,0.98743
232.15,18.87964,-0.03444,6.14505,0.98708
232.65,18.89361,-0.03444,6.15557,0.98674
233.15,18.90758,-0.03444,6.14717,0.9864
233.65,18.92159,-0.03444,6.17076,0.98606
234.15,18.9356,-0.03443999,6.17173,0.98571
234.65,18.94956,-0.03443999,6.18474,0.98537
235.15,18.96356,-0.03444023,6.17769,0.98503
235.65,18.9775,-0.03443929,6.19455,0.98468
236.15,18.99152,-0.03443356,6.20059,0.98433
236.65,19.00551,-0.03449189,6.20959,0.98399
237.15,19.0195,-0.03375504,6.22527,0.98364
237.65,19.03346,-0.03306932,6.22771,0.98329
238.15,19.0474,-0.03312195,6.23411,0.98294
238.65,19.0614,-0.03309833,6.23381,0.9826
239.15,19.07531,-0.0334667,6.25543,0.98225
239.65,19.08921,-0.03444141,6.25101,0.9819
240.15,19.1032,-0.03442603,6.26425,0.98154
240.65,19.1171,-0.03444153,6.27374,0.98119
241.15,19.13101,-0.03444021,6.27875,0.98084
241.65,19.1449,-0.03443994,6.27857,0.98049
242.15,19.1588,-0.03444,6.29704,0.98013
242.65,19.1728,-0.03444,6.29871,0.97978
243.15,19.1867,-0.03444,6.30704,0.97943
243.65,19.2007,-0.03444,6.3201,0.97907
244.15,19.21461,-0.03444,6.32422,0.97872
244.65,19.2285,-0.03444,6.33129,0.97836
245.15,19.2424,-0.03444,6.33871,0.978
245.65,19.25623,-0.03444,6.35912,0.97764
246.15,19.27011,-0.03444,6.34602,0.97729
246.65,19.2839,-0.03444,6.35917,0.97693
247.15,19.29782,-0.03444,6.37034,0.97657
247.65,19.31167,-0.03444,6.37224,0.97621
248.15,19.32554,-0.03443996,6.3704,0.97585
248.65,19.33943,-0.03443998,6.40238,0.97549
249.15,19.35331,-0.03444149,6.39369,0.97513
249.65,19.3672,-0.03443451,6.39944,0.97476
250.15,19.38095,-0.03493966,6.40925,0.9744
250.65,19.39477,-0.03584275,6.41572,0.97404
251.15,19.4086,-0.03575758,6.42028,0.97367
251.65,19.42243,-0.03575816,6.4318,0.97331
252.15,19.43623,-0.03576029,6.44244,0.97294
252.65,19.4501,-0.03576002,6.43526,0.97258
253.15,19.46392,-0.03575999,6.44722,0.97221
253.65,19.47774,-0.03576,6.45261,0.97185
254.15,19.49155,-0.03576,6.45839,0.97148
254.65,19.50536,-0.03576004,6.46136,0.97111
255.15,19.51913,-0.03576,6.47294,0.97074
255.65,19.53286,-0.03575863,6.48584,0.97037
256.15,19.54662,-0.03576624,6.48605,0.97
256.65,19.56038,-0.03578143,6.4945,0.96963
257.15,19.57418,-0.03530232,6.49435,0.96926
257.65,19.58794,-0.03445679,6.50873,0.96889
258.15,19.6017,-0.03445183,6.50889,0.96852
258.65,19.6155,-0.03444908,6.51524,0.96815
259.15,19.6293,-0.03444983,6.52522,0.96777
259.65,19.64309,-0.03449143,6.53772,0.9674
260.15,19.65684,-0.03558241,6.54792,0.96703
260.65,19.67059,-0.03574348,6.54391,0.96665
261.15,19.68436,-0.0357662,6.55751,0.96628
261.65,19.69812,-0.0357597,6.56108,0.9659
262.15,19.71189,-0.03576054,6.56631,0.96553
262.65,19.72564,-0.03575552,6.57294,0.96515
263.15,19.73938,-0.0357578,6.58041,0.96477
263.65,19.75313,-0.03514863,6.58885,0.9644
264.15,19.76687,-0.03475258,6.59416,0.96402
264.65,19.78054,-0.03477728,6.59805,0.96364
265.15,19.79427,-0.03478107,6.60918,0.96326
265.65,19.80795,-0.03477993,6.60944,0.96288
266.15,19.82163,-0.03477998,6.61944,0.9625
266.65,19.83534,-0.03478,6.62979,0.96212
267.15,19.84907,-0.03478,6.62879,0.96174
267.65,19.86277,-0.03478,6.6412,0.96136
268.15,19.8765,-0.03478,6.65441,0.96097
268.65,19.89017,-0.03478,6.66287,0.96059
269.15,19.90392,-0.03477997,6.6676,0.96021
269.65,19.91761,-0.03478009,6.65375,0.95982
270.15,19.9312,-0.03478074,6.67588,0.95944
270.65,19.94479,-0.03477313,6.67335,0.95906
271.15,19.9584,-0.03479057,6.68675,0.95867
271.65,19.97203,-0.03500917,6.69145,0.95828
272.15,19.98573,-0.03605805,6.70317,0.9579
272.65,19.99941,-0.03608973,6.70122,0.95751
273.15,20.01315,-0.03609051,6.71407,0.95713
273.65,20.02692,-0.03608994,6.72445,0.95674
274.15,20.04068,-0.03608999,6.72454,0.95635
274.65,20.0545,-0.03609,6.73121,0.95596
275.15,20.0682,-0.03609,6.73313,0.95557
275.65,20.08183,-0.03609,6.7517,0.95518
276.15,20.0955,-0.03609,6.75419,0.95479
276.65,20.10918,-0.03609,6.75085,0.9544
277.15,20.1229,-0.03609,6.76167,0.95401
277.65,20.13658,-0.03609,6.76311,0.95362
278.15,20.15025,-0.03609,6.7769,0.95323
278.65,20.16391,-0.03609,6.78503,0.95284
279.15,20.17754,-0.03609,6.79525,0.95244
279.65,20.19119,-0.03609,6.79334,0.95205
280.15,20.2048,-0.03609,6.79941,0.95166
280.65,20.21849,-0.03609,6.81225,0.95126
281.15,20.23208,-0.03609,6.80239,0.95087
281.65,20.2457,-0.03609,6.81728,0.95047
282.15,20.25939,-0.03609,6.81853,0.95008
282.65,20.27307,-0.03609,6.83614,0.94968
283.15,20.2867,-0.03609,6.83743,0.94928
283.65,20.30034,-0.03609,6.83974,0.94889
284.15,20.31394,-0.03609,6.85411,0.94849
284.65,20.3276,-0.03609,6.85387,0.94809
285.15,20.34122,-0.03609,6.85835,0.94769
285.65,20.35485,-0.03609,6.87387,0.9473
286.15,20.3685,-0.03609,6.87527,0.9469
286.65,20.38214,-0.03609,6.87984,0.9465
287.15,20.3958,-0.03609,6.88743,0.9461
287.65,20.40944,-0.03609,6.89551,0.9457
288.15,20.42308,-0.03609,6.90634,0.9453
288.65,20.43671,-0.03609,6.90073,0.9449
289.15,20.45036,-0.03609001,6.91296,0.94449
289.65,20.464,-0.03608987,6.91714,0.94409
290.15,20.47768,-0.03609037,6.91781,0.94369
290.65,20.4913,-0.03609325,6.93479,0.94329
291.15,20.50499,-0.03606162,6.93794,0.94288
291.65,20.5186,-0.03612096,6.95207,0.94248
292.15,20.5323,-0.03499482,6.94825,0.94208
292.65,20.5459,-0.03512113,6.95919,0.94167
293.15,20.55961,-0.03510315,6.9556,0.94127
293.65,20.57326,-0.03496991,6.97047,0.94086
294.15,20.5869,-0.03475363,6.97958,0.94045
294.65,20.6005,-0.03476676,6.97416,0.94005
295.15,20.6141,-0.03479462,6.98323,0.93964
295.65,20.62771,-0.03470716,6.98698,0.93924
296.15,20.6413,-0.03591066,6.98365,0.93883
296.65,20.65488,-0.03606995,7.00027,0.93842
297.15,20.66849,-0.03639159,6.99888,0.93801
297.65,20.6821,-0.03677465,7.00972,0.9376
298.15,20.6957,-0.03674523,7.00992,0.93719
298.65,20.7094,-0.03674994,7.02359,0.93679
299.15,20.723,-0.03675013,7.01613,0.93638
299.65,20.73667,-0.03674998,7.03159,0.93597
300.15,20.7503,-0.03675,7.02975,0.93556
300.65,20.76398,-0.03675,7.04067,0.93514
301.15,20.77757,-0.03675,7.0487,0.93473
301.65,20.79116,-0.03675,7.04694,0.93432
302.15,20.80476,-0.03675,7.05979,0.93391
302.65,20.81835,-0.03675,7.0511,0.9335
303.15,20.83194,-0.03675,7.07762,0.93309
303.65,20.84553,-0.03675,7.07276,0.93267
304.15,20.8592,-0.03675,7.079,0.93226
304.65,20.87283,-0.03675007,7.08596,0.93185
305.15,20.8865,-0.03674966,7.0933,0.93143
305.65,20.9001,-0.03674912,7.0923,0.93102
306.15,20.91377,-0.03676675,7.08846,0.9306
306.65,20.9274,-0.03669702,7.10956,0.93019
307.15,20.941,-0.03746402,7.10052,0.92977
307.65,20.95461,-0.03739512,7.10671,0.92936
308.15,20.96823,-0.03740762,7.12345,0.92894
308.65,20.98181,-0.03735894,7.12922,0.92852
309.15,20.9954,-0.03801495,7.1341,0.92811
309.65,21.00903,-0.03872944,7.13943,0.92769
310.15,21.02264,-0.03872849,7.13576,0.92727
310.65,21.03622,-0.03872849,7.15527,0.92685
311.15,21.04981,-0.0387271,7.14373,0.92643
311.65,21.06346,-0.0388115,7.1547,0.92602
312.15,21.07711,-0.03793814,7.17039,0.9256
312.65,21.09075,-0.03740513,7.17017,0.92518
313.15,21.10432,-0.03741172,7.17321,0.92476
313.65,21.1179,-0.03740988,7.18128,0.92434
314.15,21.1315,-0.03740997,7.18475,0.92392
314.65,21.1451,-0.03741001,7.18524,0.9235
315.15,21.15873,-0.03741,7.19836,0.92308
315.65,21.17231,-0.03741,7.19329,0.92265
316.15,21.18593,-0.03741,7.19234,0.92223
316.65,21.1996,-0.03741,7.20749,0.92181
317.15,21.2132,-0.03741001,7.2059,0.92139
317.65,21.22682,-0.03740996,7.21431,0.92097
318.15,21.24042,-0.03740987,7.2193,0.92054
318.65,21.25401,-0.03741187,7.22589,0.92012
319.15,21.26761,-0.03740477,7.23017,0.9197
319.65,21.28125,-0.03736668,7.23533,0.91927
320.15,21.29488,-0.03798278,7.23757,0.91885
320.65,21.3085,-0.03840222,7.2546,0.91843
321.15,21.32214,-0.03839732,7.24988,0.918
321.65,21.33578,-0.03838862,7.2599,0.91758
322.15,21.3494,-0.03838998,7.26567,0.91715
322.65,21.36309,-0.03839004,7.2734,0.91672
323.15,21.3767,-0.03839,7.27698,0.9163
323.65,21.39034,-0.03839001,7.28148,0.91587
324.15,21.40399,-0.03838983,7.28731,0.91545
324.65,21.41762,-0.03839047,7.29684,0.91502
325.15,21.43123,-0.03839387,7.29204,0.91459
325.65,21.44485,-0.03835465,7.2995,0.91417
326.15,21.4585,-0.03870452,7.30639,0.91374
326.65,21.47211,-0.03871085,7.31089,0.91331
327.15,21.4858,-0.03872175,7.3205,0.91288
327.65,21.49941,-0.03872003,7.31794,0.91245
328.15,21.51305,-0.03871994,7.32942,0.91202
328.65,21.52671,-0.03872005,7.3306,0.9116
329.15,21.54034,-0.03872013,7.34085,0.91117
329.65,21.55396,-0.03871793,7.34015,0.91074
330.15,21.56759,-0.03872589,7.34814,0.91031
330.65,21.58125,-0.03877134,7.34386,0.90988
331.15,21.59487,-0.03913153,7.35371,0.90945
331.65,21.6085,-0.03844267,7.36181,0.90902
332.15,21.62215,-0.03767917,7.36571,0.90859
332.65,21.63579,-0.03774048,7.38075,0.90815
333.15,21.64947,-0.03773086,7.37192,0.90772
333.65,21.66314,-0.03769007,7.38462,0.90729
334.15,21.67679,-0.03818767,7.4041,0.90686
334.65,21.69045,-0.03952972,7.39609,0.90643
335.15,21.7041,-0.04044764,7.401,0.906
335.65,21.71775,-0.04036476,7.41797,0.90556
336.15,21.73142,-0.04037486,7.41808,0.90513
336.65,21.7451,-0.04031846,7.43019,0.9047
337.15,21.75873,-0.04099387,7.43857,0.90426
337.65,21.77244,-0.04172944,7.42707,0.90383
338.15,21.78614,-0.04167659,7.43683,0.9034
338.65,21.79983,-0.04168778,7.44627,0.90296
339.15,21.8135,-0.04140473,7.45028,0.90253
339.65,21.82714,-0.04099102,7.45379,0.90209
340.15,21.84082,-0.04101122,7.47038,0.90166
340.65,21.8545,-0.04107991,7.46535,0.90122
341.15,21.86821,-0.04043231,7.47328,0.90079
341.65,21.88189,-0.0400246,7.47194,0.90035
342.15,21.89563,-0.04004248,7.48523,0.89992
342.65,21.90935,-0.04003975,7.48957,0.89948
343.15,21.923,-0.04006729,7.49096,0.89905
343.65,21.93672,-0.03977937,7.49764,0.89861
344.15,21.95039,-0.03971539,7.50307,0.89817
344.65,21.96407,-0.03970933,7.51694,0.89774
345.15,21.9777,-0.03970561,7.52536,0.8973
345.65,21.99145,-0.04026253,7.52211,0.89686
346.15,22.00519,-0.0411059,7.52802,0.89643
346.65,22.01892,-0.04102895,7.5384,0.89599
347.15,22.0326,-0.04102945,7.54329,0.89555
347.65,22.0463,-0.04102365,7.55402,0.89511
348.15,22.06009,-0.041014,7.54957,0.89467
348.65,22.07382,-0.04145387,7.55541,0.89424
349.15,22.08756,-0.04233191,7.56599,0.8938
349.65,22.10124,-0.0423387,7.57218,0.89336
350.15,22.11497,-0.04234035,7.57488,0.89292
350.65,22.12868,-0.04233999,7.59375,0.89248
351.15,22.1424,-0.04233999,7.58356,0.89204
351.65,22.1561,-0.04234,7.59456,0.8916
352.15,22.16987,-0.04234,7.59427,0.89116
352.65,22.18361,-0.04234,7.59975,0.89072
353.15,22.19736,-0.04234,7.60446,0.89028
353.65,22.2111,-0.04234,7.61293,0.88984
354.15,22.2249,-0.04234,7.61615,0.8894
354.65,22.23866,-0.04234,7.62401,0.88896
355.15,22.2524,-0.04234,7.62338,0.88852
355.65,22.26612,-0.04234,7.62149,0.88808
356.15,22.27988,-0.04234,7.6306,0.88764
356.65,22.29362,-0.04234,7.63347,0.8872
357.15,22.30741,-0.04234,7.63492,0.88676
357.65,22.3212,-0.04234,7.65988,0.88631
358.15,22.33493,-0.04234001,7.65557,0.88587
358.65,22.34873,-0.04233999,7.66258,0.88543
359.15,22.3625,-0.04233966,7.66998,0.88499
359.65,22.37633,-0.0423418,7.67621,0.88455
360.15,22.39009,-0.0423447,7.66891,0.8841
360.65,22.40384,-0.04315629,7.68116,0.88366
361.15,22.41759,-0.04367868,7.68956,0.88322
361.65,22.43139,-0.04365589,7.69946,0.88278
362.15,22.44517,-0.04364854,7.70277,0.88233
362.65,22.45894,-0.04365002,7.72211,0.88189
363.15,22.4727,-0.04365004,7.71345,0.88145
363.65,22.4865,-0.04365,7.71414,0.881
364.15,22.50029,-0.04365,7.73509,0.88056
364.65,22.5141,-0.04365,7.7355,0.88012
365.15,22.52792,-0.04365001,7.74666,0.87967
365.65,22.5417,-0.04365005,7.75468,0.87923
366.15,22.55555,-0.04364964,7.7694,0.87878
366.65,22.56943,-0.04364978,7.78003,0.87834
367.15,22.58328,-0.04368811,7.77685,0.8779
367.65,22.59712,-0.04483966,7.77986,0.87745
368.15,22.61094,-0.04509228,7.7973,0.87701
368.65,22.6248,-0.04605638,7.7907,0.87656
369.15,22.63862,-0.04595709,7.80299,0.87612
369.65,22.65232,-0.04595623,7.80849,0.87567
370.15,22.66615,-0.04596953,7.82095,0.87523
370.65,22.67999,-0.04597954,7.81422,0.87478
371.15,22.69381,-0.04632408,7.82898,0.87434
371.65,22.7077,-0.0462875,7.83995,0.87389
372.15,22.72156,-0.0462903,7.85611,0.87344
372.65,22.73547,-0.04628315,7.86174,0.873
373.15,22.74938,-0.0466381,7.85361,0.87255
373.65,22.76323,-0.04770691,7.86423,0.87211
374.15,22.77711,-0.04759955,7.8789,0.87166
374.65,22.791,-0.04760858,7.88026,0.87121
375.15,22.80483,-0.04761041,7.89608,0.87077
375.65,22.81871,-0.04761001,7.90535,0.87032
376.15,22.83261,-0.04761067,7.9133,0.86987
376.65,22.84647,-0.04760657,7.92189,0.86943
377.15,22.86038,-0.04759853,7.93188,0.86898
377.65,22.87432,-0.04787927,7.94621,0.86853
378.15,22.8882,-0.04888581,7.95164,0.86809
378.65,22.9022,-0.04890721,7.96289,0.86764
379.15,22.9161,-0.04891867,7.97812,0.86719
379.65,22.93006,-0.04891179,7.9843,0.86675
380.15,22.94397,-0.04917023,7.996,0.8663
380.65,22.95786,-0.05019128,8.00444,0.86585
381.15,22.9717,-0.05022712,8.01314,0.8654
381.65,22.98564,-0.05024449,8.01868,0.86496
382.15,22.99948,-0.05024138,8.04057,0.86451
382.65,23.0134,-0.05100816,8.03942,0.86406
383.15,23.02731,-0.05159497,8.05014,0.86361
383.65,23.04123,-0.05156568,8.06506,0.86317
384.15,23.05521,-0.05155854,8.06966,0.86272
384.65,23.06915,-0.05156,8.08711,0.86227
385.15,23.0832,-0.05156013,8.09759,0.86182
385.65,23.09714,-0.05155962,8.10098,0.86137
386.15,23.11113,-0.05155753,8.11763,0.86092
386.65,23.12507,-0.05158426,8.12811,0.86048
387.15,23.13889,-0.05154582,8.13349,0.86003
387.65,23.15279,-0.05281348,8.15143,0.85958
388.15,23.1667,-0.05289904,8.16907,0.85913
388.65,23.18071,-0.0545705,8.17119,0.85868
389.15,23.1947,-0.0558324,8.1936,0.85823
389.65,23.20864,-0.05572524,8.19934,0.85778
390.15,23.22276,-0.05565908,8.21366,0.85734
390.65,23.23689,-0.05649045,8.22622,0.85689
391.15,23.2509,-0.05704978,8.23442,0.85644
391.65,23.26492,-0.05698759,8.25839,0.85599
392.15,23.27892,-0.05766988,8.26651,0.85554
392.65,23.29293,-0.05842096,8.28633,0.85509
393.15,23.3069,-0.05826367,8.29858,0.85464
393.65,23.32089,-0.05948203,8.29725,0.85419
394.15,23.33488,-0.05975725,8.3228,0.85374
394.65,23.34887,-0.06040752,8.32699,0.8533
395.15,23.3629,-0.06107615,8.33321,0.85285
395.65,23.3769,-0.05996443,8.3533,0.8524
396.15,23.39098,-0.06082445,8.36382,0.85195
396.65,23.40504,-0.06150809,8.37239,0.8515
397.15,23.41909,-0.06142556,8.38466,0.85105
397.65,23.43317,-0.06265165,8.38989,0.8506
398.15,23.44724,-0.06275165,8.40233,0.85015
398.65,23.46128,-0.06274222,8.41816,0.8497
399.15,23.4753,-0.06290039,8.4282,0.84925
399.65,23.48935,-0.06409043,8.44193,0.8488
400.15,23.5034,-0.06647159,8.44826,0.84835
400.65,23.51749,-0.06957558,8.45544,0.8479
401.15,23.53152,-0.07088999,8.45598,0.84745
401.65,23.54557,-0.06858379,8.45561,0.847
402.15,23.5596,-0.06463648,8.47011,0.84655
402.65,23.57372,-0.06315375,8.47332,0.8461
403.15,23.58776,-0.06366683,8.48593,0.84565
403.65,23.60185,-0.06496644,8.49237,0.84521
404.15,23.61593,-0.067206,8.50378,0.84476
404.65,23.63005,-0.06744266,8.51616,0.84431
405.15,23.64415,-0.06770284,8.53419,0.84386
405.65,23.65827,-0.0689414,8.54007,0.84341
406.15,23.67243,-0.0703869,8.56006,0.84296
406.65,23.68657,-0.07222576,8.55553,0.84251
407.15,23.70068,-0.07377726,8.57603,0.84206
407.65,23.7148,-0.07541098,8.59181,0.84161
408.15,23.72888,-0.07646286,8.6155,0.84116
408.65,23.74298,-0.07683396,8.62154,0.84071
409.15,23.7571,-0.07788536,8.64168,0.84026
409.65,23.77119,-0.0796801,8.63663,0.83981
410.15,23.78533,-0.08083285,8.65327,0.83936
410.65,23.79946,-0.08196934,8.67532,0.83891
411.15,23.8136,-0.08237393,8.68115,0.83846
411.65,23.82771,-0.08246636,8.71104,0.83801
412.15,23.8418,-0.08259735,8.72276,0.83756
412.65,23.856,-0.08400226,8.73729,0.83711
413.15,23.87013,-0.08442384,8.76164,0.83666
413.65,23.88428,-0.0860906,8.77419,0.83621
414.15,23.89845,-0.08648802,8.78372,0.83576
414.65,23.91265,-0.08790179,8.80972,0.83531
415.15,23.92684,-0.08765017,8.84005,0.83486
415.65,23.941,-0.08898298,8.85918,0.83441
416.15,23.9552,-0.08976537,8.87871,0.83396
416.65,23.9694,-0.09261293,8.90083,0.83352
417.15,23.98355,-0.09404013,8.91887,0.83307
417.65,23.99775,-0.09571138,8.95,0.83262
418.15,24.01191,-0.09755571,8.9827,0.83217
418.65,24.02611,-0.09908847,8.99945,0.83172
419.15,24.0403,-0.0998357,9.02492,0.83127
419.65,24.0545,-0.10121,9.06176,0.83082
420.15,24.0687,-0.10185,9.07879,0.83037
420.65,24.08292,-0.1033,9.11326,0.82992
421.15,24.09712,-0.10455,9.12516,0.82947
421.65,24.11134,-0.10588,9.16089,0.82902
422.15,24.12554,-0.10738,9.19505,0.82857
422.65,24.13978,-0.10819,9.22311,0.82812
423.15,24.15399,-0.10967,9.25177,0.82768
423.65,24.16826,-0.11123,9.28914,0.82723
424.15,24.18255,-0.11325,9.3214,0.82678
424.65,24.19679,-0.11483,9.35277,0.82633
425.15,24.21108,-0.11725,9.38413,0.82588
425.65,24.22535,-0.11859,9.42423,0.82543
426.15,24.23965,-0.12081,9.45436,0.82498
426.65,24.25391,-0.12272,9.49272,0.82453
427.15,24.26816,-0.12384,9.52504,0.82409
427.65,24.28247,-0.12614,9.56607,0.82364
428.15,24.29678,-0.12866,9.59817,0.82319
428.65,24.31095,-0.12978,9.63468,0.82274
429.15,24.32508,-0.13155,9.66306,0.82229
429.65,24.33919,-0.13261,9.69252,0.82184
430.15,24.35344,-0.1331,9.73532,0.8214
430.65,24.3677,-0.13567,9.76608,0.82095
431.15,24.38199,-0.13825,9.80731,0.8205
431.65,24.3964,-0.14131,9.84576,0.82005
432.15,24.4108,-0.14396,9.89473,0.8196
432.65,24.42531,-0.14631,9.93087,0.81916
433.15,24.4397,-0.14892,9.98332,0.81871
433.65,24.4541,-0.15023,10.0293,0.81826
434.15,24.4684,-0.15406,10.07893,0.81781
434.65,24.4827,-0.15667,10.12743,0.81737
435.15,24.49701,-0.15951,10.1982,0.81692
435.65,24.51137,-0.16472,10.2692,0.81647
436.15,24.52572,-0.1709,10.32174,0.81602
436.65,24.54009,-0.17744,10.38465,0.81558
437.15,24.55446,-0.17964,10.4303,0.81513
437.65,24.56887,-0.17824,10.48553,0.81468
438.15,24.58322,-0.17349,10.555,0.81424
438.65,24.59753,-0.17142,10.61562,0.81379
439.15,24.61185,-0.17367,10.69859,0.81334
439.65,24.62623,-0.17999,10.7752,0.8129
440.15,24.64057,-0.18698,10.8618,0.81245
440.65,24.6549,-0.19181,10.93631,0.812
441.15,24.66925,-0.19526,11.0276,0.81156
441.65,24.68369,-0.19833,11.11173,0.81111
442.15,24.69806,-0.20179,11.2041,0.81067
442.65,24.71246,-0.20602,11.3004,0.81022
443.15,24.72683,-0.21092,11.4058,0.80977
443.65,24.7412,-0.21546,11.51192,0.80933
444.15,24.75564,-0.22034,11.62463,0.80888
444.65,24.77003,-0.22361,11.7509,0.80844
445.15,24.7845,-0.22739,11.86818,0.80799
445.65,24.79884,-0.23426,11.9877,0.80755
446.15,24.8133,-0.23864,12.11031,0.8071
446.65,24.82769,-0.24407,12.2463,0.80666
447.15,24.8421,-0.2502,12.3935,0.80621
447.65,24.85657,-0.25462,12.50447,0.80577
448.15,24.871,-0.26053,12.63286,0.80532
448.65,24.8855,-0.26678,12.7674,0.80488
449.15,24.8999,-0.27224,12.92507,0.80443
449.65,24.9144,-0.27931,13.07895,0.80399
450.15,24.92884,-0.28518,13.2376,0.80354
450.65,24.9433,-0.2913,13.40294,0.8031
451.15,24.9577,-0.29901,13.5535,0.80266
451.65,24.9722,-0.30602,13.71427,0.80221
452.15,24.9866,-0.31366,13.8934,0.80177
452.65,25.0011,-0.32234,14.0804,0.80132
453.15,25.01553,-0.32868,14.2432,0.80088
453.65,25.03,-0.33723,14.40864,0.80044
454.15,25.04447,-0.34688,14.5527,0.79999
454.65,25.05898,-0.35472,14.73851,0.79955
455.15,25.0734,-0.36438,14.92915,0.79911
455.65,25.08791,-0.37253,15.17786,0.79866
456.15,25.10241,-0.38067,15.3985,0.79822
456.65,25.1169,-0.39116,15.6334,0.79778
457.15,25.13141,-0.39999,15.89667,0.79734
457.65,25.1459,-0.41038,16.16769,0.79689
458.15,25.1604,-0.42363,16.4511,0.79645
458.65,25.175,-0.43366,16.68084,0.79601
459.15,25.18945,-0.44606,16.91311,0.79557
459.65,25.204,-0.46006,17.13159,0.79513
460.15,25.21845,-0.47197,17.3919,0.79469
460.65,25.23294,-0.4871,17.6475,0.79424
461.15,25.24744,-0.50119,17.8929,0.7938
461.65,25.26194,-0.51482,18.1381,0.79336
462.15,25.27645,-0.53245,18.32239,0.79292
462.65,25.29093,-0.54659,18.5179,0.79248
463.15,25.30546,-0.56224,18.7574,0.79204
463.65,25.32003,-0.58051,19.03529,0.7916
464.15,25.33454,-0.59404,19.32875,0.79116
464.65,25.34905,-0.61102,19.64035,0.79072
465.15,25.36358,-0.63035,19.95949,0.79028
465.65,25.37817,-0.64674,20.31483,0.78984
466.15,25.3927,-0.6677,20.67021,0.7894
466.65,25.4072,-0.68641,20.9933,0.78896
467.15,25.42173,-0.70446,21.28304,0.78852
467.65,25.4362,-0.72817,21.56895,0.78808
468.15,25.45071,-0.7483,21.7593,0.78764
468.65,25.46518,-0.7712,22.02575,0.7872
469.15,25.4797,-0.79905,22.27705,0.78676
469.65,25.49419,-0.81959,22.56224,0.78633
470.15,25.5087,-0.84442,22.91142,0.78589
470.65,25.5232,-0.87158,23.31106,0.78545
471.15,25.53774,-0.89345,23.6929,0.78501
471.65,25.55226,-0.92149,24.05806,0.78457
472.15,25.56677,-0.94878,24.35669,0.78414
472.65,25.58126,-0.97483,24.66583,0.7837
473.15,25.5958,-1.0088,24.94726,0.78326
473.65,25.61025,-1.03713,25.3464,0.78283
474.15,25.62477,-1.06843,25.41164,0.78239
474.65,25.6393,-1.10655,25.6378,0.78195
475.15,25.65383,-1.13449,25.90472,0.78151
475.65,25.66832,-1.16748,26.2063,0.78108
476.15,25.68277,-1.20443,26.4406,0.78064
476.65,25.6973,-1.23459,26.61293,0.78021
477.15,25.71181,-1.2693,26.86038,0.77977
477.65,25.72627,-1.30806,27.21507,0.77934
478.15,25.74073,-1.36027,27.2748,0.7789
478.65,25.75526,-1.42056,27.4069,0.77846
479.15,25.76981,-1.45223,27.56728,0.77803
479.65,25.78429,-1.48827,27.69535,0.77759
480.15,25.79876,-1.52265,27.78425,0.77716
480.65,25.81325,-1.5692,27.8759,0.77673
481.15,25.82776,-1.61386,27.8819,0.77629
481.65,25.84222,-1.65644,27.9038,0.77586
482.15,25.8567,-1.70092,27.9647,0.77542
482.65,25.87124,-1.74756,27.8935,0.77499
483.15,25.88576,-1.79333,27.8082,0.77456
483.65,25.90031,-1.83912,27.6859,0.77412
484.15,25.91485,-1.88869,27.5648,0.77369
484.65,25.9294,-1.94005,27.35762,0.77326
485.15,25.9439,-1.9891,27.1541,0.77283
485.65,25.95844,-2.03833,26.95065,0.77239
486.15,25.97296,-2.09076,26.66453,0.77196
486.65,25.98749,-2.14215,26.4368,0.77153
487.15,26.00204,-2.19151,26.11637,0.7711
487.65,26.0166,-2.2432,25.73785,0.77067
488.15,26.03116,-2.29811,25.3069,0.77023
488.65,26.0457,-2.35124,24.84459,0.7698
489.15,26.06032,-2.40365,24.34154,0.76937
489.65,26.07485,-2.46031,23.80124,0.76894
490.15,26.08936,-2.51626,23.20214,0.76851
490.65,26.10388,-2.56873,22.58729,0.76808
491.15,26.1184,-2.62133,21.93311,0.76765
491.65,26.13291,-2.67715,21.23832,0.76722
492.15,26.1474,-2.73179,20.5095,0.76679
492.65,26.1618,-2.78369,19.76516,0.76636
493.15,26.17624,-2.8373,19.00654,0.76593
493.65,26.19063,-2.89153,18.22421,0.76551
494.15,26.20497,-2.94195,17.43981,0.76508
494.65,26.2192,-2.99095,16.65182,0.76465
495.15,26.2335,-3.0418,15.8258,0.76422
495.65,26.2478,-3.0889,15.00951,0.76379
496.15,26.2622,-3.12835,14.17601,0.76336
496.65,26.2767,-3.16957,13.32034,0.76294
497.15,26.2912,-3.20132,12.46032,0.76251
497.65,26.30599,-3.22817,11.58801,0.76208
498.15,26.3208,-3.26155,10.7263,0.76166
498.65,26.3359,-3.28793,9.87854,0.76123
499.15,26.35088,-3.32228,9.06276,0.7608
499.65,26.366,-3.35589,8.28338,0.76038
500.15,26.3812,-3.38388,7.52656,0.75995
500.65,26.39637,-3.41554,6.80431,0.75953
501.15,26.4116,-3.43854,6.14786,0.7591
501.65,26.4268,-3.46205,5.54732,0.75868
502.15,26.4421,-3.48721,5.00265,0.75825
502.65,26.45735,-3.50575,4.50858,0.75783
503.15,26.47263,-3.52633,4.09854,0.7574
503.65,26.48797,-3.54323,3.69541,0.75698
504.15,26.50334,-3.55788,3.39561,0.75655
504.65,26.5187,-3.57349,3.12202,0.75613
505.15,26.53414,-3.58479,2.881,0.75571
505.65,26.54958,-3.59708,2.69871,0.75528
506.15,26.56505,-3.60898,2.51504,0.75486
506.65,26.5805,-3.61853,2.3772,0.75444
507.15,26.5959,-3.62941,2.25584,0.75402
507.65,26.61138,-3.63722,2.13111,0.75359
508.15,26.62681,-3.64485,2.02854,0.75317
508.65,26.64224,-3.65247,1.93537,0.75275
509.15,26.65761,-3.65755,1.83751,0.75233
509.65,26.673,-3.66395,1.74157,0.75191
510.15,26.6884,-3.66837,1.66074,0.75149
510.65,26.7037,-3.67265,1.57015,0.75107
511.15,26.71905,-3.67764,1.49063,0.75065
511.65,26.73433,-3.68125,1.41274,0.75023
512.15,26.7497,-3.68516,1.32688,0.74981
512.65,26.76495,-3.68843,1.26189,0.74939
513.15,26.7802,-3.6908,1.17717,0.74897
513.65,26.79543,-3.69205,1.11133,0.74855
514.15,26.81069,-3.6931,1.02042,0.74813
514.65,26.82592,-3.69466,0.94824,0.74771
515.15,26.84112,-3.69702,0.88714,0.74729
515.65,26.8563,-3.69844,0.8214,0.74688
516.15,26.8716,-3.699,0.76058,0.74646
516.65,26.8867,-3.70039,0.71387,0.74604
517.15,26.90189,-3.70158,0.64307,0.74562
517.65,26.91705,-3.70258,0.58383,0.74521
518.15,26.93218,-3.70356,0.52495,0.74479
518.65,26.9473,-3.7034,0.48346,0.74438
519.15,26.96241,-3.70475,0.43082,0.74396
519.65,26.97754,-3.70465,0.38302,0.74354
520.15,26.9927,-3.70481,0.34638,0.74313
520.65,27.00781,-3.70592,0.30915,0.74271
521.15,27.023,-3.70592,0.27145,0.7423
521.65,27.03807,-3.70654,0.24481,0.74188
522.15,27.05322,-3.70734,0.208,0.74147
522.65,27.06836,-3.70727,0.17852,0.74106
523.15,27.08349,-3.7069,0.15284,0.74064
523.65,27.09863,-3.70597,0.12609,0.74023
524.15,27.1138,-3.70589,0.10531,0.73982
524.65,27.12892,-3.70694,0.09006541,0.7394
525.15,27.1441,-3.70813,0.07346603,0.73899
525.65,27.1592,-3.70859,0.05160767,0.73858
526.15,27.17432,-3.7086,0.03287415,0.73817
526.65,27.1895,-3.70859,0.01749156,0.73775
527.15,27.2046,-3.70859,0.00807349,0.73734
527.65,27.21981,-3.70859,-0.003968385,0.73693
528.15,27.23497,-3.70859,-0.02547061,0.73652
528.65,27.2502,-3.70859,-0.02772281,0.73611
529.15,27.26538,-3.70859,-0.03628804,0.7357
529.65,27.28053,-3.70859,-0.03558967,0.73529
530.15,27.2957,-3.70859,-0.05482874,0.73488
530.65,27.31087,-3.70859,-0.05717486,0.73447
531.15,27.32605,-3.70859,-0.0655654,0.73406
531.65,27.3412,-3.70859,-0.06995379,0.73365
532.15,27.35625,-3.70861,-0.08190702,0.73325
532.65,27.37139,-3.70871,-0.08090035,0.73284
533.15,27.3866,-3.70929,-0.09601271,0.73243
533.65,27.4018,-3.70925,-0.09026289,0.73202
534.15,27.417,-3.70925,-0.09782904,0.73161
534.65,27.43225,-3.70925,-0.11757,0.73121
535.15,27.4476,-3.70924,-0.1233,0.7308
535.65,27.46289,-3.70985,-0.11974,0.73039
536.15,27.47812,-3.71023,-0.13092,0.72999
536.65,27.49335,-3.71061,-0.1457,0.72958
537.15,27.50859,-3.71057,-0.14352,0.72918
537.65,27.52383,-3.71061,-0.16848,0.72877
538.15,27.53906,-3.70992,-0.17693,0.72837
538.65,27.5543,-3.70949,-0.18708,0.72796
539.15,27.5696,-3.71059,-0.21527,0.72756
539.65,27.58478,-3.71057,-0.21268,0.72716
540.15,27.6,-3.71058,-0.22285,0.72675
540.65,27.61529,-3.71058,-0.22988,0.72635
541.15,27.63055,-3.71058,-0.24206,0.72595
541.65,27.6458,-3.71058,-0.23976,0.72554
542.15,27.66098,-3.71059,-0.23241,0.72514
542.65,27.6762,-3.7104,-0.23387,0.72474
543.15,27.69146,-3.70954,-0.24099,0.72434
543.65,27.70668,-3.70943,-0.24962,0.72394
544.15,27.72196,-3.70818,-0.26439,0.72353
544.65,27.7372,-3.70828,-0.25376,0.72313
545.15,27.75253,-3.70827,-0.26602,0.72273
545.65,27.7678,-3.70827,-0.26231,0.72233
546.15,27.7831,-3.70823,-0.26695,0.72193
546.65,27.7984,-3.70887,-0.27587,0.72153
547.15,27.81363,-3.70967,-0.27988,0.72114
547.65,27.8289,-3.70957,-0.27718,0.72074
548.15,27.84425,-3.71101,-0.29778,0.72034
548.65,27.85957,-3.71112,-0.2859,0.71994
549.15,27.8749,-3.71112,-0.29552,0.71954
549.65,27.8902,-3.71112,-0.31282,0.71915
550.15,27.9055,-3.71112,-0.31551,0.71875
550.65,27.92083,-3.71112,-0.32007,0.71835
551.15,27.93611,-3.71113,-0.33413,0.71795
551.65,27.95141,-3.71121,-0.32751,0.71756
552.15,27.96671,-3.71241,-0.35389,0.71716
552.65,27.982,-3.71243,-0.35131,0.71677
553.15,27.99735,-3.71249,-0.32774,0.71637
553.65,28.01265,-3.71257,-0.35938,0.71598
554.15,28.02795,-3.71199,-0.34398,0.71558
554.65,28.04325,-3.71117,-0.34421,0.71519
555.15,28.05854,-3.71125,-0.3336,0.71479
555.65,28.0739,-3.7102,-0.33368,0.7144
556.15,28.0892,-3.70991,-0.3462,0.71401
556.65,28.1045,-3.70991,-0.32914,0.71362
557.15,28.11982,-3.70991,-0.34038,0.71322
557.65,28.1351,-3.70991,-0.34221,0.71283
558.15,28.15046,-3.70991,-0.33941,0.71244
558.65,28.1658,-3.70979,-0.34128,0.71205
559.15,28.18117,-3.70853,-0.34283,0.71166
559.65,28.19657,-3.70852,-0.33445,0.71127
560.15,28.2119,-3.70977,-0.34269,0.71087
560.65,28.22734,-3.70992,-0.34164,0.71048
561.15,28.2427,-3.70992,-0.33718,0.71009
561.65,28.2581,-3.70993,-0.33073,0.70971
562.15,28.27348,-3.71014,-0.32812,0.70932
562.65,28.28885,-3.71122,-0.32285,0.70893
563.15,28.30422,-3.71035,-0.33286,0.70854
563.65,28.31962,-3.70992,-0.33619,0.70815
564.15,28.335,-3.7099,-0.338,0.70776
564.65,28.35039,-3.7099,-0.32406,0.70738
565.15,28.3658,-3.71014,-0.3159,0.70699
565.65,28.3812,-3.71023,-0.32626,0.7066
566.15,28.3966,-3.71024,-0.33243,0.70622
566.65,28.41204,-3.71024,-0.32723,0.70583
567.15,28.42748,-3.71022,-0.33074,0.70544
567.65,28.4429,-3.71072,-0.32735,0.70506
568.15,28.45833,-3.7109,-0.31675,0.70467
568.65,28.47375,-3.71081,-0.33513,0.70429
569.15,28.4892,-3.71189,-0.31105,0.70391
569.65,28.50468,-3.71187,-0.3129,0.70352
570.15,28.52011,-3.71189,-0.32741,0.70314
570.65,28.53552,-3.71189,-0.33038,0.70275
571.15,28.55094,-3.71189,-0.32319,0.70237
571.65,28.56638,-3.71189,-0.32288,0.70199
572.15,28.5818,-3.71189,-0.33051,0.70161
572.65,28.59726,-3.71169,-0.33175,0.70123
573.15,28.6127,-3.71047,-0.33052,0.70084
573.65,28.62824,-3.71058,-0.33304,0.70046
574.15,28.64378,-3.71068,-0.33437,0.70008
574.65,28.6592,-3.70958,-0.31398,0.6997
575.15,28.67468,-3.71051,-0.32693,0.69932
575.65,28.6902,-3.71057,-0.33968,0.69894
576.15,28.70555,-3.71057,-0.32458,0.69856
576.65,28.721,-3.71057,-0.33247,0.69818
577.15,28.7365,-3.71057,-0.3212,0.69781
577.65,28.75201,-3.71057,-0.32769,0.69743
578.15,28.7675,-3.71057,-0.32118,0.69705
578.65,28.78305,-3.71057,-0.32182,0.69667
579.15,28.7986,-3.71057,-0.31389,0.69629
579.65,28.8141,-3.71086,-0.33503,0.69592
580.15,28.8296,-3.71156,-0.31799,0.69554
580.65,28.8451,-3.71156,-0.3213,0.69517
581.15,28.8606,-3.71156,-0.31898,0.69479
581.65,28.8761,-3.71156,-0.31505,0.69441
582.15,28.89157,-3.71156,-0.30905,0.69404
582.65,28.90708,-3.71156,-0.31656,0.69366
583.15,28.9226,-3.71156,-0.32008,0.69329
583.65,28.9381,-3.71156,-0.32237,0.69292
584.15,28.9535,-3.71153,-0.31895,0.69254
584.65,28.96893,-3.71188,-0.30308,0.69217
585.15,28.98449,-3.71188,-0.31819,0.6918
585.65,29.00007,-3.71189,-0.3025,0.69143
586.15,29.0157,-3.71189,-0.30499,0.69105
586.65,29.0313,-3.71189,-0.30831,0.69068
587.15,29.047,-3.71189,-0.29749,0.69031
587.65,29.06268,-3.71189,-0.2942,0.68994
588.15,29.07824,-3.71189,-0.29836,0.68957
588.65,29.0938,-3.71183,-0.30175,0.6892
589.15,29.10936,-3.71056,-0.29124,0.68883
589.65,29.12489,-3.71059,-0.28784,0.68846
590.15,29.14043,-3.71057,-0.29227,0.68809
590.65,29.156,-3.71057,-0.28193,0.68772
591.15,29.1715,-3.71057,-0.28162,0.68735
591.65,29.1871,-3.71057,-0.27741,0.68699
592.15,29.20263,-3.71057,-0.27491,0.68662
592.65,29.2182,-3.71057,-0.28615,0.68625
593.15,29.23381,-3.71061,-0.27826,0.68588
593.65,29.24933,-3.71059,-0.285,0.68552
594.15,29.2649,-3.71295,-0.28095,0.68515
594.65,29.28055,-3.7132,-0.26937,0.68479
595.15,29.29617,-3.71321,-0.26591,0.68442
595.65,29.31175,-3.71321,-0.27282,0.68406
596.15,29.3273,-3.71321,-0.27088,0.68369
596.65,29.343,-3.71321,-0.27213,0.68333
597.15,29.35857,-3.71321,-0.25525,0.68296
597.65,29.37415,-3.71321,-0.25754,0.6826
598.15,29.38975,-3.71321,-0.26254,0.68224
598.65,29.4053,-3.71321,-0.24961,0.68187
599.15,29.42095,-3.71321,-0.25986,0.68151
599.65,29.4365,-3.71321,-0.25247,0.68115
600.15,29.4521,-3.71321,-0.23965,0.68079
600.65,29.4678,-3.71321,-0.24318,0.68043
601.15,29.48344,-3.71321,-0.24528,0.68007
601.65,29.49908,-3.71321,-0.23577,0.67971
602.15,29.51478,-3.71321,-0.23251,0.67935
602.65,29.53043,-3.71321,-0.22991,0.67899
603.15,29.5461,-3.71321,-0.22852,0.67863
603.65,29.5618,-3.71321,-0.2331,0.67827
604.15,29.5774,-3.71322,-0.23194,0.67791
604.65,29.59308,-3.71329,-0.24,0.67755
605.15,29.60875,-3.71226,-0.22307,0.67719
605.65,29.6244,-3.71188,-0.23063,0.67684
606.15,29.64002,-3.71189,-0.23022,0.67648
606.65,29.65571,-3.71189,-0.22306,0.67612
607.15,29.67134,-3.71189,-0.21433,0.67577
607.65,29.68698,-3.71191,-0.21273,0.67541
608.15,29.70262,-3.71217,-0.21357,0.67505
608.65,29.71828,-3.71331,-0.21251,0.6747
609.15,29.73395,-3.71332,-0.21166,0.67435
609.65,29.74963,-3.71332,-0.21376,0.67399
610.15,29.76537,-3.71332,-0.20949,0.67364
610.65,29.781,-3.71332,-0.21797,0.67328
611.15,29.7967,-3.71332,-0.21036,0.67293
611.65,29.8123,-3.71335,-0.20493,0.67258
612.15,29.82807,-3.71457,-0.22163,0.67223
612.65,29.84378,-3.71461,-0.21188,0.67187
613.15,29.8595,-3.71464,-0.21832,0.67152
613.65,29.8753,-3.71464,-0.20451,0.67117
614.15,29.891,-3.71466,-0.1973,0.67082
614.65,29.90675,-3.71418,-0.20286,0.67047
615.15,29.92243,-3.71327,-0.19584,0.67012
615.65,29.9381,-3.71333,-0.19992,0.66977
616.15,29.9538,-3.71341,-0.19187,0.66942
616.65,29.9694,-3.71431,-0.19595,0.66907
617.15,29.9851,-3.71429,-0.19825,0.66872
617.55,29.99755,-3.7143,-0.18062,0.66844