File: 01_Data/Composite_Deck_Board/STA/N2/3K_min/Composite_Deck_Board_STA_N2_3KData_210628_R1.csv
##Temp./Â°C,Time/min,Mass loss(subtr.2)/mg,DSC(subtr.2)/mW,Sensit./(uV/mW)
48.912,10.01,-0.00988,0.03265465,0.5841
49.512,12.0402,-0.0132797,0.13156,0.58438
50.112,12.6471,-0.01060008,0.15993,0.58466
50.712,13.12013,-0.01195988,0.1878,0.58495
51.312,13.5287,-0.01227273,0.22475,0.58523
51.912,13.9006,-0.01098135,0.244,0.58551
52.512,14.24596,-0.01228478,0.25717,0.58579
53.112,14.5726,-0.01118195,0.2667,0.58607
53.712,14.8832,-0.01229445,0.27546,0.58635
54.312,15.18263,-0.01240028,0.2862,0.58662
54.912,15.47456,-0.01100327,0.29435,0.5869
55.512,15.7563,-0.01361029,0.30874,0.58717
56.112,16.03107,-0.01229132,0.31139,0.58745
56.712,16.2987,-0.01218,0.33104,0.58772
57.312,16.55829,-0.01208883,0.33444,0.58799
57.912,16.81271,-0.01349996,0.3314,0.58826
58.512,17.06375,-0.01214479,0.33182,0.58853
59.112,17.31045,-0.01349997,0.34586,0.5888
59.712,17.5522,-0.0135,0.34405,0.58907
60.312,17.79137,-0.01385213,0.34528,0.58934
60.912,18.02577,-0.01382949,0.35242,0.58961
61.512,18.26077,-0.01348601,0.36764,0.58987
62.112,18.49292,-0.01361424,0.36679,0.59014
62.712,18.72482,-0.01233635,0.37183,0.5904
63.312,18.9526,-0.01588532,0.38272,0.59066
63.912,19.17843,-0.01492149,0.38085,0.59092
64.512,19.4015,-0.01482014,0.38748,0.59118
65.112,19.62345,-0.01349745,0.39193,0.59144
65.712,19.84425,-0.01712015,0.39093,0.5917
66.312,20.0645,-0.01451544,0.39352,0.59196
66.912,20.2827,-0.01447451,0.41184,0.59222
67.512,20.49946,-0.005320945,0.39047,0.59247
68.112,20.7151,-0.0148522,0.39927,0.59273
68.712,20.93,-0.01723001,0.40786,0.59298
69.312,21.14369,-0.01508774,0.41185,0.59324
69.912,21.3567,-0.01489558,0.41589,0.59349
70.512,21.56885,-0.01525,0.41178,0.59374
71.112,21.781,-0.01488953,0.41367,0.59399
71.712,21.99193,-0.0155803,0.42772,0.59424
72.312,22.2024,-0.01642579,0.41869,0.59449
72.912,22.41297,-0.01623975,0.42354,0.59474
73.512,22.62286,-0.01656648,0.43065,0.59498
74.112,22.83182,-0.01591001,0.42522,0.59523
74.712,23.04006,-0.01492013,0.43553,0.59547
75.312,23.24747,-0.01756014,0.41182,0.59572
75.912,23.45477,-0.01755815,0.42704,0.59596
76.512,23.66178,-0.0152671,0.43497,0.5962
77.112,23.86897,-0.01622499,0.42972,0.59644
77.712,24.07581,-0.017562,0.42735,0.59668
78.312,24.28143,-0.01745992,0.423,0.59692
78.912,24.48469,-0.01491952,0.44068,0.59716
79.512,24.68761,-0.01745846,0.43935,0.5974
80.112,24.89092,-0.01624,0.43256,0.59763
80.712,25.09778,-0.01755006,0.45224,0.59787
81.312,25.3047,-0.0162979,0.44338,0.5981
81.912,25.5098,-0.01691407,0.45266,0.59834
82.512,25.71196,-0.01495055,0.44944,0.59857
83.112,25.915,-0.01645647,0.45613,0.5988
83.712,26.11873,-0.0164593,0.4519,0.59903
84.312,26.32312,-0.01657395,0.46314,0.59926
84.912,26.5271,-0.01712487,0.47336,0.59949
85.512,26.7284,-0.01658493,0.46722,0.59972
86.112,26.93004,-0.01690001,0.46669,0.59994
86.712,27.13185,-0.01558,0.46296,0.60017
87.312,27.3338,-0.01559051,0.46663,0.6004
87.912,27.5349,-0.01681718,0.47626,0.60062
88.512,27.73638,-0.01559013,0.47128,0.60084
89.112,27.93657,-0.01919176,0.47273,0.60106
89.712,28.1366,-0.01400056,0.47836,0.60128
90.312,28.3362,-0.0155726,0.48095,0.6015
90.912,28.5356,-0.01552182,0.49974,0.60172
91.512,28.73432,-0.01591442,0.4979,0.60194
92.112,28.9331,-0.01722998,0.50837,0.60216
92.712,29.1317,-0.01701001,0.50358,0.60238
93.312,29.33016,-0.01700802,0.51788,0.60259
93.912,29.52807,-0.01697904,0.51841,0.6028
94.512,29.7261,-0.01426001,0.51328,0.60302
95.112,29.9235,-0.01664976,0.52594,0.60323
95.712,30.12092,-0.01569656,0.51616,0.60344
96.312,30.31835,-0.01459169,0.5294,0.60365
96.912,30.515,-0.01569,0.53093,0.60386
97.512,30.71245,-0.01568072,0.55121,0.60407
98.112,30.90839,-0.01569487,0.54998,0.60428
98.712,31.10455,-0.01569026,0.55014,0.60448
99.312,31.30126,-0.01569073,0.55996,0.60469
99.912,31.4972,-0.01701,0.55313,0.6049
100.512,31.69203,-0.01436979,0.56886,0.6051
101.112,31.8871,-0.01573861,0.58073,0.6053
101.712,32.08234,-0.01641181,0.59261,0.6055
102.312,32.2785,-0.0156875,0.58325,0.6057
102.912,32.47245,-0.01568189,0.58567,0.6059
103.512,32.6681,-0.01569349,0.58638,0.6061
104.112,32.86354,-0.01436886,0.59848,0.6063
104.712,33.05948,-0.01668006,0.60392,0.6065
105.312,33.25618,-0.01668,0.60271,0.6067
105.912,33.45143,-0.01695486,0.61738,0.60689
106.512,33.64694,-0.01537,0.61466,0.60708
107.112,33.84147,-0.01536991,0.63304,0.60728
107.712,34.037,-0.01483996,0.64473,0.60747
108.312,34.2313,-0.01634354,0.64383,0.60766
108.912,34.42581,-0.01626024,0.66188,0.60785
109.512,34.6205,-0.01503151,0.66032,0.60804
110.112,34.8145,-0.01369705,0.6706,0.60823
110.712,35.00847,-0.01524825,0.69415,0.60842
111.312,35.2021,-0.01635292,0.69523,0.6086
111.912,35.39635,-0.01459708,0.70017,0.60879
112.512,35.59086,-0.01471,0.72531,0.60897
113.112,35.78637,-0.01602,0.72399,0.60916
113.712,35.98134,-0.01601588,0.72963,0.60934
114.312,36.1755,-0.01607466,0.7372,0.60952
114.912,36.36907,-0.01568992,0.7492,0.6097
115.512,36.5631,-0.0156831,0.76228,0.60988
116.112,36.75675,-0.01569027,0.78421,0.61006
116.712,36.9508,-0.01468342,0.7961,0.61024
117.312,37.145,-0.01339013,0.80205,0.61042
117.912,37.33902,-0.01471,0.8299,0.61059
118.512,37.53352,-0.01606198,0.84754,0.61077
119.112,37.72781,-0.01749347,0.85546,0.61094
119.712,37.92256,-0.01744948,0.88126,0.61112
120.312,38.1171,-0.01482,0.90546,0.61129
120.912,38.3111,-0.01518628,0.92331,0.61146
121.512,38.50522,-0.01613058,0.95648,0.61163
122.112,38.6993,-0.01480642,1.00128,0.6118
122.712,38.89363,-0.01416895,1.06168,0.61197
123.312,39.08801,-0.01407906,1.08578,0.61213
123.912,39.28151,-0.01447987,1.11316,0.6123
124.512,39.47531,-0.01383,1.11785,0.61247
125.112,39.66891,-0.01447994,1.08482,0.61263
125.712,39.86168,-0.0131701,1.00028,0.61279
126.312,40.05462,-0.01416004,0.86034,0.61296
126.912,40.24666,-0.01481992,0.75049,0.61312
127.512,40.43826,-0.01251872,0.71329,0.61328
128.112,40.62992,-0.01449,0.71018,0.61344
128.712,40.8213,-0.01317003,0.75508,0.6136
129.312,41.01344,-0.01373449,0.80076,0.61376
129.912,41.2057,-0.01612986,0.84615,0.61391
130.512,41.39819,-0.01350065,0.83289,0.61407
131.112,41.58996,-0.01349999,0.7875,0.61422
131.712,41.7808,-0.01218003,0.7168,0.61438
132.312,41.97056,-0.01349585,0.66179,0.61453
132.912,42.16133,-0.01317023,0.62127,0.61468
133.512,42.35281,-0.01316974,0.58619,0.61483
134.112,42.54401,-0.01383,0.58362,0.61498
134.712,42.73538,-0.01383,0.56451,0.61513
135.312,42.92624,-0.01250979,0.56493,0.61528
135.912,43.11537,-0.01381766,0.56197,0.61543
136.512,43.30474,-0.01382833,0.5592,0.61557
137.112,43.49593,-0.01248877,0.57756,0.61572
137.712,43.68824,-0.00927222,0.56491,0.61586
138.312,43.88078,-0.01408476,0.55347,0.61601
138.912,44.07347,-0.01414972,0.5596,0.61615
139.512,44.26427,-0.01152959,0.54974,0.61629
140.112,44.45581,-0.01283112,0.55807,0.61643
140.712,44.64695,-0.01351675,0.56728,0.61657
141.312,44.83786,-0.01273,0.56834,0.61671
141.912,45.02872,-0.01304882,0.55012,0.61685
142.512,45.2187,-0.01280476,0.5626,0.61699
143.112,45.40886,-0.01316916,0.5557,0.61712
143.712,45.5982,-0.01251174,0.54948,0.61726
144.312,45.78804,-0.01151988,0.54959,0.61739
144.912,45.97795,-0.01288293,0.54929,0.61752
145.512,46.16858,-0.01284447,0.56844,0.61766
146.112,46.35929,-0.01251338,0.56723,0.61779
146.712,46.54935,-0.01221275,0.56521,0.61792
147.312,46.73918,-0.01251,0.57127,0.61805
147.912,46.9289,-0.01250999,0.57261,0.61817
148.512,47.1186,-0.01108981,0.57325,0.6183
149.112,47.3086,-0.009769978,0.57406,0.61843
149.712,47.49858,-0.0110881,0.58129,0.61855
150.312,47.68838,-0.01108917,0.57209,0.61868
150.912,47.87802,-0.01287672,0.58334,0.6188
151.512,48.0675,-0.01125286,0.58135,0.61892
152.112,48.25547,-0.01234665,0.59756,0.61904
152.712,48.44455,-0.0124,0.58975,0.61916
153.312,48.6338,-0.01108,0.59395,0.61928
153.912,48.8234,-0.01221899,0.58257,0.6194
154.512,49.01283,-0.01273,0.59464,0.61952
155.112,49.20275,-0.01115002,0.60041,0.61964
155.712,49.3923,-0.01416533,0.60486,0.61975
156.312,49.5814,-0.01140515,0.60079,0.61987
156.912,49.7712,-0.01207,0.61268,0.61998
157.512,49.95978,-0.01273,0.61028,0.62009
158.112,50.14894,-0.01141879,0.60781,0.62021
158.712,50.33835,-0.0101,0.61642,0.62032
159.312,50.5281,-0.01142034,0.60655,0.62043
159.912,50.71754,-0.01042848,0.59509,0.62054
160.512,50.9064,-0.01150209,0.60991,0.62065
161.112,51.09531,-0.01134067,0.60022,0.62075
161.712,51.28373,-0.01206667,0.60439,0.62086
162.312,51.47263,-0.01076,0.61036,0.62096
162.912,51.66103,-0.01076984,0.61838,0.62107
163.512,51.85013,-0.003912891,0.61657,0.62117
164.112,52.0389,-0.01144651,0.62958,0.62127
164.712,52.2277,-0.01153,0.62126,0.62138
165.312,52.4167,-0.0102029,0.61914,0.62148
165.912,52.60499,-0.01157901,0.61836,0.62158
166.512,52.79449,-0.01152648,0.61713,0.62168
167.112,52.983,-0.01023418,0.63187,0.62177
167.712,53.17117,-0.01016736,0.62541,0.62187
168.312,53.35924,-0.009939851,0.61782,0.62197
168.912,53.5474,-0.01021002,0.62176,0.62206
169.512,53.73515,-0.01021,0.63759,0.62215
170.112,53.9231,-0.01021113,0.62323,0.62225
170.712,54.1119,-0.01120204,0.63334,0.62234
171.312,54.30069,-0.009877085,0.63627,0.62243
171.912,54.48945,-0.008890014,0.63732,0.62252
172.512,54.6782,-0.01162042,0.63812,0.62261
173.112,54.86626,-0.01163527,0.64875,0.6227
173.712,55.05548,-0.01055812,0.63505,0.62279
174.312,55.2441,-0.01295561,0.65065,0.62287
174.912,55.4322,-0.01163042,0.6425,0.62296
175.512,55.62085,-0.01196013,0.65608,0.62304
176.112,55.81,-0.01108,0.6575,0.62313
176.712,55.99869,-0.01229005,0.6499,0.62321
177.312,56.1887,-0.01097,0.65431,0.62329
177.912,56.378,-0.01097942,0.65303,0.62337
178.512,56.567,-0.01230557,0.64368,0.62345
179.112,56.7563,-0.01328377,0.65022,0.62353
179.712,56.9448,-0.01328048,0.65785,0.62361
180.312,57.13326,-0.01328,0.6504,0.62368
180.912,57.32189,-0.01229992,0.65416,0.62376
181.512,57.5105,-0.009298165,0.63579,0.62384
182.112,57.69888,-0.01305992,0.6123,0.62391
182.712,57.8872,-0.01428909,0.62201,0.62398
183.312,58.0756,-0.01295369,0.62752,0.62406
183.912,58.2642,-0.01314602,0.63237,0.62413
184.512,58.4523,-0.01436959,0.64051,0.6242
185.112,58.64059,-0.01339003,0.63628,0.62427
185.712,58.8286,-0.01475451,0.6482,0.62434
186.312,59.0167,-0.01629049,0.63274,0.6244
186.912,59.2049,-0.0135165,0.63479,0.62447
187.512,59.39265,-0.01371488,0.64076,0.62454
188.112,59.58039,-0.01360848,0.62659,0.6246
188.712,59.76889,-0.0136,0.63907,0.62466
189.312,59.95754,-0.0136,0.636,0.62473
189.912,60.146,-0.0136,0.63265,0.62479
190.512,60.3347,-0.01491943,0.61288,0.62485
191.112,60.52327,-0.01486862,0.62496,0.62491
191.712,60.71164,-0.01722686,0.62719,0.62497
192.312,60.89969,-0.01591008,0.63489,0.62503
192.912,61.0873,-0.0151559,0.64146,0.62508
193.512,61.2753,-0.01410075,0.64477,0.62514
194.112,61.4629,-0.01547152,0.64596,0.6252
194.712,61.65141,-0.01513909,0.64445,0.62525
195.312,61.8389,-0.01645927,0.64545,0.6253
195.912,62.02609,-0.01615663,0.62923,0.62536
196.512,62.2129,-0.01615236,0.65212,0.62541
197.112,62.40054,-0.01679247,0.65019,0.62546
197.712,62.5883,-0.01656999,0.65405,0.62551
198.312,62.7765,-0.01655161,0.65516,0.62556
198.912,62.96436,-0.01788954,0.65595,0.62561
199.512,63.15164,-0.01789144,0.66842,0.62565
200.112,63.33895,-0.01689994,0.66165,0.6257
200.712,63.52545,-0.01799763,0.68249,0.62575
201.312,63.7126,-0.01931902,0.67656,0.62579
201.912,63.8994,-0.01800033,0.68528,0.62583
202.512,64.08658,-0.01934162,0.68609,0.62588
203.112,64.2741,-0.02030599,0.69074,0.62592
203.712,64.4613,-0.01932,0.70177,0.62596
204.312,64.64909,-0.02030071,0.69191,0.626
204.912,64.83661,-0.02084695,0.71579,0.62604
205.512,65.02379,-0.02299268,0.7157,0.62607
206.112,65.2114,-0.02227013,0.71416,0.62611
206.712,65.39872,-0.02226956,0.70739,0.62615
207.312,65.58618,-0.02358587,0.70386,0.62618
207.912,65.774,-0.02362055,0.70765,0.62622
208.512,65.96181,-0.02219619,0.71195,0.62625
209.112,66.14965,-0.02292971,0.70521,0.62628
209.712,66.33798,-0.02292733,0.71184,0.62631
210.312,66.52585,-0.02359,0.70753,0.62634
210.912,66.71333,-0.02423095,0.70893,0.62637
211.512,66.9011,-0.02424999,0.69976,0.6264
212.112,67.08895,-0.02552177,0.71945,0.62643
212.712,67.27681,-0.02688,0.71682,0.62646
213.312,67.46473,-0.02688,0.72092,0.62648
213.912,67.6521,-0.02688,0.72465,0.62651
214.512,67.83917,-0.02551894,0.72177,0.62653
215.112,68.02614,-0.02809792,0.70944,0.62655
215.712,68.21377,-0.02819999,0.72572,0.62658
216.312,68.40127,-0.0305002,0.71987,0.6266
216.912,68.58924,-0.02922775,0.73514,0.62662
217.512,68.77648,-0.02918324,0.73165,0.62664
218.112,68.9642,-0.03049904,0.73376,0.62666
218.712,69.15255,-0.03082989,0.74063,0.62667
219.312,69.3405,-0.0311603,0.73528,0.62669
219.912,69.52869,-0.03323812,0.7414,0.62671
220.512,69.71639,-0.03455,0.72956,0.62672
221.112,69.90391,-0.03459006,0.74886,0.62674
221.712,70.09174,-0.03456064,0.74636,0.62675
222.312,70.27941,-0.03652763,0.75182,0.62676
222.912,70.4673,-0.03554999,0.75012,0.62677
223.512,70.65549,-0.03686,0.75086,0.62678
224.112,70.84376,-0.03849414,0.75026,0.62679
224.712,71.03233,-0.03931792,0.7685,0.6268
225.312,71.2204,-0.03949028,0.76669,0.62681
225.912,71.40831,-0.0421215,0.75219,0.62682
226.512,71.59584,-0.04310846,0.77819,0.62682
227.112,71.78362,-0.04370818,0.76756,0.62683
227.712,71.97155,-0.04345352,0.76355,0.62683
228.312,72.1587,-0.04345004,0.75411,0.62683
228.912,72.3462,-0.04342367,0.75071,0.62684
229.512,72.53381,-0.04673028,0.77102,0.62684
230.112,72.72107,-0.0480402,0.76825,0.62684
230.712,72.90861,-0.0483795,0.7696,0.62684
231.312,73.09653,-0.05097628,0.78194,0.62684
231.912,73.28438,-0.04991732,0.7834,0.62683
232.512,73.4725,-0.05202943,0.77488,0.62683
233.112,73.66069,-0.05463006,0.77532,0.62683
233.712,73.84863,-0.05333439,0.78416,0.62682
234.312,74.03616,-0.05724009,0.78451,0.62682
234.912,74.22378,-0.05693558,0.7885,0.62681
235.512,74.4108,-0.05988975,0.77641,0.6268
236.112,74.59859,-0.06111043,0.78439,0.62679
236.712,74.7869,-0.06130919,0.77795,0.62678
237.312,74.9754,-0.06405561,0.78781,0.62677
237.912,75.1638,-0.06440051,0.77551,0.62676
238.512,75.3519,-0.06584671,0.77347,0.62675
239.112,75.53985,-0.06734727,0.76087,0.62674
239.712,75.72729,-0.06967499,0.76742,0.62672
240.312,75.91409,-0.06958147,0.77597,0.62671
240.912,76.1006,-0.07358972,0.77701,0.62669
241.512,76.28868,-0.0749265,0.78178,0.62668
242.112,76.47671,-0.07886248,0.78433,0.62666
242.712,76.6652,-0.07889318,0.78343,0.62664
243.312,76.85333,-0.08012529,0.78035,0.62662
243.912,77.04089,-0.08441686,0.79702,0.6266
244.512,77.22881,-0.08698,0.78898,0.62658
245.112,77.41701,-0.08611131,0.79307,0.62656
245.712,77.60542,-0.09090855,0.79649,0.62654
246.312,77.79305,-0.09346427,0.79782,0.62651
246.912,77.98069,-0.09676383,0.80485,0.62649
247.512,78.16794,-0.09900193,0.81027,0.62646
248.112,78.3549,-0.10128,0.81031,0.62644
248.712,78.5419,-0.10237,0.81041,0.62641
249.312,78.7287,-0.10815,0.81542,0.62638
249.912,78.91623,-0.10882,0.82623,0.62635
250.512,79.10297,-0.11243,0.83574,0.62632
251.112,79.2906,-0.11506,0.82576,0.62629
251.712,79.4785,-0.11901,0.83172,0.62626
252.312,79.666,-0.12145,0.84497,0.62623
252.912,79.854,-0.12495,0.85131,0.62619
253.512,80.04122,-0.12742,0.85286,0.62616
254.112,80.22881,-0.13428,0.84194,0.62612
254.712,80.41521,-0.13533,0.85089,0.62609
255.312,80.60204,-0.13832,0.84922,0.62605
255.912,80.7899,-0.14225,0.85433,0.62601
256.512,80.97834,-0.14597,0.84297,0.62598
257.112,81.16786,-0.14866,0.83751,0.62594
257.712,81.35648,-0.1546,0.85532,0.6259
258.312,81.54486,-0.15828,0.84383,0.62585
258.912,81.7326,-0.16351,0.85468,0.62581
259.512,81.92143,-0.16606,0.84804,0.62577
260.112,82.11004,-0.17167,0.85593,0.62573
260.712,82.29921,-0.1743,0.85577,0.62568
261.312,82.4885,-0.18001,0.85177,0.62564
261.912,82.67729,-0.18376,0.85886,0.62559
262.512,82.86539,-0.18871,0.85901,0.62554
263.112,83.0531,-0.19394,0.85522,0.62549
263.712,83.24115,-0.19875,0.84869,0.62544
264.312,83.429,-0.20386,0.8598,0.62539
264.912,83.61761,-0.20819,0.85265,0.62534
265.512,83.80593,-0.21375,0.84678,0.62529
266.112,83.9944,-0.21788,0.85615,0.62524
266.712,84.18252,-0.22557,0.85927,0.62519
267.312,84.37097,-0.22912,0.85704,0.62513
267.912,84.55901,-0.23651,0.87044,0.62508
268.512,84.74669,-0.24052,0.8674,0.62502
269.112,84.93457,-0.24506,0.85657,0.62497
269.712,85.12235,-0.25327,0.86302,0.62491
270.312,85.31016,-0.25898,0.84741,0.62485
270.912,85.49818,-0.26326,0.8581,0.62479
271.512,85.68576,-0.26929,0.84957,0.62473
272.112,85.8734,-0.27302,0.86186,0.62467
272.712,86.06144,-0.28006,0.85412,0.62461
273.312,86.24922,-0.28566,0.85874,0.62454
273.912,86.43712,-0.28948,0.85351,0.62448
274.512,86.625,-0.2969,0.85842,0.62442
275.112,86.8124,-0.30305,0.85294,0.62435
275.712,87.0008,-0.30721,0.86163,0.62429
276.312,87.18929,-0.31502,0.84916,0.62422
276.912,87.378,-0.32084,0.86326,0.62415
277.512,87.56716,-0.32654,0.85413,0.62408
278.112,87.75577,-0.3309,0.85539,0.62401
278.712,87.9443,-0.33679,0.86329,0.62394
279.312,88.133,-0.34398,0.855,0.62387
279.912,88.3215,-0.34967,0.86077,0.6238
280.512,88.50946,-0.35541,0.86089,0.62373
281.112,88.69797,-0.36142,0.85448,0.62365
281.712,88.88623,-0.36744,0.85135,0.62358
282.312,89.07437,-0.37348,0.84981,0.6235
282.912,89.2633,-0.37647,0.84633,0.62343
283.512,89.45191,-0.38254,0.85688,0.62335
284.112,89.64089,-0.3883,0.8495,0.62327
284.712,89.82991,-0.39531,0.84479,0.62319
285.312,90.01878,-0.40057,0.84506,0.62311
285.912,90.2075,-0.40563,0.84523,0.62303
286.512,90.39649,-0.41303,0.84354,0.62295
287.112,90.5856,-0.41763,0.84417,0.62287
287.712,90.77454,-0.42537,0.84967,0.62279
288.312,90.9632,-0.43058,0.85524,0.6227
288.912,91.15202,-0.43765,0.85076,0.62262
289.512,91.34076,-0.44117,0.84752,0.62253
290.112,91.52934,-0.44688,0.84919,0.62245
290.712,91.71767,-0.45266,0.85586,0.62236
291.312,91.90605,-0.45992,0.87125,0.62227
291.912,92.09446,-0.46592,0.85294,0.62218
292.512,92.28309,-0.47034,0.86613,0.6221
293.112,92.47214,-0.47907,0.86197,0.622
293.712,92.66082,-0.48355,0.86111,0.62191
294.312,92.84939,-0.48753,0.86161,0.62182
294.912,93.0376,-0.49616,0.85667,0.62173
295.512,93.22618,-0.50234,0.86005,0.62164
296.112,93.41495,-0.50653,0.85821,0.62154
296.712,93.60378,-0.51257,0.86843,0.62145
297.312,93.7928,-0.51773,0.86686,0.62135
297.912,93.98231,-0.52391,0.86053,0.62125
298.512,94.17192,-0.53232,0.87086,0.62116
299.112,94.36076,-0.53711,0.87952,0.62106
299.712,94.55001,-0.54383,0.88463,0.62096
300.312,94.73855,-0.551,0.88095,0.62086
300.912,94.9273,-0.55602,0.89124,0.62076
301.512,95.1164,-0.56111,0.87658,0.62066
302.112,95.3053,-0.57122,0.88406,0.62055
302.712,95.49423,-0.57356,0.87973,0.62045
303.312,95.68302,-0.58393,0.8915,0.62035
303.912,95.87144,-0.58904,0.8878,0.62024
304.512,96.05991,-0.59581,0.89314,0.62013
305.112,96.24863,-0.60043,0.89349,0.62003
305.712,96.43775,-0.60767,0.91237,0.61992
306.312,96.62646,-0.61499,0.90779,0.61981
306.912,96.81453,-0.62238,0.92072,0.6197
307.512,97.004,-0.62948,0.92055,0.61959
308.112,97.19291,-0.6341,0.93002,0.61948
308.712,97.383,-0.64428,0.92858,0.61937
309.312,97.57298,-0.65017,0.93381,0.61926
309.912,97.76261,-0.65597,0.93743,0.61915
310.512,97.95313,-0.66293,0.95527,0.61903
311.112,98.14275,-0.6691,0.95923,0.61892
311.712,98.33244,-0.67808,0.95925,0.6188
312.312,98.52202,-0.6853,0.96234,0.61869
312.912,98.71131,-0.69298,0.96777,0.61857
313.512,98.90032,-0.69882,0.96486,0.61845
314.112,99.0895,-0.70474,0.9733,0.61833
314.712,99.27917,-0.71231,0.97014,0.61821
315.312,99.4688,-0.71966,0.99178,0.61809
315.912,99.65826,-0.72758,0.99981,0.61797
316.512,99.848,-0.737,1.00914,0.61785
317.112,100.038,-0.74497,0.999,0.61773
317.712,100.227,-0.75245,1.01693,0.61761
318.312,100.417,-0.76126,1.01999,0.61748
318.912,100.606,-0.76996,1.02442,0.61736
319.512,100.796,-0.77719,1.02836,0.61723
320.112,100.987,-0.78492,1.0315,0.61711
320.712,101.177,-0.79629,1.05716,0.61698
321.312,101.368,-0.80407,1.06316,0.61685
321.912,101.558,-0.8118,1.06324,0.61672
322.512,101.748,-0.82237,1.06159,0.61659
323.112,101.939,-0.83065,1.08747,0.61646
323.712,102.128,-0.842,1.09593,0.61633
324.312,102.318,-0.85017,1.09752,0.6162
324.912,102.508,-0.86094,1.10191,0.61607
325.512,102.698,-0.86942,1.11386,0.61593
326.112,102.887,-0.88108,1.12258,0.6158
326.712,103.075,-0.89081,1.13594,0.61566
327.312,103.265,-0.9001,1.14538,0.61553
327.912,103.455,-0.91198,1.15843,0.61539
328.512,103.647,-0.92301,1.17501,0.61526
329.112,103.839,-0.93558,1.18016,0.61512
329.712,104.03,-0.94658,1.18087,0.61498
330.312,104.22,-0.95922,1.20988,0.61484
330.912,104.41,-0.96964,1.22746,0.6147
331.512,104.6,-0.98171,1.24289,0.61456
332.112,104.79,-0.9931,1.24542,0.61442
332.712,104.98,-1.00812,1.27428,0.61427
333.312,105.17,-1.02018,1.2822,0.61413
333.912,105.36,-1.03446,1.3122,0.61399
334.512,105.551,-1.05066,1.30666,0.61384
335.112,105.742,-1.06229,1.32756,0.6137
335.712,105.933,-1.07817,1.33533,0.61355
336.312,106.123,-1.09086,1.34449,0.6134
336.912,106.314,-1.10641,1.3593,0.61325
337.512,106.505,-1.12216,1.3841,0.61311
338.112,106.697,-1.13834,1.39788,0.61296
338.712,106.886,-1.15302,1.40871,0.61281
339.312,107.076,-1.17015,1.42792,0.61266
339.912,107.267,-1.18635,1.43153,0.6125
340.512,107.457,-1.20098,1.4254,0.61235
341.112,107.65,-1.21998,1.45819,0.6122
341.712,107.841,-1.23559,1.45227,0.61205
342.312,108.032,-1.25007,1.4647,0.61189
342.912,108.223,-1.27141,1.46684,0.61174
343.512,108.414,-1.28517,1.4705,0.61158
344.112,108.606,-1.30246,1.45942,0.61142
344.712,108.797,-1.31844,1.46132,0.61127
345.312,108.9877,-1.33698,1.44034,0.61111
345.912,109.178,-1.3551,1.43609,0.61095
346.512,109.369,-1.3671,1.41417,0.61079
347.112,109.56,-1.38254,1.39802,0.61063
347.712,109.752,-1.39996,1.38396,0.61047
348.312,109.943,-1.41608,1.34249,0.6103
348.912,110.135,-1.43286,1.33236,0.61014
349.512,110.326,-1.44551,1.29943,0.60998
350.112,110.517,-1.45911,1.26567,0.60981
350.712,110.708,-1.47346,1.24222,0.60965
351.312,110.9,-1.48082,1.2055,0.60948
351.912,111.092,-1.49525,1.15176,0.60932
352.512,111.284,-1.50602,1.11215,0.60915
353.112,111.475,-1.5185,1.08756,0.60898
353.712,111.6656,-1.5266,1.05312,0.60881
354.312,111.857,-1.53375,0.98515,0.60864
354.912,112.047,-1.54189,0.93368,0.60847
355.512,112.239,-1.5492,0.89848,0.6083
356.112,112.43,-1.55832,0.86941,0.60813
356.712,112.621,-1.56149,0.83666,0.60796
357.312,112.812,-1.56572,0.79106,0.60779
357.912,113.002,-1.57084,0.7755,0.60761
358.512,113.193,-1.57464,0.71839,0.60744
359.112,113.384,-1.57881,0.71483,0.60727
359.712,113.575,-1.58068,0.68338,0.60709
360.312,113.766,-1.58605,0.66974,0.60691
360.912,113.958,-1.58729,0.67169,0.60674
361.512,114.149,-1.59124,0.65935,0.60656
362.112,114.341,-1.59123,0.64807,0.60638
362.712,114.533,-1.59325,0.64284,0.6062
363.312,114.724,-1.59597,0.64222,0.60602
363.912,114.9164,-1.59789,0.65208,0.60584
364.512,115.109,-1.5966,0.63517,0.60566
365.112,115.302,-1.59791,0.6298,0.60548
365.712,115.494,-1.60064,0.62666,0.60529
366.312,115.686,-1.60176,0.63834,0.60511
366.912,115.878,-1.60175,0.6251,0.60493
367.512,116.071,-1.60439,0.61804,0.60474
368.112,116.262,-1.60702,0.6059,0.60456
368.712,116.4545,-1.60702,0.61269,0.60437
369.312,116.647,-1.60688,0.59709,0.60418
369.912,116.839,-1.60833,0.59983,0.604
370.512,117.03,-1.60768,0.60019,0.60381
371.112,117.221,-1.61031,0.5955,0.60362
371.712,117.413,-1.61221,0.60155,0.60343
372.312,117.604,-1.61183,0.60375,0.60324
372.912,117.797,-1.61555,0.60003,0.60305
373.512,117.989,-1.61333,0.58361,0.60285
374.112,118.182,-1.61327,0.60035,0.60266
374.712,118.374,-1.6159,0.58787,0.60247
375.312,118.567,-1.61589,0.59445,0.60228
375.912,118.759,-1.6182,0.58496,0.60208
376.512,118.952,-1.62117,0.58599,0.60189
377.112,119.145,-1.61985,0.58159,0.60169
377.712,119.338,-1.62106,0.57789,0.60149
378.312,119.531,-1.62106,0.56821,0.6013
378.912,119.724,-1.62369,0.58378,0.6011
379.512,119.917,-1.625,0.58487,0.6009
380.112,120.11,-1.62632,0.58929,0.6007
380.712,120.303,-1.62764,0.59122,0.6005
381.312,120.496,-1.62803,0.58811,0.6003
381.912,120.688,-1.6268,0.56968,0.6001
382.512,120.881,-1.62863,0.56954,0.5999
383.112,121.073,-1.63126,0.5828,0.59969
383.712,121.265,-1.63119,0.56676,0.59949
384.312,121.457,-1.63251,0.55884,0.59929
384.912,121.65,-1.63508,0.57303,0.59908
385.512,121.843,-1.6351,0.57411,0.59888
386.112,122.036,-1.6351,0.57113,0.59867
386.712,122.229,-1.63642,0.57749,0.59846
387.312,122.422,-1.63864,0.57571,0.59826
387.912,122.616,-1.63861,0.58806,0.59805
388.512,122.809,-1.64118,0.5844,0.59784
389.112,123.003,-1.64091,0.58248,0.59763
389.712,123.196,-1.64355,0.57624,0.59742
390.312,123.3899,-1.64355,0.56968,0.59721
390.912,123.583,-1.64486,0.57446,0.597
391.512,123.777,-1.64877,0.56731,0.59679
392.112,123.9701,-1.64892,0.56144,0.59658
392.712,124.164,-1.64905,0.571,0.59636
393.312,124.357,-1.65023,0.55628,0.59615
393.912,124.55,-1.65287,0.57886,0.59593
394.512,124.7445,-1.65321,0.57874,0.59572
395.112,124.938,-1.65517,0.55919,0.5955
395.712,125.132,-1.65649,0.56071,0.59529
396.312,125.326,-1.65706,0.56375,0.59507
396.912,125.5197,-1.66008,0.57709,0.59485
397.512,125.713,-1.66405,0.57569,0.59463
398.112,125.907,-1.66145,0.57495,0.59441
398.712,126.1,-1.66471,0.56659,0.5942
399.312,126.293,-1.66668,0.56172,0.59397
399.912,126.4857,-1.66804,0.54702,0.59375
400.512,126.6788,-1.66933,0.54823,0.59353
401.112,126.872,-1.67057,0.57406,0.59331
401.712,127.0653,-1.67327,0.577,0.59309
402.312,127.259,-1.6736,0.58014,0.59286
402.912,127.453,-1.67589,0.56848,0.59264
403.512,127.647,-1.67854,0.56989,0.59242
404.112,127.84,-1.67853,0.55518,0.59219
404.712,128.034,-1.68249,0.5657,0.59196
405.312,128.228,-1.68379,0.54167,0.59174
405.912,128.423,-1.68643,0.56742,0.59151
406.512,128.619,-1.68906,0.57705,0.59128
407.112,128.814,-1.69105,0.58887,0.59105
407.712,129.009,-1.69167,0.58621,0.59083
408.312,129.204,-1.69433,0.57419,0.5906
408.912,129.399,-1.69465,0.57255,0.59037
409.512,129.594,-1.69861,0.58345,0.59013
410.112,129.7879,-1.70256,0.57706,0.5899
410.712,129.982,-1.70519,0.59918,0.58967
411.312,130.176,-1.70628,0.60675,0.58944
411.912,130.369,-1.70799,0.58785,0.5892
412.512,130.563,-1.70961,0.58977,0.58897
413.112,130.758,-1.71297,0.61245,0.58874
413.712,130.951,-1.7156,0.61197,0.5885
414.312,131.146,-1.71685,0.61622,0.58827
414.912,131.34,-1.72087,0.63181,0.58803
415.512,131.535,-1.72455,0.63027,0.58779
416.112,131.73,-1.72734,0.63882,0.58755
416.712,131.925,-1.7299,0.63028,0.58732
417.312,132.12,-1.73404,0.64189,0.58708
417.912,132.315,-1.73622,0.64726,0.58684
418.512,132.51,-1.74047,0.64253,0.5866
419.112,132.704,-1.74456,0.65961,0.58636
419.712,132.898,-1.74719,0.65064,0.58612
420.312,133.092,-1.75067,0.66953,0.58587
420.912,133.287,-1.75421,0.66154,0.58563
421.512,133.482,-1.75815,0.66587,0.58539
422.112,133.678,-1.76237,0.67405,0.58515
422.712,133.8732,-1.76638,0.69081,0.5849
423.312,134.0686,-1.77053,0.69265,0.58466
423.912,134.264,-1.77573,0.69395,0.58441
424.512,134.46,-1.78011,0.70916,0.58417
425.112,134.655,-1.78485,0.72442,0.58392
425.712,134.85,-1.79085,0.72031,0.58367
426.312,135.0445,-1.79567,0.72555,0.58342
426.912,135.24,-1.7993,0.75224,0.58318
427.512,135.436,-1.80617,0.73896,0.58293
428.112,135.633,-1.81135,0.75342,0.58268
428.712,135.829,-1.81676,0.76502,0.58243
429.312,136.025,-1.82257,0.77117,0.58218
429.912,136.22,-1.83023,0.78911,0.58193
430.512,136.4149,-1.83464,0.79353,0.58167
431.112,136.609,-1.84049,0.78576,0.58142
431.712,136.805,-1.84914,0.80825,0.58117
432.312,137,-1.85458,0.81442,0.58092
432.912,137.196,-1.86169,0.82737,0.58066
433.512,137.392,-1.86874,0.84684,0.58041
434.112,137.587,-1.87737,0.8541,0.58015
434.712,137.7827,-1.88388,0.86927,0.5799
435.312,137.979,-1.89531,0.87041,0.57964
435.912,138.175,-1.90373,0.88164,0.57938
436.512,138.3717,-1.91164,0.90348,0.57912
437.112,138.5678,-1.92029,0.9171,0.57887
437.712,138.764,-1.93284,0.93921,0.57861
438.312,138.9595,-1.94206,0.95369,0.57835
438.912,139.155,-1.95134,0.95598,0.57809
439.512,139.35,-1.9612,0.97693,0.57783
440.112,139.5464,-1.97199,0.98257,0.57757
440.712,139.7418,-1.98611,1.01337,0.57731
441.312,139.938,-1.9965,1.01016,0.57705
441.912,140.134,-2.00809,1.02284,0.57678
442.512,140.33,-2.02034,1.03302,0.57652
443.112,140.526,-2.03528,1.05494,0.57626
443.712,140.721,-2.05031,1.06127,0.57599
444.312,140.917,-2.06317,1.09143,0.57573
444.912,141.113,-2.07635,1.10276,0.57546
445.512,141.31,-2.09141,1.11407,0.5752
446.112,141.507,-2.10482,1.13407,0.57493
446.712,141.703,-2.12468,1.151,0.57466
447.312,141.9,-2.13942,1.15959,0.5744
447.912,142.096,-2.15945,1.18899,0.57413
448.512,142.292,-2.1765,1.20233,0.57386
449.112,142.488,-2.19373,1.22544,0.57359
449.712,142.684,-2.20941,1.2488,0.57332
450.312,142.879,-2.22972,1.26233,0.57305
450.912,143.0754,-2.2501,1.26273,0.57278
451.512,143.272,-2.27239,1.27538,0.57251
452.112,143.468,-2.29375,1.30256,0.57224
452.712,143.665,-2.31296,1.31301,0.57197
453.312,143.861,-2.33493,1.33315,0.57169
453.912,144.058,-2.35746,1.34176,0.57142
454.512,144.254,-2.38048,1.35598,0.57115
455.112,144.451,-2.4033,1.38095,0.57087
455.712,144.65,-2.42905,1.38811,0.5706
456.312,144.848,-2.45209,1.40936,0.57032
456.912,145.047,-2.47939,1.40477,0.57005
457.512,145.245,-2.49956,1.41374,0.56977
458.112,145.4428,-2.52928,1.41392,0.56949
458.712,145.6401,-2.55702,1.41669,0.56922
459.312,145.837,-2.58345,1.41038,0.56894
459.912,146.035,-2.60845,1.41762,0.56866
460.512,146.2332,-2.63618,1.41836,0.56838
461.112,146.431,-2.66273,1.4121,0.5681
461.712,146.628,-2.68885,1.41202,0.56782
462.312,146.824,-2.71665,1.4028,0.56754
462.912,147.021,-2.74311,1.37737,0.56726
463.512,147.217,-2.77003,1.39055,0.56698
464.112,147.414,-2.79674,1.37037,0.5667
464.712,147.61,-2.82277,1.35373,0.56642
465.312,147.807,-2.84848,1.3331,0.56613
465.912,148.003,-2.87686,1.29696,0.56585
466.512,148.199,-2.90055,1.27604,0.56556
467.112,148.396,-2.92796,1.23709,0.56528
467.712,148.593,-2.95296,1.20588,0.565
468.312,148.79,-2.97601,1.1862,0.56471
468.912,148.987,-2.99997,1.14461,0.56442
469.512,149.185,-3.0217,1.09623,0.56414
470.112,149.383,-3.04447,1.06464,0.56385
470.712,149.58,-3.06553,1.03304,0.56356
471.312,149.778,-3.08473,0.98753,0.56328
471.912,149.975,-3.10476,0.93873,0.56299
472.512,150.1736,-3.12264,0.90958,0.5627
473.112,150.372,-3.13779,0.85588,0.56241
473.712,150.5706,-3.14202,0.81725,0.56212
474.312,150.7691,-3.16832,0.77141,0.56183
474.912,150.968,-3.1834,0.70569,0.56154
475.512,151.166,-3.19544,0.67978,0.56125
476.112,151.363,-3.20612,0.62622,0.56095
476.712,151.561,-3.21544,0.58354,0.56066
477.312,151.759,-3.22688,0.54368,0.56037
477.912,151.957,-3.23577,0.50798,0.56008
478.512,152.155,-3.24292,0.4863,0.55978
479.112,152.352,-3.24768,0.44463,0.55949
479.712,152.55,-3.25341,0.4093,0.55919
480.312,152.748,-3.26031,0.37249,0.5589
480.912,152.946,-3.26298,0.34707,0.5586
481.512,153.143,-3.26576,0.32,0.55831
482.112,153.341,-3.26993,0.30335,0.55801
482.712,153.539,-3.27361,0.29001,0.55771
483.312,153.736,-3.27349,0.27645,0.55742
483.912,153.935,-3.27452,0.2741,0.55712
484.512,154.133,-3.27639,0.27424,0.55682
485.112,154.332,-3.279,0.2748,0.55652
485.712,154.531,-3.27951,0.27718,0.55622
486.312,154.729,-3.27951,0.27439,0.55592
486.912,154.927,-3.27952,0.2742,0.55562
487.512,155.125,-3.28225,0.25114,0.55532
488.112,155.323,-3.28225,0.23807,0.55502
488.712,155.5212,-3.28357,0.23242,0.55472
489.312,155.719,-3.28219,0.2453,0.55442
489.912,155.917,-3.28396,0.23546,0.55412
490.512,156.114,-3.28341,0.2201,0.55381
491.112,156.312,-3.28346,0.22826,0.55351
491.712,156.509,-3.28708,0.20934,0.55321
492.312,156.7071,-3.28577,0.20841,0.5529
492.912,156.905,-3.28577,0.20811,0.5526
493.512,157.103,-3.28747,0.19398,0.55229
494.112,157.301,-3.28614,0.20614,0.55199
494.712,157.4997,-3.2884,0.20325,0.55168
495.312,157.699,-3.28807,0.21438,0.55137
495.912,157.897,-3.29062,0.18817,0.55107
496.512,158.096,-3.28971,0.18844,0.55076
497.112,158.295,-3.29021,0.18442,0.55045
497.712,158.493,-3.2907,0.18387,0.55014
498.312,158.692,-3.29202,0.17471,0.54983
498.912,158.891,-3.29159,0.17614,0.54953
499.512,159.091,-3.29201,0.17261,0.54922
500.112,159.291,-3.292,0.16137,0.54891
500.712,159.491,-3.28971,0.17579,0.5486
501.312,159.69,-3.29104,0.17268,0.54829
501.912,159.889,-3.29333,0.18044,0.54797
502.512,160.088,-3.29355,0.16158,0.54766
503.112,160.287,-3.2926,0.17902,0.54735
503.712,160.486,-3.29739,0.1756,0.54704
504.312,160.685,-3.30036,0.18192,0.54673
504.912,160.884,-3.29753,0.18485,0.54641
505.512,161.083,-3.29607,0.17206,0.5461
506.112,161.282,-3.2974,0.17244,0.54578
506.712,161.481,-3.29804,0.16736,0.54547
507.312,161.68,-3.29585,0.17047,0.54515
507.912,161.88,-3.29454,0.16666,0.54484
508.512,162.079,-3.29717,0.18154,0.54452
509.112,162.278,-3.2975,0.15819,0.54421
509.712,162.478,-3.29839,0.1711,0.54389
510.312,162.678,-3.30012,0.17192,0.54357
510.912,162.878,-3.30013,0.1764,0.54326
511.512,163.078,-3.29992,0.17456,0.54294
512.112,163.278,-3.30011,0.16164,0.54262
512.712,163.4773,-3.30005,0.16657,0.5423
513.312,163.676,-3.30144,0.15279,0.54198
513.912,163.874,-3.30277,0.16968,0.54166
514.512,164.072,-3.30277,0.15501,0.54134
515.112,164.271,-3.30341,0.1573,0.54102
515.712,164.47,-3.30376,0.15101,0.5407
516.312,164.6703,-3.30375,0.16817,0.54038
516.912,164.8714,-3.30381,0.1607,0.54006
517.512,165.073,-3.30442,0.17036,0.53974
518.112,165.274,-3.30478,0.15463,0.53942
518.712,165.476,-3.30474,0.1731,0.53909
519.312,165.676,-3.30342,0.16744,0.53877
519.912,165.8763,-3.30606,0.17577,0.53845
520.512,166.076,-3.30543,0.17109,0.53812
521.112,166.276,-3.30638,0.16397,0.5378
521.712,166.476,-3.30605,0.16881,0.53748
522.312,166.676,-3.30605,0.16157,0.53715
522.912,166.876,-3.30836,0.16783,0.53683
523.512,167.076,-3.30591,0.15951,0.5365
524.112,167.277,-3.30597,0.15526,0.53617
524.712,167.4774,-3.30738,0.15585,0.53585
525.312,167.677,-3.30473,0.17731,0.53552
525.912,167.877,-3.30869,0.16406,0.53519
526.512,168.078,-3.30741,0.16029,0.53487
527.112,168.278,-3.30803,0.17405,0.53454
527.712,168.479,-3.30937,0.14411,0.53421
528.312,168.678,-3.30869,0.14914,0.53388
528.912,168.8771,-3.30676,0.15489,0.53355
529.512,169.077,-3.30808,0.15725,0.53322
530.112,169.277,-3.30946,0.1605,0.53289
530.712,169.478,-3.30933,0.15385,0.53256
531.312,169.678,-3.31077,0.1472,0.53223
531.912,169.878,-3.30946,0.15927,0.5319
532.512,170.077,-3.30945,0.15254,0.53157
533.112,170.277,-3.3088,0.1585,0.53124
533.712,170.476,-3.31069,0.13895,0.53091
534.312,170.676,-3.31144,0.12966,0.53058
534.912,170.876,-3.31011,0.13725,0.53024
535.512,171.078,-3.31143,0.13942,0.52991
536.112,171.279,-3.31143,0.14235,0.52958
536.712,171.48,-3.31011,0.14961,0.52924
537.312,171.682,-3.31143,0.14048,0.52891
537.912,171.883,-3.31299,0.12446,0.52858
538.512,172.085,-3.31033,0.12115,0.52824
539.112,172.286,-3.31099,0.12763,0.52791
539.712,172.487,-3.31165,0.1327,0.52757
540.312,172.687,-3.31165,0.13036,0.52724
540.912,172.8864,-3.31298,0.13245,0.5269
541.512,173.087,-3.31169,0.14398,0.52656
542.112,173.287,-3.31033,0.1448,0.52623
542.712,173.488,-3.31172,0.13559,0.52589
543.312,173.689,-3.31198,0.12142,0.52555
543.912,173.889,-3.3133,0.1258,0.52521
544.512,174.09,-3.31395,0.1368,0.52488
545.112,174.291,-3.31384,0.13557,0.52454
545.712,174.492,-3.31363,0.13362,0.5242
546.312,174.693,-3.31504,0.12598,0.52386
546.912,174.895,-3.31374,0.13016,0.52352
547.512,175.096,-3.31502,0.11349,0.52318
548.112,175.3,-3.31304,0.11988,0.52284
548.712,175.503,-3.31363,0.12214,0.5225
549.312,175.705,-3.31505,0.11216,0.52216
549.912,175.907,-3.31365,0.13112,0.52182
550.512,176.108,-3.31505,0.13014,0.52148
551.112,176.309,-3.31563,0.10244,0.52114
551.712,176.51,-3.31505,0.10844,0.5208
552.312,176.712,-3.31373,0.10589,0.52045
552.912,176.914,-3.31634,0.09894289,0.52011
553.512,177.115,-3.31511,0.0937281,0.51977
554.112,177.3162,-3.31494,0.08037856,0.51942
554.712,177.517,-3.31551,0.08492198,0.51908
555.312,177.719,-3.31439,0.08984771,0.51874
555.912,177.922,-3.31834,0.07868716,0.51839
556.512,178.124,-3.31702,0.09939296,0.51805
557.112,178.327,-3.31703,0.10574,0.5177
557.712,178.529,-3.31634,0.11242,0.51736
558.312,178.73,-3.31768,0.10313,0.51701
558.912,178.931,-3.31505,0.10174,0.51667
559.512,179.133,-3.31653,0.13852,0.51632
560.112,179.335,-3.31735,0.11896,0.51598
560.712,179.538,-3.31989,0.11667,0.51563
561.312,179.741,-3.31999,0.11239,0.51528
561.912,179.943,-3.31767,0.10331,0.51493
562.512,180.144,-3.31768,0.11532,0.51459
563.112,180.345,-3.31865,0.11426,0.51424
563.712,180.545,-3.31702,0.12408,0.51389
564.312,180.745,-3.31604,0.1337,0.51354
564.912,180.948,-3.31736,0.14012,0.51319
565.512,181.151,-3.31801,0.13667,0.51285
566.112,181.355,-3.31796,0.13094,0.5125
566.712,181.557,-3.31899,0.13597,0.51215
567.312,181.761,-3.31703,0.13133,0.5118
567.912,181.964,-3.31571,0.12971,0.51145
568.512,182.167,-3.31702,0.12137,0.5111
569.112,182.369,-3.31548,0.13261,0.51075
569.712,182.57,-3.32074,0.1329,0.5104
570.312,182.772,-3.32042,0.11,0.51004
570.912,182.973,-3.32042,0.1125,0.50969
571.512,183.175,-3.31894,0.12144,0.50934
572.112,183.377,-3.32031,0.10415,0.50899
572.712,183.579,-3.32097,0.12411,0.50864
573.312,183.7828,-3.32097,0.11289,0.50828
573.912,183.9873,-3.31955,0.12176,0.50793
574.512,184.192,-3.32021,0.13133,0.50758
575.112,184.395,-3.32053,0.13147,0.50723
575.712,184.595,-3.32179,0.13067,0.50687
576.312,184.795,-3.32054,0.1382,0.50652
576.912,184.995,-3.3216,0.13356,0.50616
577.512,185.197,-3.31891,0.13472,0.50581
578.112,185.4,-3.31889,0.13259,0.50545
578.712,185.604,-3.32153,0.14194,0.5051
579.312,185.808,-3.32021,0.14743,0.50474
579.912,186.012,-3.32152,0.15712,0.50439
580.512,186.216,-3.32031,0.16625,0.50403
581.112,186.42,-3.32163,0.1485,0.50368
581.712,186.6234,-3.32031,0.13963,0.50332
582.312,186.826,-3.32039,0.14811,0.50296
582.912,187.028,-3.32027,0.14238,0.50261
583.512,187.231,-3.32163,0.16592,0.50225
584.112,187.433,-3.32158,0.18092,0.50189
584.712,187.636,-3.3213,0.17826,0.50154
585.312,187.839,-3.31988,0.17989,0.50118
585.912,188.042,-3.32022,0.15655,0.50082
586.512,188.246,-3.32185,0.14665,0.50046
587.112,188.448,-3.32054,0.16654,0.5001
587.712,188.65,-3.32054,0.16643,0.49974
588.312,188.8529,-3.32317,0.16359,0.49939
588.912,189.0552,-3.32308,0.17937,0.49903
589.512,189.258,-3.32142,0.17598,0.49867
590.112,189.461,-3.32201,0.16917,0.49831
590.712,189.665,-3.32335,0.15189,0.49795
591.312,189.869,-3.32185,0.15448,0.49759
591.912,190.072,-3.31429,0.1581,0.49723
592.512,190.276,-3.32205,0.13575,0.49687
593.112,190.48,-3.32207,0.13234,0.4965
593.712,190.6841,-3.32328,0.12643,0.49614
594.312,190.887,-3.3221,0.1497,0.49578
594.912,191.089,-3.32206,0.15708,0.49542
595.512,191.291,-3.32207,0.15998,0.49506
596.112,191.495,-3.32485,0.15556,0.4947
596.712,191.6995,-3.32328,0.15618,0.49433
597.312,191.904,-3.32196,0.15339,0.49397
597.912,192.108,-3.31926,0.18114,0.49361
598.512,192.311,-3.31998,0.17066,0.49325
599.112,192.514,-3.32232,0.13987,0.49288
599.712,192.718,-3.3227,0.14964,0.49252
600.312,192.9209,-3.3203,0.13834,0.49216
600.912,193.125,-3.32179,0.14285,0.49179
601.512,193.328,-3.32274,0.13401,0.49143
602.112,193.532,-3.32247,0.12805,0.49106
602.712,193.734,-3.32034,0.1451,0.4907
603.312,193.937,-3.32273,0.14349,0.49033
603.912,194.141,-3.32427,0.13284,0.48997
604.512,194.346,-3.3257,0.11714,0.4896
605.112,194.551,-3.32264,0.12406,0.48924
605.712,194.755,-3.32327,0.12479,0.48887
606.312,194.959,-3.32338,0.12467,0.48851
606.912,195.163,-3.32304,0.13064,0.48814
607.512,195.368,-3.32207,0.13142,0.48778
608.112,195.572,-3.32316,0.12733,0.48741
608.712,195.775,-3.32446,0.11077,0.48704
609.312,195.979,-3.32408,0.1222,0.48668
609.912,196.184,-3.32208,0.10726,0.48631
610.512,196.389,-3.32272,0.08746415,0.48594
611.112,196.595,-3.32272,0.08539627,0.48558
611.712,196.799,-3.32273,0.08305229,0.48521
612.312,197.004,-3.32305,0.07270886,0.48484
612.912,197.208,-3.32449,0.08789592,0.48447
613.512,197.413,-3.32481,0.08445091,0.4841
614.112,197.618,-3.32251,0.07347602,0.48374
614.712,197.822,-3.32381,0.08903266,0.48337
615.312,198.025,-3.32384,0.08808881,0.483
615.912,198.226,-3.32571,0.08841377,0.48263
616.512,198.428,-3.32645,0.09155146,0.48226
617.112,198.631,-3.32547,0.09056771,0.48189
617.712,198.838,-3.32481,0.08538951,0.48152
618.312,199.044,-3.32547,0.08984063,0.48115
618.912,199.251,-3.32621,0.0852457,0.48078
619.512,199.456,-3.32361,0.09744299,0.48041
620.112,199.661,-3.32623,0.08858433,0.48004
620.712,199.866,-3.32525,0.10235,0.47967
621.312,200.072,-3.32394,0.10285,0.4793
621.912,200.276,-3.32576,0.10665,0.47893
622.512,200.481,-3.32655,0.09584165,0.47856
623.112,200.685,-3.32553,0.09596053,0.47819
623.712,200.89,-3.32558,0.09102496,0.47782
624.312,201.094,-3.32559,0.09171609,0.47745
624.912,201.298,-3.32525,0.09902924,0.47708
625.512,201.502,-3.32493,0.10377,0.4767
626.112,201.7056,-3.3246,0.09724626,0.47633
626.712,201.91,-3.32327,0.09454099,0.47596
627.312,202.114,-3.32361,0.09540267,0.47559
627.912,202.319,-3.32569,0.0912305,0.47522
628.512,202.524,-3.32434,0.08670984,0.47484
629.112,202.731,-3.32437,0.09479787,0.47447
629.712,202.936,-3.32501,0.10045,0.4741
630.312,203.141,-3.32262,0.10443,0.47372
630.912,203.345,-3.32231,0.09189629,0.47335
631.512,203.549,-3.32372,0.09873278,0.47298
632.112,203.755,-3.32397,0.08083469,0.4726
632.712,203.961,-3.3236,0.07098515,0.47223
633.312,204.167,-3.32349,0.09141397,0.47186
633.912,204.373,-3.3223,0.10021,0.47148
634.512,204.578,-3.32449,0.07825939,0.47111
635.112,204.782,-3.32449,0.1008,0.47073
635.712,204.987,-3.32449,0.10603,0.47036
636.312,205.191,-3.32449,0.10387,0.46999
636.912,205.3957,-3.32454,0.08810526,0.46961
637.512,205.6,-3.32646,0.09219295,0.46924
638.112,205.805,-3.32449,0.08840355,0.46886
638.712,206.01,-3.32635,0.09274095,0.46849
639.312,206.215,-3.32504,0.10826,0.46811
639.912,206.421,-3.32569,0.09678226,0.46774
640.512,206.627,-3.32569,0.09824408,0.46736
641.112,206.832,-3.32574,0.09419111,0.46698
641.712,207.037,-3.32454,0.0915255,0.46661
642.312,207.242,-3.32601,0.0844214,0.46623
642.912,207.448,-3.32473,0.07491583,0.46586
643.512,207.654,-3.32326,0.03768643,0.46548
644.112,207.861,-3.32375,0.04926007,0.4651
644.712,208.067,-3.32316,0.05659882,0.46473
645.312,208.272,-3.32448,0.04217561,0.46435
645.912,208.476,-3.32431,0.01582041,0.46397
646.512,208.682,-3.32448,-0.001144258,0.4636
647.112,208.887,-3.32583,0.03892733,0.46322
647.712,209.0931,-3.32441,0.05085536,0.46284
648.312,209.298,-3.32547,0.017652,0.46247
648.912,209.504,-3.32685,0.00602128,0.46209
649.512,209.709,-3.32415,-0.00680791,0.46171
650.112,209.9157,-3.3268,0.0231115,0.46133
650.712,210.122,-3.32547,0.0127012,0.46095
651.312,210.329,-3.32678,0.03418532,0.46058
651.912,210.535,-3.32404,0.02797715,0.4602
652.512,210.74,-3.32436,0.05810105,0.45982
653.112,210.945,-3.32427,0.02167763,0.45944
653.712,211.15,-3.32438,0.02327645,0.45906
654.312,211.355,-3.32428,0.0084492,0.45869
654.912,211.562,-3.32438,0.01574629,0.45831
655.512,211.768,-3.32438,0.02245523,0.45793
656.112,211.973,-3.32438,0.02931851,0.45755
656.712,212.179,-3.32438,0.03417761,0.45717
657.312,212.383,-3.32376,0.06127805,0.45679
657.912,212.589,-3.32427,0.04560142,0.45641
658.512,212.794,-3.32331,0.06589143,0.45603
659.112,213.001,-3.3247,0.01464243,0.45565
659.712,213.207,-3.32499,-0.01621945,0.45527
660.312,213.4134,-3.32214,-0.0313459,0.4549
660.912,213.62,-3.32372,-0.03042443,0.45452
661.512,213.825,-3.32372,-0.0185948,0.45414
662.112,214.031,-3.32371,-0.01080734,0.45376
662.712,214.237,-3.32503,0.004057522,0.45338
663.312,214.444,-3.32361,0.009391483,0.453
663.912,214.6502,-3.32372,0.01533716,0.45262
664.512,214.857,-3.32371,-0.009449654,0.45224
665.112,215.064,-3.32437,-0.00636819,0.45186
665.712,215.272,-3.32425,-0.001178207,0.45147
666.312,215.4782,-3.32437,-0.00796837,0.45109
666.912,215.684,-3.32305,-0.01703293,0.45071
667.512,215.889,-3.32109,-0.01172104,0.45033
668.112,216.093,-3.32086,-0.01791121,0.44995
668.712,216.298,-3.32251,0.007213508,0.44957
669.312,216.504,-3.32316,-0.02595678,0.44919
669.912,216.711,-3.32053,-0.01456769,0.44881
670.512,216.917,-3.32406,-0.0140319,0.44843
671.112,217.123,-3.32514,-0.002667645,0.44805
671.712,217.329,-3.32251,0.009088004,0.44767
672.312,217.5357,-3.32449,0.001464524,0.44728
672.912,217.742,-3.32185,0.005122348,0.4469
673.512,217.95,-3.32283,0.01190148,0.44652
674.112,218.157,-3.32217,-0.009017529,0.44614
674.712,218.364,-3.32137,-0.01265058,0.44576
675.312,218.57,-3.32218,-0.01187988,0.44538
675.912,218.775,-3.32197,-0.000510214,0.44499
676.512,218.981,-3.32168,-0.02087142,0.44461
677.112,219.189,-3.32316,-0.01890278,0.44423
677.712,219.396,-3.32311,-0.06068302,0.44385
678.312,219.602,-3.32163,-0.0273199,0.44347
678.912,219.808,-3.32195,-0.01599176,0.44308
679.512,220.013,-3.32426,-0.0470418,0.4427
680.112,220.218,-3.32295,-0.02765356,0.44232
680.712,220.423,-3.32294,-0.01823112,0.44194
681.312,220.628,-3.32293,-0.01633503,0.44155
681.912,220.833,-3.32292,-0.001947636,0.44117
682.512,221.04,-3.32196,0.01353428,0.44079
683.112,221.247,-3.32295,0.01128511,0.44041
683.712,221.456,-3.32327,0.02836099,0.44002
684.312,221.665,-3.32327,0.0186056,0.43964
684.912,221.874,-3.32196,0.02777099,0.43926
685.512,222.082,-3.32059,0.03745525,0.43887
686.112,222.29,-3.32426,0.04348198,0.43849
686.712,222.496,-3.32296,0.01679675,0.43811
687.312,222.702,-3.32074,0.0215998,0.43773
687.912,222.909,-3.32241,0.04924503,0.43734
688.512,223.115,-3.32346,0.03084492,0.43696
689.112,223.321,-3.32339,0.03710254,0.43658
689.712,223.528,-3.31946,0.04575213,0.43619
690.312,223.7348,-3.32306,0.0447,0.43581
690.912,223.942,-3.32059,0.03418749,0.43543
691.512,224.149,-3.32075,0.04046404,0.43504
692.112,224.356,-3.3203,0.04418381,0.43466
692.712,224.564,-3.32306,0.02552161,0.43428
693.312,224.771,-3.32112,0.001942137,0.43389
693.912,224.978,-3.3224,0.01200698,0.43351
694.512,225.185,-3.3213,0.03058725,0.43312
695.112,225.392,-3.32251,0.005092035,0.43274
695.712,225.6,-3.32021,0.01771619,0.43236
696.312,225.8074,-3.32414,0.01911478,0.43197
696.912,226.016,-3.32218,0.009082449,0.43159
697.512,226.224,-3.3212,0.001470248,0.43121
698.112,226.432,-3.32251,-0.002063006,0.43082
698.712,226.64,-3.3201,0.0141823,0.43044
699.312,226.848,-3.3201,0.01633332,0.43005
699.912,227.0549,-3.3201,0.02085473,0.42967
700.512,227.262,-3.32078,0.0412524,0.42929
701.112,227.47,-3.32306,0.01244736,0.4289
701.712,227.678,-3.32062,0.05158135,0.42852
702.312,227.885,-3.32009,0.03074263,0.42813
702.912,228.0909,-3.32009,0.06400928,0.42775
703.512,228.296,-3.32015,0.05692356,0.42737
704.112,228.502,-3.31976,0.05558239,0.42698
704.712,228.708,-3.32108,0.04982048,0.4266
705.312,228.915,-3.3206,0.04875973,0.42621
705.912,229.122,-3.32141,0.05013854,0.42583
706.512,229.331,-3.32141,0.07167349,0.42544
707.112,229.539,-3.32009,0.05968312,0.42506
707.712,229.7471,-3.32009,0.09431807,0.42467
708.312,229.955,-3.32032,0.07959201,0.42429
708.912,230.163,-3.31911,0.09737845,0.42391
709.512,230.372,-3.32156,0.077514,0.42352
710.112,230.58,-3.32054,0.07583163,0.42314
710.712,230.7877,-3.31572,0.08553548,0.42275
711.312,230.995,-3.32163,0.05524819,0.42237
711.912,231.202,-3.31658,0.06246376,0.42198
712.512,231.409,-3.32087,0.06349477,0.4216
713.112,231.616,-3.32087,0.05822167,0.42121
713.712,231.824,-3.31955,0.05054493,0.42083
714.312,232.0312,-3.31856,0.06555712,0.42045
714.912,232.239,-3.31988,0.07852797,0.42006
715.512,232.448,-3.32103,0.06909018,0.41968
716.112,232.656,-3.31988,0.07437105,0.41929
716.712,232.8639,-3.31856,0.06896011,0.41891
717.312,233.071,-3.31921,0.07708589,0.41852
717.912,233.279,-3.3196,0.06879179,0.41814
718.512,233.487,-3.3197,0.07333587,0.41775
719.112,233.696,-3.3201,0.07220358,0.41737
719.712,233.905,-3.31997,0.0650929,0.41698
720.312,234.113,-3.32085,0.08864504,0.4166
720.912,234.321,-3.31922,0.07400645,0.41622
721.512,234.529,-3.3178,0.08731771,0.41583
722.112,234.736,-3.3191,0.10412,0.41545
722.712,234.944,-3.31943,0.09039334,0.41506
723.312,235.152,-3.31943,0.0961765,0.41468
723.912,235.361,-3.31878,0.11158,0.41429
724.512,235.57,-3.32108,0.14197,0.41391
725.112,235.779,-3.31966,0.1614,0.41352
725.712,235.988,-3.31867,0.16877,0.41314
726.312,236.1964,-3.31878,0.17249,0.41275
726.912,236.405,-3.31999,0.1799,0.41237
727.512,236.615,-3.31834,0.17728,0.41198
728.112,236.824,-3.31831,0.18786,0.4116
728.712,237.032,-3.31907,0.16295,0.41122
729.312,237.2404,-3.31889,0.1674,0.41083
729.912,237.448,-3.31889,0.16873,0.41045
730.512,237.656,-3.31879,0.17019,0.41006
731.112,237.864,-3.31882,0.17124,0.40968
731.712,238.073,-3.31889,0.14358,0.40929
732.312,238.282,-3.31991,0.15855,0.40891
732.912,238.4902,-3.31889,0.15334,0.40852
733.512,238.698,-3.31918,0.10787,0.40814
734.112,238.908,-3.31751,0.11811,0.40776
734.712,239.1174,-3.32009,0.11786,0.40737
735.312,239.327,-3.31975,0.16006,0.40699
735.912,239.536,-3.31821,0.14379,0.4066
736.512,239.744,-3.32039,0.18536,0.40622
737.112,239.952,-3.32906,0.18146,0.40583
737.712,240.16,-3.31725,0.21655,0.40545
738.312,240.369,-3.31856,0.21021,0.40507
738.912,240.578,-3.31856,0.21015,0.40468
739.512,240.787,-3.31856,0.2098,0.4043
740.112,240.996,-3.32021,0.21379,0.40391
740.712,241.205,-3.31889,0.23349,0.40353
741.312,241.414,-3.31615,0.2353,0.40314
741.912,241.622,-3.32043,0.25374,0.40276
742.512,241.8304,-3.32293,0.26025,0.40238
743.112,242.039,-3.32195,0.25997,0.40199
743.712,242.248,-3.32042,0.2688,0.40161
744.312,242.457,-3.31893,0.31798,0.40123
744.912,242.666,-3.31586,0.33012,0.40084
745.512,242.875,-3.31854,0.33585,0.40046
746.112,243.084,-3.32561,0.33498,0.40007
746.712,243.294,-3.31906,0.33401,0.39969
746.812,243.33,-3.319,0.3322,0.39963