File: 01_Data/Fiberglass_Insulation_R13_Paper_Faced_Paper/MCC/Fiberglass_Insulation_R13_Paper_Faced_Paper_MCC_30K_min_220214_R1.txt
Sample ID:	C:\MCC\MCC Cal\Test\R13_Fiberglas_InsulationA_MCC_30K_min_220214_R1.txt
Sample Weight (mg):	4.83
Heating Rate (C/s):	0.5
Combustor Temp (C):	900
N2 Flow Rate (cc/min):	80
O2 Flow Rate (cc/min):	20
Calibration File:	C:\MCC\MCC Cal\Coeff1 JN10440_30_210304.txt.txt
T Correction Coefficients:	0	1.024463	0
Time Shift (s):	14
*
Time (s)	Temperature (C)	N2 flow rate (cc/min)	O2 flow rate (cc/min)	Flow Rate (cc/min)	Oxygen (%)	HRR (W/g)	Heating rate (C/s)
0.000	113.252	80.004	19.994	103.645	20.018	0.005	0.005
2.000	113.146	80.005	19.993	103.643	20.015	0.204	-0.045
4.000	113.204	80.004	19.993	103.653	20.017	0.064	0.008
6.000	113.189	80.004	19.993	103.655	20.017	0.047	-0.047
8.000	113.175	80.003	19.994	103.651	20.014	0.275	-0.010
10.000	113.215	80.004	19.994	103.658	20.016	0.093	0.021
12.000	113.236	80.005	19.993	103.675	20.016	0.155	0.006
14.000	113.222	80.004	19.994	103.677	20.018	0.020	-0.038
16.001	113.240	80.008	19.992	103.682	20.013	0.312	0.019
18.000	113.266	80.005	19.992	103.690	20.011	0.445	-0.008
20.000	113.286	80.006	19.992	103.723	20.009	0.629	-0.005
22.000	113.350	80.005	19.993	103.737	20.005	0.853	0.049
24.000	113.385	80.006	19.993	103.727	20.006	0.821	0.024
26.000	113.528	80.004	19.994	103.750	19.998	1.353	0.065
28.000	113.619	80.005	19.994	103.772	19.996	1.437	0.041
30.000	113.749	80.003	19.993	103.824	19.989	1.926	0.070
32.000	113.941	80.004	19.993	103.826	19.991	1.800	0.101
34.000	114.147	80.003	19.995	103.841	19.988	2.017	0.128
36.000	114.356	80.002	19.994	103.862	19.986	2.131	0.134
38.000	114.616	80.004	19.994	103.854	19.988	2.018	0.132
40.000	114.896	80.004	19.994	103.855	19.984	2.264	0.113
42.000	115.182	80.004	19.993	103.863	19.976	2.803	0.135
44.001	115.549	80.004	19.995	103.874	19.976	2.792	0.179
46.001	115.955	80.007	19.994	103.881	19.976	2.786	0.187
48.000	116.330	80.006	19.994	103.889	19.975	2.896	0.216
50.000	116.771	80.006	19.994	103.903	19.976	2.819	0.241
52.000	117.229	80.005	19.994	103.907	19.973	3.025	0.222
54.001	117.728	80.004	19.994	103.906	19.972	3.079	0.241
56.000	118.231	80.005	19.994	103.907	19.971	3.119	0.251
58.000	118.730	80.003	19.994	103.907	19.971	3.181	0.292
60.000	119.314	80.003	19.995	103.907	19.971	3.143	0.282
62.000	119.900	80.002	19.994	103.906	19.971	3.150	0.285
64.000	120.534	80.004	19.995	103.913	19.971	3.169	0.300
66.000	121.126	80.003	19.994	103.937	19.967	3.397	0.292
68.000	121.796	80.006	19.994	103.932	19.969	3.286	0.316
70.000	122.471	80.007	19.994	103.936	19.966	3.463	0.354
72.000	123.194	80.004	19.993	103.926	19.967	3.424	0.357
74.001	123.929	80.007	19.993	103.937	19.965	3.547	0.390
76.000	124.657	80.009	19.993	103.940	19.970	3.235	0.376
78.000	125.414	80.006	19.993	103.941	19.965	3.536	0.372
80.000	126.215	80.004	19.993	103.948	19.963	3.667	0.398
82.000	126.945	80.000	19.994	103.947	19.963	3.673	0.374
84.000	127.781	80.004	19.993	103.945	19.965	3.553	0.407
86.000	128.601	80.003	19.994	103.951	19.965	3.530	0.417
88.000	129.430	80.003	19.994	103.948	19.964	3.607	0.421
90.000	130.288	80.002	19.995	103.945	19.965	3.583	0.462
92.000	131.126	79.999	19.993	103.952	19.966	3.469	0.419
94.000	131.984	80.001	19.994	103.946	19.963	3.654	0.436
96.000	132.852	80.004	19.994	103.932	19.968	3.364	0.425
98.000	133.759	80.005	19.994	103.947	19.967	3.386	0.427
100.001	134.680	80.006	19.995	103.939	19.968	3.322	0.437
102.000	135.584	80.006	19.993	103.934	19.966	3.477	0.442
104.000	136.513	80.004	19.993	103.934	19.964	3.623	0.484
106.000	137.438	80.003	19.994	103.939	19.962	3.774	0.454
108.000	138.393	80.013	19.992	103.932	19.964	3.646	0.487
110.000	139.356	79.998	19.994	103.929	19.963	3.670	0.477
112.000	140.286	80.005	19.992	103.938	19.964	3.605	0.456
114.000	141.269	80.003	19.995	103.925	19.965	3.521	0.482
116.000	142.244	80.004	19.994	103.931	19.967	3.384	0.483
118.000	143.157	80.006	19.994	103.932	19.965	3.551	0.484
120.000	144.167	80.003	19.994	103.921	19.968	3.352	0.497
122.000	145.137	80.005	19.994	103.938	19.967	3.447	0.483
124.000	146.140	80.007	19.994	103.935	19.966	3.468	0.510
126.000	147.097	80.007	19.995	103.937	19.966	3.493	0.476
128.000	148.072	80.009	19.994	103.923	19.964	3.595	0.486
130.000	149.140	80.005	19.994	103.926	19.965	3.558	0.519
132.000	150.138	80.003	19.993	103.912	19.967	3.435	0.533
134.000	151.080	80.006	19.994	103.927	19.968	3.323	0.497
136.000	152.085	80.008	19.992	103.929	19.966	3.458	0.499
138.000	153.084	80.004	19.994	103.932	19.968	3.318	0.507
140.000	154.093	80.004	19.993	103.913	19.967	3.407	0.504
142.000	155.061	80.006	19.993	103.920	19.969	3.266	0.453
144.000	156.092	80.003	19.993	103.932	19.968	3.363	0.518
146.000	157.106	80.006	19.995	103.921	19.969	3.264	0.521
148.000	158.126	80.006	19.994	103.917	19.969	3.268	0.529
150.000	159.106	80.006	19.994	103.925	19.970	3.198	0.510
152.000	160.107	80.006	19.993	103.910	19.969	3.284	0.499
154.000	161.120	80.007	19.994	103.910	19.967	3.408	0.517
156.000	162.136	80.006	19.994	103.907	19.968	3.357	0.499
158.000	163.101	80.006	19.995	103.903	19.967	3.418	0.512
160.000	164.155	80.005	19.995	103.904	19.971	3.136	0.504
162.000	165.178	80.005	19.994	103.903	19.970	3.229	0.506
164.000	166.184	80.003	19.993	103.902	19.972	3.063	0.549
166.000	167.136	80.005	19.994	103.900	19.971	3.165	0.472
168.000	168.171	80.005	19.993	103.907	19.969	3.267	0.527
170.000	169.142	80.004	19.992	103.907	19.973	3.023	0.483
172.000	170.173	80.006	19.994	103.901	19.973	2.986	0.502
174.000	171.213	80.005	19.994	103.901	19.973	2.994	0.520
176.000	172.161	80.006	19.993	103.901	19.971	3.149	0.522
178.000	173.164	80.004	19.993	103.889	19.973	3.025	0.513
180.000	174.170	80.004	19.994	103.890	19.971	3.160	0.515
182.000	175.158	80.005	19.994	103.885	19.972	3.103	0.479
184.000	176.187	80.004	19.994	103.892	19.977	2.773	0.491
186.000	177.157	80.004	19.993	103.888	19.979	2.633	0.475
188.000	178.178	80.005	19.993	103.889	19.974	2.943	0.479
190.000	179.169	80.004	19.993	103.885	19.975	2.882	0.502
192.000	180.139	80.006	19.993	103.896	19.981	2.466	0.484
194.000	181.139	80.004	19.994	103.898	19.976	2.780	0.504
196.000	182.111	80.004	19.994	103.898	19.976	2.835	0.469
198.000	183.123	80.003	19.994	103.892	19.976	2.813	0.522
200.000	184.150	80.004	19.994	103.908	19.976	2.815	0.540
202.000	185.111	80.004	19.993	103.876	19.977	2.746	0.484
204.000	186.141	80.005	19.994	103.878	19.975	2.895	0.529
206.000	187.117	80.006	19.993	103.894	19.977	2.729	0.493
208.000	188.119	80.007	19.993	103.882	19.973	3.043	0.470
210.000	189.080	80.004	19.993	103.884	19.973	3.032	0.503
212.000	190.110	80.005	19.993	103.885	19.975	2.884	0.523
214.000	191.024	80.004	19.993	103.896	19.974	2.975	0.526
216.000	192.021	80.004	19.993	103.880	19.976	2.822	0.455
218.000	193.051	80.006	19.994	103.891	19.975	2.891	0.500
220.000	194.007	80.005	19.994	103.887	19.977	2.771	0.478
222.000	194.985	80.005	19.993	103.878	19.975	2.897	0.469
224.000	195.977	80.003	19.993	103.871	19.978	2.649	0.463
226.000	196.956	80.006	19.993	103.871	19.975	2.854	0.470
228.000	197.921	80.006	19.993	103.869	19.975	2.906	0.491
230.000	198.925	80.005	19.994	103.877	19.973	3.030	0.499
232.000	199.912	80.007	19.992	103.872	19.973	3.042	0.489
234.000	200.916	80.007	19.995	103.890	19.973	2.982	0.511
236.000	201.889	80.004	19.993	103.878	19.972	3.099	0.453
238.000	202.924	80.005	19.994	103.870	19.971	3.165	0.484
240.000	203.866	80.005	19.995	103.870	19.973	2.984	0.478
242.000	204.817	80.004	19.994	103.870	19.973	3.044	0.455
244.000	205.831	80.003	19.995	103.874	19.972	3.097	0.470
246.000	206.828	80.004	19.994	103.871	19.973	3.006	0.496
248.000	207.862	80.002	19.995	103.868	19.976	2.791	0.500
250.000	208.868	80.003	19.995	103.874	19.972	3.085	0.477
252.000	209.809	80.002	19.994	103.870	19.973	3.021	0.494
254.000	210.836	80.004	19.994	103.871	19.973	3.008	0.500
256.000	211.807	80.004	19.994	103.871	19.972	3.110	0.495
258.000	212.806	80.005	19.994	103.871	19.969	3.271	0.496
260.000	213.814	80.004	19.992	103.875	19.974	2.953	0.503
262.000	214.832	80.003	19.994	103.880	19.974	2.973	0.515
264.000	215.808	80.003	19.993	103.877	19.971	3.177	0.483
266.000	216.829	80.003	19.994	103.878	19.972	3.055	0.502
268.000	217.834	80.005	19.994	103.878	19.974	2.960	0.502
270.000	218.799	80.004	19.994	103.882	19.968	3.358	0.481
272.000	219.811	80.004	19.993	103.873	19.967	3.422	0.510
274.000	220.811	80.003	19.994	103.874	19.968	3.378	0.512
276.000	221.816	80.002	19.994	103.873	19.967	3.434	0.483
278.000	222.826	80.003	19.992	103.875	19.965	3.564	0.488
280.000	223.832	80.001	19.994	103.874	19.965	3.570	0.514
282.001	224.860	80.005	19.994	103.872	19.965	3.553	0.522
284.000	225.811	80.004	19.994	103.872	19.964	3.591	0.496
286.000	226.805	80.006	19.993	103.869	19.968	3.321	0.469
288.000	227.810	80.004	19.993	103.866	19.965	3.544	0.497
290.000	228.870	80.005	19.994	103.869	19.962	3.767	0.547
292.000	229.849	80.008	19.993	103.869	19.963	3.704	0.447
294.000	230.841	80.007	19.994	103.870	19.964	3.604	0.489
296.000	231.886	80.006	19.994	103.870	19.962	3.763	0.520
298.000	232.889	80.005	19.993	103.870	19.960	3.894	0.519
300.000	233.899	80.003	19.994	103.870	19.963	3.715	0.501
302.000	234.907	80.003	19.994	103.871	19.961	3.836	0.528
304.000	235.907	80.004	19.993	103.869	19.960	3.868	0.497
306.000	236.904	80.005	19.994	103.866	19.956	4.146	0.517
308.000	237.921	80.005	19.995	103.868	19.959	3.963	0.509
310.000	238.902	80.006	19.994	103.868	19.957	4.064	0.489
312.000	239.885	80.007	19.994	103.868	19.954	4.273	0.503
314.000	240.938	80.008	19.994	103.867	19.950	4.531	0.529
316.000	241.880	80.005	19.994	103.859	19.950	4.525	0.493
318.000	242.926	80.005	19.993	103.868	19.946	4.823	0.514
320.000	243.927	80.005	19.993	103.869	19.948	4.680	0.495
322.000	244.908	80.002	19.995	103.861	19.947	4.773	0.496
324.001	245.923	80.003	19.993	103.870	19.940	5.195	0.491
326.000	246.913	80.004	19.994	103.870	19.938	5.342	0.489
328.000	247.878	80.003	19.994	103.868	19.940	5.215	0.479
330.000	248.882	80.003	19.994	103.873	19.939	5.311	0.503
332.000	249.928	80.004	19.995	103.868	19.934	5.658	0.537
334.000	250.956	80.002	19.993	103.870	19.933	5.671	0.503
336.000	251.979	80.003	19.993	103.870	19.931	5.811	0.513
338.000	252.931	80.002	19.995	103.870	19.928	6.012	0.467
340.000	253.937	80.002	19.994	103.871	19.929	5.985	0.481
342.000	254.882	80.003	19.994	103.869	19.920	6.574	0.497
344.001	255.894	80.003	19.994	103.867	19.921	6.524	0.486
346.000	256.911	80.003	19.994	103.871	19.917	6.791	0.507
348.000	257.916	80.003	19.993	103.868	19.912	7.105	0.477
350.000	258.933	80.004	19.994	103.869	19.910	7.272	0.530
352.000	259.943	80.004	19.993	103.872	19.908	7.378	0.507
354.000	260.905	80.003	19.994	103.868	19.907	7.421	0.471
356.000	261.915	80.003	19.994	103.872	19.902	7.748	0.508
358.000	262.863	80.004	19.994	103.875	19.900	7.878	0.467
360.000	263.887	80.002	19.993	103.871	19.896	8.186	0.516
362.000	264.871	80.005	19.993	103.873	19.893	8.402	0.486
364.000	265.893	80.005	19.993	103.880	19.890	8.581	0.492
366.000	266.871	80.003	19.993	103.871	19.887	8.801	0.518
368.000	267.900	80.005	19.993	103.869	19.884	9.008	0.503
370.000	268.910	80.004	19.993	103.869	19.876	9.516	0.516
372.000	269.894	80.005	19.993	103.873	19.875	9.560	0.504
374.000	270.893	80.004	19.994	103.879	19.871	9.828	0.516
376.000	271.941	80.005	19.993	103.881	19.862	10.446	0.532
378.000	272.939	80.004	19.993	103.884	19.859	10.658	0.498
380.000	273.908	80.005	19.994	103.887	19.854	10.993	0.480
382.000	274.920	80.004	19.994	103.894	19.848	11.413	0.496
384.000	275.928	80.004	19.993	103.903	19.843	11.765	0.527
386.000	276.886	80.005	19.992	103.881	19.835	12.265	0.492
388.000	277.889	80.005	19.992	103.898	19.831	12.519	0.496
390.000	278.945	80.005	19.992	103.905	19.823	13.094	0.536
392.000	279.910	80.006	19.993	103.908	19.816	13.560	0.500
394.000	280.949	80.007	19.994	103.906	19.811	13.902	0.505
396.000	281.915	80.007	19.993	103.909	19.809	14.007	0.491
398.000	282.886	80.004	19.993	103.907	19.800	14.600	0.477
400.000	283.892	80.004	19.994	103.910	19.792	15.193	0.500
402.000	284.883	80.003	19.994	103.910	19.786	15.572	0.474
404.000	285.896	80.005	19.993	103.916	19.774	16.406	0.523
406.000	286.887	80.003	19.994	103.911	19.770	16.635	0.518
408.000	287.856	80.004	19.994	103.916	19.762	17.194	0.476
410.000	288.939	80.004	19.992	103.917	19.756	17.600	0.501
412.000	289.883	80.003	19.993	103.913	19.748	18.122	0.484
414.000	290.892	80.004	19.994	103.925	19.740	18.635	0.494
416.001	291.893	80.006	19.994	103.932	19.733	19.111	0.494
418.001	292.909	80.005	19.994	103.935	19.723	19.799	0.493
420.000	293.932	80.004	19.993	103.941	19.716	20.261	0.495
422.000	294.971	80.006	19.994	103.934	19.709	20.709	0.527
424.000	296.015	80.003	19.994	103.937	19.699	21.408	0.523
426.000	297.020	80.005	19.994	103.943	19.689	22.095	0.525
428.000	298.045	80.004	19.994	103.945	19.680	22.711	0.525
430.000	299.051	80.003	19.994	103.946	19.668	23.476	0.512
432.000	300.050	80.003	19.995	103.945	19.660	24.066	0.513
434.000	301.049	80.003	19.994	103.945	19.651	24.665	0.493
436.000	302.069	80.002	19.994	103.951	19.640	25.367	0.512
438.000	303.065	80.003	19.994	103.952	19.631	25.986	0.518
440.000	304.062	80.004	19.994	103.947	19.622	26.621	0.517
442.000	305.040	80.002	19.994	103.955	19.610	27.391	0.494
444.000	306.088	80.005	19.993	103.965	19.600	28.101	0.517
446.000	307.087	80.006	19.993	103.981	19.585	29.058	0.553
448.000	308.078	80.004	19.994	103.984	19.575	29.718	0.472
450.000	309.116	80.005	19.992	103.984	19.567	30.315	0.506
452.000	310.164	80.005	19.993	103.988	19.552	31.265	0.514
454.000	311.138	80.006	19.993	103.989	19.540	32.138	0.538
456.000	312.187	80.004	19.993	103.990	19.529	32.841	0.522
458.000	313.187	80.005	19.992	103.988	19.519	33.553	0.506
460.000	314.213	80.003	19.993	103.995	19.503	34.620	0.501
462.000	315.207	80.004	19.993	103.998	19.488	35.588	0.510
464.000	316.217	80.003	19.993	104.008	19.476	36.437	0.502
466.000	317.223	80.006	19.992	104.023	19.461	37.447	0.494
468.000	318.241	80.005	19.993	104.021	19.452	38.039	0.529
470.000	319.219	80.006	19.993	104.025	19.437	39.014	0.474
472.000	320.211	80.006	19.993	104.025	19.424	39.948	0.447
474.000	321.240	80.007	19.993	104.026	19.408	41.011	0.503
476.000	322.220	80.007	19.992	104.027	19.398	41.651	0.501
478.000	323.233	80.006	19.993	104.040	19.381	42.814	0.526
480.000	324.246	80.008	19.992	104.040	19.369	43.639	0.532
482.000	325.270	80.003	19.993	104.041	19.352	44.743	0.552
484.000	326.260	80.003	19.993	104.050	19.335	45.893	0.506
486.000	327.286	80.004	19.993	104.059	19.322	46.779	0.516
488.000	328.280	80.005	19.994	104.062	19.305	47.945	0.481
490.000	329.296	80.002	19.993	104.064	19.288	49.071	0.522
492.000	330.314	80.002	19.994	104.065	19.275	49.973	0.482
494.001	331.300	80.005	19.992	104.065	19.258	51.115	0.493
496.001	332.334	80.005	19.993	104.063	19.245	52.000	0.519
498.000	333.314	80.004	19.994	104.068	19.228	53.087	0.498
500.000	334.353	80.005	19.993	104.081	19.210	54.317	0.496
502.000	335.381	80.003	19.994	104.092	19.196	55.262	0.481
504.000	336.374	80.005	19.993	104.085	19.178	56.466	0.469
506.000	337.396	80.004	19.993	104.089	19.165	57.365	0.523
508.000	338.417	80.004	19.993	104.100	19.151	58.302	0.537
510.000	339.411	80.003	19.992	104.097	19.135	59.352	0.503
512.000	340.438	80.004	19.995	104.097	19.121	60.340	0.494
514.000	341.439	80.004	19.993	104.107	19.108	61.207	0.497
516.000	342.468	80.003	19.993	104.106	19.092	62.264	0.521
518.000	343.426	80.004	19.994	104.106	19.082	62.953	0.478
520.000	344.443	80.002	19.994	104.108	19.074	63.487	0.545
522.000	345.460	80.002	19.994	104.105	19.063	64.193	0.533
524.000	346.487	80.002	19.994	104.104	19.055	64.700	0.515
526.000	347.514	80.004	19.993	104.102	19.051	65.013	0.539
528.000	348.481	80.004	19.993	104.098	19.047	65.272	0.504
530.000	349.528	80.004	19.993	104.089	19.042	65.594	0.511
532.000	350.533	80.004	19.994	104.090	19.043	65.500	0.511
534.000	351.548	80.004	19.993	104.074	19.046	65.291	0.506
536.000	352.579	80.006	19.994	104.067	19.052	64.860	0.472
538.000	353.652	80.005	19.993	104.055	19.060	64.337	0.533
540.000	354.644	80.006	19.993	104.026	19.075	63.298	0.489
542.000	355.628	80.005	19.992	104.024	19.093	62.113	0.470
544.000	356.633	80.006	19.994	104.008	19.108	61.045	0.516
546.000	357.691	80.006	19.994	103.987	19.130	59.612	0.506
548.000	358.683	80.006	19.993	103.969	19.154	57.950	0.507
550.000	359.670	80.006	19.994	103.952	19.188	55.697	0.500
552.000	360.664	80.006	19.993	103.937	19.216	53.802	0.489
554.000	361.717	80.007	19.993	103.912	19.252	51.340	0.507
556.000	362.719	80.005	19.992	103.898	19.292	48.663	0.487
558.000	363.734	80.007	19.993	103.870	19.329	46.221	0.497
560.000	364.708	80.005	19.992	103.868	19.364	43.829	0.505
562.000	365.744	80.005	19.993	103.862	19.397	41.614	0.506
564.000	366.745	80.005	19.993	103.832	19.433	39.231	0.484
566.000	367.762	80.005	19.994	103.828	19.472	36.591	0.503
568.000	368.764	80.006	19.993	103.821	19.505	34.406	0.506
570.000	369.756	80.006	19.993	103.815	19.535	32.393	0.506
572.000	370.780	80.005	19.993	103.812	19.563	30.522	0.500
574.000	371.801	80.005	19.992	103.801	19.586	28.975	0.480
576.000	372.850	80.007	19.993	103.808	19.608	27.462	0.536
578.000	373.819	80.004	19.993	103.801	19.629	26.069	0.487
580.000	374.862	80.005	19.993	103.798	19.645	25.034	0.499
582.000	375.891	80.005	19.993	103.798	19.655	24.336	0.554
584.000	376.885	80.004	19.994	103.800	19.663	23.765	0.514
586.000	377.883	80.004	19.992	103.795	19.668	23.472	0.531
588.000	378.881	80.004	19.994	103.791	19.676	22.954	0.472
590.000	379.886	80.004	19.992	103.792	19.677	22.823	0.467
592.000	380.934	80.004	19.993	103.794	19.680	22.679	0.495
594.000	381.902	80.003	19.996	103.792	19.682	22.503	0.482
596.000	382.936	80.004	19.994	103.799	19.686	22.266	0.516
598.000	383.929	80.002	19.994	103.800	19.681	22.567	0.528
600.000	384.937	80.004	19.993	103.793	19.680	22.645	0.524
602.001	385.920	80.005	19.994	103.793	19.679	22.707	0.503
604.000	386.966	80.005	19.992	103.790	19.673	23.118	0.540
606.000	387.974	80.005	19.994	103.792	19.671	23.228	0.525
608.000	388.974	80.005	19.994	103.796	19.670	23.333	0.513
610.000	389.989	80.006	19.994	103.788	19.666	23.593	0.506
612.000	391.002	80.004	19.994	103.789	19.664	23.739	0.483
614.000	391.999	80.004	19.995	103.788	19.655	24.362	0.497
616.000	393.044	80.004	19.994	103.786	19.654	24.380	0.511
618.000	394.068	80.007	19.994	103.789	19.649	24.730	0.529
620.000	395.059	80.005	19.995	103.790	19.644	25.053	0.475
622.000	396.103	80.005	19.994	103.789	19.638	25.492	0.501
624.000	397.111	80.004	19.993	103.789	19.632	25.895	0.505
626.000	398.102	80.006	19.993	103.787	19.628	26.112	0.505
628.000	399.126	80.006	19.992	103.789	19.625	26.330	0.502
630.000	400.150	80.007	19.994	103.790	19.620	26.693	0.497
632.000	401.165	80.006	19.992	103.789	19.613	27.124	0.518
634.000	402.180	80.008	19.993	103.790	19.605	27.660	0.530
636.001	403.164	80.006	19.994	103.789	19.598	28.125	0.512
638.000	404.204	80.007	19.993	103.788	19.592	28.531	0.533
640.000	405.199	80.006	19.994	103.789	19.589	28.756	0.507
642.000	406.209	80.004	19.994	103.789	19.580	29.337	0.494
644.000	407.209	80.004	19.994	103.791	19.576	29.606	0.525
646.000	408.265	80.004	19.993	103.786	19.572	29.860	0.518
648.000	409.237	80.004	19.993	103.788	19.566	30.306	0.498
650.000	410.259	80.003	19.993	103.790	19.555	31.020	0.512
652.000	411.285	80.003	19.994	103.788	19.552	31.242	0.524
654.000	412.310	80.004	19.994	103.792	19.546	31.616	0.519
656.000	413.313	80.005	19.993	103.793	19.539	32.097	0.526
658.000	414.314	80.003	19.993	103.775	19.534	32.473	0.512
660.000	415.330	80.007	19.993	103.787	19.523	33.198	0.498
662.000	416.359	80.004	19.992	103.779	19.515	33.698	0.541
664.000	417.408	80.004	19.992	103.787	19.506	34.306	0.535
666.000	418.418	80.005	19.992	103.776	19.501	34.675	0.495
668.000	419.441	80.006	19.994	103.782	19.497	34.881	0.494
670.000	420.449	80.004	19.993	103.784	19.485	35.750	0.531
672.000	421.515	80.005	19.994	103.785	19.477	36.286	0.511
674.000	422.531	80.005	19.993	103.775	19.466	37.000	0.518
676.000	423.527	80.004	19.993	103.766	19.462	37.271	0.506
678.000	424.556	80.004	19.993	103.766	19.454	37.767	0.530
680.000	425.599	80.003	19.994	103.764	19.448	38.165	0.545
682.000	426.599	80.004	19.994	103.762	19.434	39.118	0.496
684.000	427.583	80.006	19.994	103.760	19.425	39.710	0.490
686.000	428.682	80.007	19.994	103.755	19.420	40.067	0.533
688.000	429.660	80.006	19.994	103.754	19.412	40.625	0.503
690.000	430.673	80.005	19.993	103.753	19.404	41.160	0.504
692.000	431.742	80.004	19.994	103.756	19.396	41.678	0.527
694.000	432.734	80.005	19.993	103.759	19.385	42.396	0.476
696.000	433.775	80.004	19.993	103.750	19.379	42.841	0.521
698.000	434.777	80.005	19.994	103.751	19.369	43.486	0.528
700.000	435.826	80.004	19.994	103.751	19.360	44.093	0.521
702.000	436.854	80.005	19.994	103.752	19.356	44.378	0.526
704.000	437.861	80.005	19.995	103.752	19.348	44.879	0.525
706.000	438.895	80.004	19.994	103.746	19.342	45.325	0.509
708.000	439.903	80.004	19.995	103.749	19.331	46.014	0.516
710.000	440.913	80.005	19.993	103.751	19.326	46.363	0.492
712.000	441.949	80.006	19.994	103.746	19.319	46.807	0.511
714.000	442.919	80.004	19.995	103.756	19.314	47.188	0.484
716.000	443.941	80.006	19.992	103.750	19.307	47.634	0.516
718.000	444.976	80.005	19.993	103.753	19.303	47.876	0.527
720.000	445.966	80.004	19.992	103.752	19.296	48.384	0.499
722.000	447.003	80.003	19.992	103.747	19.293	48.603	0.538
724.001	447.943	80.003	19.992	103.748	19.292	48.643	0.501
726.000	448.999	80.003	19.993	103.741	19.289	48.854	0.523
728.000	449.999	80.005	19.992	103.746	19.285	49.123	0.522
730.000	450.989	80.003	19.994	103.736	19.282	49.341	0.487
732.000	452.029	80.004	19.994	103.742	19.282	49.329	0.508
734.000	453.040	80.003	19.993	103.724	19.279	49.519	0.504
736.000	454.031	80.004	19.993	103.735	19.279	49.510	0.498
738.000	455.082	80.004	19.993	103.750	19.278	49.570	0.500
740.000	456.097	80.006	19.993	103.750	19.280	49.465	0.520
742.000	457.115	80.003	19.992	103.744	19.277	49.623	0.506
744.000	458.121	80.004	19.993	103.725	19.285	49.114	0.495
746.000	459.141	80.005	19.993	103.729	19.290	48.794	0.518
748.000	460.120	80.007	19.993	103.737	19.295	48.448	0.491
750.000	461.147	80.004	19.992	103.733	19.305	47.806	0.498
752.000	462.145	80.005	19.993	103.748	19.311	47.397	0.506
754.000	463.149	80.003	19.994	103.743	19.323	46.590	0.527
756.000	464.110	80.003	19.994	103.738	19.333	45.920	0.477
758.000	465.166	80.004	19.993	103.732	19.344	45.176	0.508
760.000	466.140	80.004	19.993	103.746	19.354	44.467	0.511
762.000	467.156	80.004	19.994	103.747	19.367	43.594	0.513
764.000	468.130	80.005	19.993	103.749	19.381	42.710	0.496
766.000	469.189	80.005	19.993	103.745	19.395	41.728	0.519
768.000	470.219	80.007	19.994	103.742	19.413	40.527	0.514
770.000	471.194	80.005	19.994	103.745	19.430	39.386	0.481
772.000	472.259	80.005	19.994	103.749	19.445	38.367	0.539
774.000	473.223	80.006	19.995	103.748	19.464	37.113	0.509
776.000	474.262	80.004	19.994	103.750	19.482	35.883	0.504
778.000	475.295	80.004	19.993	103.751	19.504	34.418	0.517
780.000	476.293	80.004	19.994	103.752	19.526	32.976	0.512
782.000	477.293	80.004	19.993	103.753	19.545	31.717	0.505
784.000	478.287	80.004	19.994	103.755	19.564	30.420	0.496
786.000	479.288	80.005	19.993	103.755	19.587	28.859	0.492
788.000	480.282	80.005	19.994	103.754	19.601	27.911	0.490
790.000	481.334	80.005	19.993	103.745	19.620	26.669	0.512
792.000	482.335	80.005	19.994	103.750	19.642	25.162	0.530
794.000	483.347	80.005	19.994	103.752	19.660	23.986	0.510
796.000	484.368	80.006	19.994	103.753	19.681	22.583	0.534
798.000	485.369	80.004	19.995	103.751	19.697	21.492	0.512
800.000	486.408	80.005	19.994	103.747	19.713	20.436	0.521
802.000	487.361	80.003	19.995	103.752	19.727	19.481	0.482
804.000	488.363	80.004	19.993	103.753	19.743	18.402	0.494
806.000	489.425	80.003	19.994	103.757	19.759	17.359	0.542
808.000	490.404	80.004	19.993	103.779	19.772	16.491	0.488
810.000	491.455	80.003	19.993	103.763	19.786	15.548	0.497
812.000	492.491	80.003	19.993	103.774	19.798	14.731	0.522
814.000	493.512	80.006	19.994	103.760	19.806	14.235	0.516
816.000	494.528	80.004	19.993	103.755	19.817	13.450	0.523
818.000	495.571	80.005	19.994	103.758	19.828	12.741	0.528
820.000	496.634	80.005	19.994	103.780	19.838	12.068	0.510
822.001	497.649	80.005	19.993	103.766	19.850	11.263	0.482
824.000	498.723	80.006	19.993	103.767	19.858	10.707	0.524
826.000	499.730	80.005	19.993	103.762	19.869	9.992	0.501
828.000	500.766	80.004	19.992	103.769	19.873	9.695	0.515
830.000	501.791	80.002	19.993	103.775	19.880	9.209	0.549
832.000	502.818	80.005	19.993	103.769	19.886	8.856	0.471
834.000	503.867	80.003	19.995	103.778	19.891	8.494	0.516
836.000	504.926	80.004	19.994	103.775	19.900	7.932	0.499
838.000	505.948	80.002	19.994	103.780	19.905	7.596	0.531
840.000	506.997	80.005	19.993	103.766	19.907	7.451	0.507
842.000	508.005	80.004	19.993	103.767	19.911	7.168	0.511
844.000	509.084	80.006	19.992	103.773	19.916	6.799	0.529
846.000	510.130	80.004	19.993	103.760	19.920	6.579	0.540
848.000	511.135	80.004	19.994	103.775	19.923	6.379	0.504
850.000	512.118	80.006	19.992	103.768	19.928	6.022	0.488
852.000	513.153	80.006	19.992	103.762	19.931	5.852	0.492
854.000	514.230	80.006	19.994	103.759	19.933	5.717	0.530
856.000	515.236	80.006	19.993	103.754	19.939	5.304	0.524
858.000	516.261	80.005	19.994	103.757	19.940	5.231	0.522
860.000	517.285	80.003	19.995	103.753	19.941	5.168	0.479
862.001	518.372	80.005	19.995	103.755	19.944	4.934	0.495
864.000	519.402	80.005	19.994	103.753	19.951	4.455	0.506
866.000	520.445	80.005	19.994	103.754	19.948	4.679	0.540
868.000	521.483	80.005	19.994	103.762	19.947	4.769	0.530
870.000	522.507	80.007	19.993	103.761	19.953	4.325	0.510
872.000	523.558	80.008	19.994	103.776	19.956	4.178	0.544
874.000	524.577	80.008	19.993	103.760	19.958	3.990	0.511
876.000	525.600	80.007	19.995	103.768	19.963	3.693	0.489
878.000	526.658	80.007	19.994	103.767	19.957	4.048	0.497
880.000	527.676	80.003	19.993	103.757	19.962	3.771	0.522
882.000	528.705	80.005	19.994	103.758	19.963	3.684	0.511
884.000	529.744	80.003	19.995	103.753	19.964	3.602	0.523
886.000	530.792	80.003	19.994	103.766	19.964	3.615	0.478
888.000	531.855	80.002	19.994	103.754	19.965	3.567	0.523
890.000	532.883	80.004	19.994	103.752	19.964	3.626	0.526
892.000	533.907	80.003	19.994	103.755	19.967	3.427	0.505
894.000	534.898	80.002	19.996	103.755	19.967	3.380	0.497
896.000	535.937	80.003	19.995	103.755	19.972	3.105	0.505
898.000	536.977	80.005	19.993	103.758	19.970	3.183	0.504
900.000	537.976	80.004	19.993	103.758	19.972	3.058	0.485
902.000	539.052	80.004	19.992	103.756	19.972	3.101	0.536
904.000	540.077	80.003	19.994	103.757	19.973	2.977	0.486
906.000	541.114	80.003	19.993	103.757	19.973	3.025	0.507
908.000	542.142	80.003	19.993	103.764	19.973	3.039	0.519
910.000	543.149	80.003	19.993	103.774	19.972	3.050	0.520
912.000	544.183	80.004	19.993	103.759	19.973	2.977	0.510
914.000	545.181	80.003	19.994	103.756	19.975	2.851	0.489
916.000	546.232	80.004	19.993	103.763	19.974	2.966	0.532
918.000	547.267	80.005	19.994	103.755	19.974	2.950	0.538
920.000	548.279	80.004	19.993	103.757	19.973	3.023	0.500
922.000	549.320	80.006	19.994	103.760	19.971	3.128	0.492
924.000	550.320	80.004	19.994	103.760	19.973	2.990	0.507
926.001	551.408	80.007	19.993	103.756	19.976	2.797	0.542
928.000	552.427	80.007	19.994	103.755	19.976	2.811	0.506
930.000	553.411	80.007	19.992	103.755	19.976	2.798	0.515
932.001	554.490	80.005	19.992	103.753	19.978	2.691	0.513
934.000	555.554	80.006	19.994	103.753	19.978	2.640	0.533
936.000	556.567	80.005	19.993	103.761	19.980	2.560	0.526
938.000	557.583	80.005	19.994	103.759	19.976	2.804	0.511
940.000	558.616	80.005	19.992	103.752	19.978	2.693	0.516
942.000	559.655	80.004	19.993	103.758	19.980	2.514	0.523
944.000	560.706	80.006	19.993	103.758	19.981	2.474	0.490
946.000	561.759	80.005	19.993	103.759	19.981	2.471	0.509
948.001	562.788	80.005	19.992	103.771	19.977	2.724	0.531
950.000	563.817	80.005	19.993	103.758	19.977	2.728	0.521
952.000	564.804	80.006	19.995	103.755	19.980	2.525	0.498
954.000	565.828	80.007	19.993	103.762	19.977	2.717	0.516
956.000	566.850	80.006	19.994	103.761	19.979	2.602	0.522
958.000	567.881	80.006	19.993	103.752	19.981	2.462	0.501
960.000	568.897	80.003	19.994	103.757	19.983	2.352	0.479
962.000	569.950	80.004	19.994	103.762	19.981	2.494	0.465
964.000	570.975	80.005	19.993	103.756	19.981	2.494	0.511
966.000	572.028	80.003	19.994	103.761	19.982	2.409	0.536
968.000	573.056	80.003	19.994	103.761	19.982	2.438	0.516
970.000	574.102	80.003	19.993	103.758	19.981	2.491	0.511
972.000	575.210	80.003	19.994	103.755	19.984	2.250	0.535
974.000	576.255	80.002	19.995	103.757	19.980	2.571	0.487
976.000	577.246	80.005	19.995	103.761	19.981	2.498	0.480
978.000	578.266	80.004	19.994	103.760	19.982	2.410	0.505
980.000	579.324	80.004	19.994	103.760	19.984	2.266	0.527
982.000	580.306	80.005	19.995	103.757	19.985	2.172	0.493
984.000	581.382	80.004	19.995	103.751	19.986	2.159	0.504
986.000	582.420	80.003	19.994	103.755	19.984	2.247	0.529
988.000	583.434	80.004	19.995	103.749	19.985	2.185	0.487
990.000	584.434	80.003	19.994	103.750	19.986	2.104	0.494
992.000	585.490	80.005	19.993	103.752	19.982	2.392	0.541
994.000	586.508	80.004	19.993	103.758	19.984	2.265	0.527
996.000	587.529	80.002	19.993	103.754	19.986	2.132	0.502
998.000	588.559	80.004	19.993	103.757	19.988	2.021	0.520
1000.000	589.579	80.004	19.994	103.752	19.987	2.099	0.523
1002.000	590.598	80.005	19.993	103.751	19.988	2.008	0.505
1004.000	591.609	80.006	19.993	103.752	19.984	2.248	0.506
1006.000	592.650	80.005	19.994	103.753	19.987	2.062	0.509
1008.000	593.639	80.006	19.993	103.755	19.988	2.010	0.530
1010.000	594.687	80.007	19.993	103.752	19.986	2.130	0.519
1012.000	595.749	80.007	19.993	103.752	19.987	2.050	0.522
1014.001	596.730	80.006	19.995	103.763	19.984	2.259	0.485
1016.000	597.744	80.006	19.993	103.759	19.983	2.319	0.495
1018.000	598.751	80.004	19.994	103.753	19.984	2.254	0.500
1020.000	599.782	80.006	19.993	103.754	19.988	2.030	0.509
1022.000	600.780	80.004	19.992	103.753	19.983	2.312	0.504
1024.000	601.790	80.006	19.992	103.753	19.986	2.110	0.517
1026.000	602.778	80.007	19.992	103.754	19.980	2.540	0.519
1028.000	603.821	80.006	19.993	103.755	19.982	2.432	0.524
1030.000	604.800	80.008	19.993	103.756	19.982	2.400	0.458
1032.000	605.828	80.009	19.992	103.756	19.984	2.245	0.521
1034.000	606.821	80.009	19.992	103.754	19.984	2.246	0.518
1036.000	607.845	80.006	19.993	103.753	19.983	2.359	0.493
1038.000	608.826	80.007	19.993	103.754	19.984	2.266	0.504
1040.000	609.861	80.006	19.992	103.755	19.985	2.214	0.500
1042.000	610.840	80.004	19.993	103.757	19.985	2.190	0.530
1044.000	611.883	80.004	19.994	103.755	19.986	2.150	0.537
1046.000	612.868	80.007	19.994	103.758	19.988	1.986	0.523
1048.000	613.906	80.006	19.994	103.752	19.987	2.073	0.516
1050.000	614.889	80.005	19.992	103.751	19.989	1.926	0.500
1052.000	615.925	80.005	19.994	103.755	19.989	1.929	0.519
1054.000	616.927	80.004	19.994	103.755	19.987	2.071	0.525
1056.000	617.957	80.003	19.992	103.751	19.989	1.933	0.516
1058.000	618.962	80.004	19.994	103.751	19.991	1.829	0.528
1060.000	619.975	80.004	19.994	103.749	19.990	1.900	0.515
1062.000	621.011	80.006	19.994	103.751	19.987	2.044	0.546
1064.000	622.011	80.005	19.994	103.750	19.987	2.077	0.495
1066.001	623.055	80.005	19.995	103.752	19.988	1.975	0.524
1068.000	624.090	80.005	19.995	103.750	19.990	1.842	0.531
1070.000	625.092	80.003	19.995	103.750	19.987	2.066	0.515
1072.000	626.117	80.003	19.995	103.749	19.986	2.154	0.528
1074.000	627.155	80.002	19.996	103.750	19.983	2.316	0.500
1076.000	628.163	80.003	19.995	103.752	19.986	2.126	0.528
1078.000	629.195	80.004	19.994	103.756	19.990	1.862	0.535
1080.000	630.237	80.004	19.994	103.754	19.985	2.181	0.509
1082.000	631.261	80.005	19.994	103.753	19.985	2.219	0.523
1084.000	632.306	80.005	19.993	103.753	19.988	2.031	0.533
1086.000	633.338	80.006	19.994	103.757	19.987	2.093	0.529
1088.001	634.376	80.005	19.993	103.756	19.987	2.073	0.516
1090.000	635.418	80.005	19.993	103.754	19.984	2.281	0.552
1092.000	636.483	80.007	19.993	103.754	19.986	2.121	0.536
1094.001	637.472	80.005	19.994	103.755	19.988	2.008	0.500
1096.000	638.532	80.006	19.993	103.754	19.991	1.807	0.518
1098.000	639.554	80.006	19.993	103.755	19.990	1.882	0.509
1100.000	640.581	80.005	19.993	103.759	19.984	2.243	0.521
1102.000	641.634	80.007	19.993	103.757	19.986	2.124	0.532
1104.000	642.660	80.005	19.994	103.765	19.987	2.066	0.545
1106.000	643.709	80.005	19.994	103.759	19.991	1.829	0.526
1108.000	644.724	80.007	19.994	103.756	19.990	1.878	0.541
1110.000	645.721	80.007	19.994	103.751	19.989	1.906	0.505
1112.000	646.744	80.006	19.993	103.749	19.986	2.126	0.492
1114.000	647.753	80.007	19.993	103.749	19.989	1.935	0.481
1116.000	648.771	80.007	19.992	103.747	19.988	1.993	0.476
1118.000	649.804	80.007	19.993	103.748	19.987	2.051	0.494
1120.000	650.855	80.006	19.993	103.749	19.991	1.813	0.533
1122.000	651.913	80.005	19.992	103.750	19.992	1.747	0.511
1124.000	652.940	80.005	19.993	103.750	19.994	1.618	0.523
1126.000	653.941	80.005	19.993	103.750	19.989	1.922	0.496
1128.000	654.993	80.004	19.995	103.751	19.992	1.762	0.513
1130.000	656.009	80.005	19.993	103.751	19.992	1.745	0.509
1132.000	657.044	80.004	19.994	103.750	19.993	1.689	0.511
1134.001	658.077	80.004	19.996	103.748	19.995	1.509	0.523
1136.000	659.131	80.004	19.994	103.751	19.994	1.623	0.540
1138.000	660.195	80.004	19.994	103.751	19.991	1.815	0.505
1140.000	661.192	80.003	19.994	103.750	19.990	1.846	0.505
1142.000	662.210	80.004	19.994	103.751	19.992	1.720	0.544
1144.000	663.230	80.004	19.993	103.752	19.993	1.674	0.486
1146.000	664.241	80.004	19.993	103.752	19.994	1.623	0.522
1148.000	665.311	80.003	19.993	103.751	19.993	1.669	0.585
1150.000	666.249	80.002	19.994	103.748	19.993	1.658	0.521
1152.000	667.216	80.003	19.993	103.753	19.990	1.836	0.493
1154.000	668.228	80.002	19.993	103.752	19.993	1.658	0.498
1156.000	669.249	80.003	19.994	103.754	19.992	1.734	0.516
1158.000	670.258	80.002	19.994	103.749	19.995	1.529	0.516
1160.000	671.209	80.002	19.994	103.747	19.992	1.729	0.463
1162.000	672.243	80.005	19.994	103.740	19.990	1.858	0.506
1164.000	673.248	80.005	19.994	103.751	19.991	1.829	0.535
1166.000	674.245	80.006	19.994	103.748	19.990	1.851	0.475
1168.000	675.263	80.004	19.994	103.753	19.995	1.556	0.511
1170.000	676.304	80.005	19.994	103.751	19.989	1.915	0.506
1172.000	677.296	80.007	19.994	103.750	19.995	1.527	0.507
1174.000	678.300	80.006	19.993	103.751	19.997	1.405	0.491
1176.000	679.312	80.006	19.994	103.746	19.992	1.707	0.487
1178.000	680.297	80.005	19.993	103.747	19.995	1.559	0.488
1180.000	681.287	80.004	19.994	103.747	19.994	1.605	0.518
1182.000	682.348	80.006	19.993	103.748	19.995	1.550	0.493
1184.000	683.295	80.005	19.993	103.745	19.991	1.835	0.480
1186.000	684.331	80.006	19.992	103.743	19.993	1.640	0.515
1188.001	685.314	80.005	19.994	103.740	19.990	1.887	0.497
1190.000	686.356	80.008	19.993	103.741	19.993	1.669	0.514
1192.000	687.344	80.008	19.993	103.747	19.990	1.856	0.531
1194.000	688.373	80.007	19.993	103.748	19.996	1.488	0.492
1196.000	689.361	80.007	19.993	103.742	19.990	1.886	0.490
1198.000	690.411	80.006	19.992	103.744	19.991	1.826	0.505
1200.000	691.431	80.005	19.993	103.745	19.988	2.028	0.493
1202.000	692.406	80.004	19.994	103.739	19.989	1.915	0.504
1204.000	693.455	80.004	19.993	103.745	19.994	1.576	0.519
1206.000	694.432	80.004	19.992	103.753	19.991	1.796	0.518
1208.000	695.558	80.004	19.994	103.752	19.990	1.875	0.541
1210.000	696.469	80.005	19.993	103.752	19.991	1.802	0.431
1212.000	697.573	80.005	19.993	103.752	19.989	1.908	0.532
1214.001	698.573	80.004	19.993	103.746	19.991	1.835	0.495
1216.000	699.652	80.005	19.993	103.753	19.991	1.789	0.565
1218.001	700.675	80.005	19.993	103.752	19.990	1.838	0.554
1220.000	701.703	80.003	19.993	103.763	19.991	1.793	0.511
1222.000	702.751	80.005	19.994	103.754	19.995	1.561	0.502
1224.000	703.788	80.002	19.994	103.754	19.993	1.680	0.540
1226.000	704.811	80.004	19.993	103.747	19.994	1.614	0.544
1228.000	705.853	80.005	19.993	103.749	19.992	1.749	0.503
1230.000	706.897	80.004	19.993	103.753	19.992	1.740	0.540
1232.000	707.901	80.004	19.993	103.751	19.989	1.942	0.538
1234.000	708.947	80.003	19.993	103.752	19.993	1.667	0.504
1236.000	709.978	80.005	19.993	103.751	19.996	1.463	0.522
1238.000	710.981	80.004	19.994	103.749	19.994	1.589	0.481
1240.000	711.980	80.004	19.995	103.743	19.995	1.545	0.521
1242.001	713.012	80.005	19.994	103.750	19.994	1.621	0.532
1244.000	714.016	80.004	19.994	103.748	19.994	1.598	0.509
1246.000	715.038	80.006	19.993	103.749	19.993	1.682	0.516
1248.000	716.073	80.005	19.994	103.751	19.995	1.561	0.506
1250.000	717.101	80.006	19.994	103.749	19.990	1.838	0.517
1252.000	718.120	80.003	19.993	103.750	19.994	1.629	0.508
1254.000	719.061	80.005	19.995	103.744	19.996	1.436	0.480
1256.000	720.099	80.005	19.995	103.746	19.995	1.534	0.510
1258.000	721.055	80.005	19.994	103.750	19.991	1.785	0.473
1260.000	722.051	80.005	19.994	103.747	19.991	1.831	0.477
1262.000	723.039	80.005	19.994	103.747	19.991	1.773	0.515
1264.000	724.058	80.005	19.993	103.749	19.987	2.062	0.491
1266.000	725.053	80.007	19.993	103.747	19.992	1.705	0.498
1268.000	726.046	80.007	19.993	103.751	19.990	1.847	0.492
1270.000	727.057	80.007	19.993	103.751	19.993	1.638	0.493
1272.001	728.052	80.005	19.993	103.748	19.990	1.846	0.499
1274.001	729.066	80.006	19.993	103.741	19.990	1.840	0.544
1276.001	730.054	80.005	19.993	103.749	19.992	1.723	0.494
1278.001	731.100	80.005	19.994	103.751	19.994	1.612	0.527
1280.000	732.118	80.005	19.993	103.751	19.991	1.802	0.532
1282.001	733.128	80.003	19.992	103.751	19.991	1.787	0.503
1284.001	734.166	80.003	19.994	103.753	19.994	1.612	0.531
1286.000	735.205	80.003	19.993	103.747	19.988	1.979	0.528
1288.000	736.177	80.003	19.992	103.750	19.986	2.137	0.485
1290.000	737.263	80.004	19.994	103.756	19.991	1.795	0.511
1292.000	738.281	80.005	19.993	103.753	19.994	1.589	0.515
1294.000	739.304	80.002	19.992	103.755	19.991	1.833	0.490
1296.000	740.333	80.002	19.993	103.753	19.987	2.071	0.521
1298.000	741.352	80.005	19.994	103.749	19.990	1.862	0.498
1300.000	742.374	80.005	19.993	103.749	19.990	1.880	0.546
1302.000	743.401	80.005	19.993	103.748	19.990	1.842	0.475
1304.000	744.432	80.004	19.994	103.746	19.992	1.705	0.523
1305.501	745.152	80.004	19.992	103.750	19.992	1.765	0.505