File: 01_Data/Fiberglass_Insulation_R13_Paper_Faced_Paper/MCC/R13_Fiberglass_InsulationA_MCC_30K_min_220215_R3.txt
Sample ID:	C:\MCC\MCC Cal\Test\R13_Fiberglas_InsulationA_MCC_30K_min_220215_R3.txt
Sample Weight (mg):	4.42
Heating Rate (C/s):	0.5
Combustor Temp (C):	900
N2 Flow Rate (cc/min):	80
O2 Flow Rate (cc/min):	20
Calibration File:	C:\MCC\MCC Cal\Coeff1 JN10440_30_210304.txt.txt
T Correction Coefficients:	0	1.024463	0
Time Shift (s):	14
*
Time (s)	Temperature (C)	N2 flow rate (cc/min)	O2 flow rate (cc/min)	Flow Rate (cc/min)	Oxygen (%)	HRR (W/g)	Heating rate (C/s)
-0.001	114.947	80.006	19.993	103.684	20.210	-0.249	0.030
1.500	114.915	80.005	19.990	103.674	20.211	-0.295	-0.002
3.000	114.898	80.007	19.993	103.683	20.213	-0.478	-0.023
4.500	114.875	80.007	19.992	103.679	20.211	-0.298	-0.034
6.000	114.863	80.004	19.992	103.677	20.202	0.350	-0.018
7.500	114.910	80.006	19.993	103.689	20.210	-0.241	0.018
9.000	114.938	80.007	19.992	103.716	20.209	-0.157	-0.010
10.500	114.875	80.005	19.992	103.717	20.205	0.139	-0.036
12.000	114.918	80.006	19.992	103.708	20.208	-0.084	0.023
13.500	114.926	80.006	19.993	103.708	20.205	0.139	-0.007
15.000	114.944	80.007	19.993	103.696	20.211	-0.301	0.008
16.500	114.894	80.008	19.994	103.690	20.204	0.177	-0.027
18.000	114.964	80.007	19.995	103.715	20.212	-0.408	0.055
19.500	114.924	80.006	19.994	103.725	20.201	0.458	-0.020
21.000	114.942	80.006	19.993	103.738	20.207	0.014	0.012
22.500	115.002	80.006	19.993	103.737	20.206	0.072	0.015
24.000	115.013	80.005	19.993	103.749	20.199	0.550	0.012
25.500	115.031	80.007	19.995	103.788	20.196	0.767	0.018
27.000	115.143	80.006	19.993	103.811	20.186	1.505	0.066
28.500	115.217	80.008	19.993	103.814	20.187	1.477	0.053
30.000	115.263	80.008	19.993	103.848	20.185	1.572	0.039
31.500	115.349	80.007	19.992	103.863	20.173	2.521	0.057
32.999	115.496	80.008	19.992	103.866	20.174	2.387	0.118
34.499	115.640	80.010	19.992	103.883	20.179	2.076	0.085
35.999	115.822	80.008	19.992	103.895	20.169	2.808	0.123
37.500	116.000	80.005	19.993	103.870	20.169	2.774	0.130
38.999	116.191	80.006	19.993	103.858	20.177	2.190	0.118
40.499	116.338	80.005	19.993	103.860	20.170	2.706	0.112
41.999	116.591	80.006	19.994	103.868	20.163	3.191	0.149
43.499	116.848	80.003	19.994	103.894	20.166	3.016	0.168
44.999	117.099	80.004	19.992	103.906	20.158	3.624	0.168
46.499	117.331	80.005	19.993	103.917	20.163	3.225	0.190
47.999	117.651	80.003	19.993	103.930	20.160	3.453	0.206
49.499	117.924	80.006	19.995	103.938	20.160	3.411	0.175
51.000	118.290	80.005	19.994	103.932	20.164	3.157	0.251
52.499	118.616	80.005	19.994	103.936	20.157	3.626	0.214
53.999	118.981	80.005	19.995	103.939	20.160	3.440	0.231
55.499	119.332	80.004	19.994	103.937	20.161	3.391	0.235
56.999	119.771	80.006	19.992	103.938	20.157	3.630	0.284
58.500	120.118	80.004	19.993	103.942	20.162	3.313	0.227
59.999	120.533	80.004	19.992	103.940	20.156	3.730	0.268
61.499	120.960	80.006	19.992	103.941	20.157	3.628	0.313
62.999	121.417	80.005	19.992	103.935	20.158	3.580	0.309
64.500	121.885	80.005	19.992	103.933	20.162	3.281	0.308
65.999	122.317	80.003	19.994	103.936	20.159	3.508	0.295
67.499	122.806	80.004	19.993	103.933	20.160	3.453	0.322
69.000	123.256	80.005	19.993	103.937	20.156	3.766	0.320
70.500	123.759	80.004	19.994	103.944	20.159	3.532	0.335
71.999	124.267	80.006	19.992	103.943	20.158	3.562	0.335
73.499	124.780	80.004	19.992	103.943	20.162	3.267	0.353
74.999	125.316	80.005	19.992	103.944	20.158	3.596	0.358
76.499	125.838	80.004	19.994	103.943	20.162	3.291	0.336
77.999	126.358	80.004	19.992	103.945	20.157	3.685	0.336
79.499	126.900	80.006	19.994	103.943	20.157	3.655	0.361
81.000	127.472	80.006	19.993	103.944	20.157	3.656	0.388
82.499	128.025	80.006	19.993	103.945	20.159	3.504	0.374
83.999	128.596	80.006	19.993	103.943	20.161	3.385	0.411
85.499	129.187	80.006	19.993	103.945	20.162	3.260	0.367
86.999	129.770	80.006	19.992	103.949	20.160	3.439	0.386
88.499	130.364	80.007	19.993	103.962	20.158	3.594	0.393
89.999	130.991	80.008	19.992	103.963	20.155	3.812	0.422
91.500	131.617	80.008	19.992	103.947	20.158	3.625	0.393
92.999	132.195	80.007	19.994	103.939	20.157	3.635	0.392
94.499	132.823	80.008	19.992	103.952	20.158	3.593	0.411
95.999	133.496	80.007	19.991	103.961	20.158	3.591	0.463
97.499	134.152	80.007	19.993	103.949	20.161	3.373	0.446
98.999	134.783	80.006	19.994	103.947	20.158	3.613	0.451
100.499	135.433	80.007	19.993	103.952	20.156	3.703	0.444
102.000	136.051	80.008	19.991	103.961	20.157	3.632	0.412
103.499	136.733	80.006	19.994	103.963	20.159	3.507	0.439
104.999	137.413	80.007	19.994	103.954	20.156	3.759	0.472
106.499	138.128	80.006	19.993	103.951	20.156	3.726	0.486
107.999	138.834	80.007	19.993	103.957	20.159	3.551	0.488
109.500	139.525	80.007	19.993	103.963	20.158	3.583	0.485
110.999	140.232	80.008	19.994	103.965	20.157	3.633	0.461
112.499	140.920	80.008	19.994	103.949	20.157	3.639	0.468
114.000	141.630	80.008	19.992	103.963	20.156	3.718	0.464
115.500	142.324	80.008	19.993	103.969	20.153	3.981	0.469
116.999	143.032	80.007	19.993	103.958	20.156	3.714	0.462
118.500	143.768	80.008	19.993	103.961	20.155	3.790	0.494
120.000	144.544	80.009	19.994	103.959	20.156	3.718	0.534
121.499	145.288	80.008	19.993	103.966	20.156	3.722	0.502
122.999	146.028	80.006	19.994	103.965	20.150	4.180	0.485
124.499	146.768	80.007	19.993	103.945	20.154	3.898	0.482
125.999	147.516	80.005	19.994	103.946	20.155	3.790	0.509
127.500	148.229	80.005	19.994	103.955	20.155	3.820	0.486
129.000	149.026	80.005	19.994	103.956	20.156	3.734	0.528
130.500	149.793	80.005	19.994	103.951	20.155	3.826	0.520
132.000	150.528	80.005	19.993	103.946	20.156	3.762	0.474
133.500	151.265	80.005	19.993	103.939	20.153	3.923	0.491
135.000	152.049	80.004	19.994	103.942	20.158	3.582	0.504
136.500	152.781	80.004	19.993	103.957	20.157	3.660	0.484
138.000	153.552	80.005	19.993	103.947	20.154	3.871	0.520
139.500	154.290	80.004	19.994	103.941	20.159	3.496	0.485
141.000	155.073	80.005	19.994	103.941	20.157	3.660	0.513
142.500	155.848	80.006	19.994	103.942	20.161	3.336	0.522
144.000	156.580	80.007	19.994	103.933	20.156	3.740	0.488
145.500	157.410	80.006	19.991	103.930	20.163	3.255	0.552
147.000	158.129	80.007	19.993	103.940	20.160	3.466	0.492
148.500	158.915	80.006	19.993	103.947	20.162	3.331	0.518
150.000	159.715	80.007	19.992	103.883	20.157	3.674	0.542
151.500	160.438	80.005	19.992	103.895	20.158	3.590	0.486
153.000	161.222	80.004	19.992	103.986	20.158	3.551	0.548
154.500	162.017	80.005	19.992	103.950	20.160	3.404	0.526
156.000	162.767	80.007	19.994	103.934	20.161	3.380	0.494
157.500	163.553	80.005	19.991	103.922	20.160	3.412	0.517
159.000	164.305	80.006	19.993	103.926	20.162	3.296	0.516
160.500	165.095	80.006	19.994	103.932	20.163	3.255	0.531
162.000	165.856	80.007	19.993	103.933	20.162	3.294	0.499
163.500	166.617	80.007	19.992	103.924	20.160	3.448	0.511
165.000	167.378	80.006	19.994	103.909	20.163	3.186	0.502
166.500	168.118	80.008	19.993	103.923	20.166	3.011	0.519
168.000	168.932	80.006	19.993	103.933	20.163	3.246	0.534
169.500	169.690	80.007	19.992	103.915	20.168	2.821	0.498
171.000	170.483	80.006	19.992	103.918	20.165	3.045	0.532
172.500	171.221	80.007	19.993	103.925	20.161	3.388	0.509
174.000	172.006	80.006	19.993	103.914	20.166	2.981	0.522
175.500	172.771	80.008	19.994	103.912	20.164	3.174	0.503
177.000	173.514	80.007	19.993	103.912	20.164	3.140	0.496
178.500	174.288	80.007	19.993	103.904	20.165	3.071	0.501
180.000	175.081	80.007	19.992	103.906	20.164	3.116	0.523
181.500	175.820	80.009	19.993	103.913	20.164	3.180	0.475
183.000	176.611	80.008	19.992	103.915	20.165	3.041	0.524
184.500	177.364	80.008	19.992	103.908	20.165	3.076	0.491
186.000	178.105	80.007	19.993	103.904	20.166	2.965	0.495
187.500	178.856	80.007	19.993	103.904	20.163	3.204	0.500
189.000	179.589	80.006	19.991	103.907	20.166	2.979	0.497
190.500	180.363	80.007	19.992	103.905	20.166	2.987	0.502
192.000	181.097	80.009	19.994	103.904	20.163	3.210	0.515
193.500	181.833	80.007	19.992	103.902	20.164	3.136	0.486
195.000	182.596	80.008	19.993	103.902	20.166	2.985	0.503
196.500	183.341	80.008	19.991	103.903	20.166	2.973	0.492
198.000	184.117	80.009	19.992	103.904	20.170	2.671	0.508
199.500	184.852	80.007	19.992	103.901	20.169	2.757	0.505
201.000	185.613	80.007	19.992	103.902	20.167	2.936	0.497
202.500	186.370	80.007	19.994	103.903	20.164	3.134	0.482
204.000	187.153	80.007	19.992	103.903	20.164	3.116	0.487
205.500	187.851	80.005	19.994	103.899	20.168	2.889	0.479
207.000	188.610	80.006	19.993	103.893	20.166	2.975	0.496
208.500	189.355	80.006	19.993	103.890	20.165	3.036	0.504
210.000	190.092	80.006	19.995	103.894	20.167	2.924	0.501
211.500	190.847	80.005	19.992	103.884	20.165	3.084	0.513
213.000	191.558	80.007	19.994	103.877	20.165	3.098	0.495
214.500	192.273	80.006	19.993	103.894	20.167	2.919	0.487
216.000	193.037	80.006	19.993	103.893	20.162	3.273	0.504
217.500	193.730	80.006	19.992	103.901	20.166	2.967	0.479
219.000	194.505	80.006	19.993	103.901	20.164	3.176	0.505
220.500	195.261	80.007	19.994	103.891	20.167	2.921	0.497
222.000	195.984	80.005	19.994	103.883	20.169	2.811	0.501
223.500	196.702	80.005	19.994	103.889	20.163	3.255	0.475
225.000	197.452	80.006	19.994	103.897	20.165	3.104	0.486
226.500	198.175	80.006	19.994	103.893	20.168	2.865	0.472
228.000	198.930	80.006	19.994	103.893	20.168	2.829	0.517
229.500	199.626	80.006	19.995	103.896	20.168	2.851	0.465
231.000	200.407	80.006	19.994	103.899	20.171	2.655	0.495
232.500	201.126	80.006	19.994	103.899	20.165	3.040	0.482
234.000	201.847	80.004	19.993	103.891	20.165	3.060	0.483
235.500	202.557	80.006	19.996	103.888	20.168	2.881	0.446
237.000	203.339	80.004	19.994	103.882	20.164	3.156	0.550
238.500	204.015	80.006	19.995	103.886	20.170	2.698	0.449
240.000	204.749	80.005	19.994	103.890	20.165	3.058	0.481
241.500	205.512	80.006	19.994	103.880	20.163	3.230	0.511
243.000	206.235	80.004	19.992	103.882	20.166	3.032	0.485
244.500	206.989	80.006	19.992	103.884	20.169	2.805	0.499
246.000	207.772	80.006	19.994	103.891	20.164	3.145	0.515
247.500	208.490	80.006	19.995	103.896	20.167	2.920	0.513
249.000	209.209	80.007	19.993	103.899	20.165	3.073	0.492
250.500	209.951	80.007	19.993	103.901	20.170	2.737	0.512
252.000	210.703	80.006	19.993	103.899	20.167	2.942	0.499
253.500	211.477	80.007	19.994	103.892	20.163	3.239	0.492
255.000	212.169	80.008	19.992	103.894	20.167	2.956	0.457
256.500	212.911	80.008	19.993	103.879	20.164	3.153	0.477
258.000	213.687	80.006	19.993	103.882	20.162	3.259	0.509
259.500	214.406	80.007	19.992	103.876	20.161	3.347	0.483
261.000	215.139	80.006	19.991	103.867	20.166	2.988	0.484
262.500	215.858	80.005	19.993	103.873	20.163	3.233	0.456
264.000	216.575	80.006	19.993	103.872	20.167	2.954	0.470
265.500	217.358	80.006	19.992	103.869	20.164	3.125	0.522
267.000	218.045	80.005	19.992	103.878	20.163	3.207	0.453
268.500	218.829	80.007	19.993	103.875	20.163	3.203	0.516
270.000	219.577	80.006	19.992	103.878	20.163	3.233	0.505
271.500	220.289	80.008	19.992	103.881	20.164	3.171	0.469
273.000	221.034	80.009	19.991	103.871	20.160	3.446	0.507
274.500	221.800	80.008	19.992	103.873	20.162	3.285	0.522
276.000	222.560	80.009	19.992	103.875	20.162	3.287	0.518
277.500	223.348	80.010	19.992	103.876	20.161	3.398	0.530
279.000	224.024	80.010	19.992	103.865	20.161	3.358	0.469
280.500	224.795	80.009	19.991	103.864	20.159	3.508	0.519
282.000	225.544	80.008	19.992	103.864	20.159	3.516	0.484
283.500	226.315	80.008	19.992	103.865	20.162	3.275	0.511
285.000	227.075	80.008	19.993	103.869	20.158	3.558	0.514
286.500	227.790	80.007	19.992	103.870	20.159	3.478	0.484
288.000	228.560	80.006	19.992	103.869	20.156	3.747	0.503
289.500	229.343	80.007	19.994	103.864	20.157	3.641	0.510
291.000	230.083	80.007	19.994	103.867	20.156	3.727	0.489
292.500	230.833	80.005	19.994	103.869	20.157	3.661	0.482
294.000	231.557	80.006	19.994	103.867	20.157	3.685	0.460
295.500	232.337	80.006	19.994	103.864	20.155	3.781	0.521
297.000	233.082	80.007	19.994	103.865	20.155	3.775	0.498
298.500	233.851	80.006	19.994	103.868	20.157	3.645	0.486
300.000	234.568	80.007	19.994	103.866	20.154	3.879	0.485
301.500	235.377	80.007	19.993	103.862	20.153	3.976	0.518
303.000	236.087	80.006	19.994	103.863	20.154	3.875	0.468
304.500	236.855	80.007	19.993	103.867	20.154	3.851	0.513
306.000	237.580	80.005	19.993	103.869	20.153	3.925	0.477
307.500	238.358	80.007	19.994	103.872	20.151	4.096	0.520
309.000	239.101	80.006	19.994	103.871	20.146	4.447	0.487
310.500	239.870	80.005	19.992	103.868	20.149	4.271	0.503
312.000	240.602	80.006	19.993	103.867	20.149	4.275	0.473
313.500	241.329	80.007	19.994	103.869	20.146	4.431	0.493
315.000	242.094	80.005	19.994	103.872	20.147	4.409	0.496
316.500	242.844	80.004	19.994	103.875	20.146	4.479	0.514
318.000	243.592	80.004	19.993	103.880	20.143	4.692	0.505
319.500	244.392	80.006	19.994	103.870	20.145	4.529	0.522
321.000	245.117	80.005	19.995	103.869	20.142	4.740	0.506
322.500	245.904	80.005	19.994	103.869	20.141	4.835	0.514
324.000	246.634	80.005	19.994	103.874	20.140	4.887	0.475
325.500	247.399	80.006	19.994	103.884	20.142	4.758	0.519
327.000	248.143	80.005	19.994	103.876	20.140	4.873	0.489
328.500	248.921	80.006	19.993	103.866	20.134	5.352	0.492
330.000	249.721	80.006	19.993	103.872	20.134	5.377	0.529
331.500	250.454	80.005	19.993	103.868	20.131	5.539	0.491
333.000	251.247	80.007	19.994	103.866	20.129	5.729	0.527
334.500	252.010	80.008	19.993	103.869	20.127	5.826	0.502
336.000	252.745	80.007	19.992	103.871	20.129	5.684	0.505
337.500	253.472	80.006	19.992	103.865	20.131	5.600	0.479
339.000	254.258	80.008	19.994	103.872	20.124	6.086	0.528
340.500	255.007	80.007	19.993	103.872	20.121	6.301	0.527
342.000	255.746	80.008	19.993	103.867	20.121	6.283	0.477
343.500	256.490	80.007	19.993	103.876	20.120	6.379	0.497
345.000	257.258	80.008	19.994	103.878	20.119	6.421	0.483
346.500	258.015	80.007	19.992	103.869	20.113	6.883	0.518
348.000	258.770	80.008	19.992	103.863	20.109	7.162	0.492
349.500	259.549	80.007	19.994	103.874	20.113	6.915	0.517
351.000	260.295	80.006	19.992	103.881	20.113	6.897	0.503
352.500	261.086	80.009	19.992	103.868	20.109	7.191	0.514
354.000	261.815	80.007	19.993	103.875	20.109	7.144	0.470
355.500	262.567	80.009	19.992	103.882	20.105	7.473	0.489
357.000	263.318	80.009	19.993	103.881	20.107	7.350	0.524
358.500	264.086	80.009	19.993	103.876	20.099	7.911	0.508
360.000	264.821	80.008	19.993	103.874	20.098	7.973	0.494
361.500	265.559	80.008	19.993	103.874	20.092	8.436	0.521
363.000	266.341	80.008	19.994	103.872	20.091	8.533	0.515
364.500	267.097	80.008	19.994	103.877	20.092	8.440	0.501
366.000	267.823	80.007	19.993	103.881	20.088	8.756	0.488
367.500	268.611	80.008	19.995	103.890	20.084	9.004	0.527
369.000	269.363	80.005	19.993	103.898	20.080	9.327	0.507
370.500	270.094	80.006	19.993	103.895	20.078	9.472	0.468
372.000	270.866	80.006	19.994	103.898	20.073	9.797	0.492
373.500	271.661	80.006	19.993	103.899	20.068	10.162	0.515
375.000	272.375	80.007	19.993	103.900	20.069	10.095	0.497
376.500	273.136	80.007	19.993	103.897	20.068	10.170	0.520
378.000	273.913	80.007	19.992	103.900	20.060	10.768	0.521
379.500	274.663	80.006	19.993	103.902	20.059	10.880	0.503
381.000	275.418	80.005	19.993	103.901	20.052	11.378	0.502
382.500	276.179	80.007	19.994	103.901	20.050	11.508	0.504
384.000	276.929	80.008	19.994	103.901	20.044	11.920	0.503
385.500	277.675	80.007	19.993	103.902	20.039	12.325	0.500
387.000	278.396	80.007	19.994	103.903	20.041	12.193	0.483
388.500	279.200	80.007	19.994	103.901	20.032	12.822	0.528
390.000	279.921	80.006	19.994	103.904	20.027	13.161	0.468
391.500	280.699	80.006	19.993	103.902	20.022	13.550	0.508
393.000	281.426	80.005	19.993	103.902	20.020	13.716	0.488
394.500	282.204	80.006	19.993	103.910	20.016	13.980	0.531
396.000	282.901	80.005	19.993	103.914	20.013	14.238	0.472
397.500	283.702	80.005	19.994	103.909	20.007	14.641	0.524
399.000	284.405	80.005	19.993	103.920	19.999	15.266	0.467
400.500	285.160	80.005	19.993	103.916	19.998	15.293	0.520
402.000	285.915	80.006	19.993	103.922	19.992	15.761	0.481
403.500	286.637	80.006	19.993	103.915	19.988	16.023	0.485
405.000	287.432	80.007	19.994	103.909	19.985	16.266	0.502
406.500	288.152	80.006	19.994	103.918	19.979	16.737	0.464
408.000	288.918	80.006	19.994	103.925	19.977	16.832	0.514
409.500	289.688	80.006	19.993	103.915	19.966	17.648	0.513
411.000	290.401	80.006	19.994	103.912	19.961	18.020	0.483
412.500	291.203	80.007	19.993	103.926	19.954	18.558	0.556
414.000	291.940	80.006	19.994	103.923	19.948	18.963	0.482
415.500	292.674	80.007	19.993	103.927	19.945	19.231	0.492
417.000	293.434	80.007	19.994	103.923	19.938	19.735	0.512
418.500	294.190	80.007	19.993	103.922	19.932	20.141	0.489
420.000	294.938	80.007	19.994	103.935	19.923	20.838	0.502
421.500	295.681	80.007	19.994	103.935	19.915	21.410	0.500
423.000	296.440	80.007	19.994	103.936	19.911	21.701	0.500
424.500	297.177	80.007	19.994	103.934	19.908	21.938	0.480
426.000	297.946	80.006	19.994	103.937	19.901	22.435	0.511
427.500	298.731	80.007	19.993	103.939	19.890	23.256	0.514
429.000	299.440	80.006	19.993	103.940	19.882	23.856	0.458
430.500	300.180	80.006	19.993	103.943	19.876	24.256	0.489
432.000	300.922	80.007	19.992	103.944	19.870	24.692	0.481
433.500	301.686	80.006	19.993	103.941	19.862	25.311	0.517
435.000	302.471	80.008	19.993	103.947	19.855	25.814	0.517
436.500	303.194	80.009	19.993	103.950	19.844	26.663	0.492
438.000	304.030	80.010	19.992	103.952	19.836	27.190	0.544
439.500	304.708	80.009	19.993	103.961	19.836	27.231	0.456
441.000	305.430	80.008	19.992	103.964	19.825	28.014	0.472
442.500	306.184	80.010	19.993	103.968	19.820	28.428	0.490
444.000	306.926	80.008	19.994	103.975	19.804	29.571	0.491
445.500	307.701	80.007	19.993	103.975	19.798	30.035	0.517
447.000	308.442	80.007	19.993	103.982	19.792	30.482	0.477
448.500	309.209	80.007	19.994	103.981	19.789	30.674	0.495
450.000	309.954	80.006	19.993	103.979	19.776	31.670	0.501
451.500	310.751	80.005	19.994	103.982	19.770	32.042	0.523
453.000	311.493	80.006	19.993	103.983	19.762	32.696	0.500
454.500	312.282	80.006	19.993	103.982	19.751	33.492	0.521
456.000	313.040	80.006	19.992	103.986	19.745	33.927	0.523
457.500	313.763	80.006	19.992	103.999	19.734	34.739	0.508
459.000	314.552	80.007	19.992	104.003	19.726	35.327	0.527
460.500	315.312	80.006	19.993	104.003	19.717	35.981	0.511
462.000	316.039	80.007	19.992	104.004	19.707	36.705	0.495
463.500	316.832	80.008	19.993	104.013	19.698	37.334	0.512
465.000	317.576	80.007	19.992	104.022	19.690	37.969	0.500
466.500	318.329	80.007	19.992	104.021	19.685	38.302	0.516
468.000	319.082	80.007	19.992	104.018	19.668	39.556	0.505
469.500	319.840	80.006	19.993	104.017	19.664	39.877	0.510
471.000	320.618	80.006	19.993	104.019	19.648	41.074	0.509
472.500	321.351	80.007	19.993	104.023	19.639	41.736	0.502
474.000	322.126	80.006	19.994	104.022	19.630	42.398	0.489
475.500	322.881	80.006	19.995	104.021	19.617	43.356	0.488
477.000	323.631	80.008	19.994	104.026	19.606	44.143	0.472
478.500	324.426	80.006	19.995	104.036	19.595	44.908	0.518
480.000	325.172	80.005	19.993	104.042	19.581	45.968	0.503
481.500	325.925	80.005	19.994	104.050	19.573	46.601	0.491
483.000	326.679	80.007	19.994	104.049	19.565	47.170	0.504
484.500	327.461	80.006	19.994	104.053	19.553	47.999	0.519
486.000	328.206	80.005	19.994	104.055	19.541	48.908	0.487
487.500	328.965	80.006	19.994	104.029	19.527	49.920	0.498
489.000	329.697	80.008	19.993	103.983	19.517	50.688	0.481
490.500	330.465	80.008	19.993	104.052	19.506	51.515	0.519
492.000	331.195	80.008	19.993	104.125	19.495	52.292	0.482
493.500	331.970	80.007	19.994	104.076	19.485	53.055	0.509
495.000	332.788	80.008	19.993	104.063	19.477	53.603	0.536
496.500	333.516	80.009	19.994	104.068	19.464	54.619	0.487
498.000	334.325	80.008	19.993	104.071	19.450	55.645	0.531
499.500	335.039	80.008	19.993	104.071	19.441	56.282	0.475
501.000	335.794	80.008	19.993	104.083	19.426	57.374	0.526
502.500	336.558	80.007	19.993	104.092	19.417	58.008	0.496
504.000	337.322	80.007	19.993	104.090	19.406	58.869	0.517
505.500	338.090	80.007	19.994	104.090	19.393	59.785	0.505
507.000	338.856	80.006	19.994	104.097	19.388	60.172	0.483
508.500	339.635	80.006	19.994	104.097	19.376	61.084	0.490
510.000	340.395	80.008	19.994	104.097	19.365	61.856	0.487
511.500	341.143	80.007	19.994	104.098	19.354	62.645	0.495
513.000	341.866	80.007	19.996	104.097	19.345	63.364	0.486
514.500	342.589	80.008	19.993	104.097	19.336	63.983	0.509
516.000	343.364	80.007	19.994	104.096	19.328	64.593	0.507
517.500	344.101	80.007	19.995	104.097	19.318	65.284	0.470
519.000	344.871	80.008	19.993	104.097	19.312	65.733	0.522
520.500	345.622	80.007	19.995	104.097	19.305	66.288	0.511
522.000	346.419	80.006	19.991	104.098	19.299	66.679	0.503
523.500	347.160	80.008	19.993	104.097	19.295	66.963	0.484
525.000	347.932	80.007	19.991	104.098	19.292	67.217	0.510
526.500	348.683	80.007	19.993	104.094	19.288	67.507	0.502
528.000	349.449	80.008	19.993	104.091	19.287	67.571	0.509
529.500	350.202	80.007	19.993	104.080	19.287	67.527	0.494
531.000	350.968	80.008	19.994	104.071	19.292	67.178	0.488
532.500	351.723	80.006	19.992	104.065	19.291	67.199	0.512
534.000	352.498	80.007	19.994	104.057	19.296	66.865	0.514
535.500	353.310	80.007	19.993	104.053	19.301	66.493	0.538
537.000	354.090	80.007	19.993	104.038	19.307	66.003	0.506
538.500	354.811	80.006	19.994	104.029	19.315	65.427	0.499
540.000	355.550	80.006	19.993	104.021	19.324	64.788	0.493
541.500	356.358	80.006	19.992	104.007	19.340	63.592	0.515
543.000	357.130	80.007	19.994	103.992	19.350	62.842	0.523
544.500	357.902	80.008	19.993	103.983	19.366	61.658	0.521
546.000	358.702	80.005	19.994	103.959	19.385	60.244	0.524
547.500	359.428	80.006	19.994	103.956	19.403	58.946	0.485
549.000	360.222	80.006	19.994	103.949	19.424	57.423	0.522
550.500	360.966	80.007	19.993	103.924	19.451	55.438	0.502
552.000	361.736	80.007	19.993	103.907	19.473	53.787	0.520
553.500	362.493	80.006	19.993	103.902	19.496	52.082	0.509
555.000	363.253	80.006	19.993	103.883	19.529	49.669	0.512
556.500	364.000	80.006	19.992	103.863	19.557	47.658	0.475
558.000	364.752	80.007	19.993	103.864	19.582	45.774	0.504
559.500	365.542	80.007	19.992	103.849	19.612	43.609	0.528
561.000	366.285	80.006	19.993	103.836	19.636	41.808	0.496
562.500	367.054	80.007	19.993	103.843	19.661	39.981	0.528
564.000	367.774	80.007	19.993	103.832	19.688	38.012	0.499
565.500	368.538	80.006	19.992	103.825	19.718	35.855	0.496
567.000	369.321	80.007	19.992	103.822	19.738	34.382	0.538
568.500	370.105	80.006	19.994	103.821	19.763	32.493	0.511
570.000	370.837	80.005	19.993	103.821	19.783	31.078	0.501
571.500	371.590	80.006	19.993	103.813	19.803	29.631	0.510
573.000	372.343	80.007	19.993	103.799	19.815	28.712	0.499
574.500	373.095	80.008	19.994	103.802	19.831	27.520	0.511
576.000	373.874	80.007	19.993	103.798	19.845	26.486	0.506
577.500	374.631	80.007	19.994	103.793	19.853	25.936	0.513
579.000	375.372	80.007	19.994	103.798	19.863	25.168	0.500
580.500	376.137	80.007	19.993	103.790	19.874	24.397	0.508
582.000	376.921	80.007	19.993	103.803	19.879	24.018	0.515
583.500	377.640	80.007	19.993	103.799	19.885	23.599	0.482
585.000	378.384	80.006	19.993	103.793	19.891	23.148	0.470
586.500	379.122	80.005	19.993	103.801	19.888	23.345	0.512
588.000	379.915	80.007	19.992	103.794	19.894	22.948	0.540
589.500	380.665	80.005	19.993	103.794	19.892	23.047	0.494
591.000	381.370	80.007	19.993	103.805	19.896	22.814	0.489
592.500	382.161	80.005	19.994	103.800	19.893	23.018	0.510
594.000	382.893	80.008	19.992	103.790	19.897	22.736	0.488
595.500	383.640	80.007	19.993	103.794	19.894	22.914	0.491
597.000	384.343	80.007	19.994	103.798	19.890	23.195	0.467
598.500	385.103	80.007	19.994	103.793	19.891	23.147	0.489
600.000	385.866	80.008	19.993	103.795	19.890	23.247	0.510
601.500	386.625	80.008	19.995	103.798	19.888	23.357	0.512
603.000	387.336	80.008	19.993	103.806	19.887	23.466	0.469
604.500	388.109	80.007	19.994	103.811	19.880	23.929	0.518
606.000	388.851	80.008	19.994	103.797	19.880	23.972	0.517
607.500	389.599	80.007	19.995	103.806	19.878	24.097	0.497
609.000	390.323	80.008	19.995	103.799	19.875	24.335	0.495
610.500	391.113	80.006	19.994	103.799	19.874	24.402	0.513
612.000	391.839	80.006	19.995	103.804	19.872	24.557	0.502
613.500	392.597	80.006	19.995	103.805	19.871	24.622	0.496
615.000	393.382	80.006	19.994	103.800	19.861	25.354	0.524
616.500	394.161	80.007	19.993	103.804	19.865	25.060	0.506
618.000	394.887	80.005	19.993	103.793	19.862	25.239	0.490
619.500	395.643	80.008	19.994	103.795	19.856	25.696	0.508
621.000	396.389	80.006	19.993	103.794	19.855	25.812	0.493
622.500	397.163	80.006	19.994	103.794	19.846	26.441	0.505
624.000	397.900	80.008	19.993	103.789	19.842	26.742	0.478
625.500	398.699	80.007	19.994	103.792	19.838	27.015	0.523
627.000	399.413	80.008	19.993	103.801	19.839	26.985	0.485
628.500	400.179	80.006	19.993	103.801	19.835	27.273	0.512
630.000	400.960	80.007	19.994	103.791	19.828	27.793	0.525
631.500	401.682	80.006	19.993	103.793	19.827	27.867	0.473
633.000	402.491	80.006	19.993	103.792	19.825	27.968	0.537
634.500	403.227	80.005	19.994	103.796	19.820	28.372	0.494
636.000	403.982	80.008	19.994	103.801	19.815	28.700	0.503
637.500	404.735	80.008	19.993	103.792	19.811	28.983	0.508
639.000	405.487	80.007	19.994	103.790	19.809	29.140	0.507
640.500	406.260	80.005	19.993	103.794	19.798	29.932	0.502
642.000	407.045	80.004	19.994	103.793	19.797	30.000	0.519
643.500	407.809	80.006	19.993	103.789	19.792	30.402	0.490
645.000	408.563	80.006	19.993	103.787	19.787	30.736	0.511
646.500	409.351	80.006	19.993	103.787	19.782	31.154	0.544
648.000	410.140	80.008	19.993	103.792	19.778	31.456	0.508
649.500	410.893	80.006	19.993	103.793	19.771	31.913	0.503
651.000	411.671	80.005	19.994	103.788	19.768	32.118	0.514
652.500	412.396	80.008	19.993	103.788	19.765	32.377	0.485
654.000	413.119	80.007	19.994	103.790	19.762	32.588	0.489
655.500	413.897	80.007	19.992	103.792	19.760	32.756	0.539
657.000	414.609	80.007	19.994	103.793	19.753	33.279	0.493
658.500	415.412	80.007	19.992	103.790	19.745	33.862	0.523
660.000	416.161	80.008	19.993	103.786	19.743	33.996	0.515
661.500	416.932	80.009	19.992	103.785	19.738	34.375	0.529
663.000	417.680	80.008	19.993	103.786	19.730	34.967	0.510
664.500	418.442	80.008	19.992	103.785	19.724	35.345	0.490
666.000	419.251	80.006	19.993	103.789	19.718	35.825	0.509
667.500	419.988	80.007	19.994	103.789	19.714	36.081	0.494
669.000	420.733	80.009	19.994	103.785	19.707	36.634	0.505
670.500	421.522	80.006	19.994	103.786	19.700	37.118	0.518
672.000	422.269	80.006	19.993	103.785	19.695	37.517	0.489
673.500	423.032	80.005	19.994	103.780	19.690	37.894	0.510
675.000	423.825	80.006	19.994	103.776	19.685	38.204	0.529
676.500	424.552	80.007	19.994	103.781	19.677	38.817	0.477
678.000	425.335	80.007	19.994	103.781	19.676	38.886	0.506
679.500	426.103	80.008	19.995	103.777	19.666	39.626	0.503
681.000	426.888	80.009	19.993	103.774	19.658	40.205	0.506
682.500	427.585	80.007	19.992	103.781	19.656	40.318	0.464
684.000	428.372	80.010	19.994	103.778	19.648	40.961	0.533
685.500	429.134	80.011	19.993	103.777	19.644	41.259	0.500
687.000	429.889	80.009	19.993	103.770	19.635	41.893	0.521
688.500	430.657	80.011	19.993	103.770	19.628	42.418	0.507
690.000	431.419	80.009	19.993	103.768	19.624	42.724	0.503
691.500	432.181	80.007	19.993	103.765	19.620	42.987	0.501
693.000	432.956	80.009	19.993	103.773	19.614	43.445	0.523
694.500	433.715	80.006	19.994	103.778	19.609	43.787	0.523
696.000	434.515	80.005	19.994	103.770	19.604	44.153	0.550
697.500	435.245	80.005	19.993	103.768	19.596	44.733	0.483
699.000	436.024	80.003	19.994	103.767	19.592	45.000	0.508
700.500	436.778	80.006	19.994	103.766	19.588	45.349	0.515
702.000	437.511	80.005	19.995	103.769	19.582	45.744	0.502
703.500	438.306	80.006	19.995	103.774	19.578	46.082	0.531
705.000	439.046	80.006	19.994	103.776	19.574	46.324	0.489
706.500	439.803	80.005	19.994	103.767	19.571	46.607	0.512
708.000	440.575	80.004	19.994	103.761	19.564	47.111	0.515
709.500	441.321	80.006	19.993	103.754	19.561	47.321	0.506
711.000	442.100	80.006	19.995	103.764	19.555	47.731	0.527
712.500	442.867	80.006	19.994	103.780	19.550	48.140	0.510
714.000	443.626	80.006	19.993	103.772	19.544	48.536	0.499
715.500	444.427	80.008	19.994	103.756	19.544	48.576	0.535
717.000	445.170	80.006	19.993	103.752	19.538	49.008	0.500
718.500	445.893	80.006	19.994	103.751	19.536	49.120	0.492
720.000	446.693	80.007	19.993	103.751	19.533	49.346	0.527
721.500	447.438	80.006	19.992	103.754	19.527	49.820	0.504
723.000	448.207	80.005	19.993	103.750	19.528	49.729	0.510
724.500	448.944	80.006	19.993	103.746	19.525	49.913	0.506
726.000	449.687	80.002	19.994	103.748	19.519	50.350	0.504
727.500	450.470	80.006	19.994	103.753	19.518	50.461	0.525
729.000	451.198	80.006	19.994	103.756	19.519	50.358	0.477
730.500	451.977	80.006	19.994	103.746	19.516	50.592	0.516
732.000	452.736	80.006	19.992	103.747	19.517	50.501	0.499
733.500	453.523	80.005	19.993	103.748	19.516	50.560	0.511
735.000	454.252	80.005	19.993	103.748	19.515	50.647	0.485
736.500	455.018	80.005	19.994	103.748	19.516	50.587	0.526
738.000	455.818	80.002	19.995	103.747	19.518	50.444	0.521
739.500	456.543	80.009	19.993	103.744	19.520	50.317	0.479
741.000	457.277	80.007	19.993	103.742	19.523	50.060	0.473
742.500	458.067	80.011	19.994	103.743	19.527	49.757	0.508
744.000	458.843	80.007	19.993	103.743	19.526	49.865	0.524
745.500	459.596	80.010	19.993	103.743	19.530	49.541	0.499
747.000	460.345	80.009	19.993	103.744	19.535	49.220	0.497
748.500	461.104	80.008	19.992	103.744	19.543	48.612	0.510
750.000	461.851	80.007	19.994	103.743	19.543	48.615	0.510
751.500	462.636	80.008	19.993	103.745	19.549	48.168	0.512
753.000	463.377	80.008	19.992	103.744	19.554	47.814	0.502
754.500	464.170	80.007	19.992	103.745	19.565	47.035	0.523
756.000	464.890	80.008	19.993	103.745	19.570	46.655	0.479
757.500	465.679	80.008	19.993	103.742	19.579	45.986	0.518
759.000	466.440	80.007	19.992	103.745	19.591	45.125	0.511
760.500	467.220	80.008	19.993	103.745	19.596	44.716	0.527
762.000	467.928	80.008	19.992	103.745	19.607	43.964	0.491
763.500	468.698	80.005	19.993	103.750	19.620	43.015	0.496
765.000	469.457	80.008	19.993	103.747	19.625	42.641	0.515
766.500	470.230	80.007	19.993	103.747	19.637	41.737	0.541
768.000	470.998	80.011	19.992	103.747	19.651	40.682	0.503
769.500	471.770	80.012	19.994	103.748	19.660	40.087	0.507
771.000	472.516	80.009	19.994	103.754	19.678	38.709	0.498
772.500	473.307	80.010	19.993	103.759	19.692	37.711	0.519
774.000	474.101	80.006	19.993	103.753	19.703	36.917	0.526
775.500	474.854	80.008	19.994	103.753	19.716	35.927	0.528
777.000	475.637	80.011	19.993	103.749	19.734	34.659	0.523
778.500	476.374	80.006	19.993	103.756	19.744	33.895	0.475
780.000	477.171	80.007	19.995	103.755	19.759	32.838	0.523
781.500	477.910	80.006	19.994	103.756	19.775	31.656	0.499
783.000	478.672	80.007	19.992	103.763	19.790	30.570	0.514
784.500	479.477	80.005	19.994	103.761	19.802	29.681	0.540
786.000	480.229	80.007	19.994	103.757	19.814	28.812	0.490
787.500	480.998	80.008	19.993	103.764	19.829	27.689	0.494
789.000	481.800	80.007	19.993	103.777	19.839	26.928	0.540
790.500	482.567	80.006	19.994	103.772	19.855	25.795	0.510
792.000	483.344	80.011	19.993	103.773	19.868	24.803	0.505
793.500	484.126	80.005	19.995	103.771	19.876	24.212	0.527
795.000	484.859	80.008	19.995	103.773	19.893	22.979	0.501
796.500	485.631	80.006	19.995	103.772	19.904	22.195	0.532
798.000	486.408	80.008	19.994	103.771	19.911	21.687	0.526
799.500	487.118	80.008	19.994	103.771	19.929	20.348	0.468
801.000	487.918	80.009	19.994	103.768	19.938	19.685	0.539
802.500	488.683	80.009	19.994	103.775	19.951	18.728	0.503
804.000	489.500	80.002	19.995	103.771	19.965	17.722	0.535
805.500	490.255	80.015	19.993	103.764	19.969	17.399	0.490
807.000	491.038	80.022	19.993	103.772	19.972	17.226	0.513
808.500	491.770	80.012	19.993	103.784	19.987	16.098	0.497
810.000	492.574	80.006	19.994	103.778	19.997	15.341	0.529
811.500	493.329	80.018	19.993	103.780	20.001	15.051	0.504
813.000	494.132	80.016	19.993	103.779	20.014	14.114	0.526
814.500	494.922	79.999	19.994	103.780	20.020	13.654	0.533
816.000	495.752	80.013	19.991	103.778	20.024	13.392	0.547
817.500	496.514	80.013	19.992	103.777	20.031	12.868	0.516
819.000	497.241	80.010	19.994	103.775	20.041	12.161	0.477
820.500	498.032	80.014	19.993	103.780	20.049	11.585	0.534
822.000	498.784	80.006	19.995	103.771	20.055	11.110	0.503
823.500	499.595	80.012	19.994	103.772	20.060	10.793	0.537
825.000	500.394	80.005	19.992	103.773	20.065	10.360	0.504
826.500	501.139	80.006	19.994	103.766	20.072	9.904	0.491
828.000	501.920	80.002	19.993	103.771	20.073	9.774	0.498
829.500	502.689	80.006	19.995	103.778	20.079	9.397	0.530
831.000	503.479	80.022	19.991	103.770	20.084	8.971	0.540
832.500	504.245	80.000	19.994	103.780	20.090	8.587	0.499
834.000	505.011	79.992	19.995	103.783	20.090	8.586	0.518
835.500	505.835	80.004	19.994	103.768	20.095	8.231	0.562
837.000	506.598	80.007	19.993	103.777	20.101	7.747	0.502
838.500	507.344	80.006	19.994	103.785	20.104	7.522	0.516
840.000	508.123	80.015	19.994	103.772	20.103	7.584	0.513
841.500	508.894	79.996	19.993	103.771	20.108	7.225	0.484
843.000	509.659	80.008	19.993	103.784	20.113	6.871	0.520
844.500	510.447	80.018	19.990	103.787	20.116	6.670	0.520
846.000	511.209	80.004	19.993	103.779	20.117	6.602	0.526
847.500	511.950	79.993	19.994	103.782	20.122	6.237	0.486
849.000	512.758	79.989	19.992	103.781	20.123	6.148	0.545
850.500	513.532	80.014	19.991	103.782	20.123	6.170	0.522
852.000	514.308	80.015	19.991	103.784	20.124	6.064	0.506
853.500	515.084	80.007	19.992	103.786	20.128	5.811	0.517
855.000	515.917	80.014	19.990	103.782	20.130	5.656	0.560
856.500	516.655	80.028	19.991	103.783	20.129	5.677	0.494
858.000	517.474	80.010	19.993	103.778	20.133	5.446	0.516
859.500	518.248	79.994	19.994	103.783	20.134	5.325	0.514
861.000	519.029	80.009	19.992	103.783	20.135	5.303	0.573
862.500	519.722	80.014	19.992	103.784	20.138	5.034	0.477
864.000	520.511	79.998	19.994	103.776	20.138	5.050	0.512
865.500	521.302	79.983	19.996	103.780	20.143	4.704	0.518
867.000	522.087	79.997	19.996	103.777	20.137	5.152	0.528
868.500	522.836	80.004	19.995	103.777	20.143	4.660	0.528
870.000	523.665	80.004	19.994	103.782	20.142	4.719	0.566
871.500	524.456	80.006	19.992	103.776	20.141	4.817	0.550
873.000	525.226	80.000	19.995	103.778	20.140	4.879	0.502
874.500	525.970	80.006	19.994	103.781	20.144	4.624	0.489
876.000	526.760	80.012	19.993	103.775	20.142	4.731	0.544
877.500	527.516	80.007	19.995	103.777	20.145	4.536	0.505
879.000	528.319	80.007	19.995	103.774	20.146	4.473	0.557
880.500	529.048	79.993	19.996	103.776	20.145	4.509	0.494
882.000	529.875	80.006	19.993	103.775	20.147	4.399	0.563
883.500	530.671	80.012	19.992	103.779	20.146	4.445	0.551
885.000	531.459	80.002	19.996	103.779	20.151	4.124	0.540
886.500	532.161	80.002	19.992	103.775	20.153	3.973	0.495
888.000	532.971	80.008	19.995	103.771	20.150	4.196	0.573
889.500	533.686	80.004	19.995	103.772	20.152	3.989	0.519
891.000	534.505	79.993	19.995	103.782	20.144	4.574	0.578
892.500	535.312	80.005	19.994	103.785	20.149	4.210	0.491
894.000	536.089	79.994	19.996	103.786	20.150	4.140	0.580
895.500	536.865	80.010	19.994	103.782	20.155	3.780	0.588
897.000	537.566	80.003	19.995	103.782	20.151	4.060	0.450
898.500	538.454	80.016	19.994	103.784	20.149	4.208	0.628
900.000	539.698	80.013	19.995	103.787	20.147	4.397	0.744
901.500	539.763	80.007	19.994	103.776	20.148	4.298	-0.156
903.000	540.775	80.006	19.994	103.779	20.153	3.961	0.744
904.500	541.585	80.000	19.995	103.786	20.150	4.202	0.495
906.000	542.258	80.006	19.994	103.775	20.149	4.254	0.485
907.500	543.043	80.004	19.998	103.777	20.149	4.254	0.498
909.000	543.678	80.000	19.996	103.780	20.148	4.311	0.506
910.500	544.527	79.999	19.993	103.787	20.149	4.254	0.532
912.000	545.264	80.017	19.993	103.786	20.156	3.718	0.424
913.500	546.061	80.012	19.991	103.786	20.150	4.154	0.540
915.000	546.739	80.008	19.992	103.790	20.151	4.116	0.474
916.500	547.567	80.008	19.993	103.789	20.151	4.086	0.564
918.000	548.342	79.989	19.995	103.785	20.150	4.198	0.538
919.500	549.068	79.997	19.995	103.777	20.150	4.144	0.497
921.000	549.826	80.013	19.998	103.773	20.152	4.048	0.523
922.500	550.591	80.004	19.991	103.782	20.151	4.067	0.534
924.000	551.372	80.011	19.993	103.773	20.151	4.124	0.506
925.500	552.170	80.005	19.994	103.771	20.158	3.616	0.516
927.000	552.954	80.008	19.996	103.770	20.155	3.769	0.533
928.500	553.732	80.015	19.993	103.777	20.154	3.905	0.535
930.000	554.523	80.012	19.995	103.783	20.153	3.961	0.509
931.500	555.281	80.005	19.994	103.772	20.158	3.615	0.524
933.000	556.064	79.993	19.996	103.781	20.155	3.772	0.519
934.500	556.777	80.011	19.994	103.784	20.154	3.867	0.481
936.000	557.554	80.014	19.994	103.771	20.156	3.698	0.507
937.500	558.331	80.009	19.994	103.764	20.154	3.853	0.524
939.000	559.138	80.005	19.997	103.781	20.153	3.929	0.547
940.500	559.915	80.011	19.994	103.779	20.152	3.997	0.513
942.000	560.682	80.006	19.992	103.779	20.152	4.009	0.495
943.500	561.440	80.013	19.993	103.781	20.153	3.965	0.498
945.000	562.237	80.006	19.996	103.776	20.153	3.971	0.540
946.500	563.033	80.017	19.990	103.776	20.149	4.230	0.494
948.000	563.733	80.002	19.994	103.779	20.153	3.925	0.464
949.500	564.510	80.010	19.993	103.781	20.152	3.995	0.488
951.000	565.271	79.989	19.992	103.784	20.154	3.893	0.497
952.500	566.077	80.026	19.989	103.779	20.156	3.741	0.546
954.000	566.860	80.006	19.993	103.785	20.153	3.976	0.520
955.500	567.574	80.006	19.991	103.783	20.153	3.959	0.476
957.000	568.346	80.013	19.993	103.780	20.153	3.975	0.508
958.500	569.142	79.999	19.992	103.781	20.151	4.122	0.540
960.000	569.891	80.009	19.992	103.779	20.153	3.961	0.513
961.500	570.665	80.006	19.995	103.777	20.150	4.198	0.506
963.000	571.432	80.012	19.996	103.773	20.153	3.923	0.506
964.500	572.198	80.019	19.989	103.766	20.152	4.011	0.531
966.000	573.007	80.002	19.994	103.778	20.155	3.822	0.534
967.500	573.788	80.005	19.998	103.785	20.156	3.758	0.515
969.000	574.561	80.004	19.993	103.785	20.157	3.690	0.529
970.500	575.375	80.009	19.996	103.784	20.159	3.507	0.535
972.000	576.149	80.009	19.995	103.780	20.153	3.947	0.520
973.500	576.874	80.009	19.994	103.771	20.156	3.744	0.509
975.000	577.640	80.006	19.999	103.777	20.155	3.822	0.483
976.500	578.415	80.009	19.994	103.781	20.153	3.929	0.490
978.000	579.216	80.003	19.996	103.780	20.153	3.977	0.546
979.500	579.976	80.004	19.993	103.777	20.149	4.276	0.506
981.000	580.757	80.004	19.998	103.782	20.150	4.148	0.515
982.500	581.544	80.006	19.993	103.783	20.151	4.070	0.518
984.000	582.334	80.009	19.995	103.785	20.154	3.847	0.545
985.500	583.071	80.007	19.992	103.783	20.153	3.959	0.499
987.000	583.835	80.007	19.996	103.785	20.154	3.903	0.509
988.500	584.607	80.013	19.990	103.783	20.152	3.995	0.524
990.000	585.365	80.004	19.995	103.785	20.150	4.154	0.520
991.500	586.168	80.010	19.990	103.783	20.150	4.132	0.515
993.000	586.879	80.008	19.994	103.779	20.152	4.015	0.448
994.500	587.622	80.010	19.995	103.778	20.151	4.110	0.502
996.000	588.412	80.009	19.990	103.781	20.149	4.254	0.554
997.500	589.208	80.011	19.997	103.782	20.152	4.003	0.545
999.000	589.960	80.012	19.994	103.780	20.148	4.343	0.516
1000.500	590.767	80.016	19.997	103.781	20.149	4.228	0.497
1002.000	591.507	80.006	19.991	103.777	20.152	4.041	0.496
1003.500	592.278	80.004	19.991	103.784	20.150	4.136	0.513
1005.000	593.016	80.004	19.993	103.787	20.150	4.140	0.510
1006.500	593.833	80.006	19.994	103.783	20.148	4.282	0.536
1008.000	594.642	80.013	19.990	103.785	20.147	4.375	0.517
1009.500	595.404	80.000	19.994	103.784	20.149	4.242	0.524
1011.000	596.173	80.007	19.991	103.780	20.151	4.118	0.505
1012.500	596.880	80.011	19.995	103.785	20.148	4.286	0.505
1014.000	597.677	80.004	19.998	103.785	20.150	4.196	0.539
1015.500	598.481	80.009	19.994	103.780	20.151	4.122	0.536
1017.000	599.226	80.008	19.993	103.781	20.151	4.071	0.505
1018.500	600.017	80.018	19.992	103.781	20.149	4.274	0.525
1020.000	600.787	80.017	19.992	103.785	20.150	4.202	0.522
1021.500	601.566	80.002	19.992	103.784	20.151	4.098	0.509
1023.000	602.285	80.010	19.990	103.778	20.146	4.491	0.466
1024.499	603.042	80.009	19.994	103.777	20.148	4.293	0.512
1026.000	603.809	80.010	19.987	103.773	20.145	4.525	0.509
1027.499	604.582	80.012	19.991	103.786	20.150	4.192	0.525
1028.999	605.333	80.005	19.995	103.786	20.148	4.304	0.484
1030.499	606.113	79.997	19.997	103.782	20.149	4.222	0.511
1032.000	606.912	80.008	19.991	103.781	20.149	4.260	0.523
1033.501	607.670	80.017	19.987	103.784	20.149	4.220	0.504
1035.000	608.423	80.002	19.996	103.777	20.148	4.308	0.501
1036.499	609.195	80.006	19.991	103.780	20.151	4.087	0.508
1037.999	609.914	80.008	19.998	103.780	20.150	4.202	0.516
1039.500	610.669	80.008	19.997	103.783	20.147	4.407	0.525
1040.999	611.461	80.002	19.993	103.786	20.145	4.533	0.509
1042.499	612.242	80.005	19.994	103.784	20.146	4.469	0.504
1043.999	612.994	80.009	19.992	103.783	20.147	4.389	0.490
1045.499	613.760	80.008	19.994	103.784	20.147	4.357	0.501
1046.999	614.530	80.009	19.993	103.783	20.148	4.282	0.526
1048.499	615.328	80.005	19.997	103.782	20.147	4.403	0.522
1049.999	616.113	80.003	19.991	103.779	20.150	4.166	0.544
1051.499	616.861	80.008	19.994	103.781	20.149	4.230	0.508
1052.999	617.632	80.010	19.992	103.785	20.147	4.379	0.517
1054.499	618.377	79.998	20.001	103.782	20.145	4.518	0.493
1055.999	619.142	80.011	19.996	103.781	20.143	4.658	0.509
1057.500	619.948	80.008	19.991	103.779	20.146	4.445	0.545
1058.999	620.726	80.007	19.993	103.776	20.145	4.562	0.517
1060.499	621.432	80.011	19.993	103.779	20.142	4.734	0.465
1061.999	622.199	80.000	20.003	103.779	20.141	4.809	0.512
1063.499	622.999	80.004	19.997	103.779	20.140	4.879	0.531
1064.999	623.726	80.007	19.994	103.778	20.144	4.584	0.480
1066.499	624.504	80.001	19.999	103.777	20.145	4.558	0.531
1067.999	625.274	80.006	19.990	103.776	20.141	4.861	0.516
1069.499	625.971	80.009	19.993	103.782	20.140	4.909	0.484
1070.999	626.752	80.011	19.991	103.778	20.146	4.473	0.529
1072.499	627.492	80.005	19.994	103.780	20.143	4.688	0.493
1074.000	628.220	80.009	19.993	103.781	20.142	4.722	0.506
1075.500	629.040	80.009	19.990	103.781	20.143	4.712	0.527
1076.999	629.780	80.006	19.996	103.782	20.139	4.959	0.492
1078.499	630.538	80.010	19.993	103.779	20.142	4.718	0.488
1079.999	631.301	80.010	19.992	103.775	20.143	4.662	0.503
1081.499	632.056	80.009	19.994	103.773	20.144	4.592	0.510
1082.999	632.826	80.012	19.994	103.773	20.145	4.547	0.512
1084.499	633.611	80.014	19.993	103.779	20.143	4.668	0.523
1086.000	634.380	80.007	19.995	103.785	20.143	4.714	0.499
1087.500	635.182	80.010	19.989	103.779	20.142	4.728	0.520
1088.999	635.919	80.007	19.995	103.779	20.142	4.740	0.506
1090.499	636.715	80.009	19.994	103.781	20.139	4.939	0.517
1091.999	637.475	80.012	19.990	103.780	20.140	4.911	0.500
1093.499	638.217	80.009	19.994	103.781	20.141	4.851	0.490
1094.999	639.001	80.009	19.993	103.785	20.141	4.799	0.522
1096.499	639.790	80.009	19.994	103.788	20.139	4.985	0.510
1097.999	640.524	80.009	19.993	103.785	20.140	4.891	0.486
1099.499	641.287	80.009	19.992	103.785	20.145	4.570	0.502
1100.999	642.040	80.006	19.994	103.784	20.142	4.754	0.510
1102.500	642.773	80.011	19.992	103.784	20.138	5.045	0.491
1104.000	643.592	80.008	19.994	103.784	20.141	4.820	0.548
1105.499	644.323	80.011	19.990	103.783	20.136	5.186	0.500
1106.999	645.105	80.016	19.992	103.782	20.142	4.721	0.520
1108.500	645.842	80.011	19.994	103.783	20.143	4.680	0.510
1109.999	646.619	80.008	19.997	103.783	20.139	4.967	0.510
1111.500	647.416	80.009	19.992	103.783	20.141	4.797	0.532
1113.000	648.183	80.009	19.992	103.785	20.138	5.060	0.534
1114.499	648.935	80.005	19.990	103.785	20.141	4.837	0.493
1116.000	649.667	80.006	19.994	103.782	20.147	4.401	0.476
1117.499	650.469	80.007	19.995	103.774	20.134	5.359	0.563
1119.000	651.233	80.000	19.992	103.779	20.139	4.966	0.511
1120.499	652.028	80.007	19.993	103.779	20.139	4.968	0.524
1121.999	652.790	80.008	19.991	103.774	20.136	5.218	0.508
1123.499	653.517	80.008	19.994	103.772	20.137	5.148	0.489
1124.999	654.283	80.007	19.993	103.778	20.138	5.080	0.521
1126.499	655.064	80.006	19.997	103.775	20.138	5.023	0.526
1128.000	655.809	80.010	19.993	103.781	20.138	5.082	0.502
1129.499	656.651	80.007	19.994	103.773	20.138	5.052	0.530
1131.000	657.372	80.008	19.993	103.770	20.141	4.831	0.467
1132.500	658.142	80.011	19.984	103.780	20.141	4.861	0.512
1133.999	658.854	80.007	19.992	103.783	20.141	4.841	0.486
1135.500	659.647	80.006	19.992	103.782	20.138	5.036	0.549
1136.999	660.388	80.012	19.995	103.781	20.137	5.100	0.512
1138.499	661.155	80.008	19.996	103.785	20.137	5.148	0.516
1139.999	661.945	80.010	19.991	103.783	20.138	5.052	0.512
1141.499	662.724	80.005	19.996	103.781	20.137	5.112	0.497
1142.999	663.499	80.008	19.991	103.779	20.142	4.754	0.509
1144.499	664.244	80.010	19.993	103.781	20.139	4.989	0.486
1145.999	664.987	80.007	19.995	103.782	20.140	4.927	0.498
1147.499	665.761	80.007	19.994	103.780	20.138	5.020	0.511
1149.000	666.541	80.009	19.994	103.780	20.142	4.733	0.497
1150.500	667.304	80.008	19.989	103.782	20.141	4.839	0.492
1151.999	668.068	80.009	19.993	103.784	20.139	4.941	0.522
1153.499	668.820	80.006	19.997	103.784	20.140	4.917	0.508
1154.999	669.565	80.004	19.993	103.782	20.140	4.913	0.493
1156.499	670.374	80.006	19.994	103.782	20.139	4.959	0.546
1157.999	671.121	80.011	19.991	103.781	20.136	5.172	0.504
1159.499	671.895	80.007	19.993	103.773	20.134	5.371	0.521
1160.999	672.621	80.007	19.992	103.770	20.136	5.178	0.496
1162.499	673.386	80.009	19.993	103.780	20.138	5.062	0.550
1163.999	674.198	80.010	19.994	103.776	20.135	5.276	0.534
1165.499	674.955	80.011	19.992	103.775	20.136	5.188	0.486
1167.000	675.736	80.009	19.995	103.779	20.136	5.176	0.536
1168.499	676.463	80.009	19.992	103.781	20.135	5.291	0.486
1170.000	677.235	80.009	19.992	103.783	20.137	5.134	0.493
1171.500	677.967	80.008	19.993	103.781	20.135	5.299	0.503
1172.999	678.756	80.007	19.993	103.778	20.132	5.452	0.516
1174.499	679.529	80.007	19.993	103.783	20.131	5.530	0.515
1175.999	680.266	80.006	19.994	103.780	20.133	5.437	0.480
1177.499	681.061	80.007	19.993	103.781	20.132	5.504	0.536
1179.000	681.795	80.007	19.994	103.785	20.136	5.210	0.493
1180.499	682.527	80.010	19.993	103.783	20.130	5.632	0.500
1182.000	683.367	80.009	19.993	103.781	20.129	5.688	0.554
1183.499	684.082	80.009	19.994	103.777	20.125	5.966	0.488
1184.999	684.872	80.010	19.991	103.777	20.130	5.658	0.526
1186.499	685.555	80.010	19.995	103.779	20.131	5.556	0.446
1187.999	686.552	80.011	19.993	103.778	20.129	5.691	0.651
1189.499	687.086	80.010	19.994	103.778	20.130	5.662	0.399
1190.999	687.889	80.011	19.993	103.778	20.130	5.622	0.528
1192.500	688.643	80.010	19.993	103.779	20.133	5.441	0.505
1193.999	689.388	80.008	19.994	103.778	20.132	5.520	0.485
1195.499	690.184	80.010	19.993	103.779	20.132	5.470	0.539
1196.999	690.915	80.008	19.995	103.780	20.130	5.639	0.478
1198.499	691.723	80.009	19.993	103.778	20.134	5.335	0.550
1200.000	692.472	80.007	19.992	103.776	20.132	5.498	0.504
1201.499	693.253	80.008	19.991	103.781	20.133	5.417	0.559
1203.000	694.069	80.008	19.993	103.782	20.133	5.438	0.538
1204.499	694.828	80.008	19.995	103.780	20.132	5.456	0.519
1206.000	695.586	80.009	19.993	103.777	20.134	5.351	0.515
1207.499	696.384	80.008	19.993	103.774	20.129	5.680	0.534
1208.999	697.161	80.008	19.992	103.778	20.133	5.419	0.543
1210.499	697.902	80.009	19.994	103.774	20.134	5.355	0.503
1211.999	698.685	80.009	19.993	103.775	20.132	5.482	0.538
1213.499	699.402	80.010	19.993	103.771	20.130	5.632	0.462
1214.999	700.160	80.009	19.992	103.769	20.127	5.827	0.499
1216.500	700.929	80.007	19.994	103.776	20.132	5.509	0.502
1217.999	701.668	80.008	19.994	103.777	20.130	5.636	0.514
1219.500	702.426	80.009	19.992	103.782	20.132	5.520	0.508
1220.999	703.169	80.009	19.992	103.782	20.128	5.754	0.490
1222.499	703.913	80.008	19.993	103.779	20.127	5.831	0.486
1223.999	704.745	80.008	19.993	103.779	20.129	5.708	0.537
1225.499	705.423	80.010	19.993	103.782	20.131	5.568	0.458
1227.000	706.191	80.009	19.992	103.785	20.130	5.656	0.512
1228.500	706.923	80.007	19.994	103.786	20.132	5.513	0.466
1229.999	707.691	80.009	19.993	103.783	20.127	5.885	0.501
1231.500	708.410	80.008	19.993	103.785	20.126	5.921	0.506
1232.999	709.176	80.008	19.991	103.786	20.129	5.726	0.511
1234.499	709.877	80.008	19.994	103.784	20.125	6.032	0.470
1235.999	710.666	80.007	19.992	103.785	20.125	6.030	0.540
1237.499	711.385	80.008	19.992	103.778	20.123	6.118	0.488
1238.999	712.104	80.008	19.992	103.782	20.121	6.287	0.491
1240.500	712.863	80.009	19.991	103.786	20.124	6.104	0.516
1242.000	713.618	80.008	19.993	103.787	20.125	6.002	0.507
1243.499	714.392	80.008	19.993	103.786	20.122	6.223	0.521
1245.000	715.152	80.009	19.991	103.783	20.122	6.205	0.538
1246.499	715.898	80.009	19.993	103.782	20.123	6.113	0.490
1247.999	716.644	80.010	19.995	103.787	20.122	6.217	0.476
1249.499	717.368	80.011	19.992	103.782	20.121	6.291	0.476
1250.999	718.116	80.008	19.993	103.778	20.121	6.287	0.501
1252.499	718.880	80.008	19.995	103.783	20.123	6.155	0.500
1254.000	719.607	80.008	19.994	103.782	20.121	6.309	0.502
1255.499	720.400	80.009	19.993	103.781	20.120	6.390	0.507
1256.999	721.151	80.009	19.995	103.772	20.123	6.152	0.490
1258.499	721.903	80.008	19.993	103.775	20.119	6.450	0.517
1259.999	722.671	80.007	19.993	103.776	20.119	6.412	0.524
1261.499	723.471	80.009	19.994	103.773	20.116	6.649	0.554
1263.000	724.192	80.009	19.993	103.776	20.121	6.289	0.478
1264.499	724.970	80.011	19.993	103.779	20.117	6.560	0.505
1266.000	725.720	80.009	19.992	103.776	20.121	6.287	0.503
1267.500	726.481	80.010	19.994	103.777	20.120	6.344	0.491
1269.000	727.239	80.010	19.994	103.777	20.118	6.498	0.521
1270.499	727.963	80.010	19.993	103.776	20.118	6.484	0.505
1272.000	728.726	80.010	19.993	103.772	20.118	6.476	0.514
1273.500	729.468	80.012	19.993	103.770	20.117	6.621	0.494
1274.999	730.238	80.009	19.993	103.777	20.118	6.532	0.503
1276.499	730.977	80.008	19.995	103.778	20.116	6.657	0.471
1278.000	731.771	80.010	19.994	103.771	20.117	6.557	0.530
1279.499	732.517	80.008	19.994	103.776	20.117	6.574	0.510
1280.999	733.285	80.008	19.994	103.775	20.116	6.641	0.487
1282.500	734.049	80.008	19.994	103.767	20.118	6.534	0.517
1283.999	734.784	80.008	19.994	103.775	20.117	6.580	0.494
1285.499	735.512	80.008	19.993	103.780	20.118	6.546	0.484
1286.999	736.237	80.007	19.994	103.777	20.119	6.458	0.491
1288.500	737.018	80.008	19.992	103.769	20.118	6.500	0.517
1289.999	737.720	80.007	19.994	103.776	20.114	6.803	0.462
1291.500	738.512	80.007	19.993	103.770	20.112	6.952	0.518
1292.999	739.250	80.006	19.993	103.776	20.114	6.799	0.491
1294.500	740.020	80.008	19.992	103.785	20.116	6.695	0.501
1295.999	740.767	80.007	19.993	103.780	20.112	6.984	0.496
1297.499	741.524	80.008	19.993	103.782	20.115	6.699	0.510
1298.999	742.304	80.008	19.992	103.779	20.113	6.896	0.509
1300.500	743.080	80.009	19.994	103.778	20.113	6.901	0.523
1301.499	743.560	80.007	19.993	103.780	20.114	6.787	0.500