File: 01_Data/Engineered_Wood_Furniture/MCC/Engineered_Wood_Furniture_MCC_30K_min_211216_R3.txt
Sample ID:	C:\MCC\MCC Cal\Test\Engineered_Wood_Furniture_MCC_30K_min_211216_R3.txt
Sample Weight (mg):	4.98
Heating Rate (C/s):	0.5
Combustor Temp (C):	900
N2 Flow Rate (cc/min):	80
O2 Flow Rate (cc/min):	20
Calibration File:	C:\MCC\MCC Cal\Coeff1 JN10440_30_210304.txt.txt
T Correction Coefficients:	0	1.024463	0
Time Shift (s):	14
*
Time (s)	Temperature (C)	N2 flow rate (cc/min)	O2 flow rate (cc/min)	Flow Rate (cc/min)	Oxygen (%)	HRR (W/g)	Heating rate (C/s)
0.000	111.154	80.001	19.994	103.060	20.001	0.007	-0.008
2.000	111.157	80.002	19.994	103.051	19.999	0.135	0.005
4.000	111.126	80.003	19.994	103.054	19.999	0.130	-0.026
6.000	111.126	80.001	19.994	103.059	19.998	0.179	-0.008
8.000	111.136	80.003	19.994	103.062	19.998	0.165	-0.020
10.000	111.162	80.001	19.993	103.064	19.996	0.332	0.023
12.000	111.178	80.003	19.994	103.071	19.995	0.364	0.031
14.000	111.143	80.002	19.992	103.091	19.992	0.581	-0.013
16.001	111.168	80.002	19.994	103.102	19.995	0.347	0.004
18.000	111.220	80.001	19.994	103.121	19.989	0.774	0.023
20.000	111.283	80.002	19.993	103.140	19.982	1.220	0.047
22.000	111.337	80.001	19.994	103.159	19.979	1.376	0.027
24.000	111.429	80.001	19.992	103.156	19.979	1.413	0.057
26.000	111.544	80.002	19.992	103.149	19.978	1.475	0.058
28.000	111.652	80.003	19.994	103.172	19.979	1.401	0.051
30.000	111.815	80.004	19.994	103.186	19.971	1.889	0.079
32.000	111.981	80.003	19.993	103.202	19.970	1.979	0.103
34.000	112.188	80.004	19.993	103.207	19.968	2.092	0.080
36.000	112.429	80.005	19.992	103.218	19.967	2.168	0.127
38.001	112.660	80.003	19.993	103.209	19.966	2.217	0.115
40.000	112.945	80.003	19.995	103.214	19.964	2.353	0.129
42.000	113.222	80.000	19.994	103.217	19.966	2.219	0.147
44.001	113.562	80.003	19.994	103.239	19.964	2.358	0.165
46.000	113.868	80.001	19.995	103.254	19.955	2.957	0.173
48.001	114.247	80.002	19.994	103.256	19.957	2.841	0.206
50.000	114.626	80.001	19.993	103.256	19.957	2.816	0.209
52.000	115.046	80.001	19.994	103.256	19.959	2.669	0.224
54.000	115.499	80.001	19.994	103.258	19.956	2.891	0.232
56.000	115.921	80.000	19.994	103.270	19.955	2.979	0.215
58.000	116.445	80.001	19.993	103.271	19.953	3.088	0.248
60.000	116.910	80.001	19.994	103.274	19.951	3.224	0.238
62.000	117.462	80.000	19.993	103.288	19.947	3.477	0.268
64.000	117.977	80.001	19.993	103.296	19.949	3.356	0.257
66.001	118.568	80.001	19.994	103.295	19.951	3.199	0.267
68.000	119.172	80.000	19.995	103.295	19.946	3.516	0.286
70.000	119.753	79.999	19.994	103.296	19.948	3.382	0.306
72.000	120.416	79.999	19.994	103.297	19.947	3.462	0.322
74.000	121.037	79.999	19.993	103.296	19.947	3.492	0.313
76.000	121.692	79.998	19.995	103.300	19.950	3.261	0.318
78.000	122.364	79.999	19.995	103.298	19.948	3.390	0.322
80.000	123.082	80.001	19.995	103.298	19.950	3.251	0.354
82.001	123.789	80.001	19.993	103.306	19.949	3.326	0.342
84.000	124.500	80.001	19.994	103.301	19.948	3.434	0.351
86.000	125.262	80.000	19.995	103.305	19.948	3.397	0.352
88.001	126.035	80.003	19.993	103.302	19.950	3.257	0.392
90.000	126.844	80.003	19.994	103.321	19.946	3.566	0.398
92.001	127.620	80.003	19.993	103.316	19.947	3.497	0.404
94.000	128.400	80.000	19.993	103.304	19.944	3.640	0.395
96.001	129.213	80.004	19.994	103.308	19.945	3.582	0.377
98.000	130.054	80.003	19.992	103.308	19.946	3.564	0.399
100.000	130.826	80.004	19.994	103.300	19.947	3.444	0.408
102.000	131.691	80.002	19.994	103.301	19.944	3.650	0.402
104.001	132.509	80.003	19.994	103.307	19.944	3.642	0.447
106.000	133.349	80.002	19.996	103.313	19.943	3.714	0.417
108.000	134.216	80.003	19.995	103.305	19.941	3.876	0.427
110.000	135.101	80.002	19.994	103.309	19.944	3.663	0.433
112.000	135.994	80.003	19.994	103.300	19.944	3.686	0.469
114.000	136.879	80.004	19.992	103.309	19.942	3.795	0.446
116.000	137.782	80.004	19.993	103.316	19.946	3.564	0.465
118.000	138.690	80.004	19.993	103.314	19.940	3.900	0.458
120.000	139.559	80.002	19.994	103.313	19.939	4.011	0.447
122.001	140.505	80.003	19.993	103.308	19.942	3.818	0.463
124.000	141.415	80.001	19.993	103.309	19.942	3.805	0.460
126.000	142.365	80.002	19.993	103.302	19.941	3.844	0.478
128.000	143.307	80.002	19.992	103.300	19.943	3.745	0.448
130.000	144.315	80.001	19.992	103.297	19.941	3.841	0.482
132.000	145.241	80.000	19.994	103.307	19.942	3.823	0.488
134.000	146.143	80.001	19.994	103.307	19.941	3.853	0.419
136.000	147.159	80.002	19.994	103.307	19.939	3.971	0.497
138.000	148.075	80.003	19.994	103.310	19.939	3.978	0.454
140.000	149.092	80.001	19.994	103.302	19.940	3.941	0.477
142.000	150.091	80.001	19.994	103.305	19.937	4.129	0.486
144.000	151.030	80.001	19.994	103.298	19.938	4.034	0.485
146.000	152.054	80.001	19.994	103.305	19.943	3.749	0.497
148.000	152.996	80.001	19.994	103.315	19.943	3.724	0.490
150.000	153.965	80.000	19.994	103.310	19.936	4.195	0.487
152.000	154.966	80.000	19.995	103.300	19.940	3.932	0.504
154.000	155.945	80.002	19.994	103.304	19.940	3.904	0.488
156.000	156.933	80.000	19.995	103.302	19.939	4.016	0.507
158.000	157.961	80.001	19.994	103.300	19.938	4.082	0.526
160.000	158.972	80.001	19.994	103.307	19.942	3.775	0.529
162.000	159.921	80.001	19.994	103.308	19.933	4.379	0.471
164.000	160.924	80.000	19.995	103.298	19.939	3.995	0.500
166.000	161.935	80.002	19.994	103.296	19.936	4.173	0.504
168.000	162.945	80.001	19.994	103.297	19.933	4.388	0.508
170.000	163.975	80.003	19.995	103.294	19.934	4.330	0.532
172.000	164.989	80.002	19.995	103.292	19.936	4.178	0.522
174.000	165.971	80.001	19.994	103.291	19.936	4.161	0.496
176.000	167.005	80.002	19.994	103.285	19.930	4.544	0.497
178.001	168.021	80.003	19.994	103.292	19.930	4.589	0.512
180.000	168.969	80.001	19.993	103.289	19.934	4.301	0.479
182.000	170.030	80.003	19.993	103.292	19.933	4.393	0.499
184.000	170.986	80.003	19.994	103.293	19.931	4.537	0.486
186.000	171.984	80.001	19.992	103.288	19.929	4.647	0.468
188.000	173.028	80.002	19.994	103.291	19.931	4.523	0.493
190.000	173.985	80.003	19.993	103.285	19.930	4.587	0.470
192.000	174.972	80.002	19.993	103.285	19.929	4.664	0.456
194.000	175.970	80.003	19.993	103.288	19.928	4.708	0.496
196.000	176.964	80.004	19.993	103.284	19.922	5.075	0.508
198.000	177.996	80.005	19.992	103.287	19.924	4.985	0.499
200.000	178.947	80.003	19.994	103.291	19.920	5.223	0.470
202.000	179.966	80.004	19.994	103.284	19.923	5.009	0.509
204.000	180.972	80.002	19.993	103.290	19.922	5.113	0.491
206.000	181.940	80.000	19.994	103.289	19.917	5.406	0.479
208.000	182.951	79.999	19.993	103.293	19.914	5.597	0.495
210.000	183.858	80.000	19.994	103.291	19.917	5.424	0.469
212.000	184.920	80.001	19.993	103.291	19.913	5.693	0.511
214.000	185.913	79.999	19.993	103.282	19.912	5.736	0.494
216.000	186.945	80.002	19.994	103.291	19.910	5.848	0.492
218.000	187.926	80.001	19.994	103.297	19.910	5.876	0.490
220.000	188.892	80.000	19.992	103.289	19.910	5.840	0.484
222.000	189.906	80.001	19.993	103.295	19.903	6.335	0.495
224.000	190.899	80.001	19.993	103.295	19.904	6.244	0.512
226.000	191.921	80.000	19.994	103.293	19.904	6.258	0.476
228.000	192.875	80.002	19.993	103.285	19.899	6.611	0.519
230.000	193.853	80.001	19.996	103.272	19.899	6.551	0.499
232.000	194.847	80.000	19.996	103.282	19.897	6.683	0.494
234.000	195.816	80.001	19.995	103.279	19.898	6.628	0.459
236.000	196.815	80.000	19.994	103.292	19.894	6.913	0.459
238.000	197.834	79.999	19.994	103.288	19.890	7.140	0.550
240.000	198.793	80.000	19.995	103.287	19.892	7.024	0.497
242.000	199.773	80.002	19.993	103.291	19.888	7.311	0.489
244.000	200.757	80.001	19.994	103.294	19.888	7.294	0.476
246.000	201.757	80.000	19.994	103.283	19.886	7.404	0.487
248.000	202.707	80.001	19.993	103.278	19.883	7.618	0.493
250.000	203.704	80.001	19.994	103.271	19.887	7.375	0.512
252.000	204.645	80.002	19.994	103.280	19.885	7.483	0.460
254.000	205.632	80.003	19.995	103.284	19.878	7.924	0.469
256.000	206.619	80.002	19.994	103.285	19.877	8.022	0.501
258.000	207.607	80.002	19.994	103.273	19.876	8.044	0.474
260.000	208.637	80.002	19.994	103.290	19.877	7.985	0.514
262.000	209.594	80.001	19.994	103.279	19.874	8.205	0.459
264.000	210.580	80.003	19.994	103.268	19.872	8.358	0.523
266.000	211.582	80.003	19.996	103.289	19.873	8.280	0.488
268.000	212.486	79.999	19.995	103.288	19.869	8.513	0.462
270.000	213.480	80.003	19.994	103.275	19.870	8.466	0.484
272.000	214.483	80.003	19.993	103.267	19.866	8.721	0.484
274.000	215.434	80.002	19.993	103.275	19.867	8.668	0.483
276.000	216.403	80.002	19.993	103.284	19.867	8.648	0.483
278.000	217.409	80.003	19.994	103.281	19.865	8.767	0.523
280.000	218.379	80.004	19.992	103.289	19.865	8.787	0.503
282.000	219.321	80.003	19.993	103.270	19.871	8.405	0.469
284.000	220.324	80.003	19.992	103.263	19.861	9.033	0.503
286.000	221.346	80.002	19.994	103.278	19.863	8.915	0.540
288.000	222.305	80.001	19.994	103.278	19.861	9.012	0.495
290.000	223.307	80.001	19.994	103.274	19.862	8.966	0.513
292.000	224.351	80.000	19.994	103.283	19.859	9.142	0.524
294.000	225.324	80.001	19.994	103.275	19.861	9.033	0.503
296.000	226.311	80.001	19.993	103.268	19.868	8.557	0.517
298.001	227.265	80.001	19.993	103.268	19.853	9.533	0.471
300.000	228.280	80.001	19.994	103.275	19.858	9.228	0.521
302.000	229.263	80.001	19.993	103.271	19.855	9.441	0.507
304.000	230.239	80.001	19.994	103.271	19.867	8.670	0.467
306.000	231.345	80.002	19.993	103.279	19.854	9.471	0.583
308.000	232.222	80.002	19.993	103.273	19.852	9.593	0.508
310.000	233.203	80.002	19.993	103.270	19.847	9.973	0.505
312.000	234.170	80.002	19.993	103.276	19.847	9.918	0.497
314.000	235.214	80.002	19.993	103.275	19.849	9.797	0.505
316.000	236.138	80.002	19.993	103.275	19.848	9.908	0.456
318.000	237.158	80.001	19.994	103.279	19.845	10.068	0.565
320.000	238.205	80.003	19.994	103.287	19.843	10.226	0.540
322.000	239.280	80.000	19.994	103.276	19.842	10.299	0.536
324.000	240.158	80.001	19.993	103.286	19.840	10.370	0.444
326.000	241.118	80.000	19.995	103.284	19.835	10.704	0.464
328.000	242.154	80.002	19.994	103.286	19.836	10.641	0.523
330.000	243.121	80.001	19.995	103.282	19.835	10.691	0.478
332.000	244.107	80.002	19.994	103.285	19.831	11.001	0.502
334.000	245.101	80.000	19.994	103.286	19.826	11.313	0.507
336.000	246.080	80.002	19.995	103.294	19.826	11.278	0.499
338.000	247.089	80.002	19.994	103.285	19.825	11.375	0.488
340.000	248.061	80.001	19.994	103.296	19.820	11.709	0.483
342.000	249.103	80.003	19.994	103.296	19.815	11.993	0.526
344.000	250.121	80.001	19.993	103.294	19.825	11.352	0.555
346.000	251.101	80.001	19.994	103.295	19.814	12.084	0.512
348.000	252.096	80.001	19.994	103.298	19.817	11.894	0.454
350.000	253.056	80.000	19.994	103.298	19.808	12.451	0.493
352.000	254.066	80.001	19.996	103.298	19.803	12.819	0.534
354.000	255.089	80.002	19.995	103.296	19.802	12.870	0.520
356.000	256.021	80.003	19.995	103.295	19.797	13.185	0.456
358.000	257.039	80.003	19.994	103.294	19.809	12.384	0.508
360.000	258.034	80.005	19.995	103.293	19.788	13.781	0.523
362.000	259.033	80.004	19.994	103.296	19.791	13.562	0.462
364.000	260.061	80.003	19.995	103.294	19.783	14.077	0.512
366.000	261.012	80.005	19.993	103.292	19.777	14.453	0.476
368.000	261.983	80.003	19.993	103.297	19.770	14.907	0.462
370.000	262.959	80.003	19.994	103.294	19.778	14.441	0.460
372.000	263.942	80.002	19.994	103.310	19.759	15.628	0.475
374.000	264.961	79.999	19.994	103.317	19.758	15.695	0.500
376.000	265.917	80.000	19.994	103.311	19.754	15.941	0.488
378.000	266.904	80.000	19.993	103.324	19.753	16.045	0.472
380.000	267.933	79.999	19.994	103.320	19.743	16.671	0.524
382.000	268.889	80.000	19.993	103.328	19.740	16.866	0.462
384.000	269.927	80.000	19.994	103.326	19.740	16.861	0.508
386.000	270.915	80.000	19.995	103.335	19.726	17.794	0.481
388.000	271.928	80.001	19.995	103.333	19.726	17.780	0.426
390.000	272.972	80.000	19.995	103.320	19.712	18.661	0.559
392.000	273.962	80.002	19.995	103.333	19.708	18.948	0.573
394.000	274.983	80.001	19.994	103.336	19.700	19.463	0.500
396.000	276.030	80.001	19.994	103.337	19.696	19.711	0.521
398.000	276.982	80.002	19.993	103.338	19.690	20.139	0.506
400.000	277.961	80.003	19.994	103.339	19.686	20.381	0.463
402.000	279.005	80.002	19.993	103.338	19.687	20.319	0.563
404.000	280.012	80.000	19.995	103.339	19.668	21.551	0.471
406.000	281.032	80.002	19.994	103.341	19.661	22.020	0.509
408.000	282.042	80.001	19.994	103.345	19.654	22.482	0.524
410.000	282.996	80.000	19.994	103.341	19.646	22.994	0.503
412.000	284.033	80.002	19.993	103.348	19.637	23.577	0.503
414.000	285.011	80.000	19.994	103.354	19.632	23.885	0.472
416.000	286.018	80.002	19.995	103.349	19.634	23.758	0.444
418.000	287.073	80.002	19.994	103.368	19.621	24.614	0.530
420.000	288.064	80.001	19.995	103.364	19.613	25.110	0.546
422.000	289.095	80.003	19.995	103.364	19.597	26.171	0.491
424.000	290.054	80.002	19.995	103.356	19.595	26.293	0.516
426.000	291.074	80.001	19.995	103.369	19.586	26.884	0.531
428.000	292.080	80.001	19.994	103.359	19.574	27.610	0.522
430.000	293.096	80.002	19.995	103.368	19.570	27.900	0.511
432.000	294.122	80.002	19.993	103.368	19.558	28.701	0.520
434.000	295.154	80.000	19.994	103.363	19.552	29.066	0.513
436.000	296.189	80.001	19.994	103.363	19.546	29.433	0.487
438.000	297.205	80.002	19.995	103.362	19.542	29.713	0.512
440.000	298.191	80.003	19.996	103.368	19.536	30.079	0.477
442.000	299.306	80.003	19.994	103.363	19.523	30.908	0.515
444.000	300.281	80.002	19.996	103.371	19.521	31.062	0.519
446.000	301.199	80.005	19.996	103.370	19.515	31.487	0.476
448.000	302.284	80.002	19.995	103.372	19.522	30.979	0.460
450.000	303.293	80.000	19.995	103.371	19.500	32.436	0.447
452.000	304.305	79.998	19.994	103.371	19.492	32.955	0.497
454.000	305.350	79.999	19.996	103.375	19.483	33.505	0.471
456.000	306.328	80.000	19.995	103.378	19.475	34.079	0.530
458.000	307.379	80.000	19.993	103.387	19.470	34.369	0.540
460.000	308.377	80.001	19.994	103.390	19.462	34.910	0.513
462.000	309.401	80.000	19.993	103.384	19.452	35.551	0.499
464.000	310.491	80.001	19.992	103.395	19.447	35.894	0.528
466.000	311.526	80.001	19.994	103.400	19.441	36.252	0.527
468.000	312.556	80.000	19.993	103.400	19.433	36.793	0.509
470.000	313.597	80.001	19.994	103.394	19.423	37.414	0.538
472.000	314.656	80.003	19.993	103.390	19.417	37.827	0.539
474.000	315.664	80.001	19.993	103.403	19.409	38.303	0.508
476.000	316.703	80.001	19.994	103.414	19.401	38.833	0.486
478.000	317.707	79.999	19.994	103.412	19.390	39.574	0.492
480.000	318.773	79.999	19.993	103.415	19.384	39.973	0.514
482.000	319.821	80.000	19.994	103.411	19.371	40.772	0.518
484.000	320.840	80.001	19.993	103.412	19.365	41.215	0.530
486.000	321.891	79.999	19.994	103.407	19.353	41.948	0.503
488.000	322.931	80.001	19.993	103.406	19.343	42.599	0.526
490.000	323.945	80.002	19.994	103.413	19.333	43.293	0.522
492.000	324.945	80.002	19.994	103.412	19.324	43.858	0.478
494.000	325.987	80.004	19.993	103.423	19.312	44.643	0.523
496.000	326.963	80.003	19.994	103.415	19.303	45.208	0.526
498.000	327.980	80.001	19.993	103.438	19.291	45.986	0.502
500.000	329.056	80.003	19.994	103.441	19.276	46.968	0.508
502.000	330.038	80.002	19.993	103.442	19.266	47.610	0.478
504.000	331.031	80.003	19.993	103.434	19.250	48.638	0.474
506.000	332.060	80.002	19.994	103.445	19.241	49.221	0.495
508.000	333.070	80.000	19.994	103.452	19.226	50.215	0.497
510.000	334.085	80.001	19.994	103.450	19.213	51.068	0.527
512.000	335.113	80.003	19.994	103.450	19.200	51.941	0.519
514.000	336.103	80.001	19.993	103.466	19.185	52.884	0.502
516.000	337.094	80.000	19.995	103.470	19.175	53.512	0.478
518.000	338.128	79.999	19.995	103.472	19.157	54.689	0.528
520.000	339.091	80.001	19.994	103.479	19.144	55.563	0.494
522.000	340.103	80.003	19.994	103.485	19.131	56.417	0.495
524.000	341.046	80.003	19.994	103.488	19.116	57.359	0.480
526.000	342.058	80.005	19.993	103.492	19.103	58.228	0.498
528.000	343.050	80.004	19.995	103.493	19.088	59.207	0.507
530.000	344.023	80.003	19.993	103.494	19.075	60.004	0.486
532.000	344.988	80.002	19.994	103.497	19.067	60.545	0.463
534.000	346.011	79.997	19.995	103.506	19.053	61.442	0.507
536.000	346.977	80.001	19.994	103.521	19.037	62.501	0.485
538.000	347.975	79.992	19.995	103.527	19.031	62.872	0.488
540.000	348.995	80.000	19.994	103.518	19.020	63.616	0.499
542.000	349.957	80.001	19.994	103.510	19.014	63.992	0.495
544.000	351.012	80.006	19.994	103.507	19.003	64.682	0.478
546.000	351.949	80.000	19.995	103.504	18.999	64.953	0.502
548.000	352.958	80.001	19.994	103.511	19.001	64.813	0.520
550.000	353.946	80.000	19.994	103.495	18.997	65.031	0.495
552.000	354.978	80.003	19.994	103.489	18.999	64.883	0.511
554.000	355.965	80.000	19.994	103.487	19.000	64.801	0.487
556.000	356.935	80.000	19.993	103.481	19.013	64.003	0.492
558.000	357.937	80.001	19.994	103.466	19.028	62.974	0.473
560.000	358.946	80.004	19.993	103.449	19.038	62.345	0.503
562.000	359.953	80.002	19.994	103.442	19.060	60.918	0.473
564.000	360.975	80.002	19.993	103.416	19.078	59.749	0.468
566.000	361.945	79.998	19.996	103.411	19.103	58.126	0.470
568.001	363.009	80.002	19.994	103.392	19.137	55.890	0.513
570.000	364.003	80.000	19.994	103.371	19.168	53.854	0.515
572.000	365.017	79.998	19.995	103.364	19.206	51.381	0.505
574.000	366.035	80.002	19.994	103.341	19.248	48.719	0.522
576.000	367.030	80.000	19.993	103.322	19.289	46.023	0.520
578.000	368.002	80.006	19.994	103.305	19.331	43.308	0.492
580.000	369.032	80.002	19.995	103.285	19.375	40.480	0.488
582.000	370.058	80.000	19.994	103.267	19.414	37.922	0.486
584.000	371.068	80.003	19.993	103.255	19.459	35.006	0.503
586.000	372.100	80.000	19.993	103.247	19.501	32.322	0.552
588.000	373.099	80.003	19.994	103.224	19.541	29.737	0.496
590.000	374.162	80.000	19.993	103.224	19.581	27.132	0.521
592.000	375.156	80.001	19.994	103.220	19.614	25.012	0.492
594.000	376.227	79.999	19.994	103.218	19.651	22.612	0.517
596.000	377.235	80.003	19.993	103.211	19.676	21.021	0.523
598.000	378.236	80.000	19.994	103.205	19.699	19.473	0.486
600.000	379.288	80.006	19.994	103.192	19.723	17.977	0.533
602.000	380.311	80.005	19.993	103.202	19.741	16.763	0.493
604.000	381.312	80.003	19.993	103.206	19.760	15.578	0.506
606.000	382.333	80.004	19.992	103.204	19.774	14.662	0.529
608.000	383.369	80.002	19.993	103.190	19.778	14.412	0.514
610.000	384.373	80.001	19.994	103.198	19.795	13.324	0.466
612.000	385.360	80.003	19.993	103.188	19.810	12.357	0.514
614.000	386.394	80.002	19.993	103.190	19.814	12.058	0.504
616.000	387.399	80.003	19.994	103.193	19.813	12.114	0.480
618.000	388.409	80.002	19.994	103.184	19.820	11.656	0.499
620.000	389.418	80.001	19.993	103.194	19.828	11.164	0.486
622.000	390.440	79.998	19.995	103.199	19.829	11.075	0.474
624.000	391.460	80.000	19.995	103.198	19.836	10.673	0.510
626.000	392.477	80.002	19.997	103.211	19.837	10.613	0.539
628.000	393.500	80.000	19.995	103.208	19.835	10.691	0.503
630.000	394.533	79.999	19.995	103.193	19.839	10.463	0.513
632.000	395.608	80.001	19.996	103.195	19.836	10.669	0.511
634.000	396.625	79.999	19.995	103.195	19.843	10.223	0.527
636.000	397.624	80.001	19.996	103.204	19.841	10.338	0.511
638.000	398.641	79.998	19.996	103.203	19.844	10.132	0.499
640.000	399.691	80.004	19.993	103.177	19.843	10.172	0.522
642.000	400.710	80.001	19.995	103.188	19.846	10.006	0.524
644.000	401.692	80.000	19.994	103.187	19.848	9.854	0.513
646.000	402.685	79.999	19.993	103.204	19.851	9.671	0.514
648.000	403.733	80.002	19.993	103.200	19.849	9.819	0.500
650.000	404.720	79.995	19.993	103.197	19.855	9.419	0.476
652.000	405.776	80.002	19.993	103.191	19.850	9.727	0.512
654.000	406.754	80.001	19.993	103.188	19.853	9.578	0.502
656.000	407.764	79.994	19.994	103.184	19.851	9.666	0.494
658.000	408.768	79.999	19.994	103.184	19.858	9.247	0.471
660.000	409.792	80.007	19.993	103.183	19.855	9.423	0.540
662.000	410.819	80.001	19.994	103.183	19.858	9.235	0.491
664.000	411.829	79.995	19.993	103.182	19.860	9.117	0.510
666.000	412.875	80.003	19.993	103.185	19.859	9.174	0.538
668.000	413.827	80.002	19.993	103.185	19.857	9.280	0.471
670.000	414.788	80.005	19.993	103.181	19.857	9.284	0.436
672.000	415.821	80.003	19.992	103.186	19.858	9.196	0.562
674.000	416.863	80.011	19.993	103.184	19.860	9.074	0.531
676.000	417.878	80.000	19.993	103.191	19.864	8.816	0.465
678.000	418.907	80.005	19.993	103.186	19.865	8.791	0.511
680.000	419.901	80.003	19.992	103.179	19.866	8.701	0.530
682.000	420.900	80.003	19.994	103.181	19.866	8.696	0.483
684.000	421.906	80.001	19.994	103.181	19.869	8.511	0.504
686.000	422.936	80.003	19.994	103.184	19.868	8.552	0.482
688.000	423.950	80.001	19.993	103.182	19.874	8.206	0.504
690.000	424.956	80.000	19.994	103.179	19.870	8.442	0.486
692.000	425.975	80.005	19.994	103.177	19.869	8.483	0.521
694.000	426.975	80.003	19.993	103.183	19.874	8.221	0.479
696.000	427.998	80.001	19.995	103.180	19.868	8.544	0.479
698.000	429.047	79.999	19.994	103.177	19.872	8.321	0.545
700.000	430.036	80.000	19.994	103.177	19.871	8.372	0.510
702.000	430.993	80.000	19.996	103.177	19.870	8.471	0.474
704.000	432.023	79.999	19.994	103.176	19.873	8.238	0.497
706.000	433.005	80.004	19.994	103.179	19.869	8.493	0.495
708.000	433.991	80.001	19.994	103.179	19.875	8.098	0.497
710.000	435.076	80.000	19.994	103.178	19.876	8.043	0.519
712.000	436.043	79.997	19.993	103.180	19.882	7.643	0.488
714.000	437.064	80.003	19.993	103.176	19.875	8.136	0.485
716.000	438.096	79.997	19.993	103.175	19.878	7.951	0.522
718.000	439.084	80.004	19.994	103.180	19.881	7.768	0.522
720.000	440.104	79.990	19.995	103.180	19.893	6.945	0.516
722.000	441.112	80.001	19.995	103.177	19.874	8.175	0.507
724.000	442.131	80.001	19.994	103.180	19.877	7.969	0.501
726.000	443.130	80.005	19.995	103.176	19.876	8.038	0.499
728.000	444.155	79.994	19.995	103.177	19.882	7.665	0.526
730.000	445.155	79.995	19.995	103.173	19.882	7.650	0.496
732.000	446.169	79.994	19.995	103.179	19.881	7.755	0.480
734.000	447.176	79.998	19.994	103.180	19.883	7.594	0.469
736.000	448.219	80.000	19.994	103.183	19.882	7.652	0.530
738.000	449.235	80.002	19.993	103.180	19.887	7.333	0.475
740.000	450.322	79.995	19.992	103.173	19.886	7.425	0.557
742.000	451.323	79.992	19.994	103.172	19.889	7.210	0.502
744.000	452.320	79.992	19.994	103.155	19.891	7.057	0.495
746.000	453.316	79.995	19.995	103.163	19.888	7.265	0.517
748.000	454.334	80.004	19.993	103.177	19.886	7.444	0.527
750.000	455.418	79.995	19.993	103.170	19.885	7.482	0.485
752.000	456.408	79.995	19.995	103.172	19.889	7.217	0.494
754.000	457.429	80.004	19.994	103.171	19.889	7.248	0.494
756.000	458.468	80.004	19.994	103.174	19.893	6.978	0.514
758.000	459.483	80.012	19.992	103.167	19.893	6.945	0.516
760.000	460.455	79.990	19.996	103.169	19.896	6.786	0.514
762.000	461.481	79.992	19.995	103.165	19.895	6.814	0.469
764.000	462.559	79.999	19.992	103.170	19.899	6.570	0.502
766.000	463.503	79.991	19.994	103.167	19.899	6.561	0.479
768.000	464.536	79.990	19.993	103.171	19.898	6.646	0.480
770.000	465.552	80.002	19.994	103.169	19.900	6.526	0.507
772.000	466.563	80.009	19.992	103.171	19.902	6.392	0.504
774.000	467.566	80.004	19.992	103.177	19.901	6.470	0.469
776.000	468.572	80.012	19.993	103.175	19.899	6.572	0.483
778.000	469.598	80.008	19.992	103.176	19.903	6.324	0.535
780.000	470.625	80.010	19.994	103.177	19.900	6.480	0.494
782.000	471.679	79.997	19.993	103.173	19.907	6.029	0.519
784.000	472.671	79.997	19.992	103.174	19.905	6.199	0.514
786.000	473.707	79.999	19.995	103.176	19.905	6.163	0.533
788.000	474.733	80.002	19.994	103.177	19.906	6.113	0.500
790.000	475.783	80.010	19.992	103.166	19.908	5.988	0.512
792.000	476.778	80.005	19.993	103.183	19.909	5.900	0.529
794.000	477.821	79.994	19.995	103.170	19.905	6.160	0.491
796.000	478.847	80.013	19.995	103.158	19.910	5.887	0.541
798.000	479.886	80.008	19.991	103.161	19.908	5.981	0.528
800.000	480.960	80.013	19.992	103.172	19.910	5.842	0.553
802.000	481.946	79.999	19.993	103.178	19.910	5.841	0.515
804.000	482.982	80.012	19.992	103.175	19.913	5.679	0.486
806.000	484.018	80.009	19.993	103.178	19.914	5.582	0.528
808.000	485.035	79.999	19.995	103.177	19.915	5.532	0.507
810.000	486.092	80.009	19.993	103.179	19.915	5.543	0.554
812.000	487.054	79.988	19.995	103.176	19.920	5.245	0.484
814.000	488.147	80.000	19.995	103.167	19.919	5.271	0.535
816.000	489.172	80.000	19.995	103.165	19.919	5.305	0.540
818.000	490.193	80.003	19.994	103.160	19.918	5.334	0.531
820.000	491.182	80.000	19.995	103.146	19.921	5.151	0.506
822.001	492.246	80.003	19.995	103.164	19.922	5.058	0.509
824.000	493.289	80.008	19.994	103.164	19.921	5.145	0.533
826.000	494.379	80.012	19.994	103.144	19.922	5.113	0.568
828.000	495.400	80.014	19.994	103.164	19.922	5.105	0.492
830.000	496.436	80.003	19.994	103.162	19.925	4.922	0.531
832.000	497.484	79.985	19.995	103.160	19.925	4.911	0.551
834.000	498.488	80.006	19.993	103.172	19.920	5.236	0.490
836.000	499.512	80.008	19.993	103.167	19.921	5.148	0.508
838.000	500.560	80.004	19.992	103.165	19.921	5.154	0.523
840.000	501.550	80.002	19.993	103.158	19.923	5.030	0.499
842.000	502.619	80.009	19.994	103.157	19.922	5.089	0.498
844.000	503.655	80.001	19.994	103.175	19.926	4.836	0.512
846.000	504.689	80.008	19.996	103.169	19.925	4.864	0.541
848.000	505.691	79.997	19.992	103.147	19.920	5.219	0.544
850.000	506.690	79.999	19.995	103.155	19.924	4.978	0.499
852.000	507.687	80.004	19.994	103.158	19.922	5.068	0.498
854.000	508.723	80.004	19.993	103.144	19.921	5.170	0.542
856.000	509.746	80.002	19.993	103.161	19.919	5.285	0.493
858.000	510.770	80.000	19.992	103.151	19.926	4.844	0.500
860.000	511.792	79.998	19.994	103.146	19.922	5.074	0.510
862.000	512.796	80.007	19.993	103.151	19.923	5.035	0.487
864.000	513.811	79.997	19.994	103.154	19.921	5.181	0.485
866.000	514.907	80.003	19.993	103.153	19.924	4.951	0.549
868.000	515.918	79.996	19.994	103.170	19.927	4.789	0.500
870.000	516.925	79.981	19.996	103.176	19.926	4.808	0.528
872.000	517.959	80.010	19.993	103.161	19.928	4.670	0.501
874.000	518.981	80.001	19.994	103.154	19.920	5.193	0.504
876.000	520.058	79.998	19.995	103.157	19.926	4.858	0.540
878.000	521.048	79.998	19.995	103.169	19.925	4.895	0.515
880.000	522.055	79.996	19.994	103.163	19.924	4.955	0.472
882.000	523.132	80.000	19.996	103.149	19.928	4.686	0.480
884.000	524.201	80.000	19.995	103.149	19.925	4.881	0.507
886.000	525.229	80.010	19.994	103.171	19.925	4.907	0.479
888.000	526.215	79.999	19.995	103.162	19.924	4.974	0.499
890.000	527.242	79.999	19.994	103.142	19.925	4.863	0.521
892.000	528.279	79.996	19.996	103.147	19.923	5.035	0.536
894.000	529.302	79.993	19.996	103.142	19.928	4.697	0.476
896.000	530.369	80.000	19.994	103.138	19.925	4.864	0.521
898.000	531.334	80.008	19.993	103.144	19.927	4.776	0.503
900.000	532.371	80.004	19.993	103.143	19.926	4.830	0.546
902.000	533.395	80.004	19.993	103.152	19.927	4.777	0.518
904.000	534.439	80.004	19.994	103.159	19.930	4.542	0.508
906.000	535.460	79.998	19.994	103.146	19.928	4.671	0.504
908.000	536.522	80.002	19.994	103.143	19.930	4.551	0.528
910.000	537.527	80.002	19.995	103.142	19.926	4.857	0.500
912.000	538.563	80.001	19.995	103.143	19.931	4.480	0.524
914.000	539.611	79.997	19.996	103.152	19.929	4.644	0.551
916.000	540.620	80.006	19.993	103.163	19.926	4.807	0.522
918.000	541.648	80.001	19.993	103.146	19.926	4.800	0.529
920.000	542.674	80.005	19.994	103.139	19.927	4.749	0.517
922.000	543.665	80.002	19.994	103.148	19.930	4.582	0.450
924.000	544.675	79.989	19.995	103.144	19.930	4.547	0.501
926.000	545.722	79.994	19.994	103.143	19.931	4.525	0.544
928.000	546.710	80.006	19.994	103.139	19.934	4.288	0.490
930.000	547.743	79.999	19.994	103.145	19.930	4.538	0.509
932.000	548.801	79.998	19.994	103.138	19.931	4.500	0.534
934.000	549.787	80.003	19.994	103.140	19.929	4.614	0.492
936.000	550.876	79.994	19.993	103.139	19.931	4.505	0.542
938.000	551.851	80.008	19.993	103.135	19.925	4.916	0.519
940.000	552.897	79.994	19.994	103.139	19.928	4.718	0.545
942.000	553.912	80.028	19.990	103.143	19.929	4.649	0.549
944.000	554.964	80.002	19.993	103.156	19.927	4.774	0.487
946.000	556.015	80.010	19.994	103.157	19.932	4.469	0.572
948.000	557.006	80.009	19.994	103.139	19.931	4.529	0.481
950.000	558.012	80.008	19.992	103.139	19.933	4.391	0.514
952.000	559.030	80.007	19.993	103.152	19.942	3.761	0.459
954.000	560.100	80.004	19.994	103.148	19.935	4.234	0.537
956.000	561.147	79.993	19.992	103.138	19.931	4.524	0.507
958.000	562.143	80.002	19.993	103.142	19.934	4.297	0.546
960.000	563.141	80.005	19.994	103.150	19.929	4.631	0.462
962.000	564.126	80.014	19.993	103.155	19.929	4.631	0.395
964.000	565.236	80.002	19.993	103.150	19.932	4.450	0.306
966.000	566.487	80.017	19.992	103.137	19.932	4.438	0.803
968.000	567.831	79.988	19.994	103.142	19.931	4.503	1.150
970.000	568.088	79.986	19.994	103.141	19.931	4.531	0.679
972.000	569.459	80.003	19.995	103.142	19.930	4.596	0.641
974.000	570.265	80.004	19.994	103.142	19.930	4.583	0.551
976.000	571.411	80.011	19.991	103.142	19.930	4.558	0.590
978.000	572.349	79.987	19.996	103.147	19.930	4.550	0.529
980.000	573.506	79.995	19.994	103.145	19.932	4.456	0.506
982.000	574.620	79.995	19.995	103.144	19.931	4.498	0.564
984.000	575.666	80.004	19.994	103.138	19.934	4.297	0.555
986.000	576.748	80.002	19.995	103.142	19.933	4.368	0.535
988.000	577.786	80.005	19.993	103.145	19.931	4.477	0.510
990.000	578.804	79.995	19.995	103.146	19.932	4.425	0.539
992.000	579.893	80.000	19.994	103.147	19.932	4.427	0.509
994.000	580.981	80.013	19.992	103.138	19.933	4.385	0.498
996.000	582.035	80.005	19.994	103.151	19.930	4.538	0.526
998.000	583.114	80.015	19.992	103.145	19.931	4.485	0.561
1000.000	584.191	79.990	19.996	103.137	19.930	4.562	0.537
1002.000	585.201	79.989	19.994	103.140	19.932	4.432	0.516
1004.000	586.278	80.009	19.994	103.138	19.928	4.708	0.532
1006.000	587.355	79.992	19.997	103.134	19.933	4.402	0.544
1008.000	588.431	80.004	19.996	103.132	19.926	4.809	0.527
1010.000	589.474	79.999	19.994	103.132	19.931	4.535	0.552
1012.000	590.542	80.005	19.995	103.138	19.932	4.434	0.518
1014.000	591.605	79.999	19.994	103.131	19.929	4.614	0.526
1016.000	592.697	80.000	19.994	103.133	19.927	4.765	0.533
1018.000	593.723	79.996	19.994	103.135	19.931	4.475	0.490
1020.000	594.836	80.007	19.993	103.143	19.931	4.510	0.500
1022.000	595.853	79.995	19.994	103.142	19.930	4.568	0.544
1024.001	596.959	80.010	19.993	103.139	19.931	4.471	0.550
1026.001	597.976	80.000	19.994	103.136	19.931	4.475	0.510
1028.000	599.061	79.995	19.993	103.137	19.932	4.436	0.557
1030.000	600.061	80.000	19.993	103.144	19.932	4.445	0.511
1032.000	601.122	80.000	19.994	103.143	19.932	4.449	0.527
1034.000	602.139	80.006	19.994	103.138	19.928	4.705	0.530
1036.000	603.222	80.003	19.993	103.146	19.933	4.397	0.509
1038.000	604.251	80.005	19.994	103.146	19.929	4.643	0.521
1040.000	605.220	80.001	19.993	103.140	19.930	4.559	0.508
1042.000	606.291	80.004	19.994	103.140	19.931	4.511	0.510
1044.000	607.341	80.005	19.993	103.153	19.932	4.464	0.485
1046.000	608.337	80.000	19.994	103.144	19.928	4.684	0.493
1048.001	609.343	79.991	19.995	103.141	19.930	4.584	0.493
1050.000	610.389	80.026	19.993	103.136	19.927	4.769	0.508
1052.000	611.416	79.994	19.994	103.140	19.931	4.510	0.491
1054.000	612.463	79.998	19.993	103.135	19.930	4.545	0.578
1056.000	613.500	80.005	19.993	103.142	19.933	4.388	0.522
1058.000	614.543	79.997	19.993	103.145	19.934	4.327	0.524
1060.000	615.581	79.988	19.993	103.142	19.933	4.388	0.509
1062.000	616.606	80.001	19.994	103.143	19.931	4.516	0.518
1064.000	617.652	79.994	19.994	103.138	19.932	4.456	0.515
1066.001	618.688	79.999	19.995	103.135	19.930	4.578	0.531
1068.000	619.731	80.006	19.994	103.130	19.932	4.459	0.535
1070.000	620.756	80.009	19.995	103.130	19.932	4.423	0.491
1072.001	621.844	80.019	19.992	103.120	19.929	4.614	0.556
1074.000	622.851	80.008	19.992	103.119	19.929	4.624	0.516
1076.000	623.871	79.995	19.995	103.124	19.930	4.543	0.518
1078.000	624.879	80.008	19.993	103.130	19.932	4.420	0.483
1080.000	625.915	80.007	19.994	103.134	19.932	4.434	0.505
1082.000	626.968	80.002	19.993	103.137	19.932	4.457	0.518
1084.000	628.023	80.003	19.992	103.141	19.933	4.381	0.535
1086.000	629.022	79.999	19.994	103.140	19.936	4.167	0.503
1088.000	630.073	80.010	19.995	103.142	19.931	4.487	0.532
1090.000	631.039	80.004	19.995	103.139	19.934	4.292	0.497
1092.000	632.083	80.008	19.993	103.138	19.933	4.342	0.474
1094.000	633.093	79.996	19.994	103.140	19.936	4.163	0.491
1096.000	634.132	80.006	19.993	103.135	19.937	4.123	0.485
1098.000	635.225	80.006	19.993	103.138	19.937	4.102	0.539
1100.001	636.180	80.009	19.995	103.141	19.931	4.478	0.490
1102.000	637.205	80.003	19.995	103.132	19.934	4.309	0.486
1104.001	638.238	79.996	19.995	103.135	19.934	4.325	0.530
1106.000	639.249	80.003	19.995	103.137	19.933	4.343	0.486
1108.000	640.284	80.000	19.994	103.140	19.933	4.364	0.507
1110.001	641.261	79.998	19.993	103.140	19.937	4.142	0.518
1112.000	642.266	80.001	19.993	103.139	19.936	4.188	0.527
1114.001	643.311	80.002	19.993	103.142	19.938	4.021	0.503
1116.000	644.283	80.001	19.993	103.141	19.933	4.350	0.484
1118.000	645.276	80.001	19.994	103.143	19.936	4.211	0.494
1120.000	646.304	80.000	19.993	103.145	19.937	4.128	0.504
1122.000	647.336	80.001	19.995	103.146	19.936	4.158	0.492
1124.000	648.377	80.004	19.993	103.141	19.937	4.116	0.497
1126.000	649.374	80.002	19.993	103.143	19.936	4.195	0.513
1128.000	650.443	80.003	19.994	103.141	19.932	4.462	0.540
1130.001	651.465	79.984	19.993	103.137	19.934	4.294	0.512
1132.000	652.487	80.001	19.994	103.133	19.935	4.259	0.511
1134.000	653.550	79.997	19.994	103.135	19.930	4.538	0.509
1136.000	654.581	79.998	19.994	103.138	19.931	4.482	0.522
1138.000	655.618	80.004	19.993	103.139	19.932	4.448	0.498
1140.000	656.641	80.010	19.993	103.142	19.930	4.555	0.508
1142.000	657.711	79.991	19.994	103.144	19.935	4.239	0.497
1144.000	658.767	80.008	19.992	103.143	19.936	4.209	0.539
1146.000	659.794	79.997	19.994	103.144	19.935	4.246	0.506
1148.000	660.851	79.988	19.995	103.138	19.934	4.327	0.512
1150.000	661.802	80.008	19.993	103.138	19.934	4.292	0.546
1152.000	662.901	79.993	19.993	103.134	19.937	4.127	0.532
1154.000	663.939	80.003	19.994	103.135	19.935	4.246	0.143
1156.000	665.017	80.005	19.995	103.133	19.936	4.175	0.471
1158.000	665.914	80.009	19.992	103.128	19.936	4.160	0.488
1160.000	666.914	79.998	19.995	103.134	19.935	4.265	0.506
1162.001	667.892	80.002	19.995	103.141	19.935	4.271	0.472
1164.000	668.897	79.998	19.994	103.135	19.932	4.432	0.467
1166.000	669.954	80.006	19.995	103.133	19.935	4.226	0.546
1168.000	670.904	80.001	19.994	103.136	19.935	4.263	0.508
1170.000	671.878	80.003	19.993	103.131	19.933	4.383	0.529
1172.000	672.902	80.005	19.994	103.136	19.932	4.445	0.506
1174.001	673.883	80.002	19.993	103.139	19.933	4.348	0.505
1176.000	674.880	80.004	19.993	103.136	19.930	4.540	0.511
1178.000	675.919	80.004	19.993	103.116	19.934	4.321	0.542
1180.000	676.880	80.004	19.991	103.124	19.932	4.465	0.485
1182.000	677.977	80.005	19.993	103.135	19.933	4.400	0.256
1184.000	678.828	80.002	19.993	103.140	19.936	4.205	0.505
1186.000	679.841	80.001	19.997	103.141	19.935	4.234	0.463
1188.000	680.880	80.000	19.994	103.137	19.933	4.350	0.523
1190.000	681.870	80.000	19.995	103.126	19.936	4.198	0.490
1192.000	682.860	80.001	19.995	103.125	19.939	3.987	0.487
1194.001	683.861	80.000	19.996	103.134	19.935	4.241	0.507
1196.000	684.909	79.995	19.995	103.137	19.937	4.105	0.538
1198.000	685.906	80.000	19.996	103.136	19.934	4.297	0.524
1200.000	686.959	80.002	19.994	103.137	19.936	4.186	0.517
1202.000	687.977	80.007	19.994	103.132	19.936	4.205	0.567
1204.000	689.020	80.009	19.994	103.134	19.933	4.360	0.531
1206.000	690.086	80.003	19.993	103.137	19.933	4.397	0.537
1208.000	691.044	80.002	19.993	103.132	19.937	4.142	0.509
1210.000	692.082	80.003	19.993	103.132	19.934	4.326	0.509
1212.001	693.129	80.002	19.994	103.135	19.936	4.183	0.509
1214.000	694.200	80.008	19.992	103.134	19.933	4.342	0.569
1216.000	695.232	80.000	19.995	103.129	19.935	4.271	0.515
1218.000	696.279	80.010	19.992	103.130	19.933	4.348	0.536
1220.000	697.362	80.003	19.995	103.129	19.930	4.562	0.525
1222.001	698.435	80.011	19.993	103.128	19.930	4.545	0.525
1224.000	699.492	79.999	19.994	103.131	19.934	4.277	0.505
1226.001	700.534	80.007	19.994	103.128	19.933	4.377	0.559
1228.000	701.581	80.002	19.995	103.137	19.931	4.520	0.572
1230.001	702.655	80.001	19.993	103.123	19.933	4.341	0.528
1232.000	703.658	80.007	19.993	103.135	19.932	4.421	0.492
1234.001	704.705	80.006	19.993	103.122	19.934	4.297	0.522
1236.000	705.750	79.999	19.994	103.121	19.931	4.520	0.514
1238.000	706.818	80.007	19.992	103.135	19.932	4.414	0.541
1240.000	707.844	80.005	19.993	103.138	19.931	4.490	0.491
1242.000	708.888	80.006	19.992	103.131	19.926	4.831	0.519
1244.001	709.997	80.012	19.992	103.126	19.932	4.455	0.557
1246.000	710.966	80.001	19.994	103.138	19.926	4.800	0.513
1248.000	712.051	80.004	19.993	103.123	19.930	4.562	0.557
1250.000	713.077	80.003	19.992	103.133	19.929	4.639	0.531
1252.000	714.092	80.003	19.994	103.130	19.931	4.495	0.513
1254.000	715.131	80.003	19.994	103.134	19.930	4.597	0.511
1256.000	716.217	80.003	19.994	103.132	19.929	4.655	0.489
1258.000	717.280	80.009	19.993	103.127	19.931	4.499	0.524
1260.001	718.233	80.005	19.993	103.127	19.929	4.604	0.470
1262.000	719.319	80.005	19.994	103.123	19.931	4.502	0.520
1264.000	720.403	80.006	19.993	103.125	19.933	4.354	0.560
1266.000	721.440	79.999	19.995	103.125	19.932	4.466	0.531
1268.000	722.459	80.002	19.993	103.128	19.928	4.691	0.513
1270.000	723.485	80.001	19.994	103.125	19.927	4.759	0.536
1272.000	724.489	80.001	19.994	103.113	19.928	4.700	0.529
1274.000	725.485	80.002	19.993	103.117	19.924	4.972	0.477
1276.000	726.509	80.001	19.995	103.113	19.925	4.896	0.513
1278.001	727.529	80.001	19.993	103.104	19.928	4.701	0.533
1280.000	728.507	80.002	19.994	103.115	19.927	4.793	0.475
1282.000	729.494	80.002	19.997	103.133	19.928	4.685	0.495
1284.000	730.524	80.000	19.994	103.134	19.930	4.563	0.525
1286.000	731.499	80.004	19.996	103.134	19.932	4.440	0.487
1288.000	732.495	80.001	19.994	103.124	19.928	4.663	0.479
1290.000	733.483	80.001	19.992	103.132	19.928	4.677	0.516
1292.000	734.446	79.999	19.994	103.124	19.928	4.698	0.461
1294.000	735.425	79.998	19.994	103.106	19.927	4.768	0.459
1296.001	736.366	80.001	19.995	103.117	19.927	4.775	0.451
1298.000	737.341	80.002	19.993	103.111	19.926	4.805	0.477
1300.000	738.339	80.002	19.993	103.123	19.928	4.708	0.497
1302.000	739.326	79.998	19.990	103.136	19.929	4.634	0.515
1304.001	740.336	80.000	19.993	103.133	19.931	4.483	0.525
1306.000	741.268	80.000	19.993	103.136	19.929	4.628	0.497
1308.000	742.307	80.003	19.992	103.133	19.928	4.696	0.488
1310.000	743.308	80.002	19.999	103.127	19.928	4.683	0.503
1310.500	743.546	79.993	19.995	103.125	19.928	4.708	0.488