File: 01_Data/Engineered_Wood_Furniture/MCC/Engineered_Wood_Furniture_MCC_30K_min_211216_R1.txt
Sample ID:	C:\MCC\MCC Cal\Test\Engineered_Wood_Furniture_MCC_30K_min_211216_R1.txt
Sample Weight (mg):	4.92
Heating Rate (C/s):	0.5
Combustor Temp (C):	900
N2 Flow Rate (cc/min):	80
O2 Flow Rate (cc/min):	20
Calibration File:	C:\MCC\MCC Cal\Coeff1 JN10440_30_210304.txt.txt
T Correction Coefficients:	0	1.024463	0
Time Shift (s):	14
*
Time (s)	Temperature (C)	N2 flow rate (cc/min)	O2 flow rate (cc/min)	Flow Rate (cc/min)	Oxygen (%)	HRR (W/g)	Heating rate (C/s)
-0.001	110.276	80.002	19.995	103.034	19.937	-0.144	0.005
2.000	110.298	80.002	19.994	103.040	19.937	-0.169	0.010
4.000	110.273	80.003	19.995	103.035	19.939	-0.308	-0.017
6.000	110.267	80.001	19.997	103.032	19.940	-0.354	0.012
8.000	110.274	80.002	19.995	103.046	19.939	-0.253	-0.003
10.000	110.301	80.002	19.995	103.058	19.939	-0.263	-0.005
12.000	110.292	80.002	19.995	103.060	19.935	-0.043	-0.011
14.000	110.264	80.003	19.995	103.077	19.933	0.109	-0.019
16.000	110.336	80.005	19.995	103.097	19.928	0.418	0.015
18.000	110.359	80.005	19.994	103.101	19.924	0.695	-0.010
20.000	110.415	80.004	19.995	103.129	19.922	0.851	0.034
22.000	110.466	80.004	19.994	103.133	19.918	1.078	0.005
24.000	110.583	80.003	19.995	103.158	19.916	1.213	0.046
26.000	110.658	80.003	19.994	103.166	19.914	1.325	0.035
28.000	110.799	80.005	19.995	103.167	19.914	1.343	0.073
30.000	110.972	80.003	19.995	103.182	19.916	1.208	0.071
32.000	111.137	80.004	19.995	103.177	19.914	1.356	0.086
33.999	111.333	80.003	19.995	103.184	19.914	1.347	0.093
36.000	111.610	80.002	19.995	103.204	19.909	1.709	0.124
37.999	111.855	80.004	19.995	103.193	19.909	1.668	0.152
39.999	112.096	80.003	19.996	103.213	19.909	1.697	0.134
41.999	112.397	80.002	19.994	103.217	19.906	1.895	0.156
43.999	112.749	80.006	19.995	103.228	19.905	1.936	0.187
46.000	113.082	80.006	19.994	103.229	19.900	2.250	0.193
47.999	113.445	80.005	19.994	103.251	19.897	2.448	0.180
49.999	113.828	80.006	19.995	103.255	19.900	2.270	0.222
51.999	114.231	80.007	19.994	103.262	19.898	2.425	0.208
54.000	114.657	80.004	19.994	103.272	19.897	2.444	0.198
55.999	115.108	80.006	19.994	103.281	19.894	2.665	0.219
57.999	115.615	80.005	19.994	103.283	19.896	2.543	0.244
59.999	116.110	80.004	19.995	103.293	19.893	2.717	0.249
61.999	116.613	80.004	19.994	103.277	19.894	2.648	0.245
63.999	117.183	80.004	19.995	103.279	19.894	2.691	0.263
65.999	117.773	80.004	19.995	103.279	19.889	2.980	0.278
67.999	118.387	80.003	19.994	103.290	19.891	2.882	0.308
69.999	118.968	80.004	19.995	103.295	19.890	2.930	0.301
71.999	119.604	80.004	19.996	103.295	19.891	2.889	0.346
73.999	120.260	80.005	19.994	103.295	19.890	2.907	0.324
76.000	120.942	80.005	19.995	103.298	19.884	3.305	0.354
77.999	121.596	80.003	19.994	103.296	19.889	2.967	0.367
79.999	122.267	80.005	19.995	103.303	19.884	3.292	0.325
81.999	123.043	80.004	19.994	103.321	19.888	3.058	0.388
83.999	123.759	80.005	19.994	103.314	19.884	3.347	0.375
85.999	124.492	80.006	19.995	103.319	19.883	3.363	0.377
87.999	125.268	80.004	19.995	103.311	19.884	3.324	0.365
89.999	126.040	80.004	19.994	103.309	19.885	3.260	0.373
92.000	126.854	80.004	19.994	103.310	19.883	3.396	0.416
93.999	127.646	80.003	19.994	103.311	19.882	3.481	0.403
96.000	128.520	80.003	19.995	103.305	19.882	3.428	0.441
97.999	129.346	80.003	19.995	103.305	19.883	3.392	0.444
99.999	130.192	80.004	19.995	103.310	19.883	3.419	0.425
101.999	131.045	80.004	19.996	103.329	19.877	3.767	0.427
103.999	131.919	80.003	19.996	103.324	19.884	3.328	0.435
105.999	132.784	80.004	19.996	103.319	19.880	3.574	0.411
107.999	133.681	80.005	19.996	103.323	19.883	3.419	0.451
109.999	134.573	80.007	19.996	103.318	19.883	3.388	0.458
111.999	135.458	80.003	19.995	103.317	19.883	3.358	0.438
113.999	136.364	80.003	19.995	103.325	19.883	3.401	0.445
115.999	137.337	80.002	19.996	103.328	19.883	3.390	0.484
117.999	138.243	80.001	19.995	103.328	19.882	3.486	0.464
119.999	139.168	80.003	19.994	103.314	19.883	3.381	0.455
122.000	140.164	80.001	19.995	103.321	19.885	3.256	0.464
124.000	141.129	80.003	19.994	103.311	19.884	3.310	0.485
125.999	142.084	80.004	19.995	103.318	19.882	3.424	0.489
127.999	143.052	80.005	19.995	103.312	19.883	3.363	0.463
130.000	144.046	80.005	19.996	103.303	19.884	3.297	0.489
132.000	145.008	80.005	19.996	103.302	19.883	3.404	0.472
134.000	146.053	80.005	19.995	103.311	19.882	3.452	0.515
136.000	146.995	80.004	19.995	103.311	19.882	3.456	0.469
138.000	148.006	80.005	19.994	103.308	19.883	3.358	0.475
140.000	149.006	80.004	19.995	103.297	19.882	3.445	0.532
142.000	149.991	80.005	19.995	103.297	19.884	3.304	0.503
144.000	151.005	80.005	19.995	103.297	19.882	3.466	0.471
146.000	151.980	80.005	19.995	103.297	19.882	3.450	0.494
148.000	153.000	80.003	19.994	103.295	19.879	3.627	0.498
150.000	153.977	80.003	19.994	103.298	19.880	3.575	0.492
152.000	154.971	80.004	19.995	103.294	19.881	3.538	0.515
154.000	155.968	80.004	19.995	103.296	19.880	3.568	0.500
156.000	156.958	80.002	19.995	103.296	19.882	3.459	0.501
158.000	157.994	80.003	19.995	103.294	19.883	3.381	0.512
160.000	158.953	80.003	19.994	103.294	19.886	3.211	0.475
162.000	159.968	80.004	19.995	103.295	19.883	3.363	0.488
164.000	160.997	80.005	19.995	103.298	19.882	3.439	0.530
166.000	162.008	80.004	19.995	103.298	19.881	3.509	0.514
168.000	163.041	80.006	19.994	103.298	19.883	3.391	0.507
170.000	164.021	80.003	19.995	103.297	19.883	3.382	0.482
172.000	165.108	80.003	19.995	103.295	19.880	3.587	0.514
174.000	166.100	80.004	19.995	103.295	19.880	3.576	0.524
176.000	167.117	80.003	19.994	103.295	19.882	3.429	0.519
178.000	168.128	80.002	19.995	103.298	19.880	3.602	0.494
180.000	169.118	80.003	19.994	103.287	19.878	3.692	0.492
182.000	170.136	80.002	19.993	103.288	19.878	3.687	0.511
184.000	171.123	80.004	19.994	103.278	19.879	3.660	0.493
186.000	172.097	80.005	19.994	103.291	19.876	3.817	0.489
188.000	173.141	80.004	19.995	103.297	19.876	3.837	0.508
190.000	174.118	80.002	19.995	103.289	19.877	3.771	0.480
192.000	175.098	80.005	19.995	103.282	19.874	3.969	0.478
194.000	176.115	80.006	19.994	103.290	19.874	3.953	0.510
196.000	177.091	80.004	19.994	103.284	19.871	4.188	0.459
198.000	178.087	80.005	19.996	103.288	19.870	4.258	0.493
200.000	179.119	80.004	19.995	103.289	19.869	4.334	0.515
202.000	180.062	80.005	19.995	103.286	19.868	4.354	0.482
204.000	181.073	80.005	19.995	103.292	19.866	4.507	0.516
206.000	182.087	80.005	19.995	103.283	19.861	4.805	0.488
208.000	183.045	80.005	19.996	103.282	19.862	4.762	0.452
210.000	184.063	80.007	19.995	103.288	19.857	5.073	0.504
212.000	185.039	80.005	19.995	103.282	19.859	4.940	0.490
214.000	186.042	80.005	19.994	103.286	19.856	5.170	0.517
216.000	187.055	80.006	19.994	103.282	19.856	5.165	0.521
218.000	188.061	80.004	19.996	103.278	19.855	5.250	0.483
220.000	189.032	80.005	19.995	103.270	19.854	5.270	0.482
222.000	189.997	80.004	19.995	103.280	19.849	5.635	0.454
224.000	190.933	80.004	19.995	103.285	19.849	5.634	0.476
226.000	191.953	80.002	19.995	103.270	19.843	6.011	0.509
228.000	192.952	80.003	19.994	103.291	19.840	6.189	0.462
230.000	193.950	80.003	19.997	103.274	19.841	6.107	0.527
232.000	194.903	80.002	19.996	103.278	19.839	6.294	0.481
234.000	195.866	80.003	19.995	103.288	19.839	6.276	0.477
236.000	196.834	80.002	19.995	103.292	19.839	6.251	0.501
238.000	197.792	80.004	19.994	103.296	19.835	6.524	0.489
240.000	198.773	80.003	19.994	103.296	19.835	6.505	0.491
242.000	199.767	80.003	19.993	103.296	19.835	6.518	0.495
244.000	200.752	80.002	19.995	103.293	19.828	6.959	0.492
246.000	201.690	80.004	19.994	103.295	19.829	6.918	0.472
248.000	202.748	80.003	19.995	103.287	19.827	7.065	0.510
250.000	203.713	80.002	19.994	103.293	19.823	7.309	0.477
252.000	204.741	80.003	19.994	103.297	19.825	7.210	0.488
254.000	205.770	80.002	19.994	103.289	19.821	7.476	0.518
256.000	206.797	80.005	19.996	103.290	19.820	7.513	0.522
258.000	207.800	80.003	19.994	103.281	19.818	7.663	0.538
260.000	208.788	80.003	19.994	103.277	19.821	7.435	0.476
262.000	209.819	80.003	19.995	103.279	19.816	7.805	0.527
264.000	210.828	80.003	19.995	103.287	19.815	7.832	0.546
266.000	211.814	80.004	19.995	103.289	19.815	7.854	0.523
268.000	212.807	80.005	19.995	103.290	19.815	7.866	0.506
270.000	213.850	80.005	19.995	103.286	19.811	8.088	0.517
272.000	214.879	80.005	19.994	103.284	19.813	8.005	0.508
274.000	215.884	80.005	19.994	103.285	19.812	8.022	0.526
276.000	216.874	80.005	19.994	103.287	19.809	8.217	0.515
278.000	217.912	80.005	19.994	103.286	19.809	8.245	0.504
280.000	218.914	80.005	19.994	103.279	19.806	8.400	0.507
282.000	219.968	80.004	19.995	103.282	19.806	8.445	0.527
284.000	220.943	80.004	19.995	103.270	19.807	8.354	0.490
286.000	221.988	80.005	19.995	103.279	19.809	8.239	0.516
288.000	223.010	80.005	19.995	103.279	19.808	8.326	0.525
290.000	224.003	80.004	19.995	103.274	19.805	8.464	0.492
292.000	224.987	80.004	19.997	103.286	19.804	8.562	0.525
294.000	226.039	80.007	19.995	103.281	19.803	8.627	0.477
296.000	227.031	80.006	19.995	103.275	19.801	8.758	0.494
298.000	228.039	80.008	19.995	103.273	19.799	8.871	0.511
300.000	229.130	80.007	19.995	103.275	19.801	8.769	0.531
302.000	230.162	80.006	19.995	103.270	19.797	9.032	0.491
304.000	231.148	80.006	19.994	103.273	19.794	9.195	0.512
306.000	232.130	80.005	19.995	103.273	19.796	9.060	0.498
308.000	233.142	80.004	19.994	103.271	19.792	9.327	0.527
310.000	234.163	80.004	19.995	103.278	19.788	9.584	0.506
312.000	235.147	80.002	19.994	103.267	19.793	9.314	0.477
314.000	236.128	80.004	19.995	103.264	19.788	9.619	0.476
316.000	237.148	80.002	19.995	103.276	19.788	9.589	0.513
318.000	238.135	80.003	19.997	103.266	19.786	9.756	0.496
320.000	239.143	80.003	19.995	103.281	19.783	9.919	0.491
322.000	240.147	80.003	19.995	103.279	19.782	9.993	0.507
324.000	241.106	80.004	19.995	103.276	19.782	9.988	0.488
326.000	242.108	80.003	19.995	103.279	19.781	10.087	0.497
328.000	243.142	80.004	19.996	103.277	19.776	10.404	0.512
330.000	244.075	80.004	19.994	103.272	19.777	10.312	0.474
332.000	245.102	80.005	19.995	103.282	19.772	10.689	0.509
334.000	246.094	80.005	19.996	103.281	19.768	10.890	0.489
336.000	247.117	80.003	19.994	103.274	19.764	11.160	0.495
338.000	248.087	80.002	19.995	103.291	19.768	10.893	0.479
340.000	249.115	80.004	19.994	103.288	19.760	11.438	0.509
342.000	250.141	80.004	19.995	103.287	19.759	11.517	0.514
344.000	251.149	80.003	19.995	103.290	19.751	12.046	0.524
346.000	252.144	80.004	19.995	103.292	19.750	12.116	0.510
348.000	253.095	80.004	19.994	103.295	19.742	12.617	0.439
350.000	254.131	80.004	19.995	103.289	19.741	12.680	0.527
352.000	255.112	80.006	19.994	103.293	19.740	12.766	0.549
354.000	256.092	80.005	19.993	103.295	19.738	12.902	0.501
356.000	257.029	80.006	19.995	103.295	19.733	13.194	0.477
358.000	258.029	80.005	19.994	103.296	19.728	13.521	0.480
360.000	259.021	80.006	19.995	103.297	19.723	13.849	0.531
362.000	260.041	80.005	19.994	103.302	19.721	14.019	0.485
364.000	261.018	80.007	19.994	103.304	19.717	14.268	0.526
366.000	262.010	80.004	19.995	103.311	19.712	14.597	0.532
368.000	263.001	80.004	19.994	103.309	19.707	14.930	0.476
370.000	263.989	80.005	19.994	103.318	19.704	15.118	0.475
372.000	264.954	80.005	19.993	103.320	19.698	15.490	0.503
374.000	265.947	80.006	19.995	103.310	19.691	15.988	0.487
376.000	266.966	80.007	19.993	103.327	19.687	16.223	0.529
378.000	267.944	80.006	19.994	103.320	19.687	16.223	0.481
380.000	268.947	80.006	19.993	103.323	19.678	16.802	0.487
382.000	269.924	80.004	19.994	103.327	19.673	17.177	0.488
384.000	270.959	80.006	19.994	103.329	19.668	17.472	0.497
386.000	271.944	80.006	19.996	103.335	19.660	17.973	0.505
388.000	272.963	80.005	19.994	103.332	19.655	18.361	0.483
390.000	273.973	80.003	19.995	103.333	19.652	18.517	0.504
392.000	274.935	80.003	19.995	103.333	19.645	18.960	0.522
394.000	275.987	80.004	19.995	103.334	19.634	19.675	0.522
396.000	276.984	80.005	19.995	103.335	19.633	19.793	0.496
398.000	277.948	80.005	19.993	103.340	19.627	20.184	0.479
400.000	278.945	80.003	19.995	103.337	19.618	20.764	0.520
402.000	279.947	80.004	19.994	103.339	19.610	21.315	0.491
404.001	280.967	80.004	19.995	103.344	19.602	21.835	0.516
406.000	281.937	80.004	19.994	103.337	19.594	22.321	0.513
408.000	282.917	80.004	19.995	103.351	19.588	22.717	0.499
410.000	284.005	80.004	19.997	103.350	19.581	23.202	0.567
412.000	284.931	80.002	19.995	103.351	19.577	23.425	0.479
414.000	285.957	80.002	19.997	103.359	19.569	24.000	0.499
416.000	286.966	80.002	19.995	103.367	19.561	24.473	0.483
418.000	287.950	80.004	19.996	103.358	19.554	24.986	0.495
420.000	288.951	80.003	19.994	103.370	19.548	25.380	0.487
422.000	289.946	80.002	19.995	103.368	19.544	25.604	0.486
424.000	290.981	80.003	19.996	103.365	19.534	26.272	0.510
426.000	292.038	80.004	19.995	103.374	19.530	26.538	0.527
428.000	293.018	80.003	19.995	103.371	19.521	27.137	0.497
430.000	294.062	80.004	19.995	103.367	19.512	27.720	0.529
432.000	295.056	80.006	19.994	103.374	19.506	28.120	0.499
434.000	296.035	80.004	19.994	103.374	19.500	28.522	0.484
436.000	297.055	80.005	19.995	103.375	19.493	28.951	0.480
438.000	298.064	80.004	19.994	103.375	19.485	29.461	0.501
440.000	299.021	80.005	19.994	103.373	19.481	29.714	0.449
442.000	300.028	80.005	19.993	103.367	19.472	30.353	0.464
444.000	301.005	80.004	19.993	103.372	19.468	30.579	0.486
446.000	301.984	80.005	19.994	103.374	19.457	31.311	0.473
448.000	302.995	80.004	19.994	103.380	19.456	31.410	0.518
450.000	303.964	80.004	19.994	103.381	19.443	32.248	0.451
452.000	304.949	80.005	19.994	103.383	19.440	32.408	0.462
454.000	305.915	80.004	19.996	103.378	19.431	33.022	0.490
456.000	306.916	80.005	19.996	103.375	19.426	33.326	0.502
458.000	307.939	80.005	19.995	103.378	19.418	33.876	0.499
460.000	308.933	80.007	19.992	103.376	19.413	34.222	0.512
462.000	309.928	80.007	19.994	103.382	19.407	34.574	0.515
464.000	310.941	80.007	19.994	103.390	19.399	35.145	0.489
466.000	311.980	80.006	19.995	103.394	19.397	35.280	0.510
468.000	312.985	80.006	19.995	103.407	19.388	35.883	0.530
470.000	313.998	80.005	19.996	103.401	19.379	36.465	0.524
472.000	315.010	80.005	19.994	103.408	19.372	36.877	0.502
474.000	315.996	80.003	19.997	103.390	19.364	37.402	0.501
476.000	317.041	80.004	19.995	103.394	19.356	37.927	0.515
478.000	318.071	80.003	19.997	103.410	19.350	38.324	0.496
480.000	319.119	80.004	19.996	103.409	19.340	39.006	0.548
482.000	320.093	80.004	19.996	103.413	19.330	39.647	0.504
484.000	321.123	80.004	19.995	103.415	19.326	39.920	0.510
486.000	322.164	80.003	19.997	103.417	19.314	40.732	0.557
488.000	323.134	80.004	19.995	103.418	19.304	41.337	0.516
490.000	324.128	80.005	19.995	103.416	19.295	41.951	0.494
492.000	325.158	80.004	19.995	103.418	19.281	42.861	0.518
494.000	326.182	80.005	19.995	103.418	19.268	43.717	0.489
496.000	327.215	80.004	19.995	103.431	19.258	44.416	0.506
498.000	328.277	80.004	19.995	103.429	19.248	45.070	0.531
500.000	329.251	80.004	19.994	103.436	19.238	45.689	0.486
502.000	330.308	80.005	19.996	103.450	19.223	46.719	0.544
504.000	331.291	80.002	19.997	103.452	19.210	47.553	0.506
506.000	332.295	80.002	19.995	103.449	19.197	48.421	0.494
508.000	333.293	80.002	19.995	103.457	19.185	49.222	0.487
510.000	334.344	80.002	19.996	103.456	19.172	50.058	0.562
512.000	335.388	80.002	19.995	103.464	19.154	51.222	0.512
514.000	336.388	80.003	19.996	103.467	19.147	51.725	0.539
516.000	337.396	80.004	19.997	103.481	19.135	52.477	0.474
518.000	338.375	80.005	19.996	103.485	19.118	53.610	0.483
520.000	339.433	80.005	19.997	103.478	19.110	54.150	0.537
522.000	340.434	80.006	19.995	103.487	19.094	55.175	0.504
524.000	341.379	80.006	19.992	103.484	19.078	56.259	0.511
526.000	342.367	80.005	19.993	103.489	19.067	56.990	0.488
528.000	343.457	80.005	19.994	103.493	19.053	57.891	0.487
530.000	344.564	80.004	19.997	103.500	19.047	58.276	0.476
532.000	345.197	80.004	19.995	103.498	19.036	58.996	0.439
534.000	346.588	80.003	19.995	103.507	19.021	59.962	0.418
536.000	347.525	80.004	19.994	103.507	19.012	60.571	0.575
538.000	348.518	80.005	19.995	103.510	19.006	60.979	0.509
540.000	349.479	80.006	19.995	103.502	18.996	61.601	0.500
542.000	350.496	80.006	19.995	103.499	18.991	61.899	0.480
544.000	351.494	80.007	19.994	103.506	18.985	62.330	0.485
546.000	352.502	80.005	19.994	103.494	18.985	62.314	0.481
548.000	353.612	80.006	19.995	103.494	18.988	62.095	0.496
550.000	354.563	80.005	19.993	103.487	18.984	62.349	0.508
552.000	355.580	80.005	19.994	103.483	18.992	61.833	0.523
554.000	356.606	80.006	19.996	103.464	18.996	61.584	0.505
556.000	357.602	80.003	19.995	103.457	19.010	60.654	0.527
558.000	358.572	80.005	19.994	103.454	19.022	59.809	0.520
560.000	359.574	80.003	19.995	103.443	19.036	58.876	0.477
562.000	360.643	80.004	19.995	103.429	19.057	57.510	0.512
564.000	361.609	80.004	19.990	103.416	19.081	55.958	0.506
566.000	362.598	80.004	19.995	103.399	19.108	54.197	0.497
568.000	363.589	80.005	19.995	103.382	19.134	52.436	0.474
570.000	364.586	80.004	19.993	103.371	19.164	50.474	0.531
572.000	365.637	80.004	19.993	103.348	19.197	48.325	0.505
574.000	366.617	80.003	19.995	103.336	19.234	45.852	0.497
576.000	367.659	80.004	19.994	103.331	19.274	43.265	0.510
578.000	368.627	80.003	19.994	103.308	19.312	40.736	0.488
580.000	369.635	80.003	19.997	103.294	19.352	38.139	0.484
582.000	370.673	80.003	19.996	103.268	19.392	35.509	0.531
584.000	371.679	80.004	19.994	103.258	19.431	32.970	0.477
586.000	372.662	80.004	19.997	103.243	19.471	30.370	0.506
588.000	373.682	80.004	19.995	103.224	19.507	28.008	0.490
590.000	374.727	80.003	19.996	103.217	19.546	25.459	0.517
592.000	375.710	80.003	19.995	103.219	19.576	23.468	0.498
594.000	376.724	80.004	19.993	103.217	19.607	21.457	0.489
596.000	377.742	80.003	19.995	103.203	19.635	19.614	0.497
598.000	378.819	80.005	19.995	103.196	19.663	17.785	0.538
600.000	379.830	80.005	19.995	103.187	19.682	16.543	0.529
602.000	380.807	80.005	19.996	103.183	19.703	15.172	0.500
604.000	381.821	80.006	19.995	103.181	19.716	14.309	0.470
606.000	382.819	80.005	19.996	103.189	19.734	13.123	0.481
608.000	383.827	80.006	19.993	103.177	19.741	12.645	0.489
610.000	384.872	80.005	19.995	103.182	19.750	12.072	0.558
612.000	385.878	80.005	19.994	103.185	19.756	11.693	0.501
614.000	386.890	80.004	19.995	103.178	19.768	10.911	0.505
616.000	387.898	80.004	19.994	103.180	19.773	10.553	0.521
618.000	388.886	80.004	19.992	103.181	19.777	10.302	0.509
620.000	389.891	80.006	19.996	103.178	19.781	10.084	0.475
622.000	390.941	80.005	19.993	103.182	19.783	9.912	0.517
624.000	391.915	80.005	19.995	103.181	19.786	9.716	0.504
626.000	392.930	80.006	19.994	103.182	19.789	9.544	0.505
628.000	393.942	80.006	19.995	103.183	19.790	9.443	0.506
630.000	395.009	80.006	19.994	103.187	19.792	9.321	0.516
632.000	396.028	80.005	19.994	103.185	19.793	9.246	0.507
634.000	397.029	80.005	19.992	103.181	19.797	9.011	0.495
636.000	398.026	80.003	19.995	103.187	19.797	8.996	0.489
638.000	399.050	80.003	19.995	103.187	19.799	8.849	0.504
640.000	400.054	80.004	19.993	103.183	19.798	8.968	0.497
642.000	401.058	80.003	19.994	103.189	19.800	8.793	0.504
644.000	402.023	80.004	19.993	103.183	19.802	8.683	0.519
646.000	403.048	80.004	19.996	103.184	19.801	8.761	0.497
648.000	404.043	80.004	19.994	103.186	19.805	8.506	0.517
650.000	405.089	80.004	19.994	103.186	19.805	8.485	0.510
652.000	406.057	80.006	19.995	103.180	19.805	8.504	0.508
654.000	407.071	80.006	19.994	103.179	19.804	8.551	0.520
656.000	408.088	80.005	19.993	103.180	19.807	8.328	0.520
658.000	409.092	80.004	19.993	103.184	19.808	8.269	0.493
660.000	410.123	80.003	19.993	103.180	19.809	8.259	0.551
662.000	411.130	80.005	19.995	103.179	19.807	8.340	0.522
664.000	412.123	80.005	19.993	103.177	19.812	7.999	0.499
666.000	413.117	80.003	19.994	103.177	19.811	8.097	0.497
668.000	414.094	80.003	19.995	103.179	19.815	7.845	0.502
670.000	415.133	80.004	19.996	103.180	19.815	7.851	0.523
672.000	416.069	80.003	19.995	103.179	19.815	7.863	0.486
674.000	417.098	80.003	19.993	103.176	19.818	7.619	0.508
676.000	418.131	80.004	19.994	103.181	19.818	7.617	0.524
678.000	419.160	80.003	19.993	103.176	19.821	7.415	0.487
680.000	420.198	80.004	19.994	103.178	19.820	7.500	0.529
682.000	421.199	80.004	19.994	103.175	19.825	7.197	0.512
684.000	422.195	80.005	19.995	103.177	19.825	7.201	0.490
686.000	423.211	80.005	19.994	103.179	19.826	7.126	0.476
688.000	424.234	80.005	19.994	103.178	19.821	7.439	0.535
690.000	425.230	80.004	19.995	103.179	19.824	7.215	0.511
692.000	426.242	80.005	19.995	103.178	19.827	7.031	0.498
694.000	427.278	80.003	19.995	103.180	19.828	6.976	0.515
696.000	428.312	80.004	19.995	103.185	19.828	6.998	0.537
698.000	429.298	80.004	19.994	103.177	19.828	7.001	0.484
700.000	430.282	80.004	19.997	103.178	19.829	6.935	0.488
702.000	431.290	80.003	19.996	103.179	19.832	6.743	0.469
704.000	432.353	80.004	19.995	103.177	19.835	6.540	0.538
706.000	433.377	80.005	19.993	103.182	19.831	6.775	0.502
708.000	434.447	80.006	19.994	103.183	19.832	6.727	0.551
710.000	435.410	80.006	19.997	103.180	19.833	6.640	0.496
712.000	436.409	80.006	19.996	103.180	19.837	6.365	0.504
714.000	437.422	80.006	19.993	103.176	19.834	6.593	0.467
716.000	438.461	80.006	19.994	103.177	19.834	6.579	0.502
718.000	439.548	80.004	19.994	103.176	19.836	6.447	0.536
720.000	440.499	80.005	19.995	103.176	19.838	6.305	0.484
722.000	441.529	80.002	19.994	103.176	19.833	6.629	0.495
724.000	442.586	80.003	19.994	103.178	19.835	6.524	0.510
726.000	443.557	80.004	19.995	103.177	19.839	6.258	0.516
728.000	444.582	80.003	19.995	103.175	19.839	6.296	0.502
730.000	445.613	80.003	19.995	103.178	19.839	6.237	0.500
732.000	446.660	80.004	19.993	103.174	19.841	6.123	0.523
734.000	447.638	80.004	19.993	103.175	19.839	6.271	0.512
736.000	448.626	80.005	19.995	103.171	19.842	6.050	0.502
738.000	449.685	80.004	19.994	103.170	19.841	6.164	0.503
740.000	450.705	80.005	19.995	103.176	19.843	5.993	0.532
742.000	451.718	80.005	19.995	103.175	19.844	5.959	0.498
744.000	452.743	80.004	19.994	103.168	19.846	5.831	0.528
746.000	453.771	80.004	19.996	103.176	19.847	5.747	0.515
748.000	454.794	80.003	19.994	103.176	19.844	5.911	0.494
750.000	455.825	80.003	19.993	103.169	19.848	5.665	0.513
752.000	456.871	80.004	19.995	103.171	19.845	5.895	0.517
754.000	457.864	80.003	19.994	103.179	19.849	5.640	0.472
756.000	458.920	80.004	19.994	103.180	19.849	5.589	0.503
758.000	459.956	80.004	19.994	103.175	19.850	5.541	0.518
760.000	460.950	80.005	19.994	103.181	19.851	5.446	0.508
762.000	461.991	80.005	19.994	103.173	19.852	5.380	0.527
764.000	463.008	80.004	19.995	103.173	19.854	5.306	0.552
766.000	464.029	80.004	19.993	103.178	19.854	5.265	0.492
768.000	465.002	80.005	19.995	103.178	19.856	5.119	0.504
770.000	466.025	80.004	19.996	103.174	19.856	5.156	0.532
772.000	466.995	80.004	19.993	103.177	19.861	4.832	0.478
774.000	468.060	80.005	19.996	103.172	19.862	4.748	0.556
776.000	469.048	80.004	19.995	103.175	19.861	4.792	0.492
778.000	470.036	80.005	19.994	103.177	19.859	4.947	0.525
780.000	471.078	80.005	19.994	103.175	19.859	4.935	0.506
782.000	472.030	80.006	19.994	103.176	19.861	4.819	0.474
784.000	473.153	80.004	19.994	103.174	19.861	4.807	0.530
786.000	474.164	80.006	19.995	103.169	19.865	4.534	0.520
788.000	475.198	80.005	19.998	103.165	19.866	4.487	0.521
790.000	476.283	80.005	19.994	103.171	19.864	4.600	0.541
792.000	477.337	80.005	19.995	103.169	19.868	4.333	0.534
794.000	478.320	80.006	19.994	103.163	19.867	4.450	0.518
796.000	479.361	80.006	19.995	103.166	19.870	4.210	0.524
798.000	480.344	80.007	19.995	103.151	19.870	4.238	0.529
800.000	481.367	80.005	19.995	103.159	19.873	4.018	0.544
802.000	482.404	80.003	19.996	103.171	19.873	4.060	0.523
804.000	483.473	80.003	19.995	103.166	19.874	3.989	0.562
806.000	484.410	80.005	19.995	103.162	19.872	4.114	0.515
808.000	485.464	80.003	19.995	103.165	19.879	3.654	0.451
810.000	486.479	80.004	19.995	103.165	19.875	3.909	0.496
812.000	487.546	80.004	19.996	103.172	19.876	3.813	0.515
814.000	488.527	80.005	19.994	103.176	19.875	3.875	0.487
816.000	489.544	80.004	19.996	103.178	19.872	4.082	0.522
818.000	490.582	80.004	19.994	103.170	19.876	3.818	0.534
820.000	491.642	80.005	19.993	103.162	19.878	3.733	0.549
822.000	492.605	80.005	19.996	103.172	19.877	3.781	0.516
824.000	493.674	80.005	19.994	103.172	19.878	3.717	0.482
826.000	494.706	80.004	19.994	103.179	19.876	3.834	0.522
828.000	495.750	80.004	19.994	103.172	19.877	3.786	0.551
830.000	496.776	80.006	19.995	103.178	19.878	3.729	0.500
832.000	497.735	80.005	19.995	103.173	19.881	3.490	0.522
834.000	498.766	80.004	19.994	103.178	19.882	3.467	0.496
836.000	499.789	80.004	19.995	103.178	19.880	3.590	0.510
838.000	500.816	80.003	19.994	103.170	19.879	3.674	0.502
840.000	501.846	80.004	19.993	103.159	19.880	3.583	0.524
842.000	502.839	80.004	19.993	103.171	19.880	3.602	0.500
844.000	503.861	80.006	19.994	103.158	19.880	3.608	0.510
846.000	504.897	80.005	19.995	103.159	19.880	3.581	0.531
848.000	505.919	80.005	19.993	103.177	19.881	3.535	0.517
850.000	506.951	80.006	19.995	103.165	19.882	3.425	0.510
852.000	507.972	80.006	19.995	103.169	19.880	3.560	0.497
854.000	509.033	80.006	19.994	103.164	19.881	3.483	0.510
856.000	510.030	80.007	19.994	103.172	19.883	3.380	0.499
858.000	511.053	80.006	19.995	103.169	19.885	3.275	0.484
860.000	512.121	80.006	19.994	103.167	19.884	3.316	0.519
862.000	513.172	80.005	19.995	103.166	19.882	3.471	0.525
864.000	514.212	80.007	19.995	103.156	19.887	3.152	0.528
866.000	515.224	80.006	19.996	103.162	19.888	3.057	0.485
868.000	516.300	80.005	19.996	103.163	19.884	3.301	0.527
870.000	517.295	80.007	19.994	103.164	19.883	3.374	0.472
872.000	518.328	80.008	19.994	103.163	19.885	3.278	0.507
874.000	519.402	80.006	19.995	103.151	19.881	3.535	0.523
876.000	520.388	80.008	19.994	103.164	19.883	3.360	0.509
878.000	521.422	80.007	19.995	103.161	19.885	3.230	0.503
880.000	522.483	80.006	19.994	103.153	19.886	3.218	0.481
882.000	523.482	80.007	19.995	103.166	19.888	3.032	0.523
884.000	524.468	80.005	19.994	103.166	19.888	3.066	0.476
886.000	525.504	80.002	19.995	103.158	19.889	3.006	0.498
888.000	526.513	80.004	19.996	103.151	19.886	3.165	0.499
890.000	527.560	80.005	19.996	103.167	19.886	3.193	0.509
892.000	528.593	80.004	19.996	103.161	19.887	3.116	0.531
894.000	529.651	80.003	19.994	103.159	19.889	2.990	0.524
896.000	530.639	80.003	19.996	103.156	19.883	3.377	0.513
898.000	531.676	80.004	19.995	103.162	19.887	3.103	0.510
900.000	532.699	80.004	19.994	103.164	19.887	3.107	0.520
902.000	533.725	80.004	19.995	103.163	19.886	3.161	0.545
904.000	534.735	80.003	19.995	103.161	19.882	3.434	0.520
906.000	535.761	80.004	19.993	103.162	19.884	3.328	0.532
908.000	536.819	80.004	19.993	103.178	19.885	3.278	0.515
910.000	537.806	80.003	19.994	103.167	19.886	3.175	0.511
912.000	538.855	80.005	19.994	103.156	19.885	3.225	0.520
914.000	539.908	80.004	19.995	103.164	19.888	3.042	0.531
916.000	540.928	80.004	19.995	103.168	19.889	3.006	0.522
918.000	541.931	80.005	19.994	103.160	19.887	3.138	0.492
920.000	542.954	80.005	19.994	103.166	19.891	2.879	0.503
922.000	543.978	80.003	19.995	103.167	19.887	3.112	0.509
924.000	544.969	80.004	19.994	103.165	19.891	2.851	0.489
926.000	545.967	80.003	19.995	103.164	19.889	2.970	0.489
928.000	547.030	80.002	19.994	103.166	19.891	2.876	0.520
930.000	548.089	80.005	19.993	103.163	19.888	3.084	0.505
932.000	549.074	80.006	19.994	103.156	19.887	3.148	0.497
934.000	550.106	80.006	19.995	103.147	19.886	3.187	0.531
936.000	551.173	80.005	19.994	103.160	19.889	3.018	0.535
938.000	552.119	80.007	19.996	103.160	19.887	3.139	0.493
940.000	553.195	80.005	19.994	103.162	19.890	2.909	0.512
942.000	554.220	80.005	19.994	103.161	19.890	2.947	0.519
944.000	555.243	80.006	19.994	103.156	19.888	3.050	0.512
946.000	556.232	80.006	19.995	103.148	19.891	2.858	0.506
948.000	557.228	80.005	19.993	103.168	19.888	3.038	0.511
950.000	558.257	80.008	19.994	103.151	19.887	3.125	0.494
952.000	559.231	80.006	19.994	103.153	19.890	2.944	0.491
954.000	560.281	80.007	19.996	103.154	19.888	3.041	0.540
956.000	561.276	80.005	19.994	103.160	19.889	3.020	0.503
958.000	562.315	80.008	19.995	103.174	19.889	2.977	0.506
960.000	563.314	80.006	19.994	103.168	19.893	2.743	0.499
962.000	564.300	80.007	19.995	103.172	19.887	3.100	0.501
964.000	565.333	80.006	19.994	103.158	19.889	3.022	0.535
966.000	566.354	80.005	19.994	103.161	19.889	3.004	0.510
968.000	567.391	80.006	19.993	103.149	19.889	3.005	0.538
970.000	568.376	80.005	19.994	103.160	19.891	2.888	0.478
972.000	569.405	80.005	19.994	103.170	19.891	2.865	0.504
974.000	570.411	80.004	19.994	103.156	19.891	2.876	0.513
976.000	571.399	80.005	19.994	103.152	19.888	3.032	0.485
978.000	572.454	80.006	19.995	103.143	19.885	3.225	0.529
980.000	573.441	80.003	19.995	103.143	19.891	2.846	0.506
982.000	574.526	80.005	19.995	103.143	19.890	2.944	0.529
984.000	575.537	80.005	19.995	103.152	19.893	2.762	0.529
986.000	576.579	80.004	19.995	103.159	19.891	2.871	0.504
988.000	577.609	80.004	19.996	103.154	19.890	2.925	0.504
990.000	578.636	80.005	19.996	103.169	19.888	3.054	0.521
992.000	579.655	80.003	19.995	103.162	19.892	2.799	0.514
994.000	580.709	80.003	19.996	103.166	19.890	2.942	0.523
996.000	581.758	80.004	19.995	103.166	19.890	2.956	0.518
998.000	582.815	80.003	19.995	103.159	19.892	2.812	0.518
1000.000	583.836	80.004	19.995	103.151	19.889	3.017	0.499
1002.000	584.880	80.005	19.994	103.166	19.894	2.635	0.524
1004.000	585.880	80.005	19.995	103.154	19.888	3.043	0.467
1006.000	586.974	80.004	19.993	103.155	19.890	2.900	0.546
1008.000	588.010	80.004	19.995	103.165	19.891	2.885	0.523
1010.000	589.050	80.005	19.996	103.173	19.889	2.963	0.526
1012.000	590.100	80.005	19.994	103.154	19.887	3.130	0.489
1014.000	591.082	80.005	19.995	103.164	19.891	2.867	0.506
1016.000	592.162	80.006	19.994	103.149	19.889	2.964	0.556
1018.000	593.157	80.006	19.994	103.151	19.886	3.158	0.505
1020.000	594.229	80.004	19.993	103.160	19.890	2.932	0.516
1022.000	595.251	80.005	19.994	103.154	19.889	2.989	0.534
1024.000	596.270	80.005	19.995	103.144	19.889	3.004	0.529
1025.999	597.297	80.005	19.994	103.147	19.889	3.009	0.500
1027.999	598.343	80.004	19.995	103.142	19.894	2.666	0.514
1029.999	599.336	80.005	19.995	103.148	19.888	3.038	0.491
1031.999	600.372	80.004	19.994	103.146	19.889	3.005	0.514
1033.999	601.444	80.003	19.993	103.145	19.889	2.989	0.527
1035.999	602.439	80.005	19.994	103.144	19.888	3.037	0.505
1037.999	603.493	80.007	19.992	103.144	19.884	3.317	0.521
1039.999	604.492	80.005	19.993	103.155	19.887	3.103	0.511
1042.000	605.499	80.007	19.994	103.146	19.887	3.126	0.509
1043.999	606.520	80.007	19.994	103.145	19.888	3.048	0.498
1045.999	607.503	80.006	19.995	103.144	19.888	3.073	0.502
1047.999	608.541	80.005	19.994	103.136	19.892	2.809	0.518
1049.999	609.529	80.004	19.995	103.137	19.891	2.852	0.504
1052.000	610.499	80.004	19.994	103.139	19.887	3.114	0.477
1053.999	611.517	80.004	19.995	103.142	19.892	2.792	0.484
1055.999	612.489	80.003	19.995	103.141	19.889	3.011	0.495
1057.999	613.489	80.003	19.994	103.140	19.890	2.936	0.517
1060.000	614.521	80.004	19.994	103.142	19.892	2.820	0.530
1061.999	615.477	80.004	19.995	103.147	19.891	2.888	0.514
1063.999	616.480	80.004	19.995	103.140	19.890	2.941	0.509
1065.999	617.467	80.005	19.995	103.136	19.888	3.039	0.488
1068.000	618.467	80.003	19.995	103.147	19.891	2.868	0.498
1069.999	619.473	80.002	19.995	103.157	19.891	2.856	0.498
1071.999	620.496	80.003	19.995	103.154	19.886	3.176	0.508
1073.999	621.485	80.004	19.994	103.137	19.891	2.875	0.525
1075.999	622.445	80.002	19.994	103.152	19.889	2.988	0.484
1077.999	623.439	80.002	19.994	103.147	19.890	2.931	0.449
1079.999	624.446	80.002	19.996	103.142	19.888	3.064	0.501
1082.000	625.496	80.003	19.995	103.141	19.887	3.105	0.536
1083.999	626.432	80.003	19.994	103.142	19.890	2.895	0.492
1085.999	627.459	80.003	19.995	103.151	19.888	3.037	0.515
1087.999	628.421	80.004	19.996	103.151	19.892	2.825	0.481
1089.999	629.388	80.004	19.995	103.149	19.891	2.861	0.494
1091.999	630.380	80.005	19.996	103.142	19.887	3.091	0.495
1093.999	631.373	80.004	19.994	103.142	19.887	3.103	0.484
1095.999	632.396	80.005	19.994	103.143	19.890	2.911	0.514
1097.999	633.388	80.005	19.993	103.139	19.889	3.020	0.493
1099.999	634.431	80.006	19.992	103.141	19.888	3.068	0.490
1102.000	635.396	80.006	19.994	103.143	19.891	2.834	0.507
1103.999	636.445	80.006	19.995	103.142	19.885	3.278	0.493
1105.999	637.449	80.006	19.994	103.142	19.885	3.280	0.511
1107.999	638.480	80.005	19.995	103.145	19.887	3.105	0.514
1109.999	639.445	80.005	19.993	103.140	19.888	3.077	0.476
1112.000	640.462	80.007	19.994	103.146	19.889	3.011	0.507
1113.999	641.444	80.005	19.994	103.143	19.890	2.952	0.490
1116.000	642.474	80.004	19.995	103.142	19.888	3.043	0.521
1117.999	643.491	80.007	19.994	103.152	19.887	3.122	0.495
1119.999	644.519	80.006	19.994	103.144	19.887	3.095	0.506
1121.999	645.459	80.006	19.995	103.140	19.890	2.925	0.464
1123.999	646.529	80.008	19.993	103.147	19.890	2.936	0.524
1125.999	647.529	80.003	19.994	103.145	19.887	3.109	0.499
1127.999	648.575	80.007	19.995	103.152	19.888	3.032	0.512
1129.999	649.513	80.006	19.993	103.150	19.888	3.071	0.488
1131.999	650.585	80.004	19.994	103.155	19.887	3.151	0.508
1133.999	651.578	80.003	19.994	103.140	19.890	2.924	0.499
1135.999	652.549	80.004	19.994	103.145	19.889	2.961	0.502
1137.999	653.579	80.006	19.995	103.150	19.894	2.688	0.521
1139.999	654.596	80.006	19.995	103.153	19.889	2.991	0.498
1141.999	655.668	80.002	19.996	103.141	19.890	2.957	0.563
1143.999	656.622	80.004	19.995	103.151	19.888	3.064	0.492
1145.999	657.676	80.005	19.995	103.149	19.887	3.098	0.509
1148.001	658.672	80.005	19.994	103.147	19.886	3.180	0.504
1150.000	659.729	80.002	19.996	103.146	19.889	2.989	0.497
1152.000	660.778	80.004	19.996	103.152	19.886	3.180	0.494
1154.000	661.782	80.003	19.995	103.142	19.885	3.269	0.521
1156.000	662.805	80.003	19.994	103.145	19.888	3.064	0.502
1158.000	663.841	80.004	19.994	103.146	19.885	3.228	0.500
1160.000	664.875	80.004	19.995	103.140	19.884	3.298	0.512
1162.000	665.905	80.003	19.995	103.142	19.887	3.145	0.510
1164.000	666.960	80.002	19.995	103.142	19.889	2.966	0.531
1166.000	667.956	80.003	19.995	103.142	19.890	2.927	0.502
1168.000	669.033	80.003	19.994	103.145	19.890	2.902	0.534
1170.000	670.052	80.002	19.995	103.146	19.890	2.936	0.495
1172.000	671.097	80.003	19.995	103.157	19.887	3.148	0.547
1174.000	672.148	80.004	19.994	103.148	19.885	3.221	0.544
1176.000	673.170	80.005	19.996	103.145	19.893	2.751	0.544
1178.000	674.280	80.004	19.996	103.145	19.889	2.986	0.538
1180.000	675.331	80.007	19.996	103.137	19.889	3.021	0.509
1182.000	676.413	80.005	19.995	103.141	19.889	3.014	0.524
1184.000	677.454	80.006	19.996	103.138	19.888	3.087	0.526
1186.000	678.502	80.005	19.995	103.137	19.887	3.146	0.531
1188.000	679.550	80.005	19.994	103.136	19.881	3.486	0.519
1190.000	680.646	80.006	19.997	103.138	19.881	3.523	0.548
1192.000	681.674	80.006	19.995	103.138	19.890	2.929	0.506
1194.000	682.772	80.005	19.995	103.137	19.891	2.829	0.546
1196.000	683.853	80.008	19.993	103.138	19.888	3.044	0.564
1198.000	684.918	80.006	19.995	103.137	19.889	2.993	0.532
1200.000	685.952	80.005	19.994	103.137	19.887	3.128	0.541
1202.000	686.960	80.005	19.993	103.136	19.887	3.130	0.560
1204.000	688.090	80.005	19.993	103.137	19.888	3.076	0.520
1206.000	689.167	80.007	19.995	103.135	19.885	3.238	0.510
1208.000	690.242	80.007	19.995	103.135	19.891	2.863	0.554
1210.000	691.313	80.006	19.993	103.133	19.887	3.133	0.525
1212.000	692.299	80.006	19.994	103.138	19.886	3.198	0.483
1214.000	693.378	80.004	19.996	103.138	19.889	2.971	0.516
1216.000	694.442	80.005	19.994	103.139	19.886	3.192	0.548
1218.000	695.463	80.004	19.994	103.137	19.890	2.907	0.510
1220.000	696.530	80.004	19.993	103.136	19.888	3.080	0.525
1222.000	697.585	80.004	19.995	103.140	19.890	2.907	0.530
1224.000	698.619	80.003	19.995	103.141	19.888	3.075	0.496
1226.000	699.666	80.006	19.993	103.140	19.883	3.374	0.532
1228.000	700.704	80.005	19.994	103.141	19.887	3.101	0.541
1230.000	701.752	80.005	19.993	103.139	19.893	2.715	0.501
1232.000	702.780	80.005	19.994	103.141	19.887	3.105	0.523
1234.000	703.834	80.005	19.994	103.140	19.888	3.062	0.524
1236.000	704.824	80.005	19.994	103.141	19.892	2.790	0.515
1238.000	705.908	80.004	19.994	103.140	19.886	3.164	0.526
1240.000	706.896	80.003	19.993	103.138	19.885	3.253	0.521
1242.000	707.892	80.005	19.995	103.139	19.885	3.233	0.488
1244.000	708.972	80.005	19.995	103.138	19.884	3.329	0.536
1246.000	709.967	80.004	19.995	103.138	19.886	3.176	0.483
1248.000	711.013	80.002	19.995	103.137	19.885	3.249	0.519
1250.000	712.008	80.004	19.996	103.138	19.885	3.254	0.514
1252.000	713.025	80.004	19.996	103.142	19.886	3.206	0.516
1254.000	714.013	80.006	19.996	103.137	19.891	2.889	0.471
1256.000	715.051	80.005	19.994	103.134	19.886	3.158	0.520
1258.000	716.091	80.005	19.996	103.123	19.890	2.927	0.541
1260.000	717.062	80.004	19.995	103.130	19.888	3.080	0.494
1262.000	718.066	80.006	19.995	103.138	19.886	3.156	0.472
1264.000	719.132	80.006	19.994	103.136	19.889	2.962	0.522
1266.000	720.140	80.007	19.995	103.135	19.887	3.098	0.523
1268.000	721.164	80.006	19.996	103.135	19.887	3.125	0.541
1270.000	722.156	80.005	19.996	103.135	19.885	3.253	0.492
1272.000	723.196	80.004	19.996	103.135	19.887	3.101	0.505
1274.000	724.167	80.005	19.996	103.135	19.890	2.905	0.478
1276.000	725.141	80.005	19.995	103.137	19.890	2.900	0.477
1278.000	726.186	80.004	19.998	103.138	19.887	3.125	0.486
1280.000	727.184	80.005	19.995	103.144	19.886	3.164	0.514
1282.000	728.199	80.005	19.996	103.138	19.886	3.219	0.510
1284.000	729.217	80.005	19.994	103.136	19.886	3.196	0.541
1286.000	730.201	80.006	19.995	103.138	19.891	2.889	0.489
1288.000	731.213	80.007	19.994	103.140	19.889	3.023	0.502
1290.000	732.188	80.006	19.994	103.141	19.889	2.998	0.514
1292.000	733.233	80.005	19.994	103.140	19.888	3.057	0.506
1294.000	734.161	80.004	19.993	103.139	19.888	3.062	0.501
1296.000	735.162	80.001	19.993	103.140	19.886	3.192	0.477
1298.000	736.115	80.005	19.994	103.137	19.885	3.244	0.466
1300.000	737.097	80.006	19.995	103.140	19.886	3.199	0.490
1302.000	738.108	80.003	19.994	103.134	19.884	3.336	0.502
1304.000	739.071	80.001	19.994	103.136	19.882	3.450	0.483
1306.000	740.060	80.005	19.994	103.141	19.883	3.413	0.467
1308.000	741.017	80.003	19.993	103.140	19.883	3.373	0.493
1310.001	741.963	80.003	19.996	103.138	19.887	3.096	0.452
1312.000	742.962	80.006	19.995	103.140	19.881	3.535	0.490
1313.500	743.647	80.005	19.995	103.134	19.883	3.404	0.450