File: 01_Data/Engineered_Wood_Furniture/MCC/Engineered_Wood_Furniture_MCC_30K_min_211216_R2.txt
Sample ID:	C:\MCC\MCC Cal\Test\Engineered_Wood_Furniture_MCC_30K_min_211216_R2.txt
Sample Weight (mg):	4.54
Heating Rate (C/s):	0.5
Combustor Temp (C):	900
N2 Flow Rate (cc/min):	80
O2 Flow Rate (cc/min):	20
Calibration File:	C:\MCC\MCC Cal\Coeff1 JN10440_30_210304.txt.txt
T Correction Coefficients:	0	1.024463	0
Time Shift (s):	14
*
Time (s)	Temperature (C)	N2 flow rate (cc/min)	O2 flow rate (cc/min)	Flow Rate (cc/min)	Oxygen (%)	HRR (W/g)	Heating rate (C/s)
0.000	111.582	80.003	19.995	103.062	19.972	0.114	-0.007
2.000	111.610	80.002	19.994	103.063	19.972	0.085	0.018
4.000	111.545	80.002	19.995	103.068	19.972	0.131	-0.007
6.000	111.618	80.002	19.995	103.069	19.970	0.264	0.048
8.000	111.558	80.001	19.994	103.076	19.971	0.187	-0.009
10.000	111.545	80.002	19.995	103.087	19.967	0.492	-0.002
12.000	111.593	80.003	19.994	103.094	19.962	0.812	0.021
14.000	111.607	80.003	19.996	103.102	19.963	0.735	0.017
16.000	111.608	80.003	19.994	103.121	19.959	1.033	0.020
18.000	111.633	80.004	19.995	103.137	19.957	1.152	-0.009
20.000	111.754	80.005	19.995	103.154	19.955	1.341	0.045
22.000	111.777	80.003	19.995	103.160	19.953	1.475	0.034
24.000	111.906	80.003	19.995	103.141	19.950	1.663	0.037
26.000	111.974	80.004	19.994	103.169	19.949	1.724	0.062
28.000	112.112	80.003	19.995	103.176	19.951	1.593	0.073
30.000	112.281	80.004	19.994	103.177	19.947	1.924	0.094
32.000	112.423	80.003	19.994	103.192	19.943	2.159	0.076
33.999	112.633	80.004	19.995	103.231	19.941	2.317	0.107
35.999	112.859	80.004	19.994	103.222	19.939	2.497	0.132
37.999	113.041	80.005	19.994	103.230	19.932	2.964	0.104
39.999	113.323	80.005	19.995	103.254	19.931	3.024	0.145
41.999	113.642	80.004	19.995	103.264	19.929	3.167	0.130
43.999	113.995	80.006	19.994	103.189	19.929	3.173	0.173
45.999	114.304	80.004	19.994	103.302	19.929	3.163	0.183
47.999	114.694	80.003	19.994	103.292	19.930	3.106	0.203
50.000	115.054	80.001	19.995	103.273	19.925	3.471	0.179
51.999	115.456	80.002	19.995	103.285	19.924	3.552	0.206
53.999	115.924	80.003	19.994	103.293	19.924	3.539	0.242
55.999	116.387	80.002	19.994	103.298	19.922	3.676	0.236
57.999	116.884	80.003	19.993	103.308	19.923	3.610	0.238
59.999	117.392	80.004	19.993	103.314	19.924	3.539	0.284
61.999	117.985	80.002	19.994	103.315	19.920	3.833	0.262
63.999	118.503	80.003	19.994	103.325	19.918	3.978	0.274
65.999	119.078	80.003	19.993	103.320	19.918	3.933	0.285
68.000	119.680	80.003	19.994	103.319	19.919	3.870	0.259
69.999	120.302	80.002	19.994	103.304	19.915	4.154	0.293
72.000	120.988	80.003	19.993	103.323	19.915	4.196	0.365
73.999	121.659	80.002	19.994	103.321	19.913	4.316	0.359
76.000	122.335	80.003	19.993	103.327	19.915	4.152	0.309
78.000	123.044	80.003	19.993	103.328	19.916	4.109	0.388
79.999	123.735	80.001	19.995	103.334	19.913	4.326	0.360
81.999	124.488	80.002	19.995	103.330	19.917	4.009	0.385
83.999	125.197	80.002	19.995	103.332	19.916	4.102	0.357
85.999	125.970	80.002	19.994	103.333	19.916	4.065	0.432
88.000	126.754	80.003	19.994	103.327	19.916	4.061	0.382
89.999	127.519	80.003	19.993	103.325	19.913	4.341	0.393
91.999	128.293	80.005	19.993	103.332	19.912	4.355	0.372
93.999	129.107	80.005	19.994	103.333	19.913	4.336	0.421
95.999	129.965	80.004	19.994	103.333	19.910	4.535	0.429
97.999	130.774	80.004	19.994	103.332	19.910	4.533	0.392
99.999	131.649	80.006	19.993	103.328	19.908	4.664	0.411
101.999	132.477	80.004	19.995	103.331	19.909	4.579	0.430
104.000	133.327	80.005	19.994	103.328	19.910	4.523	0.419
105.999	134.214	80.004	19.995	103.330	19.907	4.724	0.450
107.999	135.069	80.004	19.995	103.332	19.908	4.678	0.452
109.999	135.955	80.003	19.994	103.330	19.910	4.502	0.432
112.000	136.859	80.005	19.996	103.331	19.910	4.544	0.449
113.999	137.804	80.005	19.995	103.331	19.911	4.457	0.469
115.999	138.707	80.004	19.993	103.332	19.911	4.448	0.478
117.999	139.634	80.005	19.993	103.334	19.908	4.659	0.464
119.999	140.608	80.005	19.993	103.333	19.910	4.513	0.485
121.999	141.547	80.006	19.995	103.330	19.904	4.921	0.464
123.999	142.479	80.005	19.995	103.330	19.906	4.788	0.466
125.999	143.455	80.003	19.995	103.331	19.908	4.678	0.467
127.999	144.457	80.003	19.994	103.332	19.906	4.806	0.516
130.000	145.421	80.002	19.995	103.332	19.909	4.587	0.459
132.000	146.387	80.001	19.994	103.329	19.905	4.863	0.457
134.000	147.347	80.003	19.996	103.331	19.908	4.688	0.466
136.000	148.331	80.003	19.995	103.322	19.910	4.527	0.490
138.000	149.322	80.002	19.998	103.335	19.910	4.552	0.491
140.000	150.336	80.002	19.996	103.336	19.907	4.705	0.496
142.000	151.311	80.003	19.994	103.323	19.909	4.587	0.485
144.000	152.330	80.002	19.994	103.331	19.910	4.520	0.509
146.000	153.305	80.003	19.994	103.332	19.912	4.350	0.473
148.000	154.268	80.003	19.994	103.325	19.912	4.372	0.465
150.000	155.335	80.003	19.993	103.332	19.909	4.565	0.509
152.000	156.314	80.002	19.995	103.325	19.910	4.511	0.516
154.000	157.331	80.002	19.995	103.313	19.909	4.595	0.529
156.000	158.311	80.004	19.993	103.316	19.909	4.563	0.487
158.000	159.295	80.004	19.994	103.317	19.906	4.785	0.472
160.000	160.342	80.002	19.994	103.319	19.906	4.792	0.526
162.000	161.349	80.004	19.994	103.315	19.907	4.712	0.539
164.000	162.369	80.001	19.994	103.312	19.907	4.764	0.510
166.000	163.354	80.002	19.995	103.305	19.907	4.760	0.493
168.000	164.409	80.004	19.993	103.315	19.907	4.700	0.533
170.000	165.426	80.002	19.995	103.308	19.906	4.811	0.490
172.000	166.451	80.004	19.994	103.301	19.904	4.968	0.512
174.000	167.436	80.005	19.995	103.314	19.901	5.125	0.517
176.000	168.437	80.004	19.994	103.304	19.902	5.067	0.524
178.000	169.456	80.005	19.993	103.307	19.903	5.044	0.538
180.000	170.456	80.004	19.993	103.303	19.901	5.156	0.558
182.000	171.437	80.004	19.993	103.299	19.899	5.310	0.505
184.000	172.477	80.004	19.993	103.304	19.902	5.075	0.533
186.000	173.444	80.004	19.993	103.302	19.903	5.003	0.488
188.000	174.462	80.004	19.993	103.319	19.899	5.322	0.487
190.000	175.497	80.004	19.994	103.314	19.897	5.467	0.509
192.000	176.446	80.003	19.993	103.303	19.895	5.586	0.482
194.000	177.453	80.004	19.994	103.303	19.893	5.701	0.528
196.000	178.447	80.004	19.995	103.313	19.892	5.832	0.495
198.000	179.470	80.004	19.995	103.304	19.895	5.577	0.455
200.000	180.436	80.005	19.993	103.299	19.890	5.975	0.480
202.000	181.459	80.004	19.994	103.299	19.891	5.890	0.496
204.000	182.460	80.005	19.994	103.305	19.887	6.160	0.475
206.000	183.465	80.005	19.993	103.304	19.882	6.479	0.503
208.000	184.429	80.003	19.993	103.297	19.883	6.462	0.480
210.000	185.385	80.004	19.993	103.302	19.883	6.425	0.497
212.000	186.444	80.003	19.994	103.305	19.881	6.550	0.537
214.000	187.449	80.003	19.994	103.299	19.878	6.787	0.469
216.000	188.414	80.004	19.995	103.296	19.875	6.974	0.473
218.000	189.407	80.002	19.995	103.297	19.873	7.152	0.499
220.000	190.395	80.002	19.994	103.296	19.873	7.133	0.521
222.000	191.383	80.003	19.996	103.295	19.871	7.306	0.494
224.000	192.351	80.002	19.995	103.298	19.870	7.347	0.478
226.000	193.358	80.004	19.995	103.297	19.869	7.439	0.485
228.000	194.336	80.003	19.996	103.292	19.864	7.799	0.477
230.000	195.323	80.002	19.994	103.307	19.867	7.554	0.483
232.000	196.299	80.002	19.995	103.298	19.865	7.710	0.507
234.000	197.273	80.003	19.995	103.297	19.862	7.905	0.490
236.000	198.241	80.003	19.994	103.294	19.863	7.830	0.483
238.000	199.239	80.003	19.994	103.293	19.859	8.168	0.486
240.000	200.202	80.003	19.994	103.299	19.863	7.872	0.507
242.000	201.226	80.003	19.995	103.296	19.856	8.374	0.498
244.000	202.206	80.005	19.993	103.295	19.855	8.437	0.478
246.000	203.189	80.003	19.994	103.297	19.858	8.224	0.509
248.000	204.191	80.003	19.993	103.298	19.852	8.618	0.528
250.000	205.192	80.004	19.994	103.298	19.855	8.460	0.512
252.000	206.160	80.003	19.993	103.295	19.853	8.545	0.514
254.000	207.186	80.005	19.994	103.298	19.850	8.804	0.516
256.000	208.132	80.005	19.993	103.298	19.851	8.715	0.478
258.000	209.117	80.005	19.995	103.297	19.850	8.810	0.522
260.000	210.111	80.004	19.995	103.296	19.848	8.900	0.492
262.000	211.066	80.004	19.994	103.296	19.848	8.896	0.475
264.000	212.091	80.003	19.994	103.297	19.847	9.026	0.479
266.000	213.075	80.003	19.994	103.297	19.851	8.718	0.501
268.000	214.060	80.003	19.994	103.298	19.845	9.128	0.496
270.000	215.094	80.004	19.993	103.298	19.845	9.099	0.506
272.000	216.015	80.005	19.993	103.297	19.843	9.267	0.455
274.000	217.018	80.005	19.994	103.296	19.843	9.254	0.488
276.000	218.037	80.005	19.993	103.294	19.843	9.269	0.502
278.000	219.031	80.006	19.993	103.291	19.844	9.222	0.499
280.000	220.026	80.005	19.992	103.291	19.845	9.126	0.514
282.000	221.015	80.006	19.994	103.289	19.843	9.280	0.478
284.000	221.968	80.007	19.994	103.293	19.843	9.296	0.491
286.000	222.969	80.006	19.993	103.293	19.840	9.505	0.509
288.000	223.961	80.005	19.994	103.292	19.837	9.711	0.513
290.000	224.957	80.004	19.994	103.291	19.839	9.590	0.485
292.000	225.979	80.003	19.995	103.292	19.839	9.534	0.485
294.000	226.965	80.004	19.993	103.287	19.836	9.791	0.513
296.000	227.956	80.002	19.995	103.288	19.834	9.893	0.504
298.000	229.006	80.003	19.994	103.292	19.830	10.200	0.528
300.000	229.992	80.003	19.994	103.290	19.830	10.224	0.519
302.000	231.002	80.003	19.994	103.294	19.830	10.168	0.483
304.000	232.013	80.002	19.994	103.294	19.829	10.280	0.494
306.000	233.035	80.003	19.994	103.293	19.828	10.334	0.527
308.000	233.962	80.004	19.993	103.294	19.828	10.328	0.488
310.000	234.981	80.003	19.995	103.294	19.827	10.411	0.505
312.000	235.969	80.002	19.994	103.296	19.827	10.413	0.494
314.000	236.983	80.003	19.994	103.295	19.826	10.469	0.494
316.000	237.973	80.002	19.994	103.296	19.823	10.686	0.508
318.000	238.988	80.003	19.995	103.297	19.819	10.968	0.499
320.000	239.981	80.002	19.995	103.296	19.819	10.993	0.515
322.000	240.975	80.001	19.996	103.294	19.819	11.009	0.513
324.000	241.975	80.001	19.994	103.296	19.813	11.378	0.523
326.000	242.956	80.002	19.996	103.298	19.814	11.325	0.491
328.000	243.980	80.003	19.995	103.297	19.816	11.209	0.494
330.000	244.971	80.003	19.994	103.299	19.811	11.530	0.498
332.000	245.979	80.003	19.994	103.300	19.805	11.949	0.490
334.000	246.954	80.003	19.993	103.300	19.803	12.084	0.513
336.000	247.927	80.005	19.993	103.297	19.799	12.409	0.486
338.000	248.905	80.004	19.995	103.297	19.796	12.587	0.488
340.000	249.961	80.005	19.993	103.295	19.794	12.738	0.500
342.000	251.009	80.005	19.994	103.293	19.791	12.999	0.519
344.000	251.952	80.004	19.993	103.293	19.787	13.268	0.493
346.000	252.989	80.005	19.995	103.292	19.786	13.293	0.494
348.000	253.962	80.004	19.994	103.292	19.783	13.505	0.483
350.000	254.949	80.004	19.994	103.295	19.778	13.904	0.534
352.000	255.935	80.005	19.993	103.295	19.779	13.835	0.503
354.000	256.952	80.005	19.994	103.297	19.771	14.419	0.518
356.000	257.930	80.004	19.994	103.302	19.769	14.564	0.524
358.000	258.976	80.004	19.995	103.309	19.766	14.722	0.526
360.000	259.950	80.005	19.995	103.305	19.760	15.143	0.481
362.000	260.951	80.006	19.993	103.311	19.757	15.381	0.504
364.000	261.917	80.006	19.994	103.316	19.753	15.646	0.508
366.000	262.892	80.006	19.994	103.311	19.749	15.990	0.485
368.000	263.944	80.005	19.994	103.314	19.745	16.267	0.499
370.000	264.950	80.007	19.993	103.312	19.740	16.566	0.494
372.000	265.935	80.004	19.993	103.321	19.735	16.960	0.501
374.000	266.921	80.004	19.994	103.327	19.730	17.286	0.492
376.000	267.933	80.003	19.993	103.333	19.727	17.536	0.472
378.000	268.971	80.003	19.993	103.331	19.725	17.695	0.496
380.000	269.998	80.004	19.995	103.318	19.713	18.522	0.510
382.000	271.014	80.003	19.995	103.330	19.713	18.532	0.527
384.000	272.048	80.004	19.994	103.329	19.706	19.019	0.514
386.000	273.051	80.004	19.996	103.329	19.699	19.487	0.507
388.000	274.046	80.003	19.995	103.334	19.691	20.087	0.494
390.000	275.036	80.003	19.994	103.335	19.684	20.601	0.495
392.000	276.072	80.003	19.994	103.335	19.684	20.601	0.477
394.000	277.062	80.004	19.993	103.335	19.675	21.240	0.479
396.000	278.087	80.004	19.995	103.336	19.668	21.716	0.494
398.000	279.113	80.002	19.994	103.338	19.657	22.462	0.528
400.000	280.087	80.003	19.995	103.337	19.650	22.997	0.484
402.000	281.134	80.003	19.994	103.336	19.644	23.434	0.503
404.000	282.078	80.002	19.995	103.337	19.644	23.436	0.481
406.000	283.111	80.003	19.994	103.333	19.635	24.054	0.503
408.000	284.102	80.003	19.995	103.338	19.632	24.275	0.512
410.000	285.071	80.003	19.996	103.339	19.623	24.889	0.470
412.000	286.073	80.004	19.994	103.342	19.611	25.733	0.477
414.000	287.093	80.003	19.996	103.341	19.608	25.954	0.506
416.000	288.074	80.004	19.994	103.347	19.600	26.529	0.500
418.000	289.112	80.006	19.994	103.339	19.593	27.058	0.533
420.000	290.097	80.004	19.994	103.340	19.591	27.202	0.458
422.000	291.128	80.005	19.994	103.349	19.586	27.531	0.514
424.000	292.154	80.006	19.994	103.364	19.578	28.127	0.504
426.000	293.163	80.003	19.995	103.349	19.572	28.505	0.494
428.000	294.119	80.004	19.993	103.364	19.565	29.001	0.487
430.000	295.161	80.004	19.994	103.362	19.562	29.250	0.513
432.000	296.131	80.003	19.994	103.359	19.553	29.874	0.497
434.000	297.166	80.004	19.994	103.366	19.545	30.455	0.521
436.000	298.163	80.005	19.995	103.364	19.540	30.817	0.487
438.000	299.186	80.005	19.994	103.368	19.532	31.378	0.512
440.000	300.177	80.005	19.993	103.370	19.528	31.632	0.535
442.000	301.186	80.005	19.994	103.370	19.520	32.209	0.499
444.000	302.222	80.006	19.994	103.374	19.516	32.516	0.497
446.000	303.208	80.006	19.993	103.374	19.509	33.037	0.506
448.000	304.174	80.005	19.994	103.376	19.501	33.615	0.495
450.000	305.215	80.004	19.994	103.374	19.496	33.905	0.501
452.000	306.214	80.005	19.994	103.376	19.489	34.432	0.499
454.000	307.230	80.003	19.992	103.374	19.482	34.904	0.501
456.000	308.181	80.003	19.993	103.374	19.480	35.099	0.487
458.000	309.232	80.003	19.994	103.376	19.471	35.715	0.485
460.000	310.208	80.003	19.993	103.377	19.463	36.293	0.475
462.000	311.238	80.003	19.993	103.377	19.457	36.684	0.528
464.000	312.249	80.002	19.994	103.387	19.448	37.339	0.493
466.000	313.232	80.003	19.993	103.384	19.443	37.717	0.487
468.000	314.277	80.003	19.994	103.376	19.437	38.167	0.492
470.000	315.305	80.004	19.993	103.375	19.428	38.795	0.498
472.000	316.271	80.003	19.995	103.379	19.420	39.362	0.497
474.000	317.313	80.004	19.995	103.383	19.418	39.473	0.505
476.000	318.349	80.004	19.994	103.383	19.407	40.256	0.491
478.000	319.322	80.003	19.994	103.385	19.398	40.910	0.504
480.000	320.325	80.004	19.995	103.395	19.392	41.356	0.497
482.000	321.333	80.002	19.995	103.406	19.386	41.785	0.504
484.000	322.353	80.001	19.996	103.404	19.379	42.272	0.509
486.000	323.354	80.003	19.995	103.409	19.366	43.161	0.505
488.000	324.396	80.003	19.994	103.410	19.360	43.602	0.507
490.000	325.412	80.003	19.994	103.413	19.346	44.589	0.507
492.000	326.398	80.002	19.994	103.417	19.340	45.017	0.460
494.000	327.410	80.004	19.996	103.424	19.328	45.916	0.509
496.000	328.419	80.003	19.994	103.439	19.318	46.617	0.495
498.000	329.439	80.002	19.994	103.434	19.307	47.411	0.497
500.000	330.470	80.004	19.993	103.436	19.294	48.326	0.482
502.000	331.457	80.002	19.995	103.443	19.281	49.241	0.499
504.000	332.497	80.003	19.996	103.449	19.266	50.332	0.536
506.000	333.500	80.004	19.995	103.450	19.255	51.136	0.523
508.000	334.535	80.004	19.995	103.452	19.244	51.907	0.531
510.000	335.535	80.003	19.996	103.452	19.231	52.846	0.510
512.000	336.541	80.004	19.995	103.463	19.216	53.918	0.523
514.000	337.543	80.003	19.995	103.467	19.202	54.911	0.480
516.000	338.567	80.003	19.996	103.481	19.189	55.804	0.523
518.000	339.511	80.004	19.994	103.477	19.177	56.678	0.503
520.000	340.553	80.003	19.994	103.484	19.162	57.745	0.507
522.000	341.592	80.004	19.994	103.492	19.151	58.538	0.533
524.000	342.540	80.006	19.993	103.489	19.139	59.353	0.493
526.000	343.544	80.005	19.993	103.489	19.130	59.972	0.484
528.000	344.507	80.006	19.994	103.490	19.114	61.105	0.486
530.000	345.531	80.006	19.994	103.490	19.104	61.827	0.471
532.000	346.511	80.005	19.993	103.490	19.094	62.540	0.481
534.000	347.586	80.005	19.994	103.489	19.085	63.220	0.523
536.000	348.548	80.003	19.993	103.489	19.075	63.904	0.503
538.000	349.599	80.004	19.994	103.489	19.068	64.437	0.511
540.000	350.618	80.004	19.995	103.490	19.066	64.548	0.520
542.000	351.589	80.004	19.994	103.489	19.062	64.842	0.472
544.000	352.610	80.003	19.993	103.490	19.063	64.767	0.508
546.000	353.655	80.003	19.995	103.488	19.067	64.471	0.511
548.000	354.677	80.003	19.994	103.477	19.069	64.304	0.492
550.000	355.634	80.002	19.994	103.468	19.074	63.914	0.486
552.000	356.624	80.004	19.993	103.457	19.087	63.024	0.489
554.000	357.690	80.004	19.994	103.447	19.101	61.996	0.528
556.000	358.727	80.003	19.994	103.430	19.119	60.728	0.563
558.000	359.749	80.004	19.994	103.419	19.137	59.432	0.537
560.000	360.724	80.004	19.994	103.412	19.164	57.511	0.516
562.000	361.774	80.004	19.992	103.387	19.190	55.613	0.513
564.000	362.777	80.003	19.992	103.371	19.220	53.532	0.496
566.000	363.833	80.003	19.994	103.364	19.253	51.122	0.533
568.000	364.812	80.001	19.996	103.341	19.289	48.595	0.493
570.000	365.904	80.002	19.994	103.325	19.326	45.960	0.563
572.000	366.950	80.003	19.996	103.307	19.364	43.240	0.525
574.000	367.876	80.002	19.996	103.298	19.399	40.754	0.530
576.000	368.932	80.004	19.994	103.284	19.439	37.899	0.510
578.000	369.933	80.003	19.995	103.266	19.479	35.080	0.515
580.000	370.928	80.005	19.994	103.258	19.518	32.302	0.507
582.000	371.949	80.004	19.995	103.257	19.559	29.404	0.523
584.000	372.969	80.006	19.995	103.235	19.594	26.948	0.513
586.000	374.038	80.005	19.994	103.220	19.626	24.645	0.517
588.000	375.061	80.004	19.994	103.220	19.658	22.387	0.543
590.000	376.040	80.003	19.994	103.227	19.682	20.661	0.510
592.000	377.055	80.003	19.994	103.218	19.709	18.759	0.527
594.000	378.041	80.004	19.994	103.216	19.731	17.216	0.485
596.000	379.073	80.005	19.994	103.216	19.751	15.784	0.499
598.000	380.089	80.004	19.995	103.214	19.767	14.658	0.483
600.000	381.074	80.003	19.996	103.215	19.782	13.611	0.507
602.000	382.099	80.004	19.995	103.211	19.792	12.887	0.511
604.000	383.112	80.005	19.995	103.213	19.799	12.409	0.492
606.000	384.125	80.006	19.994	103.210	19.808	11.761	0.532
608.000	385.146	80.006	19.995	103.213	19.811	11.570	0.540
610.000	386.093	80.007	19.994	103.213	19.816	11.178	0.488
612.000	387.070	80.006	19.992	103.207	19.823	10.717	0.487
614.000	388.171	80.004	19.995	103.211	19.826	10.491	0.531
616.000	389.132	80.005	19.994	103.211	19.828	10.360	0.536
618.000	390.142	80.002	19.996	103.204	19.830	10.192	0.493
620.000	391.206	80.003	19.995	103.207	19.830	10.180	0.512
622.000	392.199	80.004	19.995	103.206	19.833	9.994	0.574
624.000	393.160	80.004	19.995	103.209	19.838	9.590	0.475
626.000	394.159	80.004	19.994	103.212	19.834	9.901	0.512
628.000	395.289	80.004	19.994	103.209	19.842	9.321	0.563
630.000	396.210	80.003	19.994	103.210	19.843	9.302	0.458
632.000	397.195	80.003	19.994	103.205	19.839	9.571	0.490
634.000	398.230	80.002	19.994	103.205	19.843	9.274	0.517
636.000	399.225	80.003	19.994	103.213	19.848	8.926	0.482
638.000	400.262	80.003	19.994	103.206	19.848	8.919	0.500
640.000	401.259	80.003	19.994	103.205	19.849	8.831	0.490
642.000	402.230	80.004	19.993	103.217	19.848	8.934	0.496
644.000	403.244	80.004	19.994	103.215	19.854	8.490	0.514
646.000	404.221	80.003	19.993	103.213	19.851	8.711	0.489
648.000	405.237	80.003	19.994	103.206	19.851	8.693	0.511
650.000	406.227	80.002	19.994	103.211	19.855	8.448	0.450
652.000	407.309	80.003	19.993	103.207	19.852	8.599	0.568
654.000	408.276	80.003	19.995	103.194	19.852	8.624	0.496
656.000	409.330	80.002	19.992	103.201	19.853	8.570	0.550
658.000	410.312	80.004	19.994	103.211	19.854	8.456	0.497
660.000	411.312	80.005	19.995	103.196	19.854	8.454	0.532
662.000	412.238	80.005	19.994	103.204	19.857	8.283	0.471
664.000	413.237	80.005	19.995	103.204	19.861	7.960	0.482
666.000	414.211	80.006	19.996	103.208	19.857	8.256	0.490
668.000	415.194	80.005	19.995	103.205	19.858	8.200	0.522
670.000	416.215	80.006	19.995	103.189	19.862	7.889	0.503
672.000	417.195	80.004	19.994	103.180	19.861	7.995	0.504
674.000	418.204	80.004	19.994	103.197	19.861	7.970	0.514
676.000	419.193	80.004	19.994	103.203	19.860	8.053	0.494
678.000	420.162	80.004	19.994	103.186	19.863	7.860	0.482
680.000	421.215	80.005	19.994	103.210	19.865	7.687	0.515
682.000	422.205	80.005	19.994	103.208	19.868	7.486	0.513
684.000	423.239	80.005	19.992	103.198	19.868	7.497	0.514
686.000	424.215	80.005	19.993	103.197	19.866	7.656	0.506
688.000	425.213	80.006	19.996	103.185	19.866	7.611	0.456
690.000	426.246	80.007	19.993	103.189	19.869	7.439	0.492
692.000	427.301	80.005	19.994	103.203	19.871	7.292	0.532
694.000	428.307	80.005	19.994	103.182	19.869	7.407	0.500
696.000	429.321	80.004	19.994	103.193	19.871	7.313	0.510
698.000	430.385	80.003	19.995	103.198	19.873	7.135	0.519
700.000	431.342	80.003	19.994	103.187	19.873	7.139	0.516
702.000	432.343	80.003	19.994	103.196	19.871	7.298	0.511
704.000	433.409	80.004	19.994	103.192	19.873	7.130	0.523
706.000	434.401	80.004	19.994	103.199	19.870	7.331	0.507
708.000	435.486	80.004	19.994	103.203	19.869	7.409	0.496
710.000	436.509	80.002	19.994	103.198	19.868	7.484	0.520
712.000	437.500	80.003	19.994	103.204	19.872	7.233	0.514
714.000	438.537	80.003	19.994	103.205	19.875	7.020	0.516
716.000	439.508	80.001	19.994	103.201	19.874	7.076	0.493
718.000	440.589	80.005	19.995	103.201	19.874	7.061	0.487
720.000	441.584	80.003	19.995	103.191	19.879	6.698	0.522
722.000	442.545	80.003	19.994	103.190	19.877	6.832	0.486
724.000	443.572	80.003	19.994	103.195	19.872	7.218	0.490
726.000	444.625	80.003	19.994	103.183	19.880	6.634	0.529
728.000	445.668	80.003	19.995	103.179	19.885	6.284	0.450
730.000	446.712	80.003	19.994	103.188	19.875	7.007	0.500
732.000	447.761	80.002	19.994	103.197	19.881	6.555	0.473
734.000	448.747	80.003	19.995	103.203	19.877	6.835	0.524
736.000	449.805	80.004	19.994	103.191	19.884	6.335	0.570
738.000	450.595	80.003	19.994	103.193	19.883	6.436	0.474
740.000	452.093	80.006	19.994	103.202	19.883	6.413	0.370
742.000	453.423	80.005	19.993	103.179	19.882	6.524	1.019
744.000	453.811	80.005	19.993	103.184	19.882	6.488	0.445
746.000	455.030	80.005	19.993	103.188	19.885	6.263	0.566
748.000	455.988	80.004	19.994	103.197	19.884	6.358	0.602
750.000	457.075	80.005	19.995	103.188	19.886	6.212	0.538
752.000	458.029	80.005	19.993	103.194	19.886	6.197	0.574
754.000	459.130	80.004	19.995	103.187	19.886	6.203	0.572
756.000	460.128	80.004	19.994	103.183	19.887	6.114	0.530
758.000	461.167	80.004	19.995	103.182	19.890	5.935	0.537
760.000	462.261	80.003	19.994	103.187	19.890	5.948	0.521
762.000	463.258	80.003	19.995	103.196	19.889	5.980	0.507
764.000	464.312	80.004	19.994	103.212	19.890	5.940	0.535
766.000	465.386	80.005	19.994	103.206	19.893	5.719	0.572
768.000	466.433	80.004	19.994	103.208	19.892	5.801	0.532
770.000	467.521	80.006	19.995	103.202	19.894	5.631	0.561
772.000	468.573	80.006	19.994	103.185	19.891	5.834	0.532
774.000	469.620	80.004	19.993	103.192	19.895	5.600	0.560
776.000	470.670	80.005	19.993	103.197	19.897	5.442	0.516
778.000	471.737	80.001	19.995	103.190	19.895	5.610	0.498
780.000	472.772	80.002	19.993	103.201	19.895	5.585	0.505
782.000	473.884	80.002	19.994	103.187	19.900	5.202	0.566
784.000	474.913	80.002	19.996	103.189	19.900	5.204	0.539
786.000	475.955	80.002	19.995	103.189	19.897	5.402	0.505
788.000	477.004	80.003	19.995	103.195	19.897	5.436	0.506
790.000	478.087	80.002	19.995	103.199	19.897	5.439	0.542
792.000	479.109	80.002	19.994	103.187	19.900	5.225	0.514
794.000	480.205	80.003	19.995	103.181	19.903	4.994	0.543
796.000	481.245	80.003	19.994	103.182	19.907	4.700	0.532
798.000	482.297	80.004	19.995	103.181	19.909	4.569	0.521
800.000	483.313	80.004	19.994	103.190	19.907	4.731	0.490
802.000	484.374	80.002	19.994	103.180	19.908	4.650	0.437
804.000	485.417	80.003	19.993	103.191	19.910	4.515	0.572
806.000	486.443	80.003	19.994	103.187	19.911	4.414	0.500
808.000	487.452	80.003	19.994	103.186	19.912	4.372	0.526
810.000	488.534	80.002	19.994	103.186	19.916	4.082	0.516
812.000	489.546	80.003	19.995	103.201	19.910	4.501	0.527
814.000	490.529	80.004	19.995	103.186	19.914	4.252	0.497
816.000	491.596	80.002	19.994	103.185	19.916	4.121	0.476
818.000	492.628	80.002	19.994	103.178	19.913	4.318	0.505
820.000	493.658	80.002	19.995	103.187	19.914	4.206	0.515
822.000	494.643	80.003	19.994	103.185	19.916	4.114	0.517
824.000	495.714	80.004	19.993	103.178	19.912	4.378	0.514
826.000	496.713	80.004	19.994	103.184	19.912	4.357	0.491
828.000	497.721	80.004	19.994	103.188	19.915	4.177	0.524
830.000	498.712	80.004	19.994	103.183	19.913	4.300	0.470
832.000	499.737	80.004	19.993	103.193	19.913	4.331	0.495
834.000	500.748	80.003	19.994	103.192	19.917	4.034	0.533
836.000	501.779	80.004	19.993	103.185	19.916	4.102	0.492
838.000	502.750	80.004	19.994	103.181	19.917	4.044	0.488
840.000	503.811	80.004	19.994	103.181	19.915	4.160	0.554
842.000	504.797	80.003	19.993	103.180	19.916	4.086	0.525
844.000	505.752	80.005	19.995	103.182	19.915	4.164	0.478
846.000	506.785	80.004	19.993	103.181	19.918	3.947	0.479
848.000	507.816	80.004	19.994	103.179	19.916	4.076	0.516
850.000	508.807	80.004	19.995	103.183	19.915	4.182	0.470
852.000	509.871	80.005	19.994	103.182	19.918	3.935	0.514
854.000	510.852	80.005	19.995	103.187	19.916	4.123	0.523
856.000	511.875	80.004	19.994	103.181	19.923	3.621	0.532
858.000	512.863	80.004	19.996	103.176	19.921	3.731	0.490
860.000	513.891	80.003	19.995	103.173	19.919	3.901	0.523
862.000	514.922	80.003	19.994	103.175	19.915	4.136	0.526
864.000	515.932	80.003	19.994	103.173	19.917	4.042	0.510
866.000	516.948	80.003	19.996	103.178	19.919	3.905	0.496
868.000	517.941	80.003	19.994	103.177	19.920	3.833	0.493
870.000	519.032	80.002	19.995	103.181	19.919	3.904	0.504
872.000	520.065	80.002	19.995	103.179	19.919	3.891	0.479
874.000	521.064	80.003	19.995	103.176	19.919	3.891	0.486
876.000	522.101	80.003	19.995	103.177	19.918	3.934	0.533
878.000	523.102	80.003	19.995	103.174	19.918	3.978	0.533
880.000	524.142	80.003	19.995	103.167	19.917	4.003	0.528
882.000	525.194	80.002	19.996	103.176	19.922	3.673	0.534
884.000	526.196	80.002	19.995	103.175	19.921	3.700	0.511
886.000	527.200	80.002	19.995	103.178	19.920	3.835	0.498
888.000	528.214	80.003	19.995	103.178	19.921	3.762	0.495
890.000	529.298	80.001	19.995	103.179	19.920	3.818	0.519
892.000	530.286	80.003	19.995	103.180	19.925	3.449	0.485
894.000	531.350	80.002	19.994	103.181	19.924	3.532	0.526
896.000	532.400	80.002	19.995	103.181	19.922	3.685	0.496
898.000	533.423	80.002	19.994	103.181	19.918	3.961	0.514
900.000	534.457	80.003	19.996	103.179	19.917	3.993	0.536
902.000	535.477	80.003	19.996	103.179	19.924	3.540	0.519
904.000	536.518	80.004	19.994	103.180	19.919	3.876	0.525
906.000	537.581	80.006	19.995	103.180	19.925	3.449	0.513
908.000	538.575	80.004	19.994	103.180	19.926	3.391	0.502
910.000	539.596	80.004	19.995	103.181	19.924	3.549	0.514
912.000	540.587	80.003	19.993	103.179	19.920	3.814	0.448
914.000	541.607	80.005	19.995	103.178	19.923	3.575	0.507
916.000	542.668	80.004	19.996	103.183	19.922	3.673	0.512
918.000	543.686	80.006	19.995	103.182	19.921	3.748	0.506
920.000	544.657	80.004	19.994	103.176	19.924	3.536	0.507
922.000	545.667	80.003	19.994	103.174	19.926	3.405	0.493
924.000	546.728	80.004	19.994	103.176	19.925	3.459	0.528
926.000	547.709	80.006	19.994	103.178	19.923	3.588	0.476
928.000	548.725	80.006	19.995	103.178	19.926	3.387	0.509
930.000	549.747	80.006	19.995	103.178	19.923	3.584	0.503
932.000	550.786	80.006	19.993	103.178	19.926	3.351	0.525
934.000	551.880	80.006	19.993	103.171	19.923	3.586	0.512
936.000	552.881	80.006	19.994	103.174	19.924	3.522	0.493
938.000	553.906	80.004	19.994	103.174	19.922	3.634	0.520
940.000	554.980	80.002	19.994	103.175	19.921	3.746	0.535
942.000	555.999	80.003	19.995	103.177	19.923	3.580	0.504
944.000	557.027	80.003	19.994	103.176	19.920	3.791	0.530
946.000	558.091	80.003	19.995	103.177	19.919	3.878	0.513
948.000	559.158	80.003	19.995	103.176	19.923	3.609	0.560
950.000	560.194	80.002	19.994	103.178	19.923	3.611	0.503
952.000	561.240	80.004	19.994	103.178	19.923	3.584	0.505
954.000	562.290	80.004	19.995	103.175	19.923	3.569	0.535
956.000	563.339	80.004	19.995	103.179	19.925	3.466	0.541
958.000	564.346	80.003	19.993	103.181	19.920	3.808	0.483
960.000	565.375	80.004	19.994	103.180	19.923	3.627	0.521
962.000	566.424	80.003	19.995	103.180	19.923	3.592	0.527
964.000	567.508	80.005	19.994	103.179	19.922	3.698	0.525
966.000	568.526	80.002	19.996	103.178	19.922	3.675	0.532
968.000	569.569	80.003	19.994	103.169	19.922	3.634	0.525
970.000	570.585	80.001	19.994	103.175	19.922	3.638	0.509
972.000	571.598	80.002	19.993	103.176	19.924	3.499	0.517
974.000	572.676	80.002	19.995	103.174	19.924	3.534	0.549
976.000	573.735	80.001	19.995	103.164	19.924	3.534	0.511
978.000	574.811	80.003	19.996	103.177	19.920	3.789	0.552
980.000	575.815	80.002	19.995	103.180	19.925	3.463	0.537
982.000	576.835	80.003	19.995	103.178	19.923	3.578	0.501
984.000	577.819	80.004	19.994	103.175	19.924	3.541	0.480
986.000	578.847	80.004	19.994	103.178	19.926	3.391	0.489
988.000	579.888	80.005	19.993	103.176	19.921	3.708	0.527
990.000	580.904	80.006	19.994	103.174	19.922	3.632	0.507
992.000	581.922	80.006	19.993	103.175	19.919	3.889	0.524
994.000	582.913	80.003	19.994	103.163	19.917	3.997	0.492
996.000	583.954	80.005	19.994	103.166	19.920	3.808	0.510
998.000	584.943	80.004	19.994	103.173	19.924	3.522	0.517
1000.000	586.014	80.004	19.994	103.173	19.921	3.725	0.538
1002.000	587.008	80.005	19.996	103.174	19.924	3.553	0.453
1004.000	588.033	80.004	19.995	103.178	19.924	3.495	0.468
1006.000	589.052	80.005	19.994	103.177	19.919	3.881	0.543
1008.000	590.055	80.005	19.995	103.177	19.919	3.845	0.490
1010.000	591.121	80.007	19.993	103.176	19.921	3.729	0.484
1012.000	592.165	80.006	19.993	103.168	19.921	3.752	0.538
1014.000	593.161	80.006	19.992	103.173	19.918	3.965	0.481
1016.000	594.209	80.007	19.993	103.176	19.921	3.767	0.517
1018.000	595.280	80.005	19.993	103.172	19.920	3.804	0.526
1020.000	596.289	80.005	19.994	103.176	19.919	3.869	0.497
1022.000	597.344	80.003	19.993	103.165	19.920	3.827	0.547
1024.000	598.357	80.003	19.994	103.176	19.922	3.650	0.516
1025.999	599.389	80.003	19.992	103.179	19.922	3.638	0.516
1027.999	600.419	80.003	19.993	103.170	19.925	3.455	0.508
1030.000	601.444	80.003	19.993	103.168	19.923	3.604	0.511
1031.999	602.466	80.004	19.992	103.167	19.927	3.321	0.506
1033.999	603.431	80.003	19.993	103.178	19.925	3.446	0.489
1035.999	604.480	80.003	19.993	103.177	19.924	3.528	0.518
1037.999	605.497	80.003	19.994	103.176	19.924	3.487	0.527
1039.999	606.491	80.003	19.994	103.175	19.924	3.512	0.499
1042.000	607.519	80.004	19.995	103.181	19.927	3.290	0.492
1043.999	608.489	80.004	19.994	103.155	19.924	3.514	0.494
1046.000	609.488	80.004	19.995	103.163	19.922	3.660	0.512
1047.999	610.474	80.004	19.994	103.171	19.925	3.416	0.491
1049.999	611.469	80.003	19.994	103.157	19.921	3.742	0.473
1051.999	612.472	80.002	19.994	103.158	19.922	3.640	0.513
1053.999	613.447	80.002	19.993	103.172	19.926	3.377	0.485
1055.999	614.438	80.001	19.995	103.150	19.925	3.460	0.488
1057.999	615.475	80.002	19.996	103.158	19.924	3.489	0.535
1059.999	616.409	80.003	19.994	103.167	19.923	3.628	0.493
1061.999	617.482	80.002	19.995	103.170	19.926	3.408	0.524
1063.999	618.461	80.002	19.996	103.174	19.925	3.470	0.512
1065.999	619.417	80.002	19.995	103.166	19.922	3.673	0.479
1067.999	620.485	80.005	19.995	103.162	19.925	3.483	0.508
1069.999	621.492	80.004	19.995	103.166	19.922	3.673	0.462
1071.999	622.482	80.004	19.995	103.168	19.924	3.536	0.468
1073.999	623.502	80.004	19.995	103.163	19.923	3.559	0.485
1076.000	624.533	80.003	19.994	103.173	19.924	3.515	0.478
1078.000	625.539	80.004	19.995	103.165	19.923	3.617	0.491
1079.999	626.520	80.003	19.994	103.170	19.922	3.654	0.478
1081.999	627.544	80.003	19.994	103.171	19.926	3.395	0.492
1083.999	628.573	80.004	19.995	103.165	19.927	3.343	0.503
1086.000	629.569	80.004	19.993	103.177	19.927	3.304	0.499
1087.999	630.614	80.005	19.994	103.174	19.921	3.710	0.513
1089.999	631.685	80.005	19.994	103.176	19.923	3.573	0.551
1092.000	632.734	80.004	19.992	103.179	19.922	3.686	0.523
1093.999	633.781	80.006	19.995	103.173	19.924	3.522	0.554
1095.999	634.919	80.006	19.994	103.175	19.920	3.797	0.563
1097.999	635.987	80.005	19.993	103.171	19.923	3.577	0.538
1099.999	637.077	80.005	19.994	103.177	19.925	3.468	0.545
1101.999	638.142	80.002	19.994	103.170	19.924	3.507	0.511
1103.999	639.216	80.004	19.995	103.173	19.928	3.258	0.542
1105.999	640.315	80.003	19.994	103.180	19.925	3.460	0.559
1107.999	641.358	80.004	19.994	103.181	19.925	3.441	0.534
1109.999	642.444	80.003	19.993	103.182	19.925	3.485	0.537
1111.999	643.562	80.003	19.994	103.176	19.923	3.559	0.548
1113.999	644.654	80.004	19.994	103.171	19.924	3.493	0.549
1115.999	645.682	80.003	19.994	103.161	19.924	3.548	0.516
1117.999	646.785	80.003	19.995	103.177	19.924	3.553	0.545
1119.999	647.866	80.004	19.993	103.164	19.924	3.551	0.530
1121.999	648.914	80.004	19.994	103.175	19.921	3.752	0.531
1123.999	649.999	80.003	19.995	103.177	19.922	3.644	0.519
1125.999	651.069	80.003	19.995	103.177	19.924	3.542	0.524
1128.001	652.118	80.003	19.994	103.178	19.924	3.536	0.524
1130.000	653.195	80.001	19.994	103.178	19.921	3.717	0.533
1131.999	654.273	80.003	19.995	103.175	19.921	3.703	0.522
1133.999	655.372	80.002	19.995	103.169	19.922	3.694	0.544
1136.000	656.424	80.002	19.994	103.174	19.924	3.518	0.577
1137.999	657.418	80.003	19.996	103.175	19.923	3.572	0.543
1139.999	658.507	80.003	19.995	103.173	19.924	3.493	0.560
1141.999	659.561	80.003	19.994	103.171	19.926	3.369	0.496
1143.999	660.656	80.003	19.994	103.169	19.924	3.501	0.555
1145.999	661.663	80.004	19.994	103.176	19.922	3.654	0.495
1147.999	662.712	80.004	19.995	103.170	19.926	3.385	0.528
1149.999	663.789	80.004	19.994	103.164	19.926	3.408	0.527
1151.999	664.846	80.004	19.993	103.162	19.925	3.453	0.516
1153.999	665.895	80.003	19.995	103.162	19.922	3.698	0.520
1155.999	666.948	80.004	19.995	103.179	19.922	3.690	0.528
1157.999	667.979	80.003	19.995	103.177	19.924	3.539	0.550
1159.999	668.987	80.002	19.995	103.173	19.925	3.478	0.503
1161.999	670.079	80.003	19.996	103.166	19.921	3.748	0.502
1164.000	671.067	80.002	19.996	103.170	19.924	3.541	0.506
1165.999	672.134	80.004	19.995	103.161	19.925	3.447	0.506
1167.999	673.142	80.003	19.995	103.170	19.923	3.576	0.492
1169.999	674.209	80.004	19.994	103.168	19.924	3.533	0.513
1171.999	675.229	80.004	19.994	103.171	19.923	3.558	0.520
1173.999	676.277	80.006	19.994	103.167	19.923	3.574	0.531
1175.999	677.312	80.005	19.994	103.165	19.921	3.732	0.549
1177.999	678.286	80.007	19.993	103.167	19.925	3.473	0.513
1179.999	679.333	80.006	19.994	103.151	19.922	3.687	0.509
1181.999	680.368	80.004	19.995	103.141	19.923	3.591	0.516
1183.999	681.374	80.002	19.994	103.158	19.921	3.768	0.512
1185.999	682.377	80.003	19.994	103.157	19.923	3.583	0.506
1187.999	683.442	80.004	19.995	103.156	19.923	3.564	0.489
1189.999	684.431	80.003	19.994	103.143	19.924	3.495	0.502
1192.000	685.449	80.003	19.995	103.146	19.923	3.624	0.512
1193.999	686.456	80.005	19.994	103.148	19.919	3.846	0.514
1195.999	687.461	80.003	19.994	103.146	19.923	3.607	0.508
1198.000	688.490	80.004	19.993	103.152	19.924	3.556	0.530
1199.999	689.462	80.003	19.995	103.148	19.922	3.687	0.481
1201.999	690.467	80.004	19.994	103.157	19.920	3.809	0.505
1203.999	691.501	80.005	19.993	103.148	19.924	3.531	0.496
1205.999	692.545	80.004	19.994	103.160	19.924	3.545	0.556
1207.999	693.547	80.003	19.994	103.164	19.921	3.734	0.520
1209.999	694.564	80.004	19.993	103.144	19.923	3.628	0.545
1212.000	695.530	80.002	19.993	103.144	19.921	3.767	0.490
1213.999	696.526	80.002	19.994	103.150	19.924	3.553	0.450
1215.999	697.574	80.003	19.996	103.147	19.921	3.713	0.498
1217.999	698.595	80.002	19.994	103.149	19.920	3.830	0.503
1219.999	699.572	80.003	19.994	103.157	19.922	3.641	0.531
1221.999	700.507	80.002	19.994	103.163	19.924	3.510	0.503
1223.999	701.511	80.002	19.994	103.158	19.925	3.421	0.467
1225.999	702.473	80.004	19.995	103.149	19.924	3.489	0.456
1228.000	703.475	80.003	19.995	103.151	19.926	3.369	0.484
1229.999	704.455	80.004	19.994	103.153	19.925	3.433	0.484
1231.999	705.445	80.005	19.994	103.146	19.925	3.423	0.484
1233.999	706.455	80.005	19.994	103.158	19.927	3.328	0.506
1235.999	707.454	80.005	19.994	103.152	19.925	3.480	0.502
1237.999	708.449	80.005	19.994	103.157	19.923	3.588	0.493
1239.999	709.432	80.006	19.994	103.152	19.925	3.442	0.474
1241.999	710.418	80.005	19.994	103.152	19.926	3.355	0.488
1243.999	711.448	80.005	19.994	103.139	19.922	3.649	0.505
1245.999	712.431	80.004	19.994	103.157	19.926	3.388	0.511
1247.999	713.426	80.005	19.994	103.169	19.927	3.344	0.495
1249.999	714.475	80.004	19.994	103.149	19.924	3.504	0.521
1251.999	715.504	80.004	19.995	103.137	19.926	3.365	0.526
1254.000	716.526	80.005	19.995	103.138	19.923	3.616	0.507
1255.999	717.526	80.005	19.996	103.141	19.924	3.517	0.498
1257.999	718.539	80.005	19.994	103.139	19.926	3.404	0.512
1259.999	719.577	80.005	19.994	103.141	19.926	3.414	0.509
1261.999	720.611	80.004	19.996	103.144	19.925	3.425	0.522
1263.999	721.628	80.005	19.994	103.140	19.929	3.188	0.515
1265.999	722.642	80.003	19.993	103.149	19.922	3.693	0.497
1267.999	723.618	80.003	19.995	103.152	19.923	3.625	0.474
1270.000	724.642	80.004	19.994	103.170	19.929	3.197	0.509
1271.999	725.668	80.003	19.994	103.158	19.928	3.250	0.504
1274.000	726.715	80.002	19.994	103.145	19.927	3.294	0.520
1275.999	727.670	80.002	19.995	103.142	19.927	3.344	0.479
1277.999	728.691	80.004	19.995	103.140	19.929	3.140	0.506
1280.000	729.684	80.004	19.995	103.147	19.929	3.171	0.474
1281.999	730.675	80.004	19.994	103.157	19.930	3.124	0.483
1283.999	731.682	80.004	19.994	103.165	19.926	3.383	0.490
1285.999	732.744	80.004	19.994	103.157	19.928	3.232	0.516
1287.999	733.738	80.004	19.994	103.161	19.930	3.124	0.505
1289.999	734.727	80.002	19.995	103.160	19.923	3.579	0.491
1291.999	735.693	80.004	19.993	103.148	19.925	3.479	0.470
1293.999	736.732	80.002	19.994	103.149	19.931	2.999	0.486
1295.999	737.718	80.003	19.994	103.151	19.924	3.524	0.515
1298.000	738.712	80.003	19.993	103.156	19.926	3.388	0.494
1300.000	739.691	80.003	19.994	103.151	19.926	3.387	0.482
1301.999	740.644	80.003	19.993	103.152	19.925	3.464	0.451
1303.999	741.697	80.005	19.993	103.147	19.925	3.471	0.514
1305.999	742.681	80.004	19.994	103.164	19.925	3.433	0.515
1307.499	743.436	80.005	19.994	103.155	19.927	3.278	0.495