File: 01_Data/Pine_Lap_Siding/MCC/Pine_Lap_Siding_MCC_30K_min_211123_R1.txt
Sample ID:	C:\MCC\MCC Cal\Test\PineLap_SidingC_MCC_30K_min_211123_R1.txt
Sample Weight (mg):	4.42
Heating Rate (C/s):	0.5
Combustor Temp (C):	900
N2 Flow Rate (cc/min):	80
O2 Flow Rate (cc/min):	20
Calibration File:	C:\MCC\MCC Cal\Coeff1 JN10440_30_210304.txt.txt
T Correction Coefficients:	0	1.024463	0
Time Shift (s):	14
*
Time (s)	Temperature (C)	N2 flow rate (cc/min)	O2 flow rate (cc/min)	Flow Rate (cc/min)	Oxygen (%)	HRR (W/g)	Heating rate (C/s)
0.000	108.510	80.002	19.997	103.044	20.004	0.312	-0.028
2.000	108.507	80.004	19.995	103.052	20.005	0.271	0.012
4.001	108.488	80.007	19.993	103.046	20.004	0.332	0.004
6.000	108.477	80.010	19.994	103.051	20.005	0.250	0.001
8.000	108.467	80.003	19.996	103.049	20.001	0.565	0.004
10.000	108.501	80.007	19.995	103.052	20.005	0.235	-0.007
12.001	108.455	80.003	19.996	103.055	20.002	0.430	0.019
14.000	108.446	80.006	19.994	103.074	19.999	0.712	-0.019
16.000	108.418	80.004	19.993	103.115	19.999	0.655	0.008
18.000	108.469	80.002	19.999	103.126	19.990	1.375	-0.009
20.000	108.495	80.002	19.994	103.157	19.986	1.646	0.019
22.000	108.601	80.004	19.994	103.198	19.980	2.098	0.034
24.000	108.729	80.002	19.994	103.220	19.976	2.388	0.052
26.000	108.836	80.002	19.996	103.217	19.974	2.536	0.049
28.000	109.030	80.004	19.994	103.237	19.969	2.879	0.091
30.000	109.232	80.002	19.995	103.243	19.970	2.807	0.114
32.000	109.463	80.002	19.996	103.249	19.963	3.343	0.126
34.000	109.726	80.001	19.995	103.256	19.964	3.259	0.145
36.000	110.006	80.003	19.995	103.262	19.963	3.294	0.131
38.001	110.352	80.005	19.994	103.265	19.961	3.441	0.211
40.000	110.664	80.007	19.996	103.266	19.958	3.692	0.175
42.000	111.056	80.005	19.994	103.282	19.958	3.701	0.222
44.001	111.441	80.003	19.999	103.287	19.956	3.821	0.184
46.000	111.888	80.007	19.993	103.286	19.954	3.984	0.227
48.000	112.349	80.003	19.995	103.287	19.957	3.725	0.233
50.000	112.842	80.004	19.995	103.296	19.953	4.056	0.203
52.000	113.335	80.003	19.996	103.296	19.957	3.766	0.229
54.000	113.862	80.000	19.999	103.289	19.955	3.925	0.265
56.000	114.436	80.005	19.992	103.306	19.951	4.197	0.288
58.000	114.999	80.001	20.000	103.292	19.954	3.990	0.318
60.000	115.580	80.006	19.992	103.289	19.954	3.972	0.279
62.000	116.194	80.005	19.998	103.299	19.952	4.078	0.321
64.000	116.771	80.006	19.995	103.290	19.955	3.870	0.270
66.000	117.431	80.006	19.999	103.293	19.952	4.080	0.358
68.001	118.080	80.005	19.994	103.293	19.954	3.931	0.329
70.001	118.730	80.007	19.994	103.301	19.954	3.970	0.321
72.001	119.376	80.004	19.993	103.296	19.953	4.010	0.322
74.000	120.061	80.004	19.997	103.289	19.955	3.875	0.357
76.000	120.749	79.996	20.001	103.291	19.954	3.976	0.323
78.000	121.420	80.001	19.996	103.307	19.952	4.094	0.335
80.000	122.159	80.003	19.989	103.299	19.954	3.994	0.339
82.000	122.885	80.003	19.996	103.301	19.950	4.255	0.370
84.000	123.627	80.006	19.994	103.317	19.951	4.213	0.344
86.001	124.333	80.000	19.998	103.319	19.954	3.972	0.372
88.000	125.107	80.004	19.995	103.308	19.951	4.174	0.370
90.000	125.913	80.003	19.995	103.314	19.950	4.259	0.385
92.000	126.650	80.005	19.996	103.317	19.952	4.108	0.367
94.000	127.443	80.006	19.996	103.314	19.950	4.239	0.411
96.000	128.229	80.005	19.994	103.302	19.951	4.218	0.397
98.000	129.067	80.005	19.994	103.310	19.951	4.212	0.394
100.000	129.869	80.002	19.996	103.319	19.948	4.429	0.420
102.000	130.674	80.005	19.994	103.320	19.951	4.186	0.414
104.000	131.498	80.000	19.997	103.321	19.951	4.192	0.402
106.000	132.415	80.004	19.994	103.322	19.948	4.375	0.430
108.000	133.210	79.998	19.997	103.322	19.951	4.200	0.415
110.000	134.084	80.004	19.986	103.322	19.948	4.396	0.434
112.000	134.955	80.004	19.996	103.324	19.952	4.140	0.415
114.001	135.795	80.005	19.994	103.323	19.950	4.267	0.397
116.000	136.694	80.003	19.994	103.323	19.952	4.114	0.449
118.001	137.593	80.004	19.994	103.324	19.952	4.141	0.464
120.000	138.517	80.006	19.993	103.324	19.952	4.091	0.463
122.000	139.394	80.005	19.993	103.325	19.949	4.310	0.442
124.000	140.267	79.998	19.995	103.324	19.951	4.194	0.431
126.000	141.200	80.002	19.994	103.321	19.951	4.195	0.440
128.000	142.135	80.002	19.994	103.325	19.950	4.281	0.448
130.000	143.076	79.999	19.993	103.322	19.947	4.513	0.460
132.000	144.001	80.005	19.995	103.325	19.948	4.404	0.481
134.000	144.956	80.004	19.994	103.324	19.948	4.372	0.463
136.000	145.883	79.996	19.995	103.327	19.949	4.331	0.450
138.000	146.854	80.008	19.995	103.327	19.949	4.296	0.498
140.000	147.807	80.005	19.992	103.315	19.948	4.436	0.459
142.000	148.738	80.008	19.993	103.325	19.950	4.253	0.485
144.000	149.679	80.006	19.994	103.325	19.948	4.389	0.438
146.000	150.654	80.003	19.995	103.318	19.949	4.369	0.477
148.000	151.608	80.006	19.994	103.319	19.942	4.834	0.475
150.000	152.581	80.005	19.993	103.311	19.943	4.752	0.476
152.000	153.542	80.004	19.996	103.307	19.947	4.503	0.472
154.000	154.495	80.007	19.992	103.310	19.950	4.284	0.459
156.000	155.453	80.001	19.994	103.313	19.949	4.311	0.490
158.000	156.411	80.006	19.994	103.323	19.949	4.339	0.481
160.000	157.362	80.005	19.994	103.316	19.950	4.252	0.477
162.000	158.322	80.003	19.996	103.318	19.949	4.325	0.466
164.000	159.302	80.002	19.999	103.315	19.946	4.543	0.469
166.000	160.303	80.005	19.996	103.304	19.944	4.712	0.481
168.000	161.357	80.006	19.995	103.304	19.945	4.618	0.513
170.000	162.321	80.003	19.996	103.304	19.948	4.401	0.489
172.000	163.287	80.006	19.992	103.299	19.947	4.467	0.482
174.000	164.272	80.008	19.993	103.295	19.944	4.661	0.483
176.000	165.290	80.005	19.991	103.290	19.945	4.647	0.515
178.001	166.308	80.003	19.999	103.294	19.948	4.418	0.496
180.000	167.248	80.002	19.994	103.290	19.949	4.346	0.481
182.000	168.283	80.005	19.995	103.293	19.946	4.569	0.497
184.000	169.296	80.004	19.994	103.289	19.944	4.682	0.518
186.000	170.264	80.004	19.994	103.288	19.947	4.449	0.512
188.000	171.328	80.003	19.996	103.287	19.950	4.234	0.484
190.000	172.300	80.003	19.996	103.288	19.951	4.154	0.512
192.000	173.300	80.000	19.998	103.288	19.950	4.291	0.517
194.000	174.313	80.005	19.997	103.287	19.951	4.171	0.516
196.000	175.277	80.001	19.996	103.287	19.951	4.209	0.508
198.000	176.302	80.002	19.996	103.287	19.950	4.293	0.535
200.000	177.322	80.006	19.994	103.287	19.956	3.856	0.501
202.000	178.287	80.000	19.996	103.286	19.953	4.052	0.498
204.000	179.318	80.004	19.994	103.286	19.955	3.913	0.475
206.000	180.276	80.002	19.995	103.288	19.955	3.915	0.471
208.000	181.315	80.003	19.994	103.289	19.954	3.956	0.512
210.000	182.283	80.002	19.997	103.287	19.951	4.220	0.492
212.000	183.293	80.004	19.995	103.283	19.952	4.136	0.502
214.000	184.316	79.999	19.995	103.286	19.952	4.095	0.529
216.000	185.325	80.002	19.993	103.283	19.950	4.259	0.490
218.000	186.306	80.004	19.994	103.289	19.951	4.153	0.493
220.000	187.348	80.003	19.994	103.293	19.955	3.914	0.522
222.001	188.296	80.005	19.993	103.288	19.949	4.315	0.458
224.000	189.302	80.002	19.991	103.279	19.952	4.079	0.505
226.000	190.293	80.002	19.993	103.276	19.954	3.971	0.518
228.000	191.267	80.005	19.994	103.276	19.952	4.097	0.488
230.000	192.247	80.004	19.992	103.265	19.949	4.321	0.499
232.000	193.243	80.006	19.994	103.277	19.950	4.263	0.515
234.000	194.224	80.001	19.997	103.267	19.949	4.312	0.506
236.000	195.205	80.004	19.991	103.275	19.950	4.282	0.487
238.000	196.167	80.004	19.994	103.276	19.949	4.323	0.498
240.000	197.181	80.004	19.996	103.273	19.950	4.271	0.529
242.000	198.151	80.002	19.994	103.271	19.947	4.490	0.448
244.000	199.147	80.008	19.992	103.278	19.948	4.384	0.525
246.001	200.107	80.002	19.993	103.280	19.948	4.427	0.500
248.000	201.115	80.004	19.997	103.271	19.947	4.481	0.512
250.000	202.100	80.006	19.994	103.275	19.950	4.258	0.487
252.000	203.082	80.006	19.995	103.277	19.946	4.519	0.481
254.000	204.097	80.009	19.993	103.273	19.949	4.312	0.475
256.000	205.033	80.007	19.996	103.265	19.951	4.161	0.465
258.000	206.075	80.005	19.994	103.267	19.950	4.278	0.539
260.000	207.075	80.010	19.993	103.257	19.951	4.194	0.494
262.000	208.085	80.001	19.996	103.264	19.949	4.358	0.496
264.000	209.047	80.002	19.995	103.264	19.947	4.491	0.481
266.000	210.094	80.002	19.995	103.277	19.948	4.438	0.462
268.000	211.032	80.002	19.996	103.269	19.946	4.581	0.485
270.000	212.067	80.005	19.993	103.262	19.945	4.623	0.477
272.000	213.063	80.006	19.996	103.258	19.945	4.607	0.495
274.000	214.035	80.002	19.993	103.261	19.942	4.867	0.510
276.000	215.024	80.004	19.996	103.256	19.946	4.575	0.476
278.000	216.067	80.001	19.994	103.260	19.945	4.648	0.520
280.000	217.014	80.004	19.993	103.264	19.943	4.769	0.472
282.000	217.986	80.005	19.995	103.271	19.945	4.612	0.474
284.000	218.987	80.005	19.994	103.257	19.942	4.845	0.499
286.000	219.970	80.005	19.996	103.265	19.943	4.759	0.487
288.000	220.962	80.003	19.994	103.258	19.941	4.911	0.509
290.000	221.983	80.003	19.997	103.252	19.938	5.131	0.501
292.000	222.941	80.003	19.996	103.254	19.938	5.143	0.503
294.000	223.959	80.001	19.996	103.248	19.938	5.118	0.521
296.000	224.930	80.002	19.995	103.254	19.937	5.188	0.503
298.000	225.941	80.005	19.996	103.250	19.934	5.426	0.483
300.000	226.906	79.999	20.003	103.255	19.936	5.266	0.447
302.000	227.961	80.005	19.994	103.257	19.933	5.465	0.482
304.000	228.982	80.006	19.991	103.272	19.934	5.447	0.498
306.000	229.960	80.000	20.002	103.263	19.934	5.424	0.502
308.000	230.941	80.008	19.992	103.250	19.930	5.721	0.497
310.000	231.981	80.007	19.991	103.251	19.931	5.667	0.516
312.000	232.934	80.007	19.994	103.249	19.927	5.907	0.504
314.000	233.940	80.006	19.994	103.247	19.923	6.203	0.494
316.000	234.942	80.004	19.998	103.248	19.921	6.379	0.493
318.000	235.910	80.004	19.998	103.247	19.920	6.415	0.518
320.000	236.943	80.005	19.994	103.247	19.923	6.230	0.525
322.000	237.913	79.998	19.997	103.250	19.923	6.258	0.478
324.000	238.905	80.006	19.995	103.250	19.923	6.260	0.523
326.000	239.870	80.002	19.992	103.251	19.917	6.649	0.511
328.000	240.877	80.001	19.992	103.257	19.914	6.851	0.492
330.000	241.883	80.006	19.990	103.250	19.912	7.019	0.524
332.000	242.870	80.004	19.991	103.251	19.909	7.260	0.501
334.000	243.915	80.005	19.992	103.257	19.910	7.162	0.512
336.000	244.913	80.007	19.992	103.252	19.903	7.673	0.495
338.000	245.902	80.008	19.991	103.250	19.905	7.563	0.503
340.000	246.903	80.007	19.992	103.251	19.899	7.943	0.487
342.000	247.867	80.002	19.995	103.249	19.899	7.941	0.493
344.000	248.854	80.003	19.993	103.256	19.899	8.010	0.496
346.000	249.896	80.002	19.993	103.252	19.895	8.236	0.553
348.000	250.863	80.002	19.997	103.256	19.893	8.407	0.499
350.000	251.933	80.008	19.987	103.261	19.890	8.665	0.503
352.000	252.888	80.001	19.989	103.258	19.887	8.869	0.490
354.000	253.893	79.997	19.999	103.260	19.885	9.020	0.513
356.000	254.870	80.006	19.990	103.262	19.882	9.208	0.479
358.000	255.849	80.009	19.992	103.257	19.881	9.311	0.480
360.000	256.848	80.007	19.991	103.260	19.879	9.409	0.500
362.000	257.838	80.010	19.988	103.255	19.875	9.740	0.505
364.000	258.850	80.007	19.992	103.267	19.873	9.842	0.525
366.001	259.818	80.006	19.992	103.271	19.872	9.924	0.515
368.000	260.767	80.006	19.995	103.262	19.866	10.383	0.506
370.000	261.755	80.003	19.997	103.261	19.864	10.556	0.496
372.000	262.724	79.999	19.999	103.260	19.862	10.659	0.497
374.000	263.709	80.009	19.992	103.263	19.856	11.086	0.501
376.000	264.699	80.003	19.993	103.264	19.851	11.442	0.506
378.000	265.717	80.002	19.996	103.272	19.846	11.814	0.480
380.000	266.702	80.003	19.995	103.276	19.846	11.812	0.505
382.000	267.669	79.997	19.996	103.280	19.839	12.381	0.484
384.000	268.674	80.002	19.996	103.273	19.836	12.592	0.493
386.000	269.686	79.999	19.999	103.279	19.833	12.764	0.491
388.000	270.711	80.006	19.994	103.275	19.829	13.072	0.534
390.000	271.725	80.002	19.992	103.277	19.824	13.457	0.479
392.000	272.683	80.002	19.995	103.281	19.821	13.645	0.477
394.000	273.696	80.005	19.995	103.285	19.817	13.955	0.515
396.000	274.686	80.005	19.994	103.286	19.815	14.131	0.507
398.000	275.681	80.009	19.989	103.286	19.804	14.884	0.503
400.000	276.694	80.001	19.994	103.287	19.799	15.294	0.509
402.001	277.698	80.008	19.993	103.287	19.800	15.198	0.501
404.000	278.704	80.005	19.989	103.286	19.794	15.667	0.497
406.000	279.679	80.005	19.997	103.287	19.788	16.104	0.474
408.000	280.680	80.011	19.991	103.285	19.781	16.568	0.458
410.000	281.670	80.001	20.001	103.289	19.777	16.879	0.498
412.000	282.654	79.997	19.996	103.287	19.772	17.254	0.487
414.001	283.676	80.003	19.997	103.285	19.766	17.645	0.493
416.000	284.703	80.002	19.998	103.288	19.758	18.275	0.505
418.000	285.706	80.002	19.993	103.290	19.754	18.525	0.478
420.000	286.736	80.007	19.995	103.286	19.754	18.542	0.532
422.000	287.732	80.006	19.994	103.284	19.746	19.121	0.507
424.001	288.727	80.004	19.993	103.293	19.740	19.598	0.493
426.000	289.687	80.004	19.993	103.288	19.734	19.990	0.480
428.000	290.708	80.002	19.994	103.296	19.727	20.498	0.497
430.000	291.760	80.000	19.990	103.292	19.723	20.826	0.519
432.000	292.742	80.001	19.995	103.297	19.714	21.483	0.489
434.000	293.792	80.007	19.990	103.301	19.706	22.070	0.514
436.000	294.759	80.005	19.994	103.296	19.703	22.285	0.481
438.000	295.770	80.002	19.995	103.320	19.696	22.762	0.520
440.000	296.790	80.006	19.993	103.311	19.691	23.164	0.504
442.000	297.772	80.005	19.996	103.314	19.683	23.706	0.505
444.000	298.776	80.006	19.994	103.317	19.675	24.342	0.522
446.000	299.745	80.001	19.998	103.321	19.670	24.647	0.477
448.000	300.744	80.003	19.992	103.323	19.662	25.262	0.471
450.000	301.752	80.002	19.997	103.324	19.654	25.837	0.507
452.000	302.712	80.005	19.988	103.318	19.650	26.159	0.492
454.000	303.748	80.004	19.992	103.324	19.639	26.959	0.514
456.000	304.694	80.009	19.992	103.327	19.632	27.475	0.470
458.000	305.728	80.004	19.993	103.331	19.624	28.070	0.514
460.000	306.699	80.001	19.994	103.330	19.615	28.712	0.492
462.000	307.677	80.002	19.993	103.330	19.606	29.341	0.517
464.000	308.685	80.002	19.995	103.329	19.597	30.046	0.490
466.000	309.706	80.001	19.995	103.334	19.591	30.471	0.541
468.000	310.687	80.000	19.995	103.338	19.581	31.202	0.491
470.000	311.739	80.006	19.993	103.338	19.572	31.830	0.537
472.000	312.716	80.004	19.996	103.347	19.562	32.571	0.507
474.000	313.770	80.002	19.998	103.355	19.554	33.183	0.539
476.000	314.758	80.006	19.995	103.364	19.544	33.903	0.534
478.000	315.791	80.007	19.995	103.367	19.537	34.430	0.526
480.000	316.766	80.003	19.995	103.363	19.523	35.423	0.524
482.000	317.760	80.006	19.993	103.363	19.516	35.916	0.476
484.000	318.791	80.007	19.992	103.365	19.504	36.831	0.511
486.001	319.763	80.008	19.992	103.369	19.492	37.703	0.501
488.000	320.798	80.006	19.994	103.377	19.482	38.416	0.523
490.000	321.830	80.004	19.989	103.367	19.473	39.110	0.541
492.000	322.856	80.003	19.994	103.377	19.460	39.992	0.528
494.000	323.823	80.006	19.994	103.377	19.449	40.831	0.484
496.000	324.847	80.007	19.996	103.390	19.441	41.404	0.478
498.000	325.882	80.008	19.994	103.390	19.429	42.275	0.512
500.000	326.894	80.007	19.993	103.399	19.416	43.204	0.513
502.000	327.896	80.009	19.995	103.381	19.410	43.685	0.530
504.000	328.870	80.004	19.994	103.392	19.397	44.593	0.481
506.000	329.902	80.002	19.995	103.400	19.389	45.189	0.487
508.000	330.909	80.003	19.991	103.401	19.378	46.008	0.526
510.000	331.951	80.001	19.996	103.400	19.371	46.500	0.499
512.000	332.979	80.005	19.995	103.404	19.362	47.186	0.532
514.000	333.982	80.003	19.993	103.404	19.354	47.781	0.513
516.000	335.022	80.004	19.994	103.405	19.345	48.399	0.524
518.000	336.062	80.001	19.993	103.404	19.336	49.045	0.499
520.000	337.041	80.004	19.994	103.406	19.333	49.313	0.515
522.000	338.080	80.001	19.995	103.403	19.323	50.032	0.530
524.000	339.088	80.001	19.996	103.403	19.318	50.378	0.505
526.000	340.077	80.000	19.998	103.404	19.313	50.761	0.472
528.000	341.082	80.005	19.993	103.405	19.306	51.241	0.485
530.000	342.104	80.002	19.997	103.405	19.301	51.660	0.529
532.000	343.066	80.001	19.999	103.404	19.295	52.068	0.477
534.000	344.040	80.000	19.994	103.405	19.288	52.609	0.477
536.000	345.059	80.002	19.992	103.408	19.286	52.742	0.484
538.000	346.076	80.001	19.995	103.406	19.277	53.391	0.489
540.000	347.123	80.001	19.996	103.410	19.273	53.702	0.537
542.000	348.085	80.000	19.997	103.415	19.268	54.042	0.504
544.000	349.071	80.003	19.997	103.411	19.258	54.771	0.470
546.000	350.063	80.005	19.996	103.407	19.253	55.157	0.483
548.001	351.068	80.003	19.996	103.416	19.245	55.769	0.476
550.000	352.084	80.006	19.995	103.425	19.239	56.211	0.522
552.000	353.078	80.007	19.993	103.433	19.228	56.957	0.507
554.000	354.132	80.004	19.995	103.436	19.222	57.446	0.509
556.000	355.116	80.003	19.994	103.441	19.215	57.969	0.540
558.000	356.062	80.006	19.990	103.441	19.204	58.772	0.485
560.000	357.066	80.001	19.992	103.444	19.193	59.536	0.507
562.000	358.040	80.001	19.994	103.442	19.180	60.489	0.488
564.000	359.055	80.005	19.992	103.445	19.170	61.257	0.523
566.000	360.025	79.997	19.996	103.455	19.158	62.107	0.510
568.000	360.987	80.000	19.997	103.462	19.146	62.995	0.484
570.000	361.966	80.002	19.996	103.472	19.131	64.077	0.474
572.000	362.992	80.006	19.994	103.475	19.119	64.940	0.481
574.000	363.992	80.010	19.992	103.479	19.104	66.050	0.529
576.000	364.970	80.002	19.996	103.483	19.089	67.144	0.492
578.000	366.013	80.009	19.993	103.485	19.074	68.230	0.503
580.000	366.970	80.003	19.996	103.491	19.061	69.203	0.483
582.000	367.971	80.013	19.991	103.487	19.048	70.189	0.467
584.000	368.999	80.004	19.993	103.484	19.038	70.858	0.502
586.000	370.022	80.004	19.991	103.487	19.024	71.891	0.490
588.000	371.009	80.006	19.991	103.488	19.012	72.776	0.501
590.000	371.981	80.002	19.992	103.487	19.010	72.952	0.496
592.000	373.038	80.003	19.993	103.485	19.007	73.132	0.530
594.000	374.056	80.003	19.993	103.485	19.003	73.444	0.524
596.000	375.023	80.002	19.995	103.484	19.005	73.243	0.489
598.000	376.048	80.001	19.997	103.484	19.002	73.445	0.530
600.000	377.064	80.000	19.997	103.476	19.009	72.943	0.526
602.000	378.078	80.003	19.992	103.455	19.017	72.352	0.481
604.000	379.074	80.002	19.995	103.447	19.029	71.440	0.498
606.000	380.087	80.001	19.997	103.447	19.047	70.139	0.474
608.000	381.180	80.000	19.998	103.429	19.066	68.719	0.530
610.000	382.211	80.004	19.994	103.408	19.090	66.958	0.515
612.000	383.239	80.002	19.993	103.400	19.113	65.297	0.509
614.000	384.258	80.007	19.991	103.372	19.147	62.771	0.480
616.000	385.324	80.001	19.995	103.368	19.178	60.510	0.522
618.000	386.350	80.006	19.991	103.355	19.213	57.967	0.514
620.000	387.399	80.002	19.994	103.332	19.252	55.126	0.510
622.000	388.447	80.003	19.995	103.323	19.299	51.709	0.497
624.000	389.545	80.002	19.995	103.299	19.340	48.721	0.544
626.000	390.581	80.003	19.995	103.289	19.383	45.547	0.552
628.000	391.623	80.005	19.996	103.267	19.426	42.421	0.553
630.000	392.707	80.004	19.996	103.252	19.469	39.292	0.513
632.000	393.782	80.002	19.995	103.245	19.513	36.057	0.575
634.000	394.877	80.003	19.997	103.238	19.553	33.164	0.559
636.000	395.884	80.007	19.996	103.214	19.600	29.776	0.525
638.000	396.915	80.000	19.995	103.208	19.626	27.821	0.508
640.000	397.944	80.003	19.999	103.198	19.658	25.500	0.472
642.000	398.993	80.001	19.996	103.190	19.687	23.434	0.507
644.000	399.973	80.006	19.999	103.192	19.710	21.747	0.485
646.000	401.026	79.998	20.000	103.179	19.731	20.173	0.495
648.000	402.053	79.998	20.001	103.181	19.757	18.278	0.502
650.000	403.016	80.002	20.001	103.178	19.776	16.900	0.462
652.000	404.055	80.008	19.995	103.172	19.786	16.191	0.508
654.000	405.070	80.006	19.993	103.180	19.802	15.057	0.500
656.000	406.027	80.014	19.992	103.180	19.810	14.426	0.418
658.000	407.072	80.006	19.996	103.175	19.817	13.941	0.514
660.000	408.149	79.994	19.996	103.177	19.820	13.710	0.532
662.000	409.073	80.002	19.992	103.174	19.826	13.288	0.520
664.000	410.087	79.996	20.002	103.171	19.834	12.686	0.515
666.000	411.075	79.996	20.002	103.169	19.838	12.417	0.516
668.000	412.073	80.002	19.996	103.174	19.846	11.856	0.492
670.001	413.064	80.005	19.993	103.173	19.841	12.165	0.571
672.000	414.097	80.005	19.996	103.169	19.842	12.154	0.541
674.000	415.014	80.002	19.999	103.175	19.840	12.269	0.480
676.000	416.126	80.006	19.992	103.172	19.848	11.669	0.554
678.000	417.012	80.006	19.993	103.170	19.850	11.530	0.498
680.000	418.028	80.001	20.001	103.173	19.851	11.491	0.520
682.000	419.004	79.998	19.998	103.192	19.855	11.172	0.478
684.000	420.014	80.005	19.993	103.182	19.853	11.286	0.497
686.000	421.104	80.023	20.003	103.179	19.858	10.963	0.531
688.000	421.994	80.012	20.001	103.206	19.855	11.166	0.515
690.000	423.030	80.002	19.998	103.205	19.866	10.383	0.508
692.000	423.986	80.000	19.996	103.184	19.860	10.842	0.477
694.000	425.021	80.002	19.993	103.180	19.862	10.662	0.542
696.000	426.015	80.005	19.994	103.170	19.861	10.748	0.503
698.000	427.017	80.004	19.994	103.168	19.865	10.475	0.529
700.000	427.979	80.004	19.995	103.172	19.866	10.356	0.436
702.000	429.025	79.998	19.997	103.171	19.865	10.464	0.521
704.000	429.998	80.001	19.998	103.171	19.866	10.348	0.484
706.000	431.044	80.004	19.993	103.173	19.870	10.058	0.516
708.000	432.005	80.005	19.993	103.177	19.870	10.058	0.482
710.000	433.044	80.005	19.994	103.178	19.871	10.001	0.535
712.000	434.061	80.003	19.994	103.184	19.873	9.837	0.530
714.000	435.057	80.005	19.994	103.179	19.873	9.827	0.515
716.000	436.056	80.004	19.994	103.180	19.876	9.624	0.492
718.000	437.082	80.002	19.994	103.173	19.872	9.955	0.518
720.000	438.101	80.006	19.997	103.173	19.878	9.528	0.529
722.000	439.104	80.003	19.993	103.172	19.883	9.157	0.523
724.000	440.141	80.003	19.995	103.173	19.891	8.558	0.526
726.000	441.152	80.000	19.995	103.174	19.885	8.969	0.499
728.000	442.084	80.002	19.996	103.178	19.878	9.512	0.477
730.000	443.154	80.003	19.997	103.175	19.881	9.268	0.515
732.000	444.160	80.006	19.989	103.174	19.882	9.190	0.511
734.000	445.112	80.006	19.994	103.177	19.884	9.037	0.481
736.000	446.161	80.005	19.996	103.173	19.884	9.083	0.521
738.000	447.125	80.007	19.992	103.170	19.882	9.178	0.508
740.000	448.147	80.004	19.996	103.170	19.885	8.988	0.543
742.000	449.293	80.005	19.993	103.175	19.887	8.876	0.614
744.000	450.172	80.000	19.991	103.169	19.886	8.892	0.512
746.000	451.209	80.001	19.995	103.163	19.887	8.822	0.496
748.000	452.239	80.007	19.995	103.165	19.893	8.415	0.513
750.000	453.241	80.004	19.996	103.166	19.893	8.398	0.508
752.000	454.246	79.999	19.995	103.166	19.895	8.273	0.517
754.000	455.219	80.000	19.997	103.166	19.895	8.271	0.498
756.000	456.267	80.004	19.993	103.174	19.894	8.353	0.500
758.000	457.268	80.005	19.993	103.174	19.897	8.095	0.503
760.000	458.307	79.996	20.003	103.170	19.895	8.226	0.512
762.000	459.341	80.001	20.001	103.169	19.899	7.946	0.486
764.000	460.386	80.008	19.987	103.170	19.896	8.222	0.544
766.000	461.404	80.006	19.993	103.172	19.899	7.946	0.541
768.000	462.378	80.005	19.997	103.170	19.902	7.751	0.504
770.000	463.383	80.003	19.995	103.170	19.900	7.929	0.494
772.000	464.383	80.003	19.993	103.173	19.904	7.616	0.479
774.000	465.377	79.993	19.997	103.172	19.900	7.874	0.515
776.000	466.593	80.001	19.995	103.173	19.906	7.493	0.646
778.000	467.413	80.003	19.995	103.171	19.910	7.150	0.468
780.000	468.435	80.004	19.998	103.172	19.921	6.370	0.515
782.000	469.458	80.003	19.994	103.171	19.911	7.119	0.506
784.000	470.498	80.003	19.994	103.171	19.908	7.289	0.504
786.000	471.526	80.000	19.997	103.172	19.911	7.098	0.536
788.000	472.579	79.999	19.996	103.171	19.913	6.966	0.489
790.000	473.521	80.010	19.994	103.172	19.913	6.927	0.496
792.000	474.556	80.004	19.995	103.175	19.914	6.898	0.497
794.000	475.570	80.005	19.998	103.168	19.916	6.736	0.479
796.000	476.619	80.003	19.992	103.171	19.914	6.874	0.490
798.000	477.667	80.006	19.994	103.169	19.917	6.657	0.550
800.000	478.665	80.010	19.991	103.168	19.917	6.620	0.532
802.000	479.664	80.003	19.995	103.167	19.915	6.787	0.513
804.000	480.734	80.008	19.998	103.168	19.918	6.561	0.519
806.000	481.784	79.999	19.996	103.169	19.924	6.154	0.553
808.000	482.782	80.009	19.999	103.168	19.914	6.841	0.510
810.000	483.761	80.002	19.999	103.167	19.917	6.622	0.490
812.000	484.776	80.011	19.993	103.170	19.918	6.587	0.475
814.000	485.806	80.006	19.990	103.170	19.919	6.485	0.523
816.000	486.832	80.006	19.989	103.157	19.922	6.325	0.524
818.000	487.820	80.000	20.004	103.154	19.919	6.499	0.543
820.000	488.832	80.008	19.993	103.157	19.922	6.303	0.489
822.000	489.857	80.002	19.996	103.165	19.920	6.422	0.499
824.000	490.916	80.001	19.996	103.166	19.924	6.171	0.523
826.000	491.941	80.007	19.992	103.166	19.923	6.241	0.478
828.000	492.999	80.007	19.996	103.169	19.920	6.411	0.535
830.001	494.033	80.002	19.996	103.168	19.921	6.396	0.511
832.000	495.064	80.003	19.991	103.158	19.924	6.162	0.520
834.000	496.062	80.002	19.997	103.163	19.923	6.226	0.506
836.000	497.051	80.001	19.996	103.165	19.921	6.372	0.503
838.000	498.050	79.999	20.002	103.159	19.924	6.164	0.514
840.000	499.086	80.004	19.995	103.166	19.927	5.928	0.513
842.000	500.103	80.003	19.993	103.165	19.926	6.003	0.537
844.000	501.125	80.003	19.994	103.148	19.924	6.111	0.505
846.000	502.092	79.999	19.998	103.152	19.929	5.754	0.514
848.000	503.074	79.999	20.003	103.164	19.927	5.901	0.469
850.000	504.106	80.005	19.991	103.161	19.925	6.042	0.500
852.000	505.080	80.010	19.991	103.152	19.933	5.527	0.491
854.000	506.085	80.009	19.992	103.146	19.930	5.735	0.496
856.000	507.110	80.005	19.994	103.154	19.928	5.859	0.517
858.000	508.074	80.000	19.991	103.174	19.930	5.739	0.503
860.000	509.108	80.003	19.993	103.168	19.929	5.766	0.490
862.000	510.047	80.006	19.992	103.169	19.932	5.596	0.462
864.001	511.063	80.006	19.986	103.167	19.927	5.947	0.493
866.000	512.012	80.005	19.992	103.164	19.930	5.732	0.459
868.000	513.100	80.005	19.991	103.150	19.927	5.936	0.540
870.000	514.070	80.006	19.995	103.159	19.933	5.527	0.498
872.000	515.102	80.004	19.996	103.169	19.931	5.666	0.501
874.000	516.085	80.006	19.993	103.163	19.930	5.707	0.460
876.000	517.144	80.006	19.995	103.160	19.931	5.601	0.509
878.000	518.137	80.004	19.991	103.166	19.939	5.079	0.492
880.000	519.139	80.007	19.995	103.162	19.939	5.025	0.502
882.000	520.186	80.001	19.996	103.165	19.929	5.816	0.514
884.000	521.180	80.005	19.993	103.167	19.932	5.589	0.508
886.000	522.160	80.003	19.996	103.165	19.931	5.628	0.493
888.000	523.195	80.005	19.995	103.163	19.933	5.524	0.513
890.000	524.218	80.003	19.996	103.167	19.932	5.589	0.517
892.000	525.120	80.002	19.995	103.158	19.933	5.474	0.473
894.000	526.199	80.005	19.999	103.156	19.936	5.265	0.502
896.000	527.228	80.003	19.996	103.141	19.934	5.391	0.554
898.000	528.273	80.011	19.991	103.148	19.929	5.786	0.513
900.000	529.274	80.004	19.992	103.149	19.927	5.899	0.510
902.000	530.329	80.001	19.999	103.156	19.933	5.497	0.538
904.000	531.352	80.005	19.995	103.157	19.931	5.634	0.499
906.000	532.360	80.004	19.993	103.158	19.929	5.811	0.510
908.000	533.354	80.003	19.993	103.145	19.929	5.809	0.511
910.000	534.345	80.002	20.000	103.145	19.929	5.807	0.512
912.000	535.393	80.007	19.992	103.147	19.928	5.821	0.523
914.000	536.398	80.003	19.990	103.154	19.927	5.913	0.509
916.000	537.383	80.004	19.996	103.160	19.927	5.944	0.529
918.000	538.544	80.011	19.995	103.172	19.929	5.799	0.585
920.000	539.463	80.003	19.996	103.171	19.932	5.594	0.519
922.000	540.538	80.004	19.993	103.173	19.926	6.018	0.486
924.000	541.572	80.005	19.992	103.174	19.926	6.012	0.561
926.000	542.611	80.001	19.994	103.174	19.928	5.826	0.513
928.000	543.633	80.003	19.994	103.170	19.928	5.830	0.517
930.000	544.698	80.003	19.995	103.165	19.927	5.940	0.536
932.000	545.745	80.003	19.995	103.166	19.929	5.764	0.565
934.000	546.797	80.001	19.996	103.162	19.934	5.416	0.520
936.000	547.843	80.003	19.995	103.166	19.927	5.929	0.506
938.000	548.907	80.004	19.996	103.167	19.933	5.455	0.514
940.000	549.996	80.002	19.992	103.168	19.924	6.174	0.584
942.000	551.017	80.003	19.997	103.170	19.929	5.760	0.510
944.001	552.121	80.002	19.996	103.165	19.930	5.693	0.460
946.000	553.200	80.005	19.994	103.162	19.931	5.666	0.533
948.000	554.266	80.003	19.993	103.154	19.933	5.482	0.517
950.000	555.320	80.005	19.989	103.160	19.933	5.519	0.553
952.000	556.344	80.006	19.993	103.156	19.931	5.658	0.527
954.000	557.415	80.005	19.993	103.163	19.927	5.900	0.519
956.000	558.560	80.008	19.995	103.152	19.933	5.492	0.600
958.000	559.577	80.002	19.996	103.169	19.932	5.578	0.526
960.000	560.687	80.005	19.994	103.166	19.930	5.710	0.545
962.000	561.775	80.002	19.990	103.167	19.930	5.714	0.564
964.000	562.871	80.003	19.997	103.157	19.931	5.624	0.557
966.000	563.900	80.005	19.989	103.156	19.932	5.568	0.510
968.000	564.939	80.003	19.993	103.159	19.931	5.602	0.475
970.000	565.957	80.001	19.992	103.154	19.930	5.734	0.504
972.000	567.103	80.004	19.997	103.157	19.929	5.748	0.583
974.000	568.144	80.006	19.993	103.150	19.931	5.640	0.515
976.000	569.165	80.007	19.995	103.159	19.929	5.770	0.513
978.000	570.183	80.006	19.997	103.166	19.929	5.808	0.504
980.000	571.231	80.006	19.992	103.164	19.931	5.628	0.516
982.000	572.331	80.005	19.993	103.165	19.926	5.996	0.543
984.000	573.346	80.004	19.996	103.164	19.930	5.742	0.536
986.000	574.445	80.004	19.994	103.163	19.930	5.732	0.556
988.000	575.530	80.003	19.993	103.163	19.930	5.701	0.527
990.000	576.526	80.005	19.993	103.155	19.926	5.983	0.495
992.000	577.627	80.006	19.993	103.162	19.930	5.701	0.515
994.000	578.653	80.004	19.995	103.163	19.933	5.488	0.560
996.000	579.620	80.001	19.996	103.159	19.937	5.178	0.491
998.000	580.721	80.003	19.995	103.154	19.925	6.041	0.469
1000.000	581.780	80.003	19.991	103.161	19.928	5.890	0.512
1002.000	582.958	80.002	19.996	103.155	19.930	5.715	0.522
1004.000	583.824	80.006	19.991	103.159	19.932	5.579	0.567
1006.000	584.772	80.000	20.000	103.147	19.930	5.726	0.525
1008.000	585.462	80.006	19.995	103.148	19.931	5.665	0.467
1010.000	587.132	80.008	19.994	103.148	19.930	5.685	1.157
1012.000	588.014	80.001	19.997	103.142	19.930	5.673	0.462
1014.000	588.881	79.997	20.001	103.140	19.929	5.808	0.372
1016.000	590.079	79.997	19.998	103.158	19.931	5.614	0.438
1018.000	590.985	80.002	19.997	103.161	19.931	5.670	0.473
1020.000	592.090	80.002	19.991	103.152	19.932	5.571	0.512
1022.000	593.020	80.000	19.995	103.148	19.931	5.648	0.511
1024.000	594.103	79.998	20.001	103.156	19.931	5.649	0.517
1026.000	595.111	80.002	19.998	103.148	19.932	5.547	0.562
1028.000	596.066	80.000	19.996	103.153	19.933	5.501	0.452
1030.000	597.075	80.005	19.992	103.159	19.932	5.579	0.446
1032.000	598.077	80.002	19.996	103.150	19.932	5.570	0.510
1034.000	599.114	80.006	19.995	103.142	19.929	5.767	0.495
1036.000	600.087	80.007	19.992	103.157	19.927	5.911	0.451
1038.000	601.170	80.005	19.992	103.163	19.929	5.806	0.474
1040.000	602.150	80.006	19.995	103.151	19.929	5.765	0.488
1042.000	603.146	80.006	19.992	103.155	19.929	5.783	0.508
1044.001	604.096	80.007	19.992	103.160	19.932	5.571	0.486
1046.000	605.155	80.004	19.999	103.143	19.926	5.968	0.507
1048.000	606.132	80.006	19.993	103.149	19.927	5.923	0.497
1050.001	607.115	80.005	19.995	103.155	19.927	5.927	0.449
1052.000	608.183	80.004	19.995	103.156	19.929	5.767	0.505
1054.000	609.184	80.007	19.997	103.152	19.928	5.819	0.505
1056.001	610.239	80.008	19.991	103.152	19.925	6.099	0.487
1058.001	611.263	80.006	19.994	103.147	19.924	6.111	0.532
1060.000	612.297	80.005	19.994	103.150	19.923	6.193	0.538
1062.000	613.239	80.003	19.994	103.140	19.929	5.811	0.491
1064.001	614.321	80.004	19.994	103.149	19.926	6.032	0.507
1066.000	615.295	80.005	19.994	103.145	19.926	6.007	0.505
1068.001	616.356	80.008	19.995	103.157	19.927	5.925	0.549
1070.000	617.352	80.002	19.997	103.157	19.927	5.935	0.509
1072.000	618.345	80.001	19.995	103.156	19.925	6.069	0.500
1074.000	619.371	80.004	19.994	103.159	19.928	5.868	0.489
1076.001	620.405	80.003	19.994	103.142	19.925	6.107	0.495
1078.000	621.426	80.002	19.992	103.153	19.927	5.913	0.513
1080.001	622.435	80.003	19.993	103.149	19.925	6.090	0.493
1082.000	623.474	80.004	19.995	103.141	19.928	5.832	0.508
1084.000	624.500	80.005	19.996	103.145	19.926	6.027	0.513
1086.000	625.551	80.003	19.995	103.149	19.925	6.087	0.506
1088.001	626.509	80.006	19.996	103.142	19.923	6.208	0.489
1090.000	627.559	80.007	19.992	103.156	19.925	6.063	0.520
1092.000	628.562	79.999	20.002	103.159	19.922	6.286	0.496
1094.001	629.575	80.003	19.996	103.160	19.926	5.982	0.487
1096.000	630.635	80.002	19.992	103.164	19.927	5.899	0.518
1098.000	631.634	80.001	19.997	103.173	19.927	5.940	0.519
1100.000	632.699	80.002	19.995	103.167	19.925	6.099	0.531
1102.001	633.670	80.002	19.995	103.170	19.923	6.213	0.518
1104.001	634.741	79.999	19.994	103.163	19.925	6.054	0.560
1106.000	635.729	80.001	19.992	103.154	19.926	6.004	0.484
1108.000	636.747	80.004	19.995	103.165	19.925	6.072	0.515
1110.000	637.736	80.008	19.996	103.168	19.926	5.967	0.497
1112.000	638.746	80.002	19.997	103.170	19.924	6.151	0.517
1114.000	639.747	80.005	19.995	103.156	19.924	6.122	0.496
1116.000	640.782	80.004	19.998	103.152	19.921	6.397	0.525
1118.000	641.805	80.006	19.995	103.156	19.923	6.241	0.527
1120.000	642.815	80.003	19.997	103.156	19.925	6.049	0.497
1122.000	643.796	80.003	19.994	103.163	19.936	5.247	0.501
1124.000	644.777	80.005	19.996	103.168	19.927	5.930	0.506
1126.000	645.763	80.002	19.997	103.163	19.929	5.805	0.500
1128.000	646.783	80.004	19.995	103.166	19.922	6.272	0.503
1130.000	647.808	80.008	19.988	103.159	19.924	6.182	0.553
1132.001	648.816	80.001	19.995	103.164	19.924	6.124	0.521
1134.001	649.810	80.006	19.994	103.166	19.923	6.253	0.475
1136.000	651.561	80.013	19.996	103.169	19.921	6.347	1.051
1138.000	652.009	80.003	19.998	103.163	19.922	6.302	0.574
1140.001	652.773	80.007	19.995	103.165	19.923	6.208	0.525
1142.000	653.795	80.007	19.994	103.168	19.923	6.198	0.525
1144.000	654.812	80.005	19.996	103.170	19.925	6.097	0.488
1146.000	655.800	80.003	19.993	103.171	19.927	5.956	0.480
1148.000	656.834	80.004	19.997	103.172	19.924	6.128	0.481
1150.000	657.793	80.001	19.997	103.170	19.925	6.073	0.497
1152.001	658.792	80.001	19.994	103.173	19.927	5.956	0.457
1154.000	659.850	80.001	19.995	103.174	19.926	5.989	0.521
1156.000	660.847	80.006	19.995	103.173	19.924	6.112	0.488
1158.000	661.864	80.004	19.996	103.184	19.923	6.199	0.492
1160.001	662.880	80.004	19.993	103.178	19.921	6.337	0.534
1162.001	663.882	80.005	19.994	103.178	19.922	6.322	0.514
1164.000	664.899	80.004	19.993	103.178	19.922	6.300	0.524
1166.000	665.891	80.005	19.991	103.175	19.913	6.975	0.507
1168.000	666.943	80.009	19.991	103.176	19.918	6.563	0.534
1170.001	667.923	80.004	19.994	103.176	19.919	6.480	0.524
1172.000	668.882	80.008	19.992	103.177	19.918	6.584	0.477
1174.000	669.929	80.003	19.996	103.179	19.918	6.615	0.529
1176.000	670.946	80.006	19.994	103.180	19.919	6.507	0.503
1178.000	672.022	80.002	19.995	103.182	19.916	6.738	0.568
1180.000	672.754	80.003	19.994	103.178	19.920	6.427	0.753
1182.000	673.980	80.003	19.991	103.177	19.917	6.656	0.506
1184.000	675.007	80.008	19.993	103.175	19.919	6.513	0.483
1186.001	676.075	80.003	19.993	103.177	19.916	6.728	0.542
1188.000	677.041	80.005	19.995	103.173	19.917	6.642	0.506
1190.000	678.053	80.002	20.000	103.174	19.914	6.902	0.526
1192.000	679.039	80.006	19.992	103.172	19.921	6.355	0.525
1194.001	680.056	80.011	19.993	103.172	19.920	6.472	0.516
1196.000	681.063	80.004	19.998	103.171	19.921	6.364	0.497
1198.000	682.086	80.005	19.996	103.174	19.919	6.521	0.520
1200.000	683.036	80.002	19.997	103.178	19.922	6.317	0.477
1202.001	684.053	80.000	19.990	103.179	19.922	6.284	0.536
1204.000	685.063	79.996	19.994	103.177	19.922	6.316	0.485
1206.000	686.106	80.005	19.993	103.173	19.920	6.409	0.529
1208.000	687.044	80.005	19.996	103.169	19.921	6.329	0.502
1210.000	688.095	80.005	19.995	103.168	19.920	6.425	0.530
1212.000	689.053	80.007	19.993	103.171	19.919	6.525	0.513
1214.000	690.016	80.008	19.993	103.174	19.918	6.572	0.526
1216.000	690.977	80.006	19.997	103.174	19.922	6.304	0.474
1218.000	691.981	80.005	19.994	103.173	19.920	6.404	0.498
1220.000	692.980	80.003	19.995	103.172	19.921	6.400	0.498
1222.001	693.940	79.999	19.998	103.172	19.919	6.478	0.495
1224.001	694.958	80.008	19.992	103.171	19.916	6.742	0.499
1226.000	695.939	80.009	19.990	103.172	19.919	6.489	0.511
1228.001	696.945	80.001	19.996	103.174	19.919	6.529	0.513
1230.000	697.956	80.001	19.995	103.171	19.917	6.631	0.511
1232.001	698.994	80.003	19.992	103.169	19.917	6.619	0.502
1234.000	699.963	80.002	19.993	103.169	19.919	6.519	0.512
1236.000	700.926	80.000	20.000	103.172	19.916	6.736	0.481
1238.001	701.927	80.003	19.996	103.158	19.920	6.425	0.492
1240.000	702.910	80.000	19.994	103.153	19.915	6.820	0.466
1242.000	703.883	80.001	20.001	103.143	19.918	6.595	0.466
1244.001	704.886	80.006	19.996	103.141	19.920	6.440	0.511
1246.000	705.879	80.001	19.991	103.137	19.918	6.581	0.496
1248.000	706.886	80.010	19.992	103.137	19.915	6.792	0.502
1250.000	707.896	80.008	19.991	103.137	19.916	6.722	0.481
1252.000	708.915	80.005	19.992	103.133	19.918	6.599	0.541
1254.000	709.903	80.003	19.992	103.133	19.917	6.661	0.503
1256.000	710.943	80.004	19.996	103.133	19.918	6.597	0.522
1258.000	711.965	80.008	19.989	103.130	19.913	6.968	0.517
1260.000	712.974	80.004	19.993	103.132	19.915	6.807	0.508
1262.001	713.976	80.004	19.990	103.133	19.913	6.960	0.485
1264.000	715.003	80.003	19.993	103.135	19.914	6.860	0.520
1266.001	716.034	80.004	19.997	103.135	19.916	6.733	0.504
1268.001	717.096	80.011	19.988	103.133	19.916	6.757	0.518
1270.000	718.087	80.002	20.000	103.135	19.915	6.778	0.508
1272.000	719.102	79.996	19.998	103.125	19.917	6.620	0.496
1274.000	720.094	80.008	19.994	103.127	19.914	6.890	0.489
1276.000	721.098	80.005	19.995	103.131	19.919	6.499	0.472
1278.000	722.174	80.005	19.996	103.131	19.920	6.444	0.533
1280.001	723.134	80.006	19.994	103.131	19.917	6.675	0.484
1282.000	724.206	80.006	19.994	103.136	19.918	6.589	0.533
1284.000	725.253	80.006	19.991	103.138	19.919	6.483	0.513
1286.001	726.292	80.003	19.999	103.135	19.918	6.573	0.531
1288.001	727.245	80.000	19.998	103.133	19.915	6.802	0.516
1290.000	728.312	80.005	19.994	103.133	19.914	6.874	0.546
1292.001	729.321	80.006	19.995	103.133	19.917	6.661	0.489
1294.000	730.353	80.003	19.994	103.132	19.916	6.755	0.490
1296.000	731.431	80.007	19.992	103.133	19.918	6.569	0.521
1298.001	732.439	80.009	19.996	103.132	19.919	6.501	0.561
1300.000	733.466	80.004	19.997	103.131	19.914	6.845	0.497
1302.001	734.510	80.008	19.991	103.129	19.913	6.909	0.528
1304.000	735.485	80.005	19.994	103.134	19.914	6.876	0.485
1306.000	736.535	80.006	19.995	103.134	19.915	6.810	0.513
1308.000	737.534	80.004	19.995	103.136	19.914	6.856	0.546
1310.000	738.572	80.005	19.994	103.133	19.915	6.835	0.537
1312.000	739.593	80.003	19.995	103.132	19.913	6.960	0.527
1314.000	740.565	80.004	19.995	103.133	19.914	6.850	0.501
1316.001	741.602	80.003	19.993	103.134	19.915	6.833	0.548
1318.000	742.585	80.004	19.992	103.132	19.918	6.569	0.516
1320.000	743.578	80.007	19.993	103.131	19.912	7.013	0.519
1322.001	744.627	80.004	19.995	103.133	19.915	6.813	0.529
1323.000	745.136	80.004	19.993	103.133	19.916	6.753	0.507