File: 02_Data/MDF/Cone/MDF_Cone_HF25scan_210323_R1.csv
Names,Time,Stack TC,Smoke TC,Exh Press,Smoke Comp,Smoke Meas,CO Meter,CO2 Meter,O2 Meter,Sample Mass,Ext Coeff,Start Test,Flame Verif
Chan Gain,,500,500,1,1,1,1,1,1,1,1,1,1
Offset,,0,0,0.194005,0,0,0,0,0,0,0,0,0
Gain,,1,1,25.011,13.5067,16.616,1,1,1,1.00091,1.04608,1,1
Units,sec,C,C,Pa,%,%,%,%,%,g,/m,,
Baseline,,18.6598,20.0589,175.721,101.346,101.076,0.000296106,0.0424434,20.9654,-0.0313619,0.02450805,,
14,3.25,17.2212,19.1478,181.988,101.437,101.361,9.54721E-05,0.0485418,20.9567,621.766,0.006880104,0,0
28,6.75,16.9116,19.2247,175.682,101.166,100.779,0.000159633,0.0508129,20.9557,621.586,0.0351086,0,0
42,10.25,17.6411,18.7132,172.624,100.969,100.933,0.000265456,0.0517513,20.9564,621.586,0.00324059,0,0
56,13.75,17.2419,18.8601,174.671,101.44,101.326,0.000439781,0.0507426,20.9595,621.546,0.01030074,0,0
70,17.25,16.6189,18.7761,178.515,101.838,101.856,0.000525105,0.0486621,20.9633,621.616,-0.00161416,0,0
84,20.75,17.3698,18.6641,177.876,101.876,101.663,0.000337732,0.0469653,20.9666,621.516,0.01922336,0,0
98,24.25,17.3088,19.0591,175.389,101.597,101.65,0.000283813,0.0456426,20.9683,621.496,-0.004755228,0,0
112,27.75,17.8607,18.9204,178.764,101.416,101.252,0.000109392,0.0445831,20.9675,621.496,0.0148811,0,0
126,31.25,18.0458,19.1161,175.88,101.699,101.508,0.000389876,0.0439496,20.9673,621.456,0.0172616,0,0
140,34.75,17.6148,18.7569,178.536,101.934,101.807,0.000689439,0.0435541,20.9673,621.446,0.0114676,0,0
154,38.25,17.9333,18.4823,172.8069,102.129,102.198,0.00053758,0.0431826,20.9689,621.376,-0.006168813,0,0
168,41.75,17.123,18.6122,168.836,102.117,101.743,0.000343957,0.0429031,20.9699,621.245,0.0336516,0,0
182,45.25,17.1859,18.1566,172.902,101.938,101.693,0.000225393,0.0429598,20.9693,621.225,0.0221276,0,0
196,48.75,17.3127,18.7197,173.008,101.593,101.455,0.00015115,0.0431616,20.9696,621.245,0.0124574,0,0
210,52.25,17.0661,18.5433,170.649,101.166,101.096,3.25314E-05,0.04325306,20.9696,621.235,0.006334651,0,0
224,55.75,17.2371,18.3324,176.239,100.751,100.307,0.000173703,0.0430878,20.9695,621.175,0.0404673,0,0
238,59.25,17.8534,19.556,177.799,100.422,99.9919,0.0003343,0.0430148,20.9685,621.175,0.0393967,0,0
252,62.75,17.6027,18.8817,170.58,100.257,100.116,0.000140416,0.0429553,20.9685,621.085,0.0129337,0,0
266,66.25,17.3987,19.2586,174.415,100.249,99.9742,0.000145704,0.0429857,20.9689,621.075,0.0251553,0,0
280,69.75,17.5245,18.7991,176.99,100.402,99.7511,0.000358843,0.0430781,20.9698,621.075,0.05971916,0,0
294,73.25,17.377,18.8083,178.244,100.633,99.8809,0.000554537,0.0432662,20.97,620.975,0.0688577,0,0
308,76.75,17.875,19.1553,175.785,100.912,100.216,0.000441727,0.0432206,20.9702,621.005,0.0634884,0,0
322,80.25,17.636,19.0715,172.202,101.163,100.351,8.01786E-05,0.0432672,20.9691,620.955,0.0739352,0,0
336,83.75,17.9764,18.8296,175.91,101.359,100.725,7.9123E-05,0.0433315,20.9688,620.905,0.0576149,0,0
350,87.25,17.8149,19.3415,177.445,101.471,100.613,0.000144639,0.0434534,20.9687,620.855,0.0779275,0,0
364,90.75,17.6942,19.2878,177.856,101.54,100.707,2.57043E-05,0.0437031,20.9663,620.825,0.0755605,0,0
378,94.25,17.2651,19.2089,170.32,101.537,100.832,2.67823E-07,0.0438006,20.9657,620.765,0.0639317,0,0
392,97.75,18.0841,19.6697,170.983,101.481,100.403,0.0001583,0.0440297,20.9657,620.745,0.098034,0,0
406,101.25,17.5109,19.4969,178.06,101.389,100.425,0.000140683,0.0443787,20.9662,620.735,0.0876428,0,0
420,104.75,17.8975,19.0304,175.413,101.253,100.138,0.000291591,0.044676,20.9663,620.725,0.10154,0,0
434,108.25,18.1596,19.6403,174.514,101.15,99.5635,0.000221391,0.04485932,20.9646,620.675,0.145078,0,0
448,111.75,18.0136,19.7269,177.918,101.026,99.9869,0.00045913,0.0453198,20.9653,620.605,0.0949123,0,0
462,115.25,17.852,18.6673,169.82,100.967,99.7141,0.000783346,0.0458731,20.9665,620.535,0.114589,0,0
476,118.75,18.1987,19.7097,172.436,100.913,99.3885,0.000973866,0.0465172,20.9667,620.515,0.139726,0,0
490,122.25,17.7122,19.3849,170.181,100.93,98.9646,0.000946405,0.0470212,20.9668,620.415,0.18041,0,0
504,125.75,18.2228,19.3205,176.927,101.167,99.5168,0.000958573,0.0477258,20.9662,620.305,0.150874,0,0
518,129.25,18.0924,19.5079,173.36,101.371,99.1416,0.001140294,0.0483274,20.9649,620.295,0.204027,0,0
532,132.75,18.4507,19.5862,169.981,101.504,98.8677,0.001440684,0.0489649,20.9646,620.174,0.241449,0,0
546,136.25,18.4103,19.8968,176.654,101.601,98.7846,0.001719029,0.0505009,20.9617,620.024,0.257961,0,0
560,139.75,19.2088,22.0159,165.373,101.696,102.095,0.00147828,0.0784249,20.8839,619.774,-0.0359358,0,1
574,143.25,22.908,26.8437,151.644,101.755,102.658,0.001648914,0.155973,20.739,619.394,-0.0810236,0,1
588,146.75,27.3462,34.0808,156.277,101.797,101.274,0.002215005,0.250209,20.6205,618.863,0.0472562,0,0
602,150.25,31.3093,40.2675,148.589,101.81,103.394,0.00268265,0.330097,20.5463,618.303,-0.141704,0,0
616,153.75,34.6249,44.5597,147.654,101.831,100.715,0.003014489,0.388879,20.4967,617.712,0.101202,0,0
630,157.25,37.3214,48.5314,157.712,101.847,101.311,0.003309476,0.430266,20.4761,617.092,0.0483596,0,0
644,160.75,38.8221,50.789,156.571,101.822,101.666,0.003582106,0.451365,20.4731,616.571,0.0140379,0,0
658,164.25,40.172,52.3406,156.445,101.804,99.2217,0.003915031,0.463698,20.4731,616.001,0.235783,0,0
672,167.75,41.3198,53.9475,151.808,101.779,100.152,0.003889899,0.469922,20.4771,615.42,0.147827,0,0
686,171.25,42.0711,54.5236,152.928,101.744,99.7485,0.003878921,0.469485,20.4865,614.85,0.181724,0,0
700,174.75,42.1294,54.501,156.571,101.688,98.315,0.003877997,0.463212,20.5031,614.329,0.309496,0,0
714,178.25,42.2104,54.1065,149.4,101.617,97.7091,0.003900181,0.453888,20.5183,613.789,0.359864,0,0
728,181.75,41.77,53.5232,154.052,101.54,99.317,0.003641315,0.445525,20.5285,613.338,0.203162,0,0
742,185.25,41.7163,53.1717,151.767,101.453,98.6396,0.003470184,0.43648,20.5431,612.848,0.258105,0,0
756,188.75,41.6407,52.4201,154.181,101.343,98.4306,0.003400027,0.42496,20.5595,612.337,0.267601,0,0
770,192.25,41.4962,52.4143,162.755,101.308,97.9012,0.003627576,0.415158,20.5711,611.877,0.313914,0,0
784,195.75,41.597,51.6481,155.269,101.335,97.9545,0.003767902,0.405363,20.5841,611.397,0.311351,0,0
798,199.25,41.0797,51.0903,157.092,101.363,98.1071,0.003801251,0.395886,20.5942,610.996,0.299564,0,0
812,202.75,40.8251,50.0493,156.929,101.38,97.9925,0.003652239,0.3865,20.6057,610.556,0.311856,0,0
826,206.25,40.731,49.3272,160.552,101.414,99.1015,0.003310974,0.376066,20.6197,610.085,0.211689,0,0
840,209.75,40.6669,48.6132,167.922,101.449,99.4377,0.003175074,0.364489,20.6343,609.685,0.183708,0,0
854,213.25,39.3546,47.7986,155.368,101.47,99.7105,0.002881281,0.354739,20.6412,609.265,0.160544,0,0
868,216.75,39.5522,47.478,164.335,101.505,98.7045,0.002896545,0.346983,20.6496,608.834,0.256765,0,0
882,220.25,39.6089,47.5373,161.833,101.532,99.9174,0.002763657,0.340211,20.6539,608.474,0.147113,0,0
896,223.75,39.7323,46.4736,161.713,101.589,99.6258,0.002761163,0.333702,20.6622,608.094,0.179068,0,0
910,227.25,38.7312,46.4161,161.017,101.604,99.6466,0.002689941,0.326316,20.67,607.653,0.178532,0,0
924,230.75,38.7243,46.1209,161.954,101.643,100.217,0.00249231,0.320151,20.6753,607.283,0.129657,0,0
938,234.25,38.7526,45.4995,161.308,101.665,99.4423,0.002459454,0.315628,20.6793,606.922,0.202839,0,0
952,237.75,38.3312,44.916,158.287,101.705,100.43,0.002621539,0.310828,20.6835,606.502,0.115747,0,0
966,241.25,37.9778,44.6369,160.369,101.745,100.487,0.002582262,0.306921,20.6869,606.092,0.114204,0,0
980,244.75,38.2485,44.4845,162.478,101.762,100.973,0.002118676,0.30199,20.6928,605.741,0.0714381,0,0
994,248.25,37.9805,43.8359,158.563,101.801,101.594,0.00205468,0.296127,20.7008,605.371,0.0186906,0,0
1008,251.75,38.1475,43.5382,165.963,101.83,101.085,0.002439475,0.291602,20.7047,605.051,0.067381,0,0
1022,255.25,38.1433,44.0214,159.569,101.85,101.029,0.00240594,0.287641,20.7082,604.71,0.074238,0,0
1036,258.75,37.5427,43.3284,160.775,101.86,102.006,0.00222546,0.283755,20.7114,604.39,-0.0131124,0,0
1050,262.25,37.5462,43.3694,160.505,101.882,101.348,0.002137952,0.279616,20.7145,603.99,0.0481648,0,0
1064,265.75,37.6876,42.9853,163.952,101.895,102.251,0.001779878,0.27622,20.7171,603.569,-0.0320453,0,0
1078,269.25,37.1882,42.8335,158.154,101.923,101.407,0.001892519,0.274797,20.7183,603.279,0.046551,0,0
1092,272.75,37.2356,42.6007,162.501,101.923,101.9,0.001945757,0.272928,20.7203,602.949,0.002105474,0,0
1106,276.25,37.6885,42.4535,163.575,101.945,101.569,0.001869407,0.271036,20.7238,602.699,0.0338924,0,0
1120,279.75,37.0034,42.2836,160.2,101.938,102.907,0.001997228,0.268194,20.7286,602.368,-0.0868452,0,0
1134,283.25,37.1261,41.9338,159.653,101.947,102.325,0.001739982,0.26482,20.7335,602.048,-0.0339363,0,0
1148,286.75,37.4153,41.9149,165.785,101.949,102.868,0.001560937,0.261561,20.7361,601.738,-0.0823607,0,0
1162,290.25,37.1185,41.9873,163.284,101.946,102.622,0.001809812,0.259053,20.7377,601.377,-0.0606934,0,0
1176,293.75,36.9245,41.8075,165.992,101.961,102.842,0.002075025,0.257068,20.7388,601.097,-0.0789773,0,0
1190,297.25,36.965,41.9417,164.368,101.943,102.7,0.001856265,0.255265,20.7402,600.767,-0.0678872,0,0
1204,300.75,37.0545,41.8193,159.738,101.947,102.9,0.001433558,0.252681,20.7435,600.477,-0.0853132,0,0
1218,304.25,36.9664,41.6155,169.168,101.94,102.637,0.001570817,0.251085,20.7432,600.136,-0.0625275,0,0
1232,307.75,36.9774,41.5728,163.245,101.936,102.336,0.001785804,0.249903,20.7454,599.836,-0.0359386,0,0
1246,311.25,36.9084,41.5056,160.984,101.93,102.66,0.001672742,0.247327,20.75,599.496,-0.0654659,0,0
1260,314.75,36.7016,40.8781,164.74,101.916,102.662,0.00161541,0.243986,20.754,599.205,-0.0668635,0,0
1274,318.25,35.95,40.9746,166.115,101.915,102.906,0.001654683,0.241605,20.7563,598.835,-0.0888326,0,0
1288,321.75,36.6415,41.167,163.296,101.911,103.126,0.001431903,0.239239,20.7579,598.515,-0.108806,0,0
1302,325.25,36.4316,40.7163,163.641,101.899,102.828,0.001305315,0.237393,20.7601,598.245,-0.0832686,0,0
1316,328.75,36.732,40.8025,166.057,101.888,102.759,0.001351296,0.234967,20.7624,597.884,-0.0780781,0,0
1330,332.25,36.0999,40.757,161.372,101.871,102.558,0.001427377,0.232534,20.7632,597.634,-0.0616597,0,0
1344,335.75,36.3151,40.5049,164.504,101.86,102.416,0.001573313,0.231744,20.7643,597.224,-0.0499042,0,0
1358,339.25,36.3217,40.3549,163.542,101.848,103.04,0.00147059,0.229984,20.7662,596.913,-0.106739,0,0
1372,342.75,36.2546,40.4745,162.907,101.823,102.713,0.0012947,0.229059,20.765,596.663,-0.0798765,0,0
1386,346.25,35.9682,40.6142,167.2556,101.823,103.483,0.001519993,0.228889,20.7656,596.373,-0.148342,0,0
1400,349.75,36.0477,40.6234,161.048,101.809,102.802,0.001646468,0.227912,20.7673,596.063,-0.0890557,0,0
1414,353.25,36.1902,40.5878,165.903,101.798,102.737,0.001777369,0.226121,20.7703,595.672,-0.0842268,0,0
1428,356.75,35.6449,39.7821,164.926,101.782,102.655,0.001799801,0.22441,20.7716,595.422,-0.0782988,0,0
1442,360.25,36.1202,40.2673,171.33,101.758,102.39,0.001846497,0.223664,20.7719,595.092,-0.05676318,0,0
1456,363.75,36.1538,40.0729,168.611,101.759,102.361,0.00168798,0.223005,20.7725,594.791,-0.0541346,0,0
1470,367.25,35.4672,39.7094,160.377,101.722,103.078,0.00155915,0.221782,20.7732,594.461,-0.121451,0,0
1484,370.75,36.0372,39.6612,163.423,101.705,103.193,0.001617617,0.22133,20.7739,594.241,-0.133262,0,0
1498,374.25,35.5293,39.5132,162.894,101.664,102.565,0.00164109,0.220817,20.7743,593.941,-0.0809436,0,0
1512,377.75,35.915,39.3737,166.156,101.645,102.599,0.001696519,0.220251,20.7763,593.64,-0.0857399,0,0
1526,381.25,35.8071,39.3495,163.787,101.603,102.904,0.001855338,0.219041,20.7781,593.35,-0.116789,0,0
1540,384.75,35.5039,39.0412,163.733,101.572,102.443,0.001724283,0.217294,20.7803,593.07,-0.07834895,0,0
1554,388.25,35.6873,38.8628,166.135,101.554,102.99,0.001534041,0.216316,20.7808,592.75,-0.128829,0,0
1568,391.75,35.1188,38.4043,166.84,101.527,102.166,0.001644409,0.215875,20.7812,592.379,-0.0575298,0,0
1582,395.25,34.9523,38.6331,167.644,101.51,102.478,0.001725546,0.215446,20.7815,592.099,-0.0871069,0,0
1596,398.75,34.3138,37.7127,160.9,101.475,102.328,0.001618181,0.214115,20.783,591.829,-0.0767428,0,0
1610,402.25,34.4837,38.0478,161.778,101.456,102.322,0.001637191,0.213059,20.7837,591.589,-0.0779943,0,0
1624,405.75,34.5155,38.1212,165.018,101.42,102.135,0.001650882,0.21229,20.7853,591.318,-0.0644513,0,0
1638,409.25,34.3537,37.9135,164.672,101.395,103.173,0.001562134,0.211179,20.786,591.028,-0.159467,0,0
1652,412.75,33.5535,37.5267,170.004,101.361,102.291,0.001336588,0.210198,20.7862,590.678,-0.0837532,0,0
1666,416.25,34.0123,37.4566,168.794,101.333,102.053,0.001190888,0.209925,20.7852,590.397,-0.0649321,0,0
1680,419.75,34.2677,37.8845,167.045,101.311,101.543,0.001263725,0.210165,20.7832,590.177,-0.0209734,0,0
1694,423.25,34.298,37.8412,161.801,101.417,102.29,0.001259271,0.210039,20.7845,589.847,-0.0785884,0,0
1708,426.75,34.5626,37.9649,165.685,101.513,102.11,0.001394288,0.209756,20.7859,589.577,-0.0538227,0,0
1722,430.25,34.3637,37.8532,162.985,101.605,103.578,0.001466966,0.209305,20.7858,589.326,-0.176463,0,0
1736,433.75,34.351,38.0451,157.532,101.67,102.454,0.001378037,0.208942,20.7858,589.036,-0.07048995,0,0
1750,437.25,34.5136,37.8638,161.205,101.716,102.57,0.001318802,0.20891,20.7834,588.776,-0.076719,0,0
1764,440.75,34.0808,37.3052,170.437,101.779,102.684,0.001435797,0.2091,20.7854,588.456,-0.081262,0,0
1778,444.25,33.4065,37.6372,163.525,101.802,103.575,0.001538524,0.208736,20.7865,588.215,-0.158462,0,0
1792,447.75,34.6671,38.1483,161.291,101.841,102.649,0.001585091,0.208042,20.7887,587.955,-0.072525,0,0
1806,451.25,33.7534,37.2733,165.643,101.856,103.044,0.001640669,0.206719,20.7897,587.715,-0.106386,0,0
1820,454.75,34.0256,37.4624,160.116,101.848,102.959,0.001632005,0.206365,20.7909,587.405,-0.0995112,0,0
1834,458.25,33.8029,37.3017,167.326,101.832,102.734,0.001647165,0.205924,20.7902,587.134,-0.0809089,0,0
1848,461.75,33.9401,37.7952,165.653,101.811,102.734,0.001501783,0.205603,20.7906,586.914,-0.0828033,0,0
1862,465.25,34.4894,37.8157,167.163,101.769,103.039,0.001531742,0.204697,20.7898,586.644,-0.113864,0,0
1876,468.75,34.1647,37.4024,163.949,101.723,102.979,0.001588938,0.203801,20.7908,586.344,-0.112578,0,0
1890,472.25,34.0902,37.3744,167.001,101.652,102.012,0.001568673,0.20199,20.7946,586.064,-0.03243,0,0
1904,475.75,33.6467,36.7379,159.92,101.571,102.458,0.001549318,0.201059,20.7946,585.853,-0.07986109,0,0
1918,479.25,32.961,36.4475,162.58,101.472,102.283,0.001369107,0.200514,20.792,585.593,-0.0730841,0,0
1932,482.75,33.2345,37.1774,164.495,101.376,102.228,0.00139327,0.201019,20.7912,585.373,-0.0768133,0,0
1946,486.25,34.2263,37.4982,163.605,101.278,102.362,0.001498355,0.200482,20.7918,585.073,-0.0976608,0,0
1960,489.75,33.2025,36.6687,165.312,101.184,101.944,0.001474669,0.199115,20.7953,584.812,-0.068646,0,0
1974,493.25,33.2277,36.3993,162.271,101.044,102.065,0.001476744,0.198417,20.7967,584.532,-0.0922666,0,0
1988,496.75,33.1082,36.8899,165.095,100.933,101.631,0.001426201,0.19822,20.7967,584.242,-0.0631966,0,0
2002,500.25,32.7279,36.8296,163.965,100.925,102.07,0.001565415,0.197925,20.797,584.022,-0.103547,0,0
2016,503.75,32.8443,36.1861,165.631,100.935,101.669,0.001455867,0.19807,20.797,583.731,-0.0665175,0,0
2030,507.25,32.9544,36.239,166.076,100.95,101.65,0.00133661,0.197012,20.7971,583.561,-0.0634373,0,0
2044,510.75,33.0804,35.6826,166.401,100.989,101.981,0.00143973,0.196331,20.7954,583.341,-0.0896378,0,0
2058,514.25,32.9715,35.55,162.833,101.013,101.869,0.001708189,0.196201,20.7949,583.041,-0.0774603,0,0
2072,517.75,33.326,36.0487,165.001,101.047,101.97,0.001608052,0.196201,20.7965,582.76,-0.083475,0,0
2086,521.25,32.9057,36.2175,167.088,101.088,101.855,0.001539487,0.195236,20.7972,582.51,-0.069369,0,0
2100,524.75,32.6636,35.3803,168.03,101.145,101.866,0.001540193,0.194927,20.7988,582.37,-0.0651288,0,0
2114,528.25,32.3486,35.6486,161.171,101.187,102.523,0.001491196,0.194447,20.7999,582.1,-0.120323,0,0
2128,531.75,32.6797,34.949,167.266,101.2416,101.694,0.001606669,0.193722,20.8016,581.88,-0.04088496,0,0
2142,535.25,32.6329,35.9126,168.736,101.295,101.74,0.001802217,0.192273,20.8024,581.569,-0.040229,0,0
2156,538.75,32.1136,35.1164,169.864,101.347,102.451,0.001830345,0.191953,20.8009,581.379,-0.0993846,0,0
2170,542.25,32.8273,35.8566,165.054,101.374,101.917,0.001848398,0.191943,20.8005,581.079,-0.0490925,0,0
2184,545.75,32.49,35.6565,164.926,101.417,102.044,0.002067022,0.191993,20.8006,580.799,-0.0565001,0,0
2198,549.25,32.1271,35.073,166.726,101.467,101.921,0.002146491,0.190887,20.8031,580.559,-0.0409553,0,0
2212,552.75,32.4417,35.2776,162.732,101.48,102.192,0.002309608,0.188778,20.8045,580.408,-0.0641461,0,0
2226,556.25,31.4855,35.2493,171.723,101.51,102.25,0.002242678,0.18892,20.8025,580.148,-0.0666519,0,0
2240,559.75,32.0073,35.5418,162.058,101.528,102.358,0.002027436,0.18831,20.8033,579.938,-0.0747464,0,0
2254,563.25,32.6638,35.4751,163.213,101.55,102.527,0.001878006,0.188464,20.8041,579.708,-0.0879341,0,0
2268,566.75,32.7464,36.2083,166.817,101.548,101.824,0.001643961,0.187295,20.8066,579.457,-0.0248828,0,0
2282,570.25,32.0852,35.6181,163.959,101.555,102.457,0.001738448,0.185965,20.8088,579.227,-0.0811401,0,0
2296,573.75,32.1673,34.9469,164.657,101.552,102.336,0.002136611,0.185089,20.8089,578.947,-0.0705032,0,0
2310,577.25,31.8828,35.2786,165.336,101.584,102.217,0.002363523,0.183459,20.8086,578.747,-0.0570268,0,0
2324,580.75,31.6711,34.3412,165.319,101.547,102.676,0.002375934,0.183247,20.8112,578.467,-0.101491,0,0
2338,584.25,31.9833,34.8023,164.016,101.533,102.332,0.002250747,0.183728,20.8122,578.386,-0.0719727,0,0
2352,587.75,32.2697,35.3889,167.505,101.543,102.972,0.002098077,0.183124,20.8128,578.066,-0.128208,0,0
2366,591.25,32.3355,34.4064,164.946,101.518,102.531,0.002262208,0.182489,20.8144,577.926,-0.0911203,0,0
2380,594.75,31.3341,34.4679,170.587,101.508,102.31,0.002240987,0.181886,20.8147,577.576,-0.0722158,0,0
2394,598.25,31.5377,34.4865,167.786,101.49,101.852,0.00203869,0.181183,20.8145,577.406,-0.0327319,0,0
2408,601.75,30.8252,34.3517,161.404,101.471,102.042,0.002088051,0.180566,20.8159,577.105,-0.05151616,0,0
2422,605.25,30.633,34.0403,168.844,101.448,101.977,0.002368615,0.179164,20.8165,576.805,-0.0477279,0,0
2436,608.75,31.1781,33.761,166.792,101.43,101.93,0.002628495,0.178675,20.8167,576.655,-0.0452074,0,0
2450,612.25,30.6471,33.4126,166.234,101.411,101.947,0.00277914,0.178849,20.8165,576.505,-0.0483546,0,0
2464,615.75,31.5585,34.2527,166.642,101.383,102.212,0.002672357,0.179146,20.8161,576.285,-0.0747602,0,0
2478,619.25,30.7763,33.9119,167.678,101.366,102.326,0.002532157,0.178507,20.8172,576.114,-0.0864068,0,0
2492,622.75,31.1431,34.1787,168.079,101.333,102.033,0.002576809,0.179017,20.816,575.924,-0.0631911,0,0
2506,626.25,30.8575,34.0078,167.886,101.334,101.913,0.002573488,0.179541,20.815,575.664,-0.052273,0,0
2520,629.75,31.295,33.8265,169.09,101.29,101.629,0.002657383,0.178441,20.8167,575.374,-0.0306557,0,0
2534,633.25,31.2812,34.0915,162.271,101.272,102.375,0.002776862,0.177033,20.8198,575.234,-0.0994476,0,0
2548,636.75,30.8804,33.6799,168.591,101.243,101.641,0.002890499,0.175679,20.821,575.023,-0.0360127,0,0
2562,640.25,30.6641,33.0788,166.231,101.205,101.736,0.003453282,0.174695,20.8205,574.823,-0.0480528,0,0
2576,643.75,30.7102,33.2628,167.775,101.161,101.574,0.003806411,0.175181,20.8178,574.533,-0.03740529,0,0
2590,647.25,30.7287,33.617,169.594,101.107,101.666,0.003442397,0.176534,20.8152,574.363,-0.050601,0,0
2604,650.75,31.0808,33.6579,163.755,101.049,101.306,0.003330373,0.175589,20.8178,574.163,-0.0233238,0,0
2618,654.25,30.5005,33.3669,162.402,101.016,101.396,0.003179121,0.1744221,20.819,573.962,-0.0344369,0,0
2632,657.75,30.6984,33.3289,161.654,100.981,101.384,0.003131826,0.173357,20.8208,573.752,-0.0366107,0,0
2646,661.25,30.673,33.3861,165.989,100.924,101.161,0.003255259,0.172792,20.8208,573.572,-0.0215271,0,0
2660,664.75,30.4292,33.3167,165.826,100.91,101.626,0.003240722,0.173109,20.8194,573.322,-0.0648743,0,0
2674,668.25,30.8406,33.2982,166.017,100.867,101.853,0.002934515,0.173309,20.8197,573.162,-0.0893086,0,0
2688,671.75,30.7895,33.1468,163.79,100.863,101.428,0.002832005,0.172756,20.8207,572.891,-0.051283,0,0
2702,675.25,30.6907,32.7842,167.087,100.845,101.412,0.002736163,0.171778,20.8218,572.671,-0.0514199,0,0
2716,678.75,30.0906,32.6716,165.256,100.849,101.761,0.002895948,0.170787,20.8227,572.481,-0.0825947,0,0
2730,682.25,30.5257,33.0351,170.521,100.795,101.488,0.003144819,0.17031,20.8229,572.261,-0.0628849,0,0
2744,685.75,30.1367,32.7341,166.923,100.792,101.314,0.003069792,0.170348,20.823,572.011,-0.0474079,0,0
2758,689.25,30.3894,33.2245,166.775,100.774,101.49,0.003127385,0.17065,20.823,571.82,-0.06501969,0,0
2772,692.75,30.6999,33.4699,172.695,100.751,101.174,0.003120873,0.170348,20.8236,571.61,-0.0385147,0,0
2786,696.25,30.0166,32.9099,166.229,100.738,101.157,0.003276359,0.169067,20.8249,571.41,-0.0381148,0,0
2800,699.75,30.081,32.2629,171.834,100.704,101.212,0.003640608,0.168099,20.8252,571.21,-0.04615999,0,0
2814,703.25,29.9281,32.2048,169.99,100.705,101.575,0.003704025,0.16789,20.826,571.08,-0.07890556,0,0
2828,706.75,30.105,32.6245,171.174,100.688,101.191,0.004142875,0.1677448,20.8272,570.87,-0.0456939,0,0
2842,710.25,29.7567,32.5411,164.871,100.678,101.406,0.004216946,0.167152,20.8275,570.639,-0.066155,0,0
2856,713.75,29.8293,32.429,172.303,100.67,100.938,0.004219302,0.167096,20.8276,570.419,-0.0243355,0,0
2870,717.25,29.7978,32.1755,167.16,100.657,101.142,0.00401249,0.166485,20.8278,570.299,-0.0441796,0,0
2884,720.75,30.1176,32.1748,165.535,100.645,101.013,0.003603393,0.166374,20.8289,570.029,-0.0335311,0,0
2898,724.25,29.7392,32.4607,165.45,100.634,101.125,0.003844337,0.166452,20.8295,569.879,-0.0447199,0,0
2912,727.75,29.7226,31.6979,169.043,100.624,101.017,0.004213839,0.165198,20.833,569.679,-0.0358167,0,0
2926,731.25,29.3328,32.2368,166.039,100.592,100.998,0.004380502,0.164811,20.8328,569.428,-0.0370066,0,0
2940,734.75,29.8645,32.0333,169.797,100.578,101.407,0.004197528,0.164513,20.8322,569.298,-0.0753342,0,0
2954,738.25,30.3386,32.7419,167.025,100.533,101.278,0.003935465,0.164732,20.8304,569.078,-0.0677346,0,0
2968,741.75,29.4642,32.0573,169.411,100.526,101.489,0.00383436,0.1654578,20.8298,568.858,-0.0875503,0,0
2982,745.25,29.7003,31.97,168.552,100.481,101.158,0.004269267,0.164792,20.8302,568.658,-0.0616652,0,0
2996,748.75,29.8308,32.3315,162.7,100.459,100.622,0.004506291,0.164571,20.8307,568.467,-0.0148658,0,0
3010,752.25,29.408,31.8736,167.93,100.414,100.814,0.004465498,0.163557,20.8323,568.267,-0.0365261,0,0
3024,755.75,29.5825,32.0101,167.523,100.379,100.854,0.004482632,0.163635,20.8332,568.057,-0.0433273,0,0
3038,759.25,29.2158,31.7585,168.739,100.336,100.514,0.004516691,0.162562,20.8334,567.807,-0.0162371,0,0
3052,762.75,28.9142,31.5222,169.843,100.317,101.122,0.004537189,0.162651,20.833,567.737,-0.0733928,0,0
3066,766.25,29.0702,31.9554,168.064,100.305,100.546,0.004337159,0.163621,20.8305,567.567,-0.021981,0,0
3080,769.75,29.3818,31.8925,168.487,100.261,100.372,0.004027325,0.165698,20.8269,567.357,-0.0102132,0,0
3094,773.25,29.7044,32.2219,167.384,100.254,100.477,0.003790917,0.166845,20.8257,567.146,-0.020446,0,0
3108,776.75,29.8666,32.3206,158.999,100.235,100.687,0.003909253,0.166567,20.8264,566.916,-0.0413338,0,0
3122,780.25,29.5137,32.024,169.58,100.241,100.582,0.004242377,0.165492,20.8283,566.766,-0.0311123,0,0
3136,783.75,29.2056,32.0141,170.093,100.249,100.3834,0.004197761,0.164188,20.8298,566.556,-0.0122897,0,0
3150,787.25,29.0835,31.9448,166.153,100.29,100.482,0.004422135,0.162771,20.8317,566.346,-0.0175895,0,0
3164,790.75,29.013,31.6253,168,100.333,100.951,0.004943048,0.162553,20.8323,566.165,-0.0563653,0,0
3178,794.25,28.8034,31.7541,167.559,100.406,100.491,0.005098922,0.163126,20.8324,565.885,-0.007747383,0,0
3192,797.75,29.0074,31.4605,164.45,100.475,101.054,0.004655777,0.16332,20.8324,565.815,-0.052674,0,0
3206,801.25,29.1483,31.5813,170.483,100.55,101.008,0.004582491,0.162878,20.8324,565.605,-0.0416343,0,0
3220,804.75,28.9521,31.4923,167.709,100.65,101.458,0.004791954,0.163393,20.8311,565.425,-0.07335145,0,0
3234,808.25,29.7054,32.6942,169.849,100.742,101.025,0.004721187,0.163546,20.8303,565.215,-0.0256879,0,0
3248,811.75,29.1985,31.7066,165.351,100.879,101.303,0.004562884,0.16339,20.8322,564.834,-0.038474,0,0
3262,815.25,29.171,31.6777,171.938,100.975,101.176,0.00432798,0.162886,20.834,564.674,-0.0183353,0,0
3276,818.75,28.6467,31.0525,167.272,101.096,101.247,0.004326415,0.162526,20.8342,564.484,-0.0137653,0,0
3290,822.25,28.7746,31.135,169.69,101.21,101.668,0.004242835,0.162922,20.8321,564.334,-0.0414734,0,0
3304,825.75,28.7754,31.4693,162.32,101.319,101.538,0.004388616,0.163946,20.8297,564.204,-0.0198431,0,0
3318,829.25,28.8512,31.7718,166.356,101.421,101.803,0.004531103,0.165146,20.8291,564.023,-0.034488,0,0
3332,832.75,29.2351,31.9625,168.758,101.519,101.959,0.004593541,0.165158,20.8301,563.803,-0.0397209,0,0
3346,836.25,28.8819,31.6943,164.473,101.605,102.027,0.004697853,0.163952,20.8323,563.683,-0.0380039,0,0
3360,839.75,28.7115,31.3199,169.171,101.702,101.897,0.004517932,0.163885,20.8315,563.483,-0.0175785,0,0
3374,843.25,29.0493,31.7051,164.566,101.767,102.075,0.00429542,0.165401,20.8292,563.273,-0.027718,0,0
3388,846.75,29.5116,32.0325,166.486,101.833,101.827,0.004388704,0.166865,20.8272,563.103,0.000506452,0,0
3402,850.25,29.2071,31.7183,164.354,101.895,101.942,0.004190253,0.167545,20.8263,562.962,-0.004244137,0,0
3416,853.75,28.7859,31.9379,171.747,101.94,102.164,0.003755266,0.168191,20.8254,562.742,-0.0201413,0,0
3430,857.25,29.3865,32.2005,166.589,101.992,102.15,0.003627042,0.169244,20.8236,562.532,-0.014146,0,0
3444,860.75,29.4117,32.1837,169.058,102.024,102.599,0.003398885,0.170358,20.8216,562.372,-0.0515607,0,0
3458,864.25,29.4247,32.306,170.966,102.068,102.726,0.003261145,0.17161,20.8207,562.202,-0.0589257,0,0
3472,867.75,29.3161,32.7322,166.215,102.094,102.775,0.003225408,0.172904,20.8202,561.992,-0.06098466,0,0
3486,871.25,29.6912,32.3438,162.897,102.12,102.249,0.003269226,0.173554,20.8203,561.801,-0.0116632,0,0
3500,874.75,29.6856,32.8589,164.999,102.131,102.262,0.003060299,0.173752,20.8211,561.611,-0.0117552,0,0
3514,878.25,29.5991,32.9707,171.347,102.16,102.374,0.00313542,0.174471,20.8213,561.421,-0.01921384,0,0
3528,881.75,29.67,32.7954,164.511,102.155,102.222,0.003010422,0.17533,20.8207,561.221,-0.005938947,0,0
3542,885.25,29.8705,33.1963,168.987,102.152,102.45,0.00293681,0.175939,20.819,561.001,-0.02677835,0,0
3556,888.75,29.4294,33.0971,169.367,102.163,102.645,0.003010423,0.177417,20.8156,560.82,-0.0432471,0,0
3570,892.25,30.1031,33.2662,167.169,102.152,102.311,0.003243827,0.179188,20.8135,560.62,-0.0143251,0,0
3584,895.75,29.8705,32.8003,165.006,102.146,102.741,0.003202098,0.179801,20.8117,560.38,-0.0532467,0,0
3598,899.25,29.8086,32.8975,168.484,102.136,102.505,0.003136802,0.180508,20.8112,560.18,-0.03312603,0,0
3612,902.75,30.072,32.6261,167.927,102.12,102.536,0.002761313,0.180305,20.8138,559.99,-0.0373471,0,0
3626,906.25,29.7219,33.0092,173.597,102.101,102.656,0.002578574,0.180053,20.8162,559.8,-0.04970897,0,0
3640,909.75,29.8846,32.8849,166.988,102.085,102.756,0.002249105,0.180735,20.8156,559.619,-0.0600784,0,0
3654,913.25,29.8059,32.7253,169.227,102.049,102.711,0.00221759,0.181252,20.8144,559.419,-0.0593165,0,0
3668,916.75,30.0859,33.3376,165.604,102.009,102.5,0.002449648,0.183249,20.811,559.179,-0.0440477,0,0
3682,920.25,29.8344,33.1093,163.542,101.984,102.399,0.002433121,0.184201,20.8102,558.989,-0.0373092,0,0
3696,923.75,30.194,33.3299,171.333,101.932,102.095,0.002539726,0.185287,20.8085,558.799,-0.0146045,0,0
3710,927.25,30.1631,33.1116,166.308,101.902,102.4,0.002569756,0.18611,20.8078,558.628,-0.0447001,0,0
3724,930.75,30.1703,33.1607,167.314,101.842,102.812,0.00247399,0.186306,20.8068,558.408,-0.0869893,0,0
3738,934.25,30.2753,33.5037,164.751,101.794,102.458,0.002547659,0.187594,20.8063,558.218,-0.0596628,0,0
3752,937.75,30.4019,33.8068,171.383,101.746,102.649,0.002748295,0.189922,20.8035,558.028,-0.0810623,0,0
3766,941.25,30.4407,33.8515,162.436,101.676,102.499,0.002801047,0.191534,20.8013,557.808,-0.0740026,0,0
3780,944.75,30.6329,34.226,163.196,101.627,102.158,0.002851985,0.192707,20.8002,557.638,-0.0477993,0,0
3794,948.25,30.9017,34.741,168.001,101.582,102.092,0.002732193,0.1941,20.7986,557.417,-0.0459253,0,0
3808,951.75,31.0443,34.8816,166.102,101.541,101.852,0.002489941,0.195058,20.7957,557.207,-0.0280746,0,0
3822,955.25,31.3132,34.7348,167.858,101.489,101.711,0.002289408,0.195803,20.7944,556.987,-0.0200514,0,0
3836,958.75,32.4095,35.0613,164.404,101.455,102.042,0.002145687,0.197727,20.7924,556.777,-0.0529249,0,0
3850,962.25,31.4475,35.1876,168.675,101.392,102.137,0.001952666,0.198934,20.7919,556.557,-0.0672073,0,0
3864,965.75,31.788,35.3174,166.517,101.367,101.645,0.001816038,0.20005,20.7918,556.326,-0.0250583,0,0
3878,969.25,31.3691,35.1439,165.07,101.342,101.651,0.001942632,0.201083,20.7906,556.116,-0.0279293,0,0
3892,972.75,31.6021,35.4359,166.279,101.482,101.775,0.001960675,0.202451,20.7887,555.906,-0.0264103,0,0
3906,976.25,31.6799,35.5342,158.983,101.585,102.063,0.002105078,0.204512,20.7881,555.666,-0.0430289,0,0
3920,979.75,31.9864,36.184,161.618,101.67,101.868,0.002313147,0.205894,20.7868,555.446,-0.0177933,0,0
3934,983.25,32.0604,35.9748,165.481,101.738,101.836,0.002265539,0.207634,20.7843,555.225,-0.008825279,0,0
3948,986.75,32.2764,36.3322,163.382,101.792,102.538,0.002017719,0.209153,20.7819,554.975,-0.0670128,0,0
3962,990.25,32.5209,36.6325,163.071,101.831,102.293,0.001848722,0.211503,20.7796,554.765,-0.0414569,0,0
3976,993.75,32.1158,36.2873,165.303,101.862,102.132,0.00154449,0.212906,20.7788,554.515,-0.02432397,0,0
3990,997.25,32.4285,36.7753,165.486,101.879,102.564,0.001507423,0.214316,20.7771,554.295,-0.0614978,0,0
4004,1000.75,32.2417,36.7372,164.169,101.881,102.481,0.001757476,0.215685,20.7751,554.064,-0.0539063,0,0
4018,1004.25,32.7293,37.0643,167.568,101.888,102.718,0.001966977,0.217994,20.7712,553.814,-0.0745369,0,0
4032,1007.75,32.2514,36.7555,159.564,101.859,102.365,0.001659549,0.220108,20.7693,553.534,-0.0454625,0,0
4046,1011.25,33.0854,37.1052,161.518,101.845,102.36,0.00139592,0.221526,20.7678,553.334,-0.0463161,0,0
4060,1014.75,33.4491,37.9381,161.191,101.793,102.171,0.001409982,0.224061,20.7652,553.053,-0.0340252,0,0
4074,1018.25,33.1776,38.0022,163.795,101.73,102.096,0.001336946,0.226086,20.7616,552.823,-0.0328949,0,0
4088,1021.75,34.1737,38.0865,161.613,101.676,102.018,0.001263951,0.228996,20.7594,552.553,-0.0307462,0,0
4102,1025.25,33.6459,37.9056,163.092,101.59,102.187,0.001149091,0.231056,20.758,552.253,-0.0536994,0,0
4116,1028.75,33.9459,38.6895,159.108,101.503,101.578,0.001103744,0.233079,20.7563,552.042,-0.006782365,0,0
4130,1032.25,34.6396,39.1669,160.408,101.408,101.645,0.00116506,0.235693,20.7544,551.762,-0.0214103,0,0
4144,1035.75,34.8395,39.4629,161.613,101.321,101.942,0.001303274,0.238053,20.7487,551.512,-0.0560698,0,0
4158,1039.25,34.7996,39.6215,162.868,101.186,101.349,0.001178878,0.241094,20.7458,551.252,-0.014725,0,0
4172,1042.75,34.3635,39.3784,165.649,101.07,101.435,0.001444016,0.243023,20.7436,550.952,-0.0331118,0,0
4186,1046.25,34.5922,39.2451,163.392,100.93,101.216,0.001601168,0.245559,20.7405,550.661,-0.0259687,0,0
4200,1049.75,34.9966,39.7044,161.146,100.942,101.079,0.001396581,0.248969,20.7363,550.351,-0.0124524,0,0
4214,1053.25,34.94,40.0431,162.74,100.972,101.206,0.001363194,0.251603,20.7338,550.091,-0.0212732,0,0
4228,1056.75,35.6627,39.9907,159.727,101.001,101.935,0.001313601,0.253999,20.7298,549.781,-0.084436,0,0
4242,1060.25,35.0879,40.6343,163.409,101.024,101.479,0.001204777,0.257854,20.7255,549.51,-0.0412481,0,0
4256,1063.75,36.0222,41.1113,157.728,101.064,101.623,0.001483854,0.260865,20.7249,549.19,-0.0505922,0,0
4270,1067.25,36.6678,42.0295,158.156,101.09,101.154,0.001573779,0.262965,20.723,548.88,-0.005830036,0,0
4284,1070.75,36.5429,41.3484,162.247,101.12,101.519,0.001530446,0.266477,20.7168,548.599,-0.0361505,0,0
4298,1074.25,37.1064,42.0747,157.712,101.181,102.596,0.001470022,0.271258,20.7107,548.269,-0.1275,0,0
4312,1077.75,36.9971,42.4137,164.144,101.212,101.136,0.00120682,0.275158,20.7059,547.939,0.00685715,0,0
4326,1081.25,37.2426,42.7086,166.267,101.281,102.052,0.001161091,0.27902,20.7028,547.608,-0.069628,0,0
4340,1084.75,38.2199,44.0631,162.831,101.309,100.405,0.001466457,0.281928,20.6997,547.308,0.08224766,0,0
4354,1088.25,37.9857,43.2624,159.527,101.346,100.839,0.001689129,0.285963,20.6943,546.958,0.04598609,0,0
4368,1091.75,38.0384,43.9152,158.403,101.385,101.271,0.001619721,0.290087,20.6899,546.608,0.01030074,0,0
4382,1095.25,38.5044,44.3091,158.032,101.429,101.403,0.001343147,0.294194,20.685,546.247,0.002399656,0,0
4396,1098.75,38.5702,44.6834,163.094,101.442,100.603,0.001496863,0.298485,20.6792,545.877,0.0761214,0,0
4410,1102.25,39.5277,45.4402,158.991,101.468,100.636,0.001794273,0.302856,20.6751,545.527,0.075502,0,0
4424,1105.75,39.1776,45.1778,157.404,101.498,100.46,0.002085736,0.306778,20.6695,545.156,0.09436442,0,0
4438,1109.25,39.7974,45.8003,156.677,101.515,100.27,0.00212346,0.310953,20.665,544.766,0.113194,0,0
4452,1112.75,39.9201,45.9358,160.914,101.51,100.441,0.002177661,0.314937,20.6609,544.426,0.0971314,0,0
4466,1116.25,40.3064,46.4758,158.594,101.541,100.334,0.002096895,0.318938,20.6551,544.025,0.109695,0,0
4480,1119.75,40.358,46.8563,160.396,101.546,100.12,0.002059708,0.323178,20.6493,543.635,0.129734,0,0
4494,1123.25,40.9701,47.6044,156.737,101.55,100.31,0.002227629,0.328225,20.6436,543.245,0.112694,0,0
4508,1126.75,40.8912,47.6313,156.444,101.554,100.405,0.002312141,0.332967,20.6378,542.854,0.10436,0,0
4522,1130.25,41.2772,48.3232,155.15,101.555,99.5315,0.002477931,0.338013,20.6329,542.424,0.184706,0,0
4536,1133.75,41.8769,48.7228,154.574,101.554,99.494,0.002538856,0.342036,20.6285,541.983,0.188092,0,0
4550,1137.25,41.9446,48.4941,157.5,101.554,100.052,0.00244903,0.345264,20.6239,541.583,0.136792,0,0
4564,1140.75,42.4451,49.4286,157.136,101.539,99.029,0.002299349,0.349267,20.6192,541.183,0.229662,0,0
4578,1144.25,42.5833,49.7866,152.513,101.544,99.4149,0.002508632,0.353785,20.6148,540.752,0.19446,0,0
4592,1147.75,42.6331,49.9691,156.524,101.53,99.6233,0.00263963,0.358066,20.6079,540.292,0.173939,0,0
4606,1151.25,42.911,50.0222,158.628,101.536,99.3753,0.002701355,0.361976,20.6032,539.831,0.197366,0,0
4620,1154.75,43.0811,50.5448,158.802,101.527,98.852,0.00271044,0.366177,20.5985,539.431,0.244995,0,0
4634,1158.25,43.7656,51.3704,157.747,101.526,98.1563,0.002884928,0.369888,20.5927,539.031,0.309767,0,0
4648,1161.75,43.1237,50.9093,158.655,101.513,97.8906,0.003022867,0.375029,20.5885,538.56,0.333448,0,0
4662,1165.25,44.2277,51.2788,153.632,101.515,97.6974,0.003058001,0.379762,20.5848,538.07,0.351762,0,0
4676,1168.75,44.7765,52.1764,150.125,101.503,97.7907,0.002945719,0.384592,20.5772,537.639,0.3419227,0,0
4690,1172.25,45.1058,52.7137,149.614,101.511,97.9722,0.0029785,0.390604,20.5686,537.159,0.325575,0,0
4704,1175.75,45.2876,53.0614,160.72,101.497,97.0965,0.003229087,0.396494,20.5624,536.659,0.406698,0,0
4718,1179.25,46.1487,53.9931,154.865,101.505,96.1037,0.003466253,0.401866,20.5563,536.168,0.501719,0,0
4732,1182.75,46.3229,54.2313,150.814,101.506,97.0722,0.003573786,0.408122,20.547,535.658,0.409855,0,0
4746,1186.25,46.2045,54.6798,150.577,101.48,97.1254,0.003854594,0.414374,20.5398,535.147,0.402438,0,0
4760,1189.75,46.794,55.0358,157.516,101.493,97.4606,0.004016972,0.418858,20.5325,534.677,0.372056,0,0
4774,1193.25,47.6095,55.949,154.471,101.482,97.0372,0.004025471,0.425668,20.5229,534.116,0.411001,0,0
4788,1196.75,48.008,56.5385,152.014,101.484,98.1487,0.004223056,0.43351,20.5134,533.636,0.306677,0,0
4802,1200.25,48.2268,56.9638,160.023,101.478,96.1285,0.004421733,0.438301,20.5088,533.135,0.496923,0,0
4816,1203.75,49.1096,57.5844,154.53,101.484,96.2071,0.004550655,0.444074,20.5,532.615,0.489946,0,0
4830,1207.25,48.6685,57.8022,158.689,101.478,96.2679,0.004697828,0.44956,20.4951,532.034,0.483623,0,0
4844,1210.75,48.9086,58.5768,151.8237,101.477,95.8232,0.004927725,0.456231,20.4843,531.524,0.525998,0,0
4858,1214.25,50.2129,58.9443,155.603,101.489,96.0915,0.005046777,0.462286,20.4766,530.983,0.501428,0,0
4872,1217.75,50.5844,60.2361,151.069,101.485,95.3375,0.005129296,0.46812,20.4676,530.403,0.573381,0,0
4886,1221.25,50.3515,59.3852,147.765,101.492,95.0768,0.005572651,0.474297,20.4612,529.852,0.599172,0,0
4900,1224.75,51.2819,60.7435,148.621,101.479,96.5975,0.005852514,0.479469,20.4526,529.302,0.452335,0,0
4914,1228.25,51.7734,61.5425,156.042,101.483,94.5515,0.00609722,0.485866,20.446,528.721,0.649158,0,0
4928,1231.75,52.3833,62.3997,153.404,101.475,94.1301,0.006408154,0.491404,20.4414,528.161,0.689472,0,0
4942,1235.25,52.9091,63.5812,152.195,101.487,96.1473,0.006535218,0.496821,20.4349,527.57,0.495953,0,0
4956,1238.75,53.4858,63.923,149.611,101.489,93.6636,0.006691608,0.502194,20.4294,526.99,0.736329,0,0
4970,1242.25,53.9449,64.6266,150.285,101.483,94.5241,0.006907391,0.506538,20.4235,526.389,0.651852,0,0
4984,1245.75,54.591,64.728,145.572,101.476,92.5019,0.006921586,0.509907,20.4192,525.809,0.849661,0,0
4998,1249.25,55.0047,65.3882,148.981,101.488,94.2908,0.006960457,0.5111233,20.4194,525.228,0.674934,0,0
5012,1252.75,54.9451,65.2186,148.445,101.476,93.2523,0.007308712,0.509206,20.4219,524.648,0.775514,0,0
5026,1256.25,55.3226,65.7061,144.599,101.491,93.9805,0.007344035,0.506765,20.4246,524.107,0.705482,0,0
5040,1259.75,54.5971,64.4139,149.632,101.486,95.7512,0.007116111,0.502836,20.4303,523.557,0.533753,0,0
5054,1263.25,54.8067,64.3832,148.52,101.498,94.9313,0.007004494,0.496595,20.4398,523.036,0.61375,0,0
5068,1266.75,54.2755,63.8543,153.814,101.49,95.091,0.006991541,0.486031,20.4573,522.526,0.597578,0,0
5082,1270.25,54.393,63.6247,152.243,101.495,96.1564,0.006667117,0.472579,20.4733,522.015,0.495828,0,0
5096,1273.75,54.2569,63.3599,159.298,101.52,97.0788,0.006305598,0.458564,20.4901,521.535,0.410498,0,0
5110,1277.25,53.4074,61.3366,156.706,101.509,97.1178,0.005896023,0.438799,20.512,521.104,0.405765,0,0
5124,1280.75,52.2907,60.1301,154.8,101.533,96.2132,0.005164959,0.415764,20.5462,520.724,0.493838,0,0
5138,1284.25,51.359,58.7182,159.644,101.545,97.8825,0.003877653,0.390352,20.5767,520.364,0.337077,0,0
5152,1287.75,50.3599,56.7096,155.127,101.537,97.2324,0.002864863,0.363269,20.6105,520.053,0.397476,0,0
5166,1291.25,49.6121,55.3915,162.108,101.539,99.0483,0.002684798,0.33552,20.6416,519.783,0.227877,0,0
5180,1294.75,48.0521,52.9621,158.135,101.54,99.4042,0.002606642,0.308524,20.6709,519.553,0.195108,0,0
5194,1298.25,46.5099,50.859,162.406,101.549,98.1629,0.002590005,0.282651,20.6952,519.363,0.311199,0,0
5208,1301.75,45.5261,49.1459,161.27,101.543,98.5817,0.002640062,0.261139,20.7172,519.143,0.27157,0,0
5222,1305.25,45.0117,48.0999,160.114,101.55,98.3049,0.003125235,0.245782,20.7261,518.982,0.298048,0,0
5236,1308.75,43.4649,46.7109,163.928,101.556,99.1045,0.003293435,0.236228,20.7317,518.832,0.224191,0,0
5250,1312.25,42.7979,45.7311,161.325,101.553,99.5056,0.003445975,0.225649,20.746,518.652,0.186867,0,0
5264,1315.75,42.2857,44.5847,162.004,101.545,99.4068,0.004040218,0.213939,20.7581,518.532,0.19532,0,0
5278,1319.25,41.6989,44.0051,164.681,101.553,100.032,0.004664569,0.204823,20.7682,518.402,0.138493,0,0
5292,1322.75,40.2229,42.0157,167.74,101.543,100.233,0.005275861,0.194082,20.7823,518.252,0.119125,0,0
5306,1326.25,39.8024,41.2966,165.102,101.506,100.956,0.005495591,0.184661,20.7917,518.152,0.0498024,0,0
5320,1329.75,38.7717,40.0452,161.842,101.516,101.27,0.005674289,0.177378,20.7999,518.032,0.0222946,0,0
5334,1333.25,38.3113,39.0753,165.423,101.503,101.519,0.005852894,0.172011,20.8061,517.921,-0.001512959,0,0
5348,1336.75,37.3667,38.1971,164.5,101.491,102.004,0.006019584,0.165501,20.8145,517.791,-0.04630731,0,0
5362,1340.25,37.2035,37.8503,163.064,101.471,101.588,0.006316466,0.159938,20.8201,517.691,-0.0105768,0,0
5376,1343.75,36.6117,36.8853,166.946,101.441,101.455,0.006618918,0.154424,20.8263,517.611,-0.001244371,0,0
5390,1347.25,35.4919,35.5847,167.245,101.411,101.931,0.007042944,0.150898,20.8296,517.491,-0.0469686,0,0
5404,1350.75,35.3859,35.0805,167.366,101.404,101.437,0.007407344,0.147995,20.8326,517.391,-0.003032185,0,0
5418,1354.25,34.6136,34.6031,171.052,101.352,101.595,0.007193504,0.144451,20.8355,517.321,-0.0219881,0,0
5432,1357.75,34.9473,34.9203,167.104,101.313,101.363,0.007161388,0.143824,20.8346,517.221,-0.004496943,0,0
5446,1361.25,34.2494,34.3348,167.827,101.284,101.563,0.007404025,0.142663,20.8359,517.131,-0.0252623,0,0
5460,1364.75,34.0537,34.2515,165.159,101.232,101.316,0.007693594,0.140569,20.8385,517.031,-0.007592469,0,0
5474,1368.25,33.4017,33.2847,169.197,101.197,101.387,0.007938316,0.137142,20.8435,516.941,-0.0171593,0,0
5488,1371.75,33.3763,33.1108,171.146,101.153,101.308,0.007440112,0.135365,20.8453,516.82,-0.0140348,0,0
5502,1375.25,32.8022,32.9327,170.287,101.115,101.401,0.007045664,0.136571,20.8452,516.76,-0.0259594,0,0
5516,1378.75,32.5474,32.63,169.016,101.091,101.273,0.007322556,0.135644,20.8452,516.66,-0.0165133,0,0
5530,1382.25,31.7192,31.5209,163.613,101.061,101.162,0.007566141,0.136597,20.8452,516.58,-0.009102302,0,0
5544,1385.75,32.2121,32.0125,171.293,101.042,101.152,0.007807454,0.139173,20.8406,516.49,-0.009978862,0,0
5558,1389.25,32.5118,32.1726,166.518,101.031,101.137,0.007793949,0.141965,20.8399,516.39,-0.009626256,0,0
5572,1392.75,31.4319,31.4619,168.573,101.002,101.423,0.0078391,0.140848,20.8436,516.32,-0.03819558,0,0
5586,1396.25,31.6074,31.4933,169.432,100.976,100.894,0.008030464,0.13849,20.844,516.24,0.00751187,0,0
5600,1399.75,30.9366,30.9847,167.933,100.967,100.869,0.007987671,0.134565,20.8518,516.16,0.008985094,0,0
5614,1403.25,30.6419,30.7246,169.013,100.942,100.891,0.00756561,0.131296,20.8548,516.08,0.00458658,0,0
5628,1406.75,30.5412,30.5096,163.131,100.932,101.016,0.007456631,0.132413,20.8486,516,-0.00761327,0,0
5642,1410.25,31.1065,30.6556,167.221,101.01,101.154,0.007348006,0.133726,20.8464,515.93,-0.0130538,0,0
5656,1413.75,30.2432,30.3756,168.4,101.153,101.125,0.007262562,0.133645,20.8467,515.85,0.002598688,0,0
5670,1417.25,30.2206,30.4296,165.207,101.262,101.386,0.00741436,0.134108,20.8477,515.769,-0.0112476,0,0
5684,1420.75,30.3302,30.5437,172.22,101.351,101.482,0.007907871,0.133304,20.8485,515.689,-0.0118067,0,0
5698,1424.25,29.9557,30.0024,165.726,101.425,102.037,0.008184823,0.133515,20.8489,515.609,-0.0552813,0,0
5712,1427.75,29.6569,29.8374,170.127,101.505,101.563,0.008630625,0.13229,20.8524,515.509,-0.005193564,0,0
5726,1431.25,29.1151,29.4147,173.094,101.577,101.587,0.009270681,0.130063,20.8551,515.459,-0.000947895,0,0
5740,1434.75,28.9865,29.1491,167.746,101.635,101.587,0.009067457,0.128958,20.8557,515.379,0.004384311,0,0
5754,1438.25,28.7068,29.0562,167.008,101.708,101.619,0.008722509,0.127826,20.857,515.299,0.008046323,0,0
5768,1441.75,29.3665,29.3244,164.832,101.737,101.861,0.008540023,0.127395,20.857,515.219,-0.0112125,0,0
5782,1445.25,29.0421,29.1851,171.29,101.779,101.697,0.008350324,0.126765,20.8567,515.129,0.007345735,0,0
5796,1448.75,28.5298,28.968,168.745,101.797,101.601,0.00877138,0.125517,20.8583,515.079,0.0176775,0,0
5810,1452.25,28.282,28.4447,167.328,101.836,101.873,0.009046151,0.125746,20.8573,514.989,-0.003390009,0,0
5824,1455.75,28.7911,28.7445,171.031,101.864,101.804,0.009132624,0.126577,20.8568,514.919,0.00546995,0,0
5838,1459.25,27.5793,27.8582,163.901,101.879,101.807,0.009085695,0.126404,20.8567,514.869,0.006448335,0,0
5852,1462.75,27.7498,28.0392,162.9431,101.878,101.765,0.008868308,0.125826,20.8587,514.819,0.0102057,0,0
5866,1466.25,27.7476,28.3128,169.513,101.89,101.742,0.009012879,0.125745,20.8603,514.729,0.0133859,0,0
5880,1469.75,27.7104,27.9666,171.24,101.872,101.834,0.009804793,0.123451,20.8648,514.688,0.003477875,0,0
5894,1473.25,27.1555,27.6577,168.11,101.864,101.706,0.009891992,0.120881,20.8663,514.598,0.0142946,0,0
5908,1476.75,28.138,28.3414,167.797,101.855,101.806,0.00967044,0.121285,20.8659,514.518,0.004349324,0,0
5922,1480.25,27.2022,27.9757,171.93,101.815,101.64,0.0102809,0.120088,20.8685,514.458,0.0158246,0,0
5936,1483.75,26.6491,27.2478,174.784,101.787,101.697,0.011171,0.116983,20.8734,514.398,0.008172008,0,0
5950,1487.25,26.4183,26.5812,170.3,101.749,101.466,0.0117932,0.115069,20.8754,514.338,0.0256026,0,0
5964,1490.75,25.9556,26.0054,171.759,101.707,101.444,0.0120385,0.113507,20.8769,514.268,0.0237371,0,0
5978,1494.25,25.8496,25.0071,170.888,101.67,101.583,0.0121871,0.112735,20.8776,514.188,0.007829922,0,0
5992,1497.75,25.4561,26.0932,169.202,101.622,101.327,0.01234623,0.112317,20.8772,514.138,0.0266748,0,0
6006,1501.25,25.5293,25.8268,168.713,101.573,101.229,0.012423,0.112479,20.8766,514.058,0.0311107,0,0
6020,1504.75,25.5798,25.3019,171.111,101.532,101.482,0.0124031,0.112362,20.8784,513.998,0.004516607,0,0
6034,1508.25,25.2586,25.3523,169.701,101.477,101.463,0.0123734,0.112231,20.8779,513.948,0.001264437,0,0
6048,1511.75,25.5368,25.064,172.448,101.418,101.385,0.012155,0.112463,20.8769,513.858,0.002952997,0,0
6062,1515.25,24.9693,25.341,171.578,101.371,101.338,0.0119329,0.11187,20.8773,513.808,0.002933313,0,0
6076,1518.75,24.9719,25.0338,168.456,101.341,101.263,0.0117043,0.111255,20.8778,513.738,0.007089969,0,0
6090,1522.25,24.5399,24.7183,173.418,101.337,101.254,0.0116459,0.110979,20.878,513.688,0.007497661,0,0
6104,1525.75,24.8681,25.4059,171.906,101.332,101.342,0.0116355,0.110831,20.878,513.668,-0.000897571,0,0
6118,1529.25,24.6704,25.1418,168.311,101.362,101.101,0.01159057,0.110772,20.8786,513.567,0.023616,0,0
6132,1532.75,24.6255,25.3371,173.066,101.365,101.169,0.0115372,0.110958,20.8787,513.527,0.01775833,0,0
6146,1536.25,23.9667,25.4613,175.214,101.39,101.199,0.011548,0.111191,20.8786,513.457,0.0172845,0,0
6160,1539.75,24.56,24.6976,168.698,101.415,101.24,0.0115576,0.111019,20.8784,513.377,0.0158727,0,0
6174,1543.25,24.4943,25.0201,169.777,101.423,101.402,0.011515,0.110424,20.8786,513.357,0.001885653,0,0
6188,1546.75,24.1766,24.9081,170.064,101.448,101.211,0.0116867,0.110512,20.878,513.297,0.02143902,0,0
6202,1550.25,24.6313,24.6918,170.959,101.473,101.347,0.0117447,0.11085,20.8784,513.237,0.01143812,0,0
6216,1553.75,24.3862,24.1156,168.257,101.507,101.441,0.0119292,0.111075,20.8786,513.167,0.005966261,0,0
6230,1557.25,24.3351,24.7704,168.052,101.53,101.418,0.0119788,0.110883,20.8784,513.117,0.0101084,0,0
6244,1560.75,23.7598,24.7786,170.828,101.567,101.281,0.0118437,0.110543,20.8789,513.047,0.0259025,0,0
6258,1564.25,24.0639,24.6988,174.98,101.595,101.297,0.0116503,0.11027,20.8782,512.987,0.02696383,0,0
6272,1567.75,24.222,24.4957,174.511,101.64,101.357,0.0117415,0.110043,20.8785,512.957,0.0255655,0,0
6286,1571.25,23.6167,24.5346,170.055,101.665,101.444,0.0118329,0.1102027,20.8799,512.867,0.01990667,0,0
6300,1574.75,23.6355,24.7135,176.519,101.722,101.585,0.0113564,0.110006,20.8802,512.827,0.01237,0,0
6314,1578.25,24.3062,24.5692,172.111,101.726,101.745,0.0113352,0.109762,20.8792,512.777,-0.001674334,0,0
6328,1581.75,24.0848,24.4492,171.33,101.76,101.514,0.011648,0.110206,20.8791,512.737,0.0221691,0,0
6342,1585.25,23.6425,24.849,174.759,101.793,101.598,0.0115619,0.109946,20.8795,512.677,0.0175356,0,0
6356,1588.75,23.07,24.3328,171.31,101.818,101.632,0.011624,0.109336,20.8811,512.607,0.0167713,0,0
6370,1592.25,22.9966,23.632,174.833,101.844,101.793,,0.109385,,512.577,0.004654367,0,0
6384,1595.75,24.0011,24.7796,171.883,101.871,101.804,,,,512.507,0.00610072,0,0
6398,1599.25,23.3885,24.4305,170.293,101.904,101.833,,,,512.466,0.006345583,0,0
6410,1602.25,23.2168,24.5235,173.356,101.921,101.665,,,,512.406,0.0231239,0,0