File: 02_Data/MDF/Cone/MDF_Cone_HF50scan_210326_R1.csv
Names,Time,Stack TC,Smoke TC,Exh Press,Smoke Comp,Smoke Meas,CO Meter,CO2 Meter,O2 Meter,Sample Mass,Ext Coeff,Start Test,Flame Verif
Chan Gain,,500,500,1,1,1,1,1,1,1,1,1,1
Offset,,0,0,0.138348,0,0,0,0,0,0,0,0,0
Gain,,1,1,25.011,13.5067,16.616,1,1,1,1.00091,1.04608,1,1
Units,sec,C,C,Pa,%,%,%,%,%,g,/m,,
Baseline,,24.7095,27.2458,162.152,100.501,97.457,-0.000839825,0.0622675,20.9266,-0.111351,0.282233,,
10,2.25,23.4233,25.8899,163.439,100.358,97.3861,-0.001042528,0.0661958,20.9236,612.718,0.275866,0,0
20,4.75,23.9008,25.9497,160.668,100.152,97.1858,-0.000773774,0.0661079,20.9236,612.668,0.275895,0,0
30,7.25,24.5551,26.9663,160.882,99.9312,97.0945,-0.000544522,0.0658415,20.9236,612.628,0.264253,0,0
40,9.75,23.4979,26.5861,164.647,99.7602,96.6062,-0.00065838,0.0655965,20.923,612.558,0.294797,0,0
50,12.25,23.8523,27.1068,162.738,99.5636,96.2091,-0.000889773,0.06669119,20.92,612.508,0.314485,0,0
60,14.75,24.5059,26.261,166.564,99.4329,95.7933,-0.000931515,0.0698889,20.9144,612.417,0.342179,0,0
70,17.25,24.8864,27.1656,164.669,99.322,95.9145,-0.000775535,0.0739977,20.9092,612.397,0.320339,0,0
80,19.75,25.0159,26.5348,159.853,99.2285,95.0307,-0.000567323,0.0770959,20.9087,612.327,0.396639,0,0
90,22.25,24.6906,26.468,163.172,99.158,94.9257,-0.000489101,0.07827656,20.909,612.207,0.40026,0,0
100,24.75,25.1701,27.2842,161.014,99.1427,94.4556,-0.000481343,0.078489,20.9102,612.207,0.444401,0,0
110,27.25,24.7783,27.7634,164.621,99.1572,93.7533,-0.000296586,0.0790425,20.9072,612.157,0.514217,0,0
120,29.75,24.9078,27.9482,161.55,99.1934,93.3669,-6.31711E-05,0.08413966,20.8812,612.007,0.55547,0,0
130,32.25,26.4128,29.6747,152.475,99.2668,96.3663,0.000133684,0.131256,20.7723,611.657,0.272112,0,1
140,34.75,29.2208,34.3418,142.22,99.3847,96.5276,0.000582169,0.2277,20.6304,611.427,0.26766,0,1
150,37.25,32.1426,39.7462,137.491,99.5079,93.8766,0.001541506,0.328911,20.4803,610.886,0.534568,0,1
160,39.75,35.806,45.8792,142.622,99.6489,94.0023,0.002506577,0.442061,20.3489,610.386,0.535275,0,0
170,42.25,39.1189,50.8521,128.491,99.8154,94.8354,0.00316051,0.52793,20.2723,609.825,0.469628,0,0
180,44.75,42.1704,55.2867,131.415,99.9395,94.4856,0.003611501,0.586324,20.228,609.285,0.514944,0,0
190,47.25,44.4683,58.5891,142.422,100.082,92.296,0.003834177,0.626399,20.2069,608.764,0.743137,0,0
200,49.75,46.8954,62.2334,140.319,100.215,94.3446,0.00418251,0.649931,20.1985,608.244,0.553891,0,0
210,52.25,48.9671,64.944,139.16,100.321,91.756,0.004516636,0.6628685,20.198,607.703,0.818879,0,0
220,54.75,50.2919,66.9249,143.474,100.427,90.1632,0.004808553,0.669311,20.1987,607.193,0.989283,0,0
230,57.25,51.7538,69.3957,140.361,100.493,92.1616,0.005220369,0.672871,20.2001,606.692,0.794184,0,0
240,59.75,52.6128,70.5176,138.676,100.555,90.8508,0.005665529,0.671461,20.2082,606.202,0.931237,0,0
250,62.25,54.0445,71.982,144.523,100.577,91.4314,0.00590996,0.665494,20.2231,605.681,0.874812,0,0
260,64.75,54.2445,72.8965,138.02,100.597,89.7423,0.006087523,0.655078,20.2414,605.191,1.04768,0,0
270,67.25,55.3526,73.378,137.632,100.567,88.5532,0.006128681,0.643764,20.2597,604.64,1.16737,0,0
280,69.75,55.716,73.5908,137.397,100.514,89.5527,0.005956294,0.632041,20.2754,604.15,1.05957,0,0
290,72.25,55.8112,73.6021,137.869,100.458,89.5826,0.005702063,0.620989,20.2903,603.68,1.05135,0,0
300,74.75,56.2757,73.4016,143.989,100.408,88.893,0.005669028,0.608324,20.3099,603.239,1.11771,0,0
310,77.25,55.7443,73.1235,137.954,100.379,90.3422,0.005643818,0.595281,20.3253,602.789,0.966713,0,0
320,79.75,56.6376,72.9613,146.156,100.331,88.6151,0.00549631,0.584542,20.3368,602.268,1.13946,0,0
330,82.25,56.301,72.4899,142.647,100.295,91.685,0.005281588,0.570058,20.3555,601.848,0.823607,0,0
340,84.75,56.0444,72.8517,137.862,100.24,89.8904,0.005165239,0.558983,20.3642,601.407,0.999937,0,0
350,87.25,56.3787,72.1728,148.816,100.228,90.2038,0.005218698,0.55279,20.3714,600.997,0.966946,0,0
360,89.75,56.4155,71.4751,137.905,100.184,90.1475,0.005304161,0.544969,20.3808,600.587,0.968673,0,0
370,92.25,56.3788,71.2385,144.03,100.428,90.5674,0.005238118,0.534973,20.394,600.136,0.948358,0,0
380,94.75,56.6389,70.697,138.659,100.623,90.757,0.004997119,0.525486,20.407,599.706,0.94696,0,0
390,97.25,56.3953,70.5262,141.929,100.815,92.6342,0.00476264,0.517301,20.4161,599.286,0.77656,0,0
400,99.75,56.499,70.4536,150.683,100.935,93.7265,0.004568782,0.50864,20.4284,598.885,0.679909,0,0
410,102.25,56.4492,70.0593,144.645,101.019,92.406,0.004312522,0.500069,20.4391,598.515,0.817782,0,0
420,104.75,56.2269,69.7192,149.094,101.092,93.7148,0.004110206,0.490459,20.4496,598.064,0.695316,0,0
430,107.25,56.0327,69.3101,144.119,101.113,93.1697,0.003970079,0.482374,20.4611,597.704,0.750793,0,0
440,109.75,55.941,68.1817,144.817,101.101,93.5693,0.003849687,0.473934,20.4672,597.304,0.710363,0,0
450,112.25,55.2838,68.7111,141.881,101.048,93.0135,0.003710547,0.469038,20.4709,596.943,0.760275,0,0
460,114.75,55.6348,67.4586,147.517,100.961,93.7042,0.00370239,0.465659,20.4743,596.543,0.684491,0,0
470,117.25,56.1855,67.5318,144.778,100.823,93.8046,0.003697871,0.460749,20.4814,596.173,0.662068,0,0
480,119.75,54.5345,67.7659,146.508,100.644,92.3807,0.003556201,0.45452,20.4885,595.772,0.786126,0,0
490,122.25,55.224,67.3136,146.22,100.525,93.4836,0.003436856,0.449086,20.4929,595.382,0.666396,0,0
500,124.75,55.5945,66.5458,141.639,100.604,93.4785,0.003363317,0.445382,20.4945,595.022,0.674077,0,0
510,127.25,55.4942,67.0075,140.561,100.667,94.4982,0.00320638,0.4420802,20.4976,594.661,0.580232,0,0
520,129.75,55.1715,66.8638,143.479,100.77,93.7376,0.003179485,0.437769,20.5021,594.301,0.663815,0,0
530,132.25,54.4007,66.1742,145.813,100.864,94.3796,0.003342901,0.434234,20.5035,593.921,0.609703,0,0
540,134.75,55.6922,66.2449,145.718,100.958,94.3243,0.003535932,0.432141,20.5071,593.52,0.623662,0,0
550,137.25,55.449,65.7811,145.179,101.033,95.0332,0.003516197,0.429327,20.5084,593.18,0.561772,0,0
560,139.75,55.398,65.3575,143.857,101.117,95.5372,0.003326814,0.42785,20.5099,592.82,0.520829,0,0
570,142.25,54.4763,66.2128,147.087,101.186,94.7822,0.003060611,0.425543,20.5138,592.449,0.599882,0,0
580,144.75,54.8699,65.6212,140.829,101.252,96.0981,0.002766499,0.422193,20.5168,592.149,0.479418,0,0
590,147.25,54.9642,64.9548,145.433,101.298,95.7381,0.002630586,0.420362,20.5178,591.809,0.518006,0,0
600,149.75,54.4875,65.2321,144.447,101.305,95.271,0.002598075,0.419949,20.5167,591.418,0.563475,0,0
610,152.25,54.4363,65.3734,145.323,101.325,95.8319,0.002598247,0.419114,20.518,591.038,0.511447,0,0
620,154.75,54.8596,65.7212,142.812,101.303,95.7806,0.00236565,0.416472,20.5215,590.688,0.514373,0,0
630,157.25,54.8127,65.3603,141.145,101.241,95.6371,0.002308847,0.414278,20.5235,590.367,0.522492,0,0
640,159.75,54.873,65.7902,140.929,101.167,95.732,0.002527625,0.411841,20.525,590.037,0.506671,0,0
650,162.25,55.6581,65.2188,143.228,101.087,95.4237,0.002637752,0.409691,20.5267,589.667,0.529089,0,0
660,164.75,55.7481,64.9723,149.586,100.96,95.9515,0.002658542,0.408465,20.5276,589.296,0.466861,0,0
670,167.25,54.7979,65.2928,148.051,100.84,95.2289,0.002499772,0.407663,20.5279,588.986,0.525317,0,0
680,169.75,55.9207,65.3602,142.237,100.679,95.9044,0.002240828,0.406637,20.5286,588.606,0.445787,0,0
690,172.25,55.514,65.617,145.62,100.56,96.2806,0.002214131,0.406234,20.5288,588.235,0.399031,0,0
700,174.75,55.5295,65.3286,144.416,100.388,95.6605,0.002299298,0.405493,20.5309,587.915,0.442629,0,0
710,177.25,55.8484,65.3366,144.44,100.23,95.1889,0.002327684,0.403232,20.5339,587.555,0.473536,0,0
720,179.75,55.5816,65.357,144.656,100.075,95.5053,0.002224883,0.402089,20.535,587.205,0.428846,0,0
730,182.25,55.5017,65.5709,144.166,99.9168,95.4622,0.002093362,0.401519,20.536,586.864,0.418502,0,0
740,184.75,56.0355,65.0502,148.161,99.7886,94.5271,0.002084952,0.39955,20.5396,586.464,0.497045,0,0
750,187.25,55.7929,64.6961,147.778,99.6646,95.3694,0.002173859,0.396451,20.5427,586.094,0.404229,0,0
760,189.75,55.7166,65.3697,142.169,99.564,95.6529,0.002106995,0.394134,20.5451,585.753,0.367731,0,0
770,192.25,55.7575,64.553,143.841,99.4642,95.5641,0.002123552,0.391957,20.5458,585.393,0.367051,0,0
780,194.75,56.3027,64.9025,147.054,99.4049,96.4505,0.002174681,0.391365,20.5469,585.023,0.276855,0,0
790,197.25,55.4442,65.1144,143.64,99.3476,95.7279,0.00217445,0.389967,20.5486,584.652,0.340569,0,0
800,199.75,55.0652,64.7785,147.709,99.3447,95.2193,0.002261337,0.388049,20.5518,584.322,0.389186,0,0
810,202.25,55.7371,64.2156,144.07,99.3307,96.5286,0.002377193,0.38613,20.5547,583.952,0.262577,0,0
820,204.75,55.9283,64.3606,144.517,99.3674,95.6361,0.002258142,0.384767,20.556,583.591,0.351199,0,0
830,207.25,56.2166,63.6054,144.778,99.4148,95.699,0.002069543,0.383875,20.5565,583.261,0.349544,0,0
840,209.75,56.271,64.5671,141.021,99.5116,95.9652,0.001938172,0.382808,20.5574,582.911,0.33299,0,0
850,212.25,55.9572,64.2485,142.371,99.5825,96.1721,0.002087374,0.381059,20.5604,582.55,0.319764,0,0
860,214.75,55.4668,64.6378,149.109,99.6922,95.34,0.00222936,0.378752,20.563,582.22,0.409603,0,0
870,217.25,55.3454,64.0528,143.939,99.8162,96.6259,0.002081963,0.376773,20.5654,581.89,0.298074,0,0
880,219.75,55.328,64.4819,142.367,99.9308,95.7776,0.00185112,0.374525,20.5673,581.549,0.38952,0,0
890,222.25,54.9763,64.5662,144.813,100.052,96.8546,0.001798637,0.373037,20.5671,581.199,0.298031,0,0
900,224.75,55.7788,64.0596,145.957,100.187,96.3917,0.001848695,0.37259,20.5679,580.869,0.354389,0,0
910,227.25,55.8448,64.1026,143.324,100.31,97.3181,0.001859248,0.371536,20.5682,580.518,0.277898,0,0
920,229.75,55.9467,63.8518,144.782,100.408,97.1584,0.001749858,0.370824,20.5698,580.198,0.301865,0,0
930,232.25,55.58,64.1369,147.803,100.534,97.0615,0.001572076,0.369607,20.5714,579.848,0.322537,0,0
940,234.75,55.7312,63.5987,144.63,100.592,96.8942,0.001492512,0.368232,20.573,579.538,0.343674,0,0
950,237.25,55.3792,63.8662,143.991,100.68,97.059,0.001554871,0.366807,20.5736,579.197,0.336124,0,0
960,239.75,55.7353,63.691,143.001,100.72,98.1203,0.001503837,0.367014,20.5725,578.827,0.239935,0,0
970,242.25,55.4872,63.1294,150.531,100.763,97.7081,0.001303435,0.36735,20.5717,578.507,0.282549,0,0
980,244.75,55.4478,64.3356,142.9,100.754,98.4377,0.001143919,0.366793,20.5724,578.206,0.213413,0,0
990,247.25,55.9918,63.3592,140.787,100.741,97.6416,0.001184874,0.365301,20.5748,577.876,0.286725,0,0
1000,249.75,55.9294,64.1562,145.681,100.708,97.0661,0.001328142,0.363905,20.576,577.526,0.338007,0,0
1010,252.25,56.0237,63.4425,147.418,100.648,98.0382,0.001496914,0.363943,20.5764,577.185,0.241083,0,0
1020,254.75,55.5587,64.0129,149.798,100.586,97.3886,0.001569731,0.363781,20.5765,576.905,0.296408,0,0
1030,257.25,55.1993,63.9631,142.222,100.514,97.1721,0.001510633,0.362084,20.5792,576.575,0.310324,0,0
1040,259.75,55.6708,63.4975,146.11,100.47,97.3009,0.001316493,0.360377,20.5806,576.245,0.294143,0,0
1050,262.25,55.6749,63.3738,148.648,100.429,97.6026,0.001218701,0.358901,20.5824,575.914,0.261929,0,0
1060,264.75,55.8179,63.3123,143.702,100.378,97.3693,0.001290413,0.356415,20.5847,575.564,0.279252,0,0
1070,267.25,55.7,62.9435,143.549,100.33,97.9616,0.001327062,0.3546,20.5875,575.274,0.219195,0,0
1080,269.75,55.5656,62.9594,151.189,100.33,97.3759,0.001270637,0.353433,20.5896,574.953,0.274259,0,0
1090,272.25,55.4826,62.6886,145.529,100.442,97.5762,0.001123229,0.352631,20.5904,574.663,0.265651,0,0
1100,274.75,55.4739,63.0001,143.445,100.683,97.6497,0.000949595,0.351814,20.5907,574.353,0.280705,0,0
1110,277.25,55.701,62.5625,148.206,100.868,98.2065,0.000882502,0.350406,20.5927,574.043,0.245348,0,0
1120,279.75,54.3316,63.2455,146.574,101.045,98.421,0.000928099,0.348826,20.5944,573.722,0.241476,0,0
1130,282.25,55.2122,62.5835,142.447,101.148,98.2379,0.000976084,0.348299,20.5951,573.452,0.267874,0,0
1140,284.75,55.1167,62.3297,145.775,101.219,98.493,0.000912452,0.346742,20.5951,573.132,0.250511,0,0
1150,287.25,54.6488,63.0078,144.924,101.252,98.3657,0.00086328,0.345637,20.5962,572.821,0.265365,0,0
1160,289.75,54.842,62.324,145.735,101.255,98.0584,0.000926339,0.344524,20.5967,572.531,0.294336,0,0
1170,292.25,55.7757,62.1506,147.823,101.211,98.3343,0.000856277,0.344263,20.5993,572.221,0.264598,0,0
1180,294.75,55.1849,62.2478,143.999,101.127,99.0219,0.000713418,0.343686,20.6013,571.941,0.193031,0,0
1190,297.25,55.0457,60.8223,150.491,101.028,98.9382,0.000619232,0.342461,20.6033,571.64,0.191807,0,0
1200,299.75,54.9866,62.3087,145.42,100.885,98.4651,0.000682236,0.341097,20.6044,571.32,0.222829,0,0
1210,302.25,55.6007,61.8395,142.305,100.701,98.3378,0.000765751,0.340315,20.6056,571.05,0.217886,0,0
1220,304.75,55.0622,62.2313,143.36,100.712,98.3901,0.000680109,0.339065,20.6086,570.71,0.21399,0,0
1230,307.25,55.1293,62.2071,144.446,100.792,98.4286,0.000562986,0.335925,20.6134,570.439,0.217754,0,0
1240,309.75,54.9904,62.0407,145.087,100.871,97.9449,0.000446188,0.333182,20.6155,570.169,0.270166,0,0
1250,312.25,55.3628,61.7242,144.214,100.974,98.386,0.000442785,0.332272,20.6138,569.839,0.238261,0,0
1260,314.75,54.9713,61.8952,149.335,101.076,98.8399,0.000482636,0.332531,20.6125,569.589,0.205277,0,0
1270,317.25,54.7591,61.8042,146.645,101.183,99.0604,0.000540911,0.332268,20.6114,569.288,0.194546,0,0
1280,319.75,55.0277,61.8986,148.495,101.261,99.3155,0.00069458,0.33206,20.6118,568.998,0.177975,0,0
1290,322.25,54.9946,61.3351,141.663,101.354,99.8175,0.000751068,0.330682,20.6141,568.728,0.140147,0,0
1300,324.75,54.3947,61.261,147.611,101.418,98.745,0.000741176,0.328871,20.6152,568.477,0.245129,0,0
1310,327.25,54.3682,62.2552,145.952,101.451,98.9225,0.000803475,0.327831,20.6168,568.127,0.231634,0,0
1320,329.75,54.6692,61.359,145.051,101.48,99.2004,0.000763418,0.326927,20.6174,567.837,0.208504,0,0
1330,332.25,54.2596,61.6921,142.156,101.481,100.152,0.000669113,0.326358,20.6183,567.577,0.12092,0,0
1340,334.75,54.7941,61.3159,142.134,101.479,100.344,0.000639074,0.325315,20.6202,567.286,0.103188,0,0
1350,337.25,54.7036,61.6446,146.74,101.425,99.9184,0.000621352,0.323973,20.6211,567.016,0.137366,0,0
1360,339.75,54.9188,61.1301,149.349,101.389,100.435,0.000450557,0.32315,20.6222,566.736,0.08676298,0,0
1370,342.25,54.7864,61.47,146.327,101.304,100.395,0.000415005,0.32214,20.6227,566.506,0.0826889,0,0
1380,344.75,54.5996,61.4351,142.669,101.204,99.3505,0.000557029,0.32109,20.6237,566.185,0.169624,0,0
1390,347.25,54.8826,61.3822,145.006,101.107,99.0614,0.000571614,0.320025,20.6263,565.955,0.187534,0,0
1400,349.75,54.3802,60.9622,147.864,100.975,99.1816,0.000365385,0.318339,20.6293,565.715,0.164467,0,0
1410,352.25,54.0159,61.2179,144.345,100.797,99.1086,0.000230524,0.316876,20.6299,565.445,0.155029,0,0
1420,354.75,54.1783,61.0739,145.396,100.649,98.7988,0.000241749,0.316508,20.6305,565.164,0.170242,0,0
1430,357.25,54.2797,60.5282,150.028,100.481,98.3023,0.000256027,0.316021,20.6314,564.864,0.20112,0,0
1440,359.75,54.2881,60.5822,151.134,100.338,99.0224,0.000204751,0.315204,20.6326,564.594,0.121155,0,0
1450,362.25,53.9593,60.5095,140.896,100.167,98.9534,0.000112712,0.314979,20.6337,564.344,0.111815,0,0
1460,364.75,54.3032,60.7457,150.782,100.036,98.1649,0.000194219,0.314143,20.6355,564.083,0.17325,0,0
1470,367.25,54.0378,60.24,146.542,99.9115,98.6669,0.000308638,0.311812,20.6382,563.763,0.115018,0,0
1480,369.75,54.0057,60.2461,144.914,99.7952,97.848,0.000333696,0.310292,20.6396,563.603,0.180814,0,0
1490,372.25,54.1897,60.4355,144.771,99.7058,97.8972,0.000138686,0.309022,20.6424,563.303,0.167976,0,0
1500,374.75,54.256,60.1575,148.28,99.6176,98.244,-4.79991E-05,0.307692,20.6439,563.023,0.127402,0,0
1510,377.25,53.892,60.0181,143.362,99.5731,98.1923,-2.37193E-05,0.306533,20.6463,562.762,0.128132,0,0
1520,379.75,54.0037,59.753,148.715,99.5314,97.8379,9.52811E-05,0.304592,20.6495,562.542,0.157478,0,0
1530,382.25,53.7337,59.8927,147.731,99.5261,98.2511,0.000140116,0.303345,20.6499,562.312,0.118306,0,0
1540,384.75,53.7835,59.9144,148.401,99.5298,99.1051,0.000106142,0.303629,20.6495,562.052,0.03923982,0,0
1550,387.25,53.6916,60.1729,145.083,99.5829,97.5884,7.88254E-05,0.303005,20.6504,561.761,0.185656,0,0
1560,389.75,53.5004,59.4999,147.975,99.6398,97.4576,6.53805E-05,0.300819,20.6524,561.531,0.203205,0,0
1570,392.25,53.3826,59.3824,146.537,99.7198,97.7537,0.000159702,0.299886,20.6547,561.281,0.182727,0,0
1580,394.75,53.2254,59.3536,146.124,99.8068,97.2684,0.000205322,0.298356,20.6555,561.031,0.236392,0,0
1590,397.25,53.2857,59.293,145.257,99.9156,98.5985,9.661E-05,0.297597,20.6557,560.74,0.121765,0,0
1600,399.75,53.2304,59.0481,147.385,100.023,98.1223,-2.43039E-05,0.297155,20.6558,560.54,0.17606,0,0
1610,402.25,53.1321,59.1134,144.507,100.144,98.8282,-1.66532E-05,0.297009,20.6563,560.26,0.121323,0,0
1620,404.75,53.1941,58.8132,150.945,100.267,98.9255,2.47803E-05,0.296399,20.6575,559.99,0.123573,0,0
1630,407.25,52.9662,58.9582,147.842,100.38,99.0975,1.60296E-05,0.295546,20.658,559.79,0.118009,0,0
1640,409.75,52.9876,58.6647,149.346,100.486,99.2344,0.000134523,0.294757,20.6598,559.519,0.115019,0,0
1650,412.25,52.7027,58.6498,151.367,100.558,99.6522,0.000201069,0.293572,20.6618,559.269,0.0830108,0,0
1660,414.75,52.9079,58.5102,142.338,100.665,99.281,0.00019389,0.293912,20.6622,559.039,0.127028,0,0
1670,417.25,52.5154,59.0179,143.926,100.738,98.955,0.000178911,0.293717,20.6623,558.769,0.163899,0,0
1680,419.75,52.8412,58.6026,147.203,100.824,98.8373,0.000197285,0.293172,20.6627,558.558,0.182583,0,0
1690,422.25,52.6139,58.457,149.87,100.869,99.5386,0.000212526,0.292873,20.6628,558.298,0.121868,0,0
1700,424.75,53.1492,58.2534,150.263,100.909,99.1766,0.000243396,0.292645,20.6628,558.058,0.158867,0,0
1710,427.25,52.9579,58.2217,144.914,100.934,99.7612,0.000234659,0.292421,20.6613,557.788,0.107254,0,0
1720,429.75,52.9795,58.2211,143.591,100.928,98.5904,0.000166784,0.292082,20.6623,557.578,0.215025,0,0
1730,432.25,52.5914,58.3713,149.623,100.883,100.092,0.000102079,0.291426,20.6625,557.337,0.0722,0,0
1740,434.75,52.3763,58.0913,149.082,100.844,99.104,5.20712E-05,0.291073,20.6625,557.107,0.159691,0,0
1750,437.25,52.342,57.9012,150.018,100.794,99.0858,3.8583E-05,0.290863,20.662,556.847,0.156842,0,0
1760,439.75,52.8016,58.032,149.271,100.716,98.9651,6.72349E-05,0.291288,20.6608,556.647,0.160893,0,0
1770,442.25,52.2358,57.9962,146.709,100.643,98.992,-3.27097E-05,0.291868,20.6604,556.386,0.151752,0,0
1780,444.75,52.425,58.1245,147.22,100.583,99.2278,-6.52343E-05,0.291754,20.6602,556.156,0.124508,0,0
1790,447.25,52.3714,58.0107,146.397,100.536,99.5198,4.94735E-05,0.291623,20.6602,555.896,0.09317448,0,0
1800,449.75,52.3486,58.0821,149.361,100.491,98.8475,0.000159657,0.291423,20.6602,555.646,0.151317,0,0
1810,452.25,52.2862,57.9934,144.309,100.479,98.8906,0.000135736,0.290663,20.6615,555.436,0.146263,0,0
1820,454.75,51.6458,58.3367,148.606,100.448,99.3292,8.97714E-05,0.289793,20.6621,555.195,0.102791,0,0
1830,457.25,52.3739,57.8866,147.127,100.445,98.4154,3.61653E-05,0.289225,20.6634,554.945,0.187332,0,0
1840,459.75,52.329,57.727,149.341,100.623,99.3895,-0.000135482,0.288859,20.6652,554.725,0.113171,0,0
1850,462.25,52.3547,57.3339,146.86,100.81,99.1223,-0.000211883,0.288021,20.6658,554.465,0.154963,0,0
1860,464.75,52.4472,57.6977,147.368,100.951,99.4194,-0.00015923,0.287211,20.666,554.255,0.140243,0,0
1870,467.25,52.1511,57.9338,147.738,101.094,99.2861,-0.000112969,0.287146,20.6661,554.084,0.16559,0,0
1880,469.75,51.8046,57.7452,147.587,101.205,99.7693,1.03294E-05,0.287289,20.6661,553.764,0.131058,0,0
1890,472.25,51.9788,57.8121,143.621,101.305,100.004,0.000110183,0.287664,20.6672,553.544,0.118604,0,0
1900,474.75,51.9641,57.7989,147.985,101.336,99.1933,0.000128248,0.286863,20.668,553.174,0.196068,0,0
1910,477.25,52.357,57.3221,149.368,101.39,99.8236,0.000160277,0.286469,20.6683,553.113,0.142909,0,0
1920,479.75,52.2225,57.793,145.259,101.38,100.426,0.000140606,0.286671,20.6676,552.903,0.0866828,0,0
1930,482.25,52.277,57.0406,143.955,101.355,100.417,0.000105722,0.287664,20.6658,552.633,0.0852784,0,0
1940,484.75,51.7863,57.6232,148.001,101.307,100.242,0.000134309,0.289187,20.6637,552.393,0.0969484,0,0
1950,487.25,52.48,57.6009,154.583,101.252,99.8642,0.000218097,0.290098,20.664,552.133,0.126638,0,0
1960,489.75,52.5947,57.2132,146.605,101.155,99.6841,0.000255102,0.290263,20.6643,551.922,0.134411,0,0
1970,492.25,52.2051,57.7272,153.352,101.036,98.8546,0.000253827,0.290679,20.6644,551.722,0.200283,0,0
1980,494.75,51.902,57.6296,150.431,100.921,98.8946,0.000233711,0.290503,20.6644,551.472,0.186151,0,0
1990,497.25,52.038,57.883,145.581,100.818,99.6202,0.000273966,0.290802,20.6644,551.202,0.109694,0,0
2000,499.75,52.4191,57.7609,145.162,100.884,99.3444,0.000297786,0.291288,20.6638,550.992,0.141101,0,0
2010,502.25,52.3189,57.6596,147.813,100.929,99.0006,0.000332714,0.292133,20.6628,550.701,0.177035,0,0
2020,504.75,52.4967,57.4202,143.707,101.005,99.2815,0.00042752,0.293161,20.6626,550.521,0.157889,0,0
2030,507.25,52.1549,57.8052,145.804,101.061,99.4078,0.000365189,0.293755,20.6621,550.291,0.151317,0,0
2040,509.75,52.181,58.0711,141.632,101.15,99.2663,0.000338476,0.293273,20.662,550.061,0.172505,0,0
2050,512.25,51.9885,57.919,149.985,101.233,99.4722,0.000501701,0.292809,20.6619,549.81,0.160969,0,0
2060,514.75,52.5647,57.4763,147.62,101.302,99.4752,0.000566594,0.293679,20.6594,549.57,0.166963,0,0
2070,517.25,51.9649,57.8926,149.742,101.374,99.5969,0.000361929,0.29553,20.6576,549.32,0.162239,0,0
2080,519.75,52.3912,58.0246,147.8,101.436,99.3439,0.000201366,0.296963,20.6564,549.13,0.191213,0,0
2090,522.25,52.3642,58.0153,146.42,101.504,100.316,0.000205493,0.297732,20.656,548.87,0.108003,0,0
2100,524.75,52.238,57.9528,145.417,101.564,99.9402,0.000329681,0.298409,20.6545,548.619,0.147848,0,0
2110,527.25,52.0763,58.0786,152.813,101.596,99.068,0.000415176,0.298841,20.6544,548.349,0.231258,0,0
2120,529.75,52.5426,57.9666,147.388,101.628,100.408,0.000496979,0.299363,20.6546,548.139,0.110867,0,0
2130,532.25,52.0895,58.3833,148.187,101.646,99.4489,0.000657738,0.30027,20.6547,547.909,0.200519,0,0
2140,534.75,52.196,58.0193,153.161,101.634,99.6765,0.000739216,0.30047,20.6547,547.659,0.178457,0,0
2150,537.25,52.2587,58.3165,144.175,101.638,99.35,0.000642086,0.300821,20.6543,547.418,0.208903,0,0
2160,539.75,52.1781,58.2597,147.225,101.6,98.7618,0.000474662,0.301188,20.6528,547.188,0.2599684,0,0
2170,542.25,52.7795,57.7216,148.053,101.575,99.6324,0.000375118,0.302317,20.6508,546.918,0.1771961,0,0
2180,544.75,51.9906,58.5556,146.09,101.523,98.8338,0.000283326,0.302866,20.6498,546.658,0.246354,0,0
2190,547.25,52.0493,58.6801,144.188,101.454,99.4899,0.000227485,0.304616,20.6464,546.417,0.179374,0,0
2200,549.75,52.7609,58.5567,147.115,101.383,99.748,0.000249779,0.307181,20.6445,546.187,0.1491846,0,0
2210,552.25,52.9567,58.4546,147.1,101.28,99.0138,0.000360572,0.309752,20.6429,545.907,0.207687,0,0
2220,554.75,52.5173,58.7318,147.016,101.18,98.6046,0.000424206,0.311248,20.6419,545.707,0.236609,0,0
2230,557.25,51.9978,59.2645,149.947,101.054,98.3368,0.000463353,0.311576,20.6416,545.416,0.250075,0,0
2240,559.75,51.9594,59.1249,149.483,100.94,98.419,0.000439569,0.31232,20.6407,545.166,0.232115,0,0
2250,562.25,52.5731,58.9757,148.82,100.809,98.7896,0.000420769,0.313638,20.6396,544.916,0.185659,0,0
2260,564.75,52.8691,59.1502,145.372,100.676,98.1883,0.000469775,0.314686,20.6381,544.676,0.229638,0,0
2270,567.25,53.0672,59.2535,142.876,100.521,98.3505,0.000481998,0.316434,20.6364,544.426,0.20035,0,0
2280,569.75,53.537,58.8804,146.955,100.409,97.7567,0.000483321,0.318002,20.6351,544.165,0.245678,0,0
2290,572.25,52.8381,59.5723,144.791,100.283,97.3942,0.000608384,0.318944,20.6337,543.915,0.268239,0,0
2300,574.75,52.768,59.8158,143.731,100.164,96.4622,0.000804477,0.321555,20.6298,543.665,0.345529,0,0
2310,577.25,53.628,59.4684,146.878,100.052,98.0919,0.000755685,0.324327,20.6264,543.405,0.18159,0,0
2320,579.75,52.9994,59.4104,146.036,99.956,96.9033,0.000642997,0.326141,20.6236,543.154,0.284608,0,0
2330,582.25,53.5645,59.8023,145.213,99.8674,97.7745,0.000497422,0.327398,20.6227,542.874,0.194344,0,0
2340,584.75,53.5944,60.11,151.012,99.801,96.7061,0.000454105,0.328467,20.6223,542.604,0.289067,0,0
2350,587.25,53.8748,59.9278,147.845,99.7416,96.7345,0.000467804,0.329614,20.6198,542.374,0.280913,0,0
2360,589.75,53.8261,60.4439,145.55,99.7115,96.8562,0.000346669,0.331092,20.6183,542.113,0.266607,0,0
2370,592.25,53.1062,60.813,142.94,99.7049,96.7101,0.000318956,0.33271,20.6163,541.853,0.279846,0,0
2380,594.75,53.6622,60.385,145.932,99.6996,97.3592,0.000410837,0.332989,20.6147,541.573,0.217975,0,0
2390,597.25,53.5575,60.7217,150.172,99.7449,96.6614,0.000416782,0.333788,20.6133,541.303,0.288146,0,0
2400,599.75,53.9445,60.8457,147.347,99.7668,96.6356,0.000358102,0.336687,20.6092,541.083,0.29261,0,0
2410,602.25,54.0735,60.9326,146.024,99.8286,96.3947,0.000421998,0.338807,20.6076,540.792,0.321195,0,0
2420,604.75,54.0069,61.6415,143.109,99.883,96.3744,0.000562226,0.340092,20.6062,540.522,0.328127,0,0
2430,607.25,54.3211,60.9932,145.356,99.9556,96.8176,0.000697638,0.342098,20.6035,540.252,0.292688,0,0
2440,609.75,53.9897,61.4361,144.987,100.044,96.8881,0.000914992,0.343355,20.6026,539.971,0.294142,0,0
2450,612.25,54.4861,61.0681,147.795,100.129,96.7355,0.0010182,0.343715,20.6037,539.751,0.316394,0,0
2460,614.75,54.1366,61.6796,143.463,100.212,96.8653,0.001146343,0.34395,20.6016,539.441,0.311716,0,0
2470,617.25,54.781,61.2313,144.064,100.319,97.1295,0.001191301,0.345503,20.5991,539.201,0.296493,0,0
2480,619.75,54.4448,61.5223,141.855,100.398,96.2948,0.001086446,0.348211,20.5978,538.901,0.382885,0,0
2490,622.25,54.9226,61.7767,143.548,100.504,97.2207,0.00111421,0.349517,20.5976,538.65,0.304749,0,0
2500,624.75,54.8727,61.8812,141,100.593,96.6797,0.001133061,0.34968,20.5986,538.36,0.364122,0,0
2510,627.25,55.5616,61.6172,145.385,100.694,97.5164,0.001066366,0.350678,20.5972,538.09,0.2942231,0,0
2520,629.75,55.1238,61.5716,146.112,100.765,98.5691,0.000937869,0.352179,20.594,537.83,0.202192,0,0
2530,632.25,55.7673,61.671,140.267,100.826,96.8891,0.000790273,0.353211,20.5928,537.539,0.365449,0,0
2540,634.75,55.2838,61.8002,146.126,100.908,97.2071,0.000727687,0.353728,20.5924,537.279,0.342887,0,0
2550,637.25,54.9561,62.0093,142.892,100.955,96.6797,0.000733167,0.354347,20.591,536.979,0.397076,0,0
2560,639.75,55.6801,61.825,142.193,101.011,96.2441,0.000879061,0.354969,20.5894,536.699,0.443606,0,0
2570,642.25,56.2353,62.971,142.359,101.039,96.8764,0.000994679,0.356529,20.5872,536.418,0.386061,0,0
2580,644.75,55.2348,62.7999,143.43,101.083,96.6422,0.00109033,0.357911,20.5864,536.118,0.412282,0,0
2590,647.25,55.619,62.4416,149.423,101.076,97.7476,0.001115135,0.359435,20.5848,535.908,0.307281,0,0
2600,649.75,55.5567,62.5161,147.754,101.095,96.9302,0.001239276,0.359442,20.5853,535.598,0.386061,0,0
2610,652.25,55.7935,62.8668,143.448,101.07,96.7847,0.001245611,0.359338,20.5856,535.327,0.397528,0,0
2620,654.75,55.7091,62.9722,143.297,101.075,96.3653,0.001113514,0.359846,20.5842,535.027,0.437822,0,0
2630,657.25,55.8557,62.8157,148.239,101.036,96.4353,0.000990726,0.360737,20.5808,534.767,0.427643,0,0
2640,659.75,56.2868,62.7226,143.101,101.011,96.6254,0.000846464,0.363233,20.576,534.447,0.407321,0,0
2650,662.25,55.8421,63.4662,143.991,100.982,96.5823,0.000858106,0.366477,20.5733,534.216,0.408755,0,0
2660,664.75,56.1265,63.406,144.296,100.944,97.2162,0.000923321,0.367249,20.5724,533.896,0.345248,0,0
2670,667.25,56.0524,63.3086,141.15,100.893,96.6908,0.000936655,0.367664,20.573,533.596,0.390396,0,0
2680,669.75,56.1296,63.4584,145.285,100.845,95.879,0.000966273,0.369192,20.5724,533.326,0.46334,0,0
2690,672.25,56.5467,63.3079,144.463,100.788,96.5387,0.001158575,0.369806,20.571,533.045,0.39528,0,0
2700,674.75,56.7294,63.5459,143.798,100.718,95.8354,0.001284266,0.370984,20.5681,532.765,0.455955,0,0
2710,677.25,55.8855,64.0875,142.61,100.697,97.5164,0.0012859,0.373808,20.5633,532.465,0.294486,0,0
2720,679.75,56.243,64.4694,148.761,100.653,96.0256,0.00126504,0.376947,20.5596,532.164,0.431869,0,0
2730,682.25,56.7228,64.4367,146.053,100.621,96.7005,0.001168066,0.380192,20.5556,531.884,0.364705,0,0
2740,684.75,57.1269,64.637,143.269,100.573,94.7087,0.001080794,0.381631,20.5542,531.594,0.551288,0,0
2750,687.25,56.7998,64.6104,139.89,100.569,95.2492,0.00119709,0.38275,20.5537,531.304,0.498688,0,0
2760,689.75,57.2456,64.7274,141.012,100.541,94.947,0.001409019,0.383843,20.5516,531.003,0.525291,0,0
2770,692.25,57.3238,64.7423,142.39,100.575,94.876,0.001532263,0.384672,20.55,530.723,0.535276,0,0
2780,694.75,57.2143,64.755,146.887,100.737,94.9708,0.001585255,0.386661,20.546,530.393,0.54084,0,0
2790,697.25,57.2235,65.3705,148.76,100.902,95.6011,0.001744501,0.390059,20.54,530.123,0.495223,0,0
2800,699.75,57.4172,65.6928,139.831,101.021,95.1519,0.001801794,0.394274,20.5334,529.792,0.549199,0,0
2810,702.25,57.6205,65.8853,142.251,101.143,96.5463,0.001755673,0.397532,20.5306,529.502,0.426773,0,0
2820,704.75,57.9426,65.8263,142.137,101.246,94.7589,0.001798272,0.3992,20.5292,529.162,0.607633,0,0
2830,707.25,58.2446,66.032,146.571,101.318,93.8375,0.00181532,0.401099,20.527,528.861,0.703789,0,0
2840,709.75,58.3623,66.3799,136.375,101.376,94.1686,0.001879117,0.403479,20.5227,528.521,0.676766,0,0
2850,712.25,58.3837,66.4129,143.626,101.418,95.3162,0.001861461,0.40622,20.5197,528.241,0.569354,0,0
2860,714.75,58.5706,67.0014,139.939,101.471,95.6285,0.001707504,0.410926,20.5126,527.871,0.544142,0,0
2870,717.25,58.6618,66.7724,139.105,101.483,95.6848,0.001554861,0.414382,20.5099,527.55,0.539861,0,0
2880,719.75,58.8558,66.8868,136.116,101.505,94.4891,0.001356583,0.415617,20.5079,527.27,0.657224,0,0
2890,722.25,58.9041,67.3502,142.354,101.497,96.5808,0.001297838,0.418052,20.505,526.9,0.455564,0,0
2900,724.75,59.0738,67.3742,141.644,101.504,94.5398,0.001644696,0.421569,20.5001,526.599,0.65219,0,0
2910,727.25,59.6026,67.8018,142.298,101.476,95.1296,0.002048823,0.42676,20.4926,526.269,0.59263,0,0
2920,729.75,59.8401,68.1929,139.065,101.46,94.2219,0.002153858,0.431014,20.4878,525.929,0.679187,0,0
2930,732.25,60.1792,68.3536,143.736,101.421,93.8837,0.002076517,0.433739,20.4856,525.568,0.708644,0,0
2940,734.75,60.3628,68.217,143.828,101.381,93.0886,0.001999948,0.436399,20.4813,525.248,0.783068,0,0
2950,737.25,60.3638,68.7828,139.502,101.327,92.9694,0.00213136,0.439526,20.4778,524.888,0.789934,0,0
2960,739.75,60.4602,69.1999,142.88,101.274,93.1849,0.002259507,0.443056,20.4724,524.537,0.763871,0,0
2970,742.25,60.9702,69.5918,147.802,101.199,94.5839,0.002140493,0.446351,20.4686,524.177,0.62033,0,0
2980,744.75,60.9487,69.9795,139.886,101.114,93.2483,0.00210603,0.449153,20.4659,523.877,0.74313,0,0
2990,747.25,61.0135,69.72,140.818,101.023,93.2473,0.002227946,0.451401,20.4625,523.497,0.734922,0,0
3000,749.75,61.2795,70.1629,141.281,100.955,92.3442,0.002569582,0.454273,20.4591,523.136,0.818046,0,0
3010,752.25,61.1421,70.592,136.54,100.983,92.1484,0.002872998,0.457931,20.4527,522.796,0.840064,0,0
3020,754.75,61.7618,70.8467,136.824,100.999,92.6231,0.002919084,0.460862,20.4477,522.426,0.79442,0,0
3030,757.25,61.9062,71.0274,141.022,101.06,93.051,0.00311115,0.46357,20.4448,522.065,0.757622,0,0
3040,759.75,61.9936,71.4387,144.385,101.078,92.3756,0.003347187,0.466325,20.4436,521.715,0.82608,0,0
3050,762.25,62.3765,71.1551,145.743,101.138,93.297,0.003410691,0.469031,20.4395,521.375,0.74051,0,0
3060,764.75,62.9116,71.7171,138.207,101.17,92.1084,0.003327687,0.472277,20.4338,521.004,0.861042,0,0
3070,767.25,62.467,71.6488,142.165,101.224,92.1611,0.003297136,0.476246,20.4277,520.634,0.860687,0,0
3080,769.75,62.6929,72.3948,139.44,101.263,92.222,0.003396028,0.478938,20.4242,520.274,0.85818,0,0
3090,772.25,63.3857,72.2138,141.738,101.331,92.1358,0.003799852,0.481924,20.4212,519.893,0.872884,0,0
3100,774.75,63.2321,72.4356,137.844,101.381,92.9243,0.003910467,0.483055,20.4202,519.533,0.799203,0,0
3110,777.25,63.7849,72.9511,137.214,101.443,92.0338,0.003725633,0.483294,20.4198,519.173,0.893225,0,0
3120,779.75,64.0039,72.5935,141.366,101.511,93.3112,0.003915103,0.484126,20.4183,518.792,0.772896,0,0
3130,782.25,63.633,73.4136,137.207,101.564,91.2235,0.004118536,0.486257,20.4146,518.422,0.985292,0,0
3140,784.75,64.2075,73.7749,137.154,101.615,91.8371,0.004102323,0.488838,20.4106,518.042,0.928396,0,0
3150,787.25,64.1791,74.1307,142.212,101.658,91.5506,0.004181608,0.491529,20.4072,517.641,0.960976,0,0
3160,789.75,64.1957,74.4068,146.711,101.708,92.1758,0.004192851,0.494339,20.4033,517.261,0.902985,0,0
3170,792.25,64.6447,74.4417,139.669,101.742,90.003,0.004267736,0.496923,20.3996,516.901,1.12493,0,0
3180,794.75,64.5569,74.9464,139.221,101.75,90.8716,0.004644294,0.4989914,20.3959,516.53,1.03758,0,0
3190,797.25,65.0844,75.0216,142.73,101.758,90.6008,0.005179091,0.500899,20.3934,516.16,1.06567,0,0
3200,799.75,65.5023,74.8113,142.367,101.782,90.0872,0.005617104,0.502028,20.3923,515.769,1.12003,0,0
3210,802.25,65.188,75.5884,134.854,101.779,90.0572,0.005568487,0.502578,20.3919,515.369,1.12275,0,0
3220,804.75,65.6526,75.831,135.428,101.782,91.655,0.005414272,0.505532,20.3868,514.949,0.961704,0,0
3230,807.25,65.4466,75.4697,142.2,101.771,90.5846,0.005152881,0.507986,20.3832,514.598,1.06846,0,0
3240,809.75,65.653,76.3813,137.365,101.761,89.7971,0.005212863,0.510944,20.3774,514.178,1.14765,0,0
3250,812.25,65.6861,76.8837,138.52,101.73,92.6591,0.005571794,0.516118,20.3723,513.778,0.856975,0,0
3260,814.75,65.8927,76.6676,138.7,101.706,92.5313,0.005663662,0.5183,20.3693,513.387,0.867518,0,0
3270,817.25,66.4207,76.7084,138.734,101.674,91.1875,0.005734298,0.520917,20.364,513.007,0.998815,0,0
3280,819.75,66.7037,77.3446,137.943,101.621,90.5973,0.005842443,0.523185,20.3616,512.607,1.05368,0,0
3290,822.25,66.7748,77.1531,140.434,101.585,90.4928,0.005736575,0.522369,20.3638,512.236,1.06095,0,0
3300,824.75,67.414,77.3372,138.23,101.512,89.285,0.005575757,0.521609,20.3646,511.846,1.17766,0,0
3310,827.25,66.8922,77.6297,142.138,101.449,90.974,0.005570056,0.520879,20.3648,511.446,0.999989,0,0
3320,829.75,67.3122,77.6461,133.832,101.371,89.4543,0.005676629,0.520079,20.3684,511.085,1.14752,0,0
3330,832.25,67.2462,77.5288,140.455,101.292,89.5339,0.005680199,0.516144,20.3764,510.715,1.13223,0,0
3340,834.75,67.0701,77.5728,139.455,101.205,90.6642,0.00558456,0.511235,20.3815,510.335,1.00923,0,0
3350,837.25,67.2616,77.4166,141.567,101.127,89.79,0.005440731,0.507337,20.3844,509.954,1.09111,0,0
3360,839.75,67.5802,77.0472,142.333,101.018,90.4913,0.005257653,0.501338,20.3986,509.634,1.00977,0,0
3370,842.25,67.3623,76.1315,141.256,100.946,89.9624,0.004930878,0.491076,20.4094,509.274,1.05704,0,0
3380,844.75,66.6015,76.4667,142.845,100.837,90.0643,0.004363478,0.48044,20.423,508.943,1.03675,0,0
3390,847.25,66.4879,75.8957,141.604,100.761,90.5111,0.003845933,0.468778,20.4376,508.643,0.984442,0,0
3400,849.75,66.1602,75.1914,146.009,100.666,90.7144,0.003299966,0.455634,20.4531,508.323,0.955176,0,0
3410,852.25,65.8412,74.6836,139.149,100.57,90.1708,0.002860868,0.438572,20.4734,508.052,1.00157,0,0
3420,854.75,65.045,73.3795,142.954,100.468,91.7347,0.002601119,0.4187,20.5033,507.812,0.834497,0,0
3430,857.25,64.4287,72.576,146.304,100.374,90.9994,0.002153485,0.398258,20.5269,507.552,0.899716,0,0
3440,859.75,64.0416,71.9229,141.622,100.289,92.0825,0.001706848,0.37799,20.5561,507.352,0.783339,0,0
3450,862.25,63.3824,70.6676,151.395,100.2,92.8776,0.001365681,0.354699,20.5818,507.162,0.696372,0,0
3460,864.75,62.5394,69.2921,149.852,100.137,94.6057,0.00092899,0.331235,20.6056,507.002,0.52139,0,0
3470,867.25,61.725,67.7396,149.958,100.058,93.9531,0.000784814,0.308336,20.6352,506.861,0.577653,0,0
3480,869.75,60.7485,66.5842,150.72,100.005,94.0895,0.000876149,0.287749,20.6561,506.741,0.559464,0,0
3490,872.25,60.1058,65.1673,144.417,99.9634,93.5596,0.000994677,0.269588,20.6736,506.601,0.607504,0,0
3500,874.75,59.4134,63.7215,146.381,99.9498,94.729,0.001027403,0.253124,20.6898,506.511,0.492283,0,0
3510,877.25,58.16,63.0093,149.486,99.8937,95.6062,0.001103961,0.239735,20.7047,506.391,0.402549,0,0
3520,879.75,57.2434,61.9166,146.557,99.8933,95.8111,0.001344007,0.227822,20.7195,506.331,0.382871,0,0
3530,882.25,57.0948,60.3439,157.049,99.8723,95.6711,0.001498014,0.217572,20.7317,506.241,0.394352,0,0
3540,884.75,56.0921,59.728,149.716,99.8805,95.7822,0.00154181,0.20825,20.7409,506.171,0.384465,0,0
3550,887.25,55.5866,58.1566,145.9,99.8797,96.6128,0.00166254,0.20149,20.7476,506.101,0.30516,0,0
3560,889.75,54.9283,57.6154,152.107,99.9082,98.167,0.0016972,0.195526,20.755,506.051,0.161333,0,0
3570,892.25,54.4463,56.6702,150.815,99.9255,97.8115,0.001728102,0.190011,20.7612,505.971,0.19621,0,0
3580,894.75,53.8104,55.5871,149.448,99.9428,98.1938,0.0018957,0.185111,20.7645,505.961,0.162,0,0
3590,897.25,53.2316,55.3346,151.175,99.9931,98.1249,0.002062741,0.184406,20.7656,505.83,0.173062,0,0
3600,899.75,52.7206,54.6532,153.513,100.015,97.7775,0.002171732,0.182337,20.7672,505.75,0.207645,0,0
3610,902.25,52.1353,54.2071,150.922,100.079,98.1573,0.002154327,0.178878,20.7726,505.66,0.177892,0,0
3620,904.75,51.8117,53.9755,148.561,100.118,98.6776,0.002079983,0.176041,20.7758,505.6,0.133012,0,0
3630,907.25,51.6045,53.2048,153.648,100.182,98.8241,0.002091144,0.174038,20.7775,505.54,0.12521,0,0
3640,909.75,51.146,52.8457,152.931,100.225,98.7019,0.002265901,0.172534,20.778,505.49,0.140528,0,0
3650,912.25,51.2546,51.8869,154.622,100.297,98.6974,0.002289439,0.171048,20.7793,505.44,0.147554,0,0
3660,914.75,50.6382,51.8703,150.297,100.352,98.8901,0.002145435,0.169475,20.7814,505.4,0.134633,0,0
3670,917.25,50.3733,51.0516,148.924,100.432,98.5244,0.002101038,0.168111,20.7837,505.33,0.176006,0,0
3680,919.75,49.3044,50.7814,156.746,100.489,98.7643,0.002210893,0.166608,20.7854,505.27,0.158889,0,0
3690,922.25,48.8709,50.7192,149.676,100.568,98.9418,0.00240771,0.164394,20.7874,505.21,0.149639,0,0
3700,924.75,49.0234,49.9982,150.027,100.645,98.7313,0.002649008,0.162536,20.789,505.17,0.176169,0,0
3710,927.25,49.0189,49.8724,154.242,100.725,99.0848,0.002727835,0.161403,20.7902,505.12,0.150668,0,0
3720,929.75,48.367,49.9485,150.901,100.787,99.4169,0.002775308,0.160959,20.7898,505.07,0.125629,0,0
3730,932.25,48.4499,49.0448,149.835,100.86,99.4702,0.002758281,0.160867,20.7889,505.01,0.127355,0,0
3740,934.75,48.0084,49.154,154.487,100.923,99.6588,0.00261674,0.159979,20.7901,504.96,0.115669,0,0
3750,937.25,47.9119,49.031,152.412,100.981,99.1477,0.00258568,0.159108,20.7906,504.87,0.168098,0,0
3760,939.75,47.9446,48.5531,156.675,101.036,99.2754,0.002732982,0.159044,20.7911,504.86,0.161298,0,0
3770,942.25,47.7548,48.1634,150.519,101.073,99.386,0.002857085,0.1585145,20.7924,504.759,0.154491,0,0
3780,944.75,47.1356,48.2996,156.764,101.127,99.17,0.002876126,0.157271,20.7943,504.719,0.179284,0,0
3790,947.25,46.6866,47.9486,151.262,101.151,99.7668,0.002940866,0.156244,20.7955,504.679,0.126468,0,0
3800,949.75,46.6131,48.0411,148.256,101.202,99.0376,0.003039403,0.155813,20.7959,504.659,0.198417,0,0
3810,952.25,46.7624,47.7846,154.973,101.19,99.3779,0.002994614,0.1555136,20.796,504.579,0.165862,0,0
3820,954.75,46.7231,47.3114,153.359,101.235,99.1882,0.002875083,0.15555,20.7961,504.579,0.187425,0,0
3830,957.25,46.468,47.3956,156.759,101.234,98.8399,0.002909929,0.1556485,20.7943,504.509,0.219636,0,0
3840,959.75,46.1618,47.22,150.793,101.263,99.099,0.003081074,0.156794,20.7924,504.469,0.198227,0,0
3850,962.25,45.5916,46.9659,157.434,101.238,99.1304,0.003183041,0.157932,20.7918,504.399,0.193036,0,0
3860,964.75,45.7534,47.1897,150.082,101.229,99.1512,0.003052052,0.157535,20.7937,504.359,0.190291,0,0
3870,967.25,45.5074,46.9825,154.337,101.215,99.3074,0.003015314,0.156148,20.7953,504.359,0.174577,0,0
3880,969.75,45.6674,46.0589,153.71,101.174,99.1801,0.003204281,0.155614,20.7977,504.279,0.182646,0,0
3890,972.25,45.3292,46.5792,151.786,101.153,99.0407,0.003425305,0.155717,20.7976,504.259,0.193687,0,0
3900,974.75,45.6925,45.0798,154.542,101.108,99.0371,0.003577943,0.15638,20.7975,504.189,0.189902,0,0
3910,977.25,45.2837,46.1455,155.467,101.073,98.8449,0.003581967,0.156303,20.7996,504.159,0.204582,0,0
3920,979.75,45.1727,46.2628,156.387,101.009,99.171,0.003403301,0.155266,20.8019,504.079,0.168524,0,0
3930,982.25,44.927,45.924,152.099,100.99,98.5265,0.003316729,0.15384,20.8034,504.049,0.22663,0,0
3940,984.75,44.8198,45.2591,154.845,100.92,98.7344,0.003404756,0.152738,20.8041,504.029,0.200881,0,0
3950,987.25,43.9064,45.7528,151.381,100.878,98.778,0.003564479,0.153381,20.8028,503.969,0.193081,0,0
3960,989.75,44.6444,45.6385,152.498,100.825,98.7896,0.003519352,0.154266,20.8023,503.939,0.187122,0,0
3970,992.25,44.2568,45.6147,154.47,100.801,98.9453,0.003531002,0.153509,20.803,503.909,0.170461,0,0
3980,994.75,43.7967,45.3122,152.697,100.75,98.7278,0.003684451,0.151883,20.8069,503.819,0.186077,0,0
3990,997.25,44.0564,45.4857,153.426,100.742,98.7511,0.003871525,0.149859,20.8098,503.789,0.183159,0,0
4000,999.75,43.8721,44.7853,155.844,100.702,98.3434,0.003964081,0.14864,20.8108,503.739,0.21744,0,0
4010,1002.25,43.7396,45.199,152.944,100.678,98.6299,0.003926986,0.147791,20.8112,503.719,0.188606,0,0
4020,1004.75,43.3661,44.5914,153.538,100.66,98.7334,0.003893648,0.148191,20.81,503.678,0.177296,0,0
4030,1007.25,43.7176,44.8862,151.17,100.632,98.2694,0.004060377,0.14903,20.8094,503.628,0.218001,0,0
4040,1009.75,43.1959,44.7077,153.084,100.734,98.5919,0.00429446,0.148934,20.8103,503.578,0.197215,0,0
4050,1012.25,43.5048,44.9392,155.396,100.845,98.1573,0.004406892,0.148226,20.811,503.538,0.247919,0,0
4060,1014.75,42.7926,44.4907,153.994,100.951,99.1289,0.004445844,0.146975,20.812,503.488,0.167176,0,0
4070,1017.25,43.9153,42.743,155.857,101.039,99.1116,0.004465438,0.146118,20.8116,503.448,0.17671,0,0
4080,1019.75,42.8718,44.0946,157.046,101.123,98.851,0.004489012,0.145472,20.8127,503.408,0.208544,0,0
4090,1022.25,42.8956,44.108,155.593,101.189,98.6365,0.004523834,0.144737,20.812,503.358,0.234423,0,0
4100,1024.75,42.688,43.8159,150.495,101.275,99.1056,0.004508335,0.144598,20.8116,503.308,0.198699,0,0
4110,1027.25,42.6265,44.0159,158.337,101.337,99.6897,0.004504359,0.146221,20.8086,503.288,0.150372,0,0
4120,1029.75,42.9875,43.4957,155.788,101.395,99.1836,0.004562316,0.150048,20.8041,503.268,0.202296,0,0
4130,1032.25,42.1253,43.808,155.557,101.448,99.7374,0.004622127,0.154119,20.7991,503.208,0.156057,0,0
4140,1034.75,41.7325,43.6097,153.643,101.498,99.2927,0.004658822,0.157515,20.7965,503.178,0.201536,0,0
4150,1037.25,41.7727,43.5102,153.431,101.543,99.385,0.004735912,0.158671,20.7968,503.118,0.197109,0,0
4160,1039.75,41.1165,43.6915,157.376,101.555,99.3348,0.00485821,0.157185,20.8014,503.058,0.202863,0,0
4170,1042.25,41.6269,43.0661,152.788,101.596,99.1405,0.005005102,0.153605,20.8079,503.038,0.224545,0,0
4180,1044.75,41.0409,42.7673,150.842,101.614,99.3951,0.005188418,0.150453,20.8113,503.018,0.202577,0,0
4190,1047.25,41.0411,42.64,154.639,101.615,99.4544,0.00527057,0.147842,20.8139,502.968,0.197176,0,0
4200,1049.75,41.3027,42.5015,157.427,101.606,99.2719,0.005356103,0.146726,20.8148,502.948,0.213254,0,0
4210,1052.25,40.878,42.7666,155.215,101.615,99.2384,0.005380965,0.146184,20.8152,502.898,0.217128,0,0
4220,1054.75,41.1779,42.5373,153.126,101.583,99.4397,0.005357952,0.145353,20.8153,502.858,0.195667,0,0
4230,1057.25,40.9552,42.7757,154.68,101.573,99.5411,0.005415515,0.145162,20.8154,502.818,0.185419,0,0
4240,1059.75,40.7576,42.4237,152.574,101.534,99.5386,0.005488428,0.1454335,20.8154,502.798,0.182152,0,0
4250,1062.25,41.0407,42.4493,152.949,101.52,99.6684,0.005587233,0.145043,20.8148,502.758,0.168889,0,0
4260,1064.75,40.3862,42.4396,151.766,101.473,99.0041,0.005867735,0.145927,20.8114,502.698,0.22604,0,0
4270,1067.25,40.2222,42.2952,158.192,101.429,99.3708,0.006233764,0.148391,20.8074,502.658,0.188096,0,0
4280,1069.75,40.6373,41.9944,152.893,101.374,99.2369,0.006314183,0.149967,20.8064,502.638,0.195506,0,0
4290,1072.25,40.4483,42.1045,155.088,101.32,98.9408,0.006139357,0.149747,20.8078,502.587,0.218041,0,0
4300,1074.75,40.1144,42.1429,153.632,101.259,99.316,0.006014866,0.148162,20.8102,502.547,0.177815,0,0
4310,1077.25,40.4767,41.9247,156.318,101.176,99.0077,0.005998168,0.146981,20.811,502.487,0.198797,0,0
4320,1079.75,40.2421,41.6309,157.269,101.104,98.7217,0.005907922,0.145817,20.8113,502.477,0.218797,0,0
4330,1082.25,40.216,42.0362,156.854,101.097,99.4889,0.00588262,0.145582,20.8113,502.417,0.147126,0,0
4340,1084.75,39.9078,41.5674,155.806,101.112,98.8013,0.006080664,0.144888,20.8129,502.407,0.212149,0,0
4350,1087.25,40.1876,41.7371,156.452,101.145,98.5914,0.006320699,0.143689,20.8162,502.417,0.234658,0,0
4360,1089.75,39.5681,41.4056,155.621,101.176,98.9169,0.006487039,0.143022,20.8164,502.357,0.207251,0,0
4370,1092.25,39.1702,41.188,157.657,101.219,99.1056,0.00655382,0.143373,20.8159,502.297,0.193619,0,0
4380,1094.75,39.6512,41.5601,157.074,101.265,98.5097,0.006410054,0.143754,20.8158,502.247,0.253136,0,0
4390,1097.25,39.8165,41.7072,154.113,101.306,99.1436,0.006344724,0.144273,20.8157,502.217,0.197978,0,0
4400,1099.75,39.4499,41.6105,156.711,101.362,98.9499,0.00635466,0.143904,20.8157,502.207,0.221001,0,0
4410,1102.25,39.2496,41.2811,157.624,101.4,99.3545,0.006374063,0.143732,20.8162,502.177,0.187021,0,0
4420,1104.75,39.3091,41.7154,152.799,101.45,98.8829,0.006404912,0.143458,20.8165,502.137,0.235193,0,0
4430,1107.25,39.1653,41.7281,156.342,101.482,99.0549,0.006261557,0.142856,20.8163,502.097,0.222124,0,0
4440,1109.75,39.4412,41.3757,154.978,101.537,99.3444,0.006268863,0.142592,20.8167,502.047,0.200297,0,0
4450,1112.25,39.2503,41.1703,153.909,101.571,98.852,0.006552413,0.143311,20.8171,501.987,0.248943,0,0
4460,1114.75,39.3476,41.504,152.565,101.608,99.2967,0.006779138,0.143603,20.8173,501.967,0.211105,0,0
4470,1117.25,39.1947,41.2294,157.599,101.638,99.2719,0.006917788,0.143482,20.8177,501.987,0.216156,0,0
4480,1119.75,38.8456,40.349,157.56,101.661,99.0493,0.007101113,0.14337,20.818,501.917,0.238802,0,0
4490,1122.25,39.3531,40.6983,155.05,101.693,99.5315,0.007213132,0.143629,20.8172,501.867,0.197137,0,0
4500,1124.75,38.6912,40.8443,153.215,101.714,99.6436,0.007273197,0.14401,20.8163,501.817,0.188746,0,0
4510,1127.25,39.0486,40.4787,153.31,101.752,99.4808,0.007321388,0.144387,20.8164,501.757,0.207167,0,0
4520,1129.75,38.338,41.112,152.293,101.772,100.112,0.007211866,0.144154,20.8169,501.737,0.150867,0,0
4530,1132.25,38.656,40.7333,152.776,101.796,99.9463,0.007002106,0.14357,20.8182,501.707,0.168307,0,0
4540,1134.75,38.7325,41.2561,154.829,101.811,99.3484,0.006865785,0.143149,20.8181,501.677,0.224661,0,0
4550,1137.25,38.5633,41.0293,156.929,101.843,99.4884,0.006917671,0.143156,20.8179,501.667,0.21464,0,0
4560,1139.75,39.0952,40.7668,153.123,101.848,99.4083,0.007142773,0.142922,20.818,501.647,0.222442,0,0
4570,1142.25,38.7359,40.6999,155.354,101.873,99.3672,0.007408048,0.142602,20.819,501.587,0.228499,0,0
4580,1144.75,38.453,40.6319,156.077,101.885,99.3459,,0.142233,,501.567,0.231617,0,0
4590,1147.25,38.5094,40.3457,155.577,101.904,99.5067,,,,501.476,0.218452,0,0
4600,1149.75,38.3816,40.5085,156.144,101.901,99.5219,,,,501.446,0.216789,0,0
4610,1152.25,38.0667,40.0642,152.405,101.919,100.312,,,,501.406,0.145821,0,0
4615,1153.5,38.4189,40.4415,154.992,101.905,99.6319,,,,501.406,0.20702,0,0
,,,,,,,,,,,,,
,,,,,,,,,,,,,
,,,,,,,,,,,,,
,,,,,,,,,,,,,
,,,,,,,,,,,,,
,,,,,,,,,,,,,
,,,,,,,,,,,,,
,,,,,,,,,,,,,
,,,,,,,,,,,,,
,,,,,,,,,,,,,
,,,,,,,,,,,,,
,,,,,,,,,,,,,
,,,,,,,,,,,,,
,,,,,,,,,,,,,
,,,,,,,,,,,,,
,,,,,,,,,,,,,
,,,,,,,,,,,,,
,,,,,,,,,,,,,
,,,,,,,,,,,,,
,,,,,,,,,,,,,