File: 02_Data/MDF/Cone/MDF_Cone_HF50scan_210326_R2.csv
Names,Time,Stack TC,Smoke TC,Exh Press,Smoke Comp,Smoke Meas,CO Meter,CO2 Meter,O2 Meter,Sample Mass,Ext Coeff,Start Test,Flame Verif
Chan Gain,,500,500,1,1,1,1,1,1,1,1,1,1
Offset,,0,0,0.138348,0,0,0,0,0,0,0,0,0
Gain,,1,1,25.011,13.5067,16.616,1,1,1,1.00091,1.04608,1,1
Units,sec,C,C,Pa,%,%,%,%,%,g,/m,,
Baseline,,30.7405,32.6648,159.584,101.226,98.239,-0.001043379,0.0609083,20.9321,-0.402366,0.274901,,
10,2.25,27.7725,28.8258,158.575,101.713,98.7531,-0.00114257,0.0650918,20.9267,617.062,0.270964,0,0
20,4.75,28.336,29.6145,159.502,101.707,98.5062,-0.001105113,0.0649449,20.9274,617.022,0.293381,0,0
30,7.25,28.4692,29.7882,157.037,101.695,98.4169,-0.001008092,0.06442602,20.9279,616.952,0.30062,0,0
40,9.75,28.5572,29.6834,158.149,101.687,98.5838,-0.000906121,0.06371963,20.9293,616.912,0.284409,0,0
50,12.25,28.7648,30.0443,159.889,101.672,98.6284,-0.000898836,0.0630699,20.9298,616.832,0.27888,0,0
60,14.75,28.9814,30.6245,159.994,101.67,97.8622,-0.000922608,0.0624096,20.9306,616.791,0.350295,0,0
70,17.25,28.9565,31.2867,160.184,101.641,98.1193,-0.000892959,0.0620317,20.9303,616.761,0.323579,0,0
80,19.75,29.2594,31.4085,155.016,101.624,97.7709,-0.000995764,0.06336581,20.9264,616.741,0.354653,0,0
90,22.25,28.689,30.9806,157.331,101.621,97.0499,-0.001146173,0.0682597,20.9197,616.731,0.422317,0,0
100,24.75,28.7581,31.2374,157.002,101.59,96.6538,-0.001035754,0.071825,20.9156,616.651,0.457047,0,0
110,27.25,28.7735,31.1912,153.668,101.56,96.6528,-0.000754835,0.0750384,20.9129,616.581,0.454463,0,0
120,29.75,29.3645,31.7538,154.867,101.547,95.1945,-0.000432767,0.0816817,20.9091,616.451,0.592744,0,0
130,32.25,30.0775,34.1015,141.313,101.502,98.204,0.000176417,0.135869,20.8408,616.241,0.303076,0,1
140,34.75,32.6413,37.6972,139.362,101.482,97.9433,0.00089023,0.220585,20.6543,615.811,0.325711,0,1
150,37.25,35.7682,43.4572,141.694,101.447,97.4697,0.001647488,0.348154,20.4934,615.34,0.366984,0,1
160,39.75,39.4393,48.5172,133.904,101.432,95.9236,0.002342176,0.452922,20.3887,614.84,0.512325,0,0
170,42.25,42.143,53.113,137.278,101.386,96.8404,0.002805999,0.530466,20.3076,614.369,0.420899,0,0
180,44.75,44.9469,56.8874,138.462,101.35,96.9145,0.003287566,0.589393,20.261,613.869,0.410678,0,0
190,47.25,47.5487,61.2554,139.258,101.327,95.09,0.003687158,0.620924,20.2329,613.348,0.582943,0,0
200,49.75,49.7192,64.5502,137.833,101.299,95.3364,0.003884187,0.644635,20.2191,612.868,0.556692,0,0
210,52.25,51.9863,67.172,135.763,101.273,93.8228,0.004206508,0.655744,20.2152,612.387,0.701195,0,0
220,54.75,53.3599,69.5512,136.879,101.23,93.4694,0.004503879,0.65843,20.2189,611.847,0.731942,0,0
230,57.25,54.7919,71.16,135.595,101.22,91.8777,0.004709514,0.657325,20.2285,611.316,0.888617,0,0
240,59.75,56.2055,72.5462,132.258,101.193,92.2661,0.00486888,0.653182,20.2366,610.876,0.847402,0,0
250,62.25,56.6829,73.8329,142.205,101.211,93.262,0.005036942,0.647264,20.2468,610.396,0.750569,0,0
260,64.75,57.3738,74.8047,138.22,101.209,91.9121,0.005216696,0.639099,20.2575,609.925,0.884202,0,0
270,67.25,58.2798,74.9784,137.168,101.226,90.6328,0.005353058,0.63041,20.2687,609.405,1.01428,0,0
280,69.75,59.2496,76.0461,132.616,101.226,90.7083,0.005504504,0.620836,20.2833,608.964,1.00671,0,0
290,72.25,58.6839,75.5556,139.045,101.25,91.0572,0.005667735,0.610403,20.2973,608.464,0.973616,0,0
300,74.75,59.6321,76.2162,141.129,101.258,91.3158,0.005829827,0.597157,20.3134,607.993,0.948339,0,0
310,77.25,59.6261,75.9727,138.717,101.271,90.3098,0.00570223,0.583583,20.3331,607.563,1.05115,0,0
320,79.75,59.6987,75.8046,136.809,101.282,90.1678,0.005540677,0.57056,20.3496,607.123,1.06656,0,0
330,82.25,59.8362,75.2055,143.048,101.296,90.4061,0.00544353,0.560438,20.3608,606.682,1.04368,0,0
340,84.75,59.5399,75.46,139.558,101.317,92.8634,0.005272585,0.551149,20.3737,606.272,0.799504,0,0
350,87.25,59.7467,75.1398,141.623,101.331,92.2357,0.004980221,0.540881,20.3863,605.852,0.86294,0,0
360,89.75,59.5081,73.8183,134.88,101.35,91.1287,0.00477558,0.529135,20.4023,605.441,0.975524,0,0
370,92.25,59.4483,74.0842,136.493,101.35,93.1839,0.004666296,0.517388,20.4138,605.011,0.770841,0,0
380,94.75,59.7313,73.6932,142.444,101.374,92.4162,0.00445233,0.509684,20.4211,604.61,0.848955,0,0
390,97.25,59.333,74.0054,140.571,101.384,92.1074,0.004213655,0.501203,20.4319,604.18,0.880564,0,0
400,99.75,59.2995,72.732,138.206,101.419,94.3968,0.004003288,0.491044,20.4467,603.8,0.658437,0,0
410,102.25,59.1341,72.3544,141.142,101.425,94.6377,0.003825443,0.483926,20.4542,603.409,0.635575,0,0
420,104.75,59.4806,72.3949,143.226,101.479,94.1691,0.003714816,0.479522,20.4595,603.059,0.68604,0,0
430,107.25,59.1966,71.9724,142.918,101.477,93.1738,0.003813372,0.473653,20.4667,602.629,0.783363,0,0
440,109.75,58.8738,70.9965,144.605,101.513,93.0079,0.00396432,0.467489,20.4746,602.248,0.802951,0,0
450,112.25,58.7858,71.1656,143.973,101.541,94.1813,0.003989828,0.461834,20.4803,601.878,0.690406,0,0
460,114.75,58.1985,70.7328,138.678,101.575,93.4227,0.004040567,0.45671,20.4852,601.498,0.767706,0,0
470,117.25,58.3029,70.256,137.749,101.621,93.8162,0.003918929,0.452143,20.4891,601.127,0.73327,0,0
480,119.75,58.2946,70.1158,144.877,101.642,93.727,0.003466657,0.447401,20.4949,600.747,0.743901,0,0
490,122.25,58.04,69.2899,142.762,101.687,94.7716,0.003136212,0.442322,20.5015,600.367,0.646254,0,0
500,124.75,58.7238,69.4639,144.883,101.714,94.5013,0.003073273,0.437412,20.507,600.006,0.674953,0,0
510,127.25,58.1086,68.9754,148.648,101.759,94.5956,0.003197414,0.434102,20.5098,599.646,0.669814,0,0
520,129.75,58.3851,68.6774,145.911,101.786,95.4485,0.003293279,0.429664,20.5151,599.306,0.589902,0,0
530,132.25,57.8355,68.4979,143.547,101.818,96.4997,0.003146872,0.4257873,20.5196,598.935,0.492259,0,0
540,134.75,57.9562,67.8724,140.667,101.834,96.167,0.002979646,0.423007,20.5225,598.565,0.525431,0,0
550,137.25,57.5813,67.8602,142.047,101.864,96.2228,0.002967327,0.419242,20.5273,598.225,0.522784,0,0
560,139.75,57.6787,67.8662,144.211,101.877,95.6001,0.002837494,0.414993,20.5309,597.824,0.583509,0,0
570,142.25,57.5102,67.6234,139.855,101.915,96.5225,0.002759294,0.411097,20.5362,597.584,0.498815,0,0
580,144.75,57.0888,66.9389,146.451,101.918,95.8729,0.002867351,0.407912,20.5383,597.234,0.561073,0,0
590,147.25,57.3816,67.1167,142.789,101.941,94.7467,0.002944669,0.405487,20.5402,596.853,0.671544,0,0
600,149.75,56.9813,66.6047,146.855,101.951,95.9901,0.002759952,0.403079,20.5419,596.523,0.552801,0,0
610,152.25,57.3652,67.3835,146.329,101.965,96.3836,0.002662227,0.401427,20.5438,596.173,0.516559,0,0
620,154.75,58.1159,67.2074,141.038,101.986,95.7345,0.002727019,0.399677,20.5453,595.812,0.580454,0,0
630,157.25,57.2285,67.2621,142.381,101.982,96.737,0.002590531,0.398336,20.5458,595.492,0.484531,0,0
640,159.75,57.4176,66.8825,142.56,102.01,96.0306,0.002508778,0.397324,20.5474,595.162,0.554264,0,0
650,162.25,57.6094,67.222,141.938,102.004,96.918,0.00261659,0.397273,20.5462,594.801,0.469341,0,0
660,164.75,57.3429,66.7742,140.205,102.036,96.918,0.002647852,0.397514,20.5452,594.441,0.472196,0,0
670,167.25,57.72,66.4496,149.003,102.021,96.5453,0.00256332,0.395572,20.5471,594.091,0.506179,0,0
680,169.75,57.8849,67.0444,146.1,102.017,96.5311,0.002521211,0.394508,20.5488,593.771,0.507195,0,0
690,172.25,57.6369,66.7767,145.659,102.026,96.4784,0.002535841,0.394658,20.5473,593.45,0.513024,0,0
700,174.75,57.2129,66.6138,144.474,102.05,96.5925,0.002542201,0.395707,20.5458,593.1,0.50433,0,0
710,177.25,57.8621,67.1905,141.128,102.029,97.4368,0.002543492,0.394694,20.5452,592.73,0.422582,0,0
720,179.75,58.4054,66.7959,146.552,102.055,97.5595,0.00246776,0.393731,20.5446,592.369,0.413405,0,0
730,182.25,57.3404,66.5956,146.9,102.061,97.5894,0.002311014,0.393086,20.5443,592.059,0.41111,0,0
740,184.75,57.4425,66.6357,147.045,102.05,98.2816,0.002221907,0.3929,20.5442,591.719,0.345258,0,0
750,187.25,57.922,67.0784,145.171,102.035,97.4581,0.002201317,0.392982,20.5442,591.318,0.42117,0,0
760,189.75,58.1494,67.1702,142.833,102.043,98.0513,0.002124608,0.39188,20.5458,590.978,0.366183,0,0
770,192.25,58.0999,66.6043,141.547,102.033,97.6979,0.002055143,0.389448,20.55,590.588,0.398355,0,0
780,194.75,58.0526,67.489,140.981,102.031,97.6122,0.002068417,0.386073,20.5554,590.227,0.406296,0,0
790,197.25,58.1273,67.0499,138.107,102.035,97.5235,0.001992955,0.383413,20.559,589.887,0.414976,0,0
800,199.75,58.441,67.0013,142.997,102.011,97.6497,0.001830652,0.381087,20.5614,589.537,0.400954,0,0
810,202.25,58.3364,67.1541,142.955,102.007,98.3358,0.001629889,0.37884,20.5639,589.216,0.3363,0,0
820,204.75,58.3585,67.0471,152.204,101.986,98.4027,0.001645341,0.376967,20.565,588.836,0.328239,0,0
830,207.25,58.3744,67.246,141.899,101.974,99.281,0.001691039,0.374521,20.5689,588.496,0.245554,0,0
840,209.75,58.1939,66.8634,145.981,101.939,98.9423,0.001507826,0.371698,20.5728,588.155,0.273835,0,0
850,212.25,58.2754,66.7851,146.572,101.927,98.5503,0.00138092,0.369435,20.5742,587.785,0.309185,0,0
860,214.75,58.1988,67.1373,148.328,101.89,98.7922,0.001445471,0.367654,20.5765,587.485,0.283314,0,0
870,217.25,58.1387,66.7222,146.371,101.874,99.6497,0.00149858,0.366064,20.5781,587.124,0.202602,0,0
880,219.75,58.2103,66.6484,142.893,101.831,99.1005,0.001579235,0.364756,20.5781,586.794,0.249412,0,0
890,222.25,58.6091,66.7481,143.62,101.796,97.4611,0.001522275,0.364319,20.578,586.464,0.399358,0,0
900,224.75,57.8959,66.1381,139.951,101.762,98.4357,0.001493062,0.364374,20.5789,586.134,0.304932,0,0
910,227.25,58.1051,66.4627,148.49,101.724,98.0696,0.001516161,0.362853,20.5809,585.813,0.335704,0,0
920,229.75,57.7293,66.0043,142.908,101.684,97.1822,0.00152269,0.361095,20.582,585.443,0.415542,0,0
930,232.25,57.8102,66.3682,146.323,101.628,98.1244,0.001466265,0.360679,20.5829,585.133,0.321914,0,0
940,234.75,57.6094,65.9093,139.955,101.608,98.0615,0.001531558,0.360584,20.5833,584.832,0.326009,0,0
950,237.25,57.5213,66.1551,145.384,101.528,98.1862,0.001630651,0.359288,20.5852,584.482,0.307082,0,0
960,239.75,57.3359,65.6238,145.344,101.481,97.307,0.001575772,0.357755,20.5878,584.152,0.385415,0,0
970,242.25,57.6496,65.7439,142.259,101.404,98.4966,0.00135549,0.35689,20.5898,583.841,0.266942,0,0
980,244.75,57.4837,65.6861,144.609,101.369,97.493,0.001233139,0.355188,20.5905,583.491,0.357739,0,0
990,247.25,57.8906,65.7394,142.392,101.313,99.7536,0.00110763,0.354684,20.5908,583.201,0.142327,0,0
1000,249.75,57.6429,65.8698,141.586,101.263,98.168,0.001129314,0.355303,20.5908,582.871,0.284803,0,0
1010,252.25,58.2577,65.7151,143.755,101.17,97.8647,0.001305808,0.354418,20.5929,582.5,0.30482,0,0
1020,254.75,57.5653,65.2551,144.36,101.108,97.3729,0.001322232,0.3509489,20.5956,582.24,0.345408,0,0
1030,257.25,57.6289,65.2627,147.938,101.038,97.8191,0.001364708,0.348487,20.5965,581.92,0.297091,0,0
1040,259.75,57.3106,65.1699,144.099,100.992,97.5782,0.001560567,0.348121,20.5972,581.579,0.31552,0,0
1050,262.25,57.5219,64.877,148.583,100.963,97.3024,0.001694202,0.348047,20.5978,581.269,0.338875,0,0
1060,264.75,57.109,65.1011,147.053,100.905,98.2572,0.001677575,0.347971,20.598,580.989,0.243985,0,0
1070,267.25,57.083,64.8769,144.714,100.866,97.8379,0.001627731,0.347424,20.5981,580.629,0.279671,0,0
1080,269.75,57.0086,64.8234,143.337,100.824,98.3835,0.001471447,0.347059,20.5981,580.328,0.224814,0,0
1090,272.25,57.3125,64.7839,144.759,100.792,98.2344,0.001262852,0.346484,20.5981,579.998,0.235841,0,0
1100,274.75,57.9074,64.9399,143.824,100.763,97.5803,0.001072276,0.345414,20.5994,579.758,0.29452,0,0
1110,277.25,57.4312,64.8233,144.415,100.753,97.6234,0.000893553,0.343934,20.6016,579.377,0.289567,0,0
1120,279.75,57.4181,64.731,146.071,100.714,98.1198,0.00076943,0.342792,20.6024,579.067,0.239456,0,0
1130,282.25,57.1176,64.7734,144.154,100.673,98.2598,0.000760076,0.341309,20.6029,578.767,0.222621,0,0
1140,284.75,57.2144,64.9331,140.325,100.639,98.4078,0.000844514,0.340231,20.6051,578.487,0.205722,0,0
1150,287.25,57.0492,64.7287,149.365,100.614,98.4169,0.000746074,0.339163,20.6077,578.206,0.202578,0,0
1160,289.75,57.4983,64.3308,144.195,100.575,98.0442,0.000581447,0.337947,20.6093,577.906,0.233861,0,0
1170,292.25,57.4532,64.5692,143.094,100.546,98.7983,0.000567246,0.336688,20.6099,577.616,0.160889,0,0
1180,294.75,57.0941,64.3227,146.645,100.5112,97.4408,0.000667675,0.334904,20.6101,577.296,0.28468,0,0
1190,297.25,56.8293,64.016,148.332,100.475,98.1457,0.000689071,0.333703,20.6113,576.985,0.215268,0,0
1200,299.75,57.2726,63.9308,140.79,100.437,98.743,0.000638617,0.332346,20.6121,576.705,0.156051,0,0
1210,302.25,57.0371,64.0207,144.278,100.407,97.1883,0.000667661,0.330302,20.6164,576.375,0.299003,0,0
1220,304.75,56.7191,63.4975,141.917,100.375,98.0412,0.000629573,0.328381,20.6187,576.124,0.215888,0,0
1230,307.25,56.8809,63.7385,147.758,100.332,98.2557,0.000459139,0.327962,20.6197,575.854,0.191914,0,0
1240,309.75,56.7387,63.4498,144.601,100.317,97.8728,0.000544515,0.327161,20.62,575.544,0.22638,0,0
1250,312.25,56.9258,63.4088,152.509,100.307,97.9063,0.000807578,0.325402,20.6223,575.264,0.222302,0,0
1260,314.75,56.0013,63.0392,148.421,100.27,97.8226,0.000912109,0.322917,20.6238,575.023,0.226714,0,0
1270,317.25,56.5612,63.3199,142.583,100.242,98.5483,0.000948742,0.321568,20.6239,574.683,0.156371,0,0
1280,319.75,56.2842,62.8967,147.871,100.236,97.456,0.000953979,0.321171,20.6252,574.423,0.258075,0,0
1290,322.25,56.224,62.8822,143.582,100.221,97.2593,0.000942744,0.319296,20.6274,574.173,0.275223,0,0
1300,324.75,56.4083,62.8309,138.898,100.225,97.3485,0.000882127,0.317635,20.6296,573.872,0.267183,0,0
1310,327.25,55.421,62.5326,147.586,100.203,97.5057,0.000813942,0.316308,20.6305,573.592,0.250378,0,0
1320,329.75,56.105,62.9369,144.791,100.221,97.773,0.000759141,0.315431,20.6317,573.342,0.226962,0,0
1330,332.25,56.2439,62.5421,149.414,100.201,97.7075,0.000760635,0.314515,20.6336,573.082,0.231254,0,0
1340,334.75,56.0794,62.0651,144.095,100.214,97.9966,0.000725359,0.313254,20.6348,572.791,0.205358,0,0
1350,337.25,56.0863,62.6464,146.676,100.222,98.2567,0.000726855,0.312288,20.6357,572.561,0.18171,0,0
1360,339.75,56.3698,62.5868,144.062,100.216,97.7684,0.000801087,0.312031,20.6381,572.301,0.2269,0,0
1370,342.25,55.8506,61.8706,141.69,100.229,98.3505,0.000810518,0.31033,20.6401,572.011,0.173633,0,0
1380,344.75,55.8665,62.6503,142.496,100.222,98.2831,0.000576903,0.308965,20.6422,571.75,0.179248,0,0
1390,347.25,55.7926,62.3342,144.021,100.262,97.8708,0.000144494,0.307677,20.6425,571.46,0.221517,0,0
1400,349.75,56.1409,62.5599,143.617,100.24,98.8353,-8.52266E-05,0.3061,20.6431,571.21,0.129459,0,0
1410,352.25,55.9848,62.197,145.697,100.267,98.065,-7.4009E-05,0.304987,20.6442,570.99,0.203741,0,0
1420,354.75,55.7639,62.2104,145.023,100.266,98.7014,0.000212804,0.304439,20.6446,570.689,0.144349,0,0
1430,357.25,55.8159,62.1947,141.228,100.292,98.5062,0.000396211,0.302858,20.6469,570.429,0.164818,0,0
1440,359.75,55.6392,61.5642,146.022,100.308,98.6091,0.000420122,0.300941,20.6505,570.149,0.15678,0,0
1450,362.25,56.0178,61.2966,140.842,100.324,98.3845,0.000414691,0.299319,20.6521,569.919,0.179178,0,0
1460,364.75,55.9367,61.3407,151.617,100.345,99.5006,0.000391955,0.29757,20.6546,569.689,0.0775533,0,0
1470,367.25,55.3046,61.4613,148.296,100.37,98.7592,0.000355515,0.295667,20.6562,569.468,0.148477,0,0
1480,369.75,55.1129,61.1908,144.25,100.393,98.4266,0.000241992,0.294909,20.6564,569.168,0.181508,0,0
1490,372.25,55.2066,60.837,146.049,100.404,98.5746,0.000151699,0.29529,20.6564,568.978,0.168733,0,0
1500,374.75,54.7156,61.2004,147.056,100.426,98.8738,0.000181563,0.294547,20.6579,568.708,0.142921,0,0
1510,377.25,55.4055,61.2194,145.229,100.441,99.1978,0.00013234,0.293635,20.6581,568.487,0.114255,0,0
1520,379.75,55.1222,60.91,149.327,100.479,98.8404,0.000125996,0.292884,20.6596,568.207,0.150848,0,0
1530,382.25,55.2756,61.3001,142.297,100.503,98.778,0.000176633,0.291678,20.6611,567.917,0.158823,0,0
1540,384.75,55.1968,61.2686,149.663,100.54,98.8845,0.000259134,0.290958,20.6622,567.767,0.15236,0,0
1550,387.25,55.2821,60.645,145.23,100.555,99.2323,0.000203678,0.289507,20.6632,567.497,0.121491,0,0
1560,389.75,54.9407,61.1235,147.456,100.602,100.059,0.000138351,0.288295,20.6658,567.236,0.0496163,0,0
1570,392.25,54.871,60.8672,143.229,100.627,98.8931,0.000123993,0.287265,20.6658,567.006,0.159493,0,0
1580,394.75,55.4012,61.1637,148.573,100.684,98.9281,0.000101294,0.287541,20.6658,566.776,0.161434,0,0
1590,397.25,55.1421,60.7803,149.468,100.687,99.5513,8.77282E-05,0.286468,20.668,566.546,0.104072,0,0
1600,399.75,54.7664,60.6159,146.604,100.731,99.7212,0.00010242,0.285239,20.6707,566.305,0.09248469,0,0
1610,402.25,54.2811,59.5936,147.54,100.747,98.4276,0.000137293,0.284363,20.6716,566.015,0.213758,0,0
1620,404.75,53.7614,59.9491,147.32,100.793,99.3692,7.34989E-05,0.283775,20.6719,565.825,0.130518,0,0
1630,407.25,54.1171,59.9184,148.101,100.85,98.5118,-5.41207E-05,0.282769,20.6721,565.595,0.215257,0,0
1640,409.75,54.3877,60.1321,143.651,100.862,99.0716,1.90157E-05,0.282239,20.6733,565.325,0.164385,0,0
1650,412.25,54.3055,60.071,146.8,100.901,99.2126,0.000113562,0.281069,20.6754,565.104,0.154823,0,0
1660,414.75,53.7074,59.6922,142.514,100.926,99.1203,0.000133856,0.28005,20.6763,564.844,0.16565,0,0
1670,417.25,53.8171,59.431,142.787,100.955,99.7277,0.000104325,0.279311,20.6781,564.654,0.112245,0,0
1680,419.75,54.3237,59.5655,150.075,100.963,99.2602,6.97026E-05,0.277748,20.68,564.384,0.156074,0,0
1690,422.25,53.0367,58.8805,147.706,100.996,99.2815,0.000115151,0.276211,20.6809,564.204,0.15714,0,0
1700,424.75,53.9965,59.2598,146.064,101.009,99.2546,0.000181381,0.274991,20.6817,563.953,0.160748,0,0
1710,427.25,54.5371,59.0737,146.896,101.041,99.5133,0.000105355,0.274327,20.6824,563.703,0.139791,0,0
1720,429.75,53.6174,59.0126,144.024,101.057,99.5351,7.66443E-05,0.274365,20.682,563.553,0.139202,0,0
1730,432.25,54.0396,59.1424,147.979,101.094,99.8591,0.000296564,0.274529,20.681,563.313,0.112748,0,0
1740,434.75,53.2453,58.5371,146.5737,101.098,99.8565,0.000287476,0.274463,20.6817,563.073,0.113392,0,0
1750,437.25,52.8166,58.2785,150.233,101.144,99.3992,0.000160463,0.273282,20.6824,562.872,0.159708,0,0
1760,439.75,53.7248,58.9005,148.702,101.146,99.0827,0.000178482,0.272385,20.6826,562.642,0.189115,0,0
1770,442.25,53.2515,58.6801,149.919,101.174,99.7419,0.000304748,0.272906,20.6827,562.402,0.130811,0,0
1780,444.75,53.7677,58.9036,150.048,101.182,99.8956,0.000502821,0.273022,20.6827,562.182,0.117396,0,0
1790,447.25,52.885,58.6414,143.547,101.213,99.7785,0.000432271,0.273169,20.6819,561.962,0.130965,0,0
1800,449.75,53.6806,58.4031,145.024,101.233,100.268,0.000121236,0.273885,20.681,561.741,0.08789634,0,0
1810,452.25,53.2223,58.6701,146.624,101.243,99.7283,-0.000152029,0.274737,20.681,561.491,0.138348,0,0
1820,454.75,53.1862,58.4561,152.874,101.274,100.023,-0.000248832,0.275833,20.6812,561.281,0.114035,0,0
1830,457.25,52.6135,57.695,147.365,101.278,99.6583,-0.00021039,0.27573,20.6819,561.101,0.147926,0,0
1840,459.75,52.8995,58.2467,144.195,101.303,99.7288,1.89154E-06,0.273892,20.6832,560.831,0.143717,0,0
1850,462.25,52.5877,57.5721,149.91,101.325,99.2521,0.000145183,0.271778,20.6848,560.64,0.189696,0,0
1860,464.75,52.9451,57.9933,145.884,101.357,99.3013,0.00015529,0.269836,20.687,560.44,0.188023,0,0
1870,467.25,52.5954,57.9743,152.981,101.364,100.137,0.00018041,0.268166,20.6888,560.24,0.111713,0,0
1880,469.75,52.706,57.7107,153.93,101.407,99.5594,0.000158941,0.267549,20.6908,559.98,0.168756,0,0
1890,472.25,52.7872,57.456,145.72,101.413,100.022,0.000102945,0.267347,20.6918,559.79,0.126743,0,0
1900,474.75,52.3821,57.61,151.448,101.436,100.037,0.000157733,0.266752,20.6925,559.569,0.1274544,0,0
1910,477.25,52.6151,57.2443,146.47,101.435,100.194,0.000203147,0.267009,20.6918,559.319,0.112963,0,0
1920,479.75,52.894,57.7613,144.649,101.463,99.7683,0.000114526,0.268478,20.6894,559.119,0.154517,0,0
1930,482.25,52.589,57.3334,145.93,101.456,100.131,8.32936E-05,0.270073,20.6871,558.929,0.120634,0,0
1940,484.75,52.7134,57.4266,141.793,101.479,100.456,0.000123918,0.271211,20.686,558.689,0.0929839,0,0
1950,487.25,52.1987,57.5137,142.741,101.484,99.886,0.00015184,0.271448,20.6854,558.448,0.145679,0,0
1960,489.75,52.4342,57.6104,149.991,101.489,99.7612,9.30057E-05,0.270231,20.6878,558.298,0.157555,0,0
1970,492.25,52.4062,57.5487,149.14,101.497,99.7612,-7.97354E-06,0.269369,20.689,558.068,0.158264,0,0
1980,494.75,52.7409,58.0518,146.014,101.496,100.058,3.7597E-05,0.2691257,20.6884,557.838,0.130944,0,0
1990,497.25,52.3989,57.5032,145.342,101.51,100.285,0.000145171,0.268632,20.689,557.618,0.111401,0,0
2000,499.75,52.8063,57.7003,147.807,101.519,100.001,0.000179834,0.267327,20.691,557.407,0.13824,0,0
2010,502.25,52.4402,57.4162,149.792,101.514,99.7247,6.30445E-05,0.267836,20.6922,557.217,0.163188,0,0
2020,504.75,52.4489,57.2172,153.736,101.508,99.5472,9.76417E-05,0.265969,20.6952,556.997,0.178973,0,0
2030,507.25,52.2498,56.9951,145.725,101.521,99.8723,0.000154479,0.265242,20.6949,556.787,0.150216,0,0
2040,509.75,51.7702,57.5094,149.68,101.519,99.3353,0.000178862,0.266089,20.6924,556.537,0.1995,0,0
2050,512.25,51.8035,56.7529,148.004,101.532,99.104,0.000220027,0.267154,20.6907,556.376,0.222077,0,0
2060,514.75,51.8356,57.2521,146.557,101.521,100.237,0.000206996,0.268266,20.6901,556.136,0.116816,0,0
2070,517.25,51.9731,57.0196,145.993,101.536,100.186,0.000163163,0.269268,20.6905,555.916,0.122847,0,0
2080,519.75,51.9756,57.2107,148.501,101.535,100.474,0.000128659,0.269751,20.6922,555.696,0.0963455,0,0
2090,522.25,51.7825,56.8546,145.952,101.537,100.133,0.000290895,0.27003,20.6919,555.496,0.127706,0,0
2100,524.75,51.751,56.9834,146.695,101.54,99.9336,0.000441217,0.270708,20.6912,555.275,0.146292,0,0
2110,527.25,51.8243,57.1776,148.36,101.528,99.424,0.00034549,0.271525,20.6898,555.095,0.192127,0,0
2120,529.75,52.1758,56.8698,148.687,101.548,99.2247,0.000221606,0.272875,20.689,554.845,0.2124,0,0
2130,532.25,52.2572,57.4797,145.62,101.539,99.6547,5.52081E-05,0.273884,20.6874,554.605,0.171863,0,0
2140,534.75,52.259,57.5139,145.539,101.543,99.8434,-9.32289E-05,0.275315,20.6836,554.455,0.154846,0,0
2150,537.25,51.7273,57.0309,144.23,101.542,99.8195,-0.000130875,0.277285,20.6823,554.204,0.156999,0,0
2160,539.75,52.3498,57.5161,143.23,101.55,99.6689,-0.000113016,0.279916,20.6771,554.034,0.171525,0,0
2170,542.25,52.2682,57.6864,144.275,101.533,99.8905,-0.000139564,0.282345,20.6742,553.754,0.149618,0,0
2180,544.75,52.0167,57.4563,143.084,101.545,100.59,-0.000139391,0.283984,20.673,553.524,0.0867619,0,0
2190,547.25,52.8085,57.9455,147.377,101.535,99.6826,-9.46347E-05,0.285728,20.6726,553.314,0.168961,0,0
2200,549.75,52.3449,57.904,144.961,101.545,100.561,2.51636E-05,0.286117,20.6713,553.073,0.0893524,0,0
2210,552.25,52.7727,58.2042,146.409,101.536,99.8966,8.94618E-05,0.286608,20.6705,552.853,0.149358,0,0
2220,554.75,52.3535,57.8422,148.403,101.551,100.1,0.000127757,0.286644,20.6702,552.613,0.132031,0,0
2230,557.25,52.8349,58.1441,145.733,101.538,100.678,0.000183022,0.288351,20.6687,552.413,0.0780457,0,0
2240,559.75,53.2534,58.4139,146.771,101.536,99.4392,0.000146934,0.28881,20.6686,552.203,0.191468,0,0
2250,562.25,53.1509,58.5534,145.752,101.543,99.603,0.000117221,0.288325,20.6695,551.962,0.176962,0,0
2260,564.75,52.2172,58.794,147.709,101.539,99.1198,0.000187569,0.288298,20.6682,551.652,0.221293,0,0
2270,567.25,52.8132,58.1386,146.055,101.541,99.6953,0.000304522,0.289908,20.6664,551.612,0.168315,0,0
2280,569.75,53.3084,58.8282,143.869,101.533,99.3728,0.000438211,0.290927,20.6651,551.252,0.197302,0,0
2290,572.25,52.8739,58.2757,148.831,101.53,99.5285,0.000440038,0.293411,20.6614,551.122,0.182715,0,0
2300,574.75,52.6002,58.4911,144.426,101.521,99.1857,0.000376766,0.296154,20.6587,550.811,0.21359,0,0
2310,577.25,52.8103,58.1564,149.833,101.523,99.7896,0.000262594,0.297198,20.6577,550.661,0.157999,0,0
2320,579.75,52.5974,58.1442,141.529,101.525,99.3424,0.000120824,0.298498,20.6564,550.381,0.199442,0,0
2330,582.25,52.7378,58.5504,144.904,101.521,98.9468,5.41736E-05,0.301596,20.6523,550.141,0.235638,0,0
2340,584.75,52.9946,58.6183,146.865,101.508,99.3621,0.000173225,0.303919,20.6494,549.861,0.196086,0,0
2350,587.25,53.3096,58.6792,141.683,101.51,98.7308,0.000405553,0.305467,20.6482,549.67,0.254687,0,0
2360,589.75,53.3005,59.2146,146.59,101.501,99.6015,0.00039209,0.309271,20.6436,549.4,0.173377,0,0
2370,592.25,53.8194,59.7379,147.535,101.5,99.1542,0.000324859,0.31114,20.6419,549.19,0.214598,0,0
2380,594.75,53.635,59.5304,146.919,101.493,99.3256,0.00033967,0.312652,20.6405,548.94,0.19808,0,0
2390,597.25,53.9902,60.3862,141.802,101.483,99.0665,0.00033372,0.314735,20.6378,548.659,0.221119,0,0
2400,599.75,53.4548,59.8201,145.362,101.483,99.0903,0.000371442,0.316654,20.6361,548.459,0.218911,0,0
2410,602.25,54.2248,60.0288,142.534,101.471,99.3033,0.000347566,0.318879,20.6336,548.209,0.198129,0,0
2420,604.75,54.1329,59.9049,151.511,101.458,98.1112,0.000343431,0.322375,20.6296,547.919,0.3078,0,0
2430,607.25,54.5724,60.6784,147.073,101.46,98.668,0.000312381,0.325111,20.6265,547.719,0.25606,0,0
2440,609.75,54.113,60.4791,142.362,101.448,98.1446,0.000397837,0.326872,20.6242,547.468,0.303777,0,0
2450,612.25,53.9251,60.0595,142.443,101.412,97.9504,0.000642417,0.328613,20.6224,547.198,0.31867,0,0
2460,614.75,54.2783,60.732,143.091,101.423,98.6086,0.000756961,0.330778,20.6191,546.958,0.258224,0,0
2470,617.25,54.6301,61.1888,144.272,101.402,98.5153,0.000590795,0.333974,20.615,546.648,0.264971,0,0
2480,619.75,54.8367,61.2933,146.013,101.393,98.1867,0.000473276,0.335805,20.6132,546.427,0.294881,0,0
2490,622.25,54.2728,61.2159,154.239,101.369,97.6619,0.000614643,0.337644,20.6113,546.197,0.341861,0,0
2500,624.75,54.9717,61.7116,142.924,101.36,98.6614,0.000684292,0.33943,20.6084,545.947,0.24761,0,0
2510,627.25,54.5706,60.9677,148.896,101.346,96.5372,0.000730395,0.341107,20.6063,545.637,0.446058,0,0
2520,629.75,54.8493,61.5131,148.014,101.332,97.1102,0.00086611,0.342732,20.6038,545.336,0.390523,0,0
2530,632.25,55.2182,62.0339,146.841,101.317,97.702,0.001048446,0.345903,20.6005,545.116,0.333395,0,0
2540,634.75,55.1086,61.5189,143.656,101.317,97.1188,0.001191735,0.348289,20.5977,544.866,0.388364,0,0
2550,637.25,54.9627,61.7394,144.73,101.301,96.4611,0.001160461,0.351023,20.5942,544.556,0.449259,0,0
2560,639.75,54.9901,61.921,142.989,101.291,97.1989,0.001176179,0.35339,20.5906,544.285,0.378408,0,0
2570,642.25,55.5465,62.4052,139.227,101.283,95.8374,0.001165584,0.357204,20.5865,543.995,0.507104,0,0
2580,644.75,55.6947,63.1936,141.932,101.268,97.2096,0.00136467,0.361121,20.5808,543.725,0.375274,0,0
2590,647.25,55.9901,63.0576,144.175,101.267,95.9287,0.001630503,0.3645,20.5777,543.445,0.496912,0,0
2600,649.75,55.4222,63.048,148.138,101.261,97.1802,0.001700721,0.365559,20.5766,543.184,0.37749,0,0
2610,652.25,55.9991,63.3531,144.729,101.249,95.8679,0.001844548,0.367835,20.5724,542.854,0.501128,0,0
2620,654.75,55.6361,63.144,142.298,101.24,96.5377,0.001948955,0.371973,20.5671,542.564,0.436413,0,0
2630,657.25,56.2632,63.9201,144.497,101.257,95.1595,0.001980911,0.376443,20.5609,542.274,0.569932,0,0
2640,659.75,56.7158,63.511,143.051,101.228,95.0114,0.002037825,0.381323,20.5539,541.993,0.581568,0,0
2650,662.25,56.4398,64.3241,146.734,101.225,95.1422,0.002071877,0.384527,20.5495,541.693,0.568643,0,0
2660,664.75,56.8097,64.3903,136.689,101.209,94.1118,0.002017461,0.387633,20.5459,541.373,0.667179,0,0
2670,667.25,57.1955,64.5679,148.146,101.205,96.6036,0.001939763,0.390892,20.5431,541.083,0.427011,0,0
2680,669.75,57.2784,64.8137,141.8,101.196,95.4343,0.001852071,0.392678,20.5422,540.782,0.537937,0,0
2690,672.25,57.4957,65.117,144.181,101.176,94.413,0.001802807,0.393831,20.5412,540.482,0.634831,0,0
2700,674.75,57.1543,64.8133,145.004,101.17,94.8532,0.001874011,0.395018,20.5397,540.192,0.59159,0,0
2710,677.25,57.8751,65.2751,146.307,101.143,95.2026,0.00182752,0.395758,20.538,539.861,0.555424,0,0
2720,679.75,57.6605,65.136,141.46,101.137,94.4825,0.001816473,0.398031,20.5357,539.581,0.624566,0,0
2730,682.25,57.6582,65.9117,142.52,101.115,93.8882,0.001980892,0.399197,20.5348,539.261,0.68041,0,0
2740,684.75,57.5591,65.3578,140.442,101.111,94.7406,0.002104582,0.399808,20.5334,538.911,0.59714,0,0
2750,687.25,57.5914,65.6338,139.867,101.08,93.3269,0.002347725,0.402551,20.5288,538.61,0.732331,0,0
2760,689.75,58.1521,65.9286,144.774,101.074,93.5135,0.00246882,0.405589,20.5249,538.28,0.71344,0,0
2770,692.25,58.5233,66.2342,143.047,101.042,93.5414,0.002515893,0.407879,20.5229,538.03,0.7077474,0,0
2780,694.75,58.486,66.3791,139.761,101.038,93.2655,0.00277809,0.408799,20.5209,537.689,0.734473,0,0
2790,697.25,57.7033,66.2165,139.739,101.013,93.8755,0.002945288,0.410168,20.5193,537.349,0.672404,0,0
2800,699.75,58.7566,66.963,142.264,100.998,92.8152,0.002859947,0.412102,20.5156,537.029,0.775325,0,0
2810,702.25,59.0252,66.9858,145.981,100.967,92.8264,0.002727001,0.414,20.5125,536.659,0.771376,0,0
2820,704.75,58.8462,66.8719,145.797,100.965,93.48,0.002762324,0.415318,20.5115,536.368,0.706765,0,0
2830,707.25,59.1676,66.8813,144.527,100.944,92.6226,0.002880979,0.41602,20.5111,536.028,0.789488,0,0
2840,709.75,59.1902,66.8525,143.412,100.931,92.5754,0.002929794,0.415788,20.511,535.728,0.792925,0,0
2850,712.25,59.1723,67.4686,145.553,100.928,93.0394,0.002734079,0.414523,20.5125,535.367,0.746751,0,0
2860,714.75,59.1056,67.2979,141.643,100.913,93.1763,0.002656491,0.415112,20.5117,535.077,0.731983,0,0
2870,717.25,59.3778,67.2304,143.506,100.904,93.1068,0.002707249,0.415816,20.5117,534.777,0.737927,0,0
2880,719.75,59.5812,67.5608,141.67,100.896,92.8391,0.002697942,0.417975,20.5072,534.406,0.763677,0,0
2890,722.25,60.0448,67.8356,142.088,100.887,92.866,0.002527697,0.421854,20.503,534.086,0.760197,0,0
2900,724.75,60.0459,68.1522,138.573,100.871,91.9978,0.002431962,0.4234,20.5011,533.786,0.84488,0,0
2910,727.25,60.2248,68.1414,144.293,100.913,92.3974,0.002469006,0.423284,20.5008,533.466,0.80901,0,0
2920,729.75,60.2329,68.7305,140.731,100.933,92.2641,0.002576525,0.425079,20.4985,533.095,0.824062,0,0
2930,732.25,60.401,68.5182,143.377,100.972,92.7818,0.002672048,0.428101,20.4946,532.805,0.776275,0,0
2940,734.75,60.2586,69.1478,138.917,100.996,92.3639,0.002712134,0.430162,20.4924,532.415,0.819864,0,0
2950,737.25,60.3628,68.6195,137.575,101.008,91.1449,0.002906354,0.43015,20.4932,532.104,0.942863,0,0
2960,739.75,60.834,69.0353,147.311,101.033,91.0572,0.003194919,0.430392,20.4896,531.764,0.953983,0,0
2970,742.25,61.2934,69.6066,134.992,101.065,91.6768,0.003271352,0.43415,20.484,531.414,0.894596,0,0
2980,744.75,60.8054,69.4982,138.861,101.115,92.4785,0.003187914,0.437013,20.4798,531.133,0.819266,0,0
2990,747.25,60.7569,69.4983,143.437,101.149,91.1652,0.003269,0.43888,20.4781,530.763,0.953582,0,0
3000,749.75,61.0921,69.6405,133.467,101.181,90.6257,0.003553939,0.440946,20.4756,530.443,1.011,0,0
3010,752.25,61.6215,69.6921,137.203,101.212,90.9568,0.003910193,0.443862,20.4695,530.0625,0.980265,0,0
3020,754.75,60.9968,70.1924,142.435,101.247,91.2971,0.0041293,0.446727,20.4657,529.722,0.949178,0,0
3030,757.25,61.8432,70.525,141.235,101.259,93.4531,0.004111374,0.44921,20.4633,529.362,0.73615,0,0
3040,759.75,61.5729,71.0353,138.614,101.298,91.2286,0.003960593,0.451903,20.46,529.022,0.960768,0,0
3050,762.25,62.5582,71.4952,147.923,101.297,92.5977,0.004005191,0.454503,20.4566,528.671,0.823931,0,0
3060,764.75,62.3342,71.4242,144.473,101.356,92.3264,0.004391771,0.456907,20.4505,528.311,0.856229,0,0
3070,767.25,62.7177,71.3245,141.306,101.349,91.4487,0.004629602,0.461362,20.4445,527.971,0.943249,0,0
3080,769.75,62.5831,71.9028,138.836,101.367,90.6997,0.004827248,0.464507,20.4426,527.59,1.02032,0,0
3090,772.25,63.4445,72.3829,141.33,101.376,92.0308,0.004996992,0.465409,20.4418,527.21,0.887412,0,0
3100,774.75,63.6514,72.387,143.406,101.382,91.1632,0.00515315,0.466488,20.4405,526.84,0.974888,0,0
3110,777.25,63.3841,72.4356,143.913,101.387,90.181,0.00538587,0.468348,20.4363,526.479,1.07474,0,0
3120,779.75,63.1704,72.7501,134.191,101.408,91.332,0.005601552,0.472162,20.429,526.119,0.960295,0,0
3130,782.25,63.3024,72.6092,140.168,101.436,91.082,0.005641375,0.476419,20.4226,525.739,0.987983,0,0
3140,784.75,63.9053,73.5264,137.379,101.433,90.3818,0.005490154,0.481517,20.4157,525.338,1.05854,0,0
3150,787.25,63.8738,73.2808,139.654,101.458,90.577,0.00552136,0.484987,20.4112,524.988,1.04094,0,0
3160,789.75,64.622,73.78,140.974,101.472,90.0354,0.005864671,0.486674,20.4092,524.598,1.09731,0,0
3170,792.25,64.3634,73.4368,135.225,101.508,90.5141,0.006185692,0.488531,20.4056,524.287,1.0519,0,0
3180,794.75,65.1485,73.9317,144.478,101.506,89.9944,0.006412894,0.490643,20.4037,523.897,1.10452,0,0
3190,797.25,65.0275,74.4973,136.084,101.543,91.4613,0.006656146,0.493748,20.4015,523.477,0.959539,0,0
3200,799.75,65.2296,75.0643,139.779,101.535,90.3808,0.006728025,0.500841,20.3923,523.116,1.06781,0,0
3210,802.25,65.1166,76.0248,135.155,101.56,91.581,0.006540942,0.504668,20.3881,522.716,0.949067,0,0
3220,804.75,65.4602,75.6392,137.473,101.566,90.4685,0.006505494,0.507457,20.3841,522.345,1.06171,0,0
3230,807.25,66.44,76.3173,136.914,101.602,89.9573,0.006651101,0.510568,20.3802,521.975,1.11697,0,0
3240,809.75,66.4682,76.5009,133.783,101.596,88.9021,0.006766076,0.511796,20.3788,521.605,1.22469,0,0
3250,812.25,66.3304,76.8852,134.98,101.641,91.1525,0.006671299,0.511208,20.3792,521.194,0.999434,0,0
3260,814.75,67.1288,77.2973,143.144,101.65,89.7723,0.006394693,0.509611,20.379,520.724,1.14023,0,0
3270,817.25,67.1381,77.2406,138.984,101.683,91.5126,0.006200184,0.51179,20.3754,520.374,0.966983,0,0
3280,819.75,66.9086,77.004,146.262,101.708,89.9107,0.006272534,0.513692,20.3738,520.053,1.13133,0,0
3290,822.25,67.7546,77.122,139.932,101.706,89.4244,0.006458875,0.514192,20.3731,519.623,1.18087,0,0
3300,824.75,67.3191,78.0741,136.626,101.727,90.6951,0.006691338,0.514518,20.3729,519.223,1.0533,0,0
3310,827.25,67.1442,77.9227,141.897,101.739,91.7063,0.00686652,0.513717,20.3746,518.892,0.952676,0,0
3320,829.75,67.6871,77.8963,140.349,101.756,90.3224,0.006904704,0.512206,20.3764,518.562,1.09372,0,0
3330,832.25,67.299,77.9278,133.786,101.764,90.5522,0.007054362,0.509297,20.3802,518.162,1.07112,0,0
3340,834.75,67.6253,78.2451,135.944,101.774,90.9751,0.007186779,0.504979,20.3873,517.801,1.02926,0,0
3350,837.25,67.9216,78.1277,139.252,101.768,91.6885,0.00723405,0.498867,20.3947,517.431,0.957016,0,0
3360,839.75,67.358,77.9076,141.325,101.783,90.754,0.007001705,0.49351,20.4016,517.071,1.05244,0,0
3370,842.25,67.3906,77.4489,142.952,101.782,89.9873,0.00656814,0.486683,20.4087,516.69,1.13018,0,0
3380,844.75,67.4224,77.0071,136.673,101.811,90.2444,0.006032124,0.479708,20.4167,516.32,1.10664,0,0
3390,847.25,67.3252,76.6915,142.307,101.8,90.3285,0.005580116,0.471856,20.4287,516.03,1.09704,0,0
3400,849.75,66.6856,75.8089,141.686,101.816,91.4669,0.005288816,0.463165,20.4406,515.699,0.983567,0,0
3410,852.25,67.104,75.5583,139.833,101.807,90.9649,0.005122073,0.454729,20.4475,515.409,1.03329,0,0
3420,854.75,66.1325,75.4573,136.953,101.812,92.2919,0.004835559,0.444539,20.4611,515.109,0.9008,0,0
3430,857.25,66.2089,75.0791,142.173,101.8,92.0323,0.004301154,0.432068,20.4789,514.809,0.925572,0,0
3440,859.75,65.6076,73.6411,140.285,101.809,92.4912,0.003626741,0.416843,20.498,514.578,0.880748,0,0
3450,862.25,64.951,73.3123,145.408,101.801,92.5287,0.00309021,0.39694,20.5245,514.328,0.876282,0,0
3460,864.75,64.5958,72.8095,140.65,101.795,93.2245,0.002437277,0.375868,20.5441,514.098,0.807063,0,0
3470,867.25,64.2133,70.8789,144.073,101.794,95.1103,0.001856612,0.35496,20.5674,513.928,0.623182,0,0
3480,869.75,63.1406,70.3035,146.772,101.761,95.1473,0.001504375,0.332055,20.6016,513.738,0.616602,0,0
3490,872.25,62.2646,68.8349,143.986,101.758,96.5235,0.001408222,0.308975,20.6241,513.608,0.484642,0,0
3500,874.75,61.9877,67.4433,149.479,101.729,96.3491,0.001285433,0.288579,20.6479,513.497,0.498601,0,0
3510,877.25,61.1126,66.4535,147.274,101.715,96.4099,0.001117999,0.267337,20.6735,513.357,0.491544,0,0
3520,879.75,59.9965,64.8181,147.545,101.686,96.9525,0.001026934,0.250073,20.6897,513.247,0.43737,0,0
3530,882.25,59.0904,63.1233,147.574,101.673,96.2674,0.0010761,0.237167,20.7028,513.127,0.501284,0,0
3540,884.75,58.6636,63.1629,143.333,101.644,97.9094,0.001135028,0.226836,20.7118,513.017,0.34353,0,0
3550,887.25,57.6103,61.9306,148.877,101.611,97.9951,0.001094924,0.217091,20.7234,512.967,0.332488,0,0
3560,889.75,57.7345,61.0447,149.408,101.569,98.3449,0.001205205,0.207562,20.7339,512.907,0.296023,0,0
3570,892.25,56.3974,59.4535,145.388,101.541,99.3195,0.001427083,0.200368,20.746,512.827,0.203002,0,0
3580,894.75,55.6233,58.3025,151.54,101.494,98.9169,0.001541253,0.192383,20.7561,512.727,0.235991,0,0
3590,897.25,54.8136,57.4349,151.207,101.463,99.0067,0.001492732,0.185872,20.7659,512.667,0.224835,0,0
3600,899.75,54.4953,56.7695,150.699,101.428,99.2846,0.001357215,0.179553,20.7738,512.587,0.195986,0,0
3610,902.25,53.6924,55.6433,153.403,101.402,98.9296,0.001557313,0.175471,20.778,512.567,0.226538,0,0
3620,904.75,53.7225,56.0787,145.04,101.385,99.0427,0.001836387,0.172853,20.7814,512.577,0.214451,0,0
3630,907.25,52.5822,54.4282,150.434,101.339,98.8201,0.001852401,0.170153,20.7836,512.497,0.230957,0,0
3640,909.75,52.3562,54.3057,148.631,101.324,99.638,0.001747878,0.1671388,20.7885,512.416,0.153976,0,0
3650,912.25,51.8647,53.2983,153.117,101.278,99.2876,0.001655984,0.163654,20.7925,512.336,0.18212,0,0
3660,914.75,50.8331,52.8198,150.899,101.294,99.5036,0.001618146,0.1616,20.794,512.306,0.163636,0,0
3670,917.25,51.1318,52.5055,151.004,101.296,99.9184,0.001699989,0.15969,20.7968,512.236,0.125612,0,0
3680,919.75,50.8412,51.9671,150.713,101.326,99.0549,0.001823866,0.157571,20.8004,512.196,0.208025,0,0
3690,922.25,50.2296,51.3234,149.268,101.329,99.9564,0.00186919,0.155565,20.8026,512.156,0.125182,0,0
3700,924.75,49.6557,50.9347,149.014,101.355,99.6801,0.00192011,0.153606,20.8048,512.156,0.152938,0,0
3710,927.25,50.0665,51.3893,152.906,101.365,99.6598,0.002027661,0.151995,20.807,512.066,0.155701,0,0
3720,929.75,49.8457,50.4771,151.69,101.385,99.8925,0.002072694,0.151079,20.8089,512.046,0.136048,0,0
3730,932.25,49.4785,50.1707,153.707,101.395,99.5756,0.002005179,0.149836,20.8112,511.986,0.166104,0,0
3740,934.75,48.7045,49.6796,150.795,101.421,99.4047,0.001937544,0.148011,20.8138,511.926,0.184251,0,0
3750,937.25,47.5038,49.1428,148.25,101.418,99.0087,0.001993607,0.146297,20.8151,511.936,0.220585,0,0
3760,939.75,48.417,48.8818,150.898,101.435,99.1958,0.002206417,0.145638,20.8145,511.816,0.204788,0,0
3770,942.25,47.6797,48.5904,157.207,101.467,99.638,0.002387751,0.14551,20.8141,511.796,0.166883,0,0
3780,944.75,47.5436,48.3374,149.696,101.463,99.5148,0.002693522,0.145765,20.8129,511.756,0.177866,0,0
3790,947.25,47.318,48.2703,155.216,101.493,98.9073,0.00291254,0.146851,20.8117,511.696,0.23681,0,0
3800,949.75,47.3091,48.149,151.349,101.504,98.9605,0.003059072,0.149337,20.8085,511.676,0.232841,0,0
3810,952.25,46.2369,47.5441,151.348,101.514,99.6248,0.003235966,0.153168,20.8053,511.636,0.17242,0,0
3820,954.75,46.8315,47.2583,150.673,101.525,98.887,0.003300922,0.154633,20.8042,511.596,0.241599,0,0
3830,957.25,46.4414,46.7171,153.313,101.593,99.2024,0.003174003,0.153399,20.8066,511.566,0.218485,0,0
3840,959.75,46.5502,47.1638,152.749,101.574,99.3322,0.003052352,0.151458,20.8091,511.486,0.204811,0,0
3850,962.25,46.1815,46.776,147.832,101.611,99.3414,0.003168743,0.149526,20.812,511.486,0.207243,0,0
3860,964.75,45.776,46.6479,152.643,101.627,99.3241,0.003213397,0.147701,20.8155,511.416,0.210325,0,0
3870,967.25,45.7255,46.9087,151.875,101.663,99.2171,0.003371372,0.145528,20.8181,511.375,0.223451,0,0
3880,969.75,45.4019,46.3304,150.602,101.681,99.8925,0.003740464,0.143864,20.82,511.325,0.162871,0,0
3890,972.25,45.5426,46.471,156.606,101.69,99.3905,0.003950749,0.142417,20.8218,511.275,0.20992,0,0
3900,974.75,44.9722,45.6072,154.196,101.729,99.3591,0.003897083,0.140467,20.8243,511.265,0.216318,0,0
3910,977.25,45.2503,45.9194,152.948,101.734,99.4884,0.003930888,0.139204,20.8256,511.225,0.20483,0,0
3920,979.75,44.5915,45.9893,152.8,101.76,99.4255,0.004048861,0.138695,20.826,511.205,0.212974,0,0
3930,982.25,44.4824,45.7557,150.379,101.773,99.4747,0.004053118,0.137658,20.8273,511.155,0.209587,0,0
3940,984.75,44.8067,45.4166,152.929,101.8,99.1689,0.003871343,0.136674,20.828,511.135,0.2402886,0,0
3950,987.25,44.1442,45.1404,151.953,101.803,99.3236,0.003751322,0.135553,20.8296,511.105,0.226287,0,0
3960,989.75,44.2544,44.6464,151.632,101.834,100.058,0.003744241,0.134825,20.8303,511.085,0.161367,0,0
3970,992.25,43.8347,44.7064,152.337,101.848,99.3535,0.003781482,0.135204,20.8293,511.005,0.227498,0,0
3980,994.75,43.9872,44.7935,151.507,101.882,99.0777,0.003836185,0.136488,20.8254,510.995,0.256129,0,0
3990,997.25,43.7787,44.7841,151.929,101.893,99.7602,0.004081501,0.138435,20.8218,510.965,0.194099,0,0
4000,999.75,43.3998,44.5109,155.279,101.916,99.5498,0.004481403,0.140583,20.8195,510.915,0.215592,0,0
4010,1002.25,43.7397,44.4675,152.424,101.943,99.5371,0.004788763,0.142542,20.8178,510.855,0.219172,0,0
4020,1004.75,43.6941,44.8258,149.245,101.968,99.6273,0.004836509,0.144016,20.8171,510.825,0.213118,0,0
4030,1007.25,43.193,43.9434,154.388,101.99,99.319,0.004720021,0.144392,20.8173,510.795,0.243487,0,0
4040,1009.75,42.7924,44.1521,151.392,102.017,99.7779,0.004678272,0.144378,20.8174,510.805,0.203633,0,0
4050,1012.25,43.0704,43.7957,155.238,102.035,99.5782,0.004752771,0.143646,20.8188,510.745,0.223656,0,0
4060,1014.75,42.9662,44.0346,157.596,102.054,99.7896,0.004838006,0.142442,20.8211,510.675,0.205933,0,0
4070,1017.25,42.4648,43.8843,154.825,102.079,99.5629,0.004792124,0.141905,20.8232,510.685,0.229024,0,0
4080,1019.75,42.9471,44.1492,152.659,102.088,99.8079,0.004717436,0.140796,20.8244,510.635,0.207294,0,0
4090,1022.25,42.5003,43.4741,153.197,102.106,99.4301,0.004823749,0.139421,20.8272,510.575,0.243647,0,0
4100,1024.75,42.648,43.3616,152.113,102.121,99.9808,0.004949742,0.138306,20.8283,510.575,0.194373,0,0
4110,1027.25,42.1395,43.3246,154.965,102.132,99.8423,0.004842309,0.137861,20.8288,510.545,0.208088,0,0
4120,1029.75,41.6321,43.3899,152.965,102.13,100.098,0.004778656,0.139822,20.8255,510.485,0.184361,0,0
4130,1032.25,41.8888,42.8824,153.562,102.148,99.3616,0.004813547,0.142517,20.8233,510.445,0.253782,0,0
4140,1034.75,41.9847,43.2488,150.007,102.142,99.6319,0.004811503,0.143118,20.8225,510.455,0.2283,0,0
4150,1037.25,41.4427,42.3562,154.484,102.152,99.8373,0.004755057,0.142262,20.8222,510.405,0.210294,0,0
4160,1039.75,40.838,42.543,152.709,102.149,99.9914,0.004860648,0.141437,20.8221,510.375,0.195878,0,0
4170,1042.25,41.3988,41.9909,154.401,102.143,100.067,0.005116795,0.141107,20.8219,510.335,0.188465,0,0
4180,1044.75,41.2342,42.6474,153.091,102.134,99.3956,0.005335104,0.141809,20.8205,510.315,0.249349,0,0
4190,1047.25,40.7493,42.5555,155.364,102.123,99.566,0.005317702,0.142629,20.82,510.254,0.232707,0,0
4200,1049.75,40.6512,42.3906,153.805,102.119,99.7734,0.005242738,0.1426768,20.8198,510.234,0.213206,0,0
4210,1052.25,40.5506,42.1861,153.101,102.106,99.493,0.005406583,0.142003,20.8198,510.214,0.237921,0,0
4220,1054.75,40.312,42.0668,161.848,102.103,99.6324,0.00563224,0.140643,20.8213,510.184,0.224735,0,0
4230,1057.25,40.7285,41.9652,152.98,102.076,99.2962,0.005753615,0.137865,20.8256,510.144,0.25338,0,0
4240,1059.75,40.3957,41.7726,153.429,102.079,99.5356,0.005744644,0.135122,20.8297,510.124,0.231548,0,0
4250,1062.25,40.1775,41.6097,158.285,102.054,99.708,0.005840656,0.133522,20.8319,510.084,0.213407,0,0
4260,1064.75,39.8642,41.652,153.803,102.056,99.677,0.005973623,0.132414,20.834,510.064,0.216439,0,0
4270,1067.25,39.8719,41.9458,152.722,102.018,99.5335,0.006071038,0.131968,20.8355,510.044,0.226249,0,0
4280,1069.75,40.334,41.7155,153.186,102.014,99.4499,0.006045203,0.131211,20.836,509.994,0.233558,0,0
4290,1072.25,39.7722,41.102,157.44,101.992,99.641,0.005956941,0.130167,20.837,509.944,0.214008,0,0
4300,1074.75,39.9977,40.5802,153.72,101.986,99.4357,0.005994472,0.129354,20.8377,509.934,0.23242,0,0
4310,1077.25,39.5787,41.2662,155.973,101.97,99.2095,0.006169718,0.12894,20.8381,509.924,0.251794,0,0
4320,1079.75,39.7234,40.7885,154.832,101.958,98.9443,0.00627767,0.128939,20.8373,509.914,0.275317,0,0
4330,1082.25,39.758,41.3679,153.913,101.955,99.3789,0.006255241,0.128947,20.8369,509.884,0.234844,0,0
4340,1084.75,39.4348,41.258,156.891,101.923,99.1471,0.006226246,0.128543,20.8377,509.844,0.253335,0,0
4350,1087.25,39.0059,40.6883,150.827,101.93,98.8525,0.006285585,0.128124,20.8386,509.784,0.28131,0,0
4360,1089.75,38.8952,40.676,150.983,101.878,99.2917,0.006367159,0.12869,20.8375,509.764,0.235999,0,0
4370,1092.25,38.6262,40.6874,158.758,101.894,99.2435,0.006430314,0.129216,20.837,509.724,0.241825,0,0
4380,1094.75,39.487,40.9067,154.822,101.87,99.2278,0.00637361,0.129369,20.8368,509.724,0.241125,0,0
4390,1097.25,39.2411,40.9246,155.496,101.864,99.0351,0.006395076,0.12921,20.8368,509.704,0.258404,0,0
4400,1099.75,39.0577,41.0035,160.279,101.842,98.9565,0.006500022,0.128735,20.8383,509.504,0.263721,0,0
4410,1102.25,38.7246,40.2019,158.129,101.822,99.2906,0.006588485,0.127453,20.8396,509.614,0.230967,0,0
4420,1104.75,38.1981,39.8832,155.105,101.8,99.2105,0.006652068,0.128872,20.8401,509.564,0.236442,0,0
4430,1107.25,38.5635,40.1467,157.485,101.798,99.7186,0.006608746,0.129716,20.8392,509.554,0.189382,0,0
4440,1109.75,38.141,40.3432,153.248,101.787,99.1796,0.006570409,0.130164,20.8384,509.484,0.238152,0,0
4450,1112.25,38.9226,40.2417,152.458,101.771,99.0224,0.00677338,0.130178,20.839,509.474,0.25122,0,0
4460,1114.75,38.6746,40.9844,156.396,101.752,99.1269,0.006932374,0.12971,20.8401,509.464,0.239873,0,0
4470,1117.25,38.1652,40.683,155.35,101.749,99.0209,0.006929266,0.128848,20.8421,509.394,0.249355,0,0
4480,1119.75,38.577,40.2421,152.62,101.724,99.4377,0.006900789,0.127914,20.8446,509.404,0.208579,0,0
4490,1122.25,38.2774,40.08,154.636,101.708,99.1984,0.006785349,0.127629,20.8454,509.374,0.229241,0,0
4500,1124.75,38.606,39.988,156.734,101.697,99.0386,0.006715483,0.127791,20.8453,509.364,0.243026,0,0
4510,1127.25,38.4448,40.5197,151.259,101.687,99.1289,0.006810128,0.127402,20.845,509.314,0.233811,0,0
4520,1129.75,38.3776,40.2754,155.108,101.671,98.9808,0.00688709,0.127323,20.8445,509.284,0.246076,0,0
4530,1132.25,38.074,39.9529,153.521,101.65,98.923,0.007046307,0.127314,20.8443,509.264,0.24954,0,0
4540,1134.75,37.7801,39.4029,156.47,101.645,98.8409,0.00728748,0.127581,20.8434,509.204,0.256679,0,0
4550,1137.25,37.4789,40.3345,160.656,101.628,98.8292,0.007401146,0.127392,20.8426,509.204,0.256274,0,0
4560,1139.75,37.9004,39.6005,151.111,101.627,98.8363,0.007307972,0.127153,20.8436,509.173,0.25554,0,0
4570,1142.25,38.0152,39.4829,151.31,101.607,98.9352,0.007280311,0.126879,20.844,509.123,0.24454,0,0
4580,1144.75,37.6144,40.0977,152.626,101.608,98.6887,0.007533781,0.12711,20.8441,509.073,0.2675,0,0
4590,1147.25,38.374,39.7354,153.278,101.591,99.0569,0.007698093,0.127153,20.8442,509.063,0.231808,0,0
4600,1149.75,37.7939,39.8045,154.825,101.59,98.7247,,0.126756,,509.023,0.262516,0,0
4610,1152.25,37.0643,39.68,152.961,101.573,98.994,,,,508.993,0.235959,0,0
4620,1154.75,37.5512,39.8484,153.024,101.571,98.8393,,,,508.963,0.250119,0,0
4630,1157.25,37.5194,39.2815,151.937,101.556,98.8033,,,,508.943,0.252159,0,0
4635,1158.5,37.4177,38.4149,154.148,101.563,99.029,,,,508.923,0.231823,0,0