File: 02_Data/MDF/Cone/MDF_Cone_HF75scan_210325_R2.csv
Names,Time,Stack TC,Smoke TC,Exh Press,Smoke Comp,Smoke Meas,CO Meter,CO2 Meter,O2 Meter,Sample Mass,Ext Coeff,Start Test,Flame Verif
Chan Gain,,500,500,1,1,1,1,1,1,1,1,1,1
Offset,,0,0,0.138348,0,0,0,0,0,0,0,0,0
Gain,,1,1,25.011,13.5067,16.616,1,1,1,1.00091,1.04608,1,1
Units,sec,C,C,Pa,%,%,%,%,%,g,/m,,
Baseline,,38.7014,42.1891,157.626,101.279,101.357,0.000294439,0.0825696,20.8474,-2.2244,-0.007111542,,
10,2.25,34.9643,37.3582,156.18,101.058,100.799,0.000309542,0.0845561,20.8436,606.192,0.02350794,0,0
20,4.75,35.5456,37.8381,153.256,101.043,100.739,0.00037748,0.0849109,20.8441,606.072,0.0276924,0,0
30,7.25,35.4862,38.2732,155.501,101.02,100.453,0.000438414,0.0851733,20.8439,605.992,0.05159948,0,0
40,9.75,36.0001,39.0933,159.985,101.026,99.5995,0.000420779,0.08562424,20.8424,605.922,0.130497,0,0
50,12.25,36.2454,39.6483,155.754,101.002,98.743,0.000781557,0.08680018,20.8347,605.872,0.207536,0,0
60,14.75,37.8417,42.3266,144.465,100.996,99.3981,0.001518116,0.11719,20.7623,605.481,0.146367,0,1
70,17.25,41.6983,48.1342,142.338,100.965,98.1619,0.002554335,0.191984,20.604,605.091,0.258401,0,1
80,19.75,45.4545,55.9853,135.409,100.974,97.2192,0.003630328,0.313906,20.3725,604.42,0.347696,0,0
90,22.25,50.181,64.1787,135.842,100.954,95.6224,0.004560611,0.452122,20.1895,603.81,0.497863,0,0
100,24.75,54.4265,71.0744,132.355,100.949,94.2503,0.005541937,0.577158,20.0562,603.159,0.630005,0,0
110,27.25,58.2974,77.0141,125.469,100.932,93.2929,0.006510608,0.683472,19.9733,602.488,0.722228,0,0
120,29.75,61.8701,82.7013,130.961,100.943,91.3219,0.007388063,0.760698,19.9122,601.828,0.919145,0,0
130,32.25,64.8605,87.5253,133.161,100.909,89.2388,0.008279259,0.82243,19.8656,601.137,1.12781,0,0
140,34.75,67.5937,90.9162,128.273,100.899,89.3022,0.008874603,0.863052,19.8497,600.477,1.12039,0,0
150,37.25,69.529,94.0181,127.402,100.892,86.6583,0.009569919,0.88257,19.8485,599.806,1.39549,0,0
160,39.75,71.9822,95.5875,128.758,100.878,86.9549,0.0101238,0.890342,19.8581,599.145,1.36282,0,0
170,42.25,72.3525,97.2536,131.502,100.854,86.3525,0.0103284,0.884446,19.8876,598.495,1.42448,0,0
180,44.75,73.3714,97.0768,133.126,100.869,86.2359,0.0103883,0.868486,19.9207,597.884,1.43823,0,0
190,47.25,73.8105,98.3569,138.97,100.847,89.8463,0.010461,0.847613,19.9543,597.294,1.05985,0,0
200,49.75,74.1537,98.829,135.08,100.823,88.3088,0.0103292,0.826972,19.979,596.713,1.2161,0,0
210,52.25,72.895,98.9803,132.387,100.839,88.5314,0.0100672,0.810166,20.0036,596.193,1.19442,0,0
220,54.75,74.6946,97.8795,136.539,100.827,88.2267,0.009883492,0.787424,20.0398,595.602,1.22498,0,0
230,57.25,74.6556,97.0169,140.138,100.828,87.852,0.009809803,0.764072,20.07,595.102,1.26411,0,0
240,59.75,74.6898,97.5083,129.151,100.809,90.2986,0.009807166,0.742903,20.0936,594.561,1.01032,0,0
250,62.25,74.5454,96.1132,135.224,100.8,90.149,0.009651675,0.722642,20.1214,594.031,1.02471,0,0
260,64.75,74.4472,95.5164,130.135,100.8,90.0694,0.009425017,0.702045,20.1422,593.55,1.03282,0,0
270,67.25,74.0924,94.4737,134.083,100.797,90.504,0.009140434,0.683337,20.1648,593.02,0.988427,0,0
280,69.75,73.9427,93.3738,138.426,100.789,91.7184,0.008774593,0.665275,20.1828,592.549,0.865401,0,0
290,72.25,74.1988,92.7493,133.748,100.777,91.8751,0.008328853,0.650194,20.1967,592.089,0.848612,0,0
300,74.75,73.7581,92.2702,134.567,100.783,92.6601,0.007983441,0.636954,20.2105,591.649,0.771109,0,0
310,77.25,72.9952,92.0419,136.76,100.774,91.2595,0.007786779,0.624945,20.2262,591.148,0.910039,0,0
320,79.75,73.3969,90.9535,131.404,100.778,92.0217,0.00761267,0.612171,20.2391,590.658,0.8341,0,0
330,82.25,73.0684,90.3959,139.729,100.767,90.8209,0.007489111,0.600943,20.2507,590.247,0.953611,0,0
340,84.75,72.6458,89.4533,136.495,100.785,91.9892,0.007555646,0.589188,20.263,589.807,0.837975,0,0
350,87.25,72.6206,89.1945,140.226,100.76,92.9735,0.007551134,0.579695,20.2727,589.357,0.738026,0,0
360,89.75,72.5082,88.7363,138.207,100.775,93.0008,0.007416276,0.571493,20.281,588.916,0.736676,0,0
370,92.25,72.6099,88.0859,140.9,100.754,92.8147,0.007162614,0.564356,20.287,588.476,0.753179,0,0
380,94.75,72.2855,87.8402,131.88,100.764,93.4526,0.007019004,0.558423,20.2928,588.015,0.691191,0,0
390,97.25,72.404,87.6563,139.551,100.741,94.442,0.007082878,0.552875,20.299,587.585,0.592497,0,0
400,99.75,71.983,87.211,136.141,100.751,94.9009,0.007106235,0.547747,20.3044,587.174,0.54888,0,0
410,102.25,72.0165,86.9435,135.761,100.75,94.5424,0.00685602,0.542527,20.3102,586.774,0.583573,0,0
420,104.75,72.1988,86.4886,138.483,100.745,94.5317,0.006447218,0.537159,20.3163,586.354,0.584156,0,0
430,107.25,71.8206,86.1643,139.152,100.749,94.5276,0.006109685,0.5329777,20.3209,585.933,0.584925,0,0
440,109.75,71.6761,85.8463,135.598,100.737,95.2315,0.006083176,0.529399,20.3237,585.493,0.515766,0,0
450,112.25,71.6878,85.8639,140.809,100.774,93.9425,0.00621677,0.526086,20.3256,585.063,0.64412,0,0
460,114.75,71.5095,85.4183,143.079,100.815,94.2128,0.006269427,0.523067,20.3285,584.622,0.621474,0,0
470,117.25,71.4662,85.6361,142.676,100.83,93.0333,0.006048557,0.52018,20.3322,584.222,0.738502,0,0
480,119.75,71.4695,85.7099,137.78,100.84,95.0586,0.00586635,0.51667,20.3352,583.821,0.54175,0,0
490,122.25,71.8241,85.5981,137.827,100.864,94.9632,0.00579707,0.514855,20.3367,583.381,0.553132,0,0
500,124.75,72.1518,85.5179,132.143,100.877,94.7645,0.005796814,0.51447,20.3356,582.971,0.573597,0,0
510,127.25,72.1162,85.9536,137.141,100.937,95.1417,0.005885787,0.513981,20.3357,582.57,0.542536,0,0
520,129.75,72.0986,85.1681,134.864,100.959,94.7908,0.005954984,0.51267,20.3376,582.13,0.578466,0,0
530,132.25,72.2205,85.1859,137.399,101.007,94.7533,0.005930111,0.510885,20.3393,581.77,0.586517,0,0
540,134.75,72.2722,84.5844,132.139,101.018,94.3461,0.005764191,0.509216,20.3406,581.319,0.626972,0,0
550,137.25,72.4577,84.6438,139.521,101.049,95.7097,0.005521223,0.506268,20.3441,580.859,0.498111,0,0
560,139.75,71.9154,85.1373,135.575,101.065,95.7269,0.005351317,0.504117,20.3453,580.498,0.497955,0,0
570,142.25,72.5393,85.207,135.474,101.085,96.0038,0.005326503,0.503235,20.3458,580.088,0.473287,0,0
580,144.75,72.0831,85.7413,136.801,101.094,97.6396,0.005233395,0.503444,20.3456,579.648,0.318999,0,0
590,147.25,72.2598,85.3764,139.594,101.118,97.1077,0.005141466,0.50251,20.3448,579.257,0.371332,0,0
600,149.75,72.6924,84.7084,140.6,101.143,96.4388,0.005101851,0.50141,20.3466,578.827,0.437033,0,0
610,152.25,72.5252,85.1327,139.225,101.15,96.8207,0.004988958,0.499989,20.3475,578.417,0.40141,0,0
620,154.75,72.5878,85.1821,136.124,101.16,96.6731,0.004945835,0.499102,20.3477,578.066,0.41634,0,0
630,157.25,72.816,85.4532,135.581,101.175,97.2973,0.005051922,0.498526,20.3478,577.666,0.358627,0,0
640,159.75,72.4729,85.575,138.393,101.194,96.4003,0.005071565,0.497243,20.3479,577.215,0.445338,0,0
650,162.25,73.2431,86.0233,138.825,101.2,96.0611,0.004993343,0.496427,20.3488,576.815,0.47817,0,0
660,164.75,73.4333,85.1463,139.477,101.229,97.5757,0.004919462,0.495259,20.3504,576.375,0.337268,0,0
670,167.25,72.8076,85.5328,135.238,101.229,97.6381,0.004886968,0.492375,20.3549,576.004,0.331441,0,0
680,169.75,73.5243,85.6381,134.163,101.252,97.1143,0.004863524,0.490191,20.3592,575.554,0.382858,0,0
690,172.25,72.9033,86.4362,138.91,101.255,96.951,0.004760048,0.487309,20.3645,575.174,0.398597,0,0
700,174.75,73.6871,84.9232,138.958,101.281,96.3536,0.004567676,0.482454,20.3718,574.753,0.457662,0,0
710,177.25,72.2378,85.902,141.606,101.285,98.7511,0.004365838,0.477115,20.379,574.343,0.23251,0,0
720,179.75,72.6244,84.7945,138.485,101.291,99.8048,0.004355538,0.471949,20.385,573.942,0.135638,0,0
730,182.25,73.1907,84.3309,140.167,101.315,98.2552,0.004467155,0.467822,20.3877,573.512,0.281433,0,0
740,184.75,72.4673,85.3478,140.431,101.319,98.5965,0.004488412,0.464615,20.3906,573.162,0.249917,0,0
750,187.25,73.0099,84.7546,137.801,101.332,99.7886,0.004375714,0.46146,20.3937,572.711,0.140864,0,0
760,189.75,72.9055,84.245,135.221,101.329,98.6309,0.004309093,0.458721,20.3972,572.311,0.247679,0,0
770,192.25,71.9943,83.8468,143.126,101.36,99.6324,0.003993622,0.45648,20.3994,572.001,0.157774,0,0
780,194.75,72.8692,84.0222,142.095,101.347,99.1563,0.003573149,0.453334,20.4031,571.57,0.200539,0,0
790,197.25,72.4727,84.0966,137.231,101.369,99.1811,0.003353697,0.450675,20.4045,571.16,0.200218,0,0
800,199.75,71.908,84.4561,140.87,101.374,99.3885,0.003393311,0.449295,20.4049,570.78,0.181534,0,0
810,202.25,72.5538,83.6494,145.389,101.399,99.5711,0.003495381,0.447888,20.4064,570.389,0.166896,0,0
820,204.75,72.1983,83.3978,138.322,101.399,100.103,0.00360236,0.446572,20.4071,570.029,0.118045,0,0
830,207.25,72.9252,83.434,140.576,101.425,99.3099,0.003620004,0.446033,20.4078,569.639,0.193345,0,0
840,209.75,72.0397,83.5619,139.175,101.437,100.088,0.003524019,0.444978,20.4091,569.268,0.122833,0,0
850,212.25,71.605,83.626,140.074,101.48,99.5508,0.00342454,0.443634,20.4108,568.908,0.17615,0,0
860,214.75,72.3064,83.7994,134.348,101.493,98.9793,0.003341552,0.44237,20.4126,568.518,0.230169,0,0
870,217.25,72.4065,83.3684,134.586,101.507,99.7749,0.003282896,0.441,20.4145,568.147,0.157936,0,0
880,219.75,72.1937,83.3271,144.24,101.547,100.317,0.003246479,0.439898,20.417,567.777,0.111748,0,0
890,222.25,72.5006,82.8242,138.556,101.552,100.61,0.003223208,0.43785,20.4205,567.437,0.0855905,0,0
900,224.75,72.5552,82.8891,133.833,101.569,99.6385,0.003257045,0.435091,20.424,567.076,0.176076,0,0
910,227.25,71.795,82.6377,137.952,101.581,99.6527,0.003316353,0.433168,20.4255,566.726,0.175886,0,0
920,229.75,72.3446,82.6446,138.252,101.606,100.469,0.003325742,0.431578,20.4266,566.376,0.103214,0,0
930,232.25,72.2965,82.6816,138.906,101.617,99.8211,0.00323911,0.430774,20.427,565.955,0.163598,0,0
940,234.75,71.3768,81.9933,140.1,101.643,99.8971,0.003113274,0.429573,20.4289,565.645,0.158991,0,0
950,237.25,72.1153,82.0219,137.799,101.64,101.207,0.002947761,0.428687,20.4305,565.245,0.0392017,0,0
960,239.75,71.6051,82.2305,137.541,101.674,99.3444,0.002919347,0.42774,20.4322,564.924,0.21273,0,0
970,242.25,71.5624,82.5737,141.238,101.668,100.508,0.002865762,0.426229,20.4345,564.534,0.105268,0,0
980,244.75,71.9341,82.0945,137.623,101.687,100.12,0.002766448,0.424715,20.4369,564.234,0.142509,0,0
990,247.25,71.4116,82.0574,141.738,101.683,100.927,0.002736988,0.422826,20.4385,563.883,0.0684842,0,0
1000,249.75,71.937,82.1048,146.758,101.685,100.274,0.002748359,0.420792,20.4393,563.553,0.128198,0,0
1010,252.25,71.8864,81.4071,141.877,101.688,101.657,0.002735529,0.418765,20.4409,563.183,0.002744131,0,0
1020,254.75,71.538,81.5193,144.53,101.683,101.061,0.002649452,0.416923,20.443,562.812,0.0562756,0,0
1030,257.25,70.9339,81.4447,141.315,101.688,100.985,0.002647576,0.41599,20.444,562.502,0.0636764,0,0
1040,259.75,71.3233,81.8972,139.755,101.681,100.259,0.002774648,0.41562,20.4461,562.172,0.129255,0,0
1050,262.25,71.3435,81.8984,137.704,101.692,101.321,0.002808508,0.414611,20.4478,561.811,0.0335131,0,0
1060,264.75,71.5418,81.749,144.069,101.672,102.084,0.002709205,0.412533,20.4509,561.461,-0.03711972,0,0
1070,267.25,71.0191,81.5152,145.678,101.662,100.758,0.00258505,0.409871,20.4546,561.141,0.0819886,0,0
1080,269.75,70.7337,81.4014,137.598,101.653,100.902,0.002505661,0.407692,20.4559,560.77,0.0680282,0,0
1090,272.25,71.797,80.791,135.577,101.655,100.751,0.002459969,0.406151,20.4563,560.44,0.0819289,0,0
1100,274.75,71.2789,80.6308,142.689,101.627,100.592,0.002533479,0.405156,20.4574,560.13,0.0938653,0,0
1110,277.25,71.0756,80.4774,140.09,101.637,100.163,0.002621238,0.40424,20.4596,559.79,0.134096,0,0
1120,279.75,70.8445,80.3827,139.674,101.606,101.208,0.002556762,0.403293,20.4613,559.469,0.0360206,0,0
1130,282.25,70.4325,81.15,138.062,101.607,101.849,0.002588579,0.402001,20.4628,559.179,-0.02184229,0,0
1140,284.75,70.7027,80.7792,138.542,101.584,101.829,0.00254327,0.401461,20.4636,558.859,-0.02205446,0,0
1150,287.25,70.6783,80.5787,137.729,101.56,100.782,0.002406625,0.40071,20.4641,558.548,0.0705415,0,0
1160,289.75,70.8059,79.7236,139.4,101.537,101.059,0.002375752,0.399453,20.4668,558.178,0.0433278,0,0
1170,292.25,70.8304,79.8288,140.264,101.528,101.09,0.002339055,0.397838,20.4695,557.928,0.0396167,0,0
1180,294.75,70.9406,79.8803,138.223,101.504,100.924,0.002273574,0.396811,20.4699,557.588,0.0525566,0,0
1190,297.25,71.0087,80.0071,141.71,101.485,101.371,0.002277446,0.395629,20.4714,557.247,0.0103608,0,0
1200,299.75,70.3937,80.0463,146.047,101.474,101.223,0.002202962,0.393607,20.4749,556.947,0.0227671,0,0
1210,302.25,70.8589,79.8411,144.096,101.439,101.546,0.002232309,0.392061,20.4763,556.617,-0.009682651,0,0
1220,304.75,70.436,79.8891,140.451,101.43,101.024,0.002333647,0.391088,20.4771,556.336,0.0367692,0,0
1230,307.25,70.5422,79.3352,142.348,101.391,101.535,0.002215523,0.3898485,20.4783,555.986,-0.0130834,0,0
1240,309.75,69.6677,79.3745,138.395,101.375,101.807,0.002142882,0.388804,20.4794,555.686,-0.0390315,0,0
1250,312.25,70.6006,79.6635,139.318,101.329,101.979,0.002171996,0.388994,20.4798,555.396,-0.0586543,0,0
1260,314.75,70.254,78.7229,142.971,101.315,102.215,0.002172081,0.388314,20.4812,555.055,-0.0811528,0,0
1270,317.25,69.7919,79.1717,141.332,101.269,101.418,0.002241116,0.387494,20.4819,554.775,-0.0134569,0,0
1280,319.75,70.079,79.381,142.19,101.244,101.147,0.002354283,0.386445,20.4822,554.445,0.008833192,0,0
1290,322.25,69.521,79.178,138.312,101.194,100.76,0.002294531,0.385189,20.4823,554.154,0.0394424,0,0
1300,324.75,70.2001,78.914,147.867,101.193,102.412,0.002282323,0.38452,20.4819,553.834,-0.109901,0,0
1310,327.25,69.3175,78.935,139.874,101.195,100.799,0.002416187,0.383628,20.4833,553.494,0.0360457,0,0
1320,329.75,70.2209,78.8145,142.384,101.205,101.554,0.002401378,0.383225,20.4842,553.204,-0.0316106,0,0
1330,332.25,69.4862,78.9511,135.769,101.224,101.006,0.002217922,0.383408,20.4845,552.913,0.0197637,0,0
1340,334.75,70.3261,78.6352,143.099,101.23,101.774,0.002224238,0.382972,20.4861,552.603,-0.0492399,0,0
1350,337.25,69.9958,78.3328,139.647,101.247,101.392,0.002318141,0.381439,20.4888,552.323,-0.0131803,0,0
1360,339.75,69.4327,78.594,139.507,101.248,101.479,0.002252484,0.380056,20.491,552.033,-0.02091142,0,0
1370,342.25,69.9485,78.2958,139.314,101.286,101.573,0.002098423,0.378531,20.4931,551.732,-0.0259912,0,0
1380,344.75,69.4283,78.2949,140.835,101.295,101.345,0.002048236,0.377141,20.4951,551.452,-0.004578477,0,0
1390,347.25,69.8517,77.7063,141.383,101.317,100.951,0.002015867,0.376108,20.4958,551.162,0.0331807,0,0
1400,349.75,69.0367,78.2393,141.632,101.32,101.559,0.002098503,0.375397,20.4968,550.871,-0.0216186,0,0
1410,352.25,69.4111,78.156,142.924,101.372,101.512,0.002145713,0.374302,20.4973,550.591,-0.0126452,0,0
1420,354.75,68.9835,77.9779,138.579,101.371,101.469,0.001987967,0.373796,20.4975,550.311,-0.008860317,0,0
1430,357.25,69.3208,77.8266,139.911,101.397,101.88,0.001951735,0.374096,20.497,550.021,-0.0436251,0,0
1440,359.75,69.0459,77.832,144.349,101.411,101.24,0.002052592,0.373961,20.4968,549.68,0.0155374,0,0
1450,362.25,68.4074,78.0575,139.542,101.44,100.771,0.002067658,0.373004,20.4979,549.39,0.06072221,0,0
1460,364.75,68.284,77.7538,139.27,101.451,101.365,0.002014836,0.372958,20.4986,549.11,0.007734836,0,0
1470,367.25,68.5664,77.9349,143.038,101.49,101.775,0.002110585,0.372883,20.4989,548.78,-0.02574,0,0
1480,369.75,68.6166,77.3134,142.399,101.516,101.508,0.002232198,0.372926,20.499,548.499,0.000725213,0,0
1490,372.25,68.569,77.4536,143.729,101.543,101.572,0.002196159,0.373021,20.499,548.249,-0.002664528,0,0
1500,374.75,69.2169,77.1964,140.089,101.596,101.828,0.002167719,0.37278,20.4992,547.899,-0.0208829,0,0
1510,377.25,69.4002,76.9587,138.265,101.615,101.93,0.002256323,0.372692,20.4992,547.639,-0.0283594,0,0
1520,379.75,68.6705,77.0021,143.37,101.652,101.442,0.0023552,0.372395,20.5002,547.338,0.0189723,0,0
1530,382.25,68.1516,77.6611,141.581,101.673,101.576,0.00226222,0.371712,20.5011,547.028,0.008768715,0,0
1540,384.75,68.0335,77.062,143.964,101.707,100.967,0.002053796,0.371414,20.5001,546.748,0.0670466,0,0
1550,387.25,68.5439,77.6397,139.74,101.732,101.14,0.001913707,0.371259,20.501,546.427,0.0534833,0,0
1560,389.75,68.4574,77.5707,140.45,101.776,101.156,0.001901428,0.370938,20.5019,546.197,0.056119,0,0
1570,392.25,68.1867,77.5349,138.642,101.79,101.56,0.001981779,0.370175,20.5023,545.897,0.0207482,0,0
1580,394.75,68.9567,76.8703,142.628,101.826,102.422,0.002114044,0.369893,20.5024,545.607,-0.0535691,0,0
1590,397.25,68.5574,77.1282,145.468,101.855,101.799,0.002223979,0.37069,20.5016,545.316,0.005109178,0,0
1600,399.75,68.4093,77.1312,138.79,101.873,101.661,0.002202977,0.37107,20.5001,545.026,0.0191098,0,0
1610,402.25,68.6439,77.1457,144.807,101.906,101.41,0.002087255,0.371371,20.4992,544.736,0.0448007,0,0
1620,404.75,68.6826,76.9482,138.318,101.917,101.789,0.002095127,0.371279,20.4989,544.446,0.0115463,0,0
1630,407.25,68.9541,76.7402,141.08,101.939,102.861,0.002190568,0.372053,20.4987,544.105,-0.0826262,0,0
1640,409.75,68.632,77.0502,137.395,101.949,103.369,0.00212413,0.372251,20.499,543.875,-0.126898,0,0
1650,412.25,68.9448,76.7352,139.265,101.971,101.183,0.001938262,0.372544,20.4993,543.535,0.0712047,0,0
1660,414.75,68.6109,77.2989,142.66,101.982,101.888,0.001901707,0.372963,20.499,539.811,0.008498781,0,0
1670,417.25,68.7722,76.1961,138.81,102.003,101.78,0.001935006,0.373337,20.4986,566.636,0.0201228,0,0
1680,419.75,68.6887,76.6523,146.956,102.006,101.894,0.002063597,0.373391,20.4991,542.684,0.0101008,0,0
1690,422.25,68.3979,76.7092,140.053,102.012,101.138,0.002316758,0.373958,20.4976,542.474,0.0788776,0,0
1700,424.75,68.5866,77.5166,140.129,102.026,102.302,0.002442582,0.37659,20.4912,542.164,-0.024761,0,0
1710,427.25,68.7898,76.8457,144.73,102.04,101.056,0.002370095,0.379879,20.4876,541.883,0.0889006,0,0
1720,429.75,68.9355,76.9078,137.923,102.025,101.354,0.002305873,0.382188,20.4858,541.533,0.0604864,0,0
1730,432.25,68.643,76.8896,140.891,102.041,102.164,0.002335736,0.38324,20.4852,541.243,-0.0110921,0,0
1740,434.75,68.1711,77.1703,140.251,102.04,101.268,0.002408942,0.383891,20.485,540.972,0.0697121,0,0
1750,437.25,69.1501,76.4653,142.354,102.046,100.982,0.002351583,0.383795,20.4865,540.632,0.0961355,0,0
1760,439.75,69.086,76.4247,140.081,102.039,101.632,0.002270679,0.382689,20.4885,540.352,0.0366602,0,0
1770,442.25,68.1866,77.2209,139.315,102.036,101.661,0.002222024,0.381221,20.4898,540.102,0.0337551,0,0
1780,444.75,68.7115,76.3569,144.318,102.036,100.852,0.002219918,0.379835,20.492,539.771,0.107096,0,0
1790,447.25,68.0691,77.149,138.559,102.033,101.436,0.002357791,0.380386,20.4902,539.501,0.0538019,0,0
1800,449.75,68.4959,76.7748,145.937,102.032,101.139,0.002448753,0.380947,20.4903,539.211,0.0806484,0,0
1810,452.25,68.6719,76.5754,139.046,102.017,100.797,0.002559147,0.381179,20.4911,538.921,0.110411,0,0
1820,454.75,68.217,76.6443,141.983,102.035,100.638,0.002650733,0.381583,20.4915,538.59,0.126466,0,0
1830,457.25,69.0894,77.0117,144.242,102.014,100.711,0.002653885,0.382709,20.4892,538.26,0.117928,0,0
1840,459.75,68.9686,77.0186,141.838,102.016,100.456,0.002650897,0.384521,20.4863,538,0.141383,0,0
1850,462.25,68.8656,77.0299,139.825,101.995,100.276,0.002663182,0.385555,20.4848,537.679,0.155987,0,0
1860,464.75,69.0282,77.4169,143.936,101.999,100.806,0.002618225,0.386304,20.484,537.369,0.107912,0,0
1870,467.25,68.997,77.2141,143.383,101.979,100.31,0.002667108,0.387489,20.4816,537.089,0.151395,0,0
1880,469.75,68.6902,77.9546,140.28,101.965,100.244,0.002882113,0.388954,20.4792,536.739,0.156157,0,0
1890,472.25,69.199,78.0628,140.166,101.939,100.114,0.002938821,0.390841,20.4777,536.488,0.16584,0,0
1900,474.75,68.9449,77.819,139.482,101.942,100.628,0.002819826,0.391937,20.4775,536.158,0.11901,0,0
1910,477.25,68.7956,77.6932,143.447,101.913,100.333,0.002634057,0.391962,20.4774,535.878,0.143364,0,0
1920,479.75,69.3708,77.8722,141.074,101.887,100.296,0.002652242,0.392619,20.4769,535.578,0.14441,0,0
1930,482.25,68.8292,77.7914,142.681,101.866,99.8743,0.00290603,0.394327,20.4751,535.257,0.181235,0,0
1940,484.75,69.0762,77.7025,138.056,101.829,99.7937,0.002985688,0.395692,20.473,534.967,0.185228,0,0
1950,487.25,69.4009,78.2792,138.424,101.813,99.8712,0.003039003,0.397086,20.4709,534.677,0.176685,0,0
1960,489.75,69.6162,77.6497,139.003,101.768,99.9904,0.003126421,0.398793,20.4702,534.396,0.16173,0,0
1970,492.25,69.5102,77.9515,135.637,101.739,99.5913,0.003050479,0.399575,20.4696,534.036,0.19575,0,0
1980,494.75,69.6462,78.0948,138.667,101.686,99.6801,0.002999493,0.4007788,20.4676,533.726,0.182818,0,0
1990,497.25,69.3159,77.9552,144.15,101.668,99.4737,0.003100743,0.402113,20.4653,533.406,0.200237,0,0
2000,499.75,69.288,78.0872,141.696,101.617,99.9093,0.003225026,0.403227,20.4645,533.095,0.155491,0,0
2010,502.25,69.61,78.3181,140.473,101.587,99.5787,0.003286454,0.403722,20.4642,532.815,0.183265,0,0
2020,504.75,69.7085,78.8141,136.924,101.538,98.4925,0.003357225,0.40381,20.4636,532.505,0.279434,0,0
2030,507.25,70.0013,78.6022,138.976,101.505,97.7856,0.003457367,0.4045389,20.4633,532.204,0.342547,0,0
2040,509.75,69.7058,78.3978,137.29,101.467,98.1685,0.00344163,0.405972,20.4613,531.864,0.303225,0,0
2050,512.25,69.2986,78.9264,145.994,101.425,99.137,0.003428967,0.40708,20.4595,531.574,0.209372,0,0
2060,514.75,69.4765,78.6466,137.512,101.385,98.2613,0.003308804,0.407085,20.4618,531.194,0.287209,0,0
2070,517.25,70.0703,78.881,140.659,101.363,97.599,0.003228508,0.406538,20.4638,530.923,0.347211,0,0
2080,519.75,69.5001,78.6952,141.054,101.331,98.7907,0.003321692,0.406366,20.4631,530.613,0.233016,0,0
2090,522.25,69.5857,78.6972,141.314,101.296,99.0254,0.003558203,0.406868,20.4618,530.283,0.207988,0,0
2100,524.75,70.4738,77.8751,140.005,101.276,98.2552,0.003639676,0.407624,20.4599,530.003,0.277886,0,0
2110,527.25,70.2433,78.831,137.386,101.235,97.3262,0.003610021,0.408377,20.4592,529.662,0.361321,0,0
2120,529.75,69.7574,78.8527,141.074,101.22,98.3885,0.003651653,0.409114,20.4589,529.362,0.26036,0,0
2130,532.25,70.5577,78.6805,139.568,101.177,98.4905,0.003747341,0.409259,20.4589,529.032,0.246934,0,0
2140,534.75,69.8654,78.6805,140.262,101.16,97.7811,0.003737655,0.409144,20.4588,528.691,0.311772,0,0
2150,537.25,70.2038,78.8487,136.818,101.122,98.0169,0.003497798,0.409157,20.4588,528.451,0.286155,0,0
2160,539.75,69.7791,79.112,136.669,101.097,97.2638,0.003340017,0.409736,20.4574,528.121,0.354641,0,0
2170,542.25,69.8165,78.3281,138.667,101.068,96.8896,0.00344976,0.410009,20.4568,527.77,0.387469,0,0
2180,544.75,70.1454,78.6188,136.304,101.035,97.6807,0.003611151,0.41022,20.4554,527.51,0.309825,0,0
2190,547.25,70.1938,78.761,142.045,101.011,97.851,0.003482988,0.411203,20.4542,527.2,0.291662,0,0
2200,549.75,69.9753,78.7229,143.003,100.97,98.5772,0.003264042,0.41082,20.4555,526.87,0.22011,0,0
2210,552.25,69.9733,78.6667,138.961,100.962,97.2699,0.003285955,0.409177,20.4586,526.539,0.341825,0,0
2220,554.75,69.5629,78.4074,148.025,100.911,97.42,0.003296079,0.408391,20.4584,526.289,0.323105,0,0
2230,557.25,70.2063,78.995,144.576,100.899,98.0316,0.003238685,0.40934,20.4552,525.959,0.26452,0,0
2240,559.75,70.6226,78.7967,136.391,100.869,97.9018,0.003133967,0.410785,20.4536,525.648,0.274018,0,0
2250,562.25,69.8585,78.7983,139.37,100.851,98.3683,0.003088005,0.411582,20.4533,525.308,0.228746,0,0
2260,564.75,70.2725,78.9878,141.942,100.832,97.0762,0.003173323,0.411503,20.4546,525.038,0.348345,0,0
2270,567.25,70.0176,78.6142,140.822,100.808,98.0539,0.003258069,0.410687,20.4551,524.728,0.254145,0,0
2280,569.75,70.53,79.0576,143.161,100.769,96.985,0.003355292,0.410327,20.4553,524.437,0.351235,0,0
2290,572.25,70.2337,79.1104,142.551,100.766,96.8668,0.003436592,0.41018,20.4545,524.107,0.362159,0,0
2300,574.75,69.7227,78.8312,141.741,100.712,97.6842,0.003537904,0.41066,20.4521,523.857,0.280132,0,0
2310,577.25,70.0933,79.0419,140.179,100.695,97.0864,0.003589029,0.41121,20.4515,523.517,0.33485,0,0
2320,579.75,70.0892,79.0099,141.014,100.655,97.1776,0.003508796,0.41154,20.4503,523.226,0.322583,0,0
2330,582.25,70.1657,78.9632,138.437,100.64,96.9292,0.003414902,0.411228,20.4506,522.886,0.344721,0,0
2340,584.75,70.1515,79.0663,139.053,100.611,97.0108,0.003444345,0.410468,20.4531,522.616,0.334328,0,0
2350,587.25,70.2312,79.5992,138.612,100.594,97.3075,0.00332543,0.411348,20.4497,522.305,0.304807,0,0
2360,589.75,70.2354,79.3233,141.237,100.568,96.239,0.003213492,0.412824,20.4464,522.025,0.403747,0,0
2370,592.25,70.3112,79.6425,141.609,100.536,97.6396,0.003128057,0.413682,20.4451,521.705,0.268236,0,0
2380,594.75,70.2082,79.0687,136.901,100.515,97.5422,0.003061788,0.414147,20.4433,521.425,0.275509,0,0
2390,597.25,70.6711,79.5008,136.612,100.489,97.6523,0.003018358,0.415381,20.4412,521.124,0.262755,0,0
2400,599.75,70.6366,79.2228,147.956,100.463,97.2426,0.003091222,0.416524,20.4401,520.784,0.299003,0,0
2410,602.25,70.7595,79.2841,136.719,100.446,96.8313,0.00325717,0.416173,20.4412,520.484,0.33631,0,0
2420,604.75,70.4423,79.5433,140.438,100.439,96.7182,0.003386434,0.415751,20.4417,520.174,0.34643,0,0
2430,607.25,70.4103,79.2518,141.766,100.41,96.6908,0.003419433,0.416234,20.4424,519.893,0.346316,0,0
2440,609.75,70.509,79.4194,139.922,100.397,96.3952,0.003441844,0.417038,20.4421,519.543,0.373284,0,0
2450,612.25,70.3316,79.836,142.347,100.381,96.7674,0.003522508,0.418075,20.4402,519.293,0.336453,0,0
2460,614.75,71.026,79.3863,136.106,100.364,96.3993,0.003871596,0.419712,20.4354,518.982,0.369847,0,0
2470,617.25,70.9027,79.8673,140.037,100.348,95.6853,0.004171534,0.421525,20.4335,518.652,0.436628,0,0
2480,619.75,70.708,79.7079,145.238,100.346,96.3303,0.004184498,0.423047,20.4327,518.362,0.374793,0,0
2490,622.25,70.8779,79.6812,138.333,100.322,96.3785,0.003992516,0.422576,20.4324,518.062,0.367981,0,0
2500,624.75,70.8395,79.5988,143.903,100.322,96.0174,0.003847151,0.422502,20.4323,517.711,0.402382,0,0
2510,627.25,70.8255,79.5686,140.561,100.322,96.0692,0.003864935,0.42406,20.4292,517.411,0.397516,0,0
2520,629.75,71.06,79.9234,140.003,100.295,95.4333,0.003962602,0.427191,20.4233,517.101,0.455965,0,0
2530,632.25,70.9663,80.0629,141.332,100.298,94.4328,0.003931965,0.429707,20.4199,516.75,0.552934,0,0
2540,634.75,71.0097,80.4187,138.478,100.285,96.5108,0.004051318,0.431702,20.4177,516.5,0.352033,0,0
2550,637.25,71.1003,80.1588,139.829,100.289,95.9333,0.004261546,0.432483,20.417,516.13,0.407488,0,0
2560,639.75,71.2616,80.2864,143.946,100.269,95.3045,0.004395556,0.432248,20.4173,515.81,0.465944,0,0
2570,642.25,71.1268,80.3789,144.711,100.282,96.0174,0.004386811,0.432093,20.4168,515.509,0.398799,0,0
2580,644.75,71.3516,80.7944,143.393,100.266,95.5073,0.004369128,0.433661,20.4128,515.239,0.446134,0,0
2590,647.25,71.5663,80.7275,137.658,100.276,94.8121,0.004444561,0.436395,20.4095,514.929,0.514115,0,0
2600,649.75,72.0207,81.1351,141.859,100.258,94.9566,0.004456892,0.437968,20.4061,514.598,0.498479,0,0
2610,652.25,71.2895,81.5656,139.41,100.264,95.3496,0.004364256,0.43981,20.4022,514.288,0.461148,0,0
2620,654.75,71.8922,81.5846,140.66,100.255,95.2584,0.00445425,0.441772,20.4026,513.978,0.469105,0,0
2630,657.25,72.2989,81.0511,140.516,100.255,94.4526,0.004434546,0.442412,20.4025,513.658,0.547052,0,0
2640,659.75,72.0151,81.4567,138.91,100.256,95.2609,0.004499517,0.443277,20.4013,513.287,0.468936,0,0
2650,662.25,72.4126,81.203,141.926,100.253,94.7497,0.004614062,0.443838,20.3996,513.007,0.518041,0,0
2660,664.75,72.1396,81.6032,140.3,100.258,96.6092,0.004485364,0.444545,20.3979,512.657,0.3401573,0,0
2670,667.25,72.2177,81.5024,138.102,100.245,95.0794,0.004370741,0.446321,20.3948,512.376,0.485497,0,0
2680,669.75,72.3026,81.0987,138.956,100.254,94.4785,0.004306441,0.448193,20.3934,512.056,0.544427,0,0
2690,672.25,72.5668,81.5244,143.139,100.257,95.7239,0.004299371,0.448368,20.3936,511.696,0.4245992,0,0
2700,674.75,72.3195,81.9167,137.594,100.267,94.48,0.004463162,0.447608,20.3937,511.406,0.545486,0,0
2710,677.25,72.415,82.4685,139.002,100.259,94.9622,0.00463149,0.448143,20.3942,511.105,0.498015,0,0
2720,679.75,72.7883,81.7005,136.94,100.266,93.3441,0.004708147,0.448637,20.3945,510.785,0.656358,0,0
2730,682.25,72.655,82.0513,141.53,100.265,94.338,0.004663024,0.449661,20.3938,510.435,0.559136,0,0
2740,684.75,73.3261,82.937,141.935,100.292,94.3223,0.004659569,0.451569,20.3904,510.194,0.563079,0,0
2750,687.25,73.0332,82.0087,135.002,100.283,93.4577,0.004719961,0.452998,20.3889,509.784,0.646821,0,0
2760,689.75,72.5277,83.0435,136.791,100.298,94.5449,0.004852098,0.453591,20.3871,509.524,0.542013,0,0
2770,692.25,72.6778,82.529,137.887,100.306,94.9394,0.004995414,0.455249,20.3851,509.163,0.504595,0,0
2780,694.75,72.3723,83.1405,140.453,100.312,94.482,0.005014415,0.456856,20.3832,508.853,0.549437,0,0
2790,697.25,73.4774,82.3914,136.57,100.348,94.7604,0.004812359,0.459122,20.3787,508.523,0.52572,0,0
2800,699.75,73.1749,82.9559,136.311,100.351,93.4628,0.004639363,0.46075,20.3756,508.203,0.652507,0,0
2810,702.25,72.791,83.6196,141.583,100.374,95.2467,0.004784837,0.462242,20.3712,507.912,0.481163,0,0
2820,704.75,73.1443,84.0348,139.534,100.393,94.8278,0.005072082,0.463375,20.3695,507.572,0.523337,0,0
2830,707.25,74.0233,83.2077,137.912,100.407,94.0561,0.005108858,0.464175,20.3677,507.212,0.59953,0,0
2840,709.75,73.0802,83.7784,139.977,100.415,94.7574,0.004974219,0.464589,20.3675,506.901,0.53212,0,0
2850,712.25,74.2768,83.6596,136.956,100.458,94.3517,0.004944531,0.464051,20.3684,506.581,0.575403,0,0
2860,714.75,73.545,84.0601,140.173,100.449,93.838,0.004930699,0.463305,20.3686,506.281,0.624745,0,0
2870,717.25,73.4542,82.9522,141.319,100.468,95.0499,0.004865326,0.46272,20.3701,505.951,0.508687,0,0
2880,719.75,72.9198,83.1644,142.908,100.474,94.0865,0.004803837,0.46111,20.3733,505.18,0.602737,0,0
2890,722.25,73.0154,82.789,141.815,100.512,95.3872,0.00481027,0.460727,20.3732,504.88,0.480255,0,0
2900,724.75,72.8523,83.4769,133.172,100.507,93.8319,0.00492525,0.461886,20.3689,504.539,0.630647,0,0
2910,727.25,73.6661,83.7543,139.22,100.532,95.127,0.004983527,0.464852,20.3642,504.279,0.507082,0,0
2920,729.75,73.8435,84.1417,135.304,100.553,95.2137,0.005060636,0.466513,20.3624,503.929,0.500641,0,0
2930,732.25,73.8036,83.7011,136.118,100.599,95.1696,0.005222121,0.466261,20.3618,503.668,0.509105,0,0
2940,734.75,74.6426,84.3221,136.773,100.61,95.3344,0.005505269,0.46641,20.3616,503.338,0.494207,0,0
2950,737.25,73.9703,84.0866,140.028,100.621,94.7198,0.005581856,0.465979,20.3615,503.038,0.554568,0,0
2960,739.75,73.9142,84.1963,141.924,100.648,95.268,0.005350974,0.464421,20.3652,502.768,0.504098,0,0
2970,742.25,73.7489,83.5289,138.469,100.67,95.0814,0.005230711,0.461535,20.3693,502.457,0.524119,0,0
2980,744.75,74.5231,83.953,138.849,100.72,95.0474,0.005140165,0.457441,20.3742,502.147,0.531906,0,0
2990,747.25,73.6238,83.5343,134.537,100.729,94.2711,0.004948788,0.454217,20.3768,501.927,0.608027,0,0
3000,749.75,73.2842,83.4028,134.893,100.777,96.0129,0.004788341,0.452234,20.3777,501.607,0.444422,0,0
3010,752.25,73.4352,82.6485,138.474,100.777,96.3638,0.004598082,0.448567,20.3811,501.326,0.410909,0,0
3020,754.75,73.5055,82.5575,141.989,100.812,97.2846,0.004396248,0.4425053,20.3895,501.066,0.326828,0,0
3030,757.25,73.0876,81.3691,144.976,100.831,97.0879,0.004211007,0.434533,20.3988,500.776,0.347093,0,0
3040,759.75,72.1482,81.9669,140.228,100.878,98.0574,0.003782202,0.426103,20.4091,500.526,0.260188,0,0
3050,762.25,72.6546,81.2279,143.74,100.888,98.3678,0.003419864,0.418948,20.4159,500.365,0.232094,0,0
3060,764.75,72.0545,80.4619,137.817,100.932,98.9874,0.003292834,0.410239,20.4261,500.105,0.178557,0,0
3070,767.25,71.89888,79.4746,137.056,100.936,98.7785,0.003263862,0.399108,20.442,499.925,0.198244,0,0
3080,769.75,71.0376,78.9741,138.475,100.984,99.5173,0.003211684,0.388813,20.4528,498.884,0.134286,0,0
3090,772.25,70.5934,78.5402,143.859,101.008,99.6882,0.003144384,0.377574,20.4672,539.541,0.120678,0,0
3100,774.75,70.1211,78.1823,142.963,101.034,99.6197,0.003106133,0.363833,20.4905,497.663,0.129379,0,0
3110,777.25,69.8082,76.1304,142.237,101.063,100.296,0.003234809,0.348463,20.5108,497.473,0.0699466,0,0
3120,779.75,69.7271,75.9482,142.705,101.078,100.621,0.003605278,0.335151,20.5266,497.333,0.0415955,0,0
3130,782.25,68.6207,75.0109,147.623,101.12,101.1,0.00406932,0.322397,20.542,497.223,0.001824408,0,0
3140,784.75,67.6185,73.6457,141.916,101.136,101.777,0.004367821,0.310831,20.5539,497.062,-0.0579624,0,0
3150,787.25,67.6716,72.75,143.835,101.177,101.437,0.004498309,0.300336,20.5667,496.992,-0.0235239,0,0
3160,789.75,65.7759,72.2682,145.659,101.186,102.106,0.004673797,0.290629,20.5782,496.872,-0.0830903,0,0
3170,792.25,65.6012,71.4014,149.131,101.236,102.305,0.00463489,0.280113,20.5873,496.772,-0.0964227,0,0
3180,794.75,65.0467,70.2565,146.491,101.241,102.232,0.004307604,0.270818,20.5968,496.752,-0.0893854,0,0
3190,797.25,65.0804,68.958,147.805,101.278,102.083,0.003957387,0.26,20.6123,496.632,-0.0726706,0,0
3200,799.75,64.3525,67.8097,150.811,101.285,102.326,0.003777218,0.250212,20.6237,496.622,-0.0938424,0,0
3210,802.25,63.7013,67.2824,148.274,101.316,102.072,0.003813243,0.242037,20.6348,496.522,-0.0682779,0,0
3220,804.75,62.7552,66.6469,145.839,101.321,102.599,0.004063439,0.23428,20.643,496.472,-0.115034,0,0
3230,807.25,62.7891,66.1656,146.523,101.354,102.496,0.004297151,0.228667,20.6473,496.372,-0.102829,0,0
3240,809.75,62.6707,65.1091,146.696,101.367,102.823,0.004305667,0.223637,20.654,496.302,-0.130915,0,0
3250,812.25,61.3979,64.4306,147.326,101.41,102.619,0.004253861,0.218115,20.6605,496.252,-0.10878,0,0
3260,814.75,61.0219,63.7789,150.579,101.411,102.517,0.004236281,0.212617,20.6672,496.172,-0.099587,0,0
3270,817.25,60.1354,64.3447,147.551,101.417,102.702,0.004286582,0.207859,20.6728,496.122,-0.115534,0,0
3280,819.75,60.1998,64.0375,148.224,101.435,103.169,0.004348268,0.203589,20.6776,496.082,-0.155525,0,0
3290,822.25,60.1302,62.5442,149.456,101.449,102.912,0.004277847,0.20004,20.6795,496.022,-0.131326,0,0
3300,824.75,60.1886,62.4777,147.906,101.471,102.631,0.004144482,0.197659,20.6813,495.951,-0.10435,0,0
3310,827.25,59.6119,61.8486,146.177,101.461,103.094,0.004162208,0.196005,20.6821,495.911,-0.146499,0,0
3320,829.75,58.9239,61.7596,144.67,101.502,102.879,0.004338935,0.194315,20.6839,495.861,-0.123616,0,0
3330,832.25,58.7669,62.0335,149.344,101.484,102.679,0.004462461,0.192868,20.685,495.811,-0.107418,0,0
3340,834.75,58.4048,61.5483,149.382,101.519,102.773,0.004436149,0.191699,20.6867,495.761,-0.112638,0,0
3350,837.25,58.0088,61.0896,144.985,101.511,102.593,0.004517411,0.19024,20.6891,495.741,-0.09729711,0,0
3360,839.75,58.4136,60.4088,146.559,101.526,103.318,0.004812772,0.188836,20.6934,495.681,-0.160621,0,0
3370,842.25,57.8079,60.1272,152.646,101.531,102.733,0.00534941,0.189605,20.6929,575.414,-0.107972,0,0
3380,844.75,58.1921,59.8197,146.429,101.562,102.623,0.00567198,0.19232,20.6867,495.561,-0.0953074,0,0
3390,847.25,57.8844,60.1154,146.388,101.543,102.365,0.00575195,0.194164,20.6843,495.531,-0.0739502,0,0
3400,849.75,56.8619,60.3062,147.782,101.562,102.625,0.005912804,0.194942,20.6846,572.901,-0.0954892,0,0
3410,852.25,56.827,60.5272,148.663,101.569,102.662,0.006258817,0.197565,20.6793,497.123,-0.0982026,0,0
3420,854.75,57.4992,59.635,151.43,101.555,102.539,0.006475929,0.200464,20.6768,497.092,-0.08853934,0,0
3430,857.25,57.2789,59.1205,151.682,101.582,102.787,0.006600813,0.200901,20.6787,497.032,-0.108237,0,0
3440,859.75,56.4983,59.7195,151.537,101.558,103.035,0.006688511,0.199896,20.682,496.932,-0.132514,0,0
3450,862.25,56.5823,59.2502,148.134,101.575,102.383,0.006560644,0.198721,20.6851,496.902,-0.0726816,0,0
3460,864.75,55.7457,59.1991,149.182,101.566,102.724,0.006438421,0.197631,20.6845,496.872,-0.103954,0,0
3470,867.25,56.6349,58.0914,151.751,101.585,102.675,0.006430476,0.196418,20.6854,496.822,-0.0980119,0,0
3480,869.75,56.1457,58.4227,154.7,101.565,102.407,0.006286586,0.195272,20.6861,496.812,-0.0757489,0,0
3490,872.25,55.545,58.1509,146.201,101.583,102.695,0.006320118,0.194029,20.6889,496.762,-0.0999276,0,0
3500,874.75,55.048,58.7337,148.5,101.564,102.94,0.006397584,0.192782,20.6903,496.692,-0.123462,0,0
3510,877.25,54.8669,58.6309,147.879,101.577,102.521,0.006202552,0.19201,20.6908,496.622,-0.0848947,0,0
3520,879.75,55.0284,57.7808,152.131,101.558,102.691,0.006127155,0.190689,20.6916,496.572,-0.101836,0,0
3530,882.25,55.0336,57.6019,147.506,101.564,103.135,0.006050751,0.189462,20.6927,496.532,-0.140877,0,0
3540,884.75,54.6753,57.783,151.64,101.557,102.351,0.005980761,0.188599,20.6934,496.492,-0.0715019,0,0
3550,887.25,54.7213,57.4564,150.424,101.561,102.247,0.005935933,0.18764,20.6945,496.432,-0.0618425,0,0
3560,889.75,54.6139,57.087,148.882,101.55,102.213,0.00600589,0.186526,20.6963,496.412,-0.0596793,0,0
3570,892.25,54.4358,57.0918,153.931,101.543,102.712,0.006169816,0.185896,20.697,496.322,-0.105072,0,0
3580,894.75,54.2641,57.0235,148.893,101.549,102.752,0.006106045,0.1852808,20.6972,496.332,-0.108055,0,0
3590,897.25,54.3158,56.8748,146.314,101.541,102.304,0.005952234,0.18493,20.6973,496.332,-0.0687259,0,0
3600,899.75,54.09,56.6522,148.786,101.539,103.064,0.00580998,0.184563,20.6974,496.222,-0.136756,0,0
3610,902.25,54.0481,56.9788,149.538,101.532,102.592,0.005764816,0.184337,20.696,496.232,-0.0953062,0,0
3620,904.75,54.31,56.6391,144.751,101.537,102.856,0.005849298,0.184689,20.6954,496.162,-0.118495,0,0
3630,907.25,53.6623,56.81,146.979,101.524,102.517,0.005893238,0.185157,20.696,496.132,-0.089328,0,0
3640,909.75,53.4253,56.1491,151.94,101.532,102.405,0.005946662,0.185265,20.6979,496.062,-0.07855472,0,0
3650,912.25,53.7413,56.3203,149.326,101.53,102.591,0.006061534,0.184812,20.6995,496.022,-0.0954019,0,0
3660,914.75,53.3351,56.4422,151.769,101.524,102.492,0.006072924,0.184755,20.7,495.971,-0.0870296,0,0
3670,917.25,53.3903,56.5017,155.197,101.519,102.478,0.005887507,0.185125,20.6983,495.901,-0.08628758,0,0
3680,919.75,52.9968,56.2857,146.609,101.528,102.451,0.005743185,0.185801,20.6973,495.811,-0.0830158,0,0
3690,922.25,53.2767,55.535,150.797,101.51,102.436,0.005913199,0.186112,20.6959,495.821,-0.0833381,0,0
3700,924.75,53.2106,55.8803,150.627,101.515,102.519,0.006043949,0.186307,20.6967,495.801,-0.0903376,0,0
3710,927.25,52.2089,56.1036,148.841,101.516,102.248,0.005982513,0.186253,20.6975,495.781,-0.065949,0,0
3720,929.75,52.3081,56.1879,150.371,101.507,102.343,0.005987575,0.18606,20.6978,495.771,-0.0753199,0,0
3730,932.25,53.138,55.305,151.57,101.52,102.565,0.006110835,0.185447,20.6986,495.701,-0.0940198,0,0
3740,934.75,52.8162,55.3434,150.527,101.511,102.248,0.006054762,0.184305,20.7007,495.651,-0.0663589,0,0
3750,937.25,52.5565,55.3849,151.341,101.515,102.777,0.006037189,0.182831,20.7021,495.601,-0.113365,0,0
3760,939.75,52.4246,55.4581,150.753,101.501,102.344,0.005998716,0.181973,20.7034,495.601,-0.0759326,0,0
3770,942.25,52.1147,55.1473,150.298,101.518,102.582,0.006014132,0.181293,20.7039,495.541,-0.0956655,0,0
3780,944.75,52.8113,54.7251,148.342,101.512,102.964,0.006283501,0.180805,20.7041,495.481,-0.130316,0,0
3790,947.25,52.1591,55.308,153.119,101.514,102.414,0.006333224,0.180408,20.7041,495.441,-0.081049,0,0
3800,949.75,52.4814,55.1315,146.7,101.498,102.781,0.00624557,0.179853,20.7058,495.401,-0.115263,0,0
3810,952.25,52.0036,54.8329,150.974,101.502,102.324,0.006197573,0.179419,20.7068,495.351,-0.074039,0,0
3820,954.75,51.8787,55.0075,150.959,101.489,102.612,0.006290031,0.179256,20.7071,495.301,-0.100905,0,0
3830,957.25,51.9211,54.3892,150.49,101.492,102.34,0.006403502,0.178925,20.7076,495.271,-0.0763517,0,0
3840,959.75,51.5665,54.3862,151.353,101.484,102.384,0.006413257,0.178593,20.7081,495.191,-0.0810882,0,0
3850,962.25,51.4134,55.1182,150.133,101.478,102.244,0.00629868,0.178318,20.7095,495.171,-0.0690135,0,0
3860,964.75,51.5616,54.8046,151.321,101.475,102.193,0.006119912,0.177811,20.7115,495.131,-0.0646391,0,0
3870,967.25,51.1447,54.3959,153.841,101.455,102.628,0.006242538,0.177535,20.7111,495.121,-0.105449,0,0
3880,969.75,51.0698,54.1987,155.96,101.473,102.251,0.006586053,0.177574,20.711,495.081,-0.0700975,0,0
3890,972.25,51.4429,54.4531,157.756,101.449,102.051,0.006733356,0.177156,20.7121,495.051,-0.0542667,0,0
3900,974.75,50.6494,54.0787,149.909,101.443,102.195,0.006598032,0.176835,20.7124,494.991,-0.0677743,0,0
3910,977.25,51.1795,54.0677,148.695,101.42,102.353,0.006466106,0.176602,20.7126,494.961,-0.0839745,0,0
[...]
4470,1117.25,47.4906,52.1179,152.551,100.96,101.768,0.008795308,0.170045,20.724,492.959,-0.0731227,0,0
4480,1119.75,47.1678,51.2601,151.72,100.949,101.32,0.008875183,0.170169,20.723,492.919,-0.0336728,0,0
4490,1122.25,47.4264,51.0259,155.177,100.936,101.671,0.009087919,0.170307,20.7211,492.889,-0.0665963,0,0
4500,1124.75,46.7014,50.8645,151.023,100.953,101.52,0.009197253,0.170323,20.7216,492.829,-0.0514496,0,0
4510,1127.25,47.2745,51.0769,155.094,100.932,101.898,0.009072948,0.170132,20.7225,492.839,-0.0873681,0,0
4520,1129.75,47.0577,51.0292,150.692,100.933,101.657,0.009011691,0.169895,20.7229,492.799,-0.06561406,0,0
4530,1132.25,47.1793,51.0057,153.041,100.929,101.629,0.008994562,0.169816,20.7231,492.749,-0.0634714,0,0
4540,1134.75,46.9955,50.6213,151.404,100.926,101.433,0.008961727,0.169435,20.7231,492.688,-0.0459522,0,0
4550,1137.25,46.0509,51.32,150.212,100.911,101.519,0.008925683,0.169356,20.7232,492.658,-0.0551046,0,0
4560,1139.75,47.0094,50.7668,151.832,100.911,101.335,0.008963615,0.169354,20.7232,492.618,-0.03852677,0,0
4570,1142.25,47.0826,51.1575,154.025,100.903,101.539,0.009042259,0.169389,20.7238,492.608,-0.05764211,0,0
4580,1144.75,46.9575,50.7297,149.976,100.9,101.48,0.00917815,0.169218,20.7256,492.568,-0.0525866,0,0
4590,1147.25,46.9591,50.2317,155.684,100.911,101.609,0.009183506,0.169095,20.7265,492.538,-0.06324289,0,0
4600,1149.75,46.7159,50.1798,151.752,100.899,101.667,0.009224766,0.169143,20.7255,492.478,-0.0695657,0,0
4610,1152.25,47.2437,50.9428,152.284,100.9,101.589,0.009345388,0.169212,20.7249,492.468,-0.06244,0,0
4620,1154.75,46.9915,50.5686,152.248,100.911,101.849,0.009500448,0.169289,20.7247,492.438,-0.0848489,0,0
4630,1157.25,46.4181,51.4953,155.194,100.939,101.556,0.009722996,0.169206,20.7259,492.418,-0.0559311,0,0
4640,1159.75,46.8988,50.7761,155.957,100.945,101.404,0.009784789,0.169335,20.7266,492.428,-0.0416217,0,0
4650,1162.25,47.0216,50.3547,154.272,100.956,101.768,0.009735316,0.169135,20.7268,492.378,-0.0734507,0,0
4660,1164.75,46.8946,50.0624,153.48,100.972,101.735,0.00985727,0.168961,20.7263,492.308,-0.0691011,0,0
4670,1167.25,46.6194,50.5996,154.436,101.01,101.969,0.010032,0.168986,20.7238,492.308,-0.0866702,0,0
4680,1169.75,46.8255,51.1583,152.036,100.995,101.469,0.0100758,0.169205,20.7228,492.278,-0.0429152,0,0
4690,1172.25,46.7268,51.2239,149.291,101.025,101.695,0.01013662,0.169351,20.7233,492.188,-0.0606565,0,0
4700,1174.75,46.7975,50.8718,154.248,101.032,102.032,0.0101495,0.169494,20.7242,492.168,-0.0903503,0,0
4710,1177.25,45.8879,50.7394,151.55,101.052,101.759,0.0102744,0.169599,20.7245,492.138,-0.0639032,0,0
4720,1179.75,46.485,50.7878,150.637,101.052,101.732,0.0103133,0.169537,20.7241,492.108,-0.061554,0,0
4730,1182.25,46.5428,50.5896,153.664,101.058,101.77,0.0101674,0.169388,20.7249,492.038,-0.0644314,0,0
4740,1184.75,45.9529,50.677,152.572,101.069,101.623,0.0100647,0.169169,20.7272,492.018,-0.0501434,0,0
4750,1187.25,46.4619,50.8604,151.899,101.091,101.788,0.009955199,0.168394,20.7295,492.008,-0.06303747,0,0
4760,1189.75,46.1625,50.24,151.735,101.084,101.823,0.009886689,0.167594,20.7318,491.978,-0.0668646,0,0
4770,1192.25,46.7428,50.6545,151.915,101.071,101.663,0.0100445,0.167029,20.7333,491.938,-0.0535724,0,0
4780,1194.75,46.3845,50.56,153.961,101.071,101.81,0.0102485,0.166697,20.7338,491.908,-0.0668365,0,0
4790,1197.25,46.462,50.3746,152.681,101.059,101.797,0.01042337,0.166736,20.734,491.888,-0.0667709,0,0
4800,1199.75,46.3822,50.258,154.616,101.063,101.709,0.0104652,0.167266,20.7325,491.838,-0.0584853,0,0
4810,1202.25,46.0895,50.1509,153.097,101.053,102.109,0.0104454,0.167599,20.7305,491.818,-0.0954538,0,0
4820,1204.75,46.047,50.5122,150.905,101.058,101.701,0.0104789,0.167698,20.7299,491.798,-0.0582024,0,0
4830,1207.25,46.3963,50.5071,153.469,101.042,101.446,0.0105006,0.167721,20.7296,491.748,-0.0366282,0,0
4840,1209.75,46.49,50.5355,152.75,101.036,101.766,0.0105148,0.167536,20.7309,491.708,-0.066041,0,0
4850,1212.25,46.5477,50.4172,153.352,101.014,101.691,0.0103986,0.167285,20.7324,491.688,-0.0613387,0,0
4860,1214.75,46.4439,50.1836,147.694,101.002,101.649,0.01038,0.166743,20.7334,491.658,-0.0586257,0,0
4870,1217.25,45.5217,50.2858,152.504,100.977,101.47,0.0104057,0.166553,20.7328,491.678,-0.0447001,0,0
4880,1219.75,45.8434,50.2215,152.375,100.996,101.688,0.0105062,0.166957,20.732,491.618,-0.0626289,0,0
4890,1222.25,46.2267,50.4263,150.384,100.981,101.605,0.0105785,0.16715,20.7318,491.527,-0.0565524,0,0
4900,1224.75,46.5088,49.815,154.57,100.967,101.793,0.01058819,0.167241,20.7317,491.507,-0.0747177,0,0
4910,1227.25,46.2422,50.0977,153.674,100.974,102.162,0.0105365,0.167292,20.7316,491.507,-0.107335,0,0
4920,1229.75,46.0172,50.4012,154.374,100.954,101.481,,0.166841,,491.447,-0.047807,0,0
4930,1232.25,45.9249,50.0253,156.383,100.96,101.516,,,,491.407,-0.0503997,0,0
4940,1234.75,46.1307,50.572,153.71,100.95,101.781,,,,491.397,-0.0752482,0,0
4950,1237.25,45.9059,50.1276,149.686,100.946,101.412,,,,491.357,-0.0422354,0,0
4959,1239.5,45.5077,50.3458,154.806,100.927,101.563,,,,491.347,-0.0576669,0,0
,,,,,,,,,,,,,
,,,,,,,,,,,,,
,,,,,,,,,,,,,
,,,,,,,,,,,,,
,,,,,,,,,,,,,
,,,,,,,,,,,,,
,,,,,,,,,,,,,
,,,,,,,,,,,,,
,,,,,,,,,,,,,
,,,,,,,,,,,,,
,,,,,,,,,,,,,
,,,,,,,,,,,,,
,,,,,,,,,,,,,
,,,,,,,,,,,,,
,,,,,,,,,,,,,
,,,,,,,,,,,,,
,,,,,,,,,,,,,
,,,,,,,,,,,,,
,,,,,,,,,,,,,
,,,,,,,,,,,,,
,,,,,,,,,,,,,
,,,,,,,,,,,,,
,,,,,,,,,,,,,
,,,,,,,,,,,,,
,,,,,,,,,,,,,
,,,,,,,,,,,,,
,,,,,,,,,,,,,
,,,,,,,,,,,,,
,,,,,,,,,,,,,
,,,,,,,,,,,,,
,,,,,,,,,,,,,
,,,,,,,,,,,,,
,,,,,,,,,,,,,
,,,,,,,,,,,,,
,,,,,,,,,,,,,
,,,,,,,,,,,,,
,,,,,,,,,,,,,
,,,,,,,,,,,,,
,,,,,,,,,,,,,
,,,,,,,,,,,,,
,,,,,,,,,,,,,
,,,,,,,,,,,,,
,,,,,,,,,,,,,
,,,,,,,,,,,,,
,,,,,,,,,,,,,
,,,,,,,,,,,,,
,,,,,,,,,,,,,
,,,,,,,,,,,,,
,,,,,,,,,,,,,
,,,,,,,,,,,,,
,,,,,,,,,,,,,
,,,,,,,,,,,,,
,,,,,,,,,,,,,
,,,,,,,,,,,,,
,,,,,,,,,,,,,
,,,,,,,,,,,,,
,,,,,,,,,,,,,
,,,,,,,,,,,,,
,,,,,,,,,,,,,
,,,,,,,,,,,,,
,,,,,,,,,,,,,
,,,,,,,,,,,,,
,,,,,,,,,,,,,
,,,,,,,,,,,,,
,,,,,,,,,,,,,
,,,,,,,,,,,,,
,,,,,,,,,,,,,
,,,,,,,,,,,,,
,,,,,,,,,,,,,
,,,,,,,,,,,,,
,,,,,,,,,,,,,
,,,,,,,,,,,,,
,,,,,,,,,,,,,
,,,,,,,,,,,,,
,,,,,,,,,,,,,
,,,,,,,,,,,,,
,,,,,,,,,,,,,
,,,,,,,,,,,,,
,,,,,,,,,,,,,
,,,,,,,,,,,,,
,,,,,,,,,,,,,
,,,,,,,,,,,,,
,,,,,,,,,,,,,
,,,,,,,,,,,,,
,,,,,,,,,,,,,
,,,,,,,,,,,,,
,,,,,,,,,,,,,
,,,,,,,,,,,,,
,,,,,,,,,,,,,
,,,,,,,,,,,,,
,,,,,,,,,,,,,
,,,,,,,,,,,,,
,,,,,,,,,,,,,
,,,,,,,,,,,,,
,,,,,,,,,,,,,
,,,,,,,,,,,,,
,,,,,,,,,,,,,
,,,,,,,,,,,,,
,,,,,,,,,,,,,
,,,,,,,,,,,,,
,,,,,,,,,,,,,
,,,,,,,,,,,,,
,,,,,,,,,,,,,
,,,,,,,,,,,,,
,,,,,,,,,,,,,
,,,,,,,,,,,,,
,,,,,,,,,,,,,
,,,,,,,,,,,,,
,,,,,,,,,,,,,
,,,,,,,,,,,,,
,,,,,,,,,,,,,
,,,,,,,,,,,,,
,,,,,,,,,,,,,
,,,,,,,,,,,,,
,,,,,,,,,,,,,
,,,,,,,,,,,,,
,,,,,,,,,,,,,
,,,,,,,,,,,,,
,,,,,,,,,,,,,
,,,,,,,,,,,,,
,,,,,,,,,,,,,
,,,,,,,,,,,,,
,,,,,,,,,,,,,
,,,,,,,,,,,,,
,,,,,,,,,,,,,
,,,,,,,,,,,,,
,,,,,,,,,,,,,
,,,,,,,,,,,,,
,,,,,,,,,,,,,
,,,,,,,,,,,,,
,,,,,,,,,,,,,
,,,,,,,,,,,,,
,,,,,,,,,,,,,
,,,,,,,,,,,,,
,,,,,,,,,,,,,
,,,,,,,,,,,,,
,,,,,,,,,,,,,
,,,,,,,,,,,,,
,,,,,,,,,,,,,
,,,,,,,,,,,,,
,,,,,,,,,,,,,
,,,,,,,,,,,,,
,,,,,,,,,,,,,
,,,,,,,,,,,,,
,,,,,,,,,,,,,
,,,,,,,,,,,,,
,,,,,,,,,,,,,
,,,,,,,,,,,,,
,,,,,,,,,,,,,
,,,,,,,,,,,,,
,,,,,,,,,,,,,
,,,,,,,,,,,,,
,,,,,,,,,,,,,
,,,,,,,,,,,,,
,,,,,,,,,,,,,
,,,,,,,,,,,,,
,,,,,,,,,,,,,
,,,,,,,,,,,,,
,,,,,,,,,,,,,
,,,,,,,,,,,,,
,,,,,,,,,,,,,
,,,,,,,,,,,,,
,,,,,,,,,,,,,
,,,,,,,,,,,,,
,,,,,,,,,,,,,
,,,,,,,,,,,,,
,,,,,,,,,,,,,
,,,,,,,,,,,,,
,,,,,,,,,,,,,
,,,,,,,,,,,,,
,,,,,,,,,,,,,
,,,,,,,,,,,,,
,,,,,,,,,,,,,
,,,,,,,,,,,,,
,,,,,,,,,,,,,
,,,,,,,,,,,,,
,,,,,,,,,,,,,
,,,,,,,,,,,,,
,,,,,,,,,,,,,
,,,,,,,,,,,,,
,,,,,,,,,,,,,
,,,,,,,,,,,,,
,,,,,,,,,,,,,
,,,,,,,,,,,,,
,,,,,,,,,,,,,
,,,,,,,,,,,,,
,,,,,,,,,,,,,
,,,,,,,,,,,,,
,,,,,,,,,,,,,
,,,,,,,,,,,,,
,,,,,,,,,,,,,
,,,,,,,,,,,,,
,,,,,,,,,,,,,
,,,,,,,,,,,,,
,,,,,,,,,,,,,
,,,,,,,,,,,,,
,,,,,,,,,,,,,
,,,,,,,,,,,,,
,,,,,,,,,,,,,
,,,,,,,,,,,,,
,,,,,,,,,,,,,
,,,,,,,,,,,,,
,,,,,,,,,,,,,
,,,,,,,,,,,,,
,,,,,,,,,,,,,
,,,,,,,,,,,,,
,,,,,,,,,,,,,
,,,,,,,,,,,,,
,,,,,,,,,,,,,
,,,,,,,,,,,,,
,,,,,,,,,,,,,
,,,,,,,,,,,,,
,,,,,,,,,,,,,
,,,,,,,,,,,,,
,,,,,,,,,,,,,
,,,,,,,,,,,,,
,,,,,,,,,,,,,
,,,,,,,,,,,,,
,,,,,,,,,,,,,
,,,,,,,,,,,,,
,,,,,,,,,,,,,
,,,,,,,,,,,,,
,,,,,,,,,,,,,
,,,,,,,,,,,,,
,,,,,,,,,,,,,
,,,,,,,,,,,,,
,,,,,,,,,,,,,
,,,,,,,,,,,,,
,,,,,,,,,,,,,
,,,,,,,,,,,,,
,,,,,,,,,,,,,
,,,,,,,,,,,,,
,,,,,,,,,,,,,
,,,,,,,,,,,,,
,,,,,,,,,,,,,
,,,,,,,,,,,,,
,,,,,,,,,,,,,
,,,,,,,,,,,,,
,,,,,,,,,,,,,
,,,,,,,,,,,,,
,,,,,,,,,,,,,
,,,,,,,,,,,,,
,,,,,,,,,,,,,
,,,,,,,,,,,,,
,,,,,,,,,,,,,
,,,,,,,,,,,,,
,,,,,,,,,,,,,
,,,,,,,,,,,,,
,,,,,,,,,,,,,
,,,,,,,,,,,,,
,,,,,,,,,,,,,
,,,,,,,,,,,,,
,,,,,,,,,,,,,
,,,,,,,,,,,,,
,,,,,,,,,,,,,
,,,,,,,,,,,,,
,,,,,,,,,,,,,
,,,,,,,,,,,,,
,,,,,,,,,,,,,
,,,,,,,,,,,,,
,,,,,,,,,,,,,
,,,,,,,,,,,,,
,,,,,,,,,,,,,
,,,,,,,,,,,,,
,,,,,,,,,,,,,
,,,,,,,,,,,,,
,,,,,,,,,,,,,
,,,,,,,,,,,,,
,,,,,,,,,,,,,
,,,,,,,,,,,,,
,,,,,,,,,,,,,
,,,,,,,,,,,,,
,,,,,,,,,,,,,
,,,,,,,,,,,,,
,,,,,,,,,,,,,
,,,,,,,,,,,,,
,,,,,,,,,,,,,
,,,,,,,,,,,,,
,,,,,,,,,,,,,
,,,,,,,,,,,,,
,,,,,,,,,,,,,
,,,,,,,,,,,,,
,,,,,,,,,,,,,
,,,,,,,,,,,,,
,,,,,,,,,,,,,
,,,,,,,,,,,,,
,,,,,,,,,,,,,
,,,,,,,,,,,,,
,,,,,,,,,,,,,
,,,,,,,,,,,,,
,,,,,,,,,,,,,
,,,,,,,,,,,,,
,,,,,,,,,,,,,
,,,,,,,,,,,,,
,,,,,,,,,,,,,
,,,,,,,,,,,,,
,,,,,,,,,,,,,
,,,,,,,,,,,,,
,,,,,,,,,,,,,
,,,,,,,,,,,,,
,,,,,,,,,,,,,
,,,,,,,,,,,,,
,,,,,,,,,,,,,
,,,,,,,,,,,,,
,,,,,,,,,,,,,
,,,,,,,,,,,,,
,,,,,,,,,,,,,
,,,,,,,,,,,,,
,,,,,,,,,,,,,
,,,,,,,,,,,,,
,,,,,,,,,,,,,
,,,,,,,,,,,,,
,,,,,,,,,,,,,
,,,,,,,,,,,,,
,,,,,,,,,,,,,
,,,,,,,,,,,,,
,,,,,,,,,,,,,
,,,,,,,,,,,,,
,,,,,,,,,,,,,
,,,,,,,,,,,,,
,,,,,,,,,,,,,
,,,,,,,,,,,,,
,,,,,,,,,,,,,
,,,,,,,,,,,,,
,,,,,,,,,,,,,
,,,,,,,,,,,,,
,,,,,,,,,,,,,
,,,,,,,,,,,,,
,,,,,,,,,,,,,
,,,,,,,,,,,,,
,,,,,,,,,,,,,
,,,,,,,,,,,,,
,,,,,,,,,,,,,
,,,,,,,,,,,,,
,,,,,,,,,,,,,
,,,,,,,,,,,,,
,,,,,,,,,,,,,
,,,,,,,,,,,,,
,,,,,,,,,,,,,
,,,,,,,,,,,,,
,,,,,,,,,,,,,
,,,,,,,,,,,,,
,,,,,,,,,,,,,
,,,,,,,,,,,,,
,,,,,,,,,,,,,
,,,,,,,,,,,,,
,,,,,,,,,,,,,
,,,,,,,,,,,,,
,,,,,,,,,,,,,
,,,,,,,,,,,,,
,,,,,,,,,,,,,
,,,,,,,,,,,,,
,,,,,,,,,,,,,
,,,,,,,,,,,,,
,,,,,,,,,,,,,
,,,,,,,,,,,,,
,,,,,,,,,,,,,
,,,,,,,,,,,,,
,,,,,,,,,,,,,
,,,,,,,,,,,,,
,,,,,,,,,,,,,
,,,,,,,,,,,,,
,,,,,,,,,,,,,
,,,,,,,,,,,,,
,,,,,,,,,,,,,
,,,,,,,,,,,,,
,,,,,,,,,,,,,
,,,,,,,,,,,,,
,,,,,,,,,,,,,
,,,,,,,,,,,,,
,,,,,,,,,,,,,
,,,,,,,,,,,,,
,,,,,,,,,,,,,
,,,,,,,,,,,,,
,,,,,,,,,,,,,
,,,,,,,,,,,,,
,,,,,,,,,,,,,
,,,,,,,,,,,,,
,,,,,,,,,,,,,
,,,,,,,,,,,,,
,,,,,,,,,,,,,
,,,,,,,,,,,,,
,,,,,,,,,,,,,
,,,,,,,,,,,,,
,,,,,,,,,,,,,
,,,,,,,,,,,,,
,,,,,,,,,,,,,
,,,,,,,,,,,,,
,,,,,,,,,,,,,
,,,,,,,,,,,,,
,,,,,,,,,,,,,
,,,,,,,,,,,,,
,,,,,,,,,,,,,
,,,,,,,,,,,,,
,,,,,,,,,,,,,
,,,,,,,,,,,,,
,,,,,,,,,,,,,
,,,,,,,,,,,,,
,,,,,,,,,,,,,
,,,,,,,,,,,,,
,,,,,,,,,,,,,
,,,,,,,,,,,,,
,,,,,,,,,,,,,
,,,,,,,,,,,,,
,,,,,,,,,,,,,
,,,,,,,,,,,,,
,,,,,,,,,,,,,
,,,,,,,,,,,,,
,,,,,,,,,,,,,
,,,,,,,,,,,,,
,,,,,,,,,,,,,
,,,,,,,,,,,,,
,,,,,,,,,,,,,
,,,,,,,,,,,,,
,,,,,,,,,,,,,
,,,,,,,,,,,,,
,,,,,,,,,,,,,
,,,,,,,,,,,,,
,,,,,,,,,,,,,
,,,,,,,,,,,,,
,,,,,,,,,,,,,
,,,,,,,,,,,,,
,,,,,,,,,,,,,
,,,,,,,,,,,,,
,,,,,,,,,,,,,
,,,,,,,,,,,,,
,,,,,,,,,,,,,
,,,,,,,,,,,,,
,,,,,,,,,,,,,
,,,,,,,,,,,,,
,,,,,,,,,,,,,
,,,,,,,,,,,,,
,,,,,,,,,,,,,
,,,,,,,,,,,,,
,,,,,,,,,,,,,
,,,,,,,,,,,,,
,,,,,,,,,,,,,
,,,,,,,,,,,,,
,,,,,,,,,,,,,
,,,,,,,,,,,,,
,,,,,,,,,,,,,
,,,,,,,,,,,,,
,,,,,,,,,,,,,
,,,,,,,,,,,,,
,,,,,,,,,,,,,
,,,,,,,,,,,,,
,,,,,,,,,,,,,
,,,,,,,,,,,,,
,,,,,,,,,,,,,
,,,,,,,,,,,,,
,,,,,,,,,,,,,
,,,,,,,,,,,,,
,,,,,,,,,,,,,
,,,,,,,,,,,,,
,,,,,,,,,,,,,
,,,,,,,,,,,,,
,,,,,,,,,,,,,
,,,,,,,,,,,,,
,,,,,,,,,,,,,
,,,,,,,,,,,,,
,,,,,,,,,,,,,
,,,,,,,,,,,,,
,,,,,,,,,,,,,
,,,,,,,,,,,,,
,,,,,,,,,,,,,
,,,,,,,,,,,,,
,,,,,,,,,,,,,
,,,,,,,,,,,,,
,,,,,,,,,,,,,
,,,,,,,,,,,,,
,,,,,,,,,,,,,
,,,,,,,,,,,,,
,,,,,,,,,,,,,
,,,,,,,,,,,,,
,,,,,,,,,,,,,
,,,,,,,,,,,,,
,,,,,,,,,,,,,
,,,,,,,,,,,,,
,,,,,,,,,,,,,
,,,,,,,,,,,,,
,,,,,,,,,,,,,
,,,,,,,,,,,,,
,,,,,,,,,,,,,
,,,,,,,,,,,,,
,,,,,,,,,,,,,
,,,,,,,,,,,,,
,,,,,,,,,,,,,
,,,,,,,,,,,,,
,,,,,,,,,,,,,
,,,,,,,,,,,,,
,,,,,,,,,,,,,
,,,,,,,,,,,,,
,,,,,,,,,,,,,
,,,,,,,,,,,,,
,,,,,,,,,,,,,
,,,,,,,,,,,,,
,,,,,,,,,,,,,
,,,,,,,,,,,,,
,,,,,,,,,,,,,
,,,,,,,,,,,,,
,,,,,,,,,,,,,
,,,,,,,,,,,,,
,,,,,,,,,,,,,
,,,,,,,,,,,,,
,,,,,,,,,,,,,
,,,,,,,,,,,,,
,,,,,,,,,,,,,
,,,,,,,,,,,,,
,,,,,,,,,,,,,
,,,,,,,,,,,,,
,,,,,,,,,,,,,
,,,,,,,,,,,,,
,,,,,,,,,,,,,
,,,,,,,,,,,,,
,,,,,,,,,,,,,
,,,,,,,,,,,,,
,,,,,,,,,,,,,
,,,,,,,,,,,,,
,,,,,,,,,,,,,
,,,,,,,,,,,,,
,,,,,,,,,,,,,
,,,,,,,,,,,,,
,,,,,,,,,,,,,
,,,,,,,,,,,,,
,,,,,,,,,,,,,
,,,,,,,,,,,,,
,,,,,,,,,,,,,
,,,,,,,,,,,,,
,,,,,,,,,,,,,
,,,,,,,,,,,,,
,,,,,,,,,,,,,
,,,,,,,,,,,,,
,,,,,,,,,,,,,
,,,,,,,,,,,,,
,,,,,,,,,,,,,
,,,,,,,,,,,,,
,,,,,,,,,,,,,
,,,,,,,,,,,,,
,,,,,,,,,,,,,
,,,,,,,,,,,,,
,,,,,,,,,,,,,
,,,,,,,,,,,,,
,,,,,,,,,,,,,
,,,,,,,,,,,,,
,,,,,,,,,,,,,
,,,,,,,,,,,,,
,,,,,,,,,,,,,
,,,,,,,,,,,,,
,,,,,,,,,,,,,
,,,,,,,,,,,,,
,,,,,,,,,,,,,
,,,,,,,,,,,,,
,,,,,,,,,,,,,
,,,,,,,,,,,,,
,,,,,,,,,,,,,
,,,,,,,,,,,,,
,,,,,,,,,,,,,
,,,,,,,,,,,,,
,,,,,,,,,,,,,
,,,,,,,,,,,,,
,,,,,,,,,,,,,
,,,,,,,,,,,,,
,,,,,,,,,,,,,
,,,,,,,,,,,,,
,,,,,,,,,,,,,
,,,,,,,,,,,,,
,,,,,,,,,,,,,
,,,,,,,,,,,,,
,,,,,,,,,,,,,
,,,,,,,,,,,,,
,,,,,,,,,,,,,
,,,,,,,,,,,,,
,,,,,,,,,,,,,
,,,,,,,,,,,,,
,,,,,,,,,,,,,
,,,,,,,,,,,,,
,,,,,,,,,,,,,
,,,,,,,,,,,,,
,,,,,,,,,,,,,
,,,,,,,,,,,,,
,,,,,,,,,,,,,
,,,,,,,,,,,,,
,,,,,,,,,,,,,
,,,,,,,,,,,,,
,,,,,,,,,,,,,
,,,,,,,,,,,,,
,,,,,,,,,,,,,
,,,,,,,,,,,,,
,,,,,,,,,,,,,
,,,,,,,,,,,,,
,,,,,,,,,,,,,
,,,,,,,,,,,,,
,,,,,,,,,,,,,
,,,,,,,,,,,,,
,,,,,,,,,,,,,
,,,,,,,,,,,,,
,,,,,,,,,,,,,
,,,,,,,,,,,,,
,,,,,,,,,,,,,
,,,,,,,,,,,,,
,,,,,,,,,,,,,
,,,,,,,,,,,,,
,,,,,,,,,,,,,
,,,,,,,,,,,,,
,,,,,,,,,,,,,
,,,,,,,,,,,,,
,,,,,,,,,,,,,
,,,,,,,,,,,,,
,,,,,,,,,,,,,
,,,,,,,,,,,,,
,,,,,,,,,,,,,
,,,,,,,,,,,,,
,,,,,,,,,,,,,
,,,,,,,,,,,,,
,,,,,,,,,,,,,
,,,,,,,,,,,,,
,,,,,,,,,,,,,
,,,,,,,,,,,,,
,,,,,,,,,,,,,
,,,,,,,,,,,,,
,,,,,,,,,,,,,
,,,,,,,,,,,,,
,,,,,,,,,,,,,
,,,,,,,,,,,,,
,,,,,,,,,,,,,
,,,,,,,,,,,,,
,,,,,,,,,,,,,
,,,,,,,,,,,,,
,,,,,,,,,,,,,
,,,,,,,,,,,,,
,,,,,,,,,,,,,
,,,,,,,,,,,,,
,,,,,,,,,,,,,
,,,,,,,,,,,,,
,,,,,,,,,,,,,
,,,,,,,,,,,,,
,,,,,,,,,,,,,
,,,,,,,,,,,,,
,,,,,,,,,,,,,
,,,,,,,,,,,,,
,,,,,,,,,,,,,
,,,,,,,,,,,,,
,,,,,,,,,,,,,
,,,,,,,,,,,,,
,,,,,,,,,,,,,
,,,,,,,,,,,,,
,,,,,,,,,,,,,
,,,,,,,,,,,,,
,,,,,,,,,,,,,
,,,,,,,,,,,,,
,,,,,,,,,,,,,
,,,,,,,,,,,,,
,,,,,,,,,,,,,
,,,,,,,,,,,,,
,,,,,,,,,,,,,
,,,,,,,,,,,,,
,,,,,,,,,,,,,
,,,,,,,,,,,,,
,,,,,,,,,,,,,
,,,,,,,,,,,,,
,,,,,,,,,,,,,
,,,,,,,,,,,,,
,,,,,,,,,,,,,
,,,,,,,,,,,,,
,,,,,,,,,,,,,
,,,,,,,,,,,,,
,,,,,,,,,,,,,
,,,,,,,,,,,,,
,,,,,,,,,,,,,
,,,,,,,,,,,,,
,,,,,,,,,,,,,
,,,,,,,,,,,,,
,,,,,,,,,,,,,
,,,,,,,,,,,,,
,,,,,,,,,,,,,
,,,,,,,,,,,,,
,,,,,,,,,,,,,
,,,,,,,,,,,,,
,,,,,,,,,,,,,
,,,,,,,,,,,,,
,,,,,,,,,,,,,
,,,,,,,,,,,,,
,,,,,,,,,,,,,
,,,,,,,,,,,,,
,,,,,,,,,,,,,
,,,,,,,,,,,,,
,,,,,,,,,,,,,
,,,,,,,,,,,,,
,,,,,,,,,,,,,
,,,,,,,,,,,,,
,,,,,,,,,,,,,
,,,,,,,,,,,,,
,,,,,,,,,,,,,
,,,,,,,,,,,,,
,,,,,,,,,,,,,
,,,,,,,,,,,,,
,,,,,,,,,,,,,
,,,,,,,,,,,,,
,,,,,,,,,,,,,
,,,,,,,,,,,,,
,,,,,,,,,,,,,
,,,,,,,,,,,,,
,,,,,,,,,,,,,
,,,,,,,,,,,,,
,,,,,,,,,,,,,
,,,,,,,,,,,,,
,,,,,,,,,,,,,
,,,,,,,,,,,,,
,,,,,,,,,,,,,
,,,,,,,,,,,,,
,,,,,,,,,,,,,
,,,,,,,,,,,,,
,,,,,,,,,,,,,
,,,,,,,,,,,,,
,,,,,,,,,,,,,
,,,,,,,,,,,,,
,,,,,,,,,,,,,
,,,,,,,,,,,,,
,,,,,,,,,,,,,
,,,,,,,,,,,,,
,,,,,,,,,,,,,
,,,,,,,,,,,,,
,,,,,,,,,,,,,
,,,,,,,,,,,,,
,,,,,,,,,,,,,
,,,,,,,,,,,,,
,,,,,,,,,,,,,
,,,,,,,,,,,,,
,,,,,,,,,,,,,
,,,,,,,,,,,,,
,,,,,,,,,,,,,
,,,,,,,,,,,,,
,,,,,,,,,,,,,
,,,,,,,,,,,,,
,,,,,,,,,,,,,
,,,,,,,,,,,,,
,,,,,,,,,,,,,
,,,,,,,,,,,,,
,,,,,,,,,,,,,
,,,,,,,,,,,,,
,,,,,,,,,,,,,
,,,,,,,,,,,,,
,,,,,,,,,,,,,
,,,,,,,,,,,,,
,,,,,,,,,,,,,
,,,,,,,,,,,,,
,,,,,,,,,,,,,
,,,,,,,,,,,,,
,,,,,,,,,,,,,
,,,,,,,,,,,,,
,,,,,,,,,,,,,
,,,,,,,,,,,,,
,,,,,,,,,,,,,
,,,,,,,,,,,,,
,,,,,,,,,,,,,
,,,,,,,,,,,,,
,,,,,,,,,,,,,
,,,,,,,,,,,,,
,,,,,,,,,,,,,
,,,,,,,,,,,,,
,,,,,,,,,,,,,
,,,,,,,,,,,,,
,,,,,,,,,,,,,
,,,,,,,,,,,,,
,,,,,,,,,,,,,
,,,,,,,,,,,,,
,,,,,,,,,,,,,
,,,,,,,,,,,,,
,,,,,,,,,,,,,
,,,,,,,,,,,,,
,,,,,,,,,,,,,
,,,,,,,,,,,,,
,,,,,,,,,,,,,
,,,,,,,,,,,,,
,,,,,,,,,,,,,
,,,,,,,,,,,,,
,,,,,,,,,,,,,
,,,,,,,,,,,,,
,,,,,,,,,,,,,
,,,,,,,,,,,,,
,,,,,,,,,,,,,
,,,,,,,,,,,,,
,,,,,,,,,,,,,
,,,,,,,,,,,,,
,,,,,,,,,,,,,
,,,,,,,,,,,,,
,,,,,,,,,,,,,
,,,,,,,,,,,,,
,,,,,,,,,,,,,
,,,,,,,,,,,,,
,,,,,,,,,,,,,
,,,,,,,,,,,,,
,,,,,,,,,,,,,
,,,,,,,,,,,,,
,,,,,,,,,,,,,
,,,,,,,,,,,,,
,,,,,,,,,,,,,
,,,,,,,,,,,,,
,,,,,,,,,,,,,
,,,,,,,,,,,,,
,,,,,,,,,,,,,
,,,,,,,,,,,,,
,,,,,,,,,,,,,
,,,,,,,,,,,,,
,,,,,,,,,,,,,
,,,,,,,,,,,,,
,,,,,,,,,,,,,
,,,,,,,,,,,,,
,,,,,,,,,,,,,
,,,,,,,,,,,,,
,,,,,,,,,,,,,
,,,,,,,,,,,,,
,,,,,,,,,,,,,
,,,,,,,,,,,,,
,,,,,,,,,,,,,
,,,,,,,,,,,,,
,,,,,,,,,,,,,
,,,,,,,,,,,,,
,,,,,,,,,,,,,
,,,,,,,,,,,,,
,,,,,,,,,,,,,
,,,,,,,,,,,,,
,,,,,,,,,,,,,
,,,,,,,,,,,,,
,,,,,,,,,,,,,
,,,,,,,,,,,,,
,,,,,,,,,,,,,
,,,,,,,,,,,,,
,,,,,,,,,,,,,
,,,,,,,,,,,,,
,,,,,,,,,,,,,
,,,,,,,,,,,,,
,,,,,,,,,,,,,
,,,,,,,,,,,,,
,,,,,,,,,,,,,
,,,,,,,,,,,,,
,,,,,,,,,,,,,
,,,,,,,,,,,,,
,,,,,,,,,,,,,
,,,,,,,,,,,,,
,,,,,,,,,,,,,
,,,,,,,,,,,,,
,,,,,,,,,,,,,
,,,,,,,,,,,,,
,,,,,,,,,,,,,
,,,,,,,,,,,,,
,,,,,,,,,,,,,
,,,,,,,,,,,,,
,,,,,,,,,,,,,
,,,,,,,,,,,,,
,,,,,,,,,,,,,
,,,,,,,,,,,,,
,,,,,,,,,,,,,
,,,,,,,,,,,,,
,,,,,,,,,,,,,
,,,,,,,,,,,,,
,,,,,,,,,,,,,
,,,,,,,,,,,,,
,,,,,,,,,,,,,
,,,,,,,,,,,,,
,,,,,,,,,,,,,
,,,,,,,,,,,,,
,,,,,,,,,,,,,
,,,,,,,,,,,,,
,,,,,,,,,,,,,
,,,,,,,,,,,,,
,,,,,,,,,,,,,
,,,,,,,,,,,,,
,,,,,,,,,,,,,
,,,,,,,,,,,,,
,,,,,,,,,,,,,
,,,,,,,,,,,,,
,,,,,,,,,,,,,
,,,,,,,,,,,,,
,,,,,,,,,,,,,
,,,,,,,,,,,,,
,,,,,,,,,,,,,
,,,,,,,,,,,,,
,,,,,,,,,,,,,
,,,,,,,,,,,,,
,,,,,,,,,,,,,
,,,,,,,,,,,,,
,,,,,,,,,,,,,
,,,,,,,,,,,,,
,,,,,,,,,,,,,
,,,,,,,,,,,,,
,,,,,,,,,,,,,
,,,,,,,,,,,,,
,,,,,,,,,,,,,
,,,,,,,,,,,,,
,,,,,,,,,,,,,
,,,,,,,,,,,,,
,,,,,,,,,,,,,
,,,,,,,,,,,,,
,,,,,,,,,,,,,
,,,,,,,,,,,,,
,,,,,,,,,,,,,
,,,,,,,,,,,,,
,,,,,,,,,,,,,
,,,,,,,,,,,,,
,,,,,,,,,,,,,
,,,,,,,,,,,,,
,,,,,,,,,,,,,
,,,,,,,,,,,,,
,,,,,,,,,,,,,
,,,,,,,,,,,,,
,,,,,,,,,,,,,
,,,,,,,,,,,,,
,,,,,,,,,,,,,
,,,,,,,,,,,,,
,,,,,,,,,,,,,
,,,,,,,,,,,,,
,,,,,,,,,,,,,
,,,,,,,,,,,,,
,,,,,,,,,,,,,
,,,,,,,,,,,,,
,,,,,,,,,,,,,
,,,,,,,,,,,,,
,,,,,,,,,,,,,
,,,,,,,,,,,,,
,,,,,,,,,,,,,
,,,,,,,,,,,,,
,,,,,,,,,,,,,
,,,,,,,,,,,,,
,,,,,,,,,,,,,
,,,,,,,,,,,,,
,,,,,,,,,,,,,
,,,,,,,,,,,,,
,,,,,,,,,,,,,
,,,,,,,,,,,,,
,,,,,,,,,,,,,
,,,,,,,,,,,,,
,,,,,,,,,,,,,
,,,,,,,,,,,,,
,,,,,,,,,,,,,
,,,,,,,,,,,,,
,,,,,,,,,,,,,
,,,,,,,,,,,,,
,,,,,,,,,,,,,
,,,,,,,,,,,,,
,,,,,,,,,,,,,
,,,,,,,,,,,,,
,,,,,,,,,,,,,
,,,,,,,,,,,,,
,,,,,,,,,,,,,
,,,,,,,,,,,,,
,,,,,,,,,,,,,
,,,,,,,,,,,,,
,,,,,,,,,,,,,
,,,,,,,,,,,,,
,,,,,,,,,,,,,
,,,,,,,,,,,,,
,,,,,,,,,,,,,
,,,,,,,,,,,,,
,,,,,,,,,,,,,
,,,,,,,,,,,,,
,,,,,,,,,,,,,
,,,,,,,,,,,,,
,,,,,,,,,,,,,
,,,,,,,,,,,,,
,,,,,,,,,,,,,
,,,,,,,,,,,,,
,,,,,,,,,,,,,
,,,,,,,,,,,,,
,,,,,,,,,,,,,
,,,,,,,,,,,,,
,,,,,,,,,,,,,
,,,,,,,,,,,,,
,,,,,,,,,,,,,
,,,,,,,,,,,,,
,,,,,,,,,,,,,
,,,,,,,,,,,,,
,,,,,,,,,,,,,
,,,,,,,,,,,,,
,,,,,,,,,,,,,
,,,,,,,,,,,,,
,,,,,,,,,,,,,
,,,,,,,,,,,,,
,,,,,,,,,,,,,
,,,,,,,,,,,,,
,,,,,,,,,,,,,
,,,,,,,,,,,,,
,,,,,,,,,,,,,
,,,,,,,,,,,,,
,,,,,,,,,,,,,
,,,,,,,,,,,,,
,,,,,,,,,,,,,
,,,,,,,,,,,,,
,,,,,,,,,,,,,
,,,,,,,,,,,,,
,,,,,,,,,,,,,
,,,,,,,,,,,,,
,,,,,,,,,,,,,
,,,,,,,,,,,,,
,,,,,,,,,,,,,
,,,,,,,,,,,,,
,,,,,,,,,,,,,
,,,,,,,,,,,,,
,,,,,,,,,,,,,
,,,,,,,,,,,,,
,,,,,,,,,,,,,
,,,,,,,,,,,,,
,,,,,,,,,,,,,
,,,,,,,,,,,,,
,,,,,,,,,,,,,
,,,,,,,,,,,,,
,,,,,,,,,,,,,
,,,,,,,,,,,,,
,,,,,,,,,,,,,
,,,,,,,,,,,,,
,,,,,,,,,,,,,
,,,,,,,,,,,,,
,,,,,,,,,,,,,
,,,,,,,,,,,,,
,,,,,,,,,,,,,
,,,,,,,,,,,,,
,,,,,,,,,,,,,
,,,,,,,,,,,,,
,,,,,,,,,,,,,
,,,,,,,,,,,,,
,,,,,,,,,,,,,
,,,,,,,,,,,,,
,,,,,,,,,,,,,
,,,,,,,,,,,,,
,,,,,,,,,,,,,
,,,,,,,,,,,,,
,,,,,,,,,,,,,
,,,,,,,,,,,,,
,,,,,,,,,,,,,
,,,,,,,,,,,,,
,,,,,,,,,,,,,
,,,,,,,,,,,,,
,,,,,,,,,,,,,
,,,,,,,,,,,,,
,,,,,,,,,,,,,
,,,,,,,,,,,,,
,,,,,,,,,,,,,
,,,,,,,,,,,,,
,,,,,,,,,,,,,
,,,,,,,,,,,,,
,,,,,,,,,,,,,
,,,,,,,,,,,,,
,,,,,,,,,,,,,
,,,,,,,,,,,,,
,,,,,,,,,,,,,
,,,,,,,,,,,,,
,,,,,,,,,,,,,
,,,,,,,,,,,,,
,,,,,,,,,,,,,
,,,,,,,,,,,,,
,,,,,,,,,,,,,
,,,,,,,,,,,,,
,,,,,,,,,,,,,
,,,,,,,,,,,,,
,,,,,,,,,,,,,
,,,,,,,,,,,,,
,,,,,,,,,,,,,
,,,,,,,,,,,,,
,,,,,,,,,,,,,
,,,,,,,,,,,,,
,,,,,,,,,,,,,
,,,,,,,,,,,,,
,,,,,,,,,,,,,
,,,,,,,,,,,,,
,,,,,,,,,,,,,
,,,,,,,,,,,,,
,,,,,,,,,,,,,