File: 01_Data/Lightweight_Gypsum_Wallboard_Gypsum_Core/STA/N2/10K_min/Lightweight_Gypsum_Wallboard_Core_STA_N2_10KData_222502_R3.csv
##Temp./Â°C,Time/min,Mass loss(subtr.2)/mg,DSC(subtr.2)/(mW/mg),Sensit./(uV/mW)
49.714,10.01,-0.01975,0.01254367,1.07515
50.514,10.7993,-0.02832174,0.04644376,1.07473
51.314,11.0143,-0.02920335,0.07275713,1.07431
52.114,11.17751,-0.0284293,0.09080842,1.0739
52.914,11.31599,-0.03236918,0.1079,1.07348
53.714,11.44112,-0.02827424,0.12535,1.07306
54.514,11.55626,-0.02777829,0.13441,1.07265
55.314,11.6643,-0.02860812,0.14543,1.07223
56.114,11.7684,-0.03022007,0.15479,1.07181
56.914,11.8694,-0.03312354,0.16148,1.0714
57.714,11.96739,-0.0310974,0.17005,1.07098
58.514,12.06288,-0.03019571,0.17821,1.07057
59.314,12.15692,-0.03209154,0.18066,1.07015
60.114,12.24965,-0.03070998,0.18981,1.06973
60.914,12.34116,-0.03170928,0.19505,1.06932
61.714,12.4314,-0.03201428,0.19847,1.0689
62.514,12.52051,-0.03203268,0.20349,1.06849
63.314,12.60929,-0.03204469,0.21023,1.06807
64.114,12.6973,-0.03061919,0.21244,1.06766
64.914,12.7848,-0.03070598,0.21756,1.06724
65.714,12.8722,-0.03203039,0.22151,1.06683
66.514,12.95931,-0.03350435,0.2248,1.06641
67.314,13.0456,-0.03225011,0.22902,1.066
68.114,13.13181,-0.03225,0.23205,1.06558
68.914,13.2179,-0.03216873,0.2407,1.06517
69.714,13.304,-0.03337183,0.24556,1.06475
70.514,13.3897,-0.03224876,0.25143,1.06434
71.314,13.4746,-0.03359317,0.25412,1.06392
72.114,13.55976,-0.03356777,0.25958,1.06351
72.914,13.64468,-0.03487735,0.26116,1.0631
73.714,13.72936,-0.03619997,0.2683,1.06268
74.514,13.81415,-0.03751118,0.27432,1.06227
75.314,13.8985,-0.03883469,0.27759,1.06185
76.114,13.9825,-0.03752376,0.2837,1.06144
76.914,14.06621,-0.03820549,0.2875,1.06103
77.714,14.14974,-0.03882786,0.2928,1.06061
78.514,14.2328,-0.03883209,0.29879,1.0602
79.314,14.31584,-0.03864156,0.30287,1.05979
80.114,14.39875,-0.04013297,0.31011,1.05937
80.914,14.4815,-0.0401402,0.31657,1.05896
81.714,14.5643,-0.0427701,0.32084,1.05855
82.514,14.64701,-0.04527837,0.3291,1.05813
83.314,14.7291,-0.04672578,0.33412,1.05772
84.114,14.81088,-0.0456708,0.33912,1.05731
84.914,14.8925,-0.04783886,0.34814,1.0569
85.714,14.97435,-0.04935999,0.35729,1.05648
86.514,15.05569,-0.04935996,0.36676,1.05607
87.314,15.137,-0.05065407,0.37524,1.05566
88.114,15.21805,-0.0506913,0.38842,1.05525
88.914,15.2997,-0.05198537,0.40099,1.05483
89.714,15.3808,-0.05429167,0.41504,1.05442
90.514,15.4615,-0.05561073,0.43148,1.05401
91.314,15.54202,-0.05692415,0.44854,1.0536
92.114,15.6226,-0.05725054,0.46893,1.05319
92.914,15.70294,-0.06023389,0.48999,1.05277
93.714,15.7836,-0.06281268,0.51471,1.05236
94.514,15.8642,-0.06653036,0.54058,1.05195
95.314,15.9445,-0.06691014,0.56312,1.05154
96.114,16.02469,-0.06885967,0.59196,1.05113
96.914,16.10481,-0.0699827,0.62407,1.05072
97.714,16.1846,-0.0737872,0.65623,1.05031
98.514,16.26429,-0.07670263,0.69029,1.0499
99.314,16.34395,-0.08035447,0.72788,1.04949
100.114,16.42351,-0.08284649,0.76637,1.04907
100.914,16.50327,-0.08695154,0.8023,1.04866
101.714,16.583,-0.09082461,0.83883,1.04825
102.514,16.6628,-0.09413155,0.87799,1.04784
103.314,16.7424,-0.10035,0.91318,1.04743
104.114,16.8218,-0.103,0.94675,1.04702
104.914,16.90129,-0.10744,0.98454,1.04661
105.714,16.9807,-0.11036,1.0209,1.0462
106.514,17.06017,-0.11671,1.05825,1.04579
107.314,17.13974,-0.12359,1.0981,1.04538
108.114,17.21939,-0.13005,1.13802,1.04497
108.914,17.29893,-0.13338,1.18381,1.04456
109.714,17.37815,-0.13941,1.23631,1.04415
110.514,17.45753,-0.14742,1.30836,1.04374
111.314,17.53712,-0.15591,1.41269,1.04333
112.114,17.61678,-0.16507,1.54825,1.04293
112.914,17.69665,-0.17515,1.73035,1.04252
113.714,17.777,-0.18408,1.91134,1.04211
114.514,17.85768,-0.1955,2.08364,1.0417
115.314,17.93877,-0.2109,2.25441,1.04129
116.114,18.01986,-0.22605,2.42355,1.04088
116.914,18.10106,-0.24204,2.5938,1.04047
117.714,18.18211,-0.2568,2.76357,1.04006
118.514,18.26301,-0.27264,2.93529,1.03966
119.314,18.34461,-0.29128,3.10617,1.03925
120.114,18.4258,-0.31217,3.26511,1.03884
120.914,18.50725,-0.3309,3.41386,1.03843
121.714,18.58853,-0.34917,3.54537,1.03802
122.514,18.67,-0.36985,3.64204,1.03761
123.314,18.7513,-0.39205,3.7068,1.03721
124.114,18.83221,-0.41322,3.72277,1.0368
124.914,18.9128,-0.43518,3.69013,1.03639
125.714,18.99294,-0.45281,3.6083,1.03598
126.514,19.07246,-0.47528,3.483,1.03557
127.314,19.1514,-0.49416,3.32496,1.03517
128.114,19.23009,-0.50698,3.17531,1.03476
128.914,19.30854,-0.52261,3.07754,1.03435
129.714,19.38644,-0.53737,3.03949,1.03395
130.514,19.46435,-0.55019,3.04776,1.03354
131.314,19.54232,-0.56429,3.0822,1.03313
132.114,19.61973,-0.57874,3.13392,1.03272
132.914,19.69774,-0.59876,3.19025,1.03232
133.714,19.776,-0.61355,3.24688,1.03191
134.514,19.85441,-0.62902,3.29363,1.0315
135.314,19.9324,-0.64703,3.31701,1.0311
136.114,20.01034,-0.66105,3.30631,1.03069
136.914,20.08823,-0.67769,3.23358,1.03028
137.714,20.16558,-0.69126,3.0156,1.02988
138.514,20.24224,-0.70351,2.56555,1.02947
139.314,20.31792,-0.70996,2.04633,1.02906
140.114,20.39276,-0.7153,1.6125,1.02866
140.914,20.46635,-0.7178,1.28885,1.02825
141.714,20.53993,-0.71998,1.04219,1.02785
142.514,20.61334,-0.72273,0.86181,1.02744
143.314,20.68713,-0.72321,0.73093,1.02703
144.114,20.7606,-0.72535,0.63159,1.02663
144.914,20.83435,-0.72672,0.55733,1.02622
145.714,20.90844,-0.72952,0.50197,1.02582
146.514,20.98222,-0.72952,0.45923,1.02541
147.314,21.05653,-0.72952,0.42601,1.02501
148.114,21.1311,-0.73084,0.39693,1.0246
148.914,21.2061,-0.73269,0.37331,1.02419
149.714,21.2812,-0.73419,0.3563,1.02379
150.514,21.35603,-0.73413,0.34098,1.02338
151.314,21.4311,-0.73413,0.32734,1.02298
152.114,21.5062,-0.73719,0.31617,1.02257
152.914,21.58164,-0.73754,0.30625,1.02217
153.714,21.6571,-0.73885,0.29679,1.02176
154.514,21.73251,-0.73883,0.29102,1.02136
155.314,21.80798,-0.73886,0.28306,1.02095
156.114,21.88364,-0.73882,0.2769,1.02055
156.914,21.95971,-0.74016,0.27295,1.02014
157.714,22.03549,-0.74148,0.26857,1.01974
158.514,22.11115,-0.74255,0.2647,1.01933
159.314,22.18694,-0.74145,0.25929,1.01893
160.114,22.26282,-0.74163,0.25551,1.01852
160.914,22.3387,-0.74148,0.25375,1.01812
161.714,22.41464,-0.74148,0.24934,1.01772
162.514,22.4906,-0.74378,0.24589,1.01731
163.314,22.5667,-0.7442,0.24352,1.01691
164.114,22.64283,-0.74509,0.23994,1.0165
164.914,22.719,-0.74511,0.23807,1.0161
165.714,22.7952,-0.74597,0.23767,1.01569
166.514,22.8714,-0.7468,0.23374,1.01529
167.314,22.94781,-0.74708,0.23208,1.01489
168.114,23.02412,-0.74741,0.2298,1.01448
168.914,23.1006,-0.74609,0.22805,1.01408
169.714,23.17698,-0.74609,0.22806,1.01367
170.514,23.2534,-0.74609,0.22646,1.01327
171.314,23.33002,-0.74411,0.22578,1.01287
172.114,23.40631,-0.74451,0.22362,1.01246
172.914,23.48259,-0.74752,0.22197,1.01206
173.714,23.5589,-0.75003,0.22202,1.01166
174.514,23.63531,-0.74873,0.22282,1.01125
175.314,23.71177,-0.74821,0.22051,1.01085
176.114,23.78819,-0.75004,0.21807,1.01044
176.914,23.8646,-0.75004,0.21648,1.01004
177.714,23.9409,-0.75076,0.21466,1.00964
178.514,24.01737,-0.75134,0.21426,1.00923
179.314,24.09375,-0.75266,0.21264,1.00883
180.114,24.1706,-0.75258,0.21002,1.00843
180.914,24.24725,-0.75256,0.21184,1.00802
181.714,24.32388,-0.75256,0.21125,1.00762
182.514,24.40022,-0.75388,0.21095,1.00722
183.314,24.47663,-0.75519,0.21051,1.00681
184.114,24.55291,-0.7552,0.20962,1.00641
184.914,24.62915,-0.7565,0.20866,1.00601
185.714,24.7054,-0.75518,0.20909,1.0056
186.514,24.7817,-0.75519,0.20745,1.0052
187.314,24.8582,-0.75519,0.20724,1.0048
188.114,24.9348,-0.75687,0.20808,1.00439
188.914,25.01119,-0.75925,0.20577,1.00399
189.714,25.08751,-0.75925,0.20394,1.00359
190.514,25.16393,-0.75925,0.20411,1.00318
191.314,25.2403,-0.75659,0.20404,1.00278
192.114,25.3163,-0.75662,0.20383,1.00238
192.914,25.3927,-0.7557,0.20057,1.00197
193.714,25.46923,-0.75387,0.20253,1.00157
194.514,25.54576,-0.75442,0.20228,1.00117
195.314,25.62225,-0.75519,0.20242,1.00077
196.114,25.69867,-0.7565,0.20031,1.00036
196.914,25.77494,-0.75651,0.20155,0.99996
197.714,25.851,-0.75649,0.19943,0.99956
198.514,25.9274,-0.75786,0.19919,0.99915
199.314,26.0036,-0.75645,0.20042,0.99875
200.114,26.07931,-0.75786,0.19931,0.99835
200.914,26.1548,-0.75551,0.19941,0.99794
201.714,26.23057,-0.75814,0.19969,0.99754
202.514,26.30698,-0.76091,0.20082,0.99714
203.314,26.38335,-0.76178,0.20004,0.99673
204.114,26.46002,-0.76045,0.19975,0.99633
204.914,26.53698,-0.75918,0.19882,0.99593
205.714,26.61376,-0.75824,0.19917,0.99553
206.514,26.69008,-0.75881,0.19708,0.99512
207.314,26.76626,-0.75751,0.19712,0.99472
208.114,26.84252,-0.75881,0.1971,0.99432
208.914,26.91837,-0.75881,0.19662,0.99391
209.714,26.99488,-0.75881,0.19504,0.99351
210.514,27.07143,-0.75846,0.19493,0.99311
211.314,27.1481,-0.75848,0.19519,0.9927
212.114,27.22444,-0.75848,0.19441,0.9923
212.914,27.3011,-0.75848,0.19414,0.9919
213.714,27.3777,-0.7598,0.19323,0.99149
214.514,27.45588,-0.75922,0.19369,0.99109
215.314,27.536,-0.76014,0.19405,0.99069
216.114,27.61634,-0.76181,0.19353,0.99029
216.914,27.69335,-0.76197,0.19349,0.98988
217.714,27.7698,-0.76242,0.1945,0.98948
218.514,27.84608,-0.76309,0.191,0.98908
219.314,27.92245,-0.76309,0.19368,0.98867
220.114,27.99826,-0.76177,0.19308,0.98827
220.914,28.0748,-0.76275,0.19177,0.98787
221.714,28.15105,-0.76151,0.19171,0.98746
222.514,28.22815,-0.76587,0.19233,0.98706
223.314,28.30446,-0.76583,0.19176,0.98666
224.114,28.3809,-0.76452,0.19047,0.98625
224.914,28.45716,-0.76452,0.18628,0.98585
225.714,28.53325,-0.7632,0.18542,0.98544
226.514,28.6095,-0.76188,0.1876,0.98504
227.314,28.68575,-0.76188,0.18442,0.98464
228.114,28.76233,-0.76196,0.1841,0.98423
228.914,28.83874,-0.76353,0.18326,0.98383
229.714,28.9151,-0.76485,0.18606,0.98343
230.514,28.9916,-0.76769,0.18333,0.98302
231.314,29.06809,-0.76687,0.18246,0.98262
232.114,29.1448,-0.76769,0.18515,0.98221
232.914,29.22133,-0.76769,0.1826,0.98181
233.714,29.29778,-0.76769,0.18449,0.98141
234.514,29.3744,-0.76629,0.18103,0.981
235.314,29.4509,-0.76638,0.18144,0.9806
236.114,29.52693,-0.76638,0.18058,0.98019
236.914,29.6031,-0.76638,0.18321,0.97979
237.714,29.6797,-0.76636,0.18097,0.97939
238.514,29.7561,-0.76769,0.18033,0.97898
239.314,29.8323,-0.76779,0.17931,0.97858
240.114,29.9086,-0.76747,0.18014,0.97817
240.914,29.98483,-0.76637,0.17934,0.97777
241.714,30.061,-0.7664,0.17622,0.97736
242.514,30.13728,-0.7667,0.17613,0.97696
243.314,30.2136,-0.767,0.17493,0.97655
244.114,30.29,-0.76813,0.17606,0.97615
244.914,30.36641,-0.76943,0.17491,0.97574
245.714,30.4429,-0.7697,0.17295,0.97534
246.514,30.5193,-0.77044,0.17324,0.97493
247.314,30.59577,-0.76904,0.17095,0.97453
248.114,30.6721,-0.769,0.16925,0.97412
248.914,30.74786,-0.76782,0.16772,0.97372
249.714,30.82395,-0.77045,0.16774,0.97331
250.514,30.9,-0.77044,0.16734,0.97291
251.314,30.97659,-0.76911,0.16399,0.9725
252.114,31.0532,-0.77044,0.16606,0.9721
252.914,31.1303,-0.77045,0.16693,0.97169
253.714,31.20758,-0.77176,0.16446,0.97128
254.514,31.2844,-0.77164,0.16231,0.97088
255.314,31.3609,-0.77241,0.16115,0.97047
256.114,31.4376,-0.77239,0.16114,0.97007
256.914,31.51424,-0.77175,0.1589,0.96966
257.714,31.5908,-0.77041,0.15873,0.96925
258.514,31.66736,-0.77174,0.15893,0.96885
259.314,31.74405,-0.77307,0.15695,0.96844
260.114,31.8205,-0.77342,0.15858,0.96803
260.914,31.8972,-0.77375,0.15559,0.96763
261.714,31.97375,-0.77503,0.15561,0.96722
262.514,32.0504,-0.77571,0.15457,0.96681
263.314,32.12709,-0.77441,0.15497,0.96641
264.114,32.204,-0.77171,0.15419,0.966
264.914,32.2805,-0.77176,0.15441,0.96559
265.714,32.35678,-0.77281,0.15297,0.96519
266.514,32.4335,-0.77307,0.15237,0.96478
267.314,32.51011,-0.77307,0.14985,0.96437
268.114,32.58682,-0.77436,0.14988,0.96396
268.914,32.66341,-0.77538,0.15214,0.96355
269.714,32.74003,-0.77538,0.14882,0.96315
270.514,32.81671,-0.77538,0.15127,0.96274
271.314,32.89343,-0.77538,0.14943,0.96233
272.114,32.97003,-0.77538,0.14801,0.96192
272.914,33.04654,-0.77409,0.15057,0.96151
273.714,33.1232,-0.77537,0.14836,0.96111
274.514,33.1997,-0.77636,0.14892,0.9607
275.314,33.27618,-0.77505,0.14988,0.96029
276.114,33.3526,-0.77504,0.14885,0.95988
276.914,33.42905,-0.77399,0.15136,0.95947
277.714,33.50558,-0.77405,0.15021,0.95906
278.514,33.58212,-0.77489,0.15008,0.95865
279.314,33.65886,-0.77484,0.14976,0.95824
280.114,33.73557,-0.77264,0.14874,0.95783
280.914,33.81204,-0.77486,0.14901,0.95742
281.714,33.88855,-0.77603,0.14641,0.95701
282.514,33.9654,-0.77639,0.14826,0.9566
283.314,34.04227,-0.77669,0.14524,0.95619
284.114,34.11892,-0.77801,0.14555,0.95578
284.914,34.19574,-0.77691,0.14669,0.95537
285.714,34.27255,-0.77557,0.14381,0.95496
286.514,34.34945,-0.77669,0.14334,0.95455
287.314,34.42635,-0.77659,0.14252,0.95414
288.114,34.5032,-0.778,0.14429,0.95373
288.914,34.58014,-0.778,0.1433,0.95332
289.714,34.6571,-0.778,0.14198,0.9529
290.514,34.73413,-0.77801,0.14334,0.95249
291.314,34.8108,-0.77597,0.14258,0.95208
292.114,34.88754,-0.77564,0.14248,0.95167
292.914,34.9642,-0.77669,0.14374,0.95126
293.714,35.04092,-0.77671,0.14237,0.95084
294.514,35.11741,-0.77537,0.14165,0.95043
295.314,35.19427,-0.77669,0.14064,0.95002
296.114,35.27131,-0.77645,0.14086,0.94961
296.914,35.34838,-0.77671,0.13966,0.94919
297.714,35.4253,-0.77493,0.13872,0.94878
298.514,35.5021,-0.77634,0.14165,0.94837
299.314,35.5789,-0.77757,0.14001,0.94795
300.114,35.65558,-0.77624,0.13996,0.94754
300.914,35.73222,-0.77765,0.13944,0.94713
301.714,35.8086,-0.77757,0.14132,0.94671
302.514,35.88516,-0.77815,0.13815,0.9463
303.314,35.9621,-0.77987,0.13809,0.94588
304.114,36.0391,-0.78121,0.13769,0.94547
304.914,36.11566,-0.78119,0.13761,0.94505
305.714,36.1924,-0.78119,0.13701,0.94464
306.514,36.2695,-0.77991,0.1375,0.94422
307.314,36.34688,-0.78272,0.13701,0.94381
308.114,36.42372,-0.78272,0.13683,0.94339
308.914,36.50047,-0.78275,0.13429,0.94298
309.714,36.57736,-0.78371,0.13565,0.94256
310.514,36.6543,-0.78239,0.13323,0.94214
311.314,36.73106,-0.78239,0.13436,0.94173
312.114,36.80819,-0.78238,0.13223,0.94131
312.914,36.88503,-0.78041,0.13115,0.94089
313.714,36.9622,-0.77912,0.13027,0.94048
314.514,37.03921,-0.78042,0.12919,0.94006
315.314,37.11607,-0.78042,0.13271,0.93964
316.114,37.19275,-0.78042,0.12945,0.93922
316.914,37.26958,-0.78042,0.13028,0.93881
317.714,37.34655,-0.78203,0.13267,0.93839
318.514,37.42351,-0.78206,0.13053,0.93797
319.314,37.50038,-0.78207,0.12969,0.93755
320.114,37.57711,-0.78234,0.12929,0.93713
320.914,37.65405,-0.78433,0.13043,0.93671
321.714,37.73105,-0.78411,0.12965,0.93629
322.514,37.80812,-0.78313,0.12945,0.93587
323.314,37.88511,-0.78305,0.12997,0.93545
324.114,37.96215,-0.78521,0.12965,0.93503
324.914,38.03921,-0.78568,0.12897,0.93461
325.714,38.1163,-0.78589,0.12801,0.93419
326.514,38.19344,-0.78601,0.1276,0.93377
327.314,38.27065,-0.78569,0.12589,0.93335
328.114,38.3476,-0.78569,0.12682,0.93293
328.914,38.4248,-0.78569,0.12716,0.93251
329.714,38.502,-0.78569,0.13068,0.93209
330.514,38.57946,-0.78437,0.12836,0.93167
331.314,38.65682,-0.78437,0.12878,0.93124
332.114,38.73401,-0.78432,0.1295,0.93082
332.914,38.8111,-0.78397,0.12681,0.9304
333.714,38.88823,-0.78528,0.12909,0.92998
334.514,38.96545,-0.78672,0.13148,0.92955
335.314,39.0426,-0.78672,0.13114,0.92913
336.114,39.11973,-0.78535,0.13174,0.92871
336.914,39.1969,-0.78535,0.13188,0.92828
337.714,39.2743,-0.78535,0.13013,0.92786
338.514,39.35145,-0.78535,0.13324,0.92743
339.314,39.42857,-0.78535,0.13,0.92701
340.114,39.50571,-0.78762,0.132,0.92658
340.914,39.58311,-0.78947,0.13081,0.92616
341.714,39.6605,-0.78908,0.13109,0.92573
342.514,39.7378,-0.78776,0.13163,0.92531
343.314,39.81519,-0.78776,0.13283,0.92488
344.114,39.89227,-0.78776,0.13342,0.92445
344.914,39.9698,-0.78776,0.13239,0.92403
345.714,40.04696,-0.78776,0.13056,0.9236
346.514,40.12454,-0.78918,0.13271,0.92317
347.314,40.20179,-0.78735,0.13213,0.92275
348.114,40.27937,-0.78941,0.12972,0.92232
348.914,40.3569,-0.78941,0.13191,0.92189
349.714,40.43422,-0.7904,0.13076,0.92146
350.514,40.51153,-0.78919,0.13198,0.92103
351.314,40.58887,-0.7904,0.12958,0.9206
352.114,40.6663,-0.79106,0.12866,0.92018
352.914,40.74378,-0.7911,0.12804,0.91975
353.714,40.82104,-0.78973,0.1262,0.91932
354.514,40.89828,-0.79447,0.12885,0.91889
355.314,40.97612,-0.79103,0.127,0.91846
356.114,41.054,-0.78997,0.12661,0.91803
356.914,41.13169,-0.79008,0.12699,0.91759
357.714,41.20922,-0.79128,0.12366,0.91716
358.514,41.28679,-0.79128,0.12426,0.91673
359.314,41.3645,-0.79151,0.12691,0.9163
360.114,41.44194,-0.79244,0.12373,0.91587
360.914,41.51962,-0.79194,0.12205,0.91543
361.714,41.59732,-0.79194,0.12194,0.915
362.514,41.67514,-0.79288,0.12403,0.91457
363.314,41.75288,-0.79259,0.12464,0.91414
364.114,41.83059,-0.79261,0.12271,0.9137
364.914,41.90824,-0.79524,0.12369,0.91327
365.714,41.98591,-0.79522,0.12412,0.91283
366.514,42.06368,-0.79522,0.12515,0.9124
367.314,42.1415,-0.79259,0.12412,0.91196
368.114,42.21925,-0.79128,0.12347,0.91153
368.914,42.29699,-0.79259,0.12227,0.91109
369.714,42.3748,-0.79303,0.123,0.91066
370.514,42.45272,-0.79387,0.12326,0.91022
371.314,42.53055,-0.79455,0.12263,0.90978
372.114,42.60842,-0.79325,0.12376,0.90935
372.914,42.68633,-0.79039,0.12478,0.90891
373.714,42.76405,-0.79366,0.12491,0.90847
374.514,42.84193,-0.7949,0.12519,0.90803
375.314,42.9196,-0.79358,0.12575,0.90759
376.114,42.9974,-0.79489,0.12839,0.90716
376.914,43.07503,-0.7949,0.12552,0.90672
377.714,43.1527,-0.7949,0.12414,0.90628
378.514,43.2303,-0.7949,0.124,0.90584
379.314,43.30793,-0.79621,0.12436,0.9054
380.114,43.38563,-0.7949,0.12496,0.90496
380.914,43.46347,-0.7949,0.12317,0.90452
381.714,43.54166,-0.79441,0.12382,0.90407
382.514,43.61965,-0.79423,0.12178,0.90363
383.314,43.6974,-0.79555,0.12038,0.90319
384.114,43.77519,-0.79555,0.1219,0.90275
384.914,43.85314,-0.79622,0.11685,0.90231
385.714,43.9311,-0.79487,0.11778,0.90186
386.514,44.00878,-0.7949,0.11594,0.90142
387.314,44.08656,-0.79622,0.11484,0.90098
388.114,44.16426,-0.79644,0.11433,0.90053
388.914,44.24252,-0.79621,0.11152,0.90009
389.714,44.3208,-0.79661,0.10899,0.89964
390.514,44.399,-0.7981,0.10866,0.8992
391.314,44.47717,-0.79884,0.10584,0.89875
392.114,44.55527,-0.79885,0.10325,0.89831
392.914,44.63295,-0.79885,0.10057,0.89786
393.714,44.71086,-0.7975,0.10015,0.89741
394.514,44.78913,-0.79622,0.09645412,0.89697
395.314,44.86758,-0.79622,0.09447962,0.89652
396.114,44.94575,-0.79482,0.09053408,0.89607
396.914,45.0238,-0.79529,0.0877176,0.89562
397.714,45.10179,-0.79529,0.08505495,0.89517
398.514,45.17924,-0.79501,0.08123318,0.89473
399.314,45.25675,-0.79501,0.08086275,0.89428
400.114,45.3346,-0.79402,0.07637386,0.89383
400.914,45.4127,-0.79269,0.07306081,0.89338
401.714,45.49152,-0.79136,0.06660161,0.89293
402.514,45.5704,-0.79402,0.06333127,0.89248
403.314,45.6488,-0.79685,0.05970388,0.89202
404.114,45.72691,-0.79561,0.05635051,0.89157
404.914,45.80492,-0.79666,0.05426654,0.89112
405.714,45.88321,-0.79665,0.04633457,0.89067
406.514,45.96139,-0.79665,0.04437488,0.89021
407.314,46.0394,-0.79665,0.04274354,0.88976
408.114,46.11721,-0.79665,0.03444428,0.88931
408.914,46.195,-0.79662,0.03390351,0.88885
409.714,46.27317,-0.7973,0.0292594,0.8884
410.514,46.35112,-0.79739,0.02591112,0.88794
411.314,46.42905,-0.79863,0.020391,0.88749
412.114,46.50718,-0.79764,0.01864777,0.88703
412.914,46.5852,-0.79764,0.01370654,0.88658
413.714,46.66356,-0.79764,0.008489316,0.88612
414.514,46.74135,-0.79764,0.00566139,0.88566
415.314,46.81974,-0.79895,0.00177193,0.88521
416.114,46.89829,-0.79896,-0.001700646,0.88475
416.914,46.97672,-0.79761,-0.00683063,0.88429
417.714,47.05487,-0.79765,-0.007722766,0.88383
418.514,47.13317,-0.79896,-0.0107292,0.88337
419.314,47.21144,-0.79625,-0.01529534,0.88291
420.114,47.28974,-0.795,-0.0185557,0.88245
420.914,47.3682,-0.795,-0.02320616,0.88199
421.714,47.4467,-0.79616,-0.02404172,0.88153
422.514,47.52505,-0.79764,-0.02751944,0.88107
423.314,47.60348,-0.79632,-0.03243062,0.88061
424.114,47.68196,-0.79632,-0.03172356,0.88015
424.914,47.76001,-0.80027,-0.0330712,0.87968
425.714,47.83849,-0.80071,-0.03570863,0.87922
426.514,47.91709,-0.79952,-0.0354519,0.87876
427.314,47.99581,-0.798,-0.03698133,0.87829
428.114,48.07439,-0.79532,-0.0374217,0.87783
428.914,48.15287,-0.79797,-0.03683151,0.87737
429.714,48.2314,-0.79823,-0.03599462,0.8769
430.514,48.3098,-0.79797,-0.03719404,0.87643
431.314,48.38821,-0.79797,-0.03562892,0.87597
432.114,48.46694,-0.79928,-0.0339824,0.8755
432.914,48.54541,-0.79928,-0.03286731,0.87504
433.714,48.6239,-0.79936,-0.027497,0.87457
434.514,48.70228,-0.79929,-0.02565766,0.8741
435.314,48.78072,-0.79929,-0.02278453,0.87363
436.114,48.85915,-0.79929,-0.02168419,0.87316
436.914,48.93761,-0.79935,-0.01718429,0.87269
437.714,49.0161,-0.79698,-0.00979508,0.87222
438.514,49.09463,-0.79829,-0.0085735,0.87175
439.314,49.1729,-0.79928,-0.00147307,0.87128
440.114,49.2513,-0.79797,0.005438384,0.87081
440.914,49.3292,-0.79923,0.00786145,0.87034
441.714,49.4073,-0.79928,0.01131564,0.86987
442.514,49.48572,-0.79818,0.01517094,0.8694
443.314,49.56432,-0.79797,0.017331,0.86892
444.114,49.6433,-0.79797,0.02337073,0.86845
444.914,49.72229,-0.799,0.03078679,0.86798
445.714,49.8009,-0.79895,0.03349404,0.8675
446.514,49.87976,-0.7983,0.04003517,0.86703
447.314,49.95855,-0.7983,0.04303462,0.86655
448.114,50.0372,-0.79797,0.04917748,0.86608
448.914,50.1162,-0.79797,0.04848166,0.8656
449.714,50.1952,-0.79797,0.0554262,0.86512
450.514,50.2744,-0.79797,0.05618455,0.86465
451.314,50.3538,-0.79899,0.05838648,0.86417
452.114,50.43318,-0.79863,0.06470938,0.86369
452.914,50.51228,-0.80002,0.07035233,0.86321
453.714,50.5911,-0.79994,0.07519789,0.86273
454.514,50.67015,-0.80061,0.07687827,0.86225
455.314,50.7489,-0.80253,0.08253456,0.86177
456.114,50.8277,-0.80389,0.0868634,0.86129
456.914,50.9063,-0.80521,0.08966129,0.86081
457.714,50.98491,-0.80442,0.09246393,0.86033
458.514,51.0636,-0.80182,0.09430249,0.85985
459.314,51.1423,-0.80328,0.09594507,0.85937
460.114,51.2211,-0.80189,0.09586986,0.85888
460.914,51.29973,-0.80192,0.09959878,0.8584
461.714,51.3788,-0.80127,0.09983267,0.85792
462.514,51.45756,-0.80256,0.10255,0.85743
463.314,51.53624,-0.80224,0.106,0.85695
464.114,51.61492,-0.79984,0.10401,0.85646
464.914,51.6937,-0.79946,0.10675,0.85598
465.714,51.7723,-0.80097,0.10873,0.85549
466.514,51.85117,-0.80224,0.11035,0.855
467.314,51.93016,-0.80224,0.11339,0.85452
468.114,52.00936,-0.80352,0.11501,0.85403
468.914,52.08838,-0.80359,0.11399,0.85354
469.714,52.16746,-0.80356,0.11234,0.85305
470.514,52.24669,-0.80262,0.11499,0.85256
471.314,52.32592,-0.80129,0.11373,0.85207
472.114,52.40528,-0.80257,0.1144,0.85158
472.914,52.4844,-0.79996,0.11784,0.85109
473.714,52.5638,-0.80126,0.11379,0.8506
474.514,52.6428,-0.80126,0.11853,0.85011
475.314,52.7217,-0.80126,0.12067,0.84961
476.114,52.8003,-0.80278,0.12342,0.84912
476.914,52.8788,-0.80423,0.12199,0.84863
477.714,52.9577,-0.80553,0.12504,0.84813
478.514,53.03651,-0.8032,0.12698,0.84764
479.314,53.1157,-0.80197,0.12546,0.84714
480.114,53.19523,-0.80224,0.12483,0.84665
480.914,53.27485,-0.80224,0.12646,0.84615
481.714,53.3538,-0.80224,0.1283,0.84565
482.514,53.43264,-0.80356,0.12812,0.84516
483.314,53.51158,-0.80356,0.12968,0.84466
484.114,53.5904,-0.80356,0.13218,0.84416
484.914,53.66921,-0.80224,0.12955,0.84366
485.714,53.7482,-0.80356,0.12993,0.84316
486.514,53.82708,-0.80356,0.13413,0.84266
487.314,53.9061,-0.80421,0.136,0.84216
488.114,53.9852,-0.80269,0.13295,0.84166
488.914,54.0644,-0.80495,0.13329,0.84116
489.714,54.1438,-0.80488,0.13526,0.84066
490.514,54.223,-0.8055,0.13427,0.84016
491.314,54.3024,-0.80554,0.13251,0.83965
492.114,54.38149,-0.80543,0.13319,0.83915
492.914,54.46066,-0.80422,0.13202,0.83865
493.714,54.53974,-0.80293,0.13446,0.83814
494.514,54.619,-0.80291,0.13623,0.83764
495.314,54.69829,-0.80291,0.1307,0.83713
496.114,54.77746,-0.80427,0.1318,0.83663
496.914,54.8568,-0.80552,0.13172,0.83612
497.714,54.93615,-0.80745,0.13413,0.83561
498.514,55.01563,-0.80783,0.1338,0.8351
499.314,55.095,-0.80718,0.13588,0.83459
500.114,55.17428,-0.80722,0.13419,0.83409
500.914,55.25379,-0.80651,0.13592,0.83358
501.714,55.333,-0.80652,0.13313,0.83307
502.514,55.4126,-0.80651,0.13303,0.83256
503.314,55.49191,-0.80521,0.13537,0.83204
504.114,55.57136,-0.80488,0.1325,0.83153
504.914,55.65095,-0.80422,0.134,0.83102
505.714,55.73046,-0.80422,0.13251,0.83051
506.514,55.81001,-0.80521,0.13231,0.82999
507.314,55.8894,-0.80491,0.13103,0.82948
508.114,55.96906,-0.80422,0.13512,0.82897
508.914,56.0479,-0.80421,0.13472,0.82845
509.714,56.1275,-0.80554,0.13349,0.82794
510.514,56.2069,-0.80672,0.13097,0.82742
511.314,56.28665,-0.80686,0.1334,0.8269
512.114,56.36585,-0.80686,0.13544,0.82639
512.914,56.44525,-0.80817,0.13514,0.82587
513.714,56.52431,-0.80817,0.1363,0.82535
514.514,56.60332,-0.80817,0.13366,0.82483
515.314,56.68252,-0.80704,0.13369,0.82431
516.114,56.7619,-0.8055,0.13443,0.82379
516.914,56.84106,-0.80519,0.13395,0.82327
517.714,56.9204,-0.80576,0.1369,0.82275
518.514,56.99964,-0.80806,0.13886,0.82223
519.314,57.07895,-0.80803,0.13669,0.82171
520.114,57.1584,-0.80938,0.13519,0.82118
520.914,57.2378,-0.81067,0.13681,0.82066
521.714,57.31714,-0.80961,0.1377,0.82014
522.514,57.39665,-0.80806,0.13864,0.81961
523.314,57.47608,-0.8084,0.13827,0.81909
524.114,57.55551,-0.80937,0.13731,0.81856
524.914,57.6348,-0.80937,0.1378,0.81804
525.714,57.71444,-0.81061,0.13486,0.81751
526.514,57.7938,-0.81036,0.1328,0.81698
527.314,57.87361,-0.80937,0.13296,0.81645
528.114,57.95325,-0.80871,0.13623,0.81593
528.914,58.0332,-0.80805,0.13489,0.8154
529.714,58.11295,-0.80805,0.13466,0.81487
530.514,58.19266,-0.80805,0.13509,0.81434
531.314,58.2725,-0.80872,0.13526,0.81381
532.114,58.35241,-0.80986,0.13339,0.81327
532.914,58.43225,-0.81004,0.13538,0.81274
533.714,58.51198,-0.81003,0.13413,0.81221
534.514,58.59154,-0.81003,0.13374,0.81168
535.314,58.67134,-0.80871,0.13588,0.81114
536.114,58.7513,-0.80871,0.13244,0.81061
536.914,58.8315,-0.80805,0.13511,0.81007
537.714,58.91141,-0.80937,0.13574,0.80954
538.514,58.991,-0.81036,0.13635,0.809
539.314,59.07062,-0.81036,0.12943,0.80847
540.114,59.15048,-0.81034,0.13542,0.80793
540.914,59.2303,-0.80903,0.13461,0.80739
541.714,59.3101,-0.80938,0.13468,0.80685
542.514,59.3897,-0.81222,0.13745,0.80632
543.314,59.4692,-0.81222,0.13683,0.80578
544.114,59.5488,-0.81164,0.14153,0.80524
544.914,59.6283,-0.81123,0.13838,0.8047
545.714,59.70756,-0.81078,0.14046,0.80415
546.514,59.7873,-0.80992,0.14194,0.80361
547.314,59.8672,-0.8109,0.13941,0.80307
548.114,59.9468,-0.81094,0.13801,0.80253
548.914,60.0261,-0.80963,0.13735,0.80198
549.714,60.106,-0.8109,0.1384,0.80144
550.514,60.1858,-0.81091,0.13922,0.8009
551.314,60.26559,-0.81091,0.13468,0.80035
552.114,60.3452,-0.81223,0.13943,0.7998
552.914,60.4253,-0.81091,0.13902,0.79926
553.714,60.505,-0.81065,0.13961,0.79871
554.514,60.58469,-0.8109,0.13848,0.79816
555.314,60.6644,-0.81223,0.14009,0.79761
556.114,60.74409,-0.81199,0.14056,0.79707
556.914,60.8239,-0.81222,0.14006,0.79652
557.714,60.9035,-0.8109,0.14242,0.79597
558.514,60.9834,-0.81058,0.14186,0.79542
559.314,61.0631,-0.81152,0.14223,0.79487
560.114,61.14261,-0.81322,0.14363,0.79431
560.914,61.2223,-0.81453,0.14066,0.79376
561.714,61.3021,-0.81387,0.14257,0.79321
562.514,61.38227,-0.81309,0.14563,0.79266
563.314,61.46226,-0.81222,0.14059,0.7921
564.114,61.54229,-0.81204,0.14329,0.79155
564.914,61.62214,-0.80955,0.14402,0.79099
565.714,61.7018,-0.80959,0.1461,0.79044
566.514,61.7815,-0.80958,0.14514,0.78988
567.314,61.8615,-0.81157,0.14852,0.78932
568.114,61.9414,-0.81354,0.14552,0.78876
568.914,62.02115,-0.81223,0.14791,0.78821
569.714,62.10096,-0.81223,0.14842,0.78765
570.514,62.18079,-0.81354,0.14958,0.78709
571.314,62.2608,-0.81354,0.14626,0.78653
572.114,62.3407,-0.81223,0.15146,0.78597
572.914,62.42089,-0.81223,0.14867,0.78541
573.714,62.501,-0.81256,0.14857,0.78484
574.514,62.5811,-0.81256,0.15252,0.78428
575.314,62.6613,-0.81386,0.14993,0.78372
576.114,62.7413,-0.81584,0.15104,0.78316
576.914,62.82115,-0.81716,0.15326,0.78259
577.714,62.9009,-0.81643,0.1518,0.78203
578.514,62.9809,-0.81354,0.15047,0.78146
579.314,63.06004,-0.81354,0.15,0.7809
580.114,63.1394,-0.81486,0.14911,0.78033
580.914,63.2194,-0.81617,0.15081,0.77976
581.714,63.3,-0.81617,0.1486,0.77919
582.514,63.38041,-0.81716,0.15038,0.77863
583.314,63.46065,-0.81716,0.15059,0.77806
584.114,63.5407,-0.81712,0.15105,0.77749
584.914,63.62047,-0.81585,0.15308,0.77692
585.714,63.70061,-0.81453,0.15119,0.77635
586.514,63.7808,-0.81453,0.15024,0.77578
587.314,63.86107,-0.81453,0.15158,0.7752
588.114,63.94087,-0.81453,0.14928,0.77463
588.914,64.02088,-0.81453,0.15334,0.77406
589.714,64.1011,-0.81716,0.15208,0.77348
590.514,64.18154,-0.81717,0.15199,0.77291
591.314,64.262,-0.81981,0.15305,0.77234
592.114,64.34212,-0.81996,0.15621,0.77176
592.914,64.4225,-0.82109,0.15509,0.77118
593.714,64.50278,-0.82103,0.15925,0.77061
594.514,64.58325,-0.82112,0.15744,0.77003
595.314,64.6634,-0.82109,0.15819,0.76945
596.114,64.74331,-0.81962,0.1626,0.76887
596.914,64.82326,-0.81762,0.15984,0.76829
597.714,64.90363,-0.81749,0.16005,0.76771
598.514,64.98436,-0.81771,0.16201,0.76713
599.314,65.06437,-0.81882,0.1618,0.76655
600.114,65.1443,-0.8216,0.16112,0.76597
600.914,65.22445,-0.82286,0.16508,0.76539
601.714,65.30465,-0.82279,0.16555,0.76481
602.514,65.38492,-0.82155,0.16399,0.76422
603.314,65.46499,-0.82155,0.16679,0.76364
604.114,65.54541,-0.82155,0.16789,0.76306
604.914,65.62584,-0.82156,0.16811,0.76247
605.714,65.70653,-0.81986,0.16807,0.76189
606.514,65.78697,-0.81793,0.16975,0.7613
607.314,65.86739,-0.82007,0.17382,0.76071
608.114,65.94798,-0.82378,0.16916,0.76013
608.914,66.02853,-0.82528,0.17443,0.75954
609.714,66.1091,-0.82945,0.17402,0.75895
610.514,66.18925,-0.82945,0.18033,0.75836
611.314,66.26889,-0.82813,0.18313,0.75777
612.114,66.3492,-0.82669,0.18255,0.75718
612.914,66.43005,-0.82407,0.18691,0.75659
613.714,66.5108,-0.82674,0.18768,0.756
614.514,66.59108,-0.82539,0.19192,0.7554
615.314,66.6713,-0.82469,0.19185,0.75481
616.114,66.75163,-0.82544,0.19893,0.75422
616.914,66.83165,-0.82627,0.19922,0.75362
617.714,66.91171,-0.82627,0.20143,0.75303
618.514,66.99164,-0.82495,0.20235,0.75244
619.314,67.07165,-0.82396,0.20387,0.75184
620.114,67.15173,-0.82264,0.20809,0.75124
620.914,67.2312,-0.82396,0.21118,0.75065
621.714,67.31085,-0.82611,0.21357,0.75005
622.514,67.391,-0.82801,0.2161,0.74945
623.314,67.47168,-0.82931,0.22104,0.74885
624.114,67.55213,-0.83164,0.21847,0.74825
624.914,67.63244,-0.83164,0.2213,0.74765
625.714,67.71276,-0.83164,0.22667,0.74705
626.514,67.79299,-0.83461,0.22818,0.74645
627.314,67.87345,-0.83569,0.22745,0.74585
628.114,67.95376,-0.83581,0.23053,0.74525
628.914,68.03403,-0.83449,0.23244,0.74464
629.714,68.1144,-0.83449,0.23319,0.74404
630.514,68.19463,-0.83449,0.23321,0.74344
631.314,68.2749,-0.83449,0.23822,0.74283
632.114,68.35507,-0.8374,0.23907,0.74223
632.914,68.4354,-0.83867,0.24181,0.74162
633.714,68.51573,-0.83867,0.24457,0.74102
634.514,68.59611,-0.83978,0.24319,0.74041
635.314,68.6763,-0.83997,0.24728,0.7398
636.114,68.75659,-0.83997,0.24856,0.73919
636.914,68.83695,-0.83997,0.24808,0.73858
637.714,68.9173,-0.84128,0.25043,0.73798
638.514,68.99781,-0.84244,0.2483,0.73737
639.314,69.0783,-0.8426,0.2513,0.73676
640.114,69.15847,-0.84518,0.25239,0.73614
640.914,69.23876,-0.84651,0.25368,0.73553
641.714,69.31897,-0.84788,0.25493,0.73492
642.514,69.39907,-0.8492,0.25762,0.73431
643.314,69.47918,-0.8505,0.26038,0.73369
644.114,69.55935,-0.8505,0.25792,0.73308
644.914,69.6396,-0.85148,0.25688,0.73247
645.714,69.72,-0.85412,0.25352,0.73185
646.514,69.80041,-0.85676,0.25712,0.73124
647.314,69.88086,-0.85577,0.25884,0.73062
648.114,69.96104,-0.85577,0.25344,0.73
648.914,70.04142,-0.85446,0.25477,0.72939
649.714,70.1217,-0.85625,0.25547,0.72877
650.514,70.20224,-0.85929,0.25443,0.72815
651.314,70.28256,-0.8606,0.25076,0.72753
652.114,70.3629,-0.86191,0.25326,0.72691
652.914,70.44323,-0.8606,0.2519,0.72629
653.714,70.5237,-0.86165,0.24685,0.72567
654.514,70.604,-0.86027,0.25243,0.72505
655.314,70.68432,-0.8619,0.24991,0.72443
656.114,70.76465,-0.86191,0.249,0.7238
656.914,70.84519,-0.86191,0.24468,0.72318
657.714,70.92589,-0.86323,0.24958,0.72256
658.514,71.00652,-0.86318,0.24619,0.72193
659.314,71.087,-0.86972,0.24734,0.72131
660.114,71.16745,-0.8732,0.24744,0.72068
660.914,71.2479,-0.87157,0.24816,0.72006
661.714,71.32858,-0.86894,0.24583,0.71943
662.514,71.40919,-0.86765,0.24521,0.7188
663.314,71.48971,-0.86893,0.24845,0.71818
664.114,71.5701,-0.87025,0.24274,0.71755
664.914,71.65049,-0.87024,0.24781,0.71692
665.714,71.73085,-0.87393,0.24486,0.71629
666.514,71.81132,-0.87551,0.2435,0.71566
667.314,71.89161,-0.87563,0.24789,0.71503
668.114,71.97196,-0.87957,0.24507,0.7144
668.914,72.05245,-0.88093,0.24379,0.71377
669.714,72.13283,-0.88154,0.24603,0.71313
670.514,72.21361,-0.88316,0.24198,0.7125
671.314,72.29442,-0.88558,0.24763,0.71187
672.114,72.37559,-0.88561,0.24623,0.71123
672.914,72.45617,-0.88738,0.24529,0.7106
673.714,72.53668,-0.88816,0.24278,0.70996
674.514,72.61711,-0.8903,0.24632,0.70933
675.314,72.69735,-0.89317,0.24792,0.70869
676.114,72.77768,-0.89317,0.24237,0.70806
676.914,72.85814,-0.89185,0.24457,0.70742
677.714,72.93862,-0.89187,0.24173,0.70678
678.514,73.01898,-0.89346,0.24044,0.70614
679.314,73.0994,-0.89625,0.23744,0.7055
680.114,73.18001,-0.89767,0.23151,0.70487
680.914,73.26048,-0.89767,0.232,0.70423
681.714,73.3407,-0.89602,0.22609,0.70359
682.514,73.42105,-0.89569,0.22702,0.70294
683.314,73.5014,-0.89701,0.22039,0.7023
684.114,73.58189,-0.89834,0.22263,0.70166
684.914,73.66221,-0.89964,0.21974,0.70102
685.714,73.7426,-0.89991,0.21727,0.70037
686.514,73.82296,-0.9014,0.21355,0.69973
687.314,73.90355,-0.90161,0.21089,0.69909
688.114,73.98421,-0.90318,0.21058,0.69844
688.914,74.06505,-0.90448,0.20523,0.6978
689.714,74.1458,-0.90316,0.20156,0.69715
690.514,74.2264,-0.90319,0.19997,0.6965
691.314,74.30717,-0.90556,0.19511,0.69586
692.114,74.3879,-0.90673,0.19246,0.69521
692.914,74.46847,-0.90689,0.18362,0.69456
693.714,74.54925,-0.90689,0.17788,0.69391
694.514,74.63025,-0.90952,0.17474,0.69326
695.314,74.71121,-0.91081,0.17347,0.69261
696.114,74.7924,-0.91248,0.16537,0.69196
696.914,74.87393,-0.91432,0.16482,0.69131
697.714,74.95543,-0.91443,0.16155,0.69066
698.514,75.03676,-0.91446,0.15421,0.69001
699.314,75.11785,-0.91314,0.14952,0.68936
700.114,75.19878,-0.9129,0.14543,0.68871
700.914,75.2797,-0.9115,0.14513,0.68805
701.714,75.36052,-0.91281,0.14289,0.6874
702.514,75.44159,-0.91409,0.13972,0.68674
703.314,75.5227,-0.91379,0.13455,0.68609
704.114,75.60356,-0.91182,0.13234,0.68543
704.914,75.68449,-0.91182,0.1278,0.68478
705.714,75.76513,-0.91176,0.12905,0.68412
706.514,75.84611,-0.91409,0.1277,0.68347
707.314,75.92721,-0.91545,0.12538,0.68281
708.114,76.00824,-0.91676,0.12412,0.68215
708.914,76.089,-0.91676,0.12281,0.68149
709.714,76.16974,-0.91806,0.12759,0.68083
710.514,76.25052,-0.91808,0.12497,0.68017
711.314,76.3314,-0.91785,0.12464,0.67951
712.114,76.4119,-0.91828,0.12585,0.67885
712.914,76.4916,-0.91938,0.12194,0.67819
713.714,76.5714,-0.91676,0.12198,0.67753
714.514,76.65191,-0.91758,0.12699,0.67687
715.314,76.7325,-0.91807,0.12194,0.67621
716.114,76.81312,-0.91774,0.12229,0.67554
716.914,76.89358,-0.91774,0.12222,0.67488
717.714,76.97439,-0.91914,0.12031,0.67422
718.514,77.05512,-0.91775,0.11932,0.67355
719.314,77.136,-0.91643,0.11856,0.67289
720.114,77.21696,-0.91505,0.11802,0.67222
720.914,77.29776,-0.91643,0.11937,0.67155
721.714,77.37853,-0.91917,0.12141,0.67089
722.514,77.45963,-0.91916,0.12018,0.67022
723.314,77.54098,-0.92007,0.12065,0.66955
724.114,77.6225,-0.92048,0.11954,0.66889
724.914,77.70344,-0.92048,0.11718,0.66822
725.714,77.78437,-0.92048,0.12039,0.66755
726.514,77.86455,-0.92048,0.11827,0.66688
727.314,77.94442,-0.92048,0.12179,0.66621
728.114,78.02525,-0.9218,0.12051,0.66554
728.914,78.1066,-0.92049,0.11949,0.66487
729.714,78.18765,-0.92185,0.12108,0.6642
730.514,78.26858,-0.92311,0.1194,0.66352
731.314,78.34953,-0.92443,0.11986,0.66285
732.114,78.43075,-0.92313,0.12044,0.66218
732.914,78.51233,-0.92215,0.11676,0.66151
733.714,78.59388,-0.92167,0.11678,0.66083
734.514,78.67496,-0.92054,0.11754,0.66016
735.314,78.75601,-0.92238,0.12034,0.65948
736.114,78.83704,-0.92312,0.12185,0.65881
736.914,78.91784,-0.92312,0.12169,0.65813
737.714,78.99876,-0.92312,0.11666,0.65746
738.514,79.07975,-0.92312,0.11962,0.65678
739.314,79.16064,-0.92351,0.11584,0.6561
740.114,79.24161,-0.92443,0.11868,0.65542
740.914,79.3226,-0.92578,0.12135,0.65475
741.714,79.40358,-0.92312,0.11901,0.65407
742.514,79.4847,-0.92444,0.12334,0.65339
743.314,79.56591,-0.92444,0.12182,0.65271
744.114,79.647,-0.92444,0.11803,0.65203
744.914,79.7282,-0.92578,0.12102,0.65135
745.714,79.8094,-0.92443,0.12116,0.65067
746.514,79.89062,-0.92444,0.11712,0.64999
747.314,79.97152,-0.92314,0.12107,0.64931
748.114,80.05233,-0.92236,0.12069,0.64862
748.914,80.13303,-0.92522,0.12396,0.64794
749.714,80.21385,-0.92652,0.11786,0.64726
750.514,80.29456,-0.92652,0.11879,0.64658
751.314,80.37535,-0.92652,0.11817,0.64589
752.114,80.4562,-0.92783,0.11841,0.64521
752.914,80.53703,-0.9279,0.12016,0.64452
753.714,80.61793,-0.92784,0.1215,0.64384
754.514,80.69891,-0.92784,0.11903,0.64315
755.314,80.77977,-0.92784,0.12273,0.64247
756.114,80.86073,-0.92683,0.12235,0.64178
756.914,80.94198,-0.92788,0.11679,0.64109
757.714,81.02328,-0.92783,0.11927,0.64041
758.514,81.10429,-0.9288,0.12212,0.63972
759.314,81.18517,-0.92913,0.12326,0.63903
760.114,81.26608,-0.9285,0.11726,0.63834
760.914,81.3468,-0.92908,0.12173,0.63765
761.714,81.42772,-0.92915,0.11605,0.63696
762.514,81.50861,-0.92916,0.11774,0.63627
763.314,81.5898,-0.93012,0.11886,0.63558
764.114,81.67075,-0.93047,0.11649,0.63489
764.914,81.7516,-0.93047,0.11581,0.6342
765.714,81.83251,-0.9308,0.11495,0.63351
766.514,81.91364,-0.93178,0.1173,0.63282
767.314,81.99486,-0.93041,0.11762,0.63213
768.114,82.07592,-0.92915,0.11663,0.63143
768.914,82.15696,-0.92891,0.11824,0.63074
769.714,82.23821,-0.92793,0.11696,0.63005
770.514,82.31963,-0.92915,0.11842,0.62935
771.314,82.4008,-0.93046,0.11758,0.62866
772.114,82.48223,-0.93186,0.11646,0.62796
772.914,82.5639,-0.93298,0.11751,0.62727
773.714,82.64564,-0.93398,0.11577,0.62657
774.514,82.72715,-0.93475,0.11879,0.62588
775.314,82.80853,-0.93344,0.11572,0.62518
776.114,82.8895,-0.93342,0.11664,0.62448
776.914,82.97064,-0.9308,0.11712,0.62379
777.714,83.05195,-0.9308,0.11512,0.62309
778.514,83.13384,-0.93245,0.11394,0.62239
779.314,83.21489,-0.9341,0.11761,0.62169
780.114,83.2958,-0.93409,0.11274,0.62099
780.914,83.3767,-0.93409,0.11403,0.62029
781.714,83.45764,-0.93409,0.11581,0.61959
782.514,83.5386,-0.93667,0.11121,0.61889
783.314,83.61955,-0.93804,0.11446,0.61819
784.114,83.70054,-0.93946,0.11101,0.61749
784.914,83.78129,-0.93946,0.1122,0.61679
785.714,83.8622,-0.93884,0.1163,0.61609
786.514,83.9427,-0.93749,0.11398,0.61539
787.314,84.02311,-0.93774,0.11938,0.61469
788.114,84.10384,-0.94031,0.11899,0.61399
788.914,84.18496,-0.94175,0.11723,0.61328
789.714,84.26649,-0.94165,0.12174,0.61258
790.514,84.34783,-0.93913,0.11691,0.61188
791.314,84.42911,-0.93913,0.11493,0.61117
792.114,84.51116,-0.93815,0.11719,0.61047
792.914,84.59302,-0.93949,0.11937,0.60976
793.714,84.67479,-0.94078,0.12021,0.60906
794.514,84.75594,-0.94079,0.135,0.60835
795.314,84.83695,-0.93947,0.13826,0.60765
796.114,84.91801,-0.94077,0.14405,0.60694
796.914,84.99934,-0.94076,0.14219,0.60623
797.714,85.08038,-0.9421,0.13972,0.60553
798.514,85.16144,-0.94341,0.14075,0.60482
799.314,85.24257,-0.94484,0.14211,0.60411
800.114,85.324,-0.94741,0.1454,0.60341
800.914,85.40518,-0.94733,0.14757,0.6027
801.714,85.48646,-0.94802,0.14618,0.60199
802.514,85.568,-0.94802,0.14454,0.60128
803.314,85.64945,-0.94802,0.15043,0.60057
804.114,85.7306,-0.94835,0.14929,0.59986
804.914,85.8121,-0.9457,0.15267,0.59915
805.714,85.89381,-0.94698,0.14997,0.59844
806.514,85.9751,-0.94933,0.15412,0.59773
807.314,86.05637,-0.94909,0.15176,0.59702
808.114,86.1376,-0.95043,0.15847,0.59631
808.914,86.21884,-0.94978,0.15054,0.5956
809.714,86.30011,-0.95108,0.15319,0.59489
810.514,86.38124,-0.95239,0.15222,0.59418
811.314,86.4624,-0.95241,0.15194,0.59346
812.114,86.5437,-0.95231,0.15398,0.59275
812.914,86.62509,-0.95241,0.15052,0.59204
813.714,86.70652,-0.9542,0.15534,0.59132
814.514,86.78772,-0.95515,0.15536,0.59061
815.314,86.8689,-0.95647,0.16113,0.5899
816.114,86.95036,-0.95647,0.15998,0.58918
816.914,87.0316,-0.95582,0.16164,0.58847
817.714,87.1127,-0.9571,0.16371,0.58775
818.514,87.194,-0.95717,0.16353,0.58704
819.314,87.27526,-0.95976,0.16594,0.58632
820.114,87.35661,-0.95844,0.16507,0.58561
820.914,87.43806,-0.95712,0.17158,0.58489
821.714,87.51946,-0.95844,0.16842,0.58418
822.514,87.601,-0.96101,0.17483,0.58346
823.314,87.68223,-0.96089,0.17749,0.58274
824.114,87.76366,-0.96236,0.18294,0.58203
824.914,87.84485,-0.96469,0.18637,0.58131
825.714,87.92617,-0.96473,0.19126,0.58059
826.514,88.00734,-0.96304,0.19066,0.57987
827.314,88.0886,-0.9657,0.19432,0.57915
828.114,88.1699,-0.96568,0.19585,0.57844
828.914,88.25121,-0.96883,0.19918,0.57772
829.714,88.3322,-0.96768,0.20393,0.577
830.514,88.41296,-0.96698,0.20596,0.57628
831.314,88.49359,-0.96963,0.21266,0.57556
832.114,88.5746,-0.96826,0.21384,0.57484
832.914,88.6563,-0.97103,0.2133,0.57412
833.714,88.73777,-0.97236,0.21974,0.5734
834.514,88.81945,-0.97369,0.22018,0.57268
835.314,88.9011,-0.97368,0.22385,0.57196
836.114,88.98249,-0.975,0.22222,0.57124
836.914,89.06395,-0.975,0.22546,0.57052
837.714,89.14564,-0.97562,0.23008,0.56979
838.514,89.22747,-0.975,0.23547,0.56907
839.314,89.30915,-0.97772,0.23466,0.56835
840.114,89.3909,-0.98114,0.2401,0.56763
840.914,89.47255,-0.98351,0.23842,0.56691
841.714,89.554,-0.98499,0.24289,0.56618
842.514,89.63546,-0.98366,0.24221,0.56546
843.314,89.71682,-0.98235,0.2451,0.56474
844.114,89.79794,-0.98235,0.24476,0.56401
844.914,89.87923,-0.98236,0.25376,0.56329
845.714,89.9609,-0.98497,0.25166,0.56257
846.514,90.04258,-0.98367,0.25247,0.56184
847.314,90.1238,-0.98367,0.25836,0.56112
848.114,90.20483,-0.98502,0.25965,0.56039
848.914,90.28614,-0.98968,0.26535,0.55967
849.714,90.3673,-0.99114,0.26279,0.55894
850.514,90.4486,-0.99237,0.26421,0.55822
851.314,90.53009,-0.9953,0.27162,0.55749
852.114,90.61142,-0.99661,0.26866,0.55677
852.914,90.69266,-0.99814,0.27318,0.55604
853.714,90.77372,-1.00063,0.27354,0.55532
854.514,90.85515,-1.00335,0.27458,0.55459
855.314,90.9366,-1.00198,0.27722,0.55386
856.114,91.01814,-1.00198,0.27825,0.55314
856.914,91.09957,-1.00066,0.27552,0.55241
857.714,91.18128,-1.00197,0.27854,0.55168
858.514,91.26294,-1.00461,0.27817,0.55095
859.314,91.34438,-1.00571,0.27524,0.55023
860.114,91.4255,-1.00464,0.27277,0.5495
860.914,91.50681,-1.00593,0.26992,0.54877
861.714,91.58785,-1.00724,0.26416,0.54804
862.514,91.66906,-1.00851,0.26153,0.54732
863.314,91.75023,-1.01141,0.25199,0.54659
864.114,91.8319,-1.01294,0.24874,0.54586
864.914,91.91331,-1.01695,0.23488,0.54513
865.714,91.99465,-1.01823,0.22637,0.5444
866.514,92.07601,-1.01998,0.2197,0.54367
867.314,92.1571,-1.02118,0.20683,0.54294
868.114,92.23849,-1.01982,0.193,0.54221
868.914,92.32001,-1.0169,0.18786,0.54148
869.714,92.4016,-1.01579,0.17149,0.54075
870.514,92.48292,-1.01695,0.16837,0.54002
871.314,92.56437,-1.01822,0.16264,0.53929
872.114,92.64604,-1.01888,0.1537,0.53856
872.914,92.7275,-1.01885,0.14849,0.53783
873.714,92.80897,-1.02052,0.14489,0.5371
874.514,92.89061,-1.02117,0.14143,0.53637
875.314,92.97234,-1.02118,0.13168,0.53564
876.114,93.0541,-1.02055,0.12592,0.53491
876.914,93.1356,-1.02346,0.12823,0.53418
877.714,93.2173,-1.02448,0.12563,0.53345
878.514,93.29906,-1.0248,0.12306,0.53272
879.314,93.38085,-1.02441,0.1195,0.53199
880.114,93.4626,-1.02382,0.12065,0.53125
880.914,93.5442,-1.02382,0.1172,0.53052
881.714,93.62525,-1.02396,0.11764,0.52979
882.514,93.70652,-1.02376,0.11332,0.52906
883.314,93.78772,-1.02643,0.11906,0.52833
884.114,93.86925,-1.02707,0.11495,0.52759
884.914,93.95065,-1.0271,0.10889,0.52686
885.714,94.03194,-1.02905,0.10914,0.52613
886.514,94.11312,-1.02985,0.10648,0.5254
887.314,94.19447,-1.03113,0.1077,0.52466
888.114,94.27583,-1.02953,0.10257,0.52393
888.914,94.35744,-1.02897,0.10457,0.5232
889.714,94.43916,-1.03028,0.10004,0.52247
890.514,94.52055,-1.03056,0.10361,0.52173
891.314,94.602,-1.02827,0.10222,0.521
892.114,94.6832,-1.03143,0.10546,0.52027
892.914,94.76487,-1.03116,0.10573,0.51953
893.714,94.8461,-1.0312,0.10673,0.5188
894.514,94.9271,-1.02855,0.10772,0.51807
895.214,94.99786,-1.03126,0.10685,0.51742