File: 01_Data/Lightweight_Gypsum_Wallboard_Gypsum_Core/STA/N2/10K_min/Lightweight_Gypsum_Wallboard_Gypsum_Core_STA_N2_10KData_222402_R1.csv
##Temp./Â°C,Time/min,Mass loss(subtr.2)/mg,DSC(subtr.2)/(mW/mg),Sensit./(uV/mW)
49.816,10.00917,-0.00197,0.01053938,1.07509
50.616,10.79135,-0.00307556,0.04012226,1.07468
51.416,11.00886,-0.004517731,0.06389675,1.07426
52.216,11.1715,-0.005077623,0.08362026,1.07384
53.016,11.31142,-0.004830666,0.09672118,1.07343
53.816,11.43591,-0.0055643,0.10809,1.07301
54.616,11.55139,-0.004183684,0.11976,1.07259
55.416,11.66111,-0.004109805,0.12921,1.07218
56.216,11.76555,-0.004699727,0.13855,1.07176
57.016,11.86614,-0.006013564,0.14522,1.07135
57.816,11.964,-0.004393206,0.15289,1.07093
58.616,12.05941,-0.005792141,0.15779,1.07051
59.416,12.15333,-0.00482652,0.16028,1.0701
60.216,12.2458,-0.00513576,0.16512,1.06968
61.016,12.33699,-0.00634531,0.17316,1.06927
61.816,12.42726,-0.004964092,0.17613,1.06885
62.616,12.5166,-0.00531498,0.18131,1.06843
63.416,12.60561,-0.00635956,0.1851,1.06802
64.216,12.69355,-0.00635,0.18796,1.0676
65.016,12.78087,-0.006368,0.19349,1.06719
65.816,12.86788,-0.00767997,0.19615,1.06677
66.616,12.95505,-0.007680005,0.19932,1.06636
67.416,13.04168,-0.008550958,0.20358,1.06594
68.216,13.12781,-0.008992896,0.20739,1.06553
69.016,13.2133,-0.00768149,0.21177,1.06511
69.816,13.29861,-0.008989774,0.21581,1.0647
70.616,13.38427,-0.00900799,0.2205,1.06429
71.416,13.46964,-0.01031625,0.22439,1.06387
72.216,13.55425,-0.009001288,0.22842,1.06346
73.016,13.63863,-0.01031005,0.23275,1.06304
73.816,13.72287,-0.01160267,0.23906,1.06263
74.616,13.8066,-0.01033554,0.24305,1.06221
75.416,13.8904,-0.01161469,0.24599,1.0618
76.216,13.9742,-0.01294679,0.25261,1.06139
77.016,14.0577,-0.01293896,0.2578,1.06097
77.816,14.1414,-0.01277263,0.26355,1.06056
78.616,14.22473,-0.01295,0.2669,1.06015
79.416,14.30786,-0.01350162,0.27178,1.05973
80.216,14.3906,-0.01558448,0.2777,1.05932
81.016,14.47296,-0.01554068,0.28593,1.05891
81.816,14.55509,-0.01689994,0.28913,1.05849
82.616,14.6373,-0.01691996,0.29778,1.05808
83.416,14.71916,-0.01491995,0.30585,1.05767
84.216,14.80078,-0.01622636,0.31352,1.05726
85.016,14.88219,-0.01821022,0.32348,1.05684
85.816,14.9635,-0.01848791,0.33681,1.05643
86.616,15.04454,-0.02020158,0.3462,1.05602
87.416,15.12454,-0.02150205,0.35892,1.05561
88.216,15.2043,-0.02281036,0.3707,1.05519
89.016,15.2848,-0.02280998,0.38687,1.05478
89.816,15.3654,-0.02550297,0.4027,1.05437
90.616,15.44617,-0.02674585,0.42157,1.05396
91.416,15.52691,-0.02807994,0.43993,1.05355
92.216,15.6065,-0.02938343,0.46048,1.05313
93.016,15.6868,-0.03202921,0.48152,1.05272
93.816,15.76728,-0.03335289,0.50647,1.05231
94.616,15.84787,-0.03468342,0.53407,1.0519
95.416,15.92806,-0.03635602,0.56226,1.05149
96.216,16.0082,-0.03869552,0.58744,1.05108
97.016,16.08801,-0.0427853,0.6233,1.05067
97.816,16.16753,-0.04522288,0.65757,1.05025
98.616,16.2478,-0.04926193,0.69197,1.04984
99.416,16.3285,-0.0522265,0.73116,1.04943
100.216,16.40916,-0.05494945,0.76887,1.04902
101.016,16.48865,-0.05921355,0.80536,1.04861
101.816,16.56794,-0.06317935,0.84617,1.0482
102.616,16.6474,-0.06792953,0.88499,1.04779
103.416,16.72695,-0.07250606,0.92289,1.04738
104.216,16.80635,-0.0763938,0.96192,1.04697
105.016,16.8855,-0.0809359,1.00073,1.04656
105.816,16.96484,-0.08743191,1.04118,1.04615
106.616,17.04412,-0.09250759,1.08172,1.04574
107.416,17.1236,-0.0985744,1.12165,1.04533
108.216,17.203,-0.10517,1.16454,1.04492
109.016,17.2825,-0.11197,1.21253,1.04451
109.816,17.3617,-0.11876,1.26852,1.0441
110.616,17.44104,-0.12585,1.34094,1.04369
111.416,17.52,-0.13396,1.4404,1.04328
112.216,17.59971,-0.14298,1.56996,1.04287
113.016,17.67987,-0.15255,1.74305,1.04246
113.816,17.76053,-0.1645,1.93651,1.04206
114.616,17.84113,-0.17728,2.11917,1.04165
115.416,17.92204,-0.19038,2.2894,1.04124
116.216,18.00335,-0.20498,2.46187,1.04083
117.016,18.08434,-0.21939,2.62678,1.04042
117.816,18.16561,-0.23579,2.79016,1.04001
118.616,18.2468,-0.25503,2.94816,1.0396
119.416,18.32803,-0.27356,3.09761,1.03919
120.216,18.40971,-0.29298,3.23482,1.03879
121.016,18.49127,-0.31294,3.35363,1.03838
121.816,18.57287,-0.33345,3.44592,1.03797
122.616,18.654,-0.35372,3.50716,1.03756
123.416,18.73474,-0.37357,3.53431,1.03715
124.216,18.8149,-0.39516,3.51881,1.03675
125.016,18.89493,-0.41522,3.46705,1.03634
125.816,18.97508,-0.43472,3.3803,1.03593
126.616,19.05467,-0.45149,3.26698,1.03552
127.416,19.13356,-0.46858,3.15746,1.03512
128.216,19.2119,-0.48434,3.08098,1.03471
129.016,19.29,-0.50111,3.05062,1.0343
129.816,19.36809,-0.51734,3.06568,1.03389
130.616,19.44633,-0.53203,3.11325,1.03349
131.416,19.52444,-0.54817,3.178,1.03308
132.216,19.6026,-0.56331,3.23681,1.03267
133.016,19.681,-0.5802,3.27732,1.03227
133.816,19.75935,-0.59597,3.29263,1.03186
134.616,19.8377,-0.6134,3.28786,1.03145
135.416,19.91592,-0.62951,3.25529,1.03104
136.216,19.99355,-0.64537,3.17991,1.03064
137.016,20.0712,-0.66055,3.00021,1.03023
137.816,20.14798,-0.67322,2.58702,1.02983
138.616,20.22423,-0.6805,2.05963,1.02942
139.416,20.29928,-0.68555,1.61218,1.02901
140.216,20.3734,-0.6902,1.27284,1.02861
141.016,20.44706,-0.69277,1.02113,1.0282
141.816,20.5204,-0.6941,0.83998,1.02779
142.616,20.594,-0.69541,0.70234,1.02739
143.416,20.66733,-0.69672,0.6024,1.02698
144.216,20.74119,-0.69802,0.52738,1.02658
145.016,20.81525,-0.6994,0.46977,1.02617
145.816,20.88922,-0.70068,0.42819,1.02576
146.616,20.9631,-0.702,0.39531,1.02536
147.416,21.03657,-0.702,0.3648,1.02495
148.216,21.11047,-0.70331,0.34659,1.02455
149.016,21.18506,-0.70408,0.32843,1.02414
149.816,21.26042,-0.70561,0.31173,1.02374
150.616,21.33621,-0.70661,0.29853,1.02333
151.416,21.4121,-0.7066,0.28742,1.02293
152.216,21.48733,-0.70688,0.2804,1.02252
153.016,21.5626,-0.70703,0.26902,1.02212
153.816,21.63787,-0.70725,0.26288,1.02171
154.616,21.71348,-0.70857,0.25722,1.02131
155.416,21.78904,-0.70989,0.25046,1.0209
156.216,21.865,-0.70989,0.24628,1.0205
157.016,21.94077,-0.7099,0.23588,1.02009
157.816,22.01695,-0.71121,0.23438,1.01969
158.616,22.09289,-0.71217,0.23255,1.01928
159.416,22.16858,-0.71253,0.22627,1.01888
160.216,22.24428,-0.71144,0.22401,1.01847
161.016,22.3199,-0.71154,0.22086,1.01807
161.816,22.39576,-0.7128,0.22013,1.01766
162.616,22.47176,-0.71417,0.21698,1.01726
163.416,22.54812,-0.71418,0.21477,1.01686
164.216,22.62448,-0.71549,0.211,1.01645
165.016,22.70058,-0.71549,0.20811,1.01605
165.816,22.77627,-0.71549,0.20696,1.01564
166.616,22.85238,-0.71549,0.20546,1.01524
167.416,22.92869,-0.7168,0.2045,1.01483
168.216,23.00478,-0.7168,0.20195,1.01443
169.016,23.08074,-0.7168,0.20092,1.01403
169.816,23.15624,-0.7168,0.19985,1.01362
170.616,23.2329,-0.71809,0.2,1.01322
171.416,23.3096,-0.71812,0.19727,1.01282
172.216,23.3866,-0.71812,0.19553,1.01241
173.016,23.4631,-0.71814,0.19485,1.01201
173.816,23.53968,-0.71944,0.19335,1.0116
174.616,23.61593,-0.71944,0.19365,1.0112
175.416,23.6923,-0.71878,0.19398,1.0108
176.216,23.76838,-0.71878,0.19092,1.01039
177.016,23.84488,-0.72009,0.19287,1.00999
177.816,23.92141,-0.7201,0.19076,1.00959
178.616,23.9981,-0.72074,0.18763,1.00918
179.416,24.07466,-0.72204,0.18782,1.00878
180.216,24.15134,-0.72205,0.18753,1.00837
181.016,24.22798,-0.72075,0.18733,1.00797
181.816,24.30452,-0.72338,0.18409,1.00757
182.616,24.38107,-0.72273,0.18699,1.00716
183.416,24.45774,-0.72219,0.18386,1.00676
184.216,24.53444,-0.72141,0.18406,1.00636
185.016,24.61104,-0.72148,0.18428,1.00595
185.816,24.6875,-0.72252,0.18119,1.00555
186.616,24.76406,-0.72266,0.18135,1.00515
187.416,24.84054,-0.72404,0.17784,1.00475
188.216,24.91694,-0.72282,0.18012,1.00434
189.016,24.99326,-0.72273,0.18082,1.00394
189.816,25.06979,-0.72404,0.17827,1.00354
190.616,25.14649,-0.72404,0.1799,1.00313
191.416,25.22296,-0.72363,0.17949,1.00273
192.216,25.29932,-0.7247,0.18105,1.00233
193.016,25.37554,-0.7247,0.18033,1.00192
193.816,25.45182,-0.72468,0.17786,1.00152
194.616,25.52841,-0.7247,0.17808,1.00112
195.416,25.60474,-0.7247,0.17859,1.00071
196.216,25.68134,-0.7247,0.18003,1.00031
197.016,25.75706,-0.72601,0.17895,0.99991
197.816,25.83335,-0.72601,0.18033,0.9995
198.616,25.9098,-0.72601,0.17794,0.9991
199.416,25.9867,-0.72601,0.17873,0.9987
200.216,26.06319,-0.72601,0.1777,0.9983
201.016,26.13935,-0.72601,0.17998,0.99789
201.816,26.21575,-0.72601,0.17755,0.99749
202.616,26.29212,-0.72601,0.17855,0.99709
203.416,26.3683,-0.72601,0.1784,0.99668
204.216,26.44443,-0.72673,0.1767,0.99628
205.016,26.5209,-0.72667,0.17911,0.99588
205.816,26.59735,-0.72667,0.18045,0.99547
206.616,26.6738,-0.72733,0.17729,0.99507
207.416,26.75013,-0.72733,0.1762,0.99467
208.216,26.82625,-0.72733,0.1778,0.99427
209.016,26.9024,-0.72733,0.17762,0.99386
209.816,26.9788,-0.72733,0.1802,0.99346
210.616,27.0555,-0.72998,0.17886,0.99306
211.416,27.1317,-0.72997,0.17604,0.99265
212.216,27.20781,-0.73,0.17565,0.99225
213.016,27.2839,-0.72864,0.17805,0.99185
213.816,27.3601,-0.72997,0.17567,0.99144
214.616,27.43603,-0.72997,0.17616,0.99104
215.416,27.5124,-0.72931,0.17398,0.99064
216.216,27.58892,-0.72931,0.17623,0.99023
217.016,27.66545,-0.73009,0.17655,0.98983
217.816,27.7421,-0.73029,0.17458,0.98943
218.616,27.8187,-0.7316,0.17258,0.98902
219.416,27.89531,-0.7316,0.17312,0.98862
220.216,27.97195,-0.73146,0.1725,0.98822
221.016,28.0486,-0.73029,0.17014,0.98781
221.816,28.12493,-0.73029,0.16952,0.98741
222.616,28.20148,-0.73029,0.16868,0.98701
223.416,28.27808,-0.73095,0.1669,0.9866
224.216,28.3552,-0.73095,0.16679,0.9862
225.016,28.43184,-0.73227,0.16597,0.9858
225.816,28.50838,-0.73227,0.16673,0.98539
226.616,28.5848,-0.73227,0.16551,0.98499
227.416,28.6614,-0.73227,0.16431,0.98459
228.216,28.7379,-0.7326,0.16641,0.98418
229.016,28.81434,-0.7326,0.16402,0.98378
229.816,28.8906,-0.73161,0.16414,0.98337
230.616,28.967,-0.73162,0.16455,0.98297
231.416,29.04325,-0.73293,0.16374,0.98257
232.216,29.11976,-0.73293,0.16535,0.98216
233.016,29.1963,-0.73293,0.16334,0.98176
233.816,29.2727,-0.73293,0.16222,0.98135
234.616,29.34913,-0.73293,0.16421,0.98095
235.416,29.42571,-0.73293,0.16502,0.98055
236.216,29.50212,-0.7326,0.16368,0.98014
237.016,29.5785,-0.73392,0.16262,0.97974
237.816,29.65478,-0.73392,0.1631,0.97933
238.616,29.7312,-0.73444,0.16174,0.97893
239.416,29.8075,-0.73404,0.16148,0.97852
240.216,29.88392,-0.73392,0.16001,0.97812
241.016,29.96015,-0.73392,0.16003,0.97772
241.816,30.0365,-0.73392,0.1582,0.97731
242.616,30.11277,-0.73523,0.15854,0.97691
243.416,30.18913,-0.73654,0.15665,0.9765
244.216,30.2655,-0.73524,0.15609,0.9761
245.016,30.34198,-0.73418,0.15697,0.97569
245.816,30.4185,-0.73424,0.15623,0.97529
246.616,30.49475,-0.7356,0.15708,0.97488
247.416,30.57125,-0.73556,0.15243,0.97448
248.216,30.6477,-0.73556,0.15233,0.97407
249.016,30.72457,-0.73556,0.15373,0.97367
249.816,30.80128,-0.73688,0.15191,0.97326
250.616,30.878,-0.7362,0.15022,0.97286
251.416,30.95451,-0.73622,0.14997,0.97245
252.216,31.031,-0.73556,0.15012,0.97204
253.016,31.1075,-0.73687,0.14845,0.97164
253.816,31.18386,-0.73679,0.15083,0.97123
254.616,31.25982,-0.73485,0.14806,0.97083
255.416,31.3361,-0.73592,0.14803,0.97042
256.216,31.4127,-0.73591,0.14863,0.97001
257.016,31.4894,-0.73688,0.14721,0.96961
257.816,31.5657,-0.73723,0.14667,0.9692
258.616,31.64191,-0.73721,0.14662,0.9688
259.416,31.71831,-0.73721,0.14592,0.96839
260.216,31.79465,-0.73824,0.14517,0.96798
261.016,31.87122,-0.73823,0.14629,0.96758
261.816,31.9477,-0.73687,0.14515,0.96717
262.616,32.02431,-0.73824,0.14686,0.96676
263.416,32.10102,-0.73818,0.14537,0.96635
264.216,32.17775,-0.73687,0.14454,0.96595
265.016,32.25434,-0.73687,0.14256,0.96554
265.816,32.3309,-0.73736,0.14197,0.96513
266.616,32.40733,-0.73852,0.14249,0.96473
267.416,32.4838,-0.73894,0.14077,0.96432
268.216,32.56023,-0.73909,0.14062,0.96391
269.016,32.6365,-0.73843,0.14133,0.9635
269.816,32.713,-0.73838,0.14152,0.96309
270.616,32.7896,-0.73786,0.14285,0.96269
271.416,32.866,-0.73918,0.14151,0.96228
272.216,32.94225,-0.73918,0.14083,0.96187
273.016,33.01853,-0.73918,0.13693,0.96146
273.816,33.0952,-0.73918,0.14051,0.96105
274.616,33.17195,-0.74015,0.13918,0.96064
275.416,33.2486,-0.74017,0.13954,0.96024
276.216,33.3252,-0.73959,0.13757,0.95983
277.016,33.4017,-0.73885,0.13849,0.95942
277.816,33.4784,-0.73885,0.1378,0.95901
278.616,33.55492,-0.74015,0.13829,0.9586
279.416,33.63155,-0.74017,0.13614,0.95819
280.216,33.70821,-0.74017,0.13451,0.95778
281.016,33.7849,-0.74085,0.13486,0.95737
281.816,33.86145,-0.74083,0.13733,0.95696
282.616,33.938,-0.74083,0.13708,0.95655
283.416,34.01468,-0.73951,0.13749,0.95614
284.216,34.09153,-0.74047,0.13831,0.95573
285.016,34.16833,-0.7405,0.13667,0.95532
285.816,34.24525,-0.74179,0.13542,0.95491
286.616,34.32208,-0.74048,0.13691,0.9545
287.416,34.3989,-0.7418,0.13576,0.95409
288.216,34.47547,-0.74181,0.13477,0.95367
289.016,34.55227,-0.74181,0.13568,0.95326
289.816,34.6289,-0.74148,0.13514,0.95285
290.616,34.70561,-0.74148,0.13764,0.95244
291.416,34.7823,-0.74148,0.1372,0.95203
292.216,34.85908,-0.74148,0.13615,0.95162
293.016,34.9358,-0.74148,0.13329,0.9512
293.816,35.01252,-0.74215,0.13385,0.95079
294.616,35.08937,-0.74214,0.13454,0.95038
295.416,35.16621,-0.74214,0.13386,0.94997
296.216,35.24307,-0.74215,0.13305,0.94955
297.016,35.32012,-0.7428,0.13241,0.94914
297.816,35.39711,-0.74346,0.13292,0.94873
298.616,35.4739,-0.74346,0.13207,0.94831
299.416,35.55072,-0.74346,0.13099,0.9479
300.216,35.62753,-0.74346,0.13188,0.94749
301.016,35.70452,-0.74478,0.12933,0.94707
301.816,35.7817,-0.74346,0.13085,0.94666
302.616,35.85877,-0.74346,0.13057,0.94624
303.416,35.9356,-0.74478,0.12721,0.94583
304.216,36.01262,-0.74478,0.13019,0.94542
305.016,36.08958,-0.74478,0.12664,0.945
305.816,36.1663,-0.74478,0.12565,0.94459
306.616,36.2432,-0.74433,0.1268,0.94417
307.416,36.32014,-0.74412,0.12664,0.94375
308.216,36.39744,-0.74464,0.12243,0.94334
309.016,36.4743,-0.74543,0.12215,0.94292
309.816,36.5514,-0.74543,0.12196,0.94251
310.616,36.62828,-0.74543,0.12278,0.94209
311.416,36.70537,-0.74542,0.12299,0.94167
312.216,36.78213,-0.7474,0.12105,0.94126
313.016,36.85925,-0.7474,0.12081,0.94084
313.816,36.9365,-0.74725,0.12316,0.94042
314.616,37.01397,-0.74599,0.12138,0.94001
315.416,37.09089,-0.7474,0.12043,0.93959
316.216,37.1678,-0.7474,0.12021,0.93917
317.016,37.2447,-0.7474,0.11973,0.93875
317.816,37.32165,-0.74747,0.12051,0.93834
318.616,37.39883,-0.74773,0.11822,0.93792
319.416,37.47591,-0.74773,0.11985,0.9375
320.216,37.5528,-0.74773,0.11924,0.93708
321.016,37.62964,-0.74869,0.11991,0.93666
321.816,37.7067,-0.74807,0.12144,0.93624
322.616,37.78378,-0.74797,0.11883,0.93582
323.416,37.86085,-0.74872,0.12253,0.9354
324.216,37.93766,-0.74841,0.12304,0.93498
325.016,38.0145,-0.7491,0.12407,0.93456
325.816,38.09151,-0.74937,0.1231,0.93414
326.616,38.16855,-0.74805,0.12519,0.93372
327.416,38.24542,-0.74842,0.12355,0.9333
328.216,38.3223,-0.74839,0.12345,0.93288
329.016,38.3994,-0.74839,0.1234,0.93246
329.816,38.47653,-0.7494,0.12207,0.93203
330.616,38.55355,-0.7507,0.12447,0.93161
331.416,38.63054,-0.7507,0.12409,0.93119
332.216,38.7077,-0.7507,0.12484,0.93077
333.016,38.78508,-0.74938,0.12216,0.93035
333.816,38.86244,-0.7507,0.12473,0.92992
334.616,38.93971,-0.7507,0.12673,0.9295
335.416,39.01725,-0.7512,0.12625,0.92908
336.216,39.09462,-0.752,0.12715,0.92865
337.016,39.1723,-0.75072,0.12655,0.92823
337.816,39.2496,-0.74938,0.12929,0.9278
338.616,39.32719,-0.75087,0.12621,0.92738
339.416,39.4044,-0.75168,0.12835,0.92695
340.216,39.48182,-0.75168,0.12569,0.92653
341.016,39.55877,-0.75168,0.12649,0.9261
341.816,39.63625,-0.7517,0.12701,0.92568
342.616,39.71353,-0.75069,0.12822,0.92525
343.416,39.79094,-0.75208,0.12759,0.92483
344.216,39.86844,-0.75201,0.12817,0.9244
345.016,39.94594,-0.7533,0.12625,0.92397
345.816,40.0231,-0.75201,0.12756,0.92355
346.616,40.10048,-0.75332,0.12596,0.92312
347.416,40.17772,-0.75333,0.12411,0.92269
348.216,40.25527,-0.75205,0.1279,0.92226
349.016,40.3328,-0.75271,0.12595,0.92184
349.816,40.41036,-0.75463,0.12627,0.92141
350.616,40.48786,-0.75333,0.12763,0.92098
351.416,40.56525,-0.75333,0.12499,0.92055
352.216,40.64282,-0.75333,0.12451,0.92012
353.016,40.7208,-0.75334,0.12383,0.91969
353.816,40.79831,-0.75432,0.12334,0.91926
354.616,40.87597,-0.7553,0.12241,0.91883
355.416,40.9535,-0.7553,0.12024,0.9184
356.216,41.0313,-0.7553,0.11886,0.91797
357.016,41.109,-0.75398,0.11794,0.91754
357.816,41.1865,-0.75551,0.1201,0.91711
358.616,41.2641,-0.75694,0.11831,0.91668
359.416,41.3416,-0.75695,0.11844,0.91624
360.216,41.41948,-0.75596,0.11774,0.91581
361.016,41.49707,-0.75596,0.11672,0.91538
361.816,41.57486,-0.75596,0.1177,0.91495
362.616,41.65242,-0.75563,0.11762,0.91451
363.416,41.73008,-0.75563,0.11811,0.91408
364.216,41.80746,-0.75815,0.11647,0.91365
365.016,41.88508,-0.75715,0.11689,0.91321
365.816,41.96285,-0.75695,0.11665,0.91278
366.616,42.0404,-0.75695,0.11449,0.91234
367.416,42.1181,-0.75695,0.1163,0.91191
368.216,42.19583,-0.75695,0.11676,0.91147
369.016,42.2736,-0.75695,0.11624,0.91104
369.816,42.3514,-0.7556,0.11792,0.9106
370.616,42.42923,-0.75661,0.1168,0.91016
371.416,42.50713,-0.75778,0.11553,0.90973
372.216,42.58477,-0.75812,0.1148,0.90929
373.016,42.6624,-0.75826,0.11732,0.90885
373.816,42.7402,-0.75892,0.11692,0.90841
374.616,42.81808,-0.75892,0.1151,0.90798
375.416,42.8961,-0.75892,0.11511,0.90754
376.216,42.9741,-0.75892,0.11623,0.9071
377.016,43.05185,-0.7576,0.11547,0.90666
377.816,43.12936,-0.7576,0.11549,0.90622
378.616,43.2067,-0.75889,0.11505,0.90578
379.416,43.28438,-0.75925,0.11292,0.90534
380.216,43.362,-0.75801,0.1108,0.9049
381.016,43.43967,-0.75826,0.11019,0.90446
381.816,43.51742,-0.75826,0.11195,0.90402
382.616,43.5953,-0.75826,0.1102,0.90358
383.416,43.67306,-0.75924,0.10725,0.90313
384.216,43.75078,-0.75959,0.10792,0.90269
385.016,43.8288,-0.76023,0.10389,0.90225
385.816,43.90672,-0.76069,0.10414,0.90181
386.616,43.98466,-0.76155,0.10433,0.90136
387.416,44.0625,-0.76155,0.1031,0.90092
388.216,44.14029,-0.76056,0.10088,0.90048
389.016,44.21837,-0.76056,0.09877455,0.90003
389.816,44.2965,-0.76056,0.10031,0.89959
390.616,44.3744,-0.76056,0.0951202,0.89914
391.416,44.4524,-0.76056,0.09259752,0.8987
392.216,44.53032,-0.76129,0.09346251,0.89825
393.016,44.60841,-0.76155,0.09042166,0.8978
393.816,44.68627,-0.76155,0.08715144,0.89736
394.616,44.7643,-0.76203,0.08516136,0.89691
395.416,44.842,-0.7629,0.08290746,0.89646
396.216,44.91997,-0.76155,0.08019349,0.89601
397.016,44.99811,-0.76155,0.07823219,0.89557
397.816,45.07613,-0.76155,0.07617308,0.89512
398.616,45.15408,-0.7609,0.07215414,0.89467
399.416,45.2316,-0.76089,0.07002836,0.89422
400.216,45.30899,-0.76089,0.06721097,0.89377
401.016,45.38671,-0.76089,0.06295123,0.89332
401.816,45.46437,-0.76122,0.05760258,0.89287
402.616,45.54231,-0.76122,0.05632632,0.89242
403.416,45.62036,-0.76122,0.05202628,0.89197
404.216,45.69849,-0.76221,0.05125124,0.89151
405.016,45.77665,-0.76221,0.0451462,0.89106
405.816,45.85474,-0.76089,0.04155832,0.89061
406.616,45.9328,-0.76218,0.03394273,0.89016
407.416,46.01078,-0.76327,0.03041804,0.8897
408.216,46.08871,-0.76188,0.02567369,0.88925
409.016,46.16754,-0.76319,0.02365503,0.8888
409.816,46.2464,-0.7632,0.01899948,0.88834
410.616,46.32527,-0.7632,0.01593488,0.88789
411.416,46.40348,-0.76221,0.009934159,0.88743
412.216,46.48166,-0.76188,0.00327627,0.88698
413.016,46.55963,-0.76188,6.106637e-05,0.88652
413.816,46.63769,-0.76154,-0.002360666,0.88606
414.616,46.71598,-0.76155,-0.005531886,0.88561
415.416,46.7942,-0.76156,-0.00969981,0.88515
416.216,46.87243,-0.76287,-0.01360522,0.88469
417.016,46.95062,-0.76155,-0.0197601,0.88423
417.816,47.0288,-0.76252,-0.01853073,0.88377
418.616,47.10712,-0.76353,-0.02419506,0.88331
419.416,47.18548,-0.76353,-0.03070044,0.88285
420.216,47.2637,-0.76221,-0.03098733,0.88239
421.016,47.34197,-0.76218,-0.03582113,0.88193
421.816,47.4203,-0.76355,-0.03731905,0.88147
422.616,47.49885,-0.76254,-0.03964496,0.88101
423.416,47.57723,-0.76254,-0.04220636,0.88055
424.216,47.65576,-0.76346,-0.04653336,0.88009
425.016,47.73424,-0.76352,-0.04678554,0.87963
425.816,47.81283,-0.76328,-0.0479572,0.87916
426.616,47.8912,-0.76385,-0.04847676,0.8787
427.416,47.96955,-0.76385,-0.04645406,0.87824
428.216,48.04805,-0.76385,-0.04796098,0.87777
429.016,48.12658,-0.76385,-0.04764153,0.87731
429.816,48.20496,-0.76385,-0.04899964,0.87684
430.616,48.28354,-0.76385,-0.0463902,0.87638
431.416,48.3621,-0.76417,-0.04692651,0.87591
432.216,48.44083,-0.76418,-0.04634152,0.87544
433.016,48.51941,-0.76418,-0.0408367,0.87498
433.816,48.59813,-0.76543,-0.04013369,0.87451
434.616,48.67693,-0.7655,-0.03637286,0.87404
435.416,48.75555,-0.76615,-0.03590667,0.87357
436.216,48.8341,-0.76615,-0.03135548,0.8731
437.016,48.9126,-0.7662,-0.02501005,0.87263
437.816,48.99136,-0.7655,-0.02320825,0.87216
438.616,49.06987,-0.7655,-0.02004849,0.87169
439.416,49.1485,-0.7655,-0.01452317,0.87122
440.216,49.22718,-0.7655,-0.01294457,0.87075
441.016,49.30579,-0.76596,-0.007492808,0.87028
441.816,49.38445,-0.76616,-0.00207704,0.86981
442.616,49.4627,-0.76569,0.002032473,0.86934
443.416,49.54117,-0.76752,0.00600546,0.86886
444.216,49.61953,-0.76748,0.01194993,0.86839
445.016,49.69806,-0.76748,0.01462076,0.86792
445.816,49.7766,-0.76748,0.01887427,0.86744
446.616,49.8553,-0.76748,0.02188098,0.86697
447.416,49.93401,-0.76748,0.02885127,0.86649
448.216,50.0129,-0.76618,0.03010447,0.86602
449.016,50.09183,-0.76715,0.03462259,0.86554
449.816,50.17082,-0.76715,0.03890901,0.86506
450.616,50.24957,-0.76715,0.04322881,0.86459
451.416,50.32828,-0.76847,0.04317398,0.86411
452.216,50.4069,-0.76847,0.04838447,0.86363
453.016,50.48558,-0.76847,0.05455428,0.86315
453.816,50.56425,-0.76848,0.05477335,0.86267
454.616,50.6429,-0.76748,0.05966875,0.86219
455.416,50.72145,-0.76748,0.06180302,0.86171
456.216,50.80035,-0.76748,0.06288022,0.86123
457.016,50.87956,-0.76749,0.0654806,0.86075
457.816,50.95862,-0.7678,0.06861222,0.86027
458.616,51.0375,-0.76697,0.06971238,0.85979
459.416,51.1162,-0.76638,0.07234096,0.85931
460.216,51.19532,-0.76879,0.07404932,0.85882
461.016,51.2742,-0.76747,0.07434277,0.85834
461.816,51.35365,-0.76747,0.07865464,0.85786
462.616,51.43271,-0.76747,0.07982165,0.85737
463.416,51.51169,-0.76747,0.08108195,0.85689
464.216,51.59068,-0.76747,0.08159492,0.8564
465.016,51.66964,-0.76616,0.0828232,0.85591
465.816,51.74864,-0.76616,0.08617168,0.85543
466.616,51.8276,-0.76747,0.08800991,0.85494
467.416,51.90657,-0.76747,0.08792658,0.85445
468.216,51.98518,-0.7669,0.09040511,0.85397
469.016,52.06373,-0.76657,0.09313036,0.85348
469.816,52.14239,-0.76744,0.09383328,0.85299
470.616,52.2213,-0.76747,0.09473767,0.8525
471.416,52.3001,-0.76806,0.09826311,0.85201
472.216,52.3788,-0.76747,0.09623703,0.85152
473.016,52.45769,-0.76783,0.09870458,0.85103
473.816,52.53677,-0.76748,0.0997922,0.85054
474.616,52.6155,-0.76748,0.10242,0.85004
475.416,52.6943,-0.76748,0.10184,0.84955
476.216,52.7731,-0.76748,0.1001,0.84906
477.016,52.85176,-0.76863,0.10028,0.84856
477.816,52.93079,-0.76879,0.10067,0.84807
478.616,53.0099,-0.76748,0.1042,0.84758
479.416,53.08886,-0.7678,0.1025,0.84708
480.216,53.16796,-0.76782,0.10383,0.84658
481.016,53.2472,-0.76911,0.10234,0.84609
481.816,53.3265,-0.76847,0.10475,0.84559
482.616,53.4055,-0.76847,0.10614,0.84509
483.416,53.4847,-0.76847,0.10544,0.8446
484.216,53.5638,-0.76847,0.10647,0.8441
485.016,53.6429,-0.76714,0.10632,0.8436
485.816,53.72206,-0.76816,0.10733,0.8431
486.616,53.80109,-0.76814,0.10637,0.8426
487.416,53.8804,-0.76951,0.1041,0.8421
488.216,53.9595,-0.76945,0.10553,0.8416
489.016,54.0386,-0.76945,0.10955,0.8411
489.816,54.11761,-0.76945,0.10961,0.8406
490.616,54.19644,-0.76814,0.10923,0.84009
491.416,54.27542,-0.76946,0.11036,0.83959
492.216,54.3544,-0.76845,0.10839,0.83909
493.016,54.43362,-0.76846,0.10768,0.83858
493.816,54.5127,-0.76813,0.10986,0.83808
494.616,54.5919,-0.76813,0.10919,0.83757
495.416,54.67122,-0.76888,0.10673,0.83707
496.216,54.7501,-0.77011,0.10767,0.83656
497.016,54.82895,-0.76813,0.10731,0.83605
497.816,54.90809,-0.76747,0.10988,0.83555
498.616,54.98715,-0.76739,0.1087,0.83504
499.416,55.06635,-0.76879,0.10838,0.83453
500.216,55.1456,-0.76877,0.10815,0.83402
501.016,55.2248,-0.7678,0.10409,0.83351
501.816,55.3041,-0.7678,0.10861,0.833
502.616,55.38345,-0.76921,0.10708,0.83249
503.416,55.46206,-0.76945,0.10465,0.83198
504.216,55.5411,-0.76813,0.10657,0.83147
505.016,55.62047,-0.76814,0.10663,0.83096
505.816,55.69993,-0.76945,0.10539,0.83044
506.616,55.7792,-0.76945,0.10513,0.82993
507.416,55.8584,-0.76978,0.10393,0.82942
508.216,55.9376,-0.76978,0.10718,0.8289
509.016,56.017,-0.76981,0.10447,0.82839
509.816,56.0964,-0.7692,0.10765,0.82787
510.616,56.17565,-0.76912,0.10504,0.82735
511.416,56.2547,-0.76912,0.10336,0.82684
512.216,56.33399,-0.76912,0.10155,0.82632
513.016,56.41384,-0.76917,0.10419,0.8258
513.816,56.493,-0.76945,0.10574,0.82528
514.616,56.5722,-0.76945,0.1049,0.82477
515.416,56.65145,-0.76913,0.10438,0.82425
516.216,56.7313,-0.76912,0.10198,0.82373
517.016,56.8107,-0.7678,0.10386,0.82321
517.816,56.8903,-0.76911,0.10318,0.82268
518.616,56.9696,-0.77044,0.10474,0.82216
519.416,57.04899,-0.76978,0.10343,0.82164
520.216,57.1285,-0.76978,0.10472,0.82112
521.016,57.20788,-0.76978,0.1027,0.82059
521.816,57.2875,-0.77061,0.10296,0.82007
522.616,57.36695,-0.76979,0.10431,0.81955
523.416,57.4467,-0.77109,0.10308,0.81902
524.216,57.5262,-0.77044,0.10253,0.81849
525.016,57.60575,-0.77043,0.10467,0.81797
525.816,57.6855,-0.77043,0.1044,0.81744
526.616,57.7652,-0.77142,0.10335,0.81691
527.416,57.84471,-0.77174,0.10355,0.81639
528.216,57.92402,-0.77173,0.1042,0.81586
529.016,58.003,-0.77044,0.1028,0.81533
529.816,58.08235,-0.77044,0.10286,0.8148
530.616,58.1619,-0.77055,0.10127,0.81427
531.416,58.24168,-0.77011,0.10302,0.81374
532.216,58.32102,-0.77143,0.10322,0.81321
533.016,58.40044,-0.77143,0.10183,0.81267
533.816,58.47979,-0.76945,0.10532,0.81214
534.616,58.5592,-0.76945,0.10541,0.81161
535.416,58.63879,-0.77041,0.10271,0.81108
536.216,58.71835,-0.77044,0.10135,0.81054
537.016,58.79826,-0.77044,0.1023,0.81001
537.816,58.87774,-0.76912,0.1032,0.80947
538.616,58.9574,-0.76912,0.1044,0.80893
539.416,59.0369,-0.76945,0.10354,0.8084
540.216,59.1165,-0.77079,0.10405,0.80786
541.016,59.19625,-0.77076,0.10335,0.80732
541.816,59.27584,-0.77076,0.10448,0.80679
542.616,59.3553,-0.77076,0.10497,0.80625
543.416,59.43489,-0.77076,0.10662,0.80571
544.216,59.5146,-0.77067,0.10464,0.80517
545.016,59.5945,-0.77209,0.10542,0.80463
545.816,59.6742,-0.76945,0.10451,0.80409
546.616,59.7539,-0.76945,0.10364,0.80354
547.416,59.83322,-0.76945,0.10222,0.803
548.216,59.9129,-0.76946,0.1012,0.80246
549.016,59.99259,-0.76813,0.10258,0.80191
549.816,60.07226,-0.76946,0.10529,0.80137
550.616,60.15181,-0.76816,0.10529,0.80083
551.416,60.23125,-0.76945,0.10611,0.80028
552.216,60.31074,-0.76945,0.10689,0.79973
553.016,60.3904,-0.76945,0.10283,0.79919
553.816,60.46994,-0.76945,0.10384,0.79864
554.616,60.5494,-0.76945,0.10625,0.79809
555.416,60.62914,-0.76945,0.10608,0.79755
556.216,60.70887,-0.76945,0.10444,0.797
557.016,60.7889,-0.77076,0.10691,0.79645
557.816,60.86883,-0.77076,0.1065,0.7959
558.616,60.94856,-0.77076,0.10947,0.79535
559.416,61.02822,-0.77076,0.10633,0.7948
560.216,61.1081,-0.76948,0.10942,0.79424
561.016,61.1881,-0.77043,0.11467,0.79369
561.816,61.2677,-0.77074,0.11341,0.79314
562.616,61.34769,-0.77208,0.11178,0.79258
563.416,61.4282,-0.77072,0.11327,0.79203
564.216,61.5083,-0.77176,0.11096,0.79148
565.016,61.58826,-0.77176,0.11284,0.79092
565.816,61.6683,-0.77176,0.11477,0.79036
566.616,61.74821,-0.77176,0.11373,0.78981
567.416,61.8282,-0.77077,0.11286,0.78925
568.216,61.90791,-0.77243,0.11447,0.78869
569.016,61.9876,-0.77241,0.1128,0.78813
569.816,62.06762,-0.7728,0.11589,0.78758
570.616,62.1473,-0.77274,0.11707,0.78702
571.416,62.22725,-0.77274,0.11814,0.78646
572.216,62.30701,-0.77405,0.11681,0.7859
573.016,62.3869,-0.77406,0.11831,0.78533
573.816,62.46649,-0.77405,0.11775,0.78477
574.616,62.54634,-0.77538,0.11557,0.78421
575.416,62.62624,-0.77419,0.1157,0.78365
576.216,62.7061,-0.77406,0.11923,0.78308
577.016,62.7859,-0.77523,0.12046,0.78252
577.816,62.86566,-0.77538,0.11871,0.78195
578.616,62.94557,-0.77476,0.1208,0.78139
579.416,63.0256,-0.77542,0.11947,0.78082
580.216,63.10547,-0.77532,0.11612,0.78026
581.016,63.1856,-0.77757,0.11634,0.77969
581.816,63.2659,-0.77636,0.11866,0.77912
582.616,63.34629,-0.77636,0.12086,0.77855
583.416,63.42641,-0.77636,0.11734,0.77798
584.216,63.5064,-0.7766,0.11711,0.77741
585.016,63.5866,-0.77801,0.11776,0.77684
585.816,63.6667,-0.77801,0.11955,0.77627
586.616,63.74691,-0.77783,0.11444,0.7757
587.416,63.827,-0.77735,0.11703,0.77513
588.216,63.90733,-0.77734,0.11786,0.77456
589.016,63.98749,-0.77869,0.11857,0.77398
589.816,64.06759,-0.77873,0.12021,0.77341
590.616,64.14801,-0.77734,0.12104,0.77284
591.416,64.22829,-0.77796,0.12129,0.77226
592.216,64.30855,-0.77932,0.12305,0.77169
593.016,64.3887,-0.77932,0.12402,0.77111
593.816,64.4689,-0.78064,0.12015,0.77053
594.616,64.549,-0.77932,0.12215,0.76996
595.416,64.62902,-0.77932,0.12566,0.76938
596.216,64.7093,-0.77932,0.12505,0.7688
597.016,64.7895,-0.77998,0.12733,0.76822
597.816,64.8698,-0.77998,0.12822,0.76764
598.616,64.94973,-0.7813,0.12631,0.76706
599.416,65.0297,-0.78196,0.12784,0.76648
600.216,65.11,-0.78196,0.12705,0.7659
601.016,65.19049,-0.78197,0.13026,0.76532
601.816,65.27104,-0.78137,0.13123,0.76473
602.616,65.3511,-0.78261,0.13443,0.76415
603.416,65.43109,-0.78257,0.13494,0.76357
604.216,65.51099,-0.78393,0.13711,0.76298
605.016,65.591,-0.7826,0.13812,0.7624
605.816,65.67095,-0.78392,0.13662,0.76181
606.616,65.7509,-0.78392,0.14328,0.76122
607.416,65.83102,-0.78392,0.14437,0.76064
608.216,65.91136,-0.78524,0.14804,0.76005
609.016,65.99159,-0.78524,0.14404,0.75946
609.816,66.0718,-0.78612,0.14762,0.75887
610.616,66.15196,-0.78656,0.14566,0.75828
611.416,66.2324,-0.78525,0.14835,0.75769
612.216,66.31291,-0.78525,0.14945,0.7571
613.016,66.39256,-0.78656,0.15379,0.75651
613.816,66.47221,-0.78722,0.15072,0.75592
614.616,66.55239,-0.7872,0.15464,0.75533
615.416,66.63291,-0.7875,0.15762,0.75474
616.216,66.71327,-0.78821,0.15843,0.75414
617.016,66.79377,-0.78926,0.16156,0.75355
617.816,66.87428,-0.79018,0.16161,0.75295
618.616,66.95477,-0.79018,0.16336,0.75236
619.416,67.03523,-0.79052,0.16453,0.75176
620.216,67.1155,-0.7915,0.1685,0.75117
621.016,67.19598,-0.79288,0.17014,0.75057
621.816,67.2765,-0.79215,0.17075,0.74997
622.616,67.35758,-0.79083,0.17183,0.74937
623.416,67.43848,-0.79215,0.17704,0.74878
624.216,67.51921,-0.79347,0.17719,0.74818
625.016,67.59934,-0.7938,0.17937,0.74758
625.816,67.6795,-0.79511,0.18196,0.74698
626.616,67.75978,-0.79511,0.18739,0.74637
627.416,67.83997,-0.79643,0.18753,0.74577
628.216,67.92009,-0.79742,0.19341,0.74517
629.016,68.00026,-0.79742,0.18786,0.74457
629.816,68.08055,-0.79741,0.19428,0.74396
630.616,68.1609,-0.79886,0.19516,0.74336
631.416,68.24146,-0.80005,0.19502,0.74276
632.216,68.322,-0.80002,0.19894,0.74215
633.016,68.40255,-0.80129,0.20393,0.74155
633.816,68.483,-0.80231,0.20311,0.74094
634.616,68.56352,-0.80367,0.20356,0.74033
635.416,68.6439,-0.80267,0.20362,0.73972
636.216,68.7243,-0.80401,0.20908,0.73912
637.016,68.8048,-0.8039,0.20647,0.73851
637.816,68.8853,-0.80532,0.2092,0.7379
638.616,68.96559,-0.80664,0.21011,0.73729
639.416,69.04581,-0.80834,0.21221,0.73668
640.216,69.12606,-0.81033,0.21503,0.73607
641.016,69.2065,-0.81058,0.21537,0.73545
641.816,69.287,-0.81057,0.21802,0.73484
642.616,69.36695,-0.81192,0.21663,0.73423
643.416,69.44711,-0.81191,0.21944,0.73362
644.216,69.52717,-0.81321,0.21883,0.733
645.016,69.6083,-0.81453,0.21838,0.73239
645.816,69.68861,-0.81453,0.21989,0.73177
646.616,69.7688,-0.81547,0.21981,0.73116
647.416,69.849,-0.81717,0.21868,0.73054
648.216,69.9294,-0.81716,0.22246,0.72992
649.016,70.0098,-0.81848,0.21956,0.72931
649.816,70.0902,-0.81979,0.22152,0.72869
650.616,70.17047,-0.81981,0.22023,0.72807
651.416,70.25115,-0.82243,0.21942,0.72745
652.216,70.3315,-0.82372,0.21829,0.72683
653.016,70.4123,-0.82375,0.21968,0.72621
653.816,70.493,-0.82449,0.21965,0.72559
654.616,70.5737,-0.82594,0.2184,0.72497
655.416,70.65432,-0.82638,0.21536,0.72435
656.216,70.73519,-0.8277,0.21666,0.72372
657.016,70.81591,-0.8277,0.21331,0.7231
657.816,70.89626,-0.82802,0.21331,0.72248
658.616,70.9769,-0.82934,0.21266,0.72185
659.416,71.05762,-0.83069,0.21316,0.72123
660.216,71.13838,-0.83197,0.21095,0.7206
661.016,71.21906,-0.83197,0.20905,0.71998
661.816,71.29972,-0.83329,0.20813,0.71935
662.616,71.38037,-0.83461,0.2117,0.71872
663.416,71.46123,-0.83592,0.20738,0.71809
664.216,71.5419,-0.83724,0.20666,0.71747
665.016,71.62255,-0.83954,0.20796,0.71684
665.816,71.70311,-0.83965,0.20519,0.71621
666.616,71.78356,-0.84037,0.20923,0.71558
667.416,71.86417,-0.84261,0.20732,0.71495
668.216,71.9448,-0.84218,0.20742,0.71432
669.016,72.02565,-0.84349,0.20846,0.71369
669.816,72.1065,-0.84485,0.20957,0.71305
670.616,72.18728,-0.84491,0.20644,0.71242
671.416,72.26799,-0.84658,0.20771,0.71179
672.216,72.3484,-0.84978,0.20592,0.71115
673.016,72.42925,-0.85018,0.20201,0.71052
673.816,72.5102,-0.85025,0.20154,0.70988
674.616,72.5916,-0.8515,0.2039,0.70925
675.416,72.67229,-0.8529,0.20336,0.70861
676.216,72.7529,-0.85281,0.2073,0.70798
677.016,72.83326,-0.85414,0.20404,0.70734
677.816,72.9138,-0.85547,0.20295,0.7067
678.616,72.99431,-0.85803,0.20419,0.70606
679.416,73.07495,-0.85671,0.20101,0.70542
680.216,73.1555,-0.85805,0.19797,0.70478
681.016,73.2362,-0.85975,0.19783,0.70414
681.816,73.3168,-0.86237,0.19607,0.7035
682.616,73.39724,-0.86237,0.19215,0.70286
683.416,73.47758,-0.86333,0.18916,0.70222
684.216,73.5578,-0.864,0.18903,0.70158
685.016,73.63821,-0.86531,0.18297,0.70094
685.816,73.7187,-0.8666,0.17994,0.70029
686.616,73.79921,-0.86729,0.1741,0.69965
687.416,73.8797,-0.86762,0.16884,0.699
688.216,73.9603,-0.86892,0.16833,0.69836
689.016,74.04106,-0.87025,0.16008,0.69771
689.816,74.1217,-0.87124,0.15896,0.69707
690.616,74.2025,-0.87028,0.15089,0.69642
691.416,74.2834,-0.87157,0.14725,0.69577
692.216,74.36447,-0.8729,0.14318,0.69513
693.016,74.4457,-0.8742,0.13893,0.69448
693.816,74.52677,-0.87499,0.13093,0.69383
694.616,74.6075,-0.87503,0.12414,0.69318
695.416,74.68841,-0.87681,0.12065,0.69253
696.216,74.76948,-0.87684,0.11186,0.69188
697.016,74.85055,-0.87684,0.10805,0.69123
697.816,74.93138,-0.87701,0.10227,0.69058
698.616,75.01224,-0.87812,0.09681192,0.68993
699.416,75.09366,-0.87896,0.09562388,0.68928
700.216,75.1748,-0.88039,0.08926966,0.68862
701.016,75.25591,-0.88081,0.08488669,0.68797
701.816,75.33706,-0.88045,0.07923807,0.68732
702.616,75.4183,-0.88078,0.07570861,0.68666
703.416,75.49943,-0.88078,0.07318135,0.68601
704.216,75.58046,-0.88087,0.06968318,0.68535
705.016,75.6611,-0.8821,0.0637681,0.6847
705.816,75.7418,-0.8821,0.06345173,0.68404
706.616,75.82254,-0.8809,0.06398914,0.68338
707.416,75.90342,-0.88079,0.06104526,0.68272
708.216,75.9841,-0.88209,0.06122878,0.68207
709.016,76.06494,-0.88209,0.06012162,0.68141
709.816,76.1464,-0.88341,0.05986111,0.68075
710.616,76.227,-0.88228,0.06074472,0.68009
711.416,76.3078,-0.88473,0.06048965,0.67943
712.216,76.38856,-0.88473,0.057862,0.67877
713.016,76.46933,-0.88342,0.05793095,0.67811
713.816,76.55022,-0.88572,0.05647246,0.67745
714.616,76.63146,-0.88572,0.05763314,0.67678
715.416,76.71257,-0.88563,0.05646046,0.67612
716.216,76.79356,-0.88605,0.05776919,0.67546
717.016,76.87454,-0.88605,0.05439436,0.67479
717.816,76.95557,-0.88605,0.05615557,0.67413
718.616,77.0367,-0.88703,0.05550486,0.67347
719.416,77.11747,-0.8864,0.05925472,0.6728
720.216,77.1987,-0.88637,0.05688368,0.67214
721.016,77.27996,-0.88769,0.05563814,0.67147
721.816,77.36123,-0.88769,0.05385527,0.6708
722.616,77.44179,-0.88769,0.05672281,0.67014
723.416,77.52255,-0.88737,0.05462654,0.66947
724.216,77.6034,-0.88835,0.05570772,0.6688
725.016,77.68465,-0.88886,0.05527786,0.66813
725.816,77.76572,-0.88966,0.05760737,0.66746
726.616,77.84648,-0.88894,0.05200955,0.66679
727.416,77.92729,-0.88835,0.05689386,0.66612
728.216,78.00796,-0.88835,0.0532777,0.66545
729.016,78.08891,-0.88933,0.05053065,0.66478
729.816,78.16968,-0.88999,0.05362157,0.66411
730.616,78.25038,-0.88929,0.05235218,0.66344
731.416,78.3313,-0.89033,0.05567337,0.66277
732.216,78.41211,-0.89034,0.05268708,0.66209
733.016,78.49285,-0.89066,0.05460721,0.66142
733.816,78.5735,-0.89201,0.05673706,0.66075
734.616,78.65439,-0.88973,0.0561109,0.66007
735.416,78.7355,-0.89065,0.05517069,0.6594
736.216,78.81655,-0.89229,0.05342818,0.65872
737.016,78.89752,-0.8923,0.05386138,0.65805
737.816,78.97846,-0.89169,0.05347663,0.65737
738.616,79.05971,-0.89164,0.05856428,0.65669
739.416,79.141,-0.89167,0.05592832,0.65602
740.216,79.2221,-0.89229,0.05556944,0.65534
741.016,79.3031,-0.89093,0.05249183,0.65466
741.816,79.38435,-0.8924,0.05235085,0.65398
742.616,79.46543,-0.89372,0.0550367,0.6533
743.416,79.54649,-0.89361,0.05590629,0.65262
744.216,79.62714,-0.89361,0.05492027,0.65194
745.016,79.70806,-0.89361,0.05034085,0.65126
745.816,79.78941,-0.89362,0.0536744,0.65058
746.616,79.87049,-0.8946,0.05423961,0.6499
747.416,79.95141,-0.89329,0.05390209,0.64922
748.216,80.03255,-0.89327,0.05467336,0.64854
749.016,80.11381,-0.89362,0.05763656,0.64786
749.816,80.19508,-0.89372,0.05844949,0.64717
750.616,80.2761,-0.896,0.05714882,0.64649
751.416,80.35738,-0.89623,0.05753766,0.6458
752.216,80.4386,-0.89658,0.05909844,0.64512
753.016,80.51994,-0.89658,0.05871888,0.64444
753.816,80.60131,-0.89787,0.05936032,0.64375
754.616,80.68276,-0.89789,0.0581636,0.64306
755.416,80.76396,-0.8992,0.05843001,0.64238
756.216,80.845,-0.89888,0.05534477,0.64169
757.016,80.92585,-0.89822,0.05694152,0.64101
757.816,81.00689,-0.89687,0.05544612,0.64032
758.616,81.08805,-0.89921,0.05506088,0.63963
759.416,81.16923,-0.89921,0.05706021,0.63894
760.216,81.2504,-0.89921,0.05786746,0.63825
761.016,81.3315,-0.89797,0.06009577,0.63756
761.816,81.41272,-0.89954,0.05728758,0.63687
762.616,81.4936,-0.89954,0.05673278,0.63618
763.416,81.57438,-0.90085,0.0581297,0.63549
764.216,81.65573,-0.90086,0.05928989,0.6348
765.016,81.73728,-0.90052,0.05875413,0.63411
765.816,81.81863,-0.90053,0.06116661,0.63342
766.616,81.89998,-0.90183,0.06134925,0.63273
767.416,81.98119,-0.90184,0.06154718,0.63204
768.216,82.0625,-0.90184,0.06461116,0.63134
769.016,82.1438,-0.90075,0.06333699,0.63065
769.816,82.22496,-0.90217,0.06648927,0.62996
770.616,82.30596,-0.90211,0.06448616,0.62926
771.416,82.38695,-0.90322,0.06518784,0.62857
772.216,82.46803,-0.90184,0.06770071,0.62787
773.016,82.54929,-0.90217,0.06895425,0.62718
773.816,82.6305,-0.90348,0.0703787,0.62648
774.616,82.71141,-0.90344,0.06832947,0.62579
775.416,82.79234,-0.90516,0.06911332,0.62509
776.216,82.8734,-0.90512,0.07133408,0.62439
777.016,82.95464,-0.9048,0.07628441,0.6237
777.816,83.0353,-0.90578,0.07367885,0.623
778.616,83.11604,-0.90482,0.07616992,0.6223
779.416,83.19728,-0.90611,0.07876488,0.6216
780.216,83.2787,-0.90707,0.07729389,0.6209
781.016,83.36012,-0.90843,0.08145545,0.6202
781.816,83.44164,-0.90908,0.08341494,0.61951
782.616,83.52287,-0.90777,0.08430844,0.61881
783.416,83.6041,-0.90843,0.0815522,0.61811
784.216,83.68519,-0.90843,0.08176431,0.6174
785.016,83.76649,-0.9093,0.08222359,0.6167
785.816,83.84775,-0.90842,0.07972151,0.616
786.616,83.92894,-0.90873,0.08530377,0.6153
787.416,84.01005,-0.90973,0.08306673,0.6146
788.216,84.09125,-0.91105,0.08137044,0.6139
789.016,84.1725,-0.91171,0.08301611,0.61319
789.816,84.25373,-0.91278,0.08514615,0.61249
790.616,84.33491,-0.91182,0.08548186,0.61179
791.416,84.41605,-0.91318,0.08206735,0.61108
792.216,84.49722,-0.91314,0.08332246,0.61038
793.016,84.57852,-0.91314,0.08496718,0.60967
793.816,84.66011,-0.91446,0.08614131,0.60897
794.616,84.74163,-0.91309,0.08637475,0.60826
795.416,84.82294,-0.91578,0.08532537,0.60756
796.216,84.90391,-0.91577,0.08637406,0.60685
797.016,84.98521,-0.9171,0.08386235,0.60614
797.816,85.06668,-0.91584,0.08646913,0.60544
798.616,85.14796,-0.91711,0.08788421,0.60473
799.416,85.2293,-0.91709,0.07945291,0.60402
800.216,85.31063,-0.91841,0.08599689,0.60332
801.016,85.39186,-0.91797,0.09046401,0.60261
801.816,85.47324,-0.91912,0.08936923,0.6019
802.616,85.55453,-0.91842,0.08967152,0.60119
803.416,85.6356,-0.91977,0.09464033,0.60048
804.216,85.7167,-0.92038,0.09248691,0.59977
805.016,85.79777,-0.92018,0.09692864,0.59906
805.816,85.87913,-0.92038,0.09815819,0.59835
806.616,85.96041,-0.92169,0.10164,0.59764
807.416,86.04175,-0.92299,0.10436,0.59693
808.216,86.12329,-0.92301,0.10649,0.59622
809.016,86.2047,-0.92432,0.10531,0.59551
809.816,86.28602,-0.92432,0.10681,0.5948
810.616,86.36725,-0.92564,0.10617,0.59408
811.416,86.44856,-0.92592,0.11325,0.59337
812.216,86.5299,-0.92565,0.11446,0.59266
813.016,86.6112,-0.92697,0.11562,0.59195
813.816,86.69269,-0.92696,0.11855,0.59123
814.616,86.77421,-0.92933,0.12393,0.59052
815.416,86.85531,-0.92841,0.12287,0.58981
816.216,86.93598,-0.92857,0.12597,0.58909
817.016,87.01716,-0.92958,0.12757,0.58838
817.816,87.09886,-0.92959,0.13086,0.58766
818.616,87.1806,-0.93091,0.12977,0.58695
819.416,87.26187,-0.93223,0.13798,0.58623
820.216,87.3429,-0.93354,0.13455,0.58552
821.016,87.42401,-0.93306,0.13783,0.5848
821.816,87.50543,-0.93354,0.14925,0.58408
822.616,87.5869,-0.93551,0.1445,0.58337
823.416,87.66819,-0.93685,0.14936,0.58265
824.216,87.74946,-0.93718,0.15547,0.58193
825.016,87.83085,-0.93815,0.15693,0.58122
825.816,87.91232,-0.93946,0.15413,0.5805
826.616,87.9937,-0.93838,0.15779,0.57978
827.416,88.07525,-0.94142,0.15955,0.57906
828.216,88.15678,-0.94143,0.16632,0.57834
829.016,88.23824,-0.94275,0.16816,0.57763
829.816,88.31951,-0.94405,0.17224,0.57691
830.616,88.40087,-0.94414,0.17589,0.57619
831.416,88.48229,-0.94409,0.18025,0.57547
832.216,88.5633,-0.94541,0.18356,0.57475
833.016,88.64483,-0.94539,0.18897,0.57403
833.816,88.72619,-0.94801,0.18721,0.57331
834.616,88.8078,-0.94802,0.19535,0.57259
835.416,88.8892,-0.94933,0.1978,0.57187
836.216,88.9708,-0.94934,0.20659,0.57115
837.016,89.05199,-0.9506,0.20647,0.57042
837.816,89.13338,-0.95234,0.20916,0.5697
838.616,89.21478,-0.95318,0.21363,0.56898
839.416,89.29619,-0.9546,0.21896,0.56826
840.216,89.3775,-0.95592,0.21964,0.56754
841.016,89.45891,-0.95723,0.22393,0.56681
841.816,89.5402,-0.95855,0.23552,0.56609
842.616,89.6215,-0.95887,0.23559,0.56537
843.416,89.70289,-0.96019,0.23816,0.56464
844.216,89.78439,-0.96153,0.24005,0.56392
845.016,89.8657,-0.9632,0.24091,0.5632
845.816,89.94713,-0.96512,0.24789,0.56247
846.616,90.02877,-0.96644,0.2407,0.56175
847.416,90.11072,-0.96908,0.25126,0.56103
848.216,90.19256,-0.96846,0.25416,0.5603
849.016,90.2741,-0.96909,0.26129,0.55958
849.816,90.3556,-0.97039,0.25891,0.55885
850.616,90.43733,-0.97252,0.26647,0.55813
851.416,90.51853,-0.97298,0.26632,0.5574
852.216,90.6001,-0.97436,0.27241,0.55667
853.016,90.68166,-0.97575,0.27354,0.55595
853.816,90.76356,-0.97696,0.27591,0.55522
854.616,90.84525,-0.97829,0.27722,0.5545
855.416,90.92701,-0.9796,0.27807,0.55377
856.216,91.00873,-0.98093,0.27952,0.55304
857.016,91.09009,-0.98225,0.27623,0.55232
857.816,91.17164,-0.98226,0.2752,0.55159
858.616,91.25316,-0.98356,0.2815,0.55086
859.416,91.3347,-0.98486,0.28147,0.55013
860.216,91.41642,-0.98728,0.27271,0.54941
861.016,91.49834,-0.98882,0.28172,0.54868
861.816,91.57949,-0.98951,0.27742,0.54795
862.616,91.66082,-0.99103,0.27871,0.54722
863.416,91.74224,-0.99143,0.27459,0.54649
864.216,91.82337,-0.99279,0.27655,0.54577
865.016,91.9046,-0.99417,0.27109,0.54504
865.816,91.98525,-0.99614,0.26576,0.54431
866.616,92.0663,-0.99738,0.25988,0.54358
867.416,92.14757,-0.9987,0.24971,0.54285
868.216,92.2287,-1.00001,0.2412,0.54212
869.016,92.3099,-1.00002,0.23227,0.54139
869.816,92.39142,-1.00132,0.22091,0.54066
870.616,92.47289,-1.00264,0.21243,0.53993
871.416,92.55421,-1.00405,0.19793,0.5392
872.216,92.63541,-1.00528,0.18579,0.53847
873.016,92.71683,-1.00528,0.17368,0.53774
873.816,92.79835,-1.00661,0.16596,0.53701
874.616,92.87991,-1.00626,0.15701,0.53628
875.416,92.96104,-1.00626,0.14572,0.53555
876.216,93.04248,-1.00791,0.13892,0.53482
877.016,93.12387,-1.0079,0.13639,0.53409
877.816,93.2054,-1.00824,0.12554,0.53336
878.616,93.28698,-1.00924,0.12444,0.53262
879.416,93.36871,-1.01052,0.12207,0.53189
880.216,93.45019,-1.01054,0.11788,0.53116
881.016,93.5316,-1.01073,0.10903,0.53043
881.816,93.61293,-1.01186,0.10881,0.5297
882.616,93.69396,-1.01153,0.11116,0.52897
883.416,93.77518,-1.01284,0.10871,0.52823
884.216,93.85685,-1.01383,0.1046,0.5275
885.016,93.9382,-1.01416,0.09953533,0.52677
885.816,94.01965,-1.01453,0.10132,0.52604
886.616,94.10069,-1.01445,0.10186,0.5253
887.416,94.1819,-1.01449,0.10148,0.52457
888.216,94.26338,-1.0158,0.1008,0.52384
889.016,94.34562,-1.01575,0.10239,0.52311
889.816,94.42798,-1.01712,0.10126,0.52237
890.616,94.50985,-1.01843,0.10043,0.52164
891.416,94.59156,-1.01844,0.10323,0.52091
892.216,94.6735,-1.01844,0.09888917,0.52017
893.016,94.7551,-1.01844,0.10166,0.51944
893.816,94.83705,-1.01975,0.10136,0.51871
894.616,94.91914,-1.01877,0.10391,0.51797
895.316,94.99105,-1.02009,0.10244,0.51733