File: 01_Data/Vinyl_Siding/MCC/Vinyl_Siding_30K_min_210609_R2.txt
Sample ID:	C:\MCC\MCC Cal\Test\Vinyl Siding\Vinyl_Siding_30_2.txt
Sample Weight (mg):	3.72
Heating Rate (C/s):	0.5
Combustor Temp (C):	900
N2 Flow Rate (cc/min):	80
O2 Flow Rate (cc/min):	20
Calibration File:	C:\MCC\MCC Cal\Coeff1 JN10440_30_210304.txt.txt
T Correction Coefficients:	0	1.024463	0
Time Shift (s):	14
*
Time (s)	Temperature (C)	N2 flow rate (cc/min)	O2 flow rate (cc/min)	Flow Rate (cc/min)	Oxygen (%)	HRR (W/g)	Heating rate (C/s)
0.000	111.185	79.981	19.993	99.879	20.067	0.434	0.009
2.000	111.156	79.983	19.994	99.880	20.065	0.587	-0.012
4.000	111.155	79.984	19.993	99.881	20.071	0.107	-0.002
6.000	111.137	79.980	19.992	99.881	20.067	0.439	0.008
8.000	111.138	79.981	19.993	99.874	20.069	0.307	0.033
10.001	111.085	79.982	19.992	99.880	20.067	0.462	-0.037
12.000	111.119	79.980	19.993	99.883	20.068	0.344	0.020
14.000	111.093	79.981	19.993	99.886	20.070	0.175	-0.005
16.000	111.080	79.980	19.992	99.885	20.071	0.107	0.008
18.000	111.083	79.981	19.994	99.887	20.072	0.043	0.008
20.000	111.091	79.980	19.992	99.916	20.064	0.745	0.010
22.000	111.080	79.981	19.994	99.918	20.061	0.952	0.021
24.000	111.095	79.980	19.993	99.935	20.063	0.797	0.020
26.000	111.158	79.981	19.992	99.958	20.055	1.490	0.043
28.000	111.178	79.982	19.993	99.999	20.055	1.472	0.028
30.000	111.309	79.981	19.994	100.043	20.051	1.830	0.053
32.000	111.403	79.982	19.993	100.056	20.038	2.924	0.048
33.999	111.579	79.982	19.993	100.075	20.037	2.942	0.076
35.999	111.780	79.981	19.993	100.076	20.035	3.149	0.056
38.000	111.984	79.982	19.994	100.084	20.037	2.978	0.128
39.999	112.269	79.980	19.993	100.079	20.035	3.183	0.117
41.999	112.600	79.981	19.992	100.085	20.032	3.416	0.189
43.999	112.920	79.982	19.992	100.097	20.035	3.143	0.149
46.000	113.305	79.981	19.992	100.083	20.035	3.143	0.185
47.999	113.669	79.982	19.992	100.078	20.034	3.271	0.162
49.999	114.076	79.985	19.994	100.078	20.033	3.309	0.213
51.999	114.537	79.984	19.992	100.079	20.028	3.702	0.234
54.000	114.968	79.982	19.992	100.097	20.033	3.341	0.235
55.999	115.435	79.983	19.992	100.101	20.027	3.852	0.238
57.999	115.952	79.983	19.993	100.110	20.029	3.670	0.246
59.999	116.462	79.982	19.994	100.099	20.032	3.360	0.274
61.999	117.037	79.982	19.993	100.104	20.037	3.018	0.279
63.999	117.558	79.981	19.993	100.116	20.028	3.706	0.280
65.999	118.163	79.981	19.993	100.108	20.028	3.775	0.315
67.999	118.711	79.981	19.993	100.110	20.031	3.508	0.265
69.999	119.335	79.982	19.993	100.114	20.026	3.871	0.304
72.000	119.948	79.981	19.994	100.119	20.024	4.099	0.311
73.999	120.589	79.982	19.992	100.120	20.021	4.350	0.329
75.999	121.255	79.982	19.993	100.127	20.023	4.127	0.331
78.000	121.928	79.982	19.992	100.120	20.015	4.852	0.328
79.999	122.631	79.983	19.992	100.124	20.020	4.414	0.337
81.999	123.361	79.984	19.994	100.135	20.016	4.770	0.357
83.999	124.089	79.982	19.994	100.141	20.015	4.809	0.372
85.999	124.818	79.980	19.994	100.146	20.010	5.228	0.345
87.999	125.595	79.981	19.994	100.149	20.020	4.394	0.372
89.999	126.396	79.981	19.994	100.138	20.019	4.525	0.407
91.999	127.149	79.981	19.994	100.144	20.018	4.537	0.399
93.999	127.947	79.982	19.994	100.151	20.015	4.839	0.393
96.000	128.757	79.981	19.994	100.151	20.012	5.096	0.397
97.999	129.610	79.981	19.993	100.153	20.020	4.408	0.405
99.999	130.436	79.980	19.992	100.146	20.017	4.690	0.378
102.000	131.291	79.981	19.993	100.136	20.018	4.556	0.399
103.999	132.180	79.983	19.994	100.152	20.010	5.263	0.415
105.999	133.059	79.981	19.992	100.151	20.016	4.747	0.464
107.999	133.996	79.982	19.993	100.153	20.015	4.836	0.510
110.000	134.895	79.981	19.992	100.152	20.015	4.847	0.469
111.999	135.760	79.981	19.994	100.146	20.017	4.674	0.456
113.999	136.674	79.983	19.994	100.152	20.019	4.471	0.461
115.999	137.615	79.981	19.994	100.149	20.013	5.009	0.441
117.999	138.541	79.980	19.993	100.141	20.021	4.364	0.482
119.999	139.523	79.981	19.994	100.151	20.013	5.009	0.477
121.999	140.494	79.981	19.993	100.149	20.018	4.605	0.491
123.999	141.430	79.981	19.993	100.151	20.019	4.502	0.470
125.999	142.401	79.983	19.993	100.136	20.021	4.293	0.462
127.999	143.403	79.983	19.994	100.147	20.015	4.810	0.527
130.000	144.403	79.982	19.992	100.148	20.013	5.032	0.506
132.000	145.418	79.984	19.993	100.150	20.020	4.432	0.477
134.000	146.397	79.981	19.991	100.127	20.017	4.685	0.490
136.000	147.359	79.983	19.994	100.132	20.021	4.318	0.495
138.000	148.345	79.983	19.992	100.140	20.012	5.054	0.500
140.000	149.369	79.980	19.993	100.141	20.015	4.789	0.497
142.000	150.339	79.981	19.992	100.147	20.017	4.698	0.465
144.000	151.381	79.981	19.993	100.132	20.017	4.629	0.498
146.000	152.367	79.982	19.993	100.134	20.017	4.655	0.491
148.000	153.380	79.981	19.994	100.135	20.019	4.502	0.474
150.001	154.360	79.981	19.994	100.131	20.017	4.663	0.500
152.000	155.395	79.982	19.993	100.128	20.018	4.563	0.493
154.000	156.398	79.984	19.993	100.118	20.018	4.611	0.512
156.000	157.405	79.984	19.994	100.123	20.017	4.686	0.493
158.000	158.437	79.985	19.993	100.120	20.015	4.839	0.476
160.000	159.456	79.983	19.993	100.113	20.015	4.814	0.515
162.000	160.482	79.984	19.993	100.117	20.017	4.695	0.542
164.000	161.470	79.982	19.994	100.116	20.016	4.718	0.515
166.000	162.496	79.981	19.993	100.117	20.015	4.864	0.485
168.000	163.531	79.982	19.993	100.115	20.018	4.592	0.513
170.000	164.571	79.980	19.995	100.108	20.015	4.832	0.545
172.000	165.604	79.981	19.995	100.115	20.014	4.914	0.527
174.000	166.601	79.980	19.994	100.105	20.012	5.114	0.505
176.000	167.611	79.980	19.993	100.113	20.019	4.466	0.503
178.000	168.601	79.979	19.994	100.101	20.018	4.547	0.476
180.000	169.648	79.979	19.994	100.108	20.013	5.020	0.490
182.000	170.686	79.980	19.994	100.108	20.019	4.515	0.491
184.000	171.645	79.980	19.993	100.106	20.018	4.542	0.484
186.000	172.643	79.981	19.992	100.099	20.016	4.727	0.494
188.000	173.702	79.980	19.992	100.102	20.019	4.467	0.529
190.000	174.726	79.983	19.994	100.095	20.020	4.406	0.511
192.000	175.754	79.981	19.992	100.101	20.019	4.519	0.507
194.000	176.698	79.980	19.991	100.099	20.019	4.517	0.475
196.000	177.721	79.981	19.992	100.098	20.024	4.063	0.522
198.000	178.690	79.980	19.994	100.107	20.018	4.551	0.514
200.000	179.662	79.979	19.993	100.109	20.022	4.231	0.476
202.000	180.741	79.980	19.992	100.097	20.019	4.457	0.531
204.000	181.744	79.980	19.993	100.088	20.019	4.500	0.510
206.000	182.704	79.981	19.992	100.097	20.020	4.366	0.499
208.000	183.686	79.980	19.993	100.101	20.018	4.539	0.477
210.000	184.716	79.983	19.993	100.089	20.014	4.908	0.501
212.000	185.753	79.982	19.992	100.083	20.020	4.403	0.540
214.000	186.748	79.983	19.993	100.078	20.019	4.493	0.498
216.000	187.745	79.984	19.993	100.079	20.017	4.676	0.474
218.000	188.730	79.984	19.993	100.082	20.019	4.509	0.491
220.000	189.717	79.983	19.992	100.078	20.018	4.609	0.482
222.000	190.666	79.982	19.993	100.089	20.014	4.931	0.443
224.000	191.699	79.982	19.992	100.086	20.014	4.926	0.482
226.000	192.692	79.982	19.995	100.079	20.019	4.466	0.482
228.000	193.667	79.983	19.992	100.082	20.016	4.783	0.513
230.000	194.661	79.983	19.994	100.077	20.012	5.058	0.474
232.000	195.635	79.982	19.994	100.079	20.019	4.501	0.446
234.000	196.605	79.983	19.993	100.075	20.016	4.752	0.493
236.000	197.591	79.983	19.993	100.076	20.015	4.819	0.494
238.000	198.552	79.984	19.994	100.080	20.015	4.831	0.484
240.000	199.514	79.985	19.993	100.060	20.019	4.471	0.466
242.000	200.485	79.983	19.993	100.025	20.017	4.653	0.484
244.000	201.436	79.982	19.995	100.158	20.013	4.972	0.447
246.000	202.463	79.982	19.994	100.087	20.012	5.095	0.496
248.000	203.455	79.981	19.993	100.084	20.014	4.913	0.493
250.000	204.423	79.980	19.993	100.092	20.015	4.837	0.491
252.000	205.449	79.982	19.994	100.083	20.011	5.156	0.517
254.000	206.404	79.980	19.993	100.081	20.013	5.013	0.496
256.000	207.373	79.981	19.993	100.085	20.012	5.072	0.492
258.000	208.380	79.980	19.993	100.080	20.013	5.033	0.464
260.000	209.346	79.982	19.994	100.081	20.013	4.969	0.487
262.000	210.310	79.980	19.993	100.080	20.018	4.602	0.506
264.000	211.289	79.981	19.995	100.078	20.010	5.281	0.527
266.000	212.271	79.979	19.992	100.077	20.014	4.942	0.478
268.000	213.262	79.980	19.994	100.077	20.013	5.006	0.468
270.000	214.244	79.982	19.993	100.076	20.007	5.459	0.466
272.000	215.225	79.982	19.993	100.071	20.010	5.218	0.473
274.000	216.231	79.982	19.992	100.069	20.010	5.279	0.533
276.000	217.223	79.982	19.994	100.071	20.010	5.231	0.511
278.000	218.233	79.980	19.992	100.076	20.005	5.698	0.513
280.000	219.197	79.980	19.994	100.078	20.007	5.498	0.487
282.000	220.140	79.980	19.993	100.076	20.010	5.229	0.484
284.000	221.154	79.982	19.993	100.076	20.008	5.429	0.487
286.000	222.164	79.981	19.994	100.076	20.002	5.892	0.501
288.000	223.140	79.982	19.993	100.073	20.003	5.814	0.495
290.000	224.170	79.981	19.992	100.075	20.000	6.063	0.505
292.000	225.137	79.983	19.994	100.073	20.004	5.787	0.510
294.000	226.132	79.983	19.994	100.073	20.002	5.912	0.486
296.000	227.141	79.982	19.993	100.072	20.000	6.097	0.505
298.000	228.118	79.982	19.994	100.073	19.996	6.460	0.486
300.000	229.146	79.983	19.993	100.068	19.996	6.455	0.484
302.000	230.139	79.981	19.993	100.074	19.991	6.835	0.490
304.000	231.132	79.982	19.992	100.077	19.990	6.912	0.477
306.000	232.102	79.984	19.993	100.065	19.997	6.311	0.506
308.000	233.089	79.984	19.993	100.073	19.981	7.694	0.471
310.000	234.061	79.982	19.992	100.078	19.975	8.189	0.463
312.000	235.060	79.982	19.994	100.072	19.976	8.111	0.473
314.000	236.080	79.984	19.993	100.071	19.972	8.454	0.512
316.000	237.090	79.984	19.993	100.066	19.971	8.544	0.530
318.000	238.089	79.983	19.994	100.072	19.962	9.232	0.494
320.000	239.088	79.983	19.993	100.076	19.961	9.336	0.524
322.000	240.027	79.981	19.993	100.074	19.954	9.977	0.478
324.000	241.013	79.983	19.991	100.075	19.955	9.871	0.483
326.000	242.053	79.978	19.993	100.061	19.946	10.631	0.522
328.000	243.020	79.980	19.994	100.075	19.944	10.819	0.480
330.000	244.027	79.981	19.992	100.067	19.944	10.824	0.475
332.000	245.015	79.982	19.991	100.071	19.941	10.999	0.506
334.000	246.046	79.981	19.994	100.069	19.941	11.015	0.512
336.000	247.040	79.981	19.994	100.052	19.943	10.839	0.487
338.000	248.045	79.980	19.993	100.062	19.946	10.637	0.510
340.000	249.072	79.980	19.992	100.066	19.946	10.594	0.486
342.000	250.091	79.981	19.994	100.065	19.949	10.366	0.510
344.000	251.107	79.981	19.992	100.061	19.952	10.150	0.512
346.000	252.139	79.981	19.993	100.058	19.951	10.218	0.513
348.000	253.152	79.981	19.992	100.069	19.955	9.902	0.498
350.000	254.175	79.981	19.992	100.068	19.956	9.781	0.519
352.000	255.174	79.981	19.995	100.070	19.956	9.741	0.504
354.000	256.190	79.979	19.994	100.074	19.956	9.772	0.502
356.000	257.229	79.981	19.994	100.069	19.952	10.150	0.496
358.000	258.192	79.981	19.994	100.070	19.955	9.872	0.507
360.000	259.246	79.981	19.993	100.069	19.955	9.838	0.494
362.000	260.203	79.982	19.992	100.060	19.953	10.013	0.514
364.000	261.190	79.981	19.993	100.067	19.950	10.296	0.506
366.000	262.179	79.983	19.992	100.076	19.953	10.062	0.498
368.000	263.192	79.982	19.993	100.073	19.946	10.588	0.524
370.000	264.175	79.982	19.993	100.071	19.946	10.634	0.477
372.000	265.179	79.982	19.992	100.074	19.937	11.356	0.478
374.000	266.195	79.983	19.992	100.071	19.935	11.560	0.501
376.000	267.210	79.982	19.992	100.076	19.931	11.845	0.527
378.000	268.211	79.982	19.992	100.077	19.937	11.395	0.489
380.000	269.202	79.982	19.993	100.076	19.932	11.770	0.511
382.000	270.221	79.982	19.993	100.078	19.927	12.224	0.512
384.000	271.227	79.980	19.992	100.085	19.923	12.555	0.481
386.000	272.206	79.982	19.993	100.096	19.926	12.335	0.490
388.000	273.208	79.982	19.993	100.098	19.929	12.055	0.493
390.000	274.197	79.983	19.993	100.111	19.926	12.308	0.526
392.000	275.214	79.981	19.993	100.109	19.925	12.423	0.518
394.000	276.206	79.984	19.992	100.116	19.923	12.590	0.499
396.000	277.194	79.983	19.991	100.115	19.920	12.796	0.466
398.000	278.183	79.983	19.990	100.113	19.920	12.795	0.515
400.000	279.229	79.984	19.991	100.114	19.921	12.760	0.482
402.000	280.268	79.984	19.994	100.116	19.925	12.399	0.517
404.000	281.213	79.983	19.994	100.122	19.926	12.305	0.507
406.000	282.235	79.981	19.993	100.132	19.924	12.496	0.537
408.000	283.244	79.981	19.993	100.140	19.928	12.128	0.531
410.000	284.209	79.982	19.993	100.152	19.933	11.718	0.475
412.000	285.239	79.981	19.994	100.153	19.939	11.225	0.503
414.000	286.229	79.980	19.994	100.145	19.940	11.148	0.493
416.000	287.221	79.981	19.994	100.154	19.938	11.264	0.498
418.000	288.167	79.982	19.995	100.154	19.939	11.226	0.472
420.000	289.237	79.982	19.993	100.154	19.939	11.244	0.536
422.000	290.218	79.982	19.994	100.150	19.942	10.960	0.495
424.000	291.278	79.980	19.992	100.154	19.939	11.197	0.538
426.000	292.273	79.980	19.993	100.153	19.939	11.235	0.481
428.000	293.236	79.982	19.993	100.154	19.939	11.221	0.508
430.000	294.252	79.981	19.993	100.153	19.934	11.625	0.509
432.000	295.280	79.980	19.993	100.161	19.936	11.503	0.485
434.000	296.252	79.979	19.993	100.165	19.934	11.601	0.503
436.000	297.276	79.980	19.993	100.164	19.931	11.922	0.492
438.000	298.280	79.981	19.994	100.162	19.927	12.235	0.509
440.000	299.283	79.979	19.993	100.157	19.931	11.856	0.490
442.000	300.273	79.980	19.994	100.152	19.932	11.796	0.494
444.000	301.296	79.979	19.994	100.145	19.927	12.176	0.508
446.000	302.290	79.980	19.993	100.146	19.929	12.084	0.541
448.000	303.280	79.981	19.993	100.131	19.929	12.008	0.493
450.000	304.254	79.981	19.992	100.124	19.926	12.331	0.460
452.000	305.274	79.983	19.992	100.120	19.925	12.342	0.470
454.000	306.325	79.983	19.992	100.115	19.929	12.067	0.537
456.000	307.331	79.982	19.992	100.098	19.930	11.942	0.519
458.000	308.377	79.982	19.993	100.075	19.934	11.614	0.496
460.000	309.372	79.982	19.993	100.053	19.933	11.663	0.515
462.000	310.312	79.982	19.993	100.040	19.938	11.297	0.459
464.000	311.415	79.982	19.992	100.036	19.938	11.287	0.511
466.000	312.420	79.982	19.993	100.009	19.941	11.068	0.544
468.000	313.389	79.983	19.993	100.007	19.942	10.914	0.483
470.000	314.455	79.982	19.993	100.000	19.947	10.536	0.488
472.000	315.429	79.983	19.992	99.997	19.948	10.430	0.534
474.000	316.456	79.984	19.992	99.994	19.952	10.121	0.485
476.000	317.429	79.983	19.992	99.989	19.954	9.928	0.501
478.000	318.476	79.984	19.992	99.992	19.959	9.518	0.533
480.000	319.460	79.984	19.991	99.987	19.957	9.646	0.510
482.000	320.453	79.982	19.992	99.972	19.957	9.658	0.484
484.000	321.458	79.982	19.993	99.988	19.963	9.190	0.490
486.000	322.479	79.983	19.992	99.991	19.968	8.733	0.493
488.000	323.467	79.980	19.993	99.989	19.970	8.612	0.506
490.000	324.486	79.981	19.992	99.994	19.972	8.437	0.519
492.000	325.429	79.980	19.993	99.991	19.975	8.189	0.462
494.000	326.461	79.981	19.993	99.967	19.971	8.490	0.502
496.000	327.436	79.980	19.993	99.968	19.975	8.157	0.503
498.000	328.479	79.980	19.994	99.981	19.975	8.180	0.511
500.000	329.510	79.980	19.993	99.997	19.978	7.918	0.522
502.000	330.522	79.980	19.993	99.995	19.977	8.023	0.547
504.000	331.530	79.979	19.993	99.996	19.975	8.167	0.517
506.000	332.494	79.976	19.992	99.996	19.979	7.830	0.478
508.000	333.560	79.980	19.993	99.999	19.977	8.048	0.561
510.000	334.555	79.980	19.993	99.997	19.978	7.967	0.490
512.000	335.594	79.979	19.993	99.995	19.974	8.287	0.492
514.000	336.551	79.980	19.992	100.000	19.982	7.604	0.461
516.000	337.603	79.979	19.993	99.999	19.976	8.121	0.502
518.000	338.626	79.977	19.992	100.001	19.975	8.160	0.525
520.000	339.619	79.979	19.994	100.003	19.980	7.759	0.541
522.000	340.588	79.979	19.994	100.007	19.979	7.834	0.500
524.000	341.611	79.981	19.994	100.000	19.977	8.047	0.506
526.000	342.587	79.980	19.993	100.000	19.980	7.750	0.467
528.000	343.609	79.980	19.994	100.003	19.978	7.930	0.523
530.000	344.591	79.981	19.993	99.997	19.980	7.778	0.495
532.000	345.651	79.982	19.993	99.996	19.975	8.188	0.522
534.000	346.687	79.983	19.994	100.009	19.976	8.077	0.522
536.000	347.671	79.983	19.994	100.007	19.977	8.008	0.510
538.000	348.708	79.981	19.991	100.000	19.976	8.064	0.501
540.000	349.724	79.984	19.994	100.004	19.975	8.149	0.505
542.000	350.724	79.983	19.992	100.006	19.970	8.597	0.515
544.000	351.708	79.981	19.992	100.016	19.973	8.329	0.487
546.000	352.756	79.983	19.991	100.009	19.968	8.768	0.519
548.000	353.759	79.984	19.993	100.017	19.968	8.807	0.478
550.000	354.794	79.983	19.993	100.019	19.972	8.395	0.484
552.000	355.802	79.985	19.994	100.019	19.969	8.709	0.512
554.000	356.817	79.983	19.993	100.034	19.966	8.942	0.492
556.000	357.804	79.982	19.992	100.033	19.966	8.939	0.506
558.000	358.802	79.984	19.992	100.032	19.963	9.199	0.496
560.000	359.792	79.983	19.993	100.036	19.961	9.359	0.513
562.000	360.810	79.983	19.992	100.037	19.965	9.060	0.474
564.000	361.847	79.981	19.993	100.037	19.961	9.336	0.473
566.000	362.827	79.981	19.993	100.036	19.967	8.826	0.466
568.000	363.821	79.983	19.992	100.038	19.962	9.293	0.470
570.000	364.815	79.983	19.993	100.041	19.964	9.115	0.590
572.000	365.818	79.980	19.993	100.042	19.958	9.630	0.469
574.000	366.808	79.982	19.992	100.040	19.964	9.090	0.502
576.000	367.689	79.980	19.991	100.041	19.957	9.666	0.612
578.000	368.522	79.979	19.991	100.040	19.956	9.792	0.417
580.000	369.929	79.981	19.992	100.042	19.955	9.875	0.649
582.000	370.805	79.981	19.992	100.043	19.952	10.106	0.215
584.000	371.828	79.981	19.992	100.042	19.955	9.865	0.478
586.000	372.851	79.979	19.992	100.041	19.947	10.523	0.535
588.000	373.780	79.982	19.992	100.040	19.943	10.858	0.513
590.000	374.816	79.979	19.993	100.041	19.944	10.805	0.500
592.000	375.846	79.981	19.994	100.037	19.939	11.181	0.551
594.000	376.816	79.981	19.993	100.048	19.935	11.568	0.463
596.000	377.808	79.981	19.993	100.037	19.932	11.797	0.487
598.000	378.774	79.982	19.993	100.044	19.924	12.449	0.502
600.000	379.769	79.978	19.993	100.040	19.923	12.557	0.483
602.000	380.750	79.982	19.993	100.039	19.917	13.028	0.480
604.000	381.707	79.983	19.992	100.042	19.918	12.988	0.477
606.000	382.715	79.982	19.993	100.051	19.911	13.541	0.489
608.000	383.657	79.983	19.993	100.046	19.906	13.930	0.481
610.000	384.642	79.984	19.992	100.052	19.905	14.040	0.456
612.000	385.602	79.982	19.993	100.035	19.894	15.016	0.487
614.000	386.601	79.981	19.993	100.046	19.888	15.511	0.501
616.000	387.593	79.982	19.994	100.044	19.888	15.443	0.478
618.000	388.590	79.982	19.993	100.049	19.883	15.914	0.504
620.000	389.579	79.981	19.994	100.059	19.878	16.320	0.514
622.000	390.564	79.980	19.993	100.054	19.873	16.713	0.483
624.000	391.564	79.981	19.992	100.048	19.862	17.699	0.499
626.000	392.555	79.982	19.992	100.050	19.854	18.296	0.490
628.000	393.553	79.982	19.992	100.056	19.850	18.675	0.523
630.000	394.607	79.984	19.992	100.059	19.843	19.231	0.517
632.000	395.599	79.985	19.992	100.059	19.836	19.879	0.470
634.000	396.611	79.984	19.992	100.048	19.827	20.567	0.483
636.000	397.608	79.983	19.992	100.052	19.817	21.451	0.513
638.000	398.631	79.982	19.991	100.059	19.811	21.906	0.499
640.000	399.575	79.981	19.992	100.054	19.810	22.054	0.485
642.000	400.605	79.982	19.994	100.058	19.797	23.124	0.506
644.000	401.614	79.981	19.993	100.068	19.791	23.652	0.480
646.000	402.560	79.983	19.993	100.048	19.783	24.321	0.481
648.000	403.552	79.982	19.993	100.046	19.777	24.763	0.452
650.000	404.585	79.981	19.993	100.057	19.763	25.981	0.502
652.000	405.594	79.983	19.991	100.050	19.759	26.322	0.498
654.000	406.602	79.983	19.992	100.043	19.752	26.930	0.510
656.000	407.578	79.980	19.992	100.049	19.744	27.546	0.480
658.000	408.638	79.980	19.992	100.054	19.741	27.817	0.522
660.000	409.624	79.981	19.993	100.055	19.735	28.348	0.531
662.000	410.655	79.981	19.993	100.052	19.727	29.034	0.537
664.000	411.615	79.983	19.993	100.051	19.721	29.485	0.485
666.000	412.604	79.981	19.993	100.061	19.716	29.946	0.503
668.000	413.605	79.980	19.993	100.068	19.714	30.099	0.475
670.000	414.590	79.981	19.993	100.059	19.707	30.709	0.476
672.000	415.621	79.982	19.992	100.055	19.702	31.046	0.512
674.000	416.627	79.979	19.993	100.064	19.699	31.301	0.511
676.000	417.661	79.981	19.993	100.058	19.697	31.493	0.503
678.000	418.657	79.981	19.993	100.050	19.687	32.350	0.471
680.000	419.633	79.981	19.995	100.060	19.689	32.171	0.492
682.000	420.712	79.983	19.994	100.047	19.688	32.299	0.534
684.000	421.686	79.982	19.993	100.049	19.679	33.005	0.501
686.000	422.710	79.983	19.992	100.049	19.678	33.066	0.503
688.000	423.726	79.980	19.992	100.041	19.671	33.722	0.516
690.000	424.697	79.982	19.993	100.055	19.671	33.671	0.484
692.000	425.762	79.983	19.993	100.047	19.669	33.879	0.508
694.000	426.768	79.982	19.992	100.054	19.665	34.195	0.505
696.000	427.800	79.982	19.993	100.052	19.658	34.772	0.525
698.000	428.831	79.979	19.994	100.055	19.653	35.211	0.530
700.000	429.844	79.981	19.993	100.050	19.645	35.891	0.499
702.000	430.863	79.981	19.994	100.055	19.641	36.239	0.528
704.000	431.885	79.978	19.993	100.041	19.636	36.620	0.519
706.000	432.869	79.981	19.993	100.049	19.619	38.061	0.532
708.000	433.956	79.982	19.992	100.043	19.613	38.517	0.537
710.000	434.981	79.985	19.992	100.044	19.601	39.559	0.496
712.000	436.032	79.983	19.993	100.040	19.592	40.282	0.538
714.000	437.017	79.984	19.993	100.039	19.580	41.359	0.529
716.000	438.054	79.982	19.992	100.040	19.562	42.823	0.536
718.000	439.065	79.985	19.993	100.035	19.548	43.996	0.499
720.000	440.080	79.984	19.992	100.033	19.530	45.499	0.507
722.000	441.103	79.982	19.992	100.033	19.512	46.986	0.517
724.000	442.089	79.981	19.992	100.033	19.501	47.936	0.492
726.000	443.157	79.981	19.993	100.035	19.481	49.644	0.493
728.000	444.161	79.982	19.993	100.038	19.461	51.267	0.516
730.000	445.172	79.983	19.993	100.037	19.446	52.520	0.498
732.000	446.172	79.982	19.993	100.036	19.428	54.111	0.486
734.000	447.175	79.983	19.992	100.038	19.412	55.418	0.501
736.000	448.192	79.980	19.993	100.033	19.396	56.785	0.523
738.000	449.205	79.982	19.993	100.032	19.373	58.635	0.489
740.000	450.225	79.982	19.992	100.030	19.358	59.909	0.503
742.000	451.220	79.982	19.993	100.030	19.351	60.540	0.481
744.000	452.229	79.981	19.992	100.032	19.335	61.892	0.486
746.000	453.246	79.983	19.992	100.030	19.327	62.542	0.480
748.000	454.272	79.982	19.993	100.009	19.315	63.586	0.501
750.000	455.267	79.981	19.992	100.022	19.307	64.183	0.521
752.000	456.262	79.984	19.992	100.036	19.301	64.750	0.491
754.000	457.268	79.983	19.993	100.030	19.293	65.359	0.516
756.000	458.313	79.980	19.993	100.034	19.290	65.650	0.519
758.000	459.257	79.982	19.993	100.035	19.287	65.936	0.516
760.000	460.298	79.982	19.993	100.028	19.285	66.096	0.506
762.000	461.265	79.982	19.994	100.030	19.282	66.311	0.457
764.000	462.289	79.982	19.992	100.017	19.277	66.760	0.466
766.000	463.302	79.983	19.993	100.007	19.283	66.255	0.531
768.000	464.302	79.981	19.992	100.015	19.285	66.058	0.491
770.000	465.274	79.982	19.992	100.029	19.293	65.351	0.498
772.000	466.310	79.981	19.992	100.021	19.298	65.006	0.508
774.000	467.299	79.983	19.993	100.024	19.306	64.309	0.489
776.000	468.270	79.980	19.992	100.026	19.317	63.377	0.479
778.000	469.291	79.981	19.993	100.020	19.332	62.103	0.485
780.000	470.318	79.983	19.993	100.023	19.344	61.110	0.502
782.000	471.319	79.982	19.993	100.014	19.360	59.749	0.521
784.000	472.349	79.983	19.993	100.028	19.377	58.316	0.515
786.000	473.378	79.980	19.993	100.028	19.390	57.280	0.500
788.000	474.389	79.984	19.994	100.028	19.408	55.756	0.495
790.000	475.452	79.985	19.994	100.021	19.425	54.323	0.518
792.000	476.438	79.984	19.993	100.024	19.441	52.966	0.504
794.000	477.447	79.984	19.993	100.030	19.456	51.743	0.483
796.000	478.475	79.984	19.992	100.017	19.477	49.945	0.527
798.000	479.508	79.984	19.992	100.016	19.486	49.207	0.531
800.000	480.500	79.983	19.993	100.019	19.497	48.240	0.507
802.000	481.513	79.981	19.992	100.019	19.518	46.488	0.516
804.000	482.551	79.980	19.992	100.024	19.529	45.568	0.510
806.000	483.605	79.981	19.992	100.024	19.549	43.948	0.531
808.000	484.601	79.982	19.992	100.023	19.564	42.629	0.499
810.000	485.621	79.980	19.993	100.025	19.579	41.424	0.522
812.000	486.656	79.980	19.993	100.028	19.595	40.037	0.503
814.000	487.661	79.982	19.993	100.027	19.613	38.530	0.495
816.000	488.663	79.980	19.992	100.031	19.625	37.566	0.497
818.000	489.731	79.981	19.993	100.018	19.640	36.236	0.515
820.000	490.781	79.983	19.993	100.013	19.659	34.710	0.525
822.000	491.791	79.984	19.992	100.013	19.673	33.544	0.488
824.000	492.818	79.981	19.992	100.020	19.683	32.671	0.485
826.000	493.845	79.980	19.992	100.030	19.699	31.342	0.507
828.000	494.940	79.980	19.992	100.020	19.709	30.449	0.544
830.000	495.942	79.980	19.992	100.010	19.728	28.925	0.481
832.000	496.979	79.979	19.992	100.018	19.745	27.474	0.521
834.000	498.047	79.980	19.992	100.016	19.756	26.582	0.534
836.000	499.037	79.979	19.992	100.013	19.766	25.699	0.500
838.000	500.063	79.979	19.992	100.016	19.779	24.607	0.502
840.000	501.100	79.981	19.993	100.008	19.790	23.698	0.544
842.000	502.107	79.981	19.992	100.009	19.800	22.834	0.539
844.000	503.158	79.982	19.992	100.005	19.808	22.183	0.543
846.000	504.159	79.983	19.993	100.011	19.821	21.129	0.519
848.000	505.218	79.982	19.993	100.013	19.830	20.318	0.545
850.000	506.236	79.983	19.992	100.003	19.843	19.222	0.523
852.000	507.232	79.983	19.994	100.000	19.850	18.680	0.552
854.000	508.246	79.984	19.993	100.002	19.861	17.729	0.537
856.000	509.276	79.983	19.993	100.004	19.867	17.227	0.497
858.000	510.318	79.981	19.993	100.004	19.875	16.531	0.517
860.000	511.302	79.981	19.993	100.004	19.883	15.906	0.500
862.000	512.264	79.982	19.992	99.996	19.890	15.343	0.504
864.000	513.330	79.982	19.993	100.001	19.898	14.639	0.512
866.000	514.382	79.982	19.994	100.000	19.903	14.234	0.509
868.000	515.419	79.983	19.993	99.998	19.909	13.745	0.477
870.000	516.498	79.982	19.992	99.997	19.916	13.105	0.542
872.000	517.499	79.984	19.993	100.003	19.922	12.595	0.515
874.000	518.582	79.983	19.993	100.000	19.931	11.894	0.534
876.000	519.580	79.984	19.993	99.998	19.933	11.666	0.533
878.000	520.663	79.982	19.994	100.001	19.937	11.389	0.522
880.000	521.636	79.984	19.993	100.002	19.942	10.980	0.520
882.000	522.705	79.981	19.993	100.002	19.946	10.642	0.537
884.000	523.733	79.979	19.993	100.003	19.950	10.268	0.554
886.000	524.769	79.981	19.993	100.006	19.950	10.245	0.522
888.000	525.827	79.981	19.992	100.003	19.956	9.779	0.494
890.000	526.837	79.980	19.993	100.017	19.958	9.619	0.513
892.000	527.849	79.980	19.992	100.008	19.963	9.217	0.485
894.000	528.899	79.980	19.992	100.002	19.963	9.202	0.523
896.000	529.920	79.982	19.992	100.000	19.963	9.204	0.539
898.000	530.922	79.981	19.993	100.001	19.967	8.816	0.479
900.000	531.934	79.981	19.993	100.001	19.967	8.843	0.510
902.000	532.983	79.981	19.992	100.006	19.969	8.697	0.490
904.000	534.065	79.981	19.993	100.011	19.974	8.246	0.537
906.000	535.085	79.982	19.992	99.997	19.977	8.028	0.509
908.000	536.117	79.981	19.993	99.998	19.976	8.105	0.522
910.000	537.147	79.981	19.993	100.002	19.984	7.438	0.525
912.000	538.167	79.980	19.993	99.999	19.982	7.615	0.504
914.000	539.183	79.982	19.993	100.000	19.979	7.807	0.527
916.000	540.190	79.981	19.992	100.000	19.984	7.420	0.505
918.000	541.211	79.979	19.993	100.000	19.986	7.287	0.500
920.000	542.234	79.981	19.992	99.997	19.985	7.317	0.516
922.000	543.263	79.983	19.993	99.997	19.984	7.456	0.499
924.000	544.314	79.981	19.992	99.997	19.987	7.174	0.517
926.000	545.326	79.984	19.992	99.999	19.985	7.340	0.518
928.000	546.336	79.984	19.993	99.998	19.990	6.910	0.529
930.000	547.355	79.984	19.993	99.997	19.990	6.903	0.499
932.000	548.341	79.985	19.993	99.999	19.999	6.184	0.502
934.000	549.347	79.983	19.992	99.996	19.996	6.389	0.480
936.000	550.377	79.983	19.993	99.996	19.994	6.582	0.494
938.000	551.430	79.982	19.993	99.998	19.993	6.685	0.503
940.000	552.411	79.982	19.993	99.998	19.994	6.587	0.490
942.000	553.437	79.983	19.993	99.999	19.998	6.233	0.511
944.000	554.478	79.981	19.993	100.002	19.996	6.458	0.474
946.000	555.533	79.982	19.994	100.002	19.995	6.480	0.516
948.000	556.563	79.982	19.993	100.001	19.999	6.145	0.511
950.000	557.577	79.984	19.993	100.010	19.994	6.548	0.510
952.000	558.616	79.984	19.993	100.001	19.998	6.273	0.551
954.000	559.616	79.983	19.992	100.002	19.998	6.268	0.528
956.000	560.672	79.984	19.992	100.013	20.003	5.856	0.524
958.000	561.712	79.982	19.993	100.000	19.999	6.149	0.534
960.000	562.722	79.981	19.993	100.006	19.999	6.149	0.497
962.000	563.733	79.980	19.993	100.013	20.004	5.774	0.505
964.000	564.753	79.980	19.994	100.004	20.006	5.555	0.526
966.000	565.781	79.981	19.995	99.998	19.999	6.133	0.525
968.000	566.804	79.980	19.994	100.000	20.003	5.856	0.541
970.000	567.838	79.981	19.994	99.994	20.006	5.551	0.543
972.000	568.863	79.982	19.994	100.005	20.005	5.683	0.519
974.000	569.882	79.981	19.992	99.996	20.003	5.819	0.514
976.000	570.897	79.982	19.992	99.997	20.002	5.892	0.539
978.000	571.928	79.982	19.992	99.996	20.002	5.901	0.527
980.000	572.873	79.982	19.993	100.002	20.005	5.683	0.472
982.000	574.004	79.983	19.992	100.002	20.005	5.633	0.570
984.000	575.021	79.981	19.993	99.998	20.008	5.419	0.526
986.000	576.028	79.982	19.993	99.999	20.008	5.425	0.477
988.000	577.024	79.982	19.992	99.998	20.004	5.726	0.497
990.000	578.058	79.982	19.993	99.997	20.009	5.291	0.531
992.000	579.083	79.981	19.994	100.006	20.009	5.307	0.486
994.000	580.118	79.980	19.993	100.004	20.008	5.378	0.525
996.000	581.113	79.981	19.993	100.003	20.008	5.437	0.508
998.000	582.156	79.981	19.994	99.999	20.011	5.150	0.512
1000.000	583.208	79.982	19.992	100.000	20.013	5.000	0.526
1002.000	584.197	79.983	19.993	100.002	20.013	4.988	0.519
1004.000	585.227	79.981	19.993	100.002	20.011	5.168	0.521
1006.000	586.307	79.983	19.993	100.002	20.012	5.036	0.526
1008.000	587.295	79.985	19.993	100.008	20.014	4.900	0.496
1010.000	588.343	79.984	19.992	100.008	20.011	5.143	0.519
1012.000	589.368	79.984	19.992	100.002	20.009	5.307	0.524
1014.000	590.429	79.982	19.992	100.003	20.010	5.205	0.526
1016.000	591.479	79.982	19.992	100.003	20.012	5.105	0.517
1018.000	592.518	79.981	19.993	100.013	20.013	5.002	0.538
1020.000	593.554	79.982	19.992	100.007	20.012	5.052	0.509
1022.000	594.575	79.984	19.993	100.004	20.012	5.104	0.541
1024.000	595.608	79.983	19.993	100.012	20.013	4.997	0.499
1026.000	596.639	79.983	19.993	100.002	20.013	5.004	0.522
1027.999	597.696	79.984	19.993	100.001	20.014	4.918	0.527
1029.999	598.703	79.985	19.992	100.002	20.012	5.038	0.530
1031.999	599.712	79.984	19.993	100.004	20.009	5.357	0.489
1034.000	600.760	79.985	19.992	99.996	20.012	5.086	0.498
1035.999	601.718	79.985	19.994	99.997	20.013	5.018	0.491
1037.999	602.758	79.985	19.993	100.000	20.013	4.972	0.520
1039.999	603.742	79.984	19.993	99.998	20.012	5.043	0.494
1041.999	604.758	79.982	19.993	100.000	20.013	5.027	0.522
1043.999	605.767	79.982	19.993	100.008	20.015	4.838	0.478
1045.999	606.766	79.981	19.993	99.999	20.015	4.856	0.506
1047.999	607.759	79.981	19.993	100.004	20.013	5.018	0.463
1050.000	608.808	79.981	19.993	100.004	20.013	4.959	0.523
1051.999	609.801	79.981	19.993	100.001	20.013	4.957	0.520
1053.999	610.833	79.981	19.994	99.999	20.012	5.071	0.502
1055.999	611.879	79.981	19.994	100.006	20.011	5.120	0.541
1057.999	612.888	79.983	19.993	100.003	20.014	4.879	0.520
1060.000	613.907	79.983	19.993	99.994	20.016	4.699	0.498
1061.999	614.950	79.982	19.992	100.007	20.011	5.196	0.483
1063.999	616.021	79.982	19.992	100.011	20.014	4.888	0.545
1066.000	617.011	79.981	19.993	100.000	20.013	5.018	0.529
1067.999	617.987	79.981	19.992	99.999	20.013	4.972	0.502
1069.999	619.022	79.981	19.992	100.000	20.012	5.047	0.519
1071.999	619.984	79.980	19.993	100.001	20.016	4.772	0.477
1073.999	621.019	79.980	19.992	100.002	20.015	4.845	0.504
1076.000	622.023	79.980	19.992	100.001	20.013	5.027	0.493
1077.999	623.005	79.982	19.993	99.999	20.013	5.011	0.487
1079.999	623.978	79.982	19.992	99.999	20.013	4.979	0.496
1081.999	624.990	79.982	19.993	99.998	20.010	5.207	0.500
1083.999	625.985	79.982	19.993	99.999	20.012	5.061	0.485
1085.999	627.002	79.984	19.992	100.001	20.014	4.906	0.528
1087.999	627.999	79.984	19.994	100.001	20.014	4.922	0.510
1089.999	629.002	79.984	19.993	99.999	20.014	4.924	0.503
1091.999	629.995	79.983	19.993	99.997	20.012	5.106	0.513
1094.000	631.035	79.983	19.991	99.998	20.016	4.731	0.522
1096.001	632.074	79.983	19.993	99.996	20.016	4.772	0.488
1097.999	633.065	79.983	19.992	100.002	20.015	4.849	0.538
1100.000	634.115	79.983	19.993	99.999	20.012	5.056	0.511
1101.999	635.177	79.981	19.992	99.996	20.015	4.829	0.563
1103.999	636.222	79.983	19.993	99.996	20.014	4.867	0.508
1105.999	637.224	79.985	19.993	99.995	20.018	4.599	0.477
1107.999	638.216	79.983	19.992	99.995	20.016	4.724	0.505
1109.999	639.238	79.985	19.995	99.994	20.015	4.794	0.516
1112.000	640.278	79.984	19.993	99.993	20.016	4.772	0.503
1114.000	641.319	79.985	19.993	99.995	20.016	4.779	0.522
1115.999	642.361	79.985	19.993	99.994	20.015	4.799	0.518
1118.000	643.337	79.984	19.993	99.993	20.015	4.858	0.511
1119.999	644.379	79.983	19.994	99.992	20.011	5.177	0.502
1121.999	645.379	79.983	19.993	99.994	20.010	5.232	0.516
1123.999	646.380	79.981	19.993	99.999	20.012	5.070	0.515
1125.999	647.409	79.982	19.993	100.000	20.011	5.138	0.510
1127.999	648.373	79.981	19.992	99.999	20.014	4.947	0.467
1129.999	649.398	79.981	19.992	99.996	20.013	5.029	0.510
1131.999	650.407	79.982	19.992	100.000	20.014	4.920	0.466
1134.000	651.436	79.982	19.993	100.003	20.014	4.945	0.501
1135.999	652.449	79.981	19.994	99.999	20.010	5.280	0.526
1137.999	653.437	79.983	19.994	99.998	20.016	4.747	0.491
1139.999	654.456	79.981	19.993	99.998	20.013	4.984	0.532
1141.999	655.513	79.982	19.994	99.999	20.014	4.884	0.532
1143.999	656.488	79.982	19.994	99.999	20.012	5.095	0.489
1145.999	657.489	79.982	19.994	100.001	20.016	4.735	0.523
1147.999	658.508	79.981	19.993	100.000	20.014	4.872	0.506
1149.999	659.507	79.980	19.993	100.000	20.011	5.170	0.494
1151.999	660.525	79.981	19.993	100.002	20.014	4.895	0.516
1153.999	661.583	79.981	19.993	100.003	20.017	4.672	0.509
1155.999	662.592	79.983	19.992	100.001	20.015	4.861	0.514
1158.000	663.572	79.983	19.993	99.996	20.018	4.606	0.494
1159.999	664.555	79.982	19.994	99.998	20.015	4.863	0.502
1161.999	665.597	79.984	19.993	99.995	20.014	4.908	0.501
1163.999	666.632	79.984	19.993	99.995	20.015	4.829	0.509
1166.000	667.625	79.984	19.994	99.995	20.011	5.197	0.517
1167.999	668.641	79.983	19.993	99.996	20.010	5.218	0.489
1169.999	669.642	79.984	19.992	99.994	20.014	4.899	0.524
1171.999	670.678	79.983	19.992	99.990	20.012	5.113	0.518
1173.999	671.746	79.983	19.993	99.994	20.009	5.364	0.539
1175.999	672.678	79.984	19.992	99.992	20.014	4.929	0.515
1177.999	673.680	79.983	19.992	99.993	20.008	5.389	0.492
1179.999	674.685	79.982	19.992	99.991	20.012	5.052	0.495
1181.999	675.696	79.984	19.993	99.992	20.012	5.109	0.486
1183.999	676.693	79.983	19.992	99.995	20.012	5.034	0.480
1185.999	677.751	79.984	19.991	99.997	20.010	5.246	0.500
1188.001	678.734	79.984	19.991	99.996	20.011	5.116	0.495
1189.999	679.714	79.984	19.991	99.995	20.014	4.879	0.502
1192.000	680.760	79.985	19.992	99.996	20.012	5.100	0.494
1193.999	681.780	79.983	19.992	99.997	20.011	5.180	0.522
1195.999	682.801	79.984	19.992	100.001	20.017	4.690	0.497
1197.999	683.784	79.982	19.993	99.999	20.016	4.731	0.498
1199.999	684.727	79.980	19.993	99.998	20.013	4.995	0.506
1201.999	685.828	79.981	19.991	99.999	20.015	4.861	0.486
1203.999	686.846	79.981	19.994	100.006	20.014	4.920	0.493
1205.999	687.869	79.982	19.993	100.003	20.013	4.984	0.503
1207.999	688.886	79.981	19.993	100.001	20.008	5.396	0.538
1209.999	689.945	79.981	19.992	100.001	20.008	5.418	0.513
1212.000	690.923	79.980	19.994	100.009	20.012	5.097	0.509
1214.000	691.970	79.981	19.993	100.009	20.014	4.908	0.521
1215.999	692.992	79.980	19.992	100.005	20.013	5.029	0.558
1218.000	694.003	79.981	19.993	99.998	20.015	4.849	0.519
1219.999	695.021	79.982	19.993	99.996	20.016	4.758	0.505
1222.000	696.027	79.983	19.993	99.990	20.018	4.569	0.479
1223.999	697.085	79.981	19.993	99.996	20.014	4.924	0.546
1225.999	698.090	79.981	19.993	99.997	20.008	5.411	0.539
1228.000	699.107	79.981	19.994	99.994	20.016	4.706	0.502
1229.999	700.162	79.981	19.994	99.994	20.013	5.016	0.512
1231.999	701.150	79.981	19.993	99.999	20.011	5.186	0.507
1234.000	702.194	79.982	19.992	99.999	20.012	5.107	0.506
1235.999	703.231	79.981	19.993	99.997	20.010	5.225	0.531
1237.999	704.270	79.981	19.993	99.994	20.011	5.193	0.496
1239.999	705.241	79.982	19.992	100.000	20.010	5.252	0.494
1242.000	706.278	79.984	19.993	99.996	20.008	5.368	0.499
1243.999	707.279	79.984	19.993	99.994	20.009	5.287	0.504
1245.999	708.296	79.984	19.993	99.998	20.009	5.316	0.535
1248.000	709.346	79.982	19.993	99.996	20.010	5.270	0.540
1249.999	710.310	79.983	19.993	99.994	20.009	5.295	0.519
1251.999	711.350	79.981	19.992	99.994	20.011	5.161	0.516
1253.999	712.366	79.983	19.992	100.000	20.010	5.255	0.504
1256.000	713.399	79.982	19.993	99.998	20.009	5.362	0.540
1257.999	714.401	79.982	19.993	99.995	20.006	5.559	0.494
1260.000	715.438	79.982	19.993	99.995	20.012	5.051	0.520
1261.999	716.452	79.981	19.993	99.997	20.008	5.404	0.507
1263.999	717.438	79.985	19.992	99.999	20.012	5.031	0.488
1265.999	718.460	79.985	19.992	99.998	20.013	4.968	0.503
1268.000	719.492	79.985	19.991	99.998	20.013	4.981	0.492
1269.999	720.555	79.985	19.991	99.990	20.008	5.425	0.547
1271.999	721.524	79.984	19.992	99.984	20.009	5.347	0.496
1273.999	722.564	79.986	19.992	99.985	20.010	5.257	0.484
1275.999	723.595	79.983	19.992	99.999	20.012	5.097	0.495
1277.999	724.638	79.982	19.993	99.999	20.014	4.920	0.515
1279.999	725.620	79.983	19.992	99.997	20.010	5.254	0.518
1281.999	726.641	79.981	19.993	99.988	20.012	5.102	0.498
1283.999	727.649	79.982	19.993	99.992	20.008	5.386	0.492
1285.999	728.661	79.983	19.994	99.993	20.012	5.088	0.527
1287.999	729.677	79.982	19.993	99.993	20.012	5.090	0.509
1289.999	730.714	79.982	19.994	99.991	20.011	5.119	0.521
1292.000	731.713	79.982	19.993	99.999	20.011	5.179	0.480
1293.999	732.717	79.983	19.993	99.996	20.009	5.357	0.525
1296.000	733.724	79.983	19.994	99.994	20.008	5.368	0.541
1297.999	734.695	79.982	19.993	99.996	20.008	5.423	0.465
1299.999	735.722	79.982	19.993	99.963	20.009	5.336	0.514
1302.000	736.695	79.983	19.993	99.964	20.009	5.304	0.492
1303.999	737.700	79.982	19.993	100.042	20.014	4.885	0.507
1305.999	738.711	79.982	19.993	99.994	20.011	5.159	0.522
1308.000	739.705	79.980	19.993	99.991	20.011	5.131	0.501
1309.999	740.711	79.980	19.994	99.992	20.014	4.922	0.522
1312.000	741.702	79.982	19.994	99.995	20.010	5.209	0.515
1314.000	742.704	79.980	19.995	99.993	20.011	5.177	0.489
1316.000	743.735	79.982	19.994	99.992	20.014	4.924	0.554