File: 01_Data/Vinyl_Siding/MCC/Vinyl_Siding_30K_min_210609_R3.txt
Sample ID:	C:\MCC\MCC Cal\Test\Vinyl Siding\Vinyl_Siding_30_3.txt
Sample Weight (mg):	4.69
Heating Rate (C/s):	0.5
Combustor Temp (C):	900
N2 Flow Rate (cc/min):	80
O2 Flow Rate (cc/min):	20
Calibration File:	C:\MCC\MCC Cal\Coeff1 JN10440_30_210304.txt.txt
T Correction Coefficients:	0	1.024463	0
Time Shift (s):	14
*
Time (s)	Temperature (C)	N2 flow rate (cc/min)	O2 flow rate (cc/min)	Flow Rate (cc/min)	Oxygen (%)	HRR (W/g)	Heating rate (C/s)
0.000	111.309	79.982	19.992	99.889	20.077	0.040	0.023
2.000	111.291	79.982	19.992	99.904	20.079	-0.041	0.005
4.000	111.261	79.982	19.992	99.896	20.079	-0.087	-0.004
6.000	111.250	79.981	19.991	99.892	20.076	0.125	0.006
8.000	111.241	79.980	19.993	99.896	20.077	0.070	-0.009
10.001	111.191	79.981	19.994	99.894	20.072	0.376	-0.012
12.000	111.211	79.982	19.993	99.888	20.075	0.191	-0.006
14.000	111.172	79.983	19.993	99.914	20.075	0.181	-0.002
16.000	111.161	79.982	19.994	99.913	20.072	0.367	-0.014
18.000	111.154	79.982	19.993	99.943	20.066	0.799	0.000
20.000	111.173	79.980	19.992	99.992	20.063	0.993	-0.033
22.000	111.214	79.983	19.993	100.017	20.054	1.629	0.029
24.000	111.287	79.980	19.994	100.047	20.051	1.788	0.044
26.000	111.411	79.983	19.993	100.065	20.047	2.048	0.079
28.000	111.546	79.980	19.993	100.077	20.043	2.330	0.079
30.000	111.781	79.980	19.994	100.099	20.040	2.502	0.110
32.000	111.956	79.983	19.994	100.114	20.034	2.926	0.093
34.000	112.250	79.982	19.993	100.114	20.030	3.178	0.145
36.001	112.535	79.981	19.993	100.092	20.038	2.670	0.147
38.001	112.865	79.982	19.993	100.100	20.032	3.030	0.152
40.000	113.219	79.982	19.993	100.101	20.035	2.893	0.172
42.001	113.580	79.981	19.993	100.097	20.034	2.925	0.176
44.000	114.001	79.980	19.993	100.086	20.036	2.770	0.207
46.001	114.413	79.982	19.992	100.103	20.037	2.708	0.223
48.001	114.863	79.983	19.993	100.116	20.038	2.652	0.232
50.000	115.367	79.983	19.993	100.117	20.030	3.225	0.275
52.000	115.847	79.982	19.992	100.127	20.035	2.882	0.247
54.000	116.351	79.984	19.993	100.113	20.035	2.884	0.257
56.000	116.937	79.984	19.992	100.113	20.033	2.983	0.278
58.000	117.495	79.981	19.992	100.113	20.031	3.128	0.283
60.000	118.092	79.983	19.993	100.107	20.032	3.074	0.261
62.000	118.665	79.984	19.992	100.110	20.032	3.091	0.287
64.000	119.217	79.982	19.992	100.110	20.035	2.861	0.273
66.000	119.883	79.982	19.993	100.115	20.034	2.924	0.310
68.000	120.464	79.981	19.993	100.116	20.038	2.691	0.313
70.000	121.126	79.982	19.993	100.125	20.034	2.959	0.338
72.001	121.786	79.982	19.993	100.141	20.028	3.308	0.315
74.000	122.488	79.983	19.995	100.143	20.030	3.190	0.336
76.000	123.178	79.981	19.993	100.149	20.026	3.488	0.339
78.000	123.915	79.983	19.992	100.152	20.023	3.648	0.361
80.000	124.652	79.984	19.991	100.151	20.026	3.470	0.375
82.000	125.442	79.982	19.992	100.153	20.024	3.578	0.388
84.000	126.197	79.983	19.993	100.156	20.025	3.524	0.366
86.000	126.941	79.981	19.993	100.155	20.022	3.746	0.381
88.000	127.754	79.981	19.992	100.092	20.022	3.731	0.398
90.000	128.545	79.982	19.992	100.208	20.022	3.724	0.387
92.001	129.389	79.982	19.993	100.179	20.023	3.659	0.429
94.000	130.223	79.981	19.993	100.167	20.019	3.914	0.402
96.000	131.088	79.982	19.995	100.159	20.021	3.767	0.421
98.000	131.944	79.979	19.994	100.162	20.023	3.679	0.425
100.000	132.852	79.981	19.993	100.158	20.021	3.822	0.454
102.000	133.742	79.979	19.993	100.155	20.022	3.749	0.440
104.000	134.611	79.981	19.993	100.159	20.023	3.637	0.426
106.000	135.562	79.983	19.994	100.158	20.019	3.899	0.472
108.000	136.441	79.983	19.993	100.156	20.014	4.254	0.458
110.000	137.422	79.981	19.993	100.156	20.017	4.064	0.502
112.000	138.391	79.982	19.993	100.155	20.018	4.010	0.500
114.000	139.308	79.981	19.993	100.154	20.019	3.928	0.469
116.001	140.315	79.983	19.993	100.151	20.026	3.458	0.500
118.000	141.260	79.981	19.993	100.151	20.021	3.823	0.476
120.001	142.220	79.981	19.994	100.153	20.022	3.717	0.458
122.000	143.213	79.979	19.993	100.149	20.024	3.568	0.467
124.000	144.188	79.981	19.992	100.155	20.025	3.530	0.479
126.000	145.224	79.983	19.994	100.151	20.018	3.964	0.490
128.000	146.242	79.981	19.994	100.149	20.028	3.315	0.501
130.000	147.228	79.981	19.994	100.150	20.017	4.056	0.514
132.000	148.250	79.982	19.993	100.149	20.020	3.890	0.486
134.000	149.281	79.985	19.993	100.149	20.028	3.340	0.526
136.000	150.326	79.984	19.992	100.149	20.021	3.819	0.499
138.000	151.337	79.986	19.992	100.137	20.019	3.929	0.509
140.000	152.308	79.985	19.992	100.144	20.024	3.614	0.502
142.000	153.356	79.984	19.992	100.148	20.018	3.982	0.496
144.000	154.350	79.982	19.993	100.144	20.023	3.638	0.482
146.000	155.360	79.984	19.992	100.143	20.019	3.907	0.534
148.000	156.418	79.982	19.994	100.132	20.021	3.775	0.495
150.000	157.406	79.981	19.993	100.121	20.019	3.904	0.477
152.000	158.420	79.982	19.993	100.134	20.027	3.396	0.512
154.000	159.481	79.980	19.992	100.144	20.023	3.663	0.539
156.000	160.493	79.980	19.992	100.131	20.025	3.524	0.522
158.000	161.493	79.981	19.993	100.123	20.026	3.444	0.500
160.000	162.519	79.979	19.992	100.129	20.025	3.533	0.493
162.000	163.598	79.979	19.993	100.128	20.023	3.645	0.530
164.000	164.622	79.979	19.992	100.127	20.022	3.703	0.520
166.000	165.640	79.981	19.992	100.119	20.025	3.556	0.530
168.000	166.696	79.982	19.993	100.123	20.020	3.880	0.533
170.000	167.699	79.982	19.992	100.125	20.024	3.574	0.494
172.000	168.715	79.981	19.992	100.120	20.023	3.675	0.528
174.000	169.742	79.981	19.993	100.120	20.025	3.516	0.512
176.000	170.751	79.981	19.993	100.124	20.027	3.377	0.510
178.000	171.729	79.980	19.993	100.115	20.022	3.726	0.543
180.000	172.782	79.980	19.992	100.113	20.023	3.635	0.553
182.000	173.802	79.981	19.993	100.113	20.023	3.670	0.514
184.000	174.790	79.981	19.994	100.111	20.021	3.814	0.487
186.000	175.856	79.981	19.993	100.113	20.028	3.339	0.500
188.000	176.835	79.981	19.993	100.112	20.027	3.389	0.509
190.000	177.835	79.982	19.993	100.109	20.027	3.369	0.501
192.000	178.855	79.983	19.993	100.107	20.024	3.592	0.492
194.000	179.802	79.981	19.993	100.104	20.025	3.541	0.488
196.000	180.826	79.984	19.993	100.107	20.024	3.595	0.516
198.000	181.835	79.982	19.993	100.101	20.024	3.570	0.494
200.000	182.841	79.982	19.994	100.096	20.025	3.539	0.501
202.000	183.821	79.978	19.992	100.095	20.027	3.389	0.472
204.000	184.857	79.981	19.994	100.098	20.027	3.381	0.508
206.000	185.839	79.982	19.992	100.084	20.025	3.519	0.494
208.000	186.842	79.982	19.993	100.090	20.021	3.790	0.530
210.000	187.810	79.981	19.993	100.096	20.023	3.644	0.499
212.000	188.755	79.984	19.993	100.093	20.023	3.687	0.466
214.000	189.754	79.980	19.992	100.088	20.027	3.401	0.512
216.000	190.735	79.985	19.993	100.086	20.021	3.772	0.513
218.000	191.711	79.985	19.993	100.029	20.024	3.613	0.489
220.000	192.684	79.983	19.992	100.117	20.024	3.604	0.503
222.000	193.640	79.981	19.992	100.118	20.022	3.743	0.461
224.000	194.577	79.980	19.993	100.078	20.028	3.335	0.478
226.000	195.550	79.980	19.991	100.080	20.022	3.728	0.491
228.000	196.525	79.981	19.994	100.077	20.025	3.555	0.478
230.000	197.451	79.983	19.992	100.084	20.022	3.732	0.467
232.000	198.463	79.981	19.993	100.082	20.022	3.736	0.489
234.000	199.437	79.981	19.993	100.085	20.018	4.010	0.496
236.000	200.397	79.983	19.993	100.083	20.022	3.716	0.485
238.000	201.380	79.983	19.994	100.078	20.022	3.712	0.475
240.000	202.330	79.983	19.992	100.077	20.021	3.765	0.459
242.001	203.289	79.982	19.992	100.079	20.026	3.475	0.498
244.000	204.214	79.982	19.993	100.077	20.024	3.625	0.469
246.000	205.233	79.981	19.993	100.073	20.021	3.820	0.494
248.000	206.150	79.983	19.992	100.075	20.017	4.055	0.463
250.000	207.185	79.982	19.993	100.082	20.023	3.685	0.502
252.000	208.148	79.982	19.993	100.079	20.019	3.922	0.481
254.000	209.088	79.984	19.992	100.076	20.019	3.943	0.447
256.000	210.088	79.980	19.993	100.076	20.020	3.878	0.524
258.000	211.012	79.982	19.993	100.075	20.020	3.838	0.475
260.000	212.013	79.983	19.993	100.076	20.016	4.113	0.510
262.000	213.001	79.980	19.993	100.075	20.016	4.093	0.504
264.000	214.006	79.985	19.993	100.076	20.013	4.305	0.510
266.000	214.987	79.983	19.993	100.075	20.017	4.043	0.517
268.000	215.937	79.985	19.994	100.073	20.019	3.940	0.501
270.000	216.922	79.982	19.992	100.074	20.017	4.028	0.516
272.000	217.883	79.981	19.993	100.074	20.016	4.099	0.492
274.000	218.843	79.983	19.993	100.071	20.016	4.144	0.501
276.000	219.851	79.984	19.995	100.079	20.012	4.381	0.514
278.000	220.845	79.984	19.993	100.077	20.016	4.111	0.470
280.000	221.832	79.983	19.993	100.078	20.014	4.276	0.515
282.000	222.871	79.983	19.993	100.078	20.009	4.605	0.516
284.000	223.765	79.984	19.993	100.081	20.009	4.623	0.491
286.000	224.737	79.983	19.994	100.077	20.006	4.767	0.439
288.000	225.766	79.982	19.993	100.076	20.000	5.212	0.505
290.000	226.735	79.983	19.993	100.077	20.002	5.082	0.497
292.000	227.811	79.983	19.992	100.077	19.997	5.392	0.515
294.001	228.846	79.984	19.994	100.076	19.997	5.385	0.534
296.000	229.752	79.984	19.993	100.077	19.994	5.615	0.521
298.000	230.794	79.983	19.993	100.071	19.995	5.508	0.514
300.000	231.740	79.984	19.994	100.074	19.986	6.137	0.453
302.000	232.758	79.982	19.994	100.073	19.984	6.236	0.484
304.000	233.749	79.981	19.993	100.071	19.982	6.376	0.511
306.000	234.744	79.983	19.995	100.073	19.980	6.515	0.489
308.000	235.728	79.980	19.994	100.072	19.976	6.789	0.489
310.000	236.727	79.982	19.994	100.072	19.974	6.944	0.492
312.000	237.734	79.981	19.992	100.072	19.969	7.246	0.473
314.000	238.686	79.983	19.993	100.073	19.964	7.615	0.460
316.000	239.697	79.982	19.993	100.073	19.961	7.768	0.508
318.000	240.692	79.982	19.992	100.072	19.955	8.159	0.530
320.000	241.707	79.981	19.993	100.072	19.960	7.841	0.489
322.000	242.718	79.981	19.993	100.059	19.954	8.251	0.499
324.000	243.748	79.983	19.993	100.062	19.950	8.489	0.512
326.000	244.735	79.982	19.993	100.066	19.955	8.188	0.510
328.000	245.685	79.982	19.993	100.053	19.957	8.045	0.459
330.000	246.673	79.983	19.994	100.044	19.959	7.913	0.506
332.000	247.648	79.982	19.992	100.060	19.959	7.912	0.484
334.000	248.675	79.980	19.993	100.064	19.956	8.114	0.518
336.000	249.683	79.981	19.992	100.062	19.961	7.802	0.510
338.000	250.653	79.981	19.993	100.071	19.964	7.575	0.482
340.000	251.632	79.981	19.993	100.066	19.965	7.554	0.492
342.000	252.629	79.982	19.992	100.074	19.969	7.283	0.516
344.000	253.597	79.983	19.993	100.073	19.966	7.485	0.464
346.001	254.615	79.983	19.993	100.077	19.966	7.480	0.542
348.000	255.574	79.983	19.992	100.073	19.964	7.587	0.496
350.000	256.492	79.983	19.992	100.076	19.962	7.703	0.454
352.000	257.511	79.983	19.993	100.075	19.962	7.700	0.465
354.000	258.503	79.982	19.992	100.075	19.957	8.024	0.508
356.000	259.493	79.982	19.992	100.074	19.953	8.288	0.498
358.000	260.489	79.981	19.993	100.074	19.953	8.318	0.504
360.000	261.464	79.981	19.993	100.078	19.952	8.362	0.520
362.000	262.419	79.983	19.993	100.077	19.949	8.588	0.500
364.000	263.419	79.983	19.993	100.075	19.946	8.800	0.488
366.000	264.410	79.983	19.993	100.080	19.942	9.051	0.493
368.000	265.387	79.983	19.993	100.078	19.939	9.273	0.474
370.000	266.331	79.984	19.994	100.075	19.936	9.440	0.461
372.000	267.341	79.984	19.993	100.080	19.933	9.665	0.482
374.000	268.323	79.984	19.992	100.081	19.933	9.651	0.509
376.000	269.277	79.984	19.992	100.085	19.929	9.893	0.485
378.000	270.309	79.984	19.993	100.094	19.928	9.985	0.504
380.000	271.277	79.984	19.993	100.105	19.924	10.256	0.500
382.000	272.289	79.983	19.994	100.111	19.921	10.480	0.495
384.000	273.265	79.982	19.994	100.112	19.922	10.403	0.523
386.000	274.190	79.981	19.993	100.119	19.915	10.843	0.453
388.000	275.259	79.980	19.994	100.117	19.909	11.240	0.519
390.000	276.218	79.981	19.994	100.124	19.910	11.159	0.504
392.000	277.205	79.982	19.994	100.144	19.908	11.316	0.498
394.000	278.197	79.981	19.995	100.150	19.913	11.010	0.503
396.000	279.194	79.981	19.995	100.150	19.906	11.474	0.523
398.000	280.182	79.982	19.993	100.154	19.903	11.635	0.468
400.000	281.103	79.982	19.992	100.154	19.900	11.845	0.454
402.000	282.108	79.982	19.993	100.161	19.900	11.832	0.482
404.000	283.096	79.982	19.992	100.167	19.905	11.501	0.503
406.000	284.101	79.983	19.993	100.160	19.900	11.843	0.487
408.000	285.141	79.980	19.992	100.173	19.905	11.526	0.522
410.000	286.068	79.981	19.993	100.181	19.907	11.417	0.463
412.000	287.048	79.982	19.993	100.190	19.908	11.336	0.491
414.000	288.067	79.980	19.993	100.188	19.913	10.963	0.484
416.000	289.071	79.981	19.993	100.190	19.915	10.889	0.474
418.000	290.111	79.983	19.993	100.191	19.921	10.487	0.514
420.000	291.089	79.983	19.993	100.194	19.922	10.413	0.479
422.000	292.130	79.981	19.992	100.200	19.924	10.272	0.528
424.000	293.100	79.983	19.993	100.199	19.926	10.148	0.486
426.001	294.103	79.983	19.992	100.197	19.929	9.899	0.518
428.000	295.115	79.984	19.992	100.194	19.929	9.950	0.510
430.000	296.131	79.983	19.992	100.189	19.927	10.067	0.517
432.000	297.130	79.982	19.992	100.181	19.920	10.508	0.532
434.000	298.130	79.984	19.992	100.186	19.921	10.445	0.513
436.000	299.148	79.983	19.993	100.178	19.920	10.516	0.480
438.000	300.181	79.982	19.993	100.154	19.923	10.355	0.518
440.000	301.160	79.983	19.993	100.163	19.918	10.625	0.518
442.000	302.218	79.981	19.993	100.152	19.918	10.622	0.535
444.000	303.211	79.981	19.993	100.154	19.918	10.621	0.488
446.000	304.185	79.983	19.993	100.145	19.921	10.454	0.509
448.000	305.202	79.982	19.993	100.131	19.912	11.014	0.493
450.000	306.222	79.981	19.993	100.112	19.921	10.416	0.503
452.000	307.226	79.984	19.993	100.098	19.921	10.419	0.501
454.000	308.214	79.985	19.992	100.074	19.920	10.510	0.489
456.000	309.264	79.983	19.992	100.065	19.924	10.269	0.512
458.000	310.286	79.985	19.993	100.037	19.929	9.905	0.485
460.000	311.288	79.985	19.993	100.032	19.933	9.641	0.518
462.000	312.308	79.982	19.993	100.026	19.935	9.507	0.521
464.000	313.291	79.981	19.993	100.015	19.944	8.936	0.491
466.000	314.366	79.982	19.993	100.019	19.944	8.910	0.506
468.001	315.356	79.982	19.993	100.014	19.948	8.675	0.537
470.000	316.372	79.980	19.993	99.998	19.954	8.228	0.499
472.000	317.376	79.981	19.994	99.989	19.954	8.260	0.480
474.000	318.429	79.981	19.995	99.991	19.957	8.052	0.491
476.000	319.413	79.979	19.994	99.988	19.958	7.980	0.500
478.000	320.442	79.981	19.993	99.976	19.965	7.542	0.520
480.000	321.506	79.982	19.993	99.974	19.967	7.384	0.533
482.000	322.450	79.981	19.993	99.986	19.969	7.250	0.466
484.000	323.495	79.983	19.993	99.996	19.969	7.225	0.501
486.000	324.488	79.981	19.992	99.996	19.976	6.781	0.497
488.000	325.510	79.981	19.993	100.006	19.978	6.643	0.482
490.000	326.499	79.982	19.994	100.001	19.978	6.649	0.494
492.000	327.480	79.982	19.993	99.997	19.979	6.604	0.512
494.000	328.498	79.981	19.994	99.994	19.982	6.396	0.468
496.000	329.481	79.982	19.993	99.994	19.983	6.344	0.490
498.000	330.539	79.982	19.994	99.996	19.984	6.256	0.504
500.000	331.530	79.981	19.993	99.996	19.981	6.479	0.494
502.000	332.556	79.983	19.992	99.994	19.984	6.272	0.473
504.000	333.587	79.982	19.994	100.004	19.981	6.448	0.508
506.000	334.572	79.983	19.993	99.999	19.981	6.437	0.500
508.000	335.610	79.983	19.992	100.009	19.979	6.564	0.519
510.000	336.657	79.983	19.991	100.001	19.981	6.423	0.517
512.000	337.670	79.984	19.992	100.004	19.977	6.727	0.525
514.001	338.635	79.983	19.993	100.024	19.980	6.548	0.479
516.000	339.643	79.982	19.992	100.024	19.975	6.878	0.500
518.001	340.660	79.983	19.993	100.021	19.973	6.995	0.528
520.000	341.676	79.983	19.994	100.028	19.972	7.042	0.489
522.000	342.700	79.984	19.992	100.026	19.973	6.956	0.491
524.000	343.681	79.983	19.993	100.011	19.965	7.495	0.508
526.000	344.657	79.983	19.992	99.964	19.964	7.576	0.514
528.000	345.696	79.982	19.993	100.035	19.970	7.194	0.499
530.000	346.778	79.984	19.993	100.101	19.968	7.343	0.502
532.000	347.719	79.982	19.992	100.088	19.965	7.535	0.448
534.000	348.548	79.984	19.992	100.040	19.964	7.606	0.434
536.000	349.554	79.985	19.994	100.036	19.961	7.815	0.470
538.000	350.657	79.984	19.993	100.038	19.956	8.144	0.771
540.000	351.825	79.983	19.993	100.049	19.959	7.924	0.565
542.000	352.830	79.982	19.993	100.063	19.957	8.031	0.519
544.000	353.805	79.982	19.993	100.049	19.957	8.062	0.495
546.000	354.851	79.981	19.993	100.054	19.959	7.941	0.557
548.000	355.824	79.980	19.993	100.063	19.954	8.286	0.519
550.000	356.807	79.981	19.993	100.062	19.955	8.183	0.514
552.000	357.816	79.981	19.993	100.068	19.954	8.234	0.515
554.000	358.850	79.982	19.994	100.071	19.950	8.506	0.468
556.000	359.846	79.983	19.993	100.074	19.949	8.609	0.514
558.000	360.828	79.982	19.994	100.073	19.952	8.382	0.494
560.000	361.827	79.982	19.994	100.073	19.952	8.364	0.517
562.000	362.822	79.982	19.995	100.073	19.954	8.259	0.480
564.000	363.806	79.980	19.994	100.077	19.950	8.497	0.500
566.000	364.815	79.983	19.993	100.071	19.948	8.642	0.487
568.000	365.854	79.981	19.994	100.073	19.944	8.938	0.523
570.000	366.822	79.982	19.994	100.074	19.943	9.018	0.492
572.000	367.814	79.981	19.993	100.074	19.941	9.132	0.499
574.000	368.811	79.983	19.994	100.073	19.942	9.031	0.513
576.000	369.771	79.982	19.993	100.077	19.939	9.268	0.490
578.000	370.778	79.981	19.993	100.076	19.940	9.205	0.481
580.000	371.783	79.983	19.993	100.077	19.934	9.571	0.469
582.000	372.798	79.984	19.992	100.077	19.930	9.851	0.459
584.000	373.822	79.984	19.993	100.076	19.934	9.589	0.519
586.000	374.823	79.984	19.993	100.074	19.921	10.462	0.493
588.000	375.812	79.983	19.993	100.083	19.914	10.916	0.506
590.000	376.858	79.983	19.992	100.073	19.908	11.347	0.544
592.000	377.863	79.983	19.993	100.079	19.904	11.591	0.511
594.000	378.861	79.982	19.993	100.088	19.900	11.854	0.501
596.001	379.881	79.982	19.991	100.078	19.897	12.043	0.509
598.000	380.897	79.980	19.992	100.079	19.890	12.505	0.504
600.000	381.869	79.985	19.993	100.087	19.885	12.872	0.492
602.000	382.907	79.983	19.993	100.076	19.879	13.221	0.511
604.000	383.906	79.982	19.992	100.079	19.871	13.754	0.504
606.000	384.917	79.984	19.991	100.086	19.863	14.309	0.517
608.000	385.930	79.983	19.991	100.095	19.858	14.663	0.511
610.000	386.949	79.985	19.991	100.092	19.848	15.311	0.519
612.000	387.916	79.985	19.992	100.080	19.843	15.664	0.484
614.000	388.948	79.984	19.991	100.089	19.835	16.151	0.492
616.000	389.931	79.985	19.994	100.098	19.824	16.907	0.514
618.000	390.980	79.984	19.993	100.076	19.820	17.164	0.502
620.000	392.013	79.983	19.993	100.079	19.813	17.631	0.503
622.000	393.019	79.981	19.992	100.090	19.797	18.720	0.522
624.000	394.070	79.981	19.993	100.080	19.789	19.210	0.500
626.000	395.076	79.981	19.993	100.095	19.784	19.597	0.508
628.000	396.070	79.981	19.993	100.082	19.774	20.231	0.487
630.000	397.089	79.981	19.993	100.088	19.762	21.024	0.491
632.000	398.147	79.981	19.993	100.077	19.751	21.740	0.520
634.000	399.164	79.981	19.993	100.079	19.740	22.481	0.505
636.000	400.133	79.982	19.992	100.076	19.729	23.265	0.475
638.000	401.148	79.981	19.993	100.073	19.720	23.843	0.500
640.000	402.169	79.982	19.993	100.073	19.710	24.520	0.481
642.000	403.180	79.983	19.993	100.081	19.701	25.079	0.489
644.000	404.203	79.981	19.993	100.083	19.690	25.852	0.487
646.000	405.186	79.983	19.993	100.082	19.679	26.583	0.509
648.000	406.197	79.980	19.994	100.080	19.669	27.202	0.521
650.000	407.229	79.980	19.993	100.075	19.659	27.900	0.521
652.000	408.216	79.981	19.994	100.077	19.653	28.308	0.473
654.000	409.251	79.982	19.993	100.078	19.639	29.257	0.495
656.000	410.288	79.981	19.994	100.079	19.634	29.587	0.533
658.000	411.290	79.981	19.993	100.079	19.624	30.215	0.499
660.000	412.295	79.981	19.992	100.076	19.622	30.345	0.512
662.000	413.271	79.981	19.991	100.085	19.614	30.921	0.507
664.001	414.260	79.982	19.992	100.080	19.608	31.271	0.511
666.000	415.274	79.983	19.993	100.085	19.605	31.465	0.466
668.000	416.235	79.983	19.992	100.078	19.600	31.840	0.526
670.000	417.254	79.982	19.993	100.075	19.594	32.189	0.528
672.000	418.280	79.983	19.992	100.076	19.591	32.411	0.509
674.000	419.278	79.983	19.992	100.080	19.589	32.543	0.527
676.000	420.328	79.982	19.992	100.082	19.586	32.772	0.530
678.000	421.350	79.982	19.992	100.078	19.577	33.341	0.499
680.000	422.350	79.982	19.993	100.076	19.574	33.558	0.492
682.000	423.350	79.983	19.992	100.073	19.573	33.620	0.485
684.000	424.362	79.982	19.992	100.074	19.566	34.053	0.505
686.000	425.346	79.983	19.993	100.072	19.561	34.398	0.456
688.001	426.404	79.984	19.992	100.072	19.563	34.307	0.539
690.000	427.360	79.985	19.993	100.071	19.554	34.909	0.501
692.000	428.389	79.985	19.991	100.071	19.545	35.487	0.503
694.000	429.396	79.985	19.991	100.070	19.538	35.941	0.485
696.000	430.392	79.984	19.992	100.070	19.529	36.542	0.500
698.000	431.465	79.985	19.993	100.071	19.515	37.494	0.523
700.000	432.452	79.983	19.993	100.068	19.507	38.028	0.490
702.000	433.519	79.982	19.993	100.060	19.496	38.711	0.545
704.000	434.534	79.982	19.993	100.061	19.482	39.690	0.538
706.000	435.522	79.981	19.993	100.070	19.467	40.696	0.478
708.000	436.574	79.982	19.994	100.070	19.452	41.691	0.483
710.000	437.567	79.981	19.992	100.059	19.439	42.557	0.483
712.000	438.549	79.980	19.993	100.043	19.420	43.827	0.491
714.000	439.558	79.981	19.993	100.054	19.404	44.855	0.507
716.000	440.616	79.982	19.993	100.062	19.389	45.887	0.518
718.000	441.593	79.982	19.993	100.048	19.366	47.415	0.491
720.000	442.608	79.981	19.992	100.051	19.351	48.407	0.510
722.000	443.620	79.982	19.992	100.062	19.329	49.881	0.521
724.000	444.631	79.981	19.992	100.054	19.310	51.128	0.511
726.000	445.656	79.981	19.994	100.048	19.292	52.294	0.507
728.000	446.675	79.980	19.992	100.057	19.278	53.266	0.513
730.000	447.681	79.981	19.993	100.043	19.257	54.637	0.502
732.000	448.705	79.979	19.993	100.038	19.236	56.019	0.517
734.000	449.750	79.980	19.993	100.051	19.223	56.908	0.494
736.000	450.754	79.981	19.993	100.042	19.204	58.144	0.498
738.000	451.798	79.980	19.994	100.038	19.199	58.462	0.514
740.001	452.813	79.981	19.994	100.039	19.184	59.522	0.494
742.000	453.852	79.982	19.994	100.038	19.171	60.344	0.558
744.001	454.889	79.983	19.993	100.038	19.165	60.782	0.514
746.000	455.895	79.983	19.994	100.035	19.156	61.326	0.491
748.000	456.933	79.983	19.992	100.033	19.153	61.564	0.523
750.000	457.925	79.983	19.993	100.037	19.142	62.291	0.531
752.000	458.968	79.983	19.993	100.034	19.135	62.751	0.525
754.000	460.004	79.982	19.993	100.035	19.128	63.229	0.527
756.000	460.962	79.982	19.993	100.032	19.126	63.325	0.485
758.000	461.987	79.983	19.993	100.033	19.120	63.762	0.519
760.000	462.975	79.983	19.991	100.031	19.122	63.628	0.465
762.000	463.962	79.984	19.992	100.027	19.126	63.377	0.481
764.000	465.038	79.982	19.992	100.028	19.135	62.761	0.530
766.000	466.010	79.984	19.994	100.023	19.153	61.586	0.488
768.000	467.012	79.983	19.992	100.027	19.169	60.520	0.493
770.000	468.041	79.986	19.993	100.028	19.194	58.849	0.531
772.000	469.077	79.984	19.993	100.024	19.209	57.789	0.532
774.000	470.060	79.984	19.992	100.031	19.235	56.090	0.521
776.000	471.086	79.984	19.991	100.031	19.255	54.756	0.506
778.000	472.082	79.982	19.992	100.036	19.273	53.547	0.524
780.000	473.126	79.982	19.993	100.034	19.294	52.196	0.504
782.000	474.148	79.981	19.993	100.034	19.313	50.930	0.525
784.000	475.175	79.981	19.993	100.024	19.334	49.519	0.505
786.000	476.182	79.982	19.992	100.036	19.346	48.686	0.510
788.000	477.212	79.981	19.993	100.030	19.364	47.501	0.515
790.000	478.243	79.981	19.993	100.035	19.382	46.340	0.504
792.000	479.224	79.982	19.992	100.027	19.403	44.911	0.513
794.000	480.274	79.982	19.992	100.027	19.420	43.771	0.519
796.000	481.308	79.982	19.993	100.035	19.439	42.508	0.533
798.000	482.277	79.981	19.993	100.035	19.456	41.367	0.470
800.000	483.288	79.980	19.993	100.035	19.473	40.239	0.508
802.000	484.283	79.980	19.993	100.036	19.495	38.774	0.509
804.000	485.330	79.982	19.993	100.036	19.515	37.475	0.528
806.000	486.311	79.981	19.992	100.036	19.534	36.217	0.503
808.000	487.367	79.981	19.992	100.025	19.548	35.285	0.503
810.000	488.382	79.980	19.993	100.016	19.565	34.139	0.524
812.000	489.402	79.981	19.993	100.024	19.584	32.848	0.502
814.000	490.419	79.981	19.992	100.024	19.606	31.378	0.520
816.000	491.452	79.982	19.993	100.025	19.620	30.473	0.485
818.000	492.508	79.982	19.993	100.020	19.643	28.956	0.514
820.000	493.550	79.982	19.993	100.029	19.656	28.107	0.504
822.000	494.593	79.982	19.994	100.031	19.673	26.934	0.549
824.000	495.590	79.982	19.993	100.030	19.691	25.757	0.486
826.000	496.652	79.982	19.993	100.032	19.705	24.847	0.552
828.000	497.704	79.982	19.995	100.016	19.719	23.908	0.538
830.000	498.732	79.983	19.992	100.021	19.737	22.657	0.540
832.000	499.776	79.982	19.993	100.026	19.752	21.664	0.527
834.000	500.763	79.981	19.992	100.022	19.768	20.647	0.523
836.000	501.758	79.983	19.992	100.023	19.783	19.645	0.510
838.000	502.817	79.981	19.992	100.028	19.788	19.288	0.499
840.000	503.877	79.982	19.993	100.014	19.805	18.193	0.527
842.000	504.889	79.983	19.994	100.029	19.820	17.198	0.517
844.000	505.915	79.984	19.993	100.023	19.828	16.612	0.523
846.000	506.931	79.983	19.993	100.023	19.840	15.856	0.532
848.000	507.999	79.984	19.993	100.007	19.849	15.250	0.533
850.000	508.992	79.983	19.991	99.949	19.862	14.398	0.532
852.000	509.967	79.986	19.992	100.080	19.872	13.737	0.491
854.000	511.033	79.984	19.993	100.038	19.880	13.199	0.544
856.000	512.012	79.982	19.992	100.024	19.890	12.518	0.491
858.000	513.024	79.983	19.992	100.025	19.898	11.966	0.484
860.000	514.096	79.982	19.993	100.014	19.907	11.374	0.543
862.000	515.119	79.981	19.992	100.011	19.913	11.002	0.510
864.000	516.146	79.982	19.993	100.021	19.919	10.571	0.533
866.000	517.160	79.981	19.992	100.020	19.925	10.147	0.498
868.000	518.173	79.981	19.993	100.013	19.929	9.880	0.519
870.000	519.185	79.982	19.992	100.014	19.936	9.421	0.517
872.000	520.203	79.981	19.993	100.004	19.941	9.103	0.514
874.000	521.264	79.983	19.993	100.015	19.949	8.576	0.556
876.000	522.237	79.981	19.992	100.016	19.950	8.496	0.499
878.000	523.285	79.982	19.993	100.014	19.958	7.982	0.505
880.000	524.321	79.980	19.992	99.999	19.964	7.597	0.556
882.000	525.288	79.981	19.993	100.003	19.963	7.640	0.479
884.000	526.320	79.982	19.993	99.993	19.970	7.171	0.503
886.000	527.295	79.981	19.994	100.013	19.968	7.294	0.495
888.000	528.390	79.981	19.993	100.005	19.971	7.094	0.521
890.001	529.382	79.981	19.992	100.001	19.976	6.797	0.505
892.000	530.428	79.979	19.992	99.997	19.978	6.622	0.514
894.000	531.463	79.981	19.994	99.998	19.979	6.588	0.523
896.000	532.478	79.981	19.993	100.014	19.985	6.158	0.532
898.000	533.494	79.981	19.993	100.018	19.987	6.032	0.519
900.000	534.474	79.982	19.993	100.003	19.989	5.938	0.466
902.000	535.514	79.982	19.993	100.004	19.988	5.990	0.508
904.000	536.581	79.983	19.993	99.995	19.994	5.573	0.515
906.000	537.582	79.982	19.993	100.003	19.995	5.506	0.493
908.000	538.612	79.982	19.993	100.004	19.996	5.458	0.497
910.000	539.632	79.981	19.994	100.001	19.998	5.345	0.500
912.000	540.636	79.982	19.994	99.998	19.997	5.388	0.516
914.001	541.663	79.980	19.993	99.996	20.000	5.204	0.530
916.000	542.690	79.982	19.993	100.002	20.002	5.080	0.526
918.000	543.673	79.981	19.993	100.006	20.003	4.983	0.487
920.000	544.725	79.982	19.993	100.013	20.004	4.939	0.513
922.000	545.688	79.983	19.993	99.998	20.007	4.723	0.490
924.000	546.721	79.984	19.993	99.998	20.006	4.811	0.514
926.000	547.769	79.983	19.991	100.006	20.006	4.778	0.529
928.000	548.762	79.984	19.992	100.005	20.010	4.490	0.514
930.000	549.810	79.986	19.992	100.012	20.013	4.340	0.553
932.000	550.781	79.984	19.992	100.004	20.006	4.760	0.482
934.000	551.766	79.983	19.993	100.020	20.013	4.303	0.492
936.000	552.799	79.981	19.993	100.000	20.015	4.167	0.480
938.000	553.828	79.982	19.993	100.010	20.014	4.258	0.540
940.000	554.827	79.983	19.992	100.004	20.013	4.341	0.507
942.000	555.850	79.982	19.993	100.013	20.013	4.311	0.510
944.000	556.849	79.983	19.994	99.997	20.012	4.378	0.534
946.000	557.881	79.981	19.993	100.003	20.015	4.194	0.484
948.000	558.854	79.982	19.992	100.018	20.017	4.086	0.499
950.000	559.880	79.982	19.993	99.998	20.016	4.149	0.479
952.000	560.985	79.982	19.993	100.006	20.019	3.932	0.575
954.000	561.920	79.982	19.993	100.006	20.016	4.112	0.441
956.000	562.932	79.982	19.992	100.005	20.018	3.957	0.516
958.000	563.963	79.982	19.991	100.024	20.021	3.821	0.529
960.000	564.947	79.982	19.992	100.020	20.022	3.738	0.494
962.000	565.995	79.982	19.992	100.017	20.023	3.637	0.535
964.000	567.014	79.981	19.994	100.007	20.025	3.538	0.524
966.000	568.013	79.980	19.993	100.016	20.022	3.713	0.509
968.000	569.046	79.980	19.992	100.011	20.021	3.814	0.510
970.000	570.076	79.981	19.993	100.002	20.020	3.868	0.516
972.000	571.104	79.980	19.993	100.003	20.019	3.910	0.511
974.000	572.113	79.981	19.993	100.006	20.022	3.706	0.501
976.001	573.135	79.981	19.993	100.000	20.023	3.666	0.545
978.000	574.153	79.982	19.993	99.999	20.024	3.616	0.493
980.000	575.202	79.982	19.993	99.997	20.028	3.339	0.502
982.000	576.228	79.984	19.993	100.014	20.027	3.372	0.524
984.000	577.211	79.982	19.993	100.006	20.032	3.086	0.523
986.000	578.244	79.983	19.992	99.999	20.031	3.099	0.517
988.000	579.232	79.983	19.993	100.004	20.030	3.218	0.502
990.000	580.286	79.981	19.993	100.012	20.029	3.236	0.503
992.000	581.292	79.981	19.993	100.010	20.029	3.291	0.504
994.000	582.333	79.981	19.992	100.008	20.028	3.346	0.491
996.000	583.357	79.982	19.993	100.001	20.030	3.213	0.493
998.000	584.385	79.982	19.993	100.002	20.032	3.083	0.544
1000.000	585.416	79.983	19.994	99.999	20.029	3.274	0.521
1002.000	586.418	79.984	19.994	100.012	20.029	3.287	0.523
1004.000	587.385	79.984	19.992	100.003	20.030	3.193	0.475
1006.000	588.433	79.984	19.993	100.003	20.029	3.236	0.534
1008.000	589.440	79.984	19.992	100.000	20.029	3.263	0.512
1010.000	590.450	79.984	19.992	100.004	20.030	3.188	0.502
1012.000	591.474	79.983	19.992	100.000	20.028	3.303	0.520
1014.000	592.502	79.984	19.992	100.010	20.030	3.169	0.528
1016.000	593.519	79.981	19.991	100.002	20.028	3.310	0.533
1018.000	594.563	79.981	19.993	100.010	20.032	3.070	0.521
1020.000	595.582	79.982	19.993	100.009	20.030	3.213	0.514
1022.000	596.593	79.982	19.992	100.014	20.034	2.953	0.486
1024.000	597.619	79.982	19.993	100.018	20.033	2.966	0.526
1026.001	598.624	79.983	19.993	100.003	20.031	3.155	0.482
1028.000	599.654	79.981	19.993	100.004	20.031	3.135	0.512
1030.000	600.660	79.981	19.992	100.006	20.031	3.104	0.531
1032.000	601.730	79.982	19.992	100.003	20.031	3.125	0.513
1034.000	602.750	79.983	19.992	100.003	20.033	3.020	0.542
1036.000	603.749	79.982	19.993	100.021	20.035	2.835	0.484
1038.000	604.779	79.983	19.992	100.020	20.034	2.915	0.505
1040.000	605.755	79.982	19.992	100.008	20.036	2.787	0.489
1042.000	606.828	79.982	19.992	100.010	20.034	2.895	0.496
1044.000	607.815	79.983	19.992	100.015	20.034	2.935	0.491
1046.000	608.870	79.981	19.993	100.006	20.036	2.804	0.506
1048.000	609.901	79.982	19.992	100.008	20.034	2.949	0.514
1050.000	610.955	79.982	19.992	100.023	20.034	2.897	0.549
1052.000	611.934	79.981	19.992	100.015	20.036	2.792	0.466
1054.001	612.991	79.981	19.992	100.007	20.042	2.406	0.527
1056.000	614.022	79.982	19.992	100.001	20.034	2.922	0.501
1058.000	615.035	79.983	19.993	100.000	20.035	2.835	0.520
1060.001	616.057	79.983	19.993	100.000	20.036	2.817	0.511
1062.000	617.077	79.983	19.992	100.010	20.034	2.933	0.522
1064.000	618.080	79.985	19.993	100.022	20.036	2.805	0.515
1066.001	619.108	79.984	19.993	100.017	20.034	2.928	0.515
1068.001	620.152	79.984	19.993	99.995	20.036	2.804	0.522
1070.000	621.159	79.983	19.992	99.992	20.034	2.952	0.504
1072.000	622.154	79.983	19.993	99.994	20.035	2.855	0.473
1074.001	623.201	79.983	19.992	100.014	20.036	2.792	0.498
1076.001	624.172	79.982	19.993	100.003	20.035	2.875	0.470
1078.000	625.199	79.982	19.993	100.006	20.033	2.998	0.501
1080.000	626.220	79.982	19.993	99.995	20.036	2.795	0.497
1082.000	627.218	79.984	19.993	99.995	20.036	2.822	0.491
1084.000	628.277	79.982	19.992	99.997	20.032	3.050	0.510
1086.000	629.242	79.983	19.993	99.997	20.035	2.841	0.521
1088.001	630.278	79.984	19.993	99.999	20.032	3.028	0.512
1090.000	631.303	79.984	19.993	100.002	20.039	2.606	0.503
1092.001	632.343	79.983	19.993	99.995	20.036	2.783	0.494
1094.000	633.369	79.982	19.994	100.005	20.038	2.660	0.533
1096.000	634.388	79.982	19.993	100.013	20.037	2.700	0.525
1098.000	635.435	79.982	19.992	100.008	20.034	2.936	0.521
1100.000	636.440	79.982	19.993	100.001	20.035	2.882	0.489
1102.000	637.490	79.984	19.992	100.000	20.035	2.862	0.524
1104.000	638.520	79.982	19.993	99.996	20.034	2.897	0.528
1106.001	639.587	79.982	19.993	100.004	20.037	2.694	0.537
1108.000	640.583	79.982	19.993	100.000	20.037	2.754	0.477
1110.000	641.612	79.983	19.993	99.997	20.038	2.676	0.524
1112.000	642.620	79.981	19.992	100.004	20.039	2.583	0.492
1114.001	643.644	79.982	19.992	100.005	20.040	2.510	0.522
1116.001	644.633	79.981	19.992	100.011	20.041	2.481	0.506
1118.000	645.679	79.983	19.992	100.001	20.040	2.508	0.472
1120.000	646.703	79.983	19.992	100.009	20.042	2.384	0.517
1122.000	647.709	79.982	19.993	100.002	20.041	2.432	0.472
1124.000	648.755	79.982	19.993	100.010	20.040	2.523	0.500
1126.000	649.806	79.982	19.992	100.001	20.043	2.301	0.517
1128.000	650.885	79.982	19.993	99.997	20.044	2.241	0.505
1130.000	651.867	79.981	19.992	99.995	20.039	2.622	0.513
1132.000	652.901	79.982	19.992	99.997	20.041	2.490	0.516
1134.000	653.937	79.984	19.993	99.999	20.039	2.591	0.560
1136.001	654.930	79.983	19.993	99.997	20.039	2.561	0.507
1138.000	655.952	79.984	19.992	99.995	20.037	2.743	0.500
1140.000	656.974	79.983	19.993	99.993	20.037	2.701	0.508
1142.001	658.049	79.984	19.993	99.992	20.040	2.497	0.518
1144.000	659.015	79.983	19.993	99.993	20.041	2.434	0.489
1146.000	660.051	79.984	19.993	99.996	20.037	2.694	0.505
1148.001	661.065	79.982	19.993	99.994	20.039	2.575	0.482
1150.001	662.090	79.983	19.993	99.994	20.040	2.537	0.521
1152.001	663.117	79.983	19.994	99.996	20.040	2.555	0.502
1154.000	664.135	79.983	19.993	99.994	20.041	2.467	0.504
1156.000	665.199	79.984	19.992	99.995	20.039	2.613	0.522
1158.000	666.215	79.983	19.993	100.000	20.040	2.532	0.510
1160.000	667.236	79.984	19.993	100.002	20.039	2.582	0.516
1162.000	668.243	79.985	19.993	99.995	20.039	2.564	0.507
1164.000	669.308	79.984	19.993	99.995	20.038	2.644	0.540
1166.000	670.343	79.985	19.993	99.999	20.039	2.573	0.502
1168.001	671.364	79.985	19.993	100.006	20.041	2.472	0.526
1170.000	672.419	79.983	19.993	99.993	20.040	2.553	0.537
1172.000	673.373	79.984	19.993	99.993	20.042	2.380	0.515
1174.000	674.439	79.982	19.992	99.995	20.041	2.469	0.511
1176.000	675.523	79.982	19.993	99.998	20.039	2.571	0.525
1178.000	676.567	79.982	19.993	99.998	20.042	2.416	0.506
1180.000	677.583	79.982	19.993	99.997	20.042	2.405	0.518
1182.000	678.602	79.982	19.993	99.998	20.038	2.638	0.507
1184.000	679.618	79.982	19.992	99.997	20.037	2.707	0.486
1186.000	680.663	79.983	19.993	100.000	20.041	2.472	0.508
1188.001	681.675	79.980	19.993	99.997	20.038	2.674	0.500
1190.000	682.729	79.982	19.993	99.995	20.040	2.507	0.516
1192.001	683.704	79.984	19.993	99.998	20.036	2.760	0.537
1194.001	684.709	79.983	19.993	100.008	20.035	2.835	0.502
1196.000	685.760	79.983	19.993	100.003	20.036	2.759	0.541
1198.000	686.733	79.983	19.993	99.996	20.042	2.391	0.469
1200.001	687.756	79.983	19.993	100.006	20.038	2.675	0.491
1202.000	688.781	79.981	19.993	100.008	20.039	2.600	0.517
1204.000	689.744	79.982	19.993	100.011	20.036	2.767	0.487
1206.001	690.742	79.982	19.993	100.002	20.036	2.797	0.467
1208.000	691.751	79.981	19.993	100.000	20.037	2.752	0.537
1210.001	692.780	79.982	19.993	100.003	20.033	2.962	0.510
1212.001	693.797	79.983	19.992	100.000	20.036	2.801	0.471
1214.000	694.795	79.982	19.992	99.998	20.039	2.602	0.530
1216.001	695.803	79.984	19.993	100.000	20.037	2.731	0.512
1218.000	696.779	79.984	19.992	100.000	20.039	2.571	0.521
1220.000	697.769	79.984	19.992	99.999	20.036	2.779	0.497
1222.000	698.740	79.985	19.993	99.999	20.043	2.308	0.481
1224.000	699.762	79.983	19.991	100.000	20.040	2.506	0.507
1226.000	700.780	79.981	19.992	100.004	20.042	2.415	0.508
1228.000	701.775	79.981	19.993	100.001	20.041	2.487	0.523
1230.001	702.761	79.983	19.993	99.997	20.040	2.524	0.487
1232.000	703.780	79.982	19.993	100.002	20.042	2.407	0.520
1234.000	704.811	79.984	19.994	99.999	20.044	2.255	0.505
1236.000	705.801	79.982	19.993	100.002	20.041	2.479	0.510
1238.001	706.761	79.983	19.992	100.002	20.043	2.313	0.492
1240.001	707.760	79.983	19.993	99.997	20.040	2.530	0.503
1242.000	708.745	79.984	19.992	99.998	20.040	2.494	0.504
1244.000	709.772	79.986	19.992	100.000	20.039	2.615	0.537
1246.000	710.741	79.985	19.992	99.997	20.041	2.487	0.483
1248.000	711.761	79.984	19.992	99.996	20.041	2.467	0.472
1250.001	712.743	79.984	19.994	100.001	20.042	2.369	0.457
1252.000	713.718	79.982	19.993	99.993	20.036	2.765	0.495
1254.001	714.775	79.982	19.993	100.006	20.039	2.624	0.513
1256.001	715.764	79.984	19.994	100.011	20.044	2.243	0.515
1258.000	716.803	79.982	19.993	99.995	20.040	2.543	0.517
1260.000	717.793	79.981	19.994	100.006	20.040	2.503	0.513
1262.001	718.767	79.981	19.994	100.003	20.042	2.423	0.469
1264.001	719.756	79.983	19.994	99.996	20.043	2.297	0.457
1266.000	720.729	79.983	19.993	99.999	20.042	2.367	0.463
1268.000	721.770	79.982	19.993	99.994	20.042	2.360	0.514
1270.000	722.783	79.983	19.993	100.001	20.039	2.575	0.508
1272.001	723.786	79.984	19.993	99.993	20.037	2.743	0.484
1274.001	724.836	79.983	19.992	99.993	20.040	2.546	0.512
1276.000	725.848	79.982	19.991	99.989	20.041	2.476	0.504
1278.000	726.849	79.981	19.993	99.993	20.040	2.557	0.491
1280.000	727.869	79.982	19.992	99.994	20.041	2.485	0.522
1282.000	728.883	79.980	19.993	99.996	20.040	2.519	0.504
1284.001	729.861	79.982	19.992	99.992	20.040	2.530	0.499
1286.001	730.905	79.980	19.992	99.999	20.041	2.483	0.513
1288.000	731.946	79.981	19.993	99.997	20.041	2.488	0.514
1290.001	732.974	79.985	19.992	99.995	20.038	2.649	0.504
1292.000	733.984	79.983	19.991	99.995	20.039	2.607	0.512
1294.000	735.023	79.983	19.993	99.994	20.040	2.519	0.515
1296.000	736.004	79.982	19.992	99.997	20.040	2.512	0.497
1298.000	737.024	79.984	19.992	99.998	20.038	2.653	0.512
1300.000	738.021	79.985	19.992	99.994	20.038	2.676	0.501
1302.000	739.070	79.984	19.992	99.996	20.041	2.461	0.499
1304.000	740.067	79.981	19.991	99.995	20.039	2.595	0.511
1306.000	741.120	79.982	19.992	99.997	20.039	2.616	0.515
1308.000	742.149	79.983	19.991	99.997	20.040	2.539	0.515
1310.000	743.163	79.982	19.993	99.997	20.042	2.410	0.518
1310.500	743.396	79.985	19.992	99.997	20.044	2.291	0.500