File: 01_Data/Vinyl_Siding/MCC/Vinyl_Siding_30K_min_210609_R1.txt
Sample ID:	C:\MCC\MCC Cal\Test\Vinyl Siding\Vinyl_Siding_30_1.txt
Sample Weight (mg):	4.15
Heating Rate (C/s):	0.5
Combustor Temp (C):	900
N2 Flow Rate (cc/min):	80
O2 Flow Rate (cc/min):	20
Calibration File:	C:\MCC\MCC Cal\Coeff1 JN10440_30_210304.txt.txt
T Correction Coefficients:	0	1.024463	0
Time Shift (s):	14
*
Time (s)	Temperature (C)	N2 flow rate (cc/min)	O2 flow rate (cc/min)	Flow Rate (cc/min)	Oxygen (%)	HRR (W/g)	Heating rate (C/s)
0.000	104.456	79.976	19.992	99.862	20.059	0.589	-0.057
2.000	104.497	79.975	19.992	99.847	20.059	0.595	0.032
4.000	104.479	79.979	19.994	99.857	20.063	0.277	0.041
6.000	104.414	79.977	19.994	99.856	20.060	0.526	-0.037
8.000	104.421	79.977	19.993	99.846	20.061	0.428	-0.013
10.001	104.427	79.977	19.994	99.854	20.062	0.375	-0.016
12.000	104.453	79.978	19.993	99.850	20.064	0.179	-0.011
14.000	104.399	79.976	19.993	99.850	20.067	-0.026	-0.036
16.000	104.448	79.975	19.990	99.856	20.068	-0.118	0.006
18.000	104.389	79.979	19.993	99.857	20.066	0.029	-0.025
20.000	104.387	79.978	19.993	99.862	20.065	0.145	0.000
22.001	104.423	79.977	19.992	99.868	20.065	0.149	0.001
24.000	104.449	79.979	19.994	99.872	20.059	0.561	0.034
26.000	104.464	79.978	19.994	99.884	20.059	0.561	0.008
28.000	104.520	79.978	19.995	99.887	20.061	0.390	0.040
30.000	104.518	79.975	19.990	99.892	20.057	0.749	-0.010
32.001	104.572	79.978	19.994	99.926	20.054	0.988	0.017
34.000	104.603	79.978	19.994	99.959	20.049	1.360	0.026
36.000	104.700	79.977	19.993	99.980	20.046	1.558	0.032
38.001	104.839	79.977	19.992	100.021	20.048	1.436	0.091
40.000	104.956	79.983	19.993	100.036	20.035	2.400	0.066
42.000	105.131	79.982	19.993	100.043	20.035	2.418	0.115
44.000	105.391	79.979	19.993	100.066	20.023	3.296	0.119
46.000	105.614	79.981	19.992	100.068	20.023	3.274	0.126
48.000	105.920	79.981	19.993	100.060	20.023	3.281	0.152
50.000	106.206	79.981	19.992	100.077	20.019	3.560	0.121
52.001	106.577	79.984	19.994	100.076	20.019	3.552	0.202
54.000	106.923	79.979	19.994	100.078	20.020	3.525	0.218
56.001	107.315	79.981	19.993	100.080	20.019	3.573	0.193
58.000	107.755	79.973	19.991	100.087	20.017	3.752	0.189
60.000	108.166	79.983	19.994	100.100	20.019	3.566	0.224
62.000	108.691	79.980	19.993	100.092	20.015	3.883	0.233
64.000	109.170	79.980	19.993	100.096	20.016	3.785	0.238
66.001	109.734	79.982	19.991	100.084	20.017	3.746	0.317
68.000	110.239	79.984	19.993	100.089	20.022	3.365	0.262
70.000	110.775	79.981	19.992	100.080	20.019	3.597	0.272
72.001	111.359	79.980	19.992	100.092	20.020	3.497	0.312
74.000	111.957	79.981	19.991	100.097	20.020	3.544	0.286
76.000	112.565	79.977	19.988	100.087	20.017	3.775	0.307
78.001	113.197	79.978	19.993	100.104	20.014	3.959	0.321
80.000	113.829	79.979	19.995	100.102	20.015	3.902	0.358
82.000	114.506	79.981	19.991	100.096	20.015	3.908	0.383
84.000	115.117	79.981	19.995	100.104	20.016	3.814	0.328
86.000	115.768	79.980	19.996	100.090	20.011	4.174	0.313
88.000	116.504	79.977	19.994	100.105	20.012	4.102	0.351
90.000	117.161	79.979	19.991	100.108	20.006	4.568	0.327
92.000	117.957	79.979	19.993	100.104	20.018	3.649	0.373
94.001	118.620	79.979	19.994	100.109	20.014	4.000	0.310
96.001	119.409	79.979	19.992	100.099	20.010	4.276	0.385
98.000	120.181	79.981	19.994	100.107	20.013	4.009	0.388
100.000	120.968	79.976	19.992	100.100	20.014	3.972	0.421
102.000	121.716	79.979	19.993	100.112	20.012	4.115	0.385
104.000	122.548	79.974	19.992	100.115	20.011	4.172	0.430
106.000	123.313	79.983	19.995	100.113	20.009	4.334	0.395
108.001	124.164	79.979	19.994	100.118	20.013	4.044	0.425
110.000	124.971	79.974	19.991	100.114	20.011	4.158	0.412
112.000	125.808	79.978	19.996	100.116	20.005	4.658	0.441
114.001	126.661	79.977	19.995	100.115	20.013	4.046	0.435
116.000	127.540	79.975	19.994	100.116	20.012	4.092	0.453
118.000	128.438	79.979	19.997	100.118	20.015	3.870	0.434
120.000	129.296	79.978	19.993	100.116	20.015	3.915	0.421
122.001	130.216	79.976	19.994	100.116	20.014	3.992	0.431
124.001	131.057	79.979	19.995	100.118	20.014	3.990	0.432
126.000	131.983	79.973	19.989	100.119	20.013	4.060	0.457
128.000	132.839	79.978	19.993	100.118	20.011	4.170	0.430
130.000	133.801	79.978	19.991	100.115	20.014	3.974	0.481
132.001	134.739	79.980	19.994	100.115	20.009	4.333	0.495
134.000	135.642	79.979	19.990	100.116	20.011	4.201	0.448
136.000	136.552	79.981	19.991	100.115	20.011	4.158	0.462
138.000	137.501	79.979	19.992	100.111	20.012	4.133	0.480
140.000	138.434	79.980	19.993	100.114	20.010	4.243	0.496
142.000	139.420	79.979	19.992	100.109	20.010	4.258	0.495
144.000	140.390	79.979	19.992	100.119	20.007	4.484	0.510
146.000	141.331	79.978	19.990	100.120	20.013	4.011	0.494
148.000	142.268	79.981	19.992	100.118	20.009	4.356	0.474
150.000	143.240	79.980	19.993	100.112	20.014	3.972	0.478
152.000	144.255	79.983	19.993	100.112	20.013	4.016	0.515
154.000	145.199	79.980	19.993	100.109	20.008	4.389	0.474
156.000	146.212	79.982	19.991	100.110	20.011	4.217	0.489
158.000	147.161	79.981	19.995	100.106	20.016	3.808	0.460
160.000	148.185	79.980	19.994	100.102	20.012	4.094	0.473
162.000	149.196	79.978	19.993	100.104	20.013	4.043	0.498
164.000	150.199	79.978	19.993	100.108	20.012	4.096	0.503
166.000	151.182	79.979	19.993	100.110	20.016	3.816	0.492
168.000	152.212	79.979	19.993	100.107	20.011	4.185	0.558
170.000	153.181	79.978	19.993	100.109	20.012	4.130	0.503
172.000	154.165	79.983	19.995	100.102	20.016	3.832	0.510
174.000	155.161	79.981	19.993	100.097	20.014	3.948	0.541
176.000	156.146	79.984	19.994	100.099	20.009	4.330	0.486
178.000	157.189	79.981	19.994	100.098	20.013	4.069	0.499
180.000	158.201	79.978	19.993	100.083	20.012	4.095	0.505
182.000	159.187	79.979	19.994	100.083	20.010	4.269	0.518
184.000	160.182	79.979	19.994	100.085	20.009	4.332	0.516
186.000	161.225	79.978	19.993	100.082	20.014	3.954	0.507
188.000	162.199	79.978	19.993	100.084	20.012	4.097	0.523
190.000	163.181	79.975	19.989	100.082	20.010	4.301	0.489
192.000	164.267	79.977	19.993	100.084	20.009	4.303	0.514
194.000	165.225	79.978	19.993	100.081	20.008	4.438	0.486
196.000	166.230	79.978	19.993	100.080	20.009	4.308	0.504
198.000	167.260	79.978	19.994	100.081	20.010	4.258	0.516
200.000	168.253	79.981	19.995	100.079	20.008	4.436	0.515
202.000	169.277	79.980	19.995	100.078	20.010	4.301	0.543
204.000	170.235	79.979	19.993	100.085	20.007	4.471	0.518
206.000	171.273	79.978	19.993	100.083	20.012	4.113	0.511
208.000	172.237	79.980	19.994	100.079	20.006	4.540	0.471
210.000	173.291	79.980	19.993	100.076	20.005	4.644	0.487
212.000	174.303	79.979	19.992	100.079	20.008	4.395	0.502
214.000	175.310	79.980	19.993	100.077	20.007	4.456	0.496
216.000	176.326	79.981	19.992	100.077	20.005	4.671	0.526
218.000	177.317	79.980	19.992	100.077	20.006	4.544	0.498
220.000	178.315	79.980	19.993	100.075	20.008	4.405	0.505
222.001	179.291	79.981	19.993	100.077	20.009	4.364	0.486
224.000	180.332	79.977	19.990	100.073	20.008	4.385	0.505
226.000	181.304	79.981	19.993	100.075	20.009	4.303	0.457
228.000	182.330	79.983	19.993	100.071	20.013	4.068	0.497
230.000	183.330	79.982	19.992	100.076	20.009	4.374	0.506
232.000	184.362	79.982	19.993	100.072	20.009	4.354	0.500
234.000	185.389	79.981	19.992	100.072	20.010	4.240	0.519
236.000	186.411	79.980	19.993	100.064	20.010	4.278	0.484
238.000	187.425	79.980	19.992	100.061	20.008	4.416	0.476
240.000	188.373	79.979	19.993	100.065	20.007	4.490	0.502
242.000	189.429	79.980	19.993	100.067	20.010	4.242	0.508
244.000	190.464	79.980	19.993	100.066	20.009	4.377	0.522
246.001	191.401	79.978	19.993	100.072	20.012	4.096	0.484
248.000	192.423	79.978	19.993	100.052	20.010	4.249	0.511
250.000	193.429	79.980	19.992	100.055	20.010	4.242	0.537
252.000	194.356	79.978	19.993	100.058	20.008	4.444	0.473
254.000	195.366	79.978	19.992	100.073	20.008	4.441	0.468
256.000	196.397	79.979	19.991	100.061	20.009	4.341	0.503
258.000	197.355	79.979	19.993	100.050	20.006	4.557	0.480
260.000	198.410	79.978	19.993	100.066	20.012	4.096	0.521
262.000	199.357	79.979	19.993	100.063	20.009	4.372	0.494
264.000	200.351	79.979	19.993	100.059	20.008	4.400	0.498
266.000	201.317	79.979	19.993	100.049	20.007	4.470	0.488
268.000	202.318	79.979	19.994	100.044	20.005	4.620	0.509
270.000	203.292	79.979	19.994	100.047	20.004	4.745	0.511
272.000	204.271	79.979	19.994	100.058	20.003	4.796	0.493
274.000	205.240	79.978	19.993	100.046	20.006	4.598	0.486
276.000	206.250	79.979	19.993	100.059	20.004	4.743	0.495
278.000	207.232	79.978	19.993	100.045	20.003	4.769	0.492
280.000	208.225	79.979	19.994	100.043	19.997	5.253	0.499
282.000	209.173	79.981	19.993	100.044	20.000	4.977	0.473
284.000	210.142	79.980	19.994	100.040	20.002	4.861	0.475
286.000	211.142	79.981	19.993	100.043	20.001	4.957	0.494
288.000	212.091	79.981	19.994	100.040	20.002	4.877	0.470
290.000	213.048	79.980	19.995	100.038	19.999	5.086	0.499
292.000	214.054	79.979	19.994	100.036	19.996	5.344	0.519
294.000	215.052	79.980	19.994	100.038	20.000	5.011	0.492
296.000	216.004	79.980	19.994	100.038	19.999	5.092	0.507
298.000	216.967	79.979	19.993	100.039	19.997	5.233	0.472
300.001	217.944	79.979	19.993	100.039	19.995	5.361	0.481
302.000	218.930	79.981	19.992	99.979	19.994	5.459	0.513
304.000	219.903	79.981	19.993	100.089	19.997	5.241	0.499
306.000	220.876	79.982	19.993	100.053	19.997	5.247	0.488
308.000	221.890	79.983	19.992	100.038	19.994	5.444	0.513
310.000	222.880	79.982	19.993	100.042	19.992	5.605	0.487
312.000	223.843	79.982	19.992	100.040	19.992	5.647	0.474
314.000	224.850	79.981	19.992	100.042	19.988	5.897	0.483
316.000	225.852	79.980	19.992	100.043	19.984	6.196	0.515
318.000	226.845	79.980	19.993	100.053	19.986	6.043	0.486
320.000	227.856	79.978	19.993	100.054	19.983	6.307	0.519
322.000	228.860	79.979	19.992	100.041	19.982	6.384	0.524
324.000	229.840	79.977	19.993	100.044	19.979	6.560	0.477
326.000	230.873	79.978	19.993	100.043	19.978	6.644	0.493
328.000	231.817	79.978	19.993	100.041	19.969	7.317	0.466
330.000	232.839	79.979	19.992	100.041	19.969	7.354	0.520
332.000	233.805	79.979	19.993	100.043	19.965	7.611	0.469
334.000	234.812	79.979	19.992	100.043	19.962	7.889	0.493
336.000	235.832	79.979	19.992	100.043	19.963	7.809	0.490
338.000	236.820	79.979	19.992	100.039	19.955	8.395	0.503
340.000	237.832	79.980	19.993	100.038	19.954	8.472	0.495
342.000	238.814	79.979	19.993	100.039	19.953	8.587	0.497
344.000	239.774	79.978	19.993	100.040	19.945	9.154	0.491
346.000	240.824	79.979	19.993	100.039	19.943	9.330	0.519
348.000	241.787	79.979	19.994	100.036	19.941	9.453	0.489
350.000	242.844	79.978	19.995	100.032	19.939	9.636	0.491
352.000	243.869	79.978	19.995	100.037	19.937	9.736	0.533
354.000	244.857	79.978	19.993	100.036	19.939	9.599	0.501
356.000	245.870	79.980	19.994	100.035	19.937	9.716	0.510
358.000	246.870	79.979	19.994	100.037	19.937	9.783	0.481
360.000	247.884	79.980	19.994	100.038	19.940	9.538	0.500
362.000	248.893	79.979	19.994	100.034	19.943	9.330	0.523
364.000	249.910	79.980	19.993	100.034	19.943	9.314	0.511
366.000	250.932	79.980	19.993	100.033	19.942	9.367	0.501
368.000	251.929	79.980	19.994	100.031	19.940	9.532	0.532
370.000	252.921	79.980	19.993	100.032	19.944	9.208	0.497
372.000	253.916	79.979	19.994	100.034	19.942	9.414	0.494
374.000	254.930	79.979	19.994	100.036	19.944	9.212	0.514
376.000	255.907	79.979	19.994	100.037	19.943	9.285	0.479
378.000	256.932	79.980	19.994	100.035	19.945	9.126	0.529
380.000	257.957	79.979	19.994	100.037	19.945	9.141	0.488
382.000	258.920	79.979	19.995	100.040	19.943	9.271	0.488
384.000	259.901	79.979	19.995	100.038	19.940	9.525	0.497
386.000	260.892	79.980	19.995	100.040	19.937	9.784	0.501
388.000	261.870	79.981	19.993	100.040	19.937	9.734	0.493
390.000	262.889	79.983	19.992	100.042	19.935	9.923	0.505
392.000	263.888	79.981	19.993	100.039	19.931	10.189	0.468
394.000	264.890	79.979	19.992	100.040	19.932	10.155	0.519
396.000	265.879	79.981	19.993	100.047	19.926	10.594	0.474
398.000	266.910	79.979	19.993	100.052	19.923	10.805	0.525
400.000	267.874	79.978	19.994	100.054	19.922	10.906	0.513
402.000	268.838	79.978	19.993	100.059	19.920	11.004	0.477
404.000	269.866	79.979	19.994	100.074	19.917	11.242	0.499
406.000	270.890	79.977	19.993	100.077	19.914	11.517	0.518
408.000	271.884	79.979	19.994	100.072	19.912	11.630	0.493
410.000	272.926	79.979	19.994	100.066	19.909	11.880	0.539
412.000	273.868	79.979	19.994	100.075	19.908	11.977	0.449
414.000	274.885	79.979	19.994	100.076	19.911	11.734	0.501
416.000	275.863	79.979	19.993	100.089	19.912	11.669	0.492
418.000	276.842	79.979	19.992	100.097	19.910	11.792	0.483
420.000	277.846	79.978	19.993	100.102	19.912	11.671	0.493
422.000	278.815	79.979	19.993	100.114	19.910	11.771	0.497
424.000	279.792	79.979	19.991	100.111	19.914	11.509	0.460
426.000	280.790	79.978	19.993	100.115	19.914	11.463	0.499
428.000	281.791	79.978	19.993	100.117	19.914	11.501	0.489
430.000	282.826	79.979	19.993	100.121	19.914	11.483	0.522
432.000	283.793	79.978	19.993	100.118	19.917	11.305	0.489
434.000	284.824	79.978	19.993	100.117	19.919	11.102	0.478
436.000	285.761	79.979	19.993	100.121	19.920	11.059	0.477
438.000	286.775	79.979	19.994	100.132	19.919	11.099	0.500
440.000	287.781	79.980	19.994	100.139	19.923	10.803	0.494
442.000	288.752	79.980	19.994	100.134	19.922	10.860	0.489
444.000	289.754	79.980	19.993	100.139	19.919	11.140	0.494
446.000	290.777	79.979	19.992	100.146	19.924	10.745	0.510
448.000	291.778	79.980	19.993	100.151	19.919	11.120	0.496
450.000	292.782	79.981	19.993	100.144	19.920	11.064	0.512
452.001	293.769	79.980	19.993	100.142	19.922	10.908	0.502
454.000	294.784	79.979	19.992	100.152	19.919	11.080	0.497
456.000	295.715	79.979	19.992	100.155	19.919	11.093	0.481
458.000	296.728	79.979	19.996	100.161	19.917	11.268	0.488
460.000	297.746	79.979	19.993	100.149	19.917	11.266	0.502
462.000	298.703	79.979	19.993	100.136	19.916	11.320	0.463
464.000	299.695	79.979	19.994	100.122	19.913	11.588	0.484
466.000	300.748	79.980	19.994	100.113	19.914	11.466	0.509
468.001	301.743	79.981	19.994	100.094	19.915	11.421	0.499
470.000	302.726	79.982	19.994	100.078	19.916	11.361	0.492
472.000	303.737	79.981	19.995	100.074	19.916	11.319	0.503
474.000	304.730	79.981	19.994	100.064	19.916	11.327	0.475
476.000	305.764	79.981	19.993	100.057	19.914	11.449	0.480
478.000	306.767	79.980	19.992	100.049	19.911	11.666	0.499
480.000	307.772	79.979	19.993	100.034	19.915	11.400	0.463
482.000	308.776	79.979	19.994	100.031	19.918	11.173	0.515
484.000	309.778	79.979	19.993	100.011	19.917	11.259	0.468
486.000	310.793	79.980	19.993	100.001	19.922	10.872	0.537
488.000	311.806	79.978	19.993	99.992	19.925	10.616	0.504
490.000	312.785	79.978	19.993	99.978	19.930	10.243	0.495
492.000	313.799	79.979	19.994	99.964	19.931	10.177	0.508
494.000	314.785	79.980	19.993	99.960	19.938	9.667	0.496
496.000	315.822	79.979	19.993	99.953	19.937	9.756	0.508
498.000	316.805	79.980	19.993	99.955	19.940	9.512	0.487
500.000	317.806	79.979	19.993	99.959	19.944	9.227	0.499
502.000	318.802	79.979	19.993	99.954	19.947	8.958	0.466
504.000	319.806	79.979	19.993	99.954	19.953	8.550	0.503
506.000	320.866	79.979	19.993	99.950	19.951	8.694	0.534
508.000	321.821	79.980	19.992	99.950	19.957	8.266	0.471
510.000	322.822	79.979	19.993	99.960	19.960	8.030	0.506
512.000	323.833	79.980	19.993	99.959	19.962	7.903	0.504
514.000	324.802	79.979	19.992	99.960	19.961	7.969	0.493
516.000	325.843	79.979	19.993	99.961	19.965	7.626	0.507
518.000	326.845	79.979	19.993	99.959	19.968	7.430	0.486
520.000	327.809	79.979	19.993	99.965	19.966	7.540	0.487
522.000	328.870	79.980	19.993	99.965	19.965	7.642	0.526
524.000	329.877	79.980	19.992	99.965	19.967	7.505	0.510
526.000	330.876	79.980	19.993	99.964	19.967	7.513	0.499
528.000	331.854	79.979	19.994	99.964	19.972	7.130	0.492
530.001	332.922	79.980	19.993	99.962	19.966	7.542	0.542
532.000	333.926	79.980	19.993	99.960	19.967	7.479	0.517
534.000	334.955	79.980	19.993	99.963	19.968	7.420	0.529
536.000	335.934	79.980	19.993	99.959	19.972	7.120	0.506
538.000	336.961	79.979	19.993	99.959	19.965	7.659	0.519
540.000	337.937	79.979	19.993	99.969	19.970	7.264	0.519
542.000	339.000	79.979	19.993	99.962	19.968	7.435	0.519
544.000	339.982	79.980	19.993	99.962	19.964	7.701	0.526
546.000	340.994	79.981	19.993	99.962	19.967	7.504	0.522
548.000	342.015	79.981	19.993	99.963	19.964	7.716	0.490
550.000	343.055	79.981	19.993	99.967	19.965	7.618	0.518
552.000	343.986	79.982	19.993	99.958	19.966	7.558	0.493
554.000	345.045	79.981	19.994	99.957	19.964	7.683	0.501
556.000	346.064	79.981	19.994	99.963	19.962	7.898	0.495
558.000	347.050	79.980	19.994	99.965	19.964	7.741	0.491
560.000	348.063	79.979	19.994	99.966	19.965	7.678	0.507
562.001	349.062	79.979	19.994	99.968	19.960	8.007	0.492
564.000	350.152	79.979	19.993	99.970	19.961	7.981	0.523
566.000	351.145	79.979	19.993	99.975	19.959	8.077	0.502
568.000	352.143	79.979	19.993	99.973	19.957	8.208	0.505
570.000	353.161	79.978	19.993	99.984	19.958	8.187	0.516
572.000	354.206	79.980	19.993	99.983	19.959	8.103	0.524
574.000	355.196	79.980	19.992	99.987	19.958	8.161	0.501
576.000	356.225	79.978	19.992	99.995	19.959	8.112	0.516
578.000	357.219	79.980	19.992	99.995	19.958	8.202	0.493
580.000	358.200	79.979	19.992	99.994	19.957	8.271	0.488
582.000	359.225	79.980	19.992	99.990	19.960	8.041	0.513
584.001	360.260	79.979	19.993	99.996	19.955	8.369	0.535
586.000	361.239	79.978	19.993	100.000	19.958	8.175	0.510
588.000	362.246	79.979	19.992	100.000	19.959	8.075	0.503
590.000	363.252	79.979	19.993	100.000	19.955	8.369	0.489
592.000	364.286	79.979	19.994	99.998	19.958	8.153	0.529
594.000	365.262	79.979	19.993	99.999	19.955	8.402	0.487
596.000	366.288	79.978	19.993	99.995	19.957	8.277	0.506
598.000	367.322	79.980	19.993	99.998	19.948	8.931	0.531
600.000	368.279	79.980	19.993	99.997	19.949	8.869	0.493
602.000	369.328	79.981	19.993	99.998	19.947	9.018	0.499
604.000	370.338	79.981	19.992	99.997	19.941	9.471	0.519
606.001	371.304	79.982	19.993	99.994	19.938	9.706	0.502
608.000	372.341	79.981	19.993	99.985	19.935	9.910	0.470
610.000	373.350	79.982	19.994	99.991	19.930	10.259	0.481
612.000	374.338	79.981	19.993	99.994	19.927	10.488	0.508
614.000	375.344	79.981	19.993	99.998	19.923	10.769	0.497
616.000	376.348	79.981	19.993	99.998	19.921	10.916	0.475
618.000	377.359	79.980	19.994	99.996	19.917	11.279	0.499
620.000	378.357	79.980	19.995	99.993	19.910	11.769	0.521
622.000	379.387	79.980	19.994	99.996	19.903	12.326	0.520
624.000	380.368	79.981	19.993	99.997	19.897	12.782	0.495
626.000	381.372	79.981	19.993	99.996	19.893	13.027	0.508
628.000	382.364	79.983	19.993	99.997	19.887	13.473	0.489
630.000	383.422	79.981	19.993	99.989	19.884	13.757	0.496
632.000	384.393	79.982	19.993	100.000	19.877	14.257	0.501
634.000	385.400	79.981	19.993	100.000	19.871	14.706	0.503
636.000	386.408	79.980	19.993	100.001	19.866	15.108	0.513
638.000	387.367	79.979	19.994	99.999	19.857	15.792	0.454
640.000	388.426	79.980	19.994	99.996	19.849	16.341	0.496
642.000	389.408	79.978	19.993	100.001	19.842	16.901	0.492
644.000	390.424	79.977	19.994	100.000	19.835	17.428	0.518
646.000	391.457	79.976	19.994	100.001	19.834	17.495	0.503
648.000	392.482	79.978	19.994	100.002	19.821	18.502	0.505
650.000	393.521	79.978	19.993	100.002	19.813	19.058	0.534
652.000	394.496	79.979	19.993	100.005	19.803	19.860	0.494
654.000	395.537	79.978	19.993	100.002	19.792	20.685	0.476
656.000	396.511	79.980	19.993	100.006	19.783	21.331	0.479
658.000	397.572	79.979	19.993	100.001	19.776	21.853	0.501
660.000	398.634	79.980	19.994	100.000	19.774	22.016	0.543
662.000	399.603	79.980	19.992	100.009	19.759	23.139	0.541
664.000	400.635	79.979	19.992	100.002	19.748	23.937	0.513
666.000	401.569	79.978	19.993	100.000	19.733	25.083	0.499
668.000	402.562	79.979	19.992	100.001	19.721	25.959	0.485
670.000	403.588	79.979	19.993	100.001	19.725	25.704	0.522
672.000	404.587	79.978	19.993	99.998	19.708	26.939	0.546
674.000	405.573	79.978	19.994	100.005	19.704	27.267	0.509
676.000	406.649	79.978	19.993	100.009	19.693	28.122	0.463
678.000	407.598	79.980	19.992	100.001	19.685	28.681	0.536
680.000	408.443	79.981	19.992	100.000	19.677	29.265	0.437
682.000	409.323	79.981	19.992	100.000	19.671	29.766	0.181
684.000	410.782	79.982	19.993	100.005	19.665	30.215	0.688
686.000	411.490	79.982	19.992	100.009	19.659	30.618	0.445
688.000	412.482	79.981	19.992	100.003	19.655	30.989	0.492
690.000	413.565	79.980	19.992	100.002	19.652	31.192	0.462
692.000	414.566	79.979	19.992	100.001	19.649	31.400	0.495
694.000	415.600	79.980	19.993	100.000	19.640	32.048	0.537
696.000	416.583	79.980	19.993	100.004	19.638	32.206	0.552
698.001	417.579	79.980	19.993	100.005	19.636	32.413	0.486
700.000	418.695	79.981	19.993	100.012	19.632	32.675	0.557
702.000	419.717	79.979	19.994	100.004	19.628	32.992	0.552
704.000	420.771	79.981	19.994	100.005	19.621	33.473	0.497
706.000	421.844	79.981	19.994	100.007	19.621	33.484	0.525
708.000	422.854	79.981	19.993	100.003	19.622	33.459	0.535
710.000	423.868	79.982	19.993	100.005	19.612	34.204	0.503
712.000	424.925	79.981	19.992	100.004	19.607	34.570	0.538
714.000	425.978	79.982	19.992	100.009	19.603	34.825	0.501
716.000	426.982	79.981	19.993	100.003	19.600	35.058	0.523
718.000	428.044	79.979	19.992	100.003	19.594	35.547	0.529
720.000	429.089	79.980	19.993	100.007	19.593	35.584	0.519
722.000	430.092	79.979	19.993	100.001	19.584	36.269	0.503
724.000	431.175	79.979	19.994	100.008	19.573	37.082	0.514
726.000	432.208	79.979	19.994	100.004	19.567	37.540	0.553
728.001	433.275	79.979	19.993	100.001	19.560	38.111	0.543
730.000	434.368	79.979	19.994	99.998	19.549	38.905	0.562
732.000	435.385	79.977	19.995	99.995	19.538	39.716	0.529
734.000	436.432	79.980	19.993	99.997	19.523	40.862	0.538
736.000	437.481	79.980	19.994	100.001	19.510	41.844	0.522
738.000	438.506	79.979	19.993	99.997	19.495	42.989	0.519
740.000	439.532	79.979	19.994	99.997	19.477	44.328	0.514
742.000	440.585	79.978	19.992	99.996	19.464	45.346	0.506
744.000	441.636	79.980	19.993	99.995	19.447	46.598	0.504
746.000	442.670	79.979	19.993	99.999	19.430	47.847	0.532
748.000	443.685	79.979	19.993	99.995	19.411	49.317	0.520
750.000	444.726	79.978	19.992	99.999	19.390	50.839	0.532
752.000	445.746	79.980	19.994	99.998	19.374	52.078	0.486
754.000	446.776	79.979	19.993	100.000	19.357	53.380	0.502
756.000	447.773	79.979	19.993	100.001	19.337	54.879	0.500
758.000	448.830	79.979	19.993	100.001	19.321	56.066	0.507
760.000	449.861	79.980	19.994	100.001	19.302	57.470	0.520
762.000	450.885	79.979	19.993	100.000	19.287	58.625	0.533
764.000	451.937	79.981	19.993	100.002	19.271	59.835	0.505
766.000	452.954	79.981	19.993	99.998	19.260	60.612	0.494
768.000	453.980	79.982	19.992	99.995	19.246	61.665	0.519
770.000	455.015	79.982	19.992	100.001	19.235	62.549	0.486
772.000	456.073	79.980	19.993	100.000	19.225	63.283	0.518
774.000	457.039	79.980	19.993	99.995	19.214	64.066	0.496
776.000	458.114	79.979	19.992	99.991	19.205	64.746	0.544
778.000	459.137	79.979	19.992	99.977	19.195	65.544	0.504
780.000	460.166	79.981	19.992	99.989	19.187	66.140	0.507
782.000	461.162	79.980	19.993	99.983	19.176	66.949	0.505
784.000	462.193	79.981	19.993	99.988	19.173	67.145	0.510
786.000	463.210	79.982	19.993	99.994	19.174	67.138	0.477
788.000	464.236	79.981	19.993	99.971	19.181	66.549	0.501
790.000	465.274	79.982	19.993	99.961	19.193	65.674	0.496
792.000	466.281	79.982	19.994	99.972	19.207	64.596	0.556
794.000	467.301	79.981	19.993	99.972	19.228	63.043	0.506
796.000	468.305	79.980	19.993	99.972	19.244	61.816	0.502
798.000	469.314	79.980	19.993	99.982	19.265	60.301	0.504
800.000	470.372	79.979	19.993	99.988	19.284	58.834	0.525
802.000	471.375	79.979	19.993	99.992	19.304	57.356	0.549
804.000	472.413	79.979	19.993	99.997	19.322	55.967	0.533
806.000	473.395	79.980	19.994	99.997	19.341	54.576	0.501
808.000	474.473	79.978	19.994	99.996	19.360	53.148	0.517
810.000	475.481	79.979	19.994	99.989	19.378	51.752	0.534
812.000	476.482	79.978	19.994	99.991	19.397	50.359	0.493
814.000	477.496	79.979	19.995	99.994	19.416	48.905	0.499
816.000	478.525	79.980	19.994	99.993	19.435	47.494	0.514
818.000	479.566	79.980	19.994	99.994	19.452	46.188	0.551
820.000	480.560	79.979	19.994	99.994	19.469	44.954	0.490
822.000	481.559	79.978	19.994	99.995	19.485	43.707	0.484
824.000	482.614	79.978	19.994	99.991	19.499	42.643	0.501
826.000	483.636	79.978	19.993	99.988	19.522	40.963	0.529
828.000	484.615	79.978	19.993	100.001	19.539	39.686	0.490
830.000	485.673	79.978	19.993	99.991	19.553	38.619	0.531
832.000	486.662	79.978	19.994	99.992	19.574	37.067	0.504
834.000	487.666	79.978	19.993	100.001	19.589	35.937	0.485
836.000	488.688	79.979	19.993	99.997	19.607	34.524	0.491
838.000	489.743	79.978	19.992	99.992	19.624	33.292	0.528
840.000	490.784	79.979	19.993	99.996	19.641	31.976	0.508
842.000	491.758	79.980	19.991	100.001	19.660	30.560	0.495
844.000	492.832	79.981	19.993	99.998	19.672	29.659	0.525
846.000	493.901	79.981	19.992	99.992	19.694	28.004	0.521
848.001	494.916	79.982	19.993	99.995	19.705	27.214	0.520
850.000	495.957	79.981	19.993	99.982	19.723	25.802	0.514
852.000	496.997	79.982	19.993	99.987	19.734	25.008	0.521
854.000	498.038	79.981	19.993	99.975	19.747	24.047	0.520
856.000	499.067	79.981	19.993	99.995	19.763	22.838	0.514
858.000	500.030	79.982	19.992	99.985	19.775	21.925	0.527
860.000	501.138	79.982	19.993	99.967	19.790	20.769	0.533
862.000	502.140	79.982	19.992	99.987	19.800	20.078	0.512
864.000	503.151	79.982	19.993	99.988	19.814	19.013	0.470
866.000	504.218	79.982	19.993	99.987	19.824	18.251	0.530
868.000	505.236	79.983	19.994	99.979	19.837	17.276	0.515
870.000	506.285	79.982	19.992	99.979	19.845	16.661	0.487
872.000	507.324	79.983	19.993	99.969	19.855	15.881	0.522
874.000	508.329	79.982	19.993	99.993	19.869	14.886	0.498
876.000	509.347	79.981	19.993	99.985	19.869	14.887	0.496
878.000	510.373	79.979	19.993	99.976	19.882	13.909	0.524
880.000	511.419	79.980	19.994	99.977	19.886	13.581	0.531
882.000	512.449	79.980	19.994	99.974	19.894	12.968	0.533
884.000	513.474	79.980	19.994	99.980	19.903	12.330	0.525
886.000	514.534	79.979	19.994	99.973	19.909	11.835	0.531
888.000	515.599	79.981	19.994	99.967	19.917	11.243	0.537
890.000	516.599	79.980	19.993	99.984	19.926	10.599	0.518
892.000	517.623	79.980	19.993	99.969	19.927	10.479	0.532
894.000	518.639	79.980	19.993	99.976	19.930	10.256	0.504
896.000	519.707	79.980	19.994	99.975	19.937	9.751	0.529
898.000	520.746	79.980	19.994	99.965	19.944	9.227	0.514
900.000	521.783	79.979	19.994	99.971	19.945	9.140	0.547
902.000	522.838	79.980	19.994	99.974	19.949	8.877	0.533
904.000	523.836	79.979	19.994	99.969	19.955	8.403	0.516
906.000	524.861	79.980	19.995	99.968	19.956	8.295	0.480
908.000	525.898	79.980	19.994	99.972	19.958	8.203	0.498
910.000	526.944	79.979	19.994	99.970	19.964	7.726	0.520
912.000	527.938	79.981	19.994	99.976	19.964	7.753	0.519
914.000	528.985	79.978	19.993	99.970	19.966	7.530	0.516
916.000	529.973	79.979	19.994	99.961	19.970	7.292	0.479
918.000	530.988	79.981	19.994	99.963	19.970	7.283	0.508
920.000	532.036	79.980	19.993	99.964	19.977	6.777	0.528
922.000	533.006	79.982	19.992	99.969	19.973	7.044	0.485
924.000	534.057	79.982	19.994	99.974	19.979	6.600	0.530
926.000	535.075	79.982	19.993	99.971	19.976	6.845	0.490
928.000	536.091	79.982	19.993	99.965	19.979	6.606	0.504
930.000	537.113	79.981	19.994	99.963	19.980	6.500	0.504
932.000	538.138	79.981	19.993	99.963	19.981	6.404	0.508
934.000	539.158	79.980	19.994	99.969	19.986	6.072	0.500
936.000	540.146	79.981	19.993	99.964	19.984	6.249	0.521
938.000	541.188	79.982	19.993	99.974	19.991	5.696	0.498
940.000	542.201	79.980	19.993	99.965	19.986	6.046	0.509
942.000	543.232	79.982	19.994	99.963	19.985	6.178	0.531
944.000	544.210	79.983	19.993	99.967	19.987	5.993	0.480
946.000	545.236	79.983	19.993	99.974	19.985	6.115	0.524
948.000	546.242	79.983	19.992	99.968	19.986	6.071	0.491
950.000	547.241	79.982	19.992	99.966	19.994	5.446	0.497
952.000	548.244	80.002	20.000	99.997	19.994	5.491	0.504
954.000	549.231	79.998	19.999	99.994	19.992	5.577	0.510
956.000	550.261	79.994	19.999	99.980	19.992	5.577	0.520
958.000	551.274	79.979	19.996	99.995	19.998	5.154	0.510
960.000	552.270	79.980	19.994	99.987	19.990	5.753	0.508
962.000	553.303	79.977	19.994	99.970	19.998	5.170	0.519
964.000	554.369	79.979	19.994	99.987	19.993	5.513	0.536
966.000	555.383	79.979	19.994	99.991	19.993	5.523	0.530
968.000	556.411	79.978	19.994	99.984	19.993	5.558	0.525
970.000	557.398	79.980	19.994	99.993	20.001	4.945	0.504
972.000	558.456	79.979	19.995	99.994	20.002	4.872	0.508
974.000	559.445	79.980	19.994	99.980	20.000	5.019	0.504
976.000	560.503	79.981	19.994	99.980	20.003	4.811	0.535
978.000	561.496	79.980	19.993	99.973	20.005	4.647	0.479
980.000	562.510	79.979	19.993	99.967	20.002	4.847	0.508
982.000	563.497	79.980	19.993	99.964	20.008	4.387	0.472
984.000	564.530	79.979	19.993	99.975	20.007	4.507	0.490
986.000	565.552	79.980	19.994	99.962	20.006	4.564	0.504
988.000	566.567	79.979	19.994	99.984	20.009	4.303	0.515
990.000	567.576	79.979	19.995	99.998	20.008	4.411	0.489
992.000	568.591	79.979	19.995	99.989	20.010	4.227	0.523
994.000	569.611	79.981	19.994	99.980	20.006	4.590	0.520
996.000	570.615	79.979	19.994	99.969	20.011	4.191	0.493
998.000	571.639	79.980	19.996	99.967	20.008	4.430	0.507
1000.000	572.651	79.981	19.995	99.965	20.008	4.421	0.487
1002.000	573.671	79.982	19.994	99.967	20.005	4.627	0.466
1004.000	574.753	79.982	19.994	99.969	20.011	4.174	0.526
1006.000	575.732	79.982	19.993	99.971	20.013	4.071	0.508
1008.000	576.743	79.981	19.994	99.989	20.008	4.407	0.512
1010.000	577.735	79.982	19.993	99.980	20.011	4.195	0.505
1012.000	578.762	79.981	19.993	99.978	20.011	4.172	0.515
1014.000	579.745	79.982	19.993	99.973	20.005	4.634	0.489
1016.000	580.753	79.981	19.993	99.975	20.010	4.280	0.532
1018.000	581.794	79.980	19.994	99.981	20.012	4.079	0.512
1020.000	582.769	79.982	19.994	99.984	20.013	4.064	0.506
1022.000	583.785	79.981	19.993	99.985	20.020	3.532	0.512
1024.001	584.824	79.982	19.993	99.968	20.016	3.807	0.524
1026.001	585.859	79.981	19.993	99.974	20.011	4.160	0.523
1028.000	586.818	79.981	19.992	99.971	20.010	4.270	0.470
1030.000	587.798	79.982	19.992	99.973	20.013	4.015	0.469
1032.000	588.862	79.982	19.992	99.971	20.017	3.721	0.495
1034.000	589.921	79.982	19.992	99.976	20.014	3.942	0.527
1036.000	590.953	79.984	19.993	99.965	20.021	3.456	0.540
1038.000	591.948	79.982	19.993	99.962	20.009	4.370	0.500
1040.000	592.948	79.981	19.993	99.971	20.015	3.880	0.532
1042.001	593.969	79.980	19.992	99.967	20.015	3.875	0.495
1044.000	594.981	79.980	19.993	99.971	20.017	3.771	0.511
1046.000	596.008	79.981	19.993	99.963	20.016	3.827	0.504
1048.000	597.029	79.980	19.994	99.967	20.016	3.802	0.484
1050.001	598.012	79.982	19.994	99.911	20.014	3.923	0.508
1052.000	598.989	79.980	19.995	99.963	20.018	3.691	0.501
1054.000	600.001	79.982	19.994	100.048	20.019	3.607	0.502
1056.000	601.055	79.982	19.994	99.968	20.020	3.479	0.517
1058.000	602.111	79.980	19.994	99.985	20.016	3.844	0.535
1060.000	603.076	79.981	19.994	99.978	20.016	3.793	0.493
1062.000	604.086	79.981	19.993	99.981	20.019	3.591	0.506
1064.000	605.086	79.980	19.994	99.994	20.020	3.526	0.497
1066.001	606.090	79.981	19.994	99.975	20.013	4.071	0.529
1068.000	607.118	79.980	19.994	99.980	20.016	3.827	0.537
1070.000	608.163	79.980	19.994	99.975	20.014	3.940	0.508
1072.000	609.136	79.979	19.994	99.973	20.018	3.656	0.503
1074.000	610.123	79.980	19.993	99.993	20.019	3.552	0.514
1076.001	611.140	79.981	19.995	99.990	20.015	3.856	0.505
1078.000	612.169	79.981	19.994	99.978	20.019	3.548	0.530
1080.000	613.126	79.981	19.993	99.978	20.021	3.448	0.467
1082.000	614.173	79.982	19.994	99.979	20.013	4.023	0.506
1084.000	615.189	79.982	19.994	99.967	20.014	3.957	0.480
1086.000	616.205	79.983	19.993	99.965	20.015	3.849	0.504
1088.000	617.214	79.980	19.993	99.974	20.018	3.666	0.491
1090.000	618.188	79.981	19.994	99.970	20.018	3.652	0.494
1092.000	619.226	79.981	19.993	99.935	20.020	3.493	0.508
1094.000	620.219	79.981	19.994	99.941	20.020	3.532	0.497
1096.000	621.210	79.979	19.993	100.046	20.017	3.746	0.495
1098.000	622.223	79.981	19.993	99.968	20.017	3.752	0.490
1100.000	623.247	79.982	19.993	99.972	20.018	3.630	0.513
1102.000	624.243	79.981	19.992	99.970	20.020	3.544	0.502
1104.000	625.272	79.982	19.993	99.966	20.016	3.803	0.520
1106.000	626.290	79.984	19.994	99.980	20.016	3.789	0.523
1108.000	627.354	79.984	19.993	99.971	20.019	3.577	0.498
1110.000	628.333	79.982	19.993	99.987	20.016	3.805	0.490
1112.001	629.328	79.983	19.993	99.973	20.024	3.201	0.497
1114.000	630.352	79.981	19.994	99.969	20.019	3.591	0.473
1116.000	631.398	79.982	19.993	99.979	20.017	3.732	0.522
1118.000	632.382	79.980	19.993	99.974	20.020	3.507	0.480
1120.001	633.463	79.981	19.992	99.976	20.020	3.527	0.510
1122.000	634.478	79.981	19.992	99.978	20.016	3.791	0.531
1124.000	635.565	79.980	19.992	99.961	20.019	3.585	0.535
1126.000	636.610	79.980	19.993	99.975	20.020	3.538	0.531
1128.000	637.602	79.981	19.994	99.978	20.021	3.456	0.491
1130.000	638.635	79.980	19.993	99.969	20.014	3.982	0.520
1132.000	639.736	79.982	19.995	99.964	20.015	3.884	0.534
1134.001	640.713	79.981	19.992	99.976	20.017	3.742	0.505
1136.001	641.775	79.979	19.993	99.972	20.022	3.325	0.540
1138.000	642.762	79.981	19.993	99.975	20.023	3.285	0.496
1140.000	643.805	79.980	19.994	99.969	20.021	3.450	0.510
1142.000	644.744	79.980	19.994	99.971	20.024	3.217	0.497
1144.001	645.784	79.978	19.995	99.969	20.019	3.583	0.492
1146.000	646.852	79.978	19.994	99.963	20.018	3.661	0.515
1148.000	647.843	79.978	19.994	99.964	20.021	3.398	0.502
1150.000	648.877	79.978	19.993	99.964	20.020	3.485	0.550
1152.000	649.899	79.979	19.992	99.967	20.027	3.020	0.516
1154.000	650.863	79.981	19.993	99.976	20.022	3.321	0.488
1156.000	651.903	79.981	19.994	99.994	20.024	3.231	0.505
1158.000	652.917	79.980	19.993	99.996	20.023	3.270	0.506
1160.000	653.952	79.981	19.994	99.991	20.020	3.483	0.501
1162.000	655.003	79.981	19.993	99.982	20.015	3.858	0.516
1164.001	656.006	79.981	19.993	99.965	20.014	3.957	0.510
1166.001	657.031	79.983	19.995	99.960	20.018	3.680	0.522
1168.000	658.003	79.983	19.995	99.960	20.016	3.780	0.462
1170.000	659.050	79.981	19.994	99.966	20.016	3.807	0.506
1172.000	660.124	79.981	19.995	99.967	20.018	3.676	0.481
1174.000	661.085	79.981	19.993	99.958	20.016	3.811	0.489
1176.000	662.058	79.981	19.994	99.957	20.011	4.174	0.488
1178.000	663.113	79.980	19.993	99.965	20.014	3.950	0.524
1180.000	664.094	79.981	19.992	99.974	20.020	3.511	0.514
1182.000	665.101	79.981	19.993	99.968	20.019	3.556	0.490
1184.001	666.140	79.983	19.993	99.971	20.015	3.869	0.506
1186.000	667.111	79.984	19.992	99.970	20.020	3.495	0.496
1188.000	668.110	79.982	19.992	99.958	20.021	3.460	0.488
1190.000	669.124	79.983	19.993	99.973	20.014	3.940	0.516
1192.000	670.077	79.983	19.993	99.967	20.018	3.660	0.498
1194.001	671.114	79.980	19.993	99.978	20.017	3.703	0.509
1196.000	672.137	79.981	19.994	99.972	20.023	3.277	0.519
1198.000	673.174	79.980	19.993	99.964	20.018	3.693	0.530
1200.001	674.179	79.979	19.992	99.968	20.022	3.385	0.539
1202.000	675.166	79.981	19.993	99.971	20.014	3.940	0.519
1204.001	676.159	79.980	19.992	99.972	20.019	3.601	0.490
1206.000	677.157	79.981	19.992	99.972	20.016	3.832	0.479
1208.000	678.197	79.981	19.993	99.973	20.015	3.860	0.503
1210.000	679.146	79.981	19.992	99.977	20.013	4.071	0.458
1212.001	680.139	79.979	19.992	99.970	20.010	4.234	0.494
1214.000	681.113	79.980	19.993	99.972	20.012	4.077	0.524
1216.000	682.066	79.980	19.993	99.986	20.014	3.948	0.480
1218.000	683.050	79.981	19.993	99.980	20.015	3.903	0.493
1220.000	684.032	79.980	19.994	99.975	20.014	3.973	0.488
1222.001	685.072	79.978	19.991	99.986	20.013	4.012	0.516
1224.000	686.072	79.978	19.993	99.977	20.012	4.113	0.486
1226.000	687.007	79.978	19.994	99.984	20.013	4.024	0.525
1228.001	688.017	79.980	19.994	99.972	20.013	4.045	0.507
1230.000	689.037	79.982	19.994	99.980	20.014	3.932	0.522
1232.000	689.999	79.980	19.993	99.995	20.016	3.841	0.500
1234.000	691.014	79.979	19.994	99.979	20.016	3.781	0.481
1236.001	692.031	79.981	19.993	99.988	20.013	4.007	0.485
1238.001	693.052	79.982	19.993	99.995	20.013	4.026	0.544
1240.000	694.074	79.984	19.993	99.987	20.010	4.291	0.556
1242.000	695.116	79.981	19.994	99.991	20.010	4.293	0.524
1244.000	696.094	79.983	19.993	99.997	20.012	4.127	0.468
1246.000	697.147	79.983	19.993	99.977	20.016	3.803	0.532
1248.000	698.160	79.981	19.993	99.966	20.010	4.237	0.496
1250.000	699.176	79.982	19.994	99.987	20.014	3.991	0.494
1252.000	700.227	79.979	19.992	99.984	20.014	3.924	0.558
1254.000	701.220	79.980	19.995	99.973	20.013	4.059	0.534
1256.000	702.202	79.978	19.994	99.972	20.009	4.326	0.471
1258.000	703.192	79.980	19.993	99.968	20.018	3.673	0.467
1260.000	704.227	79.982	19.993	99.962	20.013	4.020	0.494
1262.000	705.242	79.982	19.993	99.977	20.011	4.207	0.521
1264.000	706.281	79.984	19.994	99.982	20.014	3.981	0.478
1266.001	707.347	79.982	19.992	99.987	20.006	4.583	0.501
1268.000	708.349	79.983	19.993	99.985	20.013	4.061	0.498
1270.000	709.372	79.982	19.993	99.981	20.012	4.083	0.524
1272.001	710.341	79.982	19.992	99.976	20.015	3.856	0.492
1274.000	711.395	79.980	19.993	99.967	20.010	4.270	0.508
1276.000	712.424	79.979	19.993	99.988	20.007	4.494	0.516
1278.000	713.467	79.980	19.993	99.993	20.012	4.095	0.523
1280.000	714.526	79.978	19.992	99.980	20.013	4.029	0.514
1282.000	715.548	79.979	19.994	99.978	20.008	4.423	0.527
1284.000	716.595	79.979	19.993	99.974	20.013	4.021	0.504
1286.000	717.620	79.979	19.992	99.969	20.012	4.133	0.509
1288.000	718.593	79.981	19.994	99.973	20.017	3.768	0.459
1290.001	719.628	79.980	19.993	99.974	20.014	3.954	0.501
1292.000	720.687	79.981	19.992	99.963	20.016	3.846	0.519
1294.000	721.645	79.982	19.993	99.969	20.009	4.359	0.507
1296.000	722.707	79.981	19.993	99.965	20.009	4.299	0.546
1298.000	723.747	79.978	19.992	99.972	20.019	3.607	0.535
1300.000	724.723	79.980	19.994	99.972	20.009	4.319	0.486
1302.000	725.799	79.981	19.993	99.964	20.018	3.631	0.526
1304.000	726.753	79.980	19.992	99.964	20.017	3.768	0.492
1306.000	727.778	79.980	19.994	99.966	20.018	3.658	0.488
1308.000	728.830	79.979	19.993	99.974	20.013	4.040	0.533
1310.001	729.876	79.979	19.994	99.963	20.011	4.201	0.553
1312.000	730.889	79.981	19.993	99.969	20.013	3.999	0.525
1314.000	731.913	79.979	19.995	99.965	20.012	4.079	0.506
1316.000	732.945	79.982	19.994	99.965	20.014	3.985	0.508
1318.000	734.020	79.981	19.993	99.969	20.008	4.413	0.531
1320.000	734.995	79.981	19.993	99.968	20.012	4.113	0.486
1322.001	735.990	79.982	19.995	99.967	20.011	4.213	0.518
1324.000	737.055	79.982	19.994	99.971	20.007	4.521	0.496
1326.000	738.027	79.981	19.994	99.969	20.011	4.219	0.488
1328.000	739.032	79.981	19.993	99.976	20.010	4.227	0.524
1330.000	740.031	79.980	19.993	99.972	20.013	4.019	0.516
1332.000	741.043	79.979	19.993	99.967	20.010	4.227	0.518
1334.001	742.082	79.979	19.992	99.967	20.015	3.888	0.505
1336.000	743.064	79.981	19.994	99.965	20.013	4.035	0.501
1338.000	744.108	79.981	19.994	99.963	20.011	4.180	0.505
1340.000	745.129	79.981	19.995	99.964	20.013	4.054	0.532
1340.500	745.378	79.980	19.995	99.965	20.012	4.115	0.541