File: 01_Data/Homasote/STA/N2/10K_min/Homasote_STA_N2_10KData_222104_R2.csv
##Temp./Â°C,Time/min,Mass loss(subtr.2)/mg,DSC(subtr.2)/(mW/mg),Sensit./(uV/mW)
49.688,10.01,0.01579,0.01238463,1.06052
50.388,10.7703,0.0187489,0.05230907,1.06038
51.088,10.9727,0.01876952,0.07875171,1.06023
51.788,11.12538,0.01865035,0.1036,1.06009
52.488,11.25367,0.02056222,0.12189,1.05994
53.188,11.36793,0.01999706,0.13841,1.05979
53.888,11.47354,0.01988555,0.15175,1.05964
54.588,11.573,0.02052838,0.1652,1.05949
55.288,11.66744,0.01854793,0.17707,1.05934
55.988,11.75789,0.01875242,0.18938,1.05919
56.688,11.84551,0.01988209,0.19773,1.05904
57.388,11.93092,0.01977877,0.20628,1.05889
58.088,12.0146,0.0200169,0.2176,1.05873
58.788,12.09709,0.01996624,0.22191,1.05858
59.488,12.1784,0.01694442,0.23106,1.05842
60.188,12.25831,0.01722222,0.23695,1.05827
60.888,12.33716,0.01869789,0.24028,1.05811
61.588,12.41566,0.01875117,0.24218,1.05795
62.288,12.4938,0.0187914,0.24302,1.05779
62.988,12.57145,0.01874904,0.24469,1.05763
63.688,12.64865,0.01843441,0.24196,1.05747
64.388,12.72495,0.01920346,0.24453,1.05731
65.088,12.80087,0.01900669,0.24426,1.05715
65.788,12.8765,0.01874625,0.24582,1.05698
66.488,12.95265,0.01874429,0.24913,1.05682
67.188,13.02853,0.01736531,0.2502,1.05665
67.888,13.10409,0.01734401,0.25093,1.05649
68.588,13.1789,0.01743755,0.25472,1.05632
69.288,13.25337,0.01742053,0.25642,1.05615
69.988,13.32818,0.01751554,0.26012,1.05598
70.688,13.4023,0.01840886,0.26206,1.05581
71.388,13.477,0.01737139,0.26586,1.05564
72.088,13.55088,0.01841383,0.26664,1.05547
72.788,13.6246,0.01710564,0.26966,1.05529
73.488,13.698,0.01578993,0.27271,1.05512
74.188,13.77174,0.01315501,0.27625,1.05495
74.888,13.84551,0.01315047,0.27916,1.05477
75.588,13.919,0.01239708,0.28033,1.05459
76.288,13.9924,0.01475331,0.28195,1.05442
76.988,14.0655,0.01611004,0.28485,1.05424
77.688,14.138,0.01591728,0.28846,1.05406
78.388,14.21039,0.0161214,0.28833,1.05388
79.088,14.28265,0.01480182,0.29315,1.0537
79.788,14.35503,0.01575703,0.29343,1.05352
80.488,14.42702,0.0154841,0.29545,1.05333
81.188,14.49899,0.01611,0.2968,1.05315
81.888,14.57076,0.01611678,0.29647,1.05297
82.588,14.64233,0.01474711,0.2989,1.05278
83.288,14.71372,0.01217004,0.3029,1.05259
83.988,14.78517,0.01216281,0.30223,1.05241
84.688,14.8565,0.01207547,0.30631,1.05222
85.388,14.92745,0.01349047,0.30546,1.05203
86.088,14.9982,0.01216748,0.30557,1.05184
86.788,15.0688,0.01211373,0.30999,1.05165
87.488,15.13938,0.01347158,0.31086,1.05146
88.188,15.20915,0.01216013,0.30836,1.05127
88.888,15.27888,0.01083979,0.31081,1.05107
89.588,15.3487,0.01151671,0.31074,1.05088
90.288,15.41894,0.01149994,0.30934,1.05068
90.988,15.48915,0.01155421,0.31299,1.05049
91.688,15.55909,0.01022212,0.31276,1.05029
92.388,15.62929,0.01015424,0.31282,1.05009
93.088,15.6996,0.01151,0.31251,1.0499
93.788,15.7696,0.01151,0.31146,1.0497
94.488,15.8393,0.01123723,0.31367,1.0495
95.188,15.9079,0.01020006,0.31461,1.0493
95.888,15.9769,0.01006608,0.31333,1.04909
96.588,16.04608,0.008880091,0.31026,1.04889
97.288,16.1156,0.009067541,0.31128,1.04869
97.988,16.18508,0.00788314,0.31098,1.04848
98.688,16.25424,0.007893073,0.31101,1.04828
99.388,16.32356,0.006657059,0.31027,1.04807
100.088,16.3926,0.00721147,0.31225,1.04786
100.788,16.46159,0.00755997,0.31226,1.04766
101.488,16.53039,0.007559877,0.31371,1.04745
102.188,16.5993,0.00623923,0.31375,1.04724
102.888,16.66795,0.007545111,0.31238,1.04703
103.588,16.7367,0.006241251,0.31393,1.04682
104.288,16.8053,0.006240002,0.31494,1.0466
104.988,16.87418,0.006199245,0.31607,1.04639
105.688,16.9433,0.006345877,0.31486,1.04618
106.388,17.01168,0.00624999,0.31699,1.04596
107.088,17.08025,0.00625,0.31807,1.04575
107.788,17.14857,0.006249338,0.32027,1.04553
108.488,17.21752,0.004936906,0.31858,1.04531
109.188,17.28608,0.00390274,0.32031,1.04509
109.888,17.35481,0.00394989,0.31868,1.04487
110.588,17.42335,0.004625882,0.32195,1.04465
111.288,17.49188,0.004599321,0.32012,1.04443
111.988,17.56033,0.005252935,0.32071,1.04421
112.688,17.62868,0.004929399,0.3192,1.04399
113.388,17.69714,0.00361793,0.31966,1.04377
114.088,17.76559,0.003610264,0.31808,1.04354
114.788,17.83409,0.002238163,0.31792,1.04332
115.488,17.90279,0.003616792,0.31672,1.04309
116.188,17.97048,0.0036101,0.31865,1.04286
116.888,18.03818,0.002625695,0.31657,1.04264
117.588,18.1063,0.002620511,0.31442,1.04241
118.288,18.17492,0.001297185,0.31586,1.04218
118.988,18.24384,0.002630515,0.31241,1.04195
119.688,18.312,0.002630037,0.31038,1.04172
120.388,18.3803,0.00329194,0.30899,1.04149
121.088,18.44846,0.00309458,0.3084,1.04125
121.788,18.51633,0.002620009,0.30527,1.04102
122.488,18.58407,0.00257655,0.30328,1.04079
123.188,18.65149,0.001367781,0.30242,1.04055
123.888,18.71935,0.00263003,0.30356,1.04032
124.588,18.7874,0.002629991,0.30105,1.04008
125.288,18.85557,0.002723783,0.30052,1.03984
125.988,18.9236,0.001309962,0.29939,1.0396
126.688,18.991,0.001309691,0.29708,1.03936
127.388,19.05845,0.000833565,0.29594,1.03912
128.088,19.12639,0.001309993,0.29648,1.03888
128.788,19.1949,0.00131,0.29613,1.03864
129.488,19.26291,0.00131,0.29624,1.0384
130.188,19.33064,0.00131,0.29503,1.03815
130.888,19.3981,0.001310006,0.29297,1.03791
131.588,19.46606,0.001157683,0.29566,1.03767
132.288,19.5339,0.001310405,0.29464,1.03742
132.988,19.60195,0.001272683,0.29135,1.03717
133.688,19.6696,0.00391911,0.29429,1.03693
134.388,19.7373,0.00261975,0.29159,1.03668
135.088,19.80517,0.002646929,0.28986,1.03643
135.788,19.87303,0.00361044,0.29109,1.03618
136.488,19.94122,0.002528471,0.29257,1.03593
137.188,20.00901,0.0017128,0.29304,1.03568
137.888,20.07629,-0.0003454587,0.29112,1.03542
138.588,20.14313,-0.0003234785,0.29288,1.03517
139.288,20.2108,0.0009699741,0.29328,1.03492
139.988,20.27891,0.002295673,0.29283,1.03466
140.688,20.3476,0.002347591,0.29185,1.0344
141.388,20.4152,0.002299991,0.29255,1.03415
142.088,20.48266,0.0023,0.29415,1.03389
142.788,20.55015,0.0023,0.2947,1.03363
143.488,20.61759,0.002316958,0.29441,1.03337
144.188,20.68507,0.002960345,0.29466,1.03311
144.888,20.7523,0.00294834,0.29399,1.03285
145.588,20.81973,0.001639979,0.29594,1.03259
146.288,20.88702,0.00164,0.29658,1.03233
146.988,20.95461,0.001645873,0.29751,1.03207
147.688,21.0218,0.002289614,0.29809,1.0318
148.388,21.08923,0.002292962,0.30025,1.03154
149.088,21.15633,8.970473e-05,0.29646,1.03127
149.788,21.2239,0.0009796272,0.30122,1.03101
150.488,21.2911,0.002328021,0.29789,1.03074
151.188,21.35846,0.002288838,0.29965,1.03047
151.888,21.42568,0.003290136,0.30209,1.0302
152.588,21.49307,0.002105078,0.3013,1.02994
153.288,21.5606,0.001970824,0.30098,1.02967
153.988,21.6278,0.00130261,0.30349,1.02939
154.688,21.69506,0.001262146,0.30484,1.02912
155.388,21.76202,0.00262022,0.3034,1.02885
156.088,21.8292,0.002619999,0.30264,1.02858
156.788,21.89601,0.002655561,0.30544,1.0283
157.488,21.9632,0.002238353,0.30633,1.02803
158.188,22.0304,0.001310018,0.30538,1.02775
158.888,22.09768,0.001311642,0.30653,1.02748
159.588,22.16481,0.00261961,0.30804,1.0272
160.288,22.23184,0.002299863,0.30829,1.02692
160.988,22.2988,0.00231465,0.3062,1.02664
161.688,22.3659,0.00360991,0.30995,1.02636
162.388,22.43298,0.00361,0.30951,1.02608
163.088,22.5003,0.00361,0.31185,1.0258
163.788,22.56766,0.003616162,0.31062,1.02552
164.488,22.63512,0.002276851,0.31099,1.02524
165.188,22.70178,0.0009807331,0.31141,1.02495
165.888,22.76891,0.0009781687,0.31152,1.02467
166.588,22.8358,0.0009308224,0.31293,1.02438
167.288,22.9034,0.0009700047,0.3118,1.0241
167.988,22.97073,0.0009699986,0.31411,1.02381
168.688,23.03779,0.0009462032,0.31289,1.02352
169.388,23.10499,-1.05393e-05,0.31362,1.02324
170.088,23.17199,0.0001385959,0.31771,1.02295
170.788,23.2391,0.001310008,0.31658,1.02266
171.488,23.30605,0.001258066,0.31852,1.02237
172.188,23.37304,0.0026217,0.31815,1.02208
172.888,23.4401,0.001310047,0.31738,1.02178
173.588,23.50741,0.001727886,0.31814,1.02149
174.288,23.5742,0.001636429,0.31902,1.0212
174.988,23.64134,0.00136329,0.31884,1.0209
175.688,23.70794,0.0009798768,0.32123,1.02061
176.388,23.77499,-6.967535e-05,0.32154,1.02031
177.088,23.84168,-0.000330014,0.32043,1.02002
177.788,23.9083,-0.00033,0.32332,1.01972
178.488,23.97485,-0.00033,0.32426,1.01942
179.188,24.0413,-0.00033,0.32553,1.01912
179.888,24.10833,-0.000329528,0.32487,1.01882
180.588,24.17517,-7.747101e-06,0.32702,1.01852
181.288,24.24215,-1.000018e-05,0.32884,1.01822
181.988,24.3089,-9.927686e-06,0.32647,1.01792
182.688,24.3758,0.001278985,0.32826,1.01762
183.388,24.4425,-1.63227e-05,0.33147,1.01731
184.088,24.50901,-1.006292e-05,0.33008,1.01701
184.788,24.57576,-0.00121955,0.32908,1.0167
185.488,24.64309,-1.013154e-05,0.33235,1.0164
186.188,24.71067,-1.164286e-05,0.33147,1.01609
186.888,24.77808,-0.001331393,0.33015,1.01578
187.588,24.8449,-0.00133,0.33176,1.01548
188.288,24.91155,-0.00133,0.33119,1.01517
188.988,24.97786,-0.00133,0.33331,1.01486
189.688,25.04419,-0.00133,0.33383,1.01455
190.388,25.11063,-0.00133,0.33561,1.01424
191.088,25.17683,-0.00135484,0.33513,1.01393
191.788,25.24385,-0.003957316,0.33468,1.01361
192.488,25.31062,-0.00395,0.33656,1.0133
193.188,25.3776,-0.00395,0.33609,1.01299
193.888,25.4442,-0.003949994,0.33735,1.01267
194.588,25.51077,-0.00240877,0.33799,1.01236
195.288,25.5776,-0.002284356,0.34043,1.01204
195.988,25.64457,-0.004368291,0.34042,1.01172
196.688,25.71143,-0.005819971,0.33974,1.01141
197.388,25.77806,-0.005820078,0.34066,1.01109
198.088,25.84451,-0.00655092,0.34153,1.01077
198.788,25.91115,-0.005487564,0.34468,1.01045
199.488,25.97731,-0.005504794,0.34471,1.01013
200.188,26.04362,-0.008172351,0.3443,1.00981
200.888,26.11015,-0.00813,0.34651,1.00949
201.588,26.1771,-0.008129743,0.34645,1.00916
202.288,26.2442,-0.00949093,0.34783,1.00884
202.988,26.31085,-0.00944275,0.35059,1.00852
203.688,26.3775,-0.01174412,0.34908,1.00819
204.388,26.444,-0.01174772,0.35034,1.00786
205.088,26.5105,-0.01206989,0.35417,1.00754
205.788,26.57692,-0.01075568,0.35397,1.00721
206.488,26.64355,-0.01205455,0.35231,1.00688
207.188,26.71057,-0.01408935,0.35658,1.00656
207.888,26.77758,-0.01469996,0.35798,1.00623
208.588,26.84473,-0.01470167,0.36065,1.0059
209.288,26.9116,-0.01403868,0.36072,1.00557
209.988,26.97836,-0.01404133,0.36198,1.00523
210.688,27.04518,-0.01538342,0.3596,1.0049
211.388,27.11208,-0.01721,0.36285,1.00457
212.088,27.17912,-0.01799979,0.36214,1.00424
212.788,27.2462,-0.01931525,0.36136,1.0039
213.488,27.3129,-0.01954503,0.36283,1.00357
214.188,27.3794,-0.0196894,0.36652,1.00323
214.888,27.4459,-0.02057965,0.36312,1.0029
215.588,27.5128,-0.02312019,0.36449,1.00256
216.288,27.57968,-0.02326001,0.3671,1.00222
216.988,27.6469,-0.02381138,0.36787,1.00188
217.688,27.7136,-0.02457757,0.36644,1.00154
218.388,27.78057,-0.0268798,0.36922,1.0012
219.088,27.84737,-0.02688001,0.36963,1.00086
219.788,27.91432,-0.02679959,0.36784,1.00052
220.488,27.98112,-0.0281904,0.37173,1.00018
221.188,28.04802,-0.0295173,0.36855,0.99984
221.888,28.1146,-0.03116328,0.37066,0.99949
222.588,28.1814,-0.03247437,0.37139,0.99915
223.288,28.24792,-0.03377622,0.36705,0.99881
223.988,28.31493,-0.03508202,0.36869,0.99846
224.688,28.38144,-0.03611082,0.36697,0.99811
225.388,28.4482,-0.03740943,0.36813,0.99777
226.088,28.51476,-0.0386657,0.36833,0.99742
226.788,28.5817,-0.03904949,0.36792,0.99707
227.488,28.64841,-0.04070222,0.3689,0.99672
228.188,28.715,-0.0419525,0.37227,0.99637
228.888,28.7815,-0.04201928,0.37031,0.99602
229.588,28.8481,-0.04433223,0.37018,0.99567
230.288,28.9148,-0.04576915,0.37205,0.99532
230.988,28.9815,-0.04608794,0.37306,0.99497
231.688,29.0483,-0.04825833,0.375,0.99462
232.388,29.115,-0.05098734,0.37585,0.99426
233.088,29.18161,-0.05233026,0.37417,0.99391
233.788,29.248,-0.05443088,0.37712,0.99355
234.488,29.31458,-0.05625656,0.37544,0.9932
235.188,29.38145,-0.05759253,0.37613,0.99284
235.888,29.44833,-0.0591219,0.37822,0.99248
236.588,29.51499,-0.0612761,0.37731,0.99213
237.288,29.5817,-0.06284122,0.38036,0.99177
237.988,29.64857,-0.06426015,0.37913,0.99141
238.688,29.7156,-0.06696741,0.3797,0.99105
239.388,29.78235,-0.06829795,0.37933,0.99069
240.088,29.8492,-0.07056376,0.38025,0.99033
240.788,29.91592,-0.07209728,0.37974,0.98996
241.488,29.98273,-0.07370878,0.38402,0.9896
242.188,30.04948,-0.07632022,0.38318,0.98924
242.888,30.11634,-0.0800545,0.38773,0.98888
243.588,30.18305,-0.08175684,0.38489,0.98851
244.288,30.2495,-0.08333243,0.38726,0.98815
244.988,30.3162,-0.08570965,0.38533,0.98778
245.688,30.3829,-0.08709128,0.38434,0.98741
246.388,30.44959,-0.0884084,0.3884,0.98705
247.088,30.51635,-0.09123142,0.38846,0.98668
247.788,30.583,-0.09410805,0.38804,0.98631
248.488,30.64967,-0.09706696,0.3871,0.98594
249.188,30.71635,-0.09972179,0.38826,0.98557
249.888,30.78327,-0.10202,0.38965,0.9852
250.588,30.84992,-0.10542,0.38872,0.98483
251.288,30.91675,-0.1079,0.38894,0.98446
251.988,30.9835,-0.10933,0.39017,0.98409
252.688,31.0504,-0.11071,0.3919,0.98371
253.388,31.11696,-0.11405,0.39501,0.98334
254.088,31.18378,-0.11699,0.39466,0.98296
254.788,31.25052,-0.12148,0.39213,0.98259
255.488,31.3175,-0.12513,0.39478,0.98221
256.188,31.38413,-0.12627,0.39616,0.98184
256.888,31.45068,-0.13059,0.39701,0.98146
257.588,31.5174,-0.13362,0.39736,0.98108
258.288,31.58437,-0.13644,0.39994,0.9807
258.988,31.65115,-0.13836,0.39989,0.98033
259.688,31.7173,-0.14142,0.40092,0.97995
260.388,31.7835,-0.14446,0.40001,0.97957
261.088,31.85032,-0.14766,0.40316,0.97919
261.788,31.9177,-0.15332,0.40382,0.9788
262.488,31.98495,-0.15518,0.40425,0.97842
263.188,32.05172,-0.15931,0.40294,0.97804
263.888,32.11871,-0.16313,0.40352,0.97766
264.588,32.1856,-0.16696,0.40557,0.97727
265.288,32.2527,-0.17032,0.40576,0.97689
265.988,32.31957,-0.17404,0.40762,0.9765
266.688,32.3864,-0.17716,0.4071,0.97612
267.388,32.45323,-0.18349,0.40684,0.97573
268.088,32.52005,-0.18571,0.40814,0.97534
268.788,32.5869,-0.1914,0.40879,0.97495
269.488,32.65361,-0.19422,0.40938,0.97457
270.188,32.72038,-0.19931,0.41022,0.97418
270.888,32.7873,-0.20422,0.41108,0.97379
271.588,32.8539,-0.20756,0.41004,0.9734
272.288,32.92064,-0.21051,0.41347,0.97301
272.988,32.98761,-0.21549,0.41413,0.97261
273.688,33.0547,-0.22038,0.41562,0.97222
274.388,33.12168,-0.22396,0.41842,0.97183
275.088,33.18855,-0.23115,0.41912,0.97144
275.788,33.25528,-0.23616,0.41841,0.97104
276.488,33.32227,-0.24068,0.41825,0.97065
277.188,33.38922,-0.24595,0.41976,0.97025
277.888,33.45643,-0.24904,0.42221,0.96986
278.588,33.52333,-0.25484,0.42036,0.96946
279.288,33.59016,-0.26051,0.42276,0.96906
279.988,33.6571,-0.26665,0.4254,0.96866
280.688,33.72391,-0.2724,0.42738,0.96827
281.388,33.79071,-0.27777,0.43,0.96787
282.088,33.85738,-0.27941,0.42818,0.96747
282.788,33.92419,-0.28891,0.43093,0.96707
283.488,33.9912,-0.29692,0.43168,0.96667
284.188,34.05836,-0.30104,0.43386,0.96627
284.888,34.12539,-0.30618,0.4355,0.96586
285.588,34.19235,-0.31218,0.43449,0.96546
286.288,34.25909,-0.31972,0.43787,0.96506
286.988,34.32584,-0.32552,0.43767,0.96465
287.688,34.39287,-0.33119,0.44071,0.96425
288.388,34.4599,-0.33728,0.44429,0.96384
289.088,34.52707,-0.34493,0.44211,0.96344
289.788,34.59415,-0.3518,0.44794,0.96303
290.488,34.66122,-0.36055,0.44731,0.96263
291.188,34.7282,-0.36659,0.45063,0.96222
291.888,34.79489,-0.37405,0.45055,0.96181
292.588,34.86197,-0.38122,0.45182,0.9614
293.288,34.92938,-0.38868,0.45346,0.96099
293.988,34.99673,-0.39624,0.45682,0.96058
294.688,35.06391,-0.40373,0.45974,0.96017
295.388,35.13086,-0.40914,0.45892,0.95976
296.088,35.1979,-0.41956,0.4599,0.95935
296.788,35.26484,-0.42793,0.46503,0.95894
297.488,35.33194,-0.43571,0.46577,0.95852
298.188,35.39928,-0.44588,0.4697,0.95811
298.888,35.46637,-0.4537,0.47089,0.9577
299.588,35.53317,-0.46226,0.47255,0.95728
300.288,35.60024,-0.47027,0.47329,0.95687
300.988,35.66758,-0.4794,0.47702,0.95645
301.688,35.7352,-0.48751,0.47811,0.95604
302.388,35.8027,-0.49686,0.48038,0.95562
303.088,35.8697,-0.50712,0.48209,0.9552
303.788,35.93679,-0.51773,0.48599,0.95478
304.488,36.0039,-0.5272,0.48723,0.95436
305.188,36.07132,-0.53799,0.48941,0.95395
305.888,36.13842,-0.54725,0.49253,0.95353
306.588,36.2055,-0.55857,0.4977,0.95311
307.288,36.27258,-0.57041,0.49959,0.95268
307.988,36.33995,-0.57936,0.50342,0.95226
308.688,36.4071,-0.59018,0.504,0.95184
309.388,36.4742,-0.60099,0.50733,0.95142
310.088,36.54144,-0.61156,0.51143,0.951
310.788,36.60859,-0.62375,0.51462,0.95057
311.488,36.67569,-0.63602,0.51743,0.95015
312.188,36.743,-0.64627,0.52152,0.94972
312.888,36.81031,-0.65732,0.52432,0.9493
313.588,36.87793,-0.67036,0.52834,0.94887
314.288,36.94506,-0.68315,0.52954,0.94844
314.988,37.0122,-0.69438,0.53415,0.94802
315.688,37.0794,-0.70609,0.53685,0.94759
316.388,37.1467,-0.71955,0.53899,0.94716
317.088,37.21418,-0.73305,0.54196,0.94673
317.788,37.28132,-0.74584,0.54639,0.9463
318.488,37.3486,-0.75944,0.55063,0.94587
319.188,37.41599,-0.77345,0.55697,0.94544
319.888,37.4834,-0.78624,0.55614,0.94501
320.588,37.55057,-0.80114,0.55945,0.94458
321.288,37.61772,-0.81559,0.56674,0.94415
321.988,37.68508,-0.82975,0.57188,0.94372
322.688,37.75262,-0.84631,0.57309,0.94328
323.388,37.81951,-0.86137,0.57809,0.94285
324.088,37.88642,-0.8757,0.58276,0.94241
324.788,37.9535,-0.89062,0.58578,0.94198
325.488,38.02115,-0.90633,0.59155,0.94154
326.188,38.08876,-0.92189,0.5951,0.94111
326.888,38.15591,-0.93904,0.59908,0.94067
327.588,38.22325,-0.95697,0.60231,0.94023
328.288,38.29052,-0.97453,0.60613,0.9398
328.988,38.35785,-0.99115,0.61074,0.93936
329.688,38.42517,-1.00856,0.61541,0.93892
330.388,38.4925,-1.02455,0.61863,0.93848
331.088,38.55997,-1.04212,0.6274,0.93804
331.788,38.62733,-1.05848,0.62721,0.9376
332.488,38.6947,-1.07658,0.63421,0.93716
333.188,38.76206,-1.0935,0.64128,0.93672
333.888,38.82949,-1.11245,0.64521,0.93628
334.588,38.89693,-1.1323,0.65032,0.93583
335.288,38.96427,-1.15158,0.65308,0.93539
335.988,39.03147,-1.1723,0.66065,0.93495
336.688,39.09902,-1.19443,0.66435,0.9345
337.388,39.16638,-1.21345,0.67304,0.93406
338.088,39.23421,-1.23478,0.67611,0.93361
338.788,39.30166,-1.25628,0.68204,0.93317
339.488,39.36929,-1.27574,0.68836,0.93272
340.188,39.43711,-1.29591,0.69429,0.93228
340.888,39.50486,-1.31705,0.69632,0.93183
341.588,39.5725,-1.33911,0.70332,0.93138
342.288,39.6402,-1.3638,0.71208,0.93093
342.988,39.70782,-1.38731,0.71696,0.93048
343.688,39.7754,-1.41094,0.72439,0.93003
344.388,39.84275,-1.43169,0.72732,0.92958
345.088,39.9103,-1.45497,0.733,0.92913
345.788,39.978,-1.47815,0.73855,0.92868
346.488,40.04575,-1.5017,0.74376,0.92823
347.188,40.1134,-1.52371,0.74983,0.92778
347.888,40.18115,-1.54929,0.75333,0.92733
348.588,40.24895,-1.57345,0.76235,0.92687
349.288,40.31697,-1.5977,0.7624,0.92642
349.988,40.38475,-1.62422,0.76646,0.92597
350.688,40.45257,-1.64958,0.77082,0.92551
351.388,40.5201,-1.67497,0.77505,0.92506
352.088,40.5879,-1.70169,0.77686,0.9246
352.788,40.65555,-1.72678,0.78164,0.92415
353.488,40.72354,-1.75144,0.78255,0.92369
354.188,40.79141,-1.77923,0.78275,0.92323
354.888,40.85913,-1.80564,0.77959,0.92278
355.588,40.92674,-1.83049,0.78238,0.92232
356.288,40.99434,-1.8562,0.78011,0.92186
356.988,41.06204,-1.8816,0.77725,0.9214
357.688,41.12979,-1.90636,0.77231,0.92094
358.388,41.1975,-1.93165,0.76552,0.92048
359.088,41.2652,-1.95809,0.75895,0.92002
359.788,41.3329,-1.98351,0.75247,0.91956
360.488,41.4007,-2.00665,0.74124,0.9191
361.188,41.46846,-2.03044,0.72926,0.91864
361.888,41.53617,-2.05462,0.71343,0.91817
362.588,41.60396,-2.07784,0.69763,0.91771
363.288,41.6717,-2.10034,0.67793,0.91725
363.988,41.7395,-2.12282,0.65951,0.91678
364.688,41.80705,-2.14217,0.63815,0.91632
365.388,41.87464,-2.16313,0.61242,0.91585
366.088,41.94174,-2.182,0.58977,0.91539
366.788,42.00927,-2.19988,0.56639,0.91492
367.488,42.07691,-2.21672,0.53595,0.91446
368.188,42.14477,-2.23333,0.50737,0.91399
368.888,42.2124,-2.24926,0.47842,0.91352
369.588,42.2802,-2.2642,0.44884,0.91306
370.288,42.34798,-2.27644,0.41947,0.91259
370.988,42.41574,-2.28877,0.38921,0.91212
371.688,42.4833,-2.29865,0.35851,0.91165
372.388,42.55086,-2.30872,0.33135,0.91118
373.088,42.6185,-2.31637,0.3088,0.91071
373.788,42.68622,-2.3242,0.28549,0.91024
374.488,42.75405,-2.33095,0.26178,0.90977
375.188,42.82181,-2.33858,0.24325,0.9093
375.888,42.8896,-2.34475,0.22304,0.90882
376.588,42.9574,-2.35024,0.20914,0.90835
377.288,43.0249,-2.35757,0.19135,0.90788
377.988,43.09241,-2.36075,0.1829,0.9074
378.688,43.15983,-2.36493,0.17065,0.90693
379.388,43.2275,-2.36673,0.16223,0.90646
380.088,43.29529,-2.36946,0.15494,0.90598
380.788,43.363,-2.37279,0.14675,0.90551
381.488,43.4309,-2.37752,0.1406,0.90503
382.188,43.4987,-2.37891,0.13792,0.90455
382.888,43.56715,-2.37799,0.13465,0.90408
383.588,43.63552,-2.38009,0.13102,0.9036
384.288,43.70388,-2.38308,0.12783,0.90312
384.988,43.77182,-2.38724,0.12229,0.90264
385.688,43.83952,-2.38882,0.1219,0.90217
386.388,43.9073,-2.39114,0.12148,0.90169
387.088,43.9749,-2.39265,0.11792,0.90121
387.788,44.04271,-2.39555,0.11835,0.90073
388.488,44.11009,-2.39643,0.11286,0.90025
389.188,44.17795,-2.39824,0.1145,0.89977
389.888,44.24582,-2.39863,0.11135,0.89928
390.588,44.31395,-2.40013,0.10996,0.8988
391.288,44.3818,-2.40209,0.10816,0.89832
391.988,44.4497,-2.40444,0.10674,0.89784
392.688,44.51755,-2.40714,0.1077,0.89735
393.388,44.58549,-2.40962,0.10625,0.89687
394.088,44.65338,-2.41003,0.10873,0.89639
394.788,44.7213,-2.41135,0.1023,0.8959
395.488,44.78907,-2.41357,0.10469,0.89542
396.188,44.85696,-2.41592,0.10069,0.89493
396.888,44.92487,-2.41696,0.10072,0.89445
397.588,44.99297,-2.41833,0.1015,0.89396
398.288,45.061,-2.42147,0.09993106,0.89347
398.988,45.129,-2.42374,0.09910788,0.89299
399.688,45.19701,-2.42497,0.0997363,0.8925
400.388,45.26502,-2.42782,0.09713375,0.89201
401.088,45.33319,-2.42906,0.09891695,0.89152
401.788,45.40137,-2.43043,0.09677157,0.89103
402.488,45.46953,-2.43204,0.09566804,0.89055
403.188,45.5377,-2.43437,0.09444989,0.89006
403.888,45.606,-2.43603,0.09325483,0.88957
404.588,45.67432,-2.43864,0.09422998,0.88907
405.288,45.74256,-2.4407,0.09384033,0.88858
405.988,45.81085,-2.44206,0.09459918,0.88809
406.688,45.8791,-2.44334,0.09248898,0.8876
407.388,45.94766,-2.44459,0.09255027,0.88711
408.088,46.01578,-2.44602,0.09117167,0.88662
408.788,46.0837,-2.44742,0.09090179,0.88612
409.488,46.1515,-2.44936,0.08986043,0.88563
410.188,46.21992,-2.45094,0.08967286,0.88513
410.888,46.28842,-2.45324,0.08958381,0.88464
411.588,46.35703,-2.4547,0.09030691,0.88415
412.288,46.4253,-2.45467,0.08898444,0.88365
412.988,46.4934,-2.45599,0.08804155,0.88315
413.688,46.56176,-2.45727,0.08738585,0.88266
414.388,46.63027,-2.46005,0.09125414,0.88216
415.088,46.6989,-2.46325,0.09191549,0.88167
415.788,46.76742,-2.46535,0.09091583,0.88117
416.488,46.83594,-2.4653,0.09261425,0.88067
417.188,46.90455,-2.46686,0.09015762,0.88017
417.888,46.9729,-2.46926,0.08980461,0.87967
418.588,47.04133,-2.47191,0.09142643,0.87917
419.288,47.10964,-2.47341,0.08921057,0.87868
419.988,47.17804,-2.4747,0.09281485,0.87818
420.688,47.24638,-2.47607,0.08953573,0.87768
421.388,47.3149,-2.47871,0.09125489,0.87717
422.088,47.38341,-2.48,0.09179739,0.87667
422.788,47.45191,-2.48002,0.09308802,0.87617
423.488,47.52024,-2.48169,0.09266011,0.87567
424.188,47.5888,-2.4844,0.09395194,0.87517
424.888,47.65735,-2.48703,0.09300161,0.87467
425.588,47.72613,-2.48839,0.0973268,0.87416
426.288,47.79472,-2.49064,0.09879314,0.87366
426.988,47.86293,-2.49269,0.09904636,0.87316
427.688,47.93139,-2.49515,0.09999714,0.87265
428.388,47.99994,-2.4968,0.10077,0.87215
429.088,48.06878,-2.49614,0.09889224,0.87164
429.788,48.13739,-2.49868,0.10537,0.87114
430.488,48.20585,-2.49999,0.10529,0.87063
431.188,48.27413,-2.50148,0.10481,0.87012
431.888,48.34245,-2.50281,0.10603,0.86962
432.588,48.41061,-2.50414,0.10824,0.86911
433.288,48.4795,-2.50737,0.10928,0.8686
433.988,48.54846,-2.50943,0.10977,0.8681
434.688,48.61756,-2.51196,0.10829,0.86759
435.388,48.686,-2.51347,0.11123,0.86708
436.088,48.75439,-2.5149,0.11231,0.86657
436.788,48.823,-2.51484,0.11456,0.86606
437.488,48.8913,-2.51487,0.11643,0.86555
438.188,48.9597,-2.51785,0.11947,0.86504
438.888,49.02807,-2.52087,0.12008,0.86453
439.588,49.09684,-2.52331,0.11967,0.86402
440.288,49.16536,-2.52344,0.12037,0.86351
440.988,49.23381,-2.52476,0.12039,0.863
441.688,49.30223,-2.52476,0.12093,0.86249
442.388,49.37036,-2.52609,0.12107,0.86197
443.088,49.43877,-2.52742,0.12273,0.86146
443.788,49.5072,-2.52872,0.12531,0.86095
444.488,49.57592,-2.53,0.12473,0.86043
445.188,49.64454,-2.53347,0.1259,0.85992
445.888,49.713,-2.53528,0.12635,0.85941
446.588,49.78182,-2.53668,0.12369,0.85889
447.288,49.85037,-2.53661,0.1283,0.85838
447.988,49.91919,-2.5393,0.12701,0.85786
448.688,49.98789,-2.54067,0.12977,0.85735
449.388,50.05675,-2.54209,0.13011,0.85683
450.088,50.1256,-2.54193,0.13262,0.85631
450.788,50.19437,-2.5433,0.12876,0.8558
451.488,50.2632,-2.54462,0.12903,0.85528
452.188,50.33206,-2.54594,0.13034,0.85476
452.888,50.40079,-2.54798,0.12928,0.85424
453.588,50.4694,-2.54857,0.13193,0.85373
454.288,50.5381,-2.5498,0.13355,0.85321
454.988,50.60699,-2.55119,0.1328,0.85269
455.688,50.67615,-2.55182,0.13276,0.85217
456.388,50.745,-2.55392,0.13227,0.85165
457.088,50.81389,-2.55644,0.13365,0.85113
457.788,50.88259,-2.55927,0.13197,0.85061
458.488,50.9516,-2.55788,0.13501,0.85009
459.188,51.0205,-2.55788,0.13197,0.84957
459.888,51.08975,-2.56051,0.13381,0.84905
460.588,51.15867,-2.56216,0.13291,0.84852
461.288,51.22746,-2.56352,0.1334,0.848
461.988,51.29606,-2.56493,0.13334,0.84748
462.688,51.36479,-2.56578,0.13262,0.84696
463.388,51.43367,-2.56579,0.13259,0.84643
464.088,51.50264,-2.56626,0.13298,0.84591
464.788,51.57176,-2.56754,0.13304,0.84539
465.488,51.64067,-2.56886,0.13137,0.84486
466.188,51.7096,-2.56886,0.13299,0.84434
466.888,51.77841,-2.57039,0.12989,0.84381
467.588,51.84744,-2.57392,0.13003,0.84329
468.288,51.91653,-2.57284,0.12986,0.84276
468.988,51.98536,-2.57413,0.12825,0.84224
469.688,52.0541,-2.57488,0.1272,0.84171
470.388,52.1229,-2.57544,0.12801,0.84118
471.088,52.19135,-2.57589,0.12693,0.84066
471.788,52.2599,-2.57807,0.12602,0.84013
472.488,52.3283,-2.5789,0.12324,0.8396
473.188,52.3975,-2.57939,0.12293,0.83907
473.888,52.46691,-2.5807,0.12394,0.83855
474.588,52.53671,-2.58186,0.12301,0.83802
475.288,52.6059,-2.58355,0.11957,0.83749
475.988,52.67507,-2.58397,0.12189,0.83696
476.688,52.74397,-2.58619,0.12083,0.83643
477.388,52.8131,-2.5875,0.12216,0.8359
478.088,52.8822,-2.58756,0.12126,0.83537
478.788,52.95129,-2.58816,0.11751,0.83484
479.488,53.02025,-2.58948,0.11922,0.83431
480.188,53.0894,-2.5918,0.12041,0.83378
480.888,53.15805,-2.59302,0.11627,0.83325
481.588,53.2274,-2.59422,0.11814,0.83271
482.288,53.29674,-2.59546,0.11782,0.83218
482.988,53.3664,-2.59573,0.11797,0.83165
483.688,53.4355,-2.5964,0.11895,0.83112
484.388,53.5044,-2.5954,0.11665,0.83058
485.088,53.5735,-2.59574,0.11598,0.83005
485.788,53.6428,-2.59832,0.11588,0.82952
486.488,53.71205,-2.59848,0.1175,0.82898
487.188,53.7812,-2.59979,0.11388,0.82845
487.888,53.8503,-2.59979,0.11588,0.82791
488.588,53.91956,-2.60111,0.11649,0.82738
489.288,53.9889,-2.60111,0.11315,0.82684
489.988,54.058,-2.60103,0.11529,0.82631
490.688,54.1271,-2.60242,0.1115,0.82577
491.388,54.19616,-2.60374,0.11068,0.82524
492.088,54.2655,-2.60505,0.10787,0.8247
492.788,54.33435,-2.60527,0.10964,0.82416
493.488,54.40364,-2.60637,0.11051,0.82363
494.188,54.47286,-2.60637,0.10939,0.82309
494.888,54.5425,-2.60867,0.10553,0.82255
495.588,54.61165,-2.61,0.10643,0.82201
496.288,54.68081,-2.60866,0.10794,0.82147
496.988,54.74985,-2.60999,0.10799,0.82094
497.688,54.81906,-2.61024,0.10395,0.8204
498.388,54.8883,-2.61255,0.10326,0.81986
499.088,54.9576,-2.61375,0.10812,0.81932
499.788,55.02689,-2.61394,0.10467,0.81878
500.488,55.0961,-2.61525,0.10384,0.81824
501.188,55.16482,-2.6165,0.10557,0.8177
501.888,55.23375,-2.61789,0.10979,0.81716
502.588,55.3026,-2.61888,0.10997,0.81662
503.288,55.372,-2.61888,0.11432,0.81607
503.988,55.44104,-2.61888,0.1154,0.81553
504.688,55.5101,-2.61887,0.11541,0.81499
505.388,55.57931,-2.62019,0.11917,0.81445
506.088,55.64845,-2.6215,0.12039,0.81391
506.788,55.7173,-2.6215,0.1219,0.81336
507.488,55.78585,-2.6215,0.12473,0.81282
508.188,55.85493,-2.62282,0.12683,0.81228
508.888,55.9241,-2.62177,0.1298,0.81173
509.588,55.99405,-2.62315,0.13088,0.81119
510.288,56.0635,-2.62314,0.13007,0.81065
510.988,56.133,-2.62414,0.13169,0.8101
511.688,56.20222,-2.62527,0.13098,0.80956
512.388,56.2711,-2.62439,0.13226,0.80901
513.088,56.34044,-2.62414,0.13171,0.80847
513.788,56.4098,-2.62676,0.13455,0.80792
514.488,56.47956,-2.62677,0.13258,0.80737
515.188,56.54885,-2.62808,0.13265,0.80683
515.888,56.6182,-2.62861,0.13274,0.80628
516.588,56.68736,-2.62907,0.13259,0.80574
517.288,56.75691,-2.63038,0.13564,0.80519
517.988,56.82629,-2.6317,0.13222,0.80464
518.688,56.89592,-2.63074,0.12942,0.80409
519.388,56.96532,-2.63147,0.12732,0.80355
520.088,57.0344,-2.63173,0.1253,0.803
520.788,57.10314,-2.63303,0.12457,0.80245
521.488,57.17245,-2.63171,0.12374,0.8019
522.188,57.2424,-2.63275,0.12044,0.80135
522.888,57.3124,-2.63434,0.11905,0.8008
523.588,57.382,-2.63567,0.11747,0.80025
524.288,57.4513,-2.63566,0.11425,0.79971
524.988,57.52016,-2.63698,0.11383,0.79916
525.688,57.5892,-2.63562,0.11367,0.79861
526.388,57.6586,-2.63829,0.11199,0.79805
527.088,57.72849,-2.63829,0.11056,0.7975
527.788,57.79826,-2.63828,0.11005,0.79695
528.488,57.8679,-2.63961,0.11207,0.7964
529.188,57.9376,-2.63961,0.108,0.79585
529.888,58.0071,-2.63961,0.10719,0.7953
530.588,58.07656,-2.63961,0.10096,0.79475
531.288,58.14592,-2.64093,0.09772576,0.7942
531.988,58.2158,-2.64223,0.0982195,0.79364
532.688,58.2855,-2.64355,0.09367554,0.79309
533.388,58.3552,-2.64356,0.09133635,0.79254
534.088,58.4247,-2.64298,0.08512214,0.79198
534.788,58.49436,-2.64355,0.08866607,0.79143
535.488,58.5642,-2.64355,0.08255954,0.79088
536.188,58.63411,-2.64553,0.08322565,0.79032
536.888,58.7044,-2.64652,0.08225807,0.78977
537.588,58.7748,-2.64646,0.08015617,0.78921
538.288,58.8449,-2.64749,0.0786135,0.78866
538.988,58.91471,-2.64882,0.07467675,0.78811
539.688,58.98437,-2.64906,0.07518141,0.78755
540.388,59.05426,-2.65046,0.07360963,0.78699
541.088,59.1239,-2.65151,0.06787298,0.78644
541.788,59.1935,-2.65143,0.06660714,0.78588
542.488,59.2631,-2.65178,0.06820714,0.78533
543.188,59.3328,-2.65202,0.06763174,0.78477
543.888,59.40262,-2.65282,0.06540248,0.78421
544.588,59.4724,-2.65145,0.06487949,0.78366
545.288,59.54226,-2.65012,0.06057278,0.7831
545.988,59.612,-2.65013,0.06480184,0.78254
546.688,59.6817,-2.65093,0.06359256,0.78199
547.388,59.75145,-2.65277,0.06393626,0.78143
548.088,59.82121,-2.65276,0.05969409,0.78087
548.788,59.89089,-2.65408,0.05784091,0.78031
549.488,59.96049,-2.65408,0.06093534,0.77975
550.188,60.0302,-2.65408,0.05598038,0.7792
550.888,60.09986,-2.6554,0.05606119,0.77864
551.588,60.16959,-2.65804,0.05437642,0.77808
552.288,60.23916,-2.65672,0.04985942,0.77752
552.988,60.30845,-2.65803,0.04907027,0.77696
553.688,60.37771,-2.65803,0.04711071,0.7764
554.388,60.4473,-2.65669,0.04427206,0.77584
555.088,60.51716,-2.65792,0.04112584,0.77528
555.788,60.58707,-2.65662,0.04472211,0.77472
556.488,60.6568,-2.66012,0.03912496,0.77416
557.188,60.7266,-2.66012,0.03532179,0.7736
557.888,60.79636,-2.6595,0.03656801,0.77304
558.588,60.86595,-2.65939,0.03548066,0.77247
559.288,60.9357,-2.66148,0.03444452,0.77191
559.988,61.0053,-2.66013,0.03172943,0.77135
560.688,61.07512,-2.66143,0.0283809,0.77079
561.388,61.1446,-2.66143,0.02808215,0.77023
562.088,61.2142,-2.66143,0.0260986,0.76967
562.788,61.2836,-2.66174,0.02842803,0.7691
563.488,61.35332,-2.66275,0.02322004,0.76854
564.188,61.4231,-2.66346,0.02292049,0.76798
564.888,61.49247,-2.66431,0.01934175,0.76741
565.588,61.562,-2.65953,0.02044401,0.76685
566.288,61.63163,-2.66292,0.01548503,0.76629
566.988,61.70135,-2.66422,0.01935418,0.76572
567.688,61.7709,-2.66549,0.01465064,0.76516
568.388,61.84038,-2.66682,0.01616705,0.76459
569.088,61.91016,-2.66549,0.01313561,0.76403
569.788,61.9799,-2.66549,0.009852807,0.76347
570.488,62.0495,-2.66681,0.009426189,0.7629
571.188,62.11906,-2.66786,0.009639762,0.76234
571.888,62.18864,-2.6668,0.009404512,0.76177
572.588,62.2583,-2.66812,0.00759089,0.76121
573.288,62.32809,-2.66935,0.00465592,0.76064
573.988,62.39775,-2.66858,0.00240208,0.76007
574.688,62.4668,-2.66451,0.00496732,0.75951
575.388,62.5363,-2.66777,0.0009584881,0.75894
576.088,62.60604,-2.6689,0.002089377,0.75838
576.788,62.67632,-2.67032,0.0008395928,0.75781
577.488,62.74615,-2.67262,9.818615e-05,0.75724
578.188,62.81593,-2.67267,-0.000631662,0.75668
578.888,62.88564,-2.67261,-0.00132434,0.75611
579.588,62.95528,-2.67262,-0.001807998,0.75554
580.288,63.0249,-2.67266,-0.002722515,0.75497
580.988,63.0947,-2.66908,-0.00420451,0.75441
581.688,63.16457,-2.67203,-0.003048293,0.75384
582.388,63.2345,-2.67503,-0.004858461,0.75327
583.088,63.304,-2.67504,-0.00424585,0.7527
583.788,63.37381,-2.67504,-0.007698578,0.75213
584.488,63.44375,-2.676,-0.0063445,0.75156
585.188,63.514,-2.67615,-0.008934503,0.751
585.888,63.58413,-2.67503,-0.01069968,0.75043
586.588,63.6542,-2.6764,-0.009455379,0.74986
587.288,63.72371,-2.67635,-0.01006619,0.74929
587.988,63.7936,-2.67635,-0.009548684,0.74872
588.688,63.8638,-2.67635,-0.01031922,0.74815
589.388,63.93465,-2.67717,-0.009939984,0.74758
590.088,64.00524,-2.67767,-0.01027705,0.74701
590.788,64.0749,-2.67792,-0.01030368,0.74644
591.488,64.14434,-2.67898,-0.01180094,0.74587
592.188,64.2144,-2.68031,-0.01131063,0.7453
592.888,64.285,-2.6813,-0.01274003,0.74473
593.588,64.35575,-2.68129,-0.01201982,0.74416
594.288,64.42583,-2.68129,-0.01059981,0.74358
594.988,64.49517,-2.67994,-0.008649137,0.74301
595.688,64.56488,-2.68128,-0.01114949,0.74244
596.388,64.6349,-2.68062,-0.00855645,0.74187
597.088,64.70529,-2.68151,-0.006622879,0.7413
597.788,64.77558,-2.68129,-0.00801567,0.74073
598.488,64.8457,-2.67996,-0.007156404,0.74015
599.188,64.91604,-2.6803,-0.00732447,0.73958
599.888,64.98598,-2.68127,-0.004479435,0.73901
600.588,65.0557,-2.67997,-0.000763093,0.73844
601.288,65.12549,-2.68005,-0.001350426,0.73786
601.988,65.1953,-2.68186,-8.129002e-07,0.73729
602.688,65.26514,-2.68359,0.0001763278,0.73672
603.388,65.33489,-2.68358,-0.000154293,0.73615
604.088,65.40479,-2.6849,0.004263446,0.73557
604.788,65.4748,-2.6849,0.003189618,0.735
605.488,65.54463,-2.6849,0.00766231,0.73443
606.188,65.61411,-2.68395,0.007681139,0.73385
606.888,65.68393,-2.68491,0.01061467,0.73328
607.588,65.75381,-2.68491,0.01142161,0.7327
608.288,65.82401,-2.68698,0.01435978,0.73213
608.988,65.89392,-2.68793,0.01728164,0.73155
609.688,65.96409,-2.68854,0.01384172,0.73098
610.388,66.0342,-2.68788,0.01838992,0.73041
611.088,66.10435,-2.68864,0.01876691,0.72983
611.788,66.17433,-2.68855,0.01965334,0.72926
612.488,66.2445,-2.68985,0.02334294,0.72868
613.188,66.3146,-2.68984,0.02315802,0.7281
613.888,66.38497,-2.68983,0.02712862,0.72753
614.588,66.45518,-2.69116,0.02880417,0.72695
615.288,66.5254,-2.69116,0.02850189,0.72638
615.988,66.59558,-2.69115,0.03546189,0.7258
616.688,66.66557,-2.69157,0.03633125,0.72523
617.388,66.73571,-2.69157,0.03991409,0.72465
618.088,66.80575,-2.6928,0.04336913,0.72407
618.788,66.876,-2.6928,0.04665191,0.7235
619.488,66.94627,-2.69415,0.05083574,0.72292
620.188,67.0167,-2.69402,0.0517635,0.72234
620.888,67.08699,-2.69474,0.05395605,0.72177
621.588,67.15711,-2.6958,0.05850204,0.72119
622.288,67.22673,-2.69747,0.06086093,0.72061
622.988,67.29709,-2.69774,0.0679121,0.72004
623.688,67.36759,-2.69774,0.06874167,0.71946
624.388,67.43855,-2.69774,0.07187773,0.71888
625.088,67.50876,-2.70039,0.07624163,0.7183
625.788,67.57905,-2.70169,0.0800444,0.71773
626.488,67.64917,-2.70037,0.08287264,0.71715
627.188,67.71948,-2.69898,0.08637183,0.71657
627.888,67.7898,-2.70134,0.09254035,0.71599
628.588,67.86025,-2.70355,0.096668,0.71541
629.288,67.93084,-2.70223,0.09601617,0.71483
629.988,68.0013,-2.70357,0.10169,0.71426
630.688,68.07194,-2.70488,0.10524,0.71368
631.388,68.14251,-2.70585,0.10956,0.7131
632.088,68.213,-2.70585,0.11709,0.71252
632.788,68.28347,-2.70585,0.11842,0.71194
633.488,68.35382,-2.70717,0.12328,0.71136
634.188,68.42434,-2.70848,0.1209,0.71078
634.888,68.4949,-2.70848,0.12794,0.7102
635.588,68.56527,-2.70982,0.13361,0.70962
636.288,68.63558,-2.71081,0.13667,0.70904
636.988,68.70594,-2.71112,0.14106,0.70846
637.688,68.7765,-2.71244,0.14446,0.70788
638.388,68.8472,-2.71363,0.15063,0.7073
639.088,68.91757,-2.71497,0.15567,0.70672
639.788,68.98775,-2.71638,0.15757,0.70614
640.488,69.05766,-2.71723,0.16652,0.70556
641.188,69.1278,-2.71761,0.16993,0.70498
641.888,69.1982,-2.71895,0.17637,0.7044
642.588,69.26827,-2.71621,0.17728,0.70382
643.288,69.33811,-2.71653,0.18387,0.70324
643.988,69.40802,-2.71954,0.18614,0.70266
644.688,69.47856,-2.72088,0.18977,0.70208
645.388,69.5491,-2.72088,0.19804,0.7015
646.088,69.61952,-2.7222,0.20239,0.70092
646.788,69.69034,-2.72351,0.20553,0.70034
647.488,69.7611,-2.72384,0.2106,0.69975
648.188,69.83203,-2.7238,0.2194,0.69917
648.888,69.90254,-2.72784,0.22236,0.69859
649.588,69.97312,-2.72626,0.22333,0.69801
650.288,70.0433,-2.7296,0.23243,0.69743
650.988,70.11324,-2.73111,0.23906,0.69685
651.688,70.1836,-2.73394,0.24619,0.69626
652.388,70.25463,-2.73549,0.25138,0.69568
653.088,70.32565,-2.73648,0.25759,0.6951
653.788,70.39607,-2.73787,0.26426,0.69452
654.488,70.46633,-2.73931,0.26959,0.69394
655.188,70.5364,-2.74052,0.2751,0.69335
655.888,70.60684,-2.7415,0.28337,0.69277
656.588,70.6772,-2.74287,0.28802,0.69219
657.288,70.74767,-2.74328,0.29644,0.69161
657.988,70.8178,-2.74557,0.29976,0.69102
658.688,70.88797,-2.74601,0.30723,0.69044
659.388,70.9582,-2.74721,0.31713,0.68986
660.088,71.02839,-2.74935,0.32263,0.68927
660.788,71.0986,-2.7517,0.32634,0.68869
661.488,71.16879,-2.7528,0.33118,0.68811
662.188,71.23897,-2.75543,0.33903,0.68752
662.888,71.30909,-2.75543,0.34966,0.68694
663.588,71.3793,-2.75735,0.35384,0.68636
664.288,71.4496,-2.75948,0.35847,0.68577
664.988,71.51963,-2.76213,0.36391,0.68519
665.688,71.58971,-2.76344,0.3685,0.68461
666.388,71.65961,-2.7644,0.38023,0.68402
667.088,71.72944,-2.76608,0.38707,0.68344
667.788,71.79939,-2.76838,0.39434,0.68286
668.488,71.86938,-2.7697,0.39863,0.68227
669.188,71.93953,-2.77255,0.40167,0.68169
669.888,72.00945,-2.77283,0.41071,0.6811
670.588,72.0798,-2.77417,0.41664,0.68052
671.288,72.1503,-2.77839,0.42018,0.67993
671.988,72.22064,-2.78224,0.42556,0.67935
672.688,72.29089,-2.78351,0.43261,0.67877
673.388,72.36123,-2.78618,0.4373,0.67818
674.088,72.4319,-2.78718,0.43824,0.6776
674.788,72.50256,-2.78757,0.44464,0.67701
675.488,72.57319,-2.79003,0.44337,0.67643
676.188,72.64363,-2.79324,0.44827,0.67584
676.888,72.71423,-2.79517,0.4495,0.67526
677.588,72.78493,-2.79797,0.45409,0.67467
678.288,72.85562,-2.79913,0.45471,0.67409
678.988,72.92604,-2.80203,0.45232,0.6735
679.688,72.99674,-2.80323,0.44932,0.67292
680.388,73.06758,-2.80589,0.44879,0.67233
681.088,73.13879,-2.80755,0.45023,0.67175
681.788,73.2098,-2.80828,0.44868,0.67116
682.488,73.28105,-2.81003,0.45195,0.67058
683.188,73.35203,-2.81226,0.44643,0.66999
683.888,73.42274,-2.815,0.44187,0.66941
684.588,73.49353,-2.81751,0.43709,0.66882
685.288,73.56425,-2.81868,0.43252,0.66823
685.988,73.63511,-2.82157,0.43061,0.66765
686.688,73.70555,-2.82422,0.42738,0.66706
687.388,73.77641,-2.82698,0.42265,0.66648
688.088,73.84666,-2.82685,0.41603,0.66589
688.788,73.91714,-2.83094,0.41551,0.66531
689.488,73.9872,-2.83283,0.4082,0.66472
690.188,74.05785,-2.8356,0.40598,0.66413
690.888,74.12844,-2.83744,0.40191,0.66355
691.588,74.1991,-2.83715,0.39903,0.66296
692.288,74.26979,-2.83748,0.39132,0.66238
692.988,74.34044,-2.84065,0.3904,0.66179
693.688,74.4109,-2.84198,0.38155,0.6612
694.388,74.48135,-2.84242,0.37301,0.66062
695.088,74.55176,-2.84461,0.36521,0.66003
695.788,74.62224,-2.84647,0.35384,0.65945
696.488,74.6926,-2.84941,0.34069,0.65886
697.188,74.7632,-2.85165,0.32668,0.65827
697.888,74.83418,-2.85427,0.30235,0.65769
698.588,74.9053,-2.85703,0.27701,0.6571
699.288,74.97626,-2.85832,0.24723,0.65651
699.988,75.04701,-2.8586,0.20915,0.65593
700.688,75.11771,-2.85999,0.16061,0.65534
701.388,75.18858,-2.86095,0.10781,0.65475
702.088,75.25928,-2.86227,0.05526206,0.65417
702.788,75.3301,-2.86227,0.02894625,0.65358
703.488,75.4007,-2.86358,0.00957688,0.65299
704.188,75.4714,-2.86378,0.002060237,0.65241
704.888,75.5421,-2.86341,-0.0006290067,0.65182
705.588,75.61279,-2.86396,-0.003271545,0.65123
706.288,75.68387,-2.86329,-0.006958589,0.65065
706.988,75.75505,-2.86457,-0.008297424,0.65006
707.688,75.82672,-2.86457,-0.01038021,0.64947
708.388,75.8985,-2.86392,-0.01291381,0.64889
709.088,75.97036,-2.86391,-0.01510984,0.6483
709.788,76.04209,-2.86424,-0.01512912,0.64771
710.488,76.1139,-2.86357,-0.01684012,0.64712
711.188,76.1858,-2.86487,-0.01675893,0.64654
711.888,76.25785,-2.86621,-0.01580599,0.64595
712.588,76.3296,-2.86559,-0.01886221,0.64536
713.288,76.4014,-2.86622,-0.01372402,0.64478
713.988,76.4731,-2.86625,-0.02044838,0.64419
714.688,76.54469,-2.8649,-0.02001908,0.6436
715.388,76.6165,-2.86619,-0.01931092,0.64301
716.088,76.68816,-2.8649,-0.02442288,0.64243
716.788,76.7598,-2.8649,-0.0198733,0.64184
717.488,76.83131,-2.86621,-0.01261686,0.64125
718.188,76.90259,-2.86737,-0.01823971,0.64067
718.888,76.97376,-2.86786,-0.01862097,0.64008
719.588,77.04477,-2.86786,-0.02294465,0.63949
720.288,77.11583,-2.86786,-0.02384607,0.6389
720.988,77.18685,-2.86795,-0.02197431,0.63832
721.688,77.2578,-2.86747,-0.01914,0.63773
722.388,77.32861,-2.86872,-0.02135597,0.63714
723.088,77.39936,-2.86918,-0.01766365,0.63656
723.788,77.46978,-2.86918,-0.02003659,0.63597
724.488,77.5402,-2.86918,-0.0182683,0.63538
725.188,77.61078,-2.86921,-0.02230552,0.63479
725.888,77.68191,-2.8695,-0.02686403,0.63421
726.588,77.75304,-2.8695,-0.0275968,0.63362
727.288,77.824,-2.87014,-0.02490262,0.63303
727.988,77.8947,-2.87017,-0.02845187,0.63244
728.688,77.9652,-2.87082,-0.02376033,0.63186
729.388,78.03576,-2.86949,-0.02432906,0.63127
730.088,78.10621,-2.8708,-0.02365746,0.63068
730.788,78.17667,-2.87087,-0.02501878,0.63009
731.488,78.247,-2.86951,-0.0300354,0.62951
732.188,78.31777,-2.86951,-0.02881398,0.62892
732.888,78.38847,-2.87071,-0.02645951,0.62833
733.588,78.45911,-2.87213,-0.02504841,0.62774
734.288,78.5296,-2.87212,-0.02661006,0.62716
734.988,78.60027,-2.87345,-0.02613509,0.62657
735.688,78.67102,-2.87345,-0.02877195,0.62598
736.388,78.74164,-2.87085,-0.03083449,0.6254
737.088,78.81237,-2.87212,-0.0276984,0.62481
737.788,78.88311,-2.87474,-0.03371604,0.62422
738.488,78.95391,-2.8755,-0.02556255,0.62363
739.188,79.02462,-2.87477,-0.02733457,0.62305
739.888,79.0953,-2.87609,-0.02988491,0.62246
740.588,79.1662,-2.87609,-0.03095606,0.62187
741.288,79.23702,-2.87742,-0.03421762,0.62128
741.988,79.30812,-2.87609,-0.03244362,0.6207
742.688,79.37902,-2.87609,-0.03429886,0.62011
743.388,79.45,-2.8751,-0.03149195,0.61952
744.088,79.5208,-2.87477,-0.03690142,0.61894
744.788,79.59174,-2.87393,-0.0375015,0.61835
745.488,79.66253,-2.87478,-0.04080561,0.61776
746.188,79.73321,-2.8748,-0.03968369,0.61717
746.888,79.80357,-2.87609,-0.04038618,0.61659
747.588,79.87416,-2.87609,-0.04383756,0.616
748.288,79.9449,-2.87609,-0.04445722,0.61541
748.988,80.01573,-2.87702,-0.04681336,0.61482
749.688,80.08637,-2.8774,-0.04876663,0.61424
750.388,80.1568,-2.87641,-0.04253739,0.61365
751.088,80.22714,-2.87617,-0.04662874,0.61306
751.788,80.29757,-2.87609,-0.04796015,0.61248
752.488,80.36785,-2.87608,-0.04772831,0.61189
753.188,80.4387,-2.87741,-0.04457475,0.6113
753.888,80.50949,-2.87741,-0.04739697,0.61072
754.588,80.58049,-2.8774,-0.04686188,0.61013
755.288,80.65117,-2.87872,-0.05348704,0.60954
755.988,80.72184,-2.87929,-0.05569549,0.60896
756.688,80.7926,-2.87806,-0.0549686,0.60837
757.388,80.8633,-2.87806,-0.05305297,0.60778
758.088,80.9341,-2.87805,-0.05473789,0.60719
758.788,81.0048,-2.87939,-0.0609875,0.60661
759.488,81.07556,-2.87939,-0.06154714,0.60602
760.188,81.1464,-2.87806,-0.06509613,0.60543
760.888,81.21725,-2.87806,-0.06933799,0.60485
761.588,81.28811,-2.88044,-0.06791403,0.60426
762.288,81.359,-2.88037,-0.06904623,0.60367
762.988,81.42976,-2.88037,-0.07106004,0.60309
763.688,81.50044,-2.88036,-0.07040358,0.6025
764.388,81.57118,-2.88168,-0.06919177,0.60192
765.088,81.64205,-2.88028,-0.0751486,0.60133
765.788,81.71281,-2.88036,-0.07112124,0.60074
766.488,81.78375,-2.87998,-0.07632654,0.60016
767.188,81.85458,-2.87905,-0.07913715,0.59957
767.888,81.9256,-2.87905,-0.0776028,0.59898
768.588,81.99638,-2.87905,-0.07859366,0.5984
769.288,82.06703,-2.88037,-0.0824595,0.59781
769.988,82.13772,-2.88042,-0.08748658,0.59722
770.688,82.2081,-2.87905,-0.08867456,0.59664
771.388,82.2787,-2.88036,-0.08865358,0.59605
772.088,82.34939,-2.88037,-0.09183107,0.59547
772.788,82.42036,-2.88037,-0.09035634,0.59488
773.488,82.4914,-2.88102,-0.08727921,0.59429
774.188,82.56195,-2.88166,-0.0976437,0.59371
774.888,82.63289,-2.88298,-0.09325689,0.59312
775.588,82.70375,-2.88464,-0.09611871,0.59254
776.288,82.77496,-2.88464,-0.10203,0.59195
776.988,82.84581,-2.88329,-0.10185,0.59137
777.688,82.91673,-2.88333,-0.10619,0.59078
778.388,82.9876,-2.88333,-0.10376,0.59019
779.088,83.0586,-2.88279,-0.10917,0.58961
779.788,83.1297,-2.88231,-0.10811,0.58902
780.488,83.20079,-2.88393,-0.10842,0.58844
781.188,83.27211,-2.88374,-0.11218,0.58785
781.888,83.34335,-2.88398,-0.11433,0.58727
782.588,83.41459,-2.88398,-0.11545,0.58668
783.288,83.48557,-2.88391,-0.11724,0.5861
783.988,83.5567,-2.88597,-0.11849,0.58551
784.688,83.62762,-2.88464,-0.1195,0.58493
785.388,83.69874,-2.88464,-0.12102,0.58434
786.088,83.76987,-2.88333,-0.12077,0.58376
786.788,83.84124,-2.88465,-0.12213,0.58317
787.488,83.91258,-2.88596,-0.12568,0.58259
788.188,83.9839,-2.88596,-0.12643,0.582
788.888,84.0552,-2.88644,-0.12603,0.58142
789.588,84.1266,-2.88728,-0.1284,0.58083
790.288,84.1979,-2.88728,-0.13227,0.58025
790.988,84.26931,-2.88728,-0.13085,0.57966
791.688,84.3407,-2.88629,-0.13091,0.57908
792.388,84.41215,-2.8863,-0.13994,0.5785
793.088,84.48351,-2.88761,-0.13832,0.57791
793.788,84.55493,-2.88761,-0.14179,0.57733
794.488,84.62618,-2.88762,-0.14013,0.57674
795.188,84.69757,-2.88629,-0.14499,0.57616
795.888,84.76861,-2.88629,-0.14741,0.57558
796.588,84.83981,-2.88497,-0.14986,0.57499
797.288,84.9109,-2.88629,-0.1543,0.57441
797.988,84.98274,-2.88629,-0.15633,0.57382
798.088,84.99298,-2.88629,-0.15337,0.57374