File: 01_Data/Homasote/STA/N2/10K_min/Homasote_STA_N2_10KData_222004_R1.csv
##Temp./Â°C,Time/min,Mass loss(subtr.2)/mg,DSC(subtr.2)/(mW/mg),Sensit./(uV/mW)
49.734,10.01,-0.01448,0.01431476,1.06051
50.434,10.77215,-0.01440208,0.0481784,1.06037
51.134,10.97371,-0.01611359,0.07689479,1.06022
51.834,11.1258,-0.01444759,0.09516212,1.06008
52.534,11.2563,-0.01493752,0.11599,1.05993
53.234,11.37304,-0.01490375,0.13223,1.05978
53.934,11.47869,-0.01524228,0.14344,1.05963
54.634,11.578,-0.01543974,0.15833,1.05948
55.334,11.6723,-0.01622161,0.16659,1.05933
56.034,11.76265,-0.01559705,0.17497,1.05918
56.734,11.8506,-0.01508239,0.1859,1.05903
57.434,11.9368,-0.01552663,0.1959,1.05888
58.134,12.0211,-0.01425223,0.20299,1.05872
58.834,12.10368,-0.01559269,0.20934,1.05857
59.534,12.1846,-0.0149674,0.21717,1.05841
60.234,12.26442,-0.01556552,0.21978,1.05826
60.934,12.3436,-0.01661191,0.22477,1.0581
61.634,12.4226,-0.01670308,0.22806,1.05794
62.334,12.50112,-0.01733141,0.22972,1.05778
63.034,12.57898,-0.01691652,0.2286,1.05762
63.734,12.6565,-0.01693472,0.22752,1.05746
64.434,12.73335,-0.01689964,0.22779,1.0573
65.134,12.80975,-0.01689072,0.22681,1.05714
65.834,12.88555,-0.016083,0.22934,1.05697
66.534,12.96129,-0.01831418,0.23095,1.05681
67.234,13.0367,-0.01699709,0.2333,1.05664
67.934,13.1123,-0.01691709,0.23618,1.05647
68.634,13.1874,-0.01831906,0.23596,1.05631
69.334,13.26232,-0.01786161,0.24134,1.05614
70.034,13.33716,-0.01902484,0.24368,1.05597
70.734,13.41186,-0.01832872,0.24399,1.0558
71.434,13.4856,-0.01964003,0.24794,1.05563
72.134,13.5597,-0.02094638,0.24851,1.05546
72.834,13.63354,-0.01962939,0.25237,1.05528
73.534,13.7077,-0.02049043,0.2547,1.05511
74.234,13.78161,-0.01963998,0.25884,1.05493
74.934,13.855,-0.01993331,0.26008,1.05476
75.634,13.92794,-0.01967391,0.26519,1.05458
76.334,14.0008,-0.0209502,0.26742,1.0544
77.034,14.07344,-0.02095965,0.26796,1.05423
77.734,14.1462,-0.0208757,0.26946,1.05405
78.434,14.2188,-0.02095,0.27377,1.05387
79.134,14.2917,-0.02094757,0.27371,1.05369
79.834,14.36415,-0.02225843,0.27847,1.0535
80.534,14.4362,-0.02258946,0.27955,1.05332
81.234,14.5078,-0.02309805,0.2801,1.05314
81.934,14.5795,-0.02487481,0.28197,1.05295
82.634,14.65131,-0.02597422,0.28646,1.05277
83.334,14.723,-0.02490103,0.28534,1.05258
84.034,14.79437,-0.02576496,0.28959,1.0524
84.734,14.86554,-0.0272107,0.28948,1.05221
85.434,14.9368,-0.02585645,0.28819,1.05202
86.134,15.0077,-0.02588958,0.29208,1.05183
86.834,15.0787,-0.02720179,0.29287,1.05164
87.534,15.1492,-0.02746687,0.2942,1.05145
88.234,15.21977,-0.02851999,0.29554,1.05125
88.934,15.29021,-0.02852,0.29533,1.05106
89.634,15.3605,-0.02851775,0.29481,1.05087
90.334,15.43065,-0.02918005,0.29945,1.05067
91.034,15.5007,-0.02917815,0.29751,1.05048
91.734,15.5709,-0.02851215,0.29734,1.05028
92.434,15.64096,-0.02983239,0.29834,1.05008
93.134,15.71075,-0.03049201,0.29724,1.04988
93.834,15.7806,-0.03115376,0.2952,1.04968
94.534,15.8502,-0.03048995,0.29747,1.04948
95.234,15.9194,-0.0304906,0.29694,1.04928
95.934,15.98875,-0.03179936,0.29493,1.04908
96.634,16.05799,-0.032453,0.2958,1.04888
97.334,16.12753,-0.03311654,0.29601,1.04867
98.034,16.19671,-0.03312,0.29325,1.04847
98.734,16.2658,-0.03312001,0.29488,1.04826
99.434,16.33492,-0.03304912,0.29336,1.04806
100.134,16.40395,-0.03313052,0.29414,1.04785
100.834,16.47304,-0.03441485,0.29216,1.04764
101.534,16.54189,-0.03443987,0.29272,1.04743
102.234,16.61052,-0.03509477,0.29436,1.04722
102.934,16.6794,-0.03642028,0.29136,1.04701
103.634,16.7482,-0.03577101,0.29106,1.0468
104.334,16.81707,-0.03513306,0.29143,1.04659
105.034,16.8855,-0.03540433,0.29104,1.04638
105.734,16.95403,-0.03612932,0.28871,1.04616
106.434,17.02265,-0.03706911,0.29219,1.04595
107.134,17.09113,-0.03707,0.2963,1.04573
107.834,17.15971,-0.03707,0.29361,1.04552
108.534,17.2282,-0.03707,0.29387,1.0453
109.234,17.2968,-0.03701919,0.29261,1.04508
109.934,17.36518,-0.03839025,0.29565,1.04486
110.634,17.43359,-0.03839,0.29608,1.04464
111.334,17.5019,-0.03838949,0.29591,1.04442
112.034,17.5703,-0.03839,0.2966,1.0442
112.734,17.63873,-0.03839,0.29552,1.04398
113.434,17.707,-0.0383901,0.29612,1.04375
114.134,17.77542,-0.03908335,0.29611,1.04353
114.834,17.84366,-0.04035963,0.29676,1.0433
115.534,17.91196,-0.04036,0.29561,1.04308
116.234,17.98029,-0.04035997,0.29428,1.04285
116.934,18.0485,-0.0403331,0.29302,1.04262
117.634,18.11682,-0.04036997,0.29095,1.04239
118.334,18.1845,-0.04077417,0.29087,1.04216
119.034,18.25241,-0.04168006,0.29012,1.04193
119.734,18.32,-0.04299993,0.28997,1.0417
120.434,18.3886,-0.04300032,0.28658,1.04147
121.134,18.4568,-0.04167563,0.28895,1.04124
121.834,18.52523,-0.04275142,0.2869,1.04101
122.534,18.59307,-0.04297408,0.28426,1.04077
123.234,18.66103,-0.04168007,0.28314,1.04054
123.934,18.72896,-0.04168007,0.27881,1.0403
124.634,18.7971,-0.04298502,0.27647,1.04006
125.334,18.865,-0.043,0.2745,1.03983
126.034,18.93282,-0.043,0.27205,1.03959
126.734,19.0006,-0.04299444,0.27207,1.03935
127.434,19.06843,-0.0443097,0.26866,1.03911
128.134,19.13645,-0.04430803,0.27008,1.03887
128.834,19.20402,-0.04300182,0.26943,1.03862
129.534,19.2716,-0.04297046,0.26963,1.03838
130.234,19.33898,-0.04431997,0.26827,1.03814
130.934,19.40674,-0.04441545,0.26603,1.03789
131.634,19.47438,-0.04308003,0.26544,1.03765
132.334,19.54221,-0.04398993,0.2675,1.0374
133.034,19.60989,-0.04399,0.26647,1.03716
133.734,19.6778,-0.04399,0.26661,1.03691
134.434,19.74532,-0.04399,0.26711,1.03666
135.134,19.81275,-0.04398995,0.26712,1.03641
135.834,19.88004,-0.04332844,0.26598,1.03616
136.534,19.9471,-0.04464337,0.26657,1.03591
137.234,20.01465,-0.0443075,0.26717,1.03566
137.934,20.0822,-0.04431,0.26627,1.03541
138.634,20.15004,-0.04431,0.26698,1.03515
139.334,20.2175,-0.0444479,0.26905,1.0349
140.034,20.2847,-0.04432623,0.26854,1.03464
140.734,20.35213,-0.04301452,0.26935,1.03439
141.434,20.41976,-0.0456389,0.26991,1.03413
142.134,20.4879,-0.04431989,0.26898,1.03387
142.834,20.55545,-0.04425103,0.27041,1.03362
143.534,20.62265,-0.04529067,0.26946,1.03336
144.234,20.69002,-0.04431053,0.27242,1.0331
144.934,20.75756,-0.04431001,0.27061,1.03284
145.634,20.82506,-0.04430308,0.27084,1.03258
146.334,20.89217,-0.04497619,0.26887,1.03231
147.034,20.95908,-0.04370963,0.27018,1.03205
147.734,21.02659,-0.04365762,0.27284,1.03179
148.434,21.0943,-0.04500693,0.27357,1.03152
149.134,21.16219,-0.04497556,0.27224,1.03126
149.834,21.22922,-0.04562697,0.27379,1.03099
150.534,21.29662,-0.04460397,0.27295,1.03072
151.234,21.3639,-0.04432155,0.27196,1.03046
151.934,21.43165,-0.04530545,0.27358,1.03019
152.634,21.49904,-0.04529913,0.27459,1.02992
153.334,21.5665,-0.04596132,0.27655,1.02965
154.034,21.63374,-0.04596,0.27661,1.02938
154.734,21.70102,-0.04596001,0.27668,1.0291
155.434,21.76807,-0.04622496,0.27547,1.02883
156.134,21.83504,-0.04513361,0.277,1.02856
156.834,21.90223,-0.04498495,0.27863,1.02828
157.534,21.96953,-0.04629004,0.27721,1.02801
158.234,22.03729,-0.04629,0.27618,1.02773
158.934,22.1046,-0.04628318,0.27639,1.02746
159.634,22.17184,-0.04691126,0.28044,1.02718
160.334,22.239,-0.04626837,0.28093,1.0269
161.034,22.30595,-0.04497078,0.28229,1.02662
161.734,22.37275,-0.0450921,0.28193,1.02634
162.434,22.4399,-0.04627986,0.28343,1.02606
163.134,22.5072,-0.04498426,0.283,1.02578
163.834,22.57452,-0.04627905,0.28536,1.0255
164.534,22.64169,-0.04676862,0.28453,1.02522
165.234,22.70867,-0.04627699,0.28475,1.02493
165.934,22.77571,-0.04629,0.28591,1.02465
166.634,22.84285,-0.04629,0.2852,1.02436
167.334,22.90992,-0.04628995,0.28678,1.02408
168.034,22.97697,-0.04497854,0.28723,1.02379
168.734,23.04406,-0.045013,0.28827,1.0235
169.434,23.11107,-0.04628988,0.29059,1.02322
170.134,23.17811,-0.04752306,0.29149,1.02293
170.834,23.24515,-0.0485639,0.29099,1.02264
171.534,23.31219,-0.04857878,0.29168,1.02235
172.234,23.37924,-0.04727166,0.2926,1.02206
172.934,23.44618,-0.0482591,0.29202,1.02176
173.634,23.51332,-0.04826,0.29356,1.02147
174.334,23.5804,-0.04825997,0.29396,1.02118
175.034,23.6475,-0.04956692,0.2905,1.02088
175.734,23.71448,-0.04860628,0.29282,1.02059
176.434,23.78139,-0.04859,0.29187,1.02029
177.134,23.84814,-0.04859,0.2932,1.02
177.834,23.91536,-0.0485901,0.29601,1.0197
178.534,23.9828,-0.04931695,0.29689,1.0194
179.234,24.04984,-0.04925001,0.2972,1.0191
179.934,24.1166,-0.04995809,0.29623,1.0188
180.634,24.18339,-0.04987461,0.29556,1.0185
181.334,24.2506,-0.05123008,0.29642,1.0182
182.034,24.3181,-0.05123001,0.29774,1.0179
182.734,24.38514,-0.05096866,0.29754,1.0176
183.434,24.4522,-0.0512192,0.29982,1.01729
184.134,24.51899,-0.05122,0.30013,1.01699
184.834,24.58565,-0.05122943,0.29916,1.01668
185.534,24.65241,-0.05155016,0.29814,1.01638
186.234,24.71936,-0.05155005,0.29899,1.01607
186.934,24.78624,-0.05282904,0.30125,1.01576
187.634,24.85296,-0.05352869,0.30197,1.01546
188.334,24.9195,-0.05353,0.30179,1.01515
189.034,24.98578,-0.05353,0.30236,1.01484
189.734,25.05245,-0.05354792,0.3057,1.01453
190.434,25.11896,-0.05484009,0.30492,1.01422
191.134,25.1859,-0.05484,0.307,1.0139
191.834,25.25271,-0.05484,0.30693,1.01359
192.534,25.31955,-0.05484,0.30523,1.01328
193.234,25.38638,-0.05484,0.30889,1.01297
193.934,25.4528,-0.05484,0.30687,1.01265
194.634,25.51973,-0.05484,0.30741,1.01234
195.334,25.58636,-0.05484,0.30872,1.01202
196.034,25.65343,-0.05483833,0.3069,1.0117
196.734,25.72032,-0.05584257,0.30849,1.01138
197.434,25.7872,-0.05714242,0.31168,1.01107
198.134,25.8539,-0.05583189,0.31125,1.01075
198.834,25.92041,-0.05583001,0.31129,1.01043
199.534,25.987,-0.05631261,0.3141,1.01011
200.234,26.05366,-0.05649003,0.31656,1.00979
200.934,26.12061,-0.0564898,0.31458,1.00946
201.634,26.18719,-0.05711355,0.31444,1.00914
202.334,26.25395,-0.05907012,0.31756,1.00882
203.034,26.32061,-0.06010997,0.32028,1.00849
203.734,26.38745,-0.06141122,0.32203,1.00817
204.434,26.45386,-0.06143,0.31993,1.00784
205.134,26.52037,-0.06143,0.32333,1.00752
205.834,26.58679,-0.06143944,0.32358,1.00719
206.534,26.6534,-0.06172421,0.32458,1.00686
207.234,26.7201,-0.06405487,0.32601,1.00653
207.934,26.7867,-0.06573458,0.32694,1.0062
208.634,26.8534,-0.06571785,0.32725,1.00587
209.334,26.92008,-0.06503999,0.33233,1.00554
210.034,26.9866,-0.06504194,0.33145,1.00521
210.734,27.0529,-0.06635817,0.33324,1.00488
211.434,27.11924,-0.06574572,0.33631,1.00455
212.134,27.1857,-0.06701154,0.33704,1.00421
212.834,27.25187,-0.0683304,0.33816,1.00388
213.534,27.31847,-0.06854816,0.33877,1.00355
214.234,27.3852,-0.07071997,0.33883,1.00321
214.934,27.4522,-0.07228315,0.33936,1.00287
215.634,27.51894,-0.07228008,0.33884,1.00254
216.334,27.5856,-0.07332706,0.33914,1.0022
217.034,27.6523,-0.07359995,0.34012,1.00186
217.734,27.719,-0.07359816,0.34233,1.00152
218.434,27.7855,-0.07492279,0.34346,1.00118
219.134,27.8521,-0.07623619,0.34307,1.00084
219.834,27.9185,-0.07743717,0.34495,1.0005
220.534,27.9852,-0.079149,0.34492,1.00016
221.234,28.0519,-0.08018995,0.34687,0.99982
221.934,28.11845,-0.08018974,0.3471,0.99947
222.634,28.1848,-0.08150625,0.34746,0.99913
223.334,28.25123,-0.08282059,0.35008,0.99878
224.034,28.3178,-0.0855106,0.35032,0.99844
224.734,28.38441,-0.08435335,0.35207,0.99809
225.434,28.4506,-0.08544999,0.35312,0.99774
226.134,28.5173,-0.08588448,0.34953,0.9974
226.834,28.5837,-0.08819471,0.34961,0.99705
227.534,28.6505,-0.08938581,0.34949,0.9967
228.234,28.7171,-0.09070891,0.34905,0.99635
228.934,28.78371,-0.09205602,0.3509,0.996
229.634,28.85033,-0.09205465,0.3517,0.99565
230.334,28.9168,-0.09320415,0.34945,0.9953
231.034,28.9833,-0.09596688,0.35206,0.99495
231.734,29.04992,-0.09861007,0.35301,0.99459
232.434,29.1166,-0.09991228,0.35109,0.99424
233.134,29.1834,-0.10086,0.35339,0.99388
233.834,29.2501,-0.10256,0.35262,0.99353
234.534,29.3165,-0.10388,0.35206,0.99317
235.234,29.3829,-0.10516,0.3519,0.99282
235.934,29.4491,-0.10648,0.3532,0.99246
236.634,29.5157,-0.10773,0.35231,0.9921
237.334,29.58268,-0.1105,0.35423,0.99174
238.034,29.6499,-0.11177,0.35415,0.99138
238.734,29.71695,-0.11415,0.3557,0.99102
239.434,29.78391,-0.11693,0.35721,0.99066
240.134,29.8506,-0.11838,0.35753,0.9903
240.834,29.91735,-0.11814,0.35819,0.98994
241.534,29.98423,-0.12116,0.35929,0.98958
242.234,30.05102,-0.1224,0.36042,0.98922
242.934,30.118,-0.1243,0.36265,0.98885
243.634,30.1847,-0.12736,0.36323,0.98849
244.334,30.2516,-0.12914,0.36084,0.98812
245.034,30.31842,-0.13153,0.36298,0.98776
245.734,30.38512,-0.13389,0.36194,0.98739
246.434,30.4519,-0.13559,0.36545,0.98702
247.134,30.5185,-0.13814,0.36886,0.98665
247.834,30.58502,-0.1401,0.36568,0.98629
248.534,30.6518,-0.14207,0.36748,0.98592
249.234,30.71862,-0.14401,0.3695,0.98555
249.934,30.78557,-0.14702,0.36797,0.98518
250.634,30.85225,-0.14954,0.3695,0.98481
251.334,30.9188,-0.15178,0.37268,0.98443
252.034,30.98534,-0.1545,0.37139,0.98406
252.734,31.05193,-0.15852,0.37484,0.98369
253.434,31.11873,-0.16133,0.37433,0.98331
254.134,31.1856,-0.16308,0.3764,0.98294
254.834,31.25235,-0.165,0.37606,0.98256
255.534,31.3189,-0.16723,0.37504,0.98219
256.234,31.3856,-0.16987,0.37635,0.98181
256.934,31.45255,-0.17302,0.37771,0.98144
257.634,31.5195,-0.17739,0.37614,0.98106
258.334,31.58642,-0.18048,0.37797,0.98068
259.034,31.6532,-0.18217,0.38105,0.9803
259.734,31.71978,-0.18579,0.37916,0.97992
260.434,31.78643,-0.1893,0.3795,0.97954
261.134,31.8534,-0.19244,0.38162,0.97916
261.834,31.9205,-0.19557,0.38149,0.97878
262.534,31.9872,-0.19847,0.38364,0.9784
263.234,32.0542,-0.201,0.38279,0.97801
263.934,32.12106,-0.2049,0.38345,0.97763
264.634,32.18804,-0.20883,0.38418,0.97725
265.334,32.2547,-0.21203,0.38538,0.97686
266.034,32.32148,-0.21511,0.38773,0.97648
266.734,32.3883,-0.21954,0.39133,0.97609
267.434,32.45525,-0.22366,0.38956,0.9757
268.134,32.522,-0.22757,0.38928,0.97532
268.834,32.58879,-0.23098,0.38925,0.97493
269.534,32.6556,-0.23557,0.39071,0.97454
270.234,32.7222,-0.23919,0.39235,0.97415
270.934,32.78901,-0.24501,0.39343,0.97376
271.634,32.85593,-0.24817,0.39298,0.97337
272.334,32.9229,-0.25194,0.39151,0.97298
273.034,32.98975,-0.25566,0.39387,0.97259
273.734,33.0565,-0.26102,0.39448,0.9722
274.434,33.12323,-0.26592,0.39529,0.9718
275.134,33.19008,-0.27181,0.39672,0.97141
275.834,33.25705,-0.27565,0.40102,0.97102
276.534,33.32399,-0.28048,0.40254,0.97062
277.234,33.39034,-0.28563,0.40401,0.97023
277.934,33.45682,-0.29067,0.40288,0.96983
278.634,33.5233,-0.2954,0.40463,0.96943
279.334,33.59021,-0.30056,0.40528,0.96904
280.034,33.65696,-0.30655,0.40599,0.96864
280.734,33.72383,-0.31046,0.40962,0.96824
281.434,33.79074,-0.31664,0.41146,0.96784
282.134,33.85778,-0.32291,0.41207,0.96744
282.834,33.92494,-0.32789,0.41321,0.96704
283.534,33.99199,-0.3346,0.41357,0.96664
284.234,34.0591,-0.33976,0.41312,0.96624
284.934,34.1258,-0.3455,0.41414,0.96584
285.634,34.19256,-0.35156,0.41623,0.96543
286.334,34.25912,-0.35881,0.41598,0.96503
287.034,34.32581,-0.36578,0.42,0.96463
287.734,34.39285,-0.37311,0.42169,0.96422
288.434,34.4597,-0.37883,0.42021,0.96382
289.134,34.5264,-0.38519,0.42334,0.96341
289.834,34.59302,-0.39122,0.42295,0.96301
290.534,34.65968,-0.39955,0.42603,0.9626
291.234,34.72648,-0.40549,0.4272,0.96219
291.934,34.7931,-0.41213,0.42807,0.96178
292.634,34.85975,-0.4192,0.42982,0.96137
293.334,34.92623,-0.42735,0.43227,0.96097
294.034,34.9929,-0.43593,0.43278,0.96056
294.734,35.05965,-0.44321,0.43388,0.96014
295.434,35.12673,-0.45048,0.43776,0.95973
296.134,35.1935,-0.45812,0.44004,0.95932
296.834,35.2605,-0.46556,0.44103,0.95891
297.534,35.32708,-0.47573,0.44529,0.9585
298.234,35.39371,-0.48237,0.44394,0.95808
298.934,35.46038,-0.49089,0.44832,0.95767
299.634,35.52698,-0.49946,0.44929,0.95726
300.334,35.59336,-0.50894,0.45096,0.95684
301.034,35.65975,-0.51898,0.4542,0.95642
301.734,35.72588,-0.52709,0.45826,0.95601
302.434,35.7926,-0.53512,0.46344,0.95559
303.134,35.85917,-0.54504,0.46358,0.95517
303.834,35.92613,-0.55653,0.46545,0.95476
304.534,35.99296,-0.56505,0.46743,0.95434
305.234,36.05976,-0.57473,0.4707,0.95392
305.934,36.12645,-0.58596,0.47199,0.9535
306.634,36.19308,-0.59489,0.47658,0.95308
307.334,36.25962,-0.60543,0.47661,0.95266
308.034,36.32633,-0.61558,0.48027,0.95224
308.734,36.39307,-0.62568,0.48004,0.95181
309.434,36.46,-0.63629,0.48667,0.95139
310.134,36.52695,-0.64946,0.48896,0.95097
310.834,36.59382,-0.66028,0.48974,0.95054
311.534,36.6606,-0.67158,0.49407,0.95012
312.234,36.72745,-0.68346,0.49542,0.94969
312.934,36.79438,-0.69445,0.49564,0.94927
313.634,36.86135,-0.70712,0.50175,0.94884
314.334,36.92788,-0.71935,0.50305,0.94842
315.034,36.9949,-0.73086,0.50703,0.94799
315.734,37.06176,-0.74329,0.51117,0.94756
316.434,37.12924,-0.75699,0.51146,0.94713
317.134,37.1963,-0.76866,0.51425,0.9467
317.834,37.26334,-0.78278,0.51877,0.94628
318.534,37.33031,-0.79804,0.51995,0.94585
319.234,37.39743,-0.80865,0.52301,0.94541
319.934,37.4647,-0.82331,0.52812,0.94498
320.634,37.53184,-0.83829,0.53037,0.94455
321.334,37.59903,-0.85058,0.53407,0.94412
322.034,37.66632,-0.86453,0.53838,0.94369
322.734,37.73365,-0.87988,0.53969,0.94325
323.434,37.8009,-0.89398,0.54462,0.94282
324.134,37.86806,-0.90839,0.54716,0.94239
324.834,37.935,-0.92557,0.54976,0.94195
325.534,38.00222,-0.94026,0.5539,0.94152
326.234,38.06975,-0.95709,0.5575,0.94108
326.934,38.13772,-0.97304,0.56089,0.94064
327.634,38.20521,-0.99004,0.56592,0.94021
328.334,38.2722,-1.00525,0.57048,0.93977
329.034,38.33909,-1.02255,0.57199,0.93933
329.734,38.40623,-1.03833,0.57829,0.93889
330.434,38.47379,-1.05442,0.58149,0.93845
331.134,38.54156,-1.07238,0.58633,0.93801
331.834,38.60895,-1.09177,0.59272,0.93757
332.534,38.6762,-1.10754,0.59287,0.93713
333.234,38.74315,-1.12431,0.59767,0.93669
333.934,38.8104,-1.14557,0.60271,0.93625
334.634,38.87775,-1.16479,0.60548,0.9358
335.334,38.94477,-1.18308,0.61296,0.93536
336.034,39.01218,-1.20322,0.61934,0.93492
336.734,39.07938,-1.22201,0.62389,0.93447
337.434,39.14696,-1.24122,0.62648,0.93403
338.134,39.21419,-1.26213,0.63282,0.93358
338.834,39.28151,-1.2819,0.6374,0.93314
339.534,39.34903,-1.30178,0.64261,0.93269
340.234,39.41624,-1.3238,0.64744,0.93225
340.934,39.48388,-1.34675,0.65255,0.9318
341.634,39.55145,-1.36744,0.65859,0.93135
342.334,39.61925,-1.3888,0.6649,0.9309
343.034,39.68685,-1.4121,0.66883,0.93045
343.734,39.75439,-1.43224,0.67466,0.93
344.434,39.82221,-1.45543,0.68052,0.92955
345.134,39.8898,-1.47947,0.68224,0.9291
345.834,39.95752,-1.50166,0.69253,0.92865
346.534,40.02515,-1.52546,0.69496,0.9282
347.234,40.0928,-1.55076,0.69618,0.92775
347.934,40.1601,-1.57348,0.7025,0.9273
348.634,40.22767,-1.59754,0.70575,0.92685
349.334,40.29541,-1.62184,0.71076,0.92639
350.034,40.36338,-1.64739,0.71327,0.92594
350.734,40.43124,-1.67262,0.71549,0.92548
351.434,40.49906,-1.69733,0.72034,0.92503
352.134,40.56687,-1.72293,0.72072,0.92457
352.834,40.63446,-1.74734,0.72722,0.92412
353.534,40.702,-1.77265,0.72521,0.92366
354.234,40.76962,-1.79936,0.72791,0.9232
354.934,40.83752,-1.82493,0.72289,0.92275
355.634,40.9054,-1.85086,0.72407,0.92229
356.334,40.97323,-1.87759,0.7218,0.92183
357.034,41.04081,-1.90054,0.72052,0.92137
357.734,41.10855,-1.92555,0.71236,0.92091
358.434,41.1764,-1.95079,0.70827,0.92045
359.134,41.2442,-1.97663,0.69922,0.91999
359.834,41.3122,-2.00149,0.69125,0.91953
360.534,41.38,-2.026,0.68083,0.91907
361.234,41.44786,-2.04985,0.66535,0.91861
361.934,41.51546,-2.07134,0.6524,0.91814
362.634,41.58303,-2.09267,0.63772,0.91768
363.334,41.65079,-2.11544,0.62161,0.91722
364.034,41.71844,-2.13577,0.60115,0.91675
364.734,41.78633,-2.15674,0.58417,0.91629
365.434,41.85394,-2.17646,0.56094,0.91582
366.134,41.92175,-2.19508,0.53928,0.91536
366.834,41.98948,-2.2119,0.51304,0.91489
367.534,42.05695,-2.22916,0.48852,0.91443
368.234,42.12442,-2.24482,0.46306,0.91396
368.934,42.19209,-2.26023,0.43512,0.91349
369.634,42.26018,-2.27415,0.40664,0.91302
370.334,42.32808,-2.2874,0.38262,0.91256
371.034,42.39561,-2.29739,0.35722,0.91209
371.734,42.46293,-2.30929,0.3309,0.91162
372.434,42.53038,-2.31814,0.30804,0.91115
373.134,42.59787,-2.32632,0.2866,0.91068
373.834,42.6656,-2.33441,0.26336,0.91021
374.534,42.73385,-2.3414,0.24559,0.90974
375.234,42.80231,-2.34701,0.23003,0.90926
375.934,42.87062,-2.35208,0.21583,0.90879
376.634,42.9386,-2.35777,0.20028,0.90832
377.334,43.0067,-2.36214,0.18918,0.90785
378.034,43.07465,-2.36682,0.18072,0.90737
378.734,43.14245,-2.37074,0.17309,0.9069
379.434,43.21022,-2.37232,0.16724,0.90643
380.134,43.27809,-2.37625,0.16373,0.90595
380.834,43.34613,-2.37879,0.15463,0.90547
381.534,43.41405,-2.38108,0.1519,0.905
382.234,43.482,-2.3842,0.14864,0.90452
382.934,43.55002,-2.38699,0.14639,0.90405
383.634,43.61801,-2.39057,0.14281,0.90357
384.334,43.68612,-2.39268,0.14021,0.90309
385.034,43.75417,-2.39475,0.13631,0.90261
385.734,43.82213,-2.39727,0.13479,0.90213
386.434,43.89015,-2.39851,0.13364,0.90166
387.134,43.95831,-2.40114,0.13241,0.90118
387.834,44.02663,-2.40419,0.12948,0.9007
388.534,44.09499,-2.40671,0.13084,0.90022
389.234,44.16296,-2.40908,0.1298,0.89973
389.934,44.23117,-2.41076,0.12753,0.89925
390.634,44.29913,-2.41198,0.12713,0.89877
391.334,44.3674,-2.41466,0.1256,0.89829
392.034,44.43557,-2.41711,0.12838,0.89781
392.734,44.50336,-2.4187,0.12514,0.89732
393.434,44.57165,-2.42112,0.12052,0.89684
394.134,44.63969,-2.42275,0.11879,0.89636
394.834,44.70836,-2.42541,0.11962,0.89587
395.534,44.7769,-2.42763,0.11817,0.89539
396.234,44.84534,-2.42924,0.11644,0.8949
396.934,44.91385,-2.43172,0.11541,0.89442
397.634,44.9824,-2.43321,0.11324,0.89393
398.334,45.05117,-2.43481,0.11129,0.89344
399.034,45.11943,-2.43706,0.11139,0.89296
399.734,45.18773,-2.43893,0.10999,0.89247
400.434,45.25656,-2.44152,0.10973,0.89198
401.134,45.32578,-2.44412,0.10721,0.89149
401.834,45.3951,-2.44538,0.10588,0.891
402.534,45.464,-2.44669,0.10475,0.89051
403.234,45.5327,-2.44949,0.10529,0.89002
403.934,45.60158,-2.4507,0.10445,0.88953
404.634,45.67051,-2.45338,0.10551,0.88904
405.334,45.73955,-2.45466,0.10649,0.88855
406.034,45.8083,-2.45597,0.10534,0.88806
406.734,45.87693,-2.45797,0.1037,0.88757
407.434,45.9458,-2.46001,0.10137,0.88708
408.134,46.0141,-2.46251,0.10302,0.88658
408.834,46.08255,-2.46427,0.10096,0.88609
409.534,46.1508,-2.46705,0.1023,0.8856
410.234,46.21973,-2.46837,0.09966587,0.8851
410.934,46.2889,-2.4697,0.10336,0.88461
411.634,46.35775,-2.47034,0.10349,0.88411
412.334,46.4265,-2.47237,0.10288,0.88362
413.034,46.49496,-2.47389,0.10217,0.88312
413.734,46.56384,-2.47667,0.1024,0.88263
414.434,46.63243,-2.47865,0.10409,0.88213
415.134,46.7011,-2.4799,0.10217,0.88163
415.834,46.76956,-2.48253,0.10162,0.88114
416.534,46.83826,-2.48384,0.10198,0.88064
417.234,46.9069,-2.48506,0.10259,0.88014
417.934,46.97552,-2.48773,0.10395,0.87964
418.634,47.0441,-2.48912,0.10482,0.87914
419.334,47.11285,-2.49065,0.10326,0.87864
420.034,47.18112,-2.49327,0.10703,0.87814
420.734,47.2498,-2.49458,0.1047,0.87764
421.434,47.31827,-2.49583,0.105,0.87714
422.134,47.38704,-2.49675,0.10736,0.87664
422.834,47.4556,-2.49945,0.11012,0.87614
423.534,47.5244,-2.50119,0.11257,0.87564
424.234,47.59319,-2.50321,0.11033,0.87514
424.934,47.662,-2.50447,0.11145,0.87463
425.634,47.7305,-2.5071,0.11399,0.87413
426.334,47.799,-2.50965,0.11564,0.87363
427.034,47.86738,-2.50973,0.11658,0.87312
427.734,47.936,-2.51096,0.1169,0.87262
428.434,48.00465,-2.5136,0.11662,0.87211
429.134,48.07286,-2.515,0.11763,0.87161
429.834,48.1408,-2.51631,0.11913,0.8711
430.534,48.20928,-2.51834,0.12086,0.8706
431.234,48.27794,-2.52041,0.12248,0.87009
431.934,48.34675,-2.52159,0.12509,0.86958
432.634,48.4153,-2.52531,0.12525,0.86908
433.334,48.48373,-2.52592,0.12583,0.86857
434.034,48.55216,-2.52695,0.12818,0.86806
434.734,48.6206,-2.52897,0.12677,0.86755
435.434,48.689,-2.53024,0.12491,0.86705
436.134,48.75765,-2.53284,0.12741,0.86654
436.834,48.8263,-2.53387,0.12888,0.86603
437.534,48.8951,-2.53563,0.1305,0.86552
438.234,48.9638,-2.53691,0.12911,0.86501
438.934,49.0326,-2.53826,0.13518,0.8645
439.634,49.1013,-2.53824,0.13218,0.86399
440.334,49.16993,-2.53956,0.13139,0.86348
441.034,49.2385,-2.54103,0.13471,0.86296
441.734,49.30717,-2.54481,0.13558,0.86245
442.434,49.37595,-2.54477,0.13346,0.86194
443.134,49.44468,-2.54638,0.13378,0.86143
443.834,49.51334,-2.54746,0.13663,0.86091
444.534,49.58206,-2.54977,0.13734,0.8604
445.234,49.6511,-2.55216,0.13849,0.85989
445.934,49.72002,-2.55404,0.1377,0.85937
446.634,49.7888,-2.55401,0.13878,0.85886
447.334,49.85751,-2.55525,0.14116,0.85834
448.034,49.92623,-2.55667,0.14088,0.85783
448.734,49.99497,-2.55825,0.13835,0.85731
449.434,50.06367,-2.56051,0.14156,0.8568
450.134,50.1324,-2.5606,0.14176,0.85628
450.834,50.2012,-2.56302,0.14238,0.85576
451.534,50.26996,-2.56457,0.14565,0.85525
452.234,50.3389,-2.56588,0.14702,0.85473
452.934,50.40762,-2.5671,0.14731,0.85421
453.634,50.4765,-2.5685,0.14709,0.85369
454.334,50.54529,-2.56984,0.14783,0.85317
455.034,50.6139,-2.57112,0.1519,0.85265
455.734,50.68264,-2.57203,0.14891,0.85214
456.434,50.75148,-2.57257,0.14996,0.85162
457.134,50.82062,-2.5741,0.14882,0.8511
457.834,50.88944,-2.57552,0.15202,0.85058
458.534,50.9585,-2.57685,0.14905,0.85005
459.234,51.02742,-2.57814,0.1506,0.84953
459.934,51.09655,-2.5796,0.14909,0.84901
460.634,51.1653,-2.58092,0.15155,0.84849
461.334,51.2343,-2.58269,0.14698,0.84797
462.034,51.30337,-2.58415,0.15069,0.84745
462.734,51.3724,-2.58512,0.15044,0.84692
463.434,51.44145,-2.58596,0.14704,0.8464
464.134,51.51048,-2.5883,0.14955,0.84588
464.834,51.5796,-2.58991,0.14825,0.84535
465.534,51.6487,-2.58993,0.14722,0.84483
466.234,51.71747,-2.59167,0.14943,0.8443
466.934,51.7864,-2.59218,0.14761,0.84378
467.634,51.85542,-2.59287,0.14623,0.84325
468.334,51.9246,-2.59417,0.14645,0.84273
469.034,51.99333,-2.5955,0.14588,0.8422
469.734,52.06214,-2.59605,0.145,0.84168
470.434,52.13111,-2.5995,0.14612,0.84115
471.134,52.2004,-2.59944,0.14553,0.84062
471.834,52.26937,-2.59976,0.14683,0.8401
472.534,52.3384,-2.60109,0.1452,0.83957
473.234,52.40755,-2.6024,0.14688,0.83904
473.934,52.47665,-2.60286,0.14099,0.83851
474.634,52.5456,-2.60405,0.14164,0.83798
475.334,52.6143,-2.60536,0.1446,0.83745
476.034,52.68329,-2.60669,0.1427,0.83692
476.734,52.7523,-2.60755,0.14067,0.8364
477.434,52.82145,-2.60808,0.1438,0.83587
478.134,52.8905,-2.61064,0.14297,0.83533
478.834,52.95941,-2.61092,0.1404,0.8348
479.534,53.0284,-2.61199,0.13847,0.83427
480.234,53.0972,-2.61196,0.14191,0.83374
480.934,53.1661,-2.61328,0.1412,0.83321
481.634,53.23517,-2.61466,0.14162,0.83268
482.334,53.30415,-2.61638,0.14179,0.83215
483.034,53.37324,-2.61602,0.13987,0.83161
483.734,53.4421,-2.61735,0.13954,0.83108
484.434,53.51118,-2.61735,0.13591,0.83055
485.134,53.57976,-2.61865,0.13858,0.83002
485.834,53.64844,-2.61997,0.13747,0.82948
486.534,53.71711,-2.62128,0.13824,0.82895
487.234,53.78655,-2.6214,0.13641,0.82841
487.934,53.85606,-2.6226,0.13422,0.82788
488.634,53.9254,-2.62393,0.13752,0.82734
489.334,53.99434,-2.6253,0.13501,0.82681
490.034,54.06349,-2.62391,0.13312,0.82627
490.734,54.1326,-2.62522,0.13149,0.82574
491.434,54.20165,-2.62523,0.13143,0.8252
492.134,54.2706,-2.62655,0.13173,0.82466
492.834,54.3397,-2.62786,0.1308,0.82413
493.534,54.40865,-2.62885,0.13312,0.82359
494.234,54.47764,-2.63016,0.13136,0.82305
494.934,54.54629,-2.63152,0.1306,0.82251
495.634,54.6151,-2.63139,0.1298,0.82198
496.334,54.684,-2.63211,0.13144,0.82144
497.034,54.753,-2.63238,0.13074,0.8209
497.734,54.82221,-2.63346,0.12587,0.82036
498.434,54.891,-2.63476,0.12748,0.81982
499.134,54.9595,-2.63478,0.12676,0.81928
499.834,55.028,-2.63608,0.12694,0.81874
500.534,55.09738,-2.63708,0.12886,0.8182
501.234,55.16705,-2.63739,0.12662,0.81766
501.934,55.2365,-2.63872,0.13052,0.81712
502.634,55.30536,-2.63926,0.13363,0.81658
503.334,55.37432,-2.63938,0.13329,0.81604
504.034,55.44331,-2.64067,0.13336,0.8155
504.734,55.5124,-2.64199,0.13679,0.81496
505.434,55.58129,-2.64182,0.13491,0.81441
506.134,55.6502,-2.64179,0.13863,0.81387
506.834,55.71858,-2.64311,0.14376,0.81333
507.534,55.78761,-2.64441,0.14488,0.81278
508.234,55.85665,-2.64442,0.14308,0.81224
508.934,55.92626,-2.64578,0.14764,0.8117
509.634,55.99534,-2.64574,0.14901,0.81115
510.334,56.06425,-2.64827,0.15034,0.81061
511.034,56.13295,-2.64837,0.15322,0.81007
511.734,56.202,-2.64869,0.14994,0.80952
512.434,56.2713,-2.6487,0.15404,0.80898
513.134,56.3411,-2.65089,0.15114,0.80843
513.834,56.4105,-2.65108,0.15041,0.80788
514.534,56.4798,-2.65144,0.15452,0.80734
515.234,56.54843,-2.65145,0.1526,0.80679
515.934,56.61745,-2.65276,0.15203,0.80625
516.634,56.68636,-2.65312,0.15075,0.8057
517.334,56.756,-2.65441,0.15221,0.80515
518.034,56.8254,-2.65539,0.14743,0.80461
518.734,56.8949,-2.65649,0.14534,0.80406
519.434,56.9645,-2.65671,0.14256,0.80351
520.134,57.034,-2.6567,0.14081,0.80296
520.834,57.1038,-2.6577,0.14003,0.80241
521.534,57.1732,-2.65658,0.14059,0.80187
522.234,57.24292,-2.65934,0.13677,0.80132
522.934,57.3124,-2.65935,0.13632,0.80077
523.634,57.38156,-2.66033,0.13393,0.80022
524.334,57.451,-2.65996,0.13269,0.79967
525.034,57.52049,-2.66036,0.13192,0.79912
525.734,57.59039,-2.66065,0.12867,0.79857
526.434,57.6599,-2.66196,0.12459,0.79802
527.134,57.72926,-2.66197,0.11703,0.79747
527.834,57.79865,-2.66362,0.1108,0.79692
528.534,57.86804,-2.66362,0.10793,0.79637
529.234,57.93753,-2.66357,0.10809,0.79581
529.934,58.00696,-2.66493,0.10327,0.79526
530.634,58.07654,-2.66493,0.10505,0.79471
531.334,58.146,-2.66626,0.10135,0.79416
532.034,58.2156,-2.66625,0.10136,0.79361
532.734,58.2852,-2.66629,0.09973901,0.79305
533.434,58.3548,-2.66631,0.09857052,0.7925
534.134,58.42439,-2.66757,0.09467652,0.79195
534.834,58.49391,-2.66757,0.09705429,0.79139
535.534,58.56329,-2.66988,0.09577233,0.79084
536.234,58.6327,-2.66987,0.09469553,0.79029
536.934,58.70215,-2.66987,0.09422914,0.78973
537.634,58.77177,-2.67117,0.09483022,0.78918
538.334,58.841,-2.67118,0.09306476,0.78862
539.034,58.91033,-2.67119,0.09268047,0.78807
539.734,58.9795,-2.67119,0.09120876,0.78751
540.434,59.04914,-2.67252,0.09179625,0.78696
541.134,59.11871,-2.67251,0.08908057,0.7864
541.834,59.1886,-2.67251,0.09144462,0.78585
542.534,59.25813,-2.67374,0.09504789,0.78529
543.234,59.32785,-2.67482,0.09245275,0.78473
543.934,59.39751,-2.67612,0.09119224,0.78418
544.634,59.4674,-2.67482,0.08755326,0.78362
545.334,59.53716,-2.67496,0.08732284,0.78306
546.034,59.60689,-2.67612,0.08705772,0.78251
546.734,59.6767,-2.67744,0.08130019,0.78195
547.434,59.7464,-2.67862,0.08574091,0.78139
548.134,59.8158,-2.68007,0.08647139,0.78083
548.834,59.88539,-2.67867,0.08227309,0.78028
549.534,59.95515,-2.67876,0.08282258,0.77972
550.234,60.0253,-2.68007,0.08164807,0.77916
550.934,60.09482,-2.68007,0.08009188,0.7786
551.634,60.1642,-2.68006,0.08223346,0.77804
552.334,60.23359,-2.68142,0.07836638,0.77748
553.034,60.30325,-2.68152,0.07680566,0.77692
553.734,60.37295,-2.68201,0.07932252,0.77636
554.434,60.44271,-2.68271,0.07836223,0.7758
555.134,60.51236,-2.68401,0.07819715,0.77524
555.834,60.582,-2.6827,0.07803512,0.77468
556.534,60.6516,-2.6827,0.07793408,0.77412
557.234,60.7213,-2.68402,0.07477258,0.77356
557.934,60.7909,-2.68533,0.07505361,0.773
558.634,60.86062,-2.68536,0.07609356,0.77244
559.334,60.93031,-2.68599,0.07615912,0.77188
560.034,61.0001,-2.68699,0.07465288,0.77131
560.734,61.06997,-2.68731,0.0719622,0.77075
561.434,61.13974,-2.68731,0.07074607,0.77019
562.134,61.2095,-2.68702,0.07170359,0.76963
562.834,61.2794,-2.68731,0.06989294,0.76907
563.534,61.3493,-2.68731,0.0686096,0.7685
564.234,61.41921,-2.68863,0.06866012,0.76794
564.934,61.48885,-2.68994,0.06771589,0.76738
565.634,61.5587,-2.69119,0.07003745,0.76681
566.334,61.62851,-2.68994,0.06962147,0.76625
567.034,61.6983,-2.69094,0.06660648,0.76569
567.734,61.76795,-2.69126,0.06542709,0.76512
568.434,61.83809,-2.69127,0.06821363,0.76456
569.134,61.90798,-2.69257,0.06583763,0.76399
569.834,61.9782,-2.69257,0.06552714,0.76343
570.534,62.04812,-2.69257,0.0652183,0.76286
571.234,62.1183,-2.69259,0.06337209,0.7623
571.934,62.1883,-2.69389,0.06642544,0.76173
572.634,62.25826,-2.69389,0.06640924,0.76117
573.334,62.32812,-2.6947,0.06360577,0.7606
574.034,62.39799,-2.69487,0.06494094,0.76004
574.734,62.46775,-2.69564,0.06808076,0.75947
575.434,62.5378,-2.69619,0.06454743,0.7589
576.134,62.60784,-2.69619,0.06519216,0.75834
576.834,62.67796,-2.69755,0.06500853,0.75777
577.534,62.74807,-2.69751,0.06623159,0.7572
578.234,62.818,-2.698,0.06525149,0.75664
578.934,62.88821,-2.69882,0.06565064,0.75607
579.634,62.9582,-2.69882,0.0659466,0.7555
580.334,63.02815,-2.70007,0.06783138,0.75494
581.034,63.09815,-2.70014,0.064115,0.75437
581.734,63.168,-2.70094,0.06631942,0.7538
582.434,63.23806,-2.70125,0.06858154,0.75323
583.134,63.308,-2.70048,0.07011168,0.75266
583.834,63.37775,-2.70151,0.06711443,0.7521
584.534,63.4474,-2.7019,0.06736029,0.75153
585.234,63.51724,-2.70277,0.06772634,0.75096
585.934,63.5875,-2.70277,0.06831806,0.75039
586.634,63.65791,-2.70297,0.07047501,0.74982
587.334,63.72811,-2.70278,0.06990161,0.74925
588.034,63.798,-2.70409,0.06928963,0.74868
588.734,63.86775,-2.70411,0.06991879,0.74811
589.434,63.93766,-2.70475,0.07283252,0.74754
590.134,64.0076,-2.70533,0.07130692,0.74697
590.834,64.07771,-2.70409,0.06945338,0.7464
591.534,64.14785,-2.70543,0.07307262,0.74583
592.234,64.21806,-2.70541,0.07159636,0.74526
592.934,64.2881,-2.70541,0.07192434,0.74469
593.634,64.3579,-2.70541,0.07269086,0.74412
594.334,64.42775,-2.70674,0.07289157,0.74355
595.034,64.49754,-2.70672,0.07445225,0.74298
595.734,64.56752,-2.70672,0.07233386,0.7424
596.434,64.63731,-2.70803,0.07257408,0.74183
597.134,64.7073,-2.70804,0.07406763,0.74126
597.834,64.77718,-2.70936,0.07439919,0.74069
598.534,64.84725,-2.70936,0.07657847,0.74012
599.234,64.9172,-2.70935,0.07971963,0.73955
599.934,64.9872,-2.71034,0.07913677,0.73897
600.634,65.0573,-2.71032,0.07864814,0.7384
601.334,65.12731,-2.70936,0.0763376,0.73783
602.034,65.19735,-2.71068,0.08094122,0.73725
602.734,65.26737,-2.71071,0.08095098,0.73668
603.434,65.3374,-2.71297,0.08252405,0.73611
604.134,65.40738,-2.71187,0.08457417,0.73553
604.834,65.4773,-2.71166,0.084598,0.73496
605.534,65.5474,-2.71166,0.08635033,0.73439
606.234,65.6173,-2.7143,0.08892612,0.73381
606.934,65.68733,-2.71429,0.08336601,0.73324
607.634,65.7573,-2.7143,0.09089022,0.73267
608.334,65.82751,-2.7143,0.08974369,0.73209
609.034,65.89769,-2.71506,0.09030707,0.73152
609.734,65.96786,-2.71561,0.09246475,0.73094
610.434,66.03789,-2.7164,0.0948726,0.73037
611.134,66.10791,-2.71561,0.09872661,0.72979
611.834,66.178,-2.71561,0.10062,0.72922
612.534,66.24804,-2.71561,0.1041,0.72864
613.234,66.31809,-2.71692,0.10406,0.72807
613.934,66.38825,-2.71693,0.10916,0.72749
614.634,66.45841,-2.71718,0.1078,0.72692
615.334,66.52852,-2.71791,0.11077,0.72634
616.034,66.59859,-2.71791,0.11307,0.72576
616.734,66.6686,-2.71824,0.11278,0.72519
617.434,66.73884,-2.71866,0.1149,0.72461
618.134,66.80888,-2.71857,0.11844,0.72404
618.834,66.87911,-2.71916,0.1219,0.72346
619.534,66.94926,-2.71988,0.12299,0.72288
620.234,67.01943,-2.72252,0.1255,0.72231
620.934,67.08962,-2.72252,0.12752,0.72173
621.634,67.15915,-2.72252,0.13304,0.72115
622.334,67.22914,-2.72252,0.13337,0.72058
623.034,67.2991,-2.72252,0.13271,0.72
623.734,67.3697,-2.72383,0.13767,0.71942
624.434,67.43987,-2.72448,0.13994,0.71884
625.134,67.50981,-2.7245,0.14527,0.71827
625.834,67.57986,-2.72581,0.15026,0.71769
626.534,67.64997,-2.72581,0.15036,0.71711
627.234,67.72026,-2.72616,0.15596,0.71653
627.934,67.7904,-2.72713,0.15577,0.71595
628.634,67.86052,-2.72713,0.15851,0.71537
629.334,67.9307,-2.72779,0.16044,0.7148
630.034,68.00092,-2.7291,0.16627,0.71422
630.734,68.07117,-2.7291,0.16796,0.71364
631.434,68.14134,-2.72983,0.17535,0.71306
632.134,68.21171,-2.72909,0.17531,0.71248
632.834,68.28197,-2.72958,0.18039,0.7119
633.534,68.35231,-2.73174,0.18242,0.71132
634.234,68.42264,-2.73272,0.18501,0.71074
634.934,68.49311,-2.73173,0.1876,0.71016
635.634,68.56331,-2.73444,0.19689,0.70959
636.334,68.63335,-2.73437,0.20129,0.70901
637.034,68.70331,-2.73568,0.20274,0.70843
637.734,68.77374,-2.73697,0.2076,0.70785
638.434,68.84404,-2.73696,0.21269,0.70727
639.134,68.91453,-2.73832,0.21584,0.70669
639.834,68.98484,-2.73691,0.21725,0.70611
640.534,69.05545,-2.73974,0.22191,0.70553
641.234,69.1259,-2.74189,0.2233,0.70495
641.934,69.19641,-2.74094,0.22724,0.70436
642.634,69.26688,-2.74226,0.2304,0.70378
643.334,69.33739,-2.74226,0.23155,0.7032
644.034,69.40782,-2.74389,0.23729,0.70262
644.734,69.47828,-2.74384,0.24578,0.70204
645.434,69.5487,-2.74528,0.24847,0.70146
646.134,69.619,-2.74449,0.25346,0.70088
646.834,69.6893,-2.74553,0.25525,0.7003
647.534,69.7596,-2.74688,0.26047,0.69972
648.234,69.83014,-2.74851,0.26335,0.69914
648.934,69.90063,-2.74985,0.27242,0.69855
649.634,69.97122,-2.75115,0.27544,0.69797
650.334,70.04171,-2.75213,0.27666,0.69739
651.034,70.11232,-2.75171,0.28476,0.69681
651.734,70.183,-2.75272,0.28882,0.69623
652.434,70.25362,-2.75506,0.29742,0.69564
653.134,70.32417,-2.75542,0.29947,0.69506
653.834,70.39447,-2.75641,0.30626,0.69448
654.534,70.46483,-2.75769,0.30605,0.6939
655.234,70.53551,-2.75905,0.3158,0.69332
655.934,70.60633,-2.76037,0.32074,0.69273
656.634,70.67702,-2.76102,0.32867,0.69215
657.334,70.74733,-2.76234,0.33057,0.69157
658.034,70.81772,-2.76348,0.33674,0.69098
658.734,70.88797,-2.76497,0.34205,0.6904
659.434,70.95843,-2.76629,0.34759,0.68982
660.134,71.02887,-2.7676,0.34953,0.68924
660.834,71.09943,-2.76892,0.35795,0.68865
661.534,71.16966,-2.77023,0.3634,0.68807
662.234,71.23992,-2.77155,0.37199,0.68749
662.934,71.31053,-2.77286,0.37763,0.6869
663.634,71.38133,-2.77429,0.38604,0.68632
664.334,71.452,-2.77613,0.38866,0.68574
665.034,71.5225,-2.77698,0.39539,0.68515
665.734,71.59305,-2.77844,0.39914,0.68457
666.434,71.66355,-2.78048,0.40831,0.68398
667.134,71.7341,-2.78185,0.41537,0.6834
667.834,71.8048,-2.78449,0.42275,0.68282
668.534,71.87554,-2.7848,0.42958,0.68223
669.234,71.94634,-2.78708,0.43736,0.68165
669.934,72.01714,-2.78845,0.44327,0.68106
670.634,72.08807,-2.78967,0.45184,0.68048
671.334,72.15869,-2.79372,0.45637,0.6799
672.034,72.22927,-2.79633,0.46613,0.67931
672.734,72.29994,-2.79634,0.46884,0.67873
673.434,72.37059,-2.79764,0.4795,0.67814
674.134,72.44108,-2.79895,0.48291,0.67756
674.834,72.5112,-2.80165,0.48924,0.67697
675.534,72.58155,-2.80289,0.49347,0.67639
676.234,72.65154,-2.80534,0.49781,0.6758
676.934,72.72221,-2.80698,0.50431,0.67522
677.634,72.79275,-2.8098,0.51033,0.67463
678.334,72.86367,-2.81141,0.51171,0.67405
679.034,72.93379,-2.81278,0.51915,0.67346
679.734,73.0043,-2.8145,0.52437,0.67288
680.434,73.07485,-2.81669,0.53091,0.67229
681.134,73.1457,-2.81942,0.53425,0.67171
681.834,73.2161,-2.82078,0.53784,0.67112
682.534,73.28663,-2.82338,0.54369,0.67054
683.234,73.35721,-2.82578,0.54522,0.66995
683.934,73.4278,-2.8285,0.5479,0.66937
684.634,73.4982,-2.82981,0.54865,0.66878
685.334,73.5687,-2.83111,0.55295,0.6682
686.034,73.6391,-2.83365,0.55484,0.66761
686.734,73.70949,-2.8355,0.55525,0.66702
687.434,73.7799,-2.8379,0.55664,0.66644
688.134,73.85055,-2.84005,0.55416,0.66585
688.834,73.9213,-2.84242,0.55054,0.66527
689.534,73.99207,-2.84457,0.55359,0.66468
690.234,74.0629,-2.84647,0.55045,0.6641
690.934,74.13367,-2.84794,0.5483,0.66351
691.634,74.2042,-2.85068,0.5469,0.66292
692.334,74.27457,-2.85266,0.54654,0.66234
693.034,74.3451,-2.85399,0.54611,0.66175
693.734,74.41592,-2.85669,0.54505,0.66117
694.434,74.48646,-2.85834,0.5434,0.66058
695.134,74.5569,-2.86278,0.53934,0.65999
695.834,74.62739,-2.86457,0.54042,0.65941
696.534,74.69805,-2.86492,0.537,0.65882
697.234,74.7688,-2.86642,0.53383,0.65823
697.934,74.8392,-2.86833,0.53244,0.65765
698.634,74.9099,-2.86949,0.52667,0.65706
699.334,74.9802,-2.87203,0.52531,0.65647
700.034,75.0513,-2.87349,0.51879,0.65589
700.734,75.1221,-2.87626,0.51148,0.6553
701.434,75.1932,-2.87826,0.50142,0.65471
702.134,75.26382,-2.88034,0.48902,0.65413
702.834,75.33436,-2.88156,0.47923,0.65354
703.534,75.4052,-2.88274,0.46488,0.65295
704.234,75.4759,-2.8843,0.44402,0.65237
704.934,75.5467,-2.88564,0.41652,0.65178
705.634,75.61724,-2.88825,0.38913,0.65119
706.334,75.68786,-2.88949,0.34875,0.65061
707.034,75.75862,-2.89089,0.29433,0.65002
707.734,75.82915,-2.8909,0.22459,0.64943
708.434,75.89978,-2.89152,0.17403,0.64885
709.134,75.97029,-2.89352,0.14246,0.64826
709.834,76.04082,-2.8922,0.126,0.64767
710.534,76.1113,-2.8922,0.11767,0.64709
711.234,76.1819,-2.89225,0.11052,0.6465
711.934,76.25256,-2.89253,0.10567,0.64591
712.634,76.32342,-2.89271,0.10325,0.64532
713.334,76.3942,-2.89352,0.10053,0.64474
714.034,76.46484,-2.89484,0.09635845,0.64415
714.734,76.53563,-2.89484,0.09524573,0.64356
715.434,76.60653,-2.89521,0.09186438,0.64298
716.134,76.67771,-2.89615,0.09302934,0.64239
716.834,76.74855,-2.89615,0.09253252,0.6418
717.534,76.8195,-2.89615,0.09093109,0.64121
718.234,76.89025,-2.89648,0.08358137,0.64063
718.934,76.96127,-2.89648,0.08643607,0.64004
719.634,77.0322,-2.89648,0.08567579,0.63945
720.334,77.1031,-2.89694,0.08182267,0.63887
721.034,77.17396,-2.89747,0.08017834,0.63828
721.734,77.24473,-2.89747,0.07826904,0.63769
722.434,77.3155,-2.89751,0.08403954,0.6371
723.134,77.3864,-2.89746,0.08045641,0.63652
723.834,77.45738,-2.89748,0.0824954,0.63593
724.534,77.5283,-2.89874,0.08237689,0.63534
725.234,77.5993,-2.89878,0.08158106,0.63475
725.934,77.6704,-2.89878,0.0788928,0.63417
726.634,77.74141,-2.89879,0.07542217,0.63358
727.334,77.81218,-2.89891,0.07497826,0.63299
728.034,77.8828,-2.89929,0.07186105,0.63241
728.734,77.95348,-2.8988,0.07344625,0.63182
729.434,78.02399,-2.9001,0.06996654,0.63123
730.134,78.0946,-2.9001,0.07080908,0.63064
730.834,78.16519,-2.90082,0.06625714,0.63006
731.534,78.236,-2.90069,0.06993408,0.62947
732.234,78.3066,-2.90012,0.06959011,0.62888
732.934,78.3772,-2.90045,0.06764087,0.62829
733.634,78.44775,-2.90043,0.06440608,0.62771
734.334,78.51821,-2.90076,0.06496962,0.62712
735.034,78.5886,-2.90207,0.06232071,0.62653
735.734,78.65887,-2.90208,0.06100535,0.62594
736.434,78.72925,-2.90208,0.05661407,0.62536
737.134,78.7996,-2.90176,0.05703506,0.62477
737.834,78.86992,-2.90109,0.05770279,0.62418
738.534,78.94022,-2.9024,0.06024699,0.62359
739.234,79.01055,-2.9024,0.05441477,0.62301
739.934,79.081,-2.90244,0.05423177,0.62242
740.634,79.1515,-2.90339,0.05263673,0.62183
741.334,79.22205,-2.90471,0.05499501,0.62125
742.034,79.2924,-2.90339,0.05607682,0.62066
742.734,79.36265,-2.90339,0.05532036,0.62007
743.434,79.43292,-2.90336,0.05415552,0.61948
744.134,79.50362,-2.9047,0.05384144,0.6189
744.834,79.57423,-2.90469,0.0515838,0.61831
745.534,79.6451,-2.90338,0.05193121,0.61772
746.234,79.71581,-2.90471,0.0561414,0.61713
746.934,79.7868,-2.90471,0.05009947,0.61655
747.634,79.8574,-2.90471,0.04666477,0.61596
748.334,79.92819,-2.90471,0.04581944,0.61537
749.034,79.99883,-2.90472,0.04338487,0.61479
749.734,80.0697,-2.90603,0.04369995,0.6142
750.434,80.1405,-2.90603,0.04458415,0.61361
751.134,80.21137,-2.90603,0.04061162,0.61303
751.834,80.28229,-2.90734,0.03767005,0.61244
752.534,80.3532,-2.90602,0.03756704,0.61185
753.234,80.42408,-2.90602,0.03749496,0.61126
753.934,80.49491,-2.90741,0.04311352,0.61068
754.634,80.56573,-2.90865,0.03759808,0.61009
755.334,80.63655,-2.90734,0.03968892,0.6095
756.034,80.70735,-2.90734,0.03660572,0.60892
756.734,80.7782,-2.90735,0.03493003,0.60833
757.434,80.84883,-2.90796,0.03482367,0.60774
758.134,80.91937,-2.90799,0.03409334,0.60716
758.834,80.99001,-2.908,0.03433005,0.60657
759.534,81.06103,-2.908,0.0260488,0.60598
760.234,81.13243,-2.90732,0.03020531,0.6054
760.934,81.2038,-2.90802,0.0269948,0.60481
761.634,81.27473,-2.908,0.02446258,0.60422
762.334,81.3454,-2.908,0.02899093,0.60364
763.034,81.4162,-2.90802,0.02660144,0.60305
763.734,81.48711,-2.90899,0.0229874,0.60246
764.434,81.55793,-2.90899,0.02368547,0.60188
765.134,81.62898,-2.90932,0.02488212,0.60129
765.834,81.70008,-2.90932,0.02202384,0.6007
766.534,81.77109,-2.91062,0.0239915,0.60012
767.234,81.84187,-2.91063,0.02568567,0.59953
767.934,81.91264,-2.91063,0.028648,0.59894
768.634,81.9834,-2.91063,0.02399852,0.59836
769.334,82.05419,-2.91123,0.02333185,0.59777
770.034,82.12496,-2.91129,0.02472781,0.59719
770.734,82.19593,-2.91129,0.02586493,0.5966
771.434,82.26657,-2.91129,0.02332833,0.59601
772.134,82.3374,-2.91128,0.0289271,0.59543
772.834,82.40827,-2.91261,0.02607257,0.59484
773.534,82.47945,-2.91162,0.02496309,0.59426
774.234,82.55041,-2.91162,0.02497214,0.59367
774.934,82.62132,-2.91162,0.02680798,0.59308
775.634,82.6922,-2.91292,0.02621802,0.5925
776.334,82.76305,-2.91359,0.02751214,0.59191
777.034,82.83346,-2.91343,0.02583161,0.59133
777.734,82.90405,-2.91356,0.03112396,0.59074
778.434,82.97466,-2.91235,0.03088169,0.59016
779.134,83.04562,-2.91284,0.02553601,0.58957
779.834,83.11628,-2.91362,0.02642006,0.58899
780.534,83.18675,-2.91359,0.02590723,0.5884
781.234,83.25757,-2.91359,0.02473535,0.58781
781.934,83.32854,-2.91262,0.02922619,0.58723
782.634,83.39976,-2.91393,0.02950446,0.58664
783.334,83.47071,-2.91393,0.02968621,0.58606
784.034,83.54179,-2.91393,0.03364502,0.58547
784.734,83.6127,-2.91393,0.03273773,0.58489
785.434,83.68361,-2.91524,0.02937412,0.5843
786.134,83.75424,-2.91524,0.0317901,0.58372
786.834,83.82508,-2.91488,0.0296254,0.58313
787.534,83.89579,-2.91491,0.03060512,0.58255
788.234,83.96696,-2.91491,0.0241696,0.58196
788.934,84.038,-2.91491,0.02461541,0.58138
789.634,84.10931,-2.91492,0.0221588,0.5808
790.334,84.18046,-2.91491,0.02178475,0.58021
791.034,84.25147,-2.91491,0.02605782,0.57963
791.734,84.3224,-2.91492,0.02932553,0.57904
792.434,84.39331,-2.91719,0.02741198,0.57846
793.134,84.4644,-2.91721,0.02516908,0.57787
793.834,84.53539,-2.9159,0.0226582,0.57729
794.534,84.6065,-2.91589,0.01873598,0.57671
795.234,84.67775,-2.91589,0.02247266,0.57612
795.934,84.74886,-2.91589,0.02300188,0.57554
796.634,84.8199,-2.91721,0.02368266,0.57495
797.334,84.89105,-2.91649,0.02683807,0.57437
798.034,84.9624,-2.91702,0.02683708,0.57379
798.334,84.99292,-2.91722,0.02766572,0.57354