File: 01_Data/Homasote/STA/N2/10K_min/Homasote_STA_N2_10KData_222104_R3.csv
##Temp./Â°C,Time/min,Mass loss(subtr.2)/mg,DSC(subtr.2)/(mW/mg),Sensit./(uV/mW)
49.698,10.01,-0.02797,0.01727281,1.06052
50.398,10.7714,-0.02723689,0.04548938,1.06037
51.098,10.97458,-0.03049768,0.07145397,1.06023
51.798,11.12552,-0.02823538,0.08819781,1.06008
52.498,11.25357,-0.0312341,0.10332,1.05994
53.198,11.36858,-0.02752238,0.1184,1.05979
53.898,11.47444,-0.02679659,0.1304,1.05964
54.598,11.5734,-0.02975217,0.14158,1.05949
55.298,11.66739,-0.03108575,0.15303,1.05934
55.998,11.75836,-0.03044944,0.16243,1.05919
56.698,11.8463,-0.03030008,0.16982,1.05904
57.398,11.9324,-0.03011899,0.18051,1.05889
58.098,12.01656,-0.02944072,0.18793,1.05873
58.798,12.09892,-0.03004219,0.19507,1.05858
59.498,12.18012,-0.03148864,0.20162,1.05842
60.198,12.26037,-0.0301599,0.20491,1.05827
60.898,12.33969,-0.03025907,0.21041,1.05811
61.598,12.41809,-0.03071492,0.21251,1.05795
62.298,12.49597,-0.03061809,0.21599,1.05779
62.998,12.5735,-0.03090317,0.21558,1.05763
63.698,12.65057,-0.03289351,0.21504,1.05747
64.398,12.7272,-0.0329649,0.21525,1.05731
65.098,12.80301,-0.03423702,0.21378,1.05714
65.798,12.8789,-0.03552659,0.21696,1.05698
66.498,12.95443,-0.03553285,0.218,1.05681
67.198,13.02994,-0.03422168,0.22018,1.05665
67.898,13.1051,-0.03413398,0.22127,1.05648
68.598,13.1803,-0.03421972,0.22134,1.05632
69.298,13.25513,-0.0364989,0.22499,1.05615
69.998,13.3295,-0.03554377,0.22795,1.05598
70.698,13.40378,-0.03833725,0.22856,1.05581
71.398,13.47735,-0.03565367,0.23242,1.05564
72.098,13.5514,-0.03717743,0.23306,1.05546
72.798,13.62517,-0.03758061,0.23565,1.05529
73.498,13.69885,-0.03806149,0.24059,1.05512
74.198,13.77244,-0.03720726,0.24237,1.05494
74.898,13.846,-0.03805349,0.24417,1.05477
75.598,13.91937,-0.03937989,0.24767,1.05459
76.298,13.99216,-0.04069852,0.25004,1.05441
76.998,14.06494,-0.04069973,0.2542,1.05424
77.698,14.13754,-0.04069398,0.25469,1.05406
78.398,14.21026,-0.03970008,0.25909,1.05388
79.098,14.2826,-0.04164908,0.25815,1.0537
79.798,14.3544,-0.0430965,0.25943,1.05351
80.498,14.42617,-0.04289599,0.26327,1.05333
81.198,14.49815,-0.04169003,0.2653,1.05315
81.898,14.5701,-0.04234773,0.26383,1.05296
82.598,14.64206,-0.04299995,0.26873,1.05278
83.298,14.7134,-0.04312235,0.26792,1.05259
83.998,14.7843,-0.04436091,0.27075,1.05241
84.698,14.8552,-0.04432296,0.27023,1.05222
85.398,14.9263,-0.04702115,0.27331,1.05203
86.098,14.9977,-0.04560827,0.27417,1.05184
86.798,15.0685,-0.04695001,0.27593,1.05165
87.498,15.13902,-0.04822453,0.27673,1.05146
88.198,15.20951,-0.04859139,0.2771,1.05126
88.898,15.27979,-0.04815,0.27663,1.05107
89.598,15.35017,-0.04882402,0.27999,1.05088
90.298,15.4202,-0.04947001,0.27934,1.05068
90.998,15.49045,-0.05044427,0.27775,1.05049
91.698,15.5603,-0.04947589,0.28134,1.05029
92.398,15.63042,-0.05049398,0.27918,1.05009
93.098,15.69996,-0.05078999,0.27809,1.04989
93.798,15.76917,-0.04980242,0.27951,1.04969
94.498,15.8385,-0.04981792,0.27827,1.04949
95.198,15.9082,-0.05110992,0.2784,1.04929
95.898,15.9781,-0.05076642,0.27959,1.04909
96.598,16.04745,-0.05212677,0.27836,1.04889
97.298,16.11648,-0.05342043,0.27686,1.04868
97.998,16.1854,-0.05281398,0.27692,1.04848
98.698,16.2546,-0.05308772,0.2736,1.04827
99.398,16.3234,-0.05290698,0.27245,1.04807
100.098,16.39249,-0.05374007,0.27223,1.04786
100.798,16.46119,-0.0537457,0.27202,1.04765
101.498,16.5297,-0.05506002,0.27023,1.04744
102.198,16.59852,-0.05505998,0.26817,1.04723
102.898,16.66734,-0.05643123,0.26918,1.04702
103.598,16.73615,-0.0577071,0.26915,1.04681
104.298,16.80487,-0.05855644,0.26792,1.0466
104.998,16.8732,-0.05901049,0.26831,1.04639
105.698,16.94205,-0.05903056,0.26639,1.04617
106.398,17.01069,-0.05769992,0.26871,1.04596
107.098,17.0795,-0.05901817,0.26893,1.04574
107.798,17.14806,-0.06034956,0.26779,1.04553
108.498,17.2166,-0.06033,0.26918,1.04531
109.198,17.28536,-0.06033,0.26987,1.04509
109.898,17.35388,-0.06033144,0.26995,1.04487
110.598,17.42219,-0.06164846,0.26838,1.04465
111.298,17.49051,-0.0623256,0.27014,1.04443
111.998,17.55878,-0.06163992,0.27113,1.04421
112.698,17.62714,-0.06163649,0.27143,1.04399
113.398,17.69546,-0.0629633,0.27034,1.04376
114.098,17.7637,-0.06305715,0.2682,1.04354
114.798,17.8321,-0.06296658,0.26982,1.04331
115.498,17.90034,-0.06297,0.26731,1.04309
116.198,17.96879,-0.06296668,0.26526,1.04286
116.898,18.03722,-0.0642868,0.26705,1.04263
117.598,18.1056,-0.0629661,0.2641,1.04241
118.298,18.17371,-0.06428341,0.26446,1.04218
118.998,18.2412,-0.06560408,0.26206,1.04195
119.698,18.30919,-0.06428394,0.26024,1.04172
120.398,18.37736,-0.06428,0.25999,1.04148
121.098,18.44598,-0.06427316,0.25881,1.04125
121.798,18.51385,-0.06559051,0.25459,1.04102
122.498,18.582,-0.06559,0.25364,1.04078
123.198,18.65,-0.06559001,0.25263,1.04055
123.898,18.7183,-0.06460674,0.24642,1.04031
124.598,18.78616,-0.06526749,0.2449,1.04008
125.298,18.85405,-0.06429434,0.24291,1.03984
125.998,18.92172,-0.06427999,0.24357,1.0396
126.698,18.98975,-0.06558514,0.24129,1.03936
127.398,19.0576,-0.06560002,0.23972,1.03912
128.098,19.12516,-0.06555176,0.23855,1.03888
128.798,19.1925,-0.06805636,0.2397,1.03864
129.498,19.26004,-0.06822212,0.23879,1.03839
130.198,19.328,-0.06954002,0.23642,1.03815
130.898,19.39614,-0.06952606,0.23667,1.03791
131.598,19.4638,-0.06826968,0.23814,1.03766
132.298,19.53122,-0.06954908,0.23582,1.03742
132.998,19.5987,-0.07085666,0.23559,1.03717
133.698,19.66631,-0.07086,0.23518,1.03692
134.398,19.73432,-0.07090383,0.23465,1.03667
135.098,19.80217,-0.07159244,0.2354,1.03642
135.798,19.87,-0.06932001,0.2362,1.03617
136.498,19.93755,-0.06914771,0.23411,1.03592
137.198,20.00497,-0.06928665,0.23386,1.03567
137.898,20.07255,-0.07085965,0.23385,1.03542
138.598,20.14011,-0.06822964,0.23408,1.03517
139.298,20.20729,-0.06822997,0.23152,1.03491
139.998,20.27479,-0.06963178,0.2321,1.03466
140.698,20.34229,-0.06953829,0.23494,1.0344
141.398,20.41005,-0.07119113,0.23338,1.03414
142.098,20.47756,-0.07219224,0.23261,1.03389
142.798,20.54508,-0.07190973,0.23472,1.03363
143.498,20.61241,-0.07049866,0.23444,1.03337
144.198,20.67965,-0.07053009,0.23415,1.03311
144.898,20.74686,-0.06920744,0.23315,1.03285
145.598,20.81425,-0.07052813,0.23584,1.03259
146.298,20.88178,-0.07062515,0.23427,1.03233
146.998,20.94913,-0.07119004,0.23649,1.03206
147.698,21.01609,-0.07246053,0.23521,1.0318
148.398,21.08308,-0.07255937,0.23664,1.03154
149.098,21.15032,-0.0711799,0.23658,1.03127
149.798,21.21761,-0.06986552,0.23729,1.031
150.498,21.285,-0.07086417,0.23789,1.03074
151.198,21.352,-0.07086,0.23701,1.03047
151.898,21.41893,-0.0708599,0.23803,1.0302
152.598,21.48601,-0.07126943,0.23683,1.02993
153.298,21.55313,-0.07151978,0.24163,1.02966
153.998,21.62041,-0.07152,0.23833,1.02939
154.698,21.68739,-0.07126485,0.2405,1.02912
155.398,21.75453,-0.07118999,0.23918,1.02885
156.098,21.8215,-0.07119,0.23866,1.02857
156.798,21.88832,-0.07119121,0.23979,1.0283
157.498,21.95526,-0.07249785,0.23876,1.02802
158.198,22.02233,-0.07382567,0.24058,1.02775
158.898,22.08974,-0.07186945,0.24187,1.02747
159.598,22.1569,-0.07121586,0.24059,1.02719
160.298,22.22406,-0.07253761,0.24163,1.02692
160.998,22.29124,-0.07314356,0.24321,1.02664
161.698,22.3583,-0.0731605,0.24198,1.02636
162.398,22.42531,-0.07317254,0.24236,1.02608
163.098,22.4923,-0.07250002,0.2431,1.0258
163.798,22.55934,-0.0725,0.24239,1.02551
164.498,22.6265,-0.0725,0.24415,1.02523
165.198,22.69365,-0.07250117,0.24289,1.02495
165.898,22.76089,-0.07516256,0.24256,1.02466
166.598,22.82815,-0.07513466,0.24563,1.02438
167.298,22.89528,-0.07555096,0.24492,1.02409
167.998,22.96198,-0.07517713,0.24467,1.02381
168.698,23.0287,-0.07382008,0.24522,1.02352
169.398,23.0957,-0.07489484,0.24401,1.02323
170.098,23.16282,-0.07414913,0.24705,1.02294
170.798,23.23003,-0.07381996,0.24708,1.02265
171.498,23.29711,-0.0737713,0.24651,1.02236
172.198,23.36436,-0.07513027,0.24644,1.02207
172.898,23.43132,-0.07513,0.24925,1.02178
173.598,23.49819,-0.07513,0.24799,1.02149
174.298,23.56511,-0.07508095,0.25011,1.02119
174.998,23.63208,-0.07644872,0.24922,1.0209
175.698,23.69874,-0.07776694,0.25118,1.0206
176.398,23.7655,-0.07712673,0.2532,1.02031
177.098,23.83248,-0.07711251,0.25072,1.02001
177.798,23.89955,-0.07644884,0.25222,1.01971
178.498,23.96669,-0.07829035,0.25133,1.01942
179.198,24.03335,-0.07661885,0.25298,1.01912
179.898,24.10033,-0.07535037,0.25244,1.01882
180.598,24.1673,-0.07535347,0.25355,1.01852
181.298,24.23457,-0.07670991,0.2536,1.01822
181.998,24.30143,-0.07667001,0.2536,1.01791
182.698,24.36831,-0.07798055,0.25516,1.01761
183.398,24.43519,-0.07928768,0.25439,1.01731
184.098,24.50188,-0.0793,0.25439,1.017
184.798,24.5686,-0.07929968,0.25437,1.0167
185.498,24.6354,-0.08061949,0.25523,1.01639
186.198,24.70212,-0.08193043,0.25529,1.01609
186.898,24.76889,-0.08193,0.25601,1.01578
187.598,24.83555,-0.08194881,0.25862,1.01547
188.298,24.90245,-0.08259033,0.25746,1.01516
188.998,24.96923,-0.08259265,0.25779,1.01485
189.698,25.0362,-0.0799804,0.25842,1.01454
190.398,25.10294,-0.07997,0.25724,1.01423
191.098,25.16982,-0.07997011,0.25866,1.01392
191.798,25.23653,-0.08127085,0.26056,1.01361
192.498,25.30331,-0.08224414,0.26223,1.0133
193.198,25.37003,-0.08259004,0.26137,1.01298
193.898,25.43685,-0.08364947,0.26402,1.01267
194.598,25.50339,-0.08528126,0.26272,1.01235
195.298,25.57017,-0.08522981,0.26463,1.01204
195.998,25.63691,-0.08653877,0.26449,1.01172
196.698,25.7036,-0.08653495,0.26608,1.0114
197.398,25.77045,-0.08888621,0.26685,1.01108
198.098,25.83717,-0.08918,0.26613,1.01076
198.798,25.90408,-0.08917844,0.26618,1.01044
199.498,25.97082,-0.08786079,0.26766,1.01012
200.198,26.03748,-0.08789211,0.26681,1.0098
200.898,26.10414,-0.08753005,0.26983,1.00948
201.598,26.1709,-0.08753438,0.26833,1.00916
202.298,26.2375,-0.08887348,0.27074,1.00883
202.998,26.30433,-0.09015987,0.27045,1.00851
203.698,26.37145,-0.09015807,0.27111,1.00819
204.398,26.4384,-0.09147679,0.27286,1.00786
205.098,26.50517,-0.09280345,0.27374,1.00753
205.798,26.57177,-0.09278835,0.27407,1.00721
206.498,26.6386,-0.09476938,0.27386,1.00688
207.198,26.70563,-0.09482162,0.27603,1.00655
207.898,26.77263,-0.09344976,0.27565,1.00622
208.598,26.83969,-0.0937544,0.27715,1.00589
209.298,26.90662,-0.09580525,0.27609,1.00556
209.998,26.97349,-0.09609003,0.2771,1.00523
210.698,27.04035,-0.09609009,0.27645,1.0049
211.398,27.10698,-0.09858765,0.2787,1.00457
212.098,27.17375,-0.09872002,0.27913,1.00423
212.798,27.2402,-0.09872,0.28105,1.0039
213.498,27.3071,-0.09867071,0.27765,1.00356
214.198,27.37394,-0.10003,0.28153,1.00323
214.898,27.4411,-0.10134,0.28032,1.00289
215.598,27.50783,-0.10135,0.27924,1.00255
216.298,27.57433,-0.1031,0.28257,1.00222
216.998,27.64092,-0.1054,0.28238,1.00188
217.698,27.7077,-0.10541,0.28339,1.00154
218.398,27.7747,-0.10584,0.28497,1.0012
219.098,27.8416,-0.10884,0.28895,1.00086
219.798,27.90823,-0.10986,0.28853,1.00052
220.498,27.97502,-0.11067,0.2868,1.00018
221.198,28.0412,-0.11067,0.28686,0.99983
221.898,28.1078,-0.11331,0.29093,0.99949
222.598,28.1745,-0.11462,0.29009,0.99915
223.298,28.24157,-0.11462,0.29206,0.9988
223.998,28.3087,-0.11596,0.29064,0.99846
224.698,28.3754,-0.11735,0.29116,0.99811
225.398,28.44223,-0.11726,0.29078,0.99776
226.098,28.509,-0.11726,0.29145,0.99741
226.798,28.5757,-0.11858,0.28918,0.99707
227.498,28.6423,-0.11857,0.28936,0.99672
228.198,28.7089,-0.1214,0.28985,0.99637
228.898,28.77543,-0.12456,0.2891,0.99602
229.598,28.84205,-0.12779,0.29006,0.99567
230.298,28.909,-0.12998,0.29032,0.99532
230.998,28.9759,-0.13265,0.28949,0.99496
231.698,29.0428,-0.13261,0.29101,0.99461
232.398,29.10935,-0.13196,0.29074,0.99426
233.098,29.17558,-0.13327,0.29361,0.9939
233.798,29.2421,-0.13459,0.29364,0.99355
234.498,29.3088,-0.13592,0.29296,0.99319
235.198,29.3759,-0.1372,0.29348,0.99284
235.898,29.44244,-0.13874,0.29129,0.99248
236.598,29.5092,-0.14248,0.29446,0.99212
237.298,29.5759,-0.14152,0.29465,0.99176
237.998,29.64263,-0.1425,0.29795,0.9914
238.698,29.70924,-0.14655,0.29673,0.99104
239.398,29.776,-0.14935,0.29655,0.99068
240.098,29.8426,-0.15076,0.2978,0.99032
240.798,29.90942,-0.152,0.29745,0.98996
241.498,29.97597,-0.15475,0.29782,0.9896
242.198,30.0428,-0.15888,0.30086,0.98923
242.898,30.10952,-0.1612,0.30098,0.98887
243.598,30.17652,-0.16342,0.30093,0.98851
244.298,30.24277,-0.16476,0.30378,0.98814
244.998,30.3095,-0.16856,0.3012,0.98777
245.698,30.3762,-0.16988,0.30164,0.98741
246.398,30.4434,-0.17284,0.30139,0.98704
247.098,30.51055,-0.17417,0.30438,0.98667
247.798,30.5774,-0.17709,0.30074,0.9863
248.498,30.6441,-0.18001,0.3048,0.98594
249.198,30.7108,-0.18279,0.30728,0.98557
249.898,30.7775,-0.18543,0.30533,0.9852
250.598,30.84433,-0.18781,0.30552,0.98482
251.298,30.9112,-0.18921,0.30569,0.98445
251.998,30.9781,-0.19195,0.30588,0.98408
252.698,31.04529,-0.1949,0.30623,0.98371
253.398,31.11194,-0.19637,0.30737,0.98333
254.098,31.179,-0.19932,0.3061,0.98296
254.798,31.24568,-0.20254,0.30591,0.98258
255.498,31.3128,-0.20665,0.30661,0.98221
256.198,31.3797,-0.2094,0.30494,0.98183
256.898,31.4467,-0.21116,0.30575,0.98146
257.598,31.51365,-0.21405,0.30608,0.98108
258.298,31.5805,-0.21811,0.30551,0.9807
258.998,31.64718,-0.21947,0.30587,0.98032
259.698,31.7142,-0.22229,0.30469,0.97994
260.398,31.78101,-0.22673,0.30841,0.97956
261.098,31.8481,-0.23111,0.30631,0.97918
261.798,31.9149,-0.23426,0.30837,0.9788
262.498,31.9818,-0.23884,0.31015,0.97842
263.198,32.04858,-0.24163,0.31239,0.97803
263.898,32.11501,-0.24475,0.30987,0.97765
264.598,32.18197,-0.24856,0.31312,0.97727
265.298,32.24876,-0.25255,0.31283,0.97688
265.998,32.31625,-0.25563,0.31373,0.9765
266.698,32.3831,-0.26123,0.31405,0.97611
267.398,32.45003,-0.26522,0.31509,0.97572
268.098,32.51706,-0.26849,0.31669,0.97534
268.798,32.5839,-0.27207,0.31848,0.97495
269.498,32.6507,-0.27592,0.31872,0.97456
270.198,32.71761,-0.28119,0.31789,0.97417
270.898,32.78439,-0.28429,0.31812,0.97378
271.598,32.8513,-0.28875,0.32214,0.97339
272.298,32.91813,-0.29393,0.32056,0.973
272.998,32.98495,-0.29887,0.3183,0.97261
273.698,33.05182,-0.30356,0.32216,0.97222
274.398,33.11854,-0.30742,0.32174,0.97182
275.098,33.18566,-0.31273,0.31965,0.97143
275.798,33.2526,-0.31664,0.32433,0.97104
276.498,33.31955,-0.32275,0.32573,0.97064
277.198,33.3864,-0.32955,0.32581,0.97025
277.898,33.45325,-0.33388,0.32625,0.96985
278.598,33.52016,-0.33916,0.32551,0.96945
279.298,33.58717,-0.34491,0.32564,0.96906
279.998,33.6543,-0.3494,0.32846,0.96866
280.698,33.72132,-0.35579,0.32884,0.96826
281.398,33.78825,-0.3612,0.32999,0.96786
282.098,33.85515,-0.36694,0.33203,0.96746
282.798,33.92214,-0.37236,0.33053,0.96706
283.498,33.98922,-0.3768,0.33209,0.96666
284.198,34.05635,-0.38286,0.33456,0.96626
284.898,34.12332,-0.38965,0.33794,0.96586
285.598,34.19023,-0.39677,0.33689,0.96545
286.298,34.25724,-0.40433,0.33939,0.96505
286.998,34.32419,-0.41043,0.34202,0.96465
287.698,34.3913,-0.4161,0.34191,0.96424
288.398,34.4583,-0.42374,0.3432,0.96384
289.098,34.52505,-0.43115,0.34417,0.96343
289.798,34.59183,-0.43919,0.34521,0.96303
290.498,34.65879,-0.44611,0.34567,0.96262
291.198,34.72594,-0.45206,0.34912,0.96221
291.898,34.79309,-0.45879,0.349,0.9618
292.598,34.86003,-0.46683,0.35161,0.9614
293.298,34.92713,-0.47425,0.35253,0.96099
293.998,34.9942,-0.48349,0.35389,0.96058
294.698,35.0612,-0.49143,0.35803,0.96017
295.398,35.12818,-0.49881,0.35921,0.95976
296.098,35.19495,-0.5069,0.35927,0.95934
296.798,35.26181,-0.51584,0.36262,0.95893
297.498,35.32901,-0.52472,0.36596,0.95852
298.198,35.39611,-0.53199,0.36728,0.95811
298.898,35.46354,-0.54131,0.36886,0.95769
299.598,35.5306,-0.55084,0.37028,0.95728
300.298,35.59789,-0.56109,0.37131,0.95686
300.998,35.66505,-0.56972,0.3726,0.95645
301.698,35.7322,-0.57806,0.37804,0.95603
302.398,35.79935,-0.58819,0.37803,0.95561
303.098,35.86629,-0.59883,0.38235,0.9552
303.798,35.9335,-0.60761,0.38344,0.95478
304.498,36.00051,-0.6154,0.38359,0.95436
305.198,36.0678,-0.62627,0.3873,0.95394
305.898,36.1349,-0.63728,0.38904,0.95352
306.598,36.20187,-0.64886,0.39324,0.9531
307.298,36.26896,-0.66091,0.39625,0.95268
307.998,36.33603,-0.67122,0.39866,0.95226
308.698,36.40345,-0.68252,0.40109,0.95184
309.398,36.4707,-0.69398,0.40128,0.95141
310.098,36.53788,-0.70522,0.40458,0.95099
310.798,36.60487,-0.71607,0.40597,0.95057
311.498,36.67188,-0.72773,0.41248,0.95014
312.198,36.73916,-0.74097,0.41538,0.94972
312.898,36.80638,-0.75182,0.41653,0.94929
313.598,36.8735,-0.76523,0.4195,0.94886
314.298,36.94066,-0.77658,0.42372,0.94844
314.998,37.00772,-0.78814,0.42774,0.94801
315.698,37.07497,-0.80133,0.42956,0.94758
316.398,37.14225,-0.8151,0.43331,0.94716
317.098,37.2093,-0.82806,0.43675,0.94673
317.798,37.27659,-0.84059,0.43917,0.9463
318.498,37.34408,-0.8553,0.44224,0.94587
319.198,37.4116,-0.86844,0.44444,0.94544
319.898,37.47894,-0.88369,0.44691,0.94501
320.598,37.54607,-0.89946,0.45099,0.94457
321.298,37.6135,-0.91272,0.45318,0.94414
321.998,37.68081,-0.9277,0.45665,0.94371
322.698,37.7483,-0.94249,0.46143,0.94328
323.398,37.81584,-0.95932,0.46495,0.94284
324.098,37.88282,-0.97465,0.46901,0.94241
324.798,37.95024,-0.99041,0.46993,0.94197
325.498,38.01758,-1.00516,0.47276,0.94154
326.198,38.08562,-1.02115,0.47817,0.9411
326.898,38.1533,-1.03789,0.48082,0.94067
327.598,38.2208,-1.05443,0.48335,0.94023
328.298,38.28795,-1.07177,0.48867,0.93979
328.998,38.3554,-1.0897,0.49454,0.93935
329.698,38.42276,-1.10568,0.49691,0.93891
330.398,38.4906,-1.12455,0.49974,0.93847
331.098,38.55814,-1.14436,0.50526,0.93803
331.798,38.6258,-1.16437,0.51175,0.93759
332.498,38.69294,-1.18083,0.51262,0.93715
333.198,38.7604,-1.19796,0.51795,0.93671
333.898,38.82785,-1.21843,0.52365,0.93627
334.598,38.89548,-1.23782,0.52927,0.93583
335.298,38.96306,-1.25515,0.52991,0.93538
335.998,39.03046,-1.27599,0.53712,0.93494
336.698,39.09816,-1.29522,0.54106,0.9345
337.398,39.16565,-1.3172,0.54618,0.93405
338.098,39.2332,-1.33903,0.5509,0.93361
338.798,39.30063,-1.35978,0.5555,0.93316
339.498,39.3682,-1.37753,0.56221,0.93272
340.198,39.4355,-1.39975,0.56633,0.93227
340.898,39.50298,-1.42117,0.57062,0.93182
341.598,39.5704,-1.44348,0.57777,0.93137
342.298,39.638,-1.4661,0.58111,0.93093
342.998,39.70583,-1.48634,0.58705,0.93048
343.698,39.77322,-1.50997,0.59079,0.93003
344.398,39.84066,-1.53491,0.59809,0.92958
345.098,39.90803,-1.55954,0.60434,0.92913
345.798,39.97553,-1.58313,0.60745,0.92868
346.498,40.04316,-1.60605,0.61209,0.92823
347.198,40.11074,-1.63142,0.61617,0.92777
347.898,40.17837,-1.65651,0.62338,0.92732
348.598,40.24595,-1.68207,0.62589,0.92687
349.298,40.31342,-1.70705,0.62775,0.92641
349.998,40.38105,-1.73137,0.63127,0.92596
350.698,40.44859,-1.75636,0.63539,0.92551
351.398,40.5162,-1.78251,0.6367,0.92505
352.098,40.5837,-1.80863,0.63955,0.9246
352.798,40.65136,-1.83488,0.64202,0.92414
353.498,40.71901,-1.85964,0.64129,0.92368
354.198,40.78658,-1.88613,0.64371,0.92323
354.898,40.85415,-1.91125,0.64451,0.92277
355.598,40.92168,-1.93984,0.64183,0.92231
356.298,40.9893,-1.96772,0.64037,0.92185
356.998,41.05683,-1.99303,0.63643,0.92139
357.698,41.12442,-2.01709,0.63232,0.92093
358.398,41.19194,-2.04509,0.62732,0.92047
359.098,41.25979,-2.07067,0.62155,0.92001
359.798,41.32761,-2.09356,0.61036,0.91955
360.498,41.39536,-2.12159,0.60159,0.91909
361.198,41.46305,-2.14474,0.58885,0.91863
361.898,41.5306,-2.16917,0.57525,0.91817
362.598,41.59816,-2.19287,0.56091,0.9177
363.298,41.66551,-2.21351,0.54335,0.91724
363.998,41.7332,-2.23629,0.52182,0.91678
364.698,41.80079,-2.25701,0.50052,0.91631
365.398,41.8688,-2.27794,0.4784,0.91585
366.098,41.9364,-2.29802,0.45363,0.91538
366.798,42.00407,-2.31606,0.43017,0.91492
367.498,42.07156,-2.33436,0.40527,0.91445
368.198,42.1392,-2.34905,0.37705,0.91398
368.898,42.20686,-2.36382,0.34949,0.91352
369.598,42.27453,-2.37837,0.32245,0.91305
370.298,42.34213,-2.39186,0.29523,0.91258
370.998,42.40963,-2.40512,0.26998,0.91211
371.698,42.47718,-2.41687,0.24341,0.91164
372.398,42.5443,-2.42531,0.21838,0.91117
373.098,42.61143,-2.43378,0.19315,0.9107
373.798,42.679,-2.44378,0.17355,0.91023
374.498,42.74686,-2.4495,0.15414,0.90976
375.198,42.8148,-2.45593,0.13372,0.90929
375.898,42.88244,-2.46092,0.11799,0.90882
376.598,42.9499,-2.46641,0.10417,0.90834
377.298,43.01761,-2.47203,0.09001581,0.90787
377.998,43.08521,-2.47508,0.07648566,0.9074
378.698,43.15276,-2.4793,0.0690109,0.90692
379.398,43.21987,-2.48362,0.06002586,0.90645
380.098,43.2874,-2.48691,0.05574922,0.90597
380.798,43.35518,-2.48928,0.04886913,0.9055
381.498,43.4236,-2.49223,0.04280413,0.90502
382.198,43.4916,-2.49556,0.0388908,0.90455
382.898,43.5595,-2.49841,0.03428737,0.90407
383.598,43.6273,-2.50058,0.03015918,0.90359
384.298,43.69513,-2.5026,0.02908836,0.90312
384.998,43.76308,-2.50566,0.02762227,0.90264
385.698,43.83084,-2.50887,0.02452348,0.90216
386.398,43.8986,-2.51016,0.02060626,0.90168
387.098,43.96654,-2.5108,0.02058166,0.9012
387.798,44.03451,-2.51171,0.01695293,0.90072
388.498,44.10233,-2.51427,0.01686984,0.90024
389.198,44.17021,-2.51555,0.01446415,0.89976
389.898,44.23814,-2.51554,0.01241544,0.89928
390.598,44.30617,-2.51814,0.0123308,0.8988
391.298,44.37406,-2.51952,0.01071492,0.89831
391.998,44.44198,-2.52261,0.008961255,0.89783
392.698,44.51003,-2.52728,0.00842623,0.89735
393.398,44.5781,-2.53004,0.00813928,0.89686
394.098,44.64626,-2.53095,0.006805845,0.89638
394.798,44.7145,-2.53276,0.00576042,0.8959
395.498,44.78253,-2.5352,0.007472975,0.89541
396.198,44.8506,-2.53606,0.00355489,0.89493
396.898,44.9189,-2.53827,0.00238638,0.89444
397.598,44.98695,-2.54067,0.002359833,0.89395
398.298,45.05525,-2.54136,0.000647649,0.89347
398.998,45.12356,-2.54295,-0.0002728975,0.89298
399.698,45.19197,-2.54482,-0.00162145,0.89249
400.398,45.26027,-2.54616,-0.001246605,0.892
401.098,45.32841,-2.54878,-0.0007636566,0.89152
401.798,45.39685,-2.5512,-0.00388957,0.89103
402.498,45.46523,-2.55413,-0.0007659848,0.89054
403.198,45.53372,-2.55419,-0.002922176,0.89005
403.898,45.60201,-2.55548,-0.004584259,0.88956
404.598,45.67034,-2.5568,-0.00487442,0.88907
405.298,45.7387,-2.55967,-0.004725432,0.88858
405.998,45.80706,-2.5627,-0.00623648,0.88809
406.698,45.87543,-2.56551,-0.00661599,0.88759
407.398,45.9439,-2.56728,-0.00820839,0.8871
408.098,46.01243,-2.56756,-0.0078579,0.88661
408.798,46.0807,-2.56869,-0.006171332,0.88612
409.498,46.149,-2.57055,-0.008544267,0.88562
410.198,46.2171,-2.57292,-0.00877033,0.88513
410.898,46.28555,-2.57651,-0.007369523,0.88463
411.598,46.3538,-2.57554,-0.00693247,0.88414
412.298,46.42217,-2.57689,-0.006754682,0.88364
412.998,46.48972,-2.57721,-0.008310307,0.88315
413.698,46.55773,-2.57956,-0.00704901,0.88265
414.398,46.62601,-2.58341,-0.00876498,0.88216
415.098,46.6949,-2.58501,-0.008551646,0.88166
415.798,46.76356,-2.58794,-0.00983661,0.88116
416.498,46.83189,-2.58925,-0.005127298,0.88066
417.198,46.90027,-2.5921,-0.00561377,0.88017
417.898,46.96849,-2.59213,-0.008069344,0.87967
418.598,47.03694,-2.59234,-0.004533692,0.87917
419.298,47.10528,-2.59503,-0.006789405,0.87867
419.998,47.1738,-2.5964,-0.00556728,0.87817
420.698,47.24218,-2.59771,-0.006676235,0.87767
421.398,47.31066,-2.59901,-0.002948065,0.87717
422.098,47.37905,-2.60172,-0.004038882,0.87667
422.798,47.4473,-2.60438,-0.00284323,0.87617
423.498,47.5156,-2.60686,0.0006120715,0.87566
424.198,47.58398,-2.60845,0.000455745,0.87516
424.898,47.65252,-2.60733,-0.001570008,0.87466
425.598,47.72103,-2.60953,0.001402906,0.87416
426.298,47.78945,-2.61141,0.00101534,0.87365
426.998,47.85781,-2.61291,0.00174556,0.87315
427.698,47.92557,-2.61543,0.002972094,0.87264
428.398,47.99386,-2.61712,0.002237844,0.87214
429.098,48.0622,-2.61962,0.00355897,0.87163
429.798,48.131,-2.62095,0.00528813,0.87113
430.498,48.19961,-2.62226,0.00462565,0.87062
431.198,48.26818,-2.62493,0.008018997,0.87012
431.898,48.33675,-2.62623,0.00655781,0.86961
432.598,48.40527,-2.62755,0.007637827,0.8691
433.298,48.47337,-2.63077,0.00810547,0.8686
433.998,48.5419,-2.63251,0.00677519,0.86809
434.698,48.61045,-2.63378,0.01005734,0.86758
435.398,48.67925,-2.63374,0.00927326,0.86707
436.098,48.74771,-2.63459,0.01139149,0.86656
436.798,48.81629,-2.63673,0.01289498,0.86605
437.498,48.88497,-2.6397,0.01369027,0.86554
438.198,48.95362,-2.64106,0.01555986,0.86503
438.898,49.0223,-2.64349,0.01622834,0.86452
439.598,49.09085,-2.64498,0.01666006,0.86401
440.298,49.15965,-2.6456,0.01684844,0.8635
440.998,49.22841,-2.64629,0.01535505,0.86299
441.698,49.29738,-2.64908,0.01777227,0.86248
442.398,49.36589,-2.65035,0.01908753,0.86197
443.098,49.4345,-2.65207,0.02176523,0.86145
443.798,49.50314,-2.65312,0.02131102,0.86094
444.498,49.57199,-2.65543,0.02212453,0.86043
445.198,49.64077,-2.65565,0.02397033,0.85991
445.898,49.7094,-2.65694,0.01965913,0.8594
446.598,49.7781,-2.65847,0.02281137,0.85888
447.298,49.84702,-2.66056,0.02181796,0.85837
447.998,49.9159,-2.6621,0.02383982,0.85785
448.698,49.98464,-2.66486,0.02376829,0.85734
449.398,50.0533,-2.66742,0.0232571,0.85682
450.098,50.12211,-2.6701,0.02439056,0.85631
450.798,50.1909,-2.67145,0.02316776,0.85579
451.498,50.25992,-2.67173,0.02451233,0.85527
452.198,50.32868,-2.67272,0.02585826,0.85475
452.898,50.3971,-2.67269,0.02696962,0.85424
453.598,50.46566,-2.67639,0.02498921,0.85372
454.298,50.5346,-2.67644,0.02723679,0.8532
454.998,50.60382,-2.67781,0.02510651,0.85268
455.698,50.6728,-2.68062,0.02723904,0.85216
456.398,50.74108,-2.6818,0.02686295,0.85164
457.098,50.80973,-2.68273,0.02681013,0.85112
457.798,50.87838,-2.68371,0.026081,0.8506
458.498,50.94745,-2.6837,0.02635818,0.85008
459.198,51.01636,-2.68532,0.02566991,0.84956
459.898,51.0852,-2.68621,0.02738508,0.84904
460.598,51.15402,-2.68901,0.02631205,0.84852
461.298,51.22293,-2.68763,0.02526567,0.84799
461.998,51.2917,-2.68896,0.02612273,0.84747
462.698,51.36038,-2.6903,0.02964135,0.84695
463.398,51.4291,-2.69436,0.02653476,0.84643
464.098,51.49799,-2.69769,0.02449767,0.8459
464.798,51.56681,-2.69788,0.02677082,0.84538
465.498,51.6357,-2.69894,0.02829547,0.84486
466.198,51.70469,-2.69894,0.02509688,0.84433
466.898,51.7737,-2.69894,0.02612102,0.84381
467.598,51.84261,-2.70157,0.02514193,0.84328
468.298,51.91134,-2.70291,0.02518344,0.84276
468.998,51.97995,-2.70288,0.02399703,0.84223
469.698,52.0488,-2.70422,0.02309142,0.8417
470.398,52.11783,-2.70551,0.02116197,0.84118
471.098,52.18707,-2.70791,0.02312663,0.84065
471.798,52.25611,-2.70951,0.02273582,0.84012
472.498,52.32503,-2.70842,0.02177304,0.83959
473.198,52.39392,-2.71166,0.02008752,0.83907
473.898,52.46281,-2.71326,0.01752829,0.83854
474.598,52.53175,-2.71341,0.01715226,0.83801
475.298,52.6006,-2.71442,0.01793271,0.83748
475.998,52.6697,-2.71603,0.01702565,0.83695
476.698,52.7386,-2.71737,0.01652377,0.83642
477.398,52.80761,-2.71753,0.01732908,0.83589
478.098,52.87645,-2.71736,0.01389536,0.83536
478.798,52.94546,-2.71868,0.01398244,0.83483
479.498,53.01446,-2.71991,0.01334632,0.8343
480.198,53.0835,-2.72267,0.01339388,0.83377
480.898,53.15276,-2.72382,0.01389524,0.83324
481.598,53.22205,-2.72395,0.01485727,0.83271
482.298,53.2913,-2.72527,0.01354331,0.83217
482.998,53.3606,-2.72526,0.01298438,0.83164
483.698,53.4296,-2.72659,0.00871518,0.83111
484.398,53.49879,-2.7268,0.01223838,0.83058
485.098,53.5676,-2.72707,0.009899509,0.83004
485.798,53.63684,-2.72578,0.01240436,0.82951
486.498,53.7059,-2.7299,0.009431379,0.82897
487.198,53.775,-2.72986,0.006621876,0.82844
487.898,53.8441,-2.73119,0.00562365,0.82791
488.598,53.9124,-2.72987,0.00345149,0.82737
489.298,53.98157,-2.7313,0.00664819,0.82684
489.998,54.05081,-2.73421,0.004572227,0.8263
490.698,54.12084,-2.73453,0.001656312,0.82576
491.398,54.1897,-2.7358,0.00180281,0.82523
492.098,54.25886,-2.73711,0.003137407,0.82469
492.798,54.328,-2.7371,0.003658335,0.82415
493.498,54.39761,-2.73799,0.002106758,0.82362
494.198,54.4669,-2.74035,0.001219813,0.82308
494.898,54.53625,-2.74029,-0.0002660557,0.82254
495.598,54.6055,-2.74029,-9.384395e-05,0.822
496.298,54.67471,-2.74029,-0.001622526,0.82147
496.998,54.7438,-2.74029,-0.00247056,0.82093
497.698,54.8133,-2.74116,-0.002634433,0.82039
498.398,54.8826,-2.74264,-0.00553114,0.81985
499.098,54.95199,-2.74256,-0.003495334,0.81931
499.798,55.02125,-2.74457,-0.00456877,0.81877
500.498,55.0906,-2.7449,-0.00384768,0.81823
501.198,55.1601,-2.7449,-0.006464593,0.81769
501.898,55.2295,-2.7449,-0.004028707,0.81715
502.598,55.29886,-2.74578,-0.004812239,0.81661
503.298,55.36804,-2.74656,-0.000459501,0.81607
503.998,55.4374,-2.74654,0.0014809,0.81552
504.698,55.5067,-2.7478,0.00143562,0.81498
505.398,55.57606,-2.74917,-0.0001584967,0.81444
506.098,55.6454,-2.7505,0.00363845,0.8139
506.798,55.71475,-2.75186,0.004589318,0.81336
507.498,55.7841,-2.75279,0.005620885,0.81281
508.198,55.853,-2.75332,0.008074037,0.81227
508.898,55.92224,-2.75559,0.01073046,0.81173
509.598,55.9915,-2.75613,0.01466732,0.81118
510.298,56.06044,-2.75641,0.01797974,0.81064
510.998,56.12967,-2.75773,0.01747765,0.81009
511.698,56.1989,-2.75773,0.01732312,0.80955
512.398,56.2688,-2.75717,0.02055823,0.809
513.098,56.3382,-2.75773,0.0188138,0.80846
513.798,56.4075,-2.75903,0.0209281,0.80791
514.498,56.47684,-2.76036,0.02162625,0.80737
515.198,56.5459,-2.76068,0.01886309,0.80682
515.898,56.61512,-2.76069,0.01790795,0.80627
516.598,56.68456,-2.7606,0.02061868,0.80573
517.298,56.75414,-2.76169,0.01909045,0.80518
517.998,56.8236,-2.76299,0.01688143,0.80463
518.698,56.89275,-2.76296,0.01349737,0.80409
519.398,56.96184,-2.76431,0.01571915,0.80354
520.098,57.0312,-2.76486,0.01247239,0.80299
520.798,57.1005,-2.76431,0.009979061,0.80244
521.498,57.17,-2.76431,0.009423344,0.80189
522.198,57.2391,-2.76563,0.00535573,0.80135
522.898,57.3083,-2.76695,0.00691057,0.8008
523.598,57.37772,-2.76694,0.007471053,0.80025
524.298,57.4474,-2.76857,0.003482996,0.7997
524.998,57.5169,-2.76859,0.004021785,0.79915
525.698,57.5862,-2.76922,0.005153178,0.7986
526.398,57.65531,-2.76958,0.004550959,0.79805
527.098,57.7248,-2.7709,-0.0008547913,0.7975
527.798,57.7943,-2.7709,0.000793408,0.79695
528.498,57.8641,-2.76983,-0.003445155,0.79639
529.198,57.93365,-2.77089,-0.006203786,0.79584
529.898,58.0034,-2.77023,-0.004994048,0.79529
530.598,58.073,-2.7702,-0.003785474,0.79474
531.298,58.14261,-2.77243,-0.00609726,0.79419
531.998,58.212,-2.7742,-0.009029768,0.79364
532.698,58.2814,-2.7755,-0.01198754,0.79308
533.398,58.3509,-2.7755,-0.020339,0.79253
534.098,58.4206,-2.77684,-0.01891775,0.79198
534.798,58.49034,-2.77813,-0.02229335,0.79142
535.498,58.5602,-2.77912,-0.02581324,0.79087
536.198,58.62993,-2.77912,-0.0272329,0.79032
536.898,58.7,-2.77813,-0.03084638,0.78976
537.598,58.76967,-2.7778,-0.03136413,0.78921
538.298,58.83934,-2.7791,-0.03452685,0.78865
538.998,58.90877,-2.78067,-0.03572499,0.7881
539.698,58.97866,-2.78076,-0.03774024,0.78754
540.398,59.0485,-2.78076,-0.03911468,0.78699
541.098,59.1182,-2.78208,-0.04069197,0.78643
541.798,59.18769,-2.78341,-0.03952641,0.78588
542.498,59.25728,-2.78251,-0.04535026,0.78532
543.198,59.3269,-2.78406,-0.04303273,0.78476
543.898,59.3965,-2.78433,-0.04682842,0.78421
544.598,59.46606,-2.78471,-0.04694831,0.78365
545.298,59.536,-2.78471,-0.05094726,0.78309
545.998,59.6058,-2.78604,-0.05106718,0.78254
546.698,59.67559,-2.7847,-0.05318985,0.78198
547.398,59.7452,-2.78607,-0.0529015,0.78142
548.098,59.8149,-2.78734,-0.05557019,0.78086
548.798,59.88468,-2.78734,-0.05673283,0.7803
549.498,59.9544,-2.78734,-0.05670609,0.77975
550.198,60.02426,-2.78726,-0.05837613,0.77919
550.898,60.0941,-2.78771,-0.05906228,0.77863
551.598,60.16386,-2.78899,-0.05764474,0.77807
552.298,60.23365,-2.79093,-0.05878148,0.77751
552.998,60.30335,-2.79129,-0.0597819,0.77695
553.698,60.37314,-2.79129,-0.06235776,0.77639
554.398,60.44294,-2.79128,-0.06351305,0.77583
555.098,60.51285,-2.79153,-0.06406328,0.77527
555.798,60.5824,-2.79196,-0.06449179,0.77471
556.498,60.65234,-2.79214,-0.06477482,0.77415
557.198,60.72206,-2.79439,-0.06848267,0.77359
557.898,60.79195,-2.79458,-0.06817848,0.77303
558.598,60.8616,-2.79328,-0.06977028,0.77247
559.298,60.93135,-2.79324,-0.07037282,0.77191
559.998,61.0011,-2.79491,-0.06969586,0.77134
560.698,61.0708,-2.79622,-0.07239947,0.77078
561.398,61.14062,-2.79622,-0.07292234,0.77022
562.098,61.21069,-2.79588,-0.07167714,0.76966
562.798,61.2805,-2.79655,-0.07445354,0.76909
563.498,61.3503,-2.79623,-0.07597493,0.76853
564.198,61.42026,-2.79722,-0.07527066,0.76797
564.898,61.4902,-2.79755,-0.08021448,0.76741
565.598,61.5601,-2.79886,-0.07907341,0.76684
566.298,61.62986,-2.80018,-0.08008629,0.76628
566.998,61.69973,-2.80018,-0.08352052,0.76572
567.698,61.76931,-2.80018,-0.08861238,0.76515
568.398,61.8391,-2.80215,-0.08410305,0.76459
569.098,61.90916,-2.80281,-0.0855964,0.76402
569.798,61.97951,-2.80412,-0.08620778,0.76346
570.498,62.04956,-2.80474,-0.08643288,0.76289
571.198,62.1196,-2.80413,-0.0860584,0.76233
571.898,62.1896,-2.80413,-0.08672527,0.76176
572.598,62.25954,-2.80413,-0.09070566,0.7612
573.298,62.32954,-2.8041,-0.09131929,0.76063
573.998,62.39956,-2.80412,-0.09613871,0.76007
574.698,62.46969,-2.80544,-0.09325304,0.7595
575.398,62.5393,-2.80544,-0.09425375,0.75893
576.098,62.609,-2.80408,-0.09599545,0.75837
576.798,62.67884,-2.80544,-0.09535873,0.7578
577.498,62.7489,-2.80805,-0.09627754,0.75723
578.198,62.81904,-2.80676,-0.09629027,0.75667
578.898,62.889,-2.80641,-0.0980023,0.7561
579.598,62.9594,-2.80644,-0.09702344,0.75553
580.298,63.02938,-2.80807,-0.09854742,0.75497
580.998,63.0994,-2.80939,-0.09725502,0.7544
581.698,63.16916,-2.81071,-0.09821187,0.75383
582.398,63.23907,-2.81096,-0.10063,0.75326
583.098,63.30914,-2.81072,-0.09850463,0.75269
583.798,63.3792,-2.81206,-0.09930337,0.75212
584.498,63.44899,-2.81103,-0.09920004,0.75156
585.198,63.5188,-2.81103,-0.10162,0.75099
585.898,63.58871,-2.81226,-0.10094,0.75042
586.598,63.6588,-2.81325,-0.10146,0.74985
587.298,63.72866,-2.81336,-0.09878634,0.74928
587.998,63.7987,-2.81465,-0.09890924,0.74871
588.698,63.8688,-2.81334,-0.10063,0.74814
589.398,63.9392,-2.81334,-0.0997623,0.74757
590.098,64.0093,-2.81469,-0.09935377,0.747
590.798,64.07945,-2.81363,-0.10066,0.74643
591.498,64.14931,-2.81494,-0.09687169,0.74586
592.198,64.21921,-2.81598,-0.09978913,0.74529
592.898,64.28921,-2.8157,-0.0983275,0.74472
593.598,64.35928,-2.81499,-0.09980142,0.74415
594.298,64.4292,-2.81729,-0.09853825,0.74358
594.998,64.4991,-2.81728,-0.09509804,0.74301
595.698,64.56896,-2.81575,-0.09709535,0.74243
596.398,64.63896,-2.81606,-0.09464841,0.74186
597.098,64.70896,-2.81641,-0.09296883,0.74129
597.798,64.77885,-2.81641,-0.09230444,0.74072
598.498,64.84872,-2.81775,-0.09051413,0.74015
599.198,64.9186,-2.81773,-0.08900988,0.73957
599.898,64.98861,-2.8187,-0.090436,0.739
600.598,65.05875,-2.81904,-0.08867143,0.73843
601.298,65.1289,-2.82036,-0.08699514,0.73786
601.998,65.19917,-2.82036,-0.08453142,0.73728
602.698,65.26915,-2.8226,-0.08591373,0.73671
603.398,65.33933,-2.82166,-0.08786471,0.73614
604.098,65.40938,-2.82299,-0.08574742,0.73556
604.798,65.47978,-2.82396,-0.08498859,0.73499
605.498,65.54995,-2.82562,-0.07920594,0.73442
606.198,65.6202,-2.82562,-0.08029215,0.73384
606.898,65.69019,-2.82562,-0.08116213,0.73327
607.598,65.7603,-2.82297,-0.08174408,0.7327
608.298,65.83024,-2.82299,-0.08024992,0.73212
608.998,65.90046,-2.82368,-0.07724629,0.73155
609.698,65.97051,-2.82398,-0.07558494,0.73097
610.398,66.0404,-2.82529,-0.07342882,0.7304
611.098,66.11,-2.82661,-0.07271105,0.72982
611.798,66.17985,-2.82661,-0.07273309,0.72925
612.498,66.24975,-2.82826,-0.07099669,0.72867
613.198,66.32013,-2.82958,-0.06688441,0.7281
613.898,66.39021,-2.83089,-0.06331854,0.72752
614.598,66.46066,-2.82959,-0.05926791,0.72695
615.298,66.5307,-2.82827,-0.06072346,0.72637
615.998,66.60099,-2.82825,-0.05823309,0.72579
616.698,66.67121,-2.8277,-0.05557104,0.72522
617.398,66.74131,-2.82826,-0.0555986,0.72464
618.098,66.81146,-2.82826,-0.05092279,0.72407
618.798,66.88152,-2.83087,-0.04983887,0.72349
619.498,66.95187,-2.83218,-0.04546539,0.72291
620.198,67.02202,-2.83214,-0.04476055,0.72234
620.898,67.09227,-2.83234,-0.03887195,0.72176
621.598,67.16241,-2.83372,-0.03932027,0.72118
622.298,67.2325,-2.83454,-0.03672095,0.7206
622.998,67.3026,-2.83583,-0.03550754,0.72003
623.698,67.37272,-2.83582,-0.03123278,0.71945
624.398,67.443,-2.83714,-0.03144913,0.71887
625.098,67.51334,-2.83696,-0.02743837,0.71829
625.798,67.58368,-2.83616,-0.02182579,0.71772
626.498,67.65391,-2.83748,-0.01975404,0.71714
627.198,67.72407,-2.83747,-0.02124093,0.71656
627.898,67.79427,-2.83715,-0.01423199,0.71598
628.598,67.8645,-2.83665,-0.012178,0.7154
629.298,67.93482,-2.83839,-0.008072015,0.71483
629.998,68.00498,-2.83853,-0.00636737,0.71425
630.698,68.0754,-2.83977,-0.004157582,0.71367
631.398,68.1456,-2.83972,-0.001386742,0.71309
632.098,68.21614,-2.84283,-0.001278505,0.71251
632.798,68.28657,-2.84373,0.005019354,0.71193
633.498,68.357,-2.84373,0.005172647,0.71135
634.198,68.4272,-2.84479,0.00595471,0.71077
634.898,68.49731,-2.84547,0.01240624,0.71019
635.598,68.5675,-2.84504,0.01238923,0.70962
636.298,68.63764,-2.84504,0.01684688,0.70904
636.998,68.70798,-2.84628,0.01852098,0.70846
637.698,68.77835,-2.84524,0.02227094,0.70788
638.398,68.8489,-2.84769,0.02382863,0.7073
639.098,68.91924,-2.84841,0.0276553,0.70672
639.798,68.98968,-2.84896,0.03259493,0.70614
640.498,69.0599,-2.84898,0.03397287,0.70556
641.198,69.13028,-2.8503,0.03755851,0.70497
641.898,69.20047,-2.85162,0.04012634,0.70439
642.598,69.2709,-2.85294,0.0468805,0.70381
643.298,69.3413,-2.85425,0.05138912,0.70323
643.998,69.4118,-2.85506,0.05399094,0.70265
644.698,69.48244,-2.85677,0.05804873,0.70207
645.398,69.5528,-2.85685,0.06290349,0.70149
646.098,69.62318,-2.85912,0.0666461,0.70091
646.798,69.6935,-2.85951,0.0721961,0.70033
647.498,69.76394,-2.85952,0.07571562,0.69975
648.198,69.83434,-2.86017,0.07865028,0.69917
648.898,69.9049,-2.8615,0.08474943,0.69858
649.598,69.97533,-2.86281,0.0871593,0.698
650.298,70.04595,-2.86413,0.09091926,0.69742
650.998,70.11623,-2.86555,0.10107,0.69684
651.698,70.1867,-2.86811,0.10397,0.69626
652.398,70.2571,-2.8677,0.10669,0.69567
653.098,70.32771,-2.86807,0.11418,0.69509
653.798,70.39825,-2.86939,0.11884,0.69451
654.498,70.4688,-2.86832,0.12859,0.69393
655.198,70.5395,-2.87033,0.13064,0.69335
655.898,70.61,-2.87345,0.13985,0.69276
656.598,70.6805,-2.87476,0.14267,0.69218
657.298,70.75102,-2.87608,0.15173,0.6916
657.998,70.8214,-2.8774,0.1599,0.69101
658.698,70.89196,-2.87852,0.16298,0.69043
659.398,70.96245,-2.88101,0.16971,0.68985
660.098,71.0331,-2.88116,0.17744,0.68927
660.798,71.10343,-2.88371,0.18186,0.68868
661.498,71.1739,-2.88509,0.18906,0.6881
662.198,71.24431,-2.88528,0.19347,0.68752
662.898,71.31485,-2.88782,0.19891,0.68693
663.598,71.38544,-2.88785,0.20837,0.68635
664.298,71.4561,-2.88927,0.21517,0.68577
664.998,71.52674,-2.89094,0.22031,0.68518
665.698,71.59744,-2.89186,0.22554,0.6846
666.398,71.6679,-2.89323,0.23461,0.68401
667.098,71.73828,-2.89437,0.24061,0.68343
667.798,71.80874,-2.89711,0.24477,0.68285
668.498,71.87945,-2.90109,0.25029,0.68226
669.198,71.95019,-2.9024,0.25853,0.68168
669.898,72.02086,-2.90504,0.26603,0.68109
670.598,72.09139,-2.90758,0.27185,0.68051
671.298,72.162,-2.91042,0.27886,0.67993
671.998,72.23235,-2.91027,0.28203,0.67934
672.698,72.30288,-2.91167,0.28984,0.67876
673.398,72.3736,-2.9131,0.29369,0.67817
674.098,72.44445,-2.91373,0.30151,0.67759
674.798,72.5152,-2.91554,0.30475,0.677
675.498,72.58583,-2.91688,0.31012,0.67642
676.198,72.65646,-2.91969,0.31633,0.67583
676.898,72.72666,-2.92166,0.32181,0.67525
677.598,72.79737,-2.92384,0.32599,0.67466
678.298,72.86814,-2.92781,0.33067,0.67408
678.998,72.93939,-2.92898,0.33586,0.67349
679.698,73.01006,-2.92962,0.34153,0.67291
680.398,73.0808,-2.93161,0.34426,0.67232
681.098,73.15154,-2.93223,0.34672,0.67174
681.798,73.22236,-2.93358,0.35345,0.67115
682.498,73.29315,-2.93621,0.35572,0.67057
683.198,73.36392,-2.93899,0.35527,0.66998
683.898,73.43474,-2.94042,0.35317,0.6694
684.598,73.50551,-2.9424,0.35786,0.66881
685.298,73.57638,-2.94523,0.35677,0.66823
685.998,73.64702,-2.94736,0.36078,0.66764
686.698,73.71759,-2.94862,0.36043,0.66706
687.398,73.7881,-2.95335,0.36221,0.66647
688.098,73.85854,-2.95729,0.3571,0.66588
688.798,73.929,-2.95957,0.3532,0.6653
689.498,73.99948,-2.95867,0.35409,0.66471
690.198,74.07027,-2.961,0.35011,0.66413
690.898,74.14081,-2.96262,0.34548,0.66354
691.598,74.21121,-2.96398,0.34988,0.66295
692.298,74.2818,-2.96667,0.34562,0.66237
692.998,74.35254,-2.96984,0.34628,0.66178
693.698,74.42327,-2.9713,0.33996,0.6612
694.398,74.49384,-2.97423,0.33987,0.66061
695.098,74.56435,-2.97438,0.33996,0.66002
695.798,74.63507,-2.97737,0.33881,0.65944
696.498,74.70564,-2.98016,0.338,0.65885
697.198,74.77623,-2.98264,0.33651,0.65826
697.898,74.84647,-2.98503,0.32993,0.65768
698.598,74.91709,-2.98659,0.32239,0.65709
699.298,74.9878,-2.98761,0.31378,0.6565
699.998,75.05875,-2.98922,0.30568,0.65592
700.698,75.1293,-2.99202,0.29617,0.65533
701.398,75.1999,-2.99432,0.28096,0.65474
702.098,75.27041,-2.99465,0.26899,0.65416
702.798,75.3408,-2.99595,0.24883,0.65357
703.498,75.41108,-2.99901,0.22314,0.65298
704.198,75.48184,-3.00007,0.19299,0.6524
704.898,75.55291,-3.0019,0.15685,0.65181
705.598,75.62401,-3.00189,0.10971,0.65122
706.298,75.69476,-3.00322,0.04794793,0.65064
706.998,75.7653,-3.00321,-0.01116273,0.65005
707.698,75.83595,-3.00354,-0.04307811,0.64946
708.398,75.90687,-3.00452,-0.0661103,0.64888
709.098,75.97779,-3.00419,-0.07554263,0.64829
709.798,76.04866,-3.00452,-0.07819979,0.6477
710.498,76.1195,-3.00453,-0.08343903,0.64712
711.198,76.19028,-3.00321,-0.09066166,0.64653
711.898,76.26116,-3.00453,-0.08936486,0.64594
712.598,76.33199,-3.00535,-0.08928447,0.64535
713.298,76.40276,-3.00644,-0.08971784,0.64477
713.998,76.4734,-3.00846,-0.08778471,0.64418
714.698,76.5439,-3.00979,-0.08797284,0.64359
715.398,76.6146,-3.00937,-0.08868643,0.64301
716.098,76.68518,-3.00844,-0.09353648,0.64242
716.798,76.75594,-3.00815,-0.0951149,0.64183
717.498,76.82646,-3.00774,-0.09298481,0.64124
718.198,76.89697,-3.00785,-0.0916613,0.64066
718.898,76.96731,-3.00848,-0.09158104,0.64007
719.598,77.0379,-3.00875,-0.0933123,0.63948
720.298,77.10868,-3.00969,-0.09610403,0.6389
720.998,77.17919,-3.00847,-0.09728281,0.63831
721.698,77.24975,-3.00979,-0.09618539,0.63772
722.398,77.32042,-3.01111,-0.09337533,0.63713
723.098,77.39069,-3.01111,-0.09234481,0.63655
723.798,77.46119,-3.01003,-0.09564492,0.63596
724.498,77.53166,-3.00849,-0.09745774,0.63537
725.198,77.60276,-3.00726,-0.09782082,0.63478
725.898,77.67347,-3.00848,-0.09980243,0.6342
726.598,77.74425,-3.00848,-0.10133,0.63361
727.298,77.81505,-3.00977,-0.09853933,0.63302
727.998,77.88576,-3.00979,-0.10049,0.63244
728.698,77.95642,-3.00978,-0.10051,0.63185
729.398,78.02724,-3.01154,-0.1001,0.63126
730.098,78.0981,-3.01238,-0.09835734,0.63067
730.798,78.169,-3.01374,-0.10163,0.63009
731.498,78.23979,-3.01242,-0.10085,0.6295
732.198,78.31049,-3.01242,-0.10136,0.62891
732.898,78.38124,-3.01139,-0.1068,0.62832
733.598,78.45181,-3.01143,-0.10389,0.62774
734.298,78.52277,-3.01296,-0.10278,0.62715
734.998,78.59355,-3.01476,-0.10461,0.62656
735.698,78.66445,-3.01538,-0.10747,0.62597
736.398,78.73522,-3.01538,-0.10727,0.62539
737.098,78.80594,-3.01594,-0.10364,0.6248
737.798,78.87671,-3.01358,-0.10839,0.62421
738.498,78.94739,-3.01275,-0.10463,0.62362
739.198,79.01804,-3.01275,-0.1099,0.62304
739.898,79.08847,-3.01407,-0.10318,0.62245
740.598,79.15901,-3.0167,-0.10593,0.62186
741.298,79.22959,-3.01607,-0.10476,0.62128
741.998,79.3005,-3.01572,-0.10749,0.62069
742.698,79.37137,-3.01539,-0.1083,0.6201
743.398,79.44232,-3.01521,-0.10977,0.61951
744.098,79.51316,-3.01539,-0.11191,0.61893
744.798,79.58395,-3.01538,-0.11042,0.61834
745.498,79.65478,-3.01538,-0.11376,0.61775
746.198,79.7257,-3.01671,-0.10872,0.61717
746.898,79.79655,-3.01667,-0.11032,0.61658
747.598,79.86749,-3.01668,-0.11194,0.61599
748.298,79.93822,-3.01677,-0.11191,0.6154
748.998,80.00909,-3.01539,-0.11005,0.61482
749.698,80.07975,-3.01669,-0.1122,0.61423
750.398,80.15055,-3.01933,-0.10889,0.61364
751.098,80.22126,-3.01801,-0.10968,0.61306
751.798,80.29222,-3.01931,-0.10646,0.61247
752.498,80.36312,-3.01933,-0.10832,0.61188
753.198,80.4337,-3.01837,-0.1111,0.61129
753.898,80.50441,-3.01933,-0.10772,0.61071
754.598,80.575,-3.01932,-0.10645,0.61012
755.298,80.64611,-3.02064,-0.10654,0.60953
755.998,80.7171,-3.02106,-0.10959,0.60895
756.698,80.78815,-3.02196,-0.1083,0.60836
757.398,80.8591,-3.02196,-0.10784,0.60777
758.098,80.92939,-3.02064,-0.10422,0.60719
758.798,81.0001,-3.01867,-0.10675,0.6066
759.498,81.071,-3.01867,-0.10678,0.60601
760.198,81.14217,-3.01867,-0.1101,0.60543
760.898,81.213,-3.02132,-0.1107,0.60484
761.598,81.28379,-3.0213,-0.10729,0.60425
762.298,81.35469,-3.02147,-0.11231,0.60367
762.998,81.4256,-3.02131,-0.11433,0.60308
763.698,81.49637,-3.02131,-0.11175,0.60249
764.398,81.56706,-3.02131,-0.11534,0.60191
765.098,81.63803,-3.02131,-0.1115,0.60132
765.798,81.7089,-3.02,-0.114,0.60073
766.498,81.78,-3.02262,-0.11518,0.60015
767.198,81.85083,-3.02262,-0.1171,0.59956
767.898,81.92171,-3.02263,-0.12017,0.59898
768.598,81.99283,-3.02163,-0.11835,0.59839
769.298,82.0639,-3.02296,-0.12166,0.5978
769.998,82.13485,-3.02295,-0.12181,0.59722
770.698,82.20568,-3.02295,-0.12142,0.59663
771.398,82.2765,-3.02295,-0.12374,0.59604
772.098,82.34724,-3.0232,-0.12399,0.59546
772.798,82.41804,-3.02423,-0.1211,0.59487
773.498,82.48908,-3.02426,-0.12437,0.59429
774.198,82.56017,-3.02427,-0.12502,0.5937
774.898,82.6311,-3.0243,-0.12507,0.59311
775.598,82.702,-3.02557,-0.12616,0.59253
776.298,82.7729,-3.02427,-0.12285,0.59194
776.998,82.84398,-3.02291,-0.13165,0.59136
777.698,82.91502,-3.02165,-0.12771,0.59077
778.398,82.98591,-3.023,-0.12276,0.59019
779.098,83.0566,-3.02296,-0.12385,0.5896
779.798,83.12739,-3.02416,-0.12428,0.58902
780.498,83.19815,-3.02427,-0.12433,0.58843
781.198,83.2689,-3.02572,-0.12375,0.58784
781.898,83.33959,-3.02471,-0.12671,0.58726
782.598,83.41014,-3.02569,-0.12434,0.58667
783.298,83.4809,-3.02569,-0.12288,0.58609
783.998,83.55163,-3.02702,-0.12408,0.5855
784.698,83.62264,-3.028,-0.13066,0.58492
785.398,83.6935,-3.028,-0.12914,0.58433
786.098,83.76406,-3.02765,-0.13251,0.58375
786.798,83.83474,-3.02735,-0.12806,0.58316
787.498,83.9055,-3.02602,-0.12864,0.58258
788.198,83.97636,-3.02601,-0.12823,0.58199
788.898,84.04719,-3.02738,-0.12515,0.58141
789.598,84.11803,-3.028,-0.12713,0.58083
790.298,84.1888,-3.02742,-0.12846,0.58024
790.998,84.25946,-3.02734,-0.13134,0.57966
791.698,84.32992,-3.02734,-0.13303,0.57907
792.398,84.40079,-3.02734,-0.13228,0.57849
793.098,84.4717,-3.02636,-0.13315,0.5779
793.798,84.54294,-3.02635,-0.13056,0.57732
794.498,84.61415,-3.02772,-0.12742,0.57674
795.198,84.6853,-3.02897,-0.12809,0.57615
795.898,84.75659,-3.03034,-0.1294,0.57557
796.598,84.82763,-3.0303,-0.12967,0.57498
797.298,84.8988,-3.02973,-0.13265,0.5744
797.998,84.96995,-3.02767,-0.13199,0.57382
798.198,84.9902,-3.02868,-0.12976,0.57365