File: 01_Data/Feather_Pillow_Feathers/STA/N2/30K_min/Feather_Pillow_Feathers_STA_N2_30KData_2236_R3.csv
##Temp./Â°C,Time/min,Mass loss(subtr.2)/mg,DSC(subtr.2)/(mW/mg),Sensit./(uV/mW)
48.491,10.01,-0.07497,0.04904603,1.05402
49.191,10.55844,-0.07775002,0.09392826,1.05388
49.891,10.68468,-0.07906694,0.13223,1.05373
50.591,10.77488,-0.07953422,0.16587,1.05359
51.291,10.84905,-0.0778343,0.19864,1.05345
51.991,10.91178,-0.08067213,0.22589,1.0533
52.691,10.96836,-0.07852306,0.2521,1.05315
53.391,11.02109,-0.07984169,0.28172,1.05301
54.091,11.0693,-0.08143419,0.3051,1.05286
54.791,11.11482,-0.08119585,0.32839,1.05271
55.491,11.15765,-0.08059584,0.35063,1.05256
56.191,11.19844,-0.07955403,0.3718,1.05241
56.891,11.23766,-0.07910247,0.39154,1.05226
57.591,11.27534,-0.07947651,0.41251,1.05211
58.291,11.31155,-0.08064179,0.43193,1.05195
58.991,11.34693,-0.07977656,0.44985,1.0518
59.691,11.3812,-0.07969977,0.46678,1.05164
60.391,11.41483,-0.08107532,0.48404,1.05149
61.091,11.44769,-0.08055767,0.50103,1.05133
61.791,11.47983,-0.08156029,0.5201,1.05117
62.491,11.5113,-0.08267523,0.5336,1.05101
63.191,11.5422,-0.08295245,0.54986,1.05085
63.891,11.57249,-0.08224308,0.56604,1.05069
64.591,11.60229,-0.08364487,0.58322,1.05053
65.291,11.63162,-0.08453438,0.59746,1.05037
65.991,11.66078,-0.08394362,0.61319,1.05021
66.691,11.68952,-0.08407705,0.62627,1.05004
67.391,11.7179,-0.08611864,0.64151,1.04988
68.091,11.7461,-0.08549239,0.65749,1.04971
68.791,11.774,-0.08405165,0.67081,1.04954
69.491,11.8018,-0.08451816,0.6854,1.04938
70.191,11.8291,-0.08490359,0.69838,1.04921
70.891,11.8563,-0.0841276,0.71495,1.04904
71.591,11.8833,-0.08436338,0.72697,1.04887
72.291,11.9102,-0.08596997,0.74228,1.0487
72.991,11.93673,-0.08755464,0.75377,1.04853
73.691,11.96314,-0.08694302,0.7692,1.04835
74.391,11.9894,-0.08687515,0.78258,1.04818
75.091,12.01559,-0.08767373,0.79782,1.04801
75.791,12.04171,-0.08759533,0.81136,1.04783
76.491,12.06762,-0.0877875,0.82422,1.04765
77.191,12.09335,-0.08774526,0.83905,1.04748
77.891,12.11897,-0.0896606,0.8502,1.0473
78.591,12.14444,-0.08959246,0.86318,1.04712
79.291,12.16968,-0.09034485,0.87691,1.04694
79.991,12.19496,-0.08998465,0.88968,1.04676
80.691,12.22016,-0.09057833,0.90223,1.04658
81.391,12.24531,-0.09111298,0.91778,1.0464
82.091,12.2704,-0.09066827,0.92836,1.04621
82.791,12.29535,-0.09071902,0.94434,1.04603
83.491,12.3203,-0.09221296,0.95711,1.04584
84.191,12.34497,-0.09392295,0.96954,1.04566
84.891,12.3696,-0.09305845,0.98286,1.04547
85.591,12.39423,-0.09375508,0.99239,1.04528
86.291,12.41867,-0.09527612,1.00408,1.04509
86.991,12.44317,-0.09653686,1.01759,1.04491
87.691,12.46746,-0.09694172,1.02908,1.04472
88.391,12.4918,-0.09780829,1.04353,1.04452
89.091,12.51619,-0.0983981,1.05344,1.04433
89.791,12.54036,-0.09911868,1.06346,1.04414
90.491,12.56452,-0.09977805,1.07553,1.04395
91.191,12.5886,-0.10011,1.08567,1.04375
91.891,12.61261,-0.10047,1.09738,1.04356
92.591,12.63664,-0.10163,1.10289,1.04336
93.291,12.66046,-0.10201,1.1149,1.04316
93.991,12.6843,-0.10323,1.12204,1.04297
94.691,12.7082,-0.10461,1.13012,1.04277
95.391,12.73192,-0.1046,1.1382,1.04257
96.091,12.7558,-0.10572,1.14542,1.04237
96.791,12.7796,-0.10593,1.15216,1.04217
97.491,12.80335,-0.10686,1.15872,1.04196
98.191,12.82705,-0.10725,1.16389,1.04176
98.891,12.85069,-0.10797,1.17137,1.04156
99.591,12.87423,-0.10943,1.17696,1.04135
100.291,12.89783,-0.10998,1.18213,1.04115
100.991,12.92142,-0.1105,1.18635,1.04094
101.691,12.945,-0.11279,1.19005,1.04074
102.391,12.96846,-0.11329,1.19409,1.04053
103.091,12.99187,-0.11516,1.19688,1.04032
103.791,13.0153,-0.11537,1.19942,1.04011
104.491,13.03883,-0.11537,1.2,1.0399
105.191,13.06243,-0.11557,1.19986,1.03969
105.891,13.0861,-0.11704,1.20232,1.03948
106.591,13.1097,-0.11801,1.20251,1.03926
107.291,13.13308,-0.11801,1.20144,1.03905
107.991,13.1565,-0.11801,1.19999,1.03883
108.691,13.1799,-0.11865,1.20031,1.03862
109.391,13.2032,-0.12059,1.19817,1.0384
110.091,13.22664,-0.12064,1.19751,1.03819
110.791,13.2499,-0.12064,1.1918,1.03797
111.491,13.2733,-0.12172,1.18873,1.03775
112.191,13.2965,-0.12331,1.18549,1.03753
112.891,13.3198,-0.12328,1.18238,1.03731
113.591,13.34312,-0.12469,1.17712,1.03709
114.291,13.3664,-0.12461,1.1733,1.03686
114.991,13.3897,-0.12491,1.1693,1.03664
115.691,13.413,-0.12589,1.16336,1.03642
116.391,13.43609,-0.12591,1.15986,1.03619
117.091,13.4591,-0.1259,1.15354,1.03597
117.791,13.4822,-0.12725,1.14663,1.03574
118.491,13.5052,-0.1283,1.14016,1.03552
119.191,13.52854,-0.12854,1.13406,1.03529
119.891,13.5518,-0.12854,1.12546,1.03506
120.591,13.57504,-0.12855,1.11867,1.03483
121.291,13.5982,-0.13086,1.11298,1.0346
121.991,13.62127,-0.13085,1.10699,1.03437
122.691,13.64429,-0.13085,1.09862,1.03414
123.391,13.66734,-0.13082,1.09295,1.0339
124.091,13.6903,-0.13118,1.0862,1.03367
124.791,13.7132,-0.1312,1.0799,1.03344
125.491,13.73604,-0.13176,1.07139,1.0332
126.191,13.75889,-0.1325,1.06446,1.03296
126.891,13.7818,-0.13258,1.05805,1.03273
127.591,13.8048,-0.13351,1.05109,1.03249
128.291,13.8276,-0.13349,1.04363,1.03225
128.991,13.85036,-0.13349,1.03743,1.03201
129.691,13.87305,-0.13452,1.03033,1.03177
130.391,13.89579,-0.13484,1.02371,1.03153
131.091,13.91859,-0.13481,1.01734,1.03129
131.791,13.94139,-0.13481,1.01184,1.03105
132.491,13.96403,-0.13494,1.00813,1.0308
133.191,13.98659,-0.13513,1.00141,1.03056
133.891,14.0092,-0.13641,0.99515,1.03032
134.591,14.0316,-0.13646,0.99022,1.03007
135.291,14.0543,-0.13646,0.98537,1.02982
135.991,14.07696,-0.13646,0.9813,1.02958
136.691,14.09942,-0.13646,0.97783,1.02933
137.391,14.12199,-0.13647,0.97255,1.02908
138.091,14.1444,-0.13674,0.96721,1.02883
138.791,14.16681,-0.13709,0.96671,1.02858
139.491,14.18931,-0.13709,0.9628,1.02833
140.191,14.2117,-0.13846,0.95802,1.02808
140.891,14.2341,-0.13842,0.95613,1.02782
141.591,14.2563,-0.13842,0.95167,1.02757
142.291,14.27859,-0.13842,0.95071,1.02732
142.991,14.30093,-0.13842,0.94983,1.02706
143.691,14.32325,-0.13842,0.94779,1.0268
144.391,14.34571,-0.13842,0.94517,1.02655
145.091,14.368,-0.13842,0.94135,1.02629
145.791,14.39029,-0.13842,0.94177,1.02603
146.491,14.41254,-0.13842,0.9438,1.02577
147.191,14.4348,-0.13842,0.94108,1.02551
147.891,14.45701,-0.13842,0.94194,1.02525
148.591,14.4792,-0.1384,0.94016,1.02499
149.291,14.5013,-0.13977,0.94095,1.02473
149.991,14.52351,-0.13974,0.94102,1.02447
150.691,14.5456,-0.13974,0.9409,1.0242
151.391,14.56775,-0.13974,0.94298,1.02394
152.091,14.5899,-0.13974,0.9443,1.02367
152.791,14.6119,-0.13974,0.94225,1.02341
153.491,14.63385,-0.13974,0.94246,1.02314
154.191,14.65591,-0.13974,0.94121,1.02287
154.891,14.67789,-0.13974,0.94381,1.0226
155.591,14.6999,-0.13974,0.94758,1.02233
156.291,14.722,-0.13974,0.94738,1.02206
156.991,14.74394,-0.13974,0.94973,1.02179
157.691,14.766,-0.13974,0.9507,1.02152
158.391,14.788,-0.13969,0.95175,1.02125
159.091,14.81,-0.14041,0.95319,1.02098
159.791,14.832,-0.13976,0.95486,1.0207
160.491,14.854,-0.13975,0.9563,1.02043
161.191,14.876,-0.13975,0.95744,1.02015
161.891,14.8978,-0.13975,0.96091,1.01988
162.591,14.91975,-0.13975,0.96123,1.0196
163.291,14.94154,-0.13982,0.96432,1.01932
163.991,14.96323,-0.14076,0.9655,1.01904
164.691,14.98495,-0.14074,0.96572,1.01876
165.391,15.00675,-0.14074,0.96966,1.01848
166.091,15.0286,-0.14074,0.97189,1.0182
166.791,15.0507,-0.14074,0.97282,1.01792
167.491,15.07275,-0.14074,0.97496,1.01764
168.191,15.09469,-0.14073,0.9772,1.01736
168.891,15.11655,-0.14064,0.97745,1.01707
169.591,15.13836,-0.14205,0.98162,1.01679
170.291,15.16009,-0.14206,0.98347,1.0165
170.991,15.18185,-0.14139,0.98648,1.01622
171.691,15.20364,-0.14035,0.98647,1.01593
172.391,15.22545,-0.14041,0.99186,1.01564
173.091,15.24726,-0.14041,0.99393,1.01535
173.791,15.2691,-0.14041,0.99612,1.01507
174.491,15.2908,-0.14041,0.9989,1.01478
175.191,15.3124,-0.14041,0.99968,1.01449
175.891,15.3341,-0.14041,1.00161,1.01419
176.591,15.3557,-0.14041,1.00551,1.0139
177.291,15.3773,-0.1404,1.00639,1.01361
177.991,15.39895,-0.14037,1.00933,1.01332
178.691,15.4206,-0.14244,1.01146,1.01302
179.391,15.4422,-0.14303,1.01595,1.01273
180.091,15.46386,-0.14304,1.01661,1.01243
180.791,15.48545,-0.14304,1.019,1.01214
181.491,15.507,-0.14304,1.02443,1.01184
182.191,15.5286,-0.14304,1.02576,1.01154
182.891,15.5501,-0.14304,1.02775,1.01124
183.591,15.5716,-0.14304,1.03201,1.01094
184.291,15.59314,-0.14304,1.03515,1.01064
184.991,15.6146,-0.14309,1.03712,1.01034
185.691,15.6361,-0.14442,1.03972,1.01004
186.391,15.6576,-0.14434,1.04443,1.00974
187.091,15.67905,-0.14378,1.04528,1.00943
187.791,15.70049,-0.14374,1.04658,1.00913
188.491,15.7219,-0.14435,1.05293,1.00883
189.191,15.7433,-0.14436,1.05584,1.00852
189.891,15.7647,-0.14436,1.06183,1.00822
190.591,15.78602,-0.14436,1.06357,1.00791
191.291,15.8074,-0.14436,1.06856,1.0076
191.991,15.8288,-0.14459,1.07231,1.00729
192.691,15.85021,-0.14567,1.07176,1.00698
193.391,15.87164,-0.14567,1.07965,1.00667
194.091,15.8931,-0.14567,1.08249,1.00636
194.791,15.91443,-0.14566,1.08641,1.00605
195.491,15.9358,-0.14557,1.0902,1.00574
196.191,15.9571,-0.14697,1.093,1.00543
196.891,15.97841,-0.14699,1.09736,1.00512
197.591,15.99974,-0.14699,1.10084,1.0048
198.291,16.0211,-0.14699,1.10532,1.00449
198.991,16.04234,-0.147,1.11075,1.00417
199.691,16.06373,-0.14731,1.11636,1.00386
200.391,16.085,-0.14832,1.1203,1.00354
201.091,16.10635,-0.14831,1.1251,1.00322
201.791,16.12765,-0.14831,1.13117,1.0029
202.491,16.1489,-0.14832,1.13455,1.00259
203.191,16.17021,-0.14899,1.14034,1.00227
203.891,16.19148,-0.14961,1.14856,1.00195
204.591,16.21273,-0.14962,1.15605,1.00162
205.291,16.234,-0.14961,1.15904,1.0013
205.991,16.25524,-0.15051,1.1678,1.00098
206.691,16.27648,-0.15092,1.17486,1.00066
207.391,16.29768,-0.15094,1.18338,1.00033
208.091,16.31891,-0.15094,1.18954,1.00001
208.791,16.3401,-0.15094,1.19999,0.99968
209.491,16.36139,-0.15093,1.20765,0.99936
210.191,16.3826,-0.15182,1.21594,0.99903
210.891,16.40385,-0.15225,1.22416,0.9987
211.591,16.42501,-0.15232,1.23659,0.99838
212.291,16.44624,-0.15365,1.24733,0.99805
212.991,16.4675,-0.15358,1.25862,0.99772
213.691,16.48872,-0.15358,1.26941,0.99739
214.391,16.51003,-0.15489,1.28503,0.99706
215.091,16.53121,-0.15489,1.29731,0.99673
215.791,16.55238,-0.15489,1.31319,0.99639
216.491,16.57358,-0.15562,1.32744,0.99606
217.191,16.5947,-0.1563,1.34289,0.99573
217.891,16.61599,-0.15665,1.36021,0.99539
218.591,16.63719,-0.15767,1.38039,0.99506
219.291,16.6584,-0.15764,1.40234,0.99472
219.991,16.6796,-0.15793,1.42241,0.99439
220.691,16.70073,-0.15906,1.44352,0.99405
221.391,16.72186,-0.15958,1.469,0.99371
222.091,16.74305,-0.16043,1.49352,0.99337
222.791,16.76428,-0.16153,1.52224,0.99304
223.491,16.78547,-0.16182,1.55091,0.9927
224.191,16.8067,-0.16331,1.58078,0.99236
224.891,16.82789,-0.16421,1.61473,0.99202
225.591,16.8491,-0.16513,1.65131,0.99167
226.291,16.87031,-0.16643,1.68786,0.99133
226.991,16.89147,-0.16814,1.72605,0.99099
227.691,16.9127,-0.17003,1.76773,0.99064
228.391,16.93394,-0.17156,1.81216,0.9903
229.091,16.9551,-0.17267,1.85825,0.98996
229.791,16.97629,-0.17338,1.90426,0.98961
230.491,16.99752,-0.17468,1.95554,0.98926
231.191,17.01869,-0.17658,2.00741,0.98892
231.891,17.0399,-0.1785,2.05813,0.98857
232.591,17.06119,-0.18173,2.10974,0.98822
233.291,17.08237,-0.18353,2.15644,0.98787
233.991,17.1036,-0.18582,2.20845,0.98752
234.691,17.12481,-0.18865,2.25426,0.98717
235.391,17.14604,-0.19138,2.29384,0.98682
236.091,17.1673,-0.19416,2.33125,0.98647
236.791,17.1885,-0.19652,2.36147,0.98612
237.491,17.2098,-0.19889,2.39257,0.98576
238.191,17.2309,-0.20224,2.41587,0.98541
238.891,17.25217,-0.20551,2.43495,0.98505
239.591,17.2734,-0.20893,2.44994,0.9847
240.291,17.29459,-0.21193,2.46231,0.98434
240.991,17.31585,-0.21561,2.4709,0.98399
241.691,17.33699,-0.21822,2.47535,0.98363
242.391,17.35815,-0.22161,2.47864,0.98327
243.091,17.37937,-0.22495,2.47854,0.98292
243.791,17.40052,-0.22733,2.47688,0.98256
244.491,17.42174,-0.23076,2.47163,0.9822
245.191,17.4429,-0.23497,2.46817,0.98184
245.891,17.464,-0.23989,2.46122,0.98148
246.591,17.4852,-0.24325,2.45173,0.98111
247.291,17.50636,-0.24639,2.4435,0.98075
247.991,17.5275,-0.25041,2.43411,0.98039
248.691,17.54874,-0.25374,2.42517,0.98003
249.391,17.56993,-0.25741,2.41307,0.97966
250.091,17.59104,-0.26106,2.40265,0.9793
250.791,17.61218,-0.26475,2.39554,0.97893
251.491,17.6333,-0.26888,2.38227,0.97857
252.191,17.6544,-0.27234,2.37343,0.9782
252.891,17.67558,-0.27619,2.36401,0.97783
253.591,17.69665,-0.27908,2.35606,0.97746
254.291,17.7178,-0.28231,2.34617,0.9771
254.991,17.73883,-0.28584,2.33966,0.97673
255.691,17.7599,-0.2898,2.33171,0.97636
256.391,17.78097,-0.2945,2.32673,0.97599
257.091,17.802,-0.29786,2.32197,0.97562
257.791,17.82315,-0.30171,2.31724,0.97524
258.491,17.84419,-0.30493,2.31407,0.97487
259.191,17.86506,-0.30995,2.31244,0.9745
259.891,17.88597,-0.31435,2.31018,0.97413
260.591,17.90687,-0.31832,2.30958,0.97375
261.291,17.92791,-0.32262,2.30924,0.97338
261.991,17.94912,-0.32597,2.30946,0.973
262.691,17.97034,-0.32942,2.31216,0.97263
263.391,17.99155,-0.33319,2.31486,0.97225
264.091,18.01259,-0.33671,2.31822,0.97187
264.791,18.03368,-0.34077,2.32364,0.97149
265.491,18.0547,-0.34468,2.33028,0.97112
266.191,18.0758,-0.34917,2.3329,0.97074
266.891,18.09688,-0.35285,2.33828,0.97036
267.591,18.11797,-0.35701,2.344,0.96998
268.291,18.13901,-0.36169,2.34809,0.9696
268.991,18.16003,-0.36679,2.35697,0.96921
269.691,18.18104,-0.37268,2.36461,0.96883
270.391,18.20205,-0.37705,2.37088,0.96845
271.091,18.22312,-0.38151,2.37427,0.96807
271.791,18.24415,-0.38619,2.38136,0.96768
272.491,18.26525,-0.39126,2.39028,0.9673
273.191,18.28631,-0.3948,2.39493,0.96691
273.891,18.30732,-0.40062,2.40183,0.96653
274.591,18.3284,-0.40554,2.40703,0.96614
275.291,18.34941,-0.41036,2.41245,0.96575
275.991,18.3704,-0.41532,2.41881,0.96536
276.691,18.39144,-0.42118,2.4231,0.96498
277.391,18.41246,-0.42816,2.42611,0.96459
278.091,18.43355,-0.43293,2.43287,0.9642
278.791,18.45465,-0.43806,2.43542,0.96381
279.491,18.47574,-0.44262,2.43905,0.96342
280.191,18.49685,-0.44872,2.44268,0.96303
280.891,18.518,-0.45375,2.44511,0.96263
281.591,18.53899,-0.46013,2.44748,0.96224
282.291,18.5601,-0.46539,2.44934,0.96185
282.991,18.58115,-0.4717,2.45123,0.96145
283.691,18.60216,-0.47779,2.45413,0.96106
284.391,18.62325,-0.48479,2.45369,0.96067
285.091,18.64432,-0.49026,2.45705,0.96027
285.791,18.66535,-0.49652,2.45824,0.95987
286.491,18.68644,-0.50154,2.46015,0.95948
287.191,18.7075,-0.50834,2.46042,0.95908
287.891,18.7285,-0.51446,2.46244,0.95868
288.591,18.74953,-0.52101,2.46529,0.95828
289.291,18.77054,-0.52713,2.46759,0.95789
289.991,18.79162,-0.53291,2.46889,0.95749
290.691,18.81273,-0.53893,2.47238,0.95709
291.391,18.83384,-0.54507,2.47722,0.95669
292.091,18.85503,-0.55184,2.47769,0.95628
292.791,18.87612,-0.55774,2.48161,0.95588
293.491,18.89719,-0.56503,2.48878,0.95548
294.191,18.91828,-0.5712,2.49471,0.95508
294.891,18.9393,-0.57867,2.49824,0.95467
295.591,18.96035,-0.5847,2.50388,0.95427
296.291,18.98147,-0.59278,2.5082,0.95387
296.991,19.0026,-0.59914,2.51518,0.95346
297.691,19.02372,-0.60679,2.51971,0.95305
298.391,19.04479,-0.61292,2.52527,0.95265
299.091,19.06585,-0.62048,2.5344,0.95224
299.791,19.08699,-0.62709,2.53841,0.95183
300.491,19.1081,-0.63479,2.54678,0.95143
301.191,19.1292,-0.6419,2.5533,0.95102
301.891,19.15029,-0.64978,2.55822,0.95061
302.591,19.17137,-0.6579,2.56329,0.9502
303.291,19.1925,-0.66573,2.56891,0.94979
303.991,19.21354,-0.67493,2.57444,0.94938
304.691,19.23471,-0.68277,2.57745,0.94896
305.391,19.2558,-0.69123,2.57864,0.94855
306.091,19.27678,-0.69777,2.58075,0.94814
306.791,19.29795,-0.70556,2.5804,0.94773
307.491,19.31906,-0.71309,2.57561,0.94731
308.191,19.3402,-0.72257,2.56804,0.9469
308.891,19.36141,-0.7297,2.55513,0.94648
309.591,19.38255,-0.73902,2.53721,0.94607
310.291,19.40367,-0.74776,2.51396,0.94565
310.991,19.4248,-0.75738,2.47817,0.94524
311.691,19.4459,-0.76471,2.43836,0.94482
312.391,19.46697,-0.77376,2.39511,0.9444
313.091,19.488,-0.78196,2.34972,0.94398
313.791,19.50911,-0.79039,2.31192,0.94357
314.491,19.5302,-0.79787,2.28477,0.94315
315.191,19.55128,-0.80556,2.26327,0.94273
315.891,19.57238,-0.81355,2.24754,0.94231
316.591,19.59346,-0.81983,2.23614,0.94189
317.291,19.61456,-0.82814,2.23364,0.94146
317.991,19.63564,-0.83611,2.23065,0.94104
318.691,19.65674,-0.84578,2.2283,0.94062
319.391,19.67785,-0.85348,2.23063,0.9402
320.091,19.69894,-0.8632,2.23838,0.93977
320.791,19.71999,-0.87089,2.24817,0.93935
321.491,19.74096,-0.88159,2.25802,0.93892
322.191,19.7621,-0.88974,2.27515,0.9385
322.891,19.7832,-0.89979,2.29092,0.93807
323.591,19.80441,-0.90891,2.31011,0.93765
324.291,19.8258,-0.92093,2.33208,0.93722
324.991,19.847,-0.93064,2.36365,0.93679
325.691,19.86816,-0.94172,2.39533,0.93637
326.391,19.8893,-0.95287,2.40871,0.93594
327.091,19.91045,-0.96565,2.43131,0.93551
327.791,19.93154,-0.97839,2.44646,0.93508
328.491,19.95266,-0.99047,2.46962,0.93465
329.191,19.97385,-1.00333,2.48252,0.93422
329.891,19.99501,-1.01534,2.49987,0.93379
330.591,20.0162,-1.02916,2.51458,0.93336
331.291,20.0374,-1.04162,2.52914,0.93292
331.991,20.05865,-1.05684,2.54642,0.93249
332.691,20.0798,-1.06851,2.55736,0.93206
333.391,20.10107,-1.08277,2.57354,0.93163
334.091,20.12235,-1.0946,2.57935,0.93119
334.791,20.1436,-1.11041,2.58781,0.93076
335.491,20.16487,-1.1232,2.59788,0.93032
336.191,20.1861,-1.13855,2.6073,0.92989
336.891,20.2073,-1.15194,2.61317,0.92945
337.591,20.2285,-1.16616,2.62246,0.92901
338.291,20.24974,-1.17997,2.62789,0.92858
338.991,20.27107,-1.19475,2.64052,0.92814
339.691,20.29233,-1.21001,2.6461,0.9277
340.391,20.3136,-1.22429,2.65413,0.92726
341.091,20.33484,-1.24072,2.66309,0.92682
341.791,20.3561,-1.25529,2.67101,0.92638
342.491,20.37745,-1.27246,2.67886,0.92594
343.191,20.39876,-1.28619,2.68989,0.9255
343.891,20.42006,-1.30394,2.69631,0.92506
344.591,20.44138,-1.31915,2.70044,0.92462
345.291,20.46261,-1.33682,2.7055,0.92418
345.991,20.48388,-1.35143,2.70856,0.92373
346.691,20.5052,-1.3696,2.71507,0.92329
347.391,20.52647,-1.38476,2.71971,0.92285
348.091,20.5478,-1.40191,2.72305,0.9224
348.791,20.5691,-1.41762,2.72436,0.92196
349.491,20.5905,-1.43453,2.71892,0.92151
350.191,20.61184,-1.45118,2.71466,0.92107
350.891,20.6331,-1.46645,2.71093,0.92062
351.591,20.65435,-1.48453,2.7043,0.92017
352.291,20.67567,-1.5016,2.70061,0.91973
352.991,20.697,-1.52159,2.69166,0.91928
353.691,20.71837,-1.53741,2.67669,0.91883
354.391,20.7398,-1.55679,2.66057,0.91838
355.091,20.76108,-1.57148,2.65161,0.91793
355.791,20.7823,-1.58961,2.63325,0.91748
356.491,20.8036,-1.60433,2.61655,0.91703
357.191,20.82505,-1.62267,2.59501,0.91658
357.891,20.84649,-1.638,2.57532,0.91613
358.591,20.86797,-1.65557,2.55258,0.91568
359.291,20.8894,-1.67178,2.52934,0.91523
359.991,20.9107,-1.68874,2.50854,0.91478
360.691,20.93208,-1.70463,2.48981,0.91432
361.391,20.95342,-1.72071,2.46114,0.91387
362.091,20.97471,-1.73772,2.43237,0.91342
362.791,20.99604,-1.75215,2.40719,0.91296
363.491,21.01736,-1.76922,2.38151,0.91251
364.191,21.03875,-1.78335,2.35821,0.91205
364.891,21.06011,-1.8016,2.33465,0.9116
365.591,21.08148,-1.81483,2.30626,0.91114
366.291,21.10282,-1.83089,2.27193,0.91068
366.991,21.1241,-1.84321,2.24092,0.91023
367.691,21.14552,-1.85815,2.21716,0.90977
368.391,21.16688,-1.87133,2.19022,0.90931
369.091,21.18831,-1.88607,2.16552,0.90885
369.791,21.20984,-1.89924,2.13841,0.90839
370.491,21.2312,-1.91305,2.11403,0.90793
371.191,21.25256,-1.92791,2.0846,0.90747
371.891,21.274,-1.94123,2.05858,0.90701
372.591,21.2954,-1.95505,2.03608,0.90655
373.291,21.31674,-1.96727,2.00939,0.90609
373.991,21.33817,-1.98183,1.98749,0.90563
374.691,21.35961,-1.9931,1.96347,0.90517
375.391,21.38096,-2.00671,1.9376,0.9047
376.091,21.40232,-2.01769,1.91199,0.90424
376.791,21.42372,-2.03054,1.88933,0.90378
377.491,21.44511,-2.03944,1.86637,0.90331
378.191,21.46653,-2.05203,1.8424,0.90285
378.891,21.48799,-2.06439,1.81693,0.90238
379.591,21.5093,-2.07616,1.78967,0.90192
380.291,21.5308,-2.08659,1.76405,0.90145
380.991,21.5523,-2.09707,1.74109,0.90098
381.691,21.5737,-2.10855,1.71579,0.90052
382.391,21.59528,-2.11904,1.69058,0.90005
383.091,21.61664,-2.13047,1.66941,0.89958
383.791,21.63805,-2.13806,1.65133,0.89911
384.491,21.65953,-2.14846,1.63149,0.89865
385.191,21.681,-2.15706,1.6118,0.89818
385.891,21.7023,-2.1689,1.59117,0.89771
386.591,21.7237,-2.17751,1.5736,0.89724
387.291,21.7452,-2.18769,1.55764,0.89677
387.991,21.76662,-2.19642,1.54007,0.8963
388.691,21.78827,-2.20604,1.52154,0.89583
389.391,21.8098,-2.2149,1.50475,0.89535
390.091,21.8313,-2.22378,1.48835,0.89488
390.791,21.8529,-2.2329,1.46966,0.89441
391.491,21.87448,-2.24138,1.45243,0.89394
392.191,21.89612,-2.25054,1.43526,0.89346
392.891,21.91776,-2.25813,1.42073,0.89299
393.591,21.9393,-2.26741,1.40608,0.89251
394.291,21.96086,-2.27408,1.39044,0.89204
394.991,21.9824,-2.2825,1.37762,0.89156
395.691,22.00398,-2.2896,1.36389,0.89109
396.391,22.02554,-2.29819,1.34472,0.89061
397.091,22.04717,-2.30493,1.33152,0.89014
397.791,22.06877,-2.31268,1.31688,0.88966
398.491,22.0903,-2.3213,1.30215,0.88918
399.191,22.11194,-2.32858,1.28963,0.8887
399.891,22.13353,-2.33586,1.2765,0.88823
400.591,22.1551,-2.34245,1.2619,0.88775
401.291,22.1767,-2.34975,1.2479,0.88727
401.991,22.19819,-2.35582,1.23494,0.88679
402.691,22.21975,-2.36343,1.22091,0.88631
403.391,22.2413,-2.3693,1.20735,0.88583
404.091,22.26296,-2.37591,1.19881,0.88535
404.791,22.2846,-2.3815,1.18535,0.88487
405.491,22.30619,-2.38817,1.17193,0.88439
406.191,22.32783,-2.39557,1.16145,0.8839
406.891,22.34945,-2.40235,1.14937,0.88342
407.591,22.3711,-2.40877,1.13736,0.88294
408.291,22.39278,-2.4144,1.12603,0.88246
408.991,22.4145,-2.42019,1.11522,0.88197
409.691,22.4362,-2.42561,1.10525,0.88149
410.391,22.45787,-2.43248,1.09591,0.88101
411.091,22.47952,-2.43771,1.08697,0.88052
411.791,22.5012,-2.44393,1.07833,0.88004
412.491,22.52276,-2.44849,1.06706,0.87955
413.191,22.54447,-2.45423,1.05844,0.87906
413.891,22.56617,-2.45938,1.05284,0.87858
414.591,22.58795,-2.46501,1.04337,0.87809
415.291,22.60969,-2.47002,1.03543,0.8776
415.991,22.63137,-2.47522,1.02739,0.87712
416.691,22.6531,-2.48033,1.0196,0.87663
417.391,22.6748,-2.48527,1.01248,0.87614
418.091,22.69644,-2.49062,1.0052,0.87565
418.791,22.71804,-2.49463,0.99854,0.87516
419.491,22.73976,-2.49915,0.98906,0.87467
420.191,22.76146,-2.5045,0.98497,0.87418
420.891,22.7833,-2.50941,0.97716,0.87369
421.591,22.80519,-2.5136,0.96856,0.8732
422.291,22.82692,-2.51867,0.96281,0.87271
422.991,22.8488,-2.52283,0.9581,0.87222
423.691,22.87051,-2.52775,0.95266,0.87173
424.391,22.8923,-2.53197,0.94627,0.87124
425.091,22.9141,-2.53675,0.94221,0.87074
425.791,22.93586,-2.54106,0.93731,0.87025
426.491,22.95768,-2.54488,0.93312,0.86976
427.191,22.97948,-2.54889,0.92626,0.86926
427.891,23.0013,-2.55275,0.9212,0.86877
428.591,23.02313,-2.55724,0.91613,0.86827
429.291,23.04489,-2.5612,0.91236,0.86778
429.991,23.06671,-2.56507,0.90898,0.86728
430.691,23.08855,-2.56808,0.90229,0.86679
431.391,23.11041,-2.57164,0.8983,0.86629
432.091,23.1324,-2.57687,0.89418,0.8658
432.791,23.1541,-2.5811,0.88991,0.8653
433.491,23.1758,-2.58498,0.88574,0.8648
434.191,23.19755,-2.58846,0.88298,0.8643
434.891,23.21937,-2.59208,0.8793,0.86381
435.591,23.2413,-2.59511,0.87849,0.86331
436.291,23.26333,-2.59906,0.87323,0.86281
436.991,23.2853,-2.60174,0.86731,0.86231
437.691,23.3072,-2.60479,0.86489,0.86181
438.391,23.3291,-2.60758,0.8657,0.86131
439.091,23.3509,-2.61074,0.85954,0.86081
439.791,23.37288,-2.61431,0.85699,0.86031
440.491,23.39477,-2.61753,0.85273,0.85981
441.191,23.41666,-2.62287,0.84883,0.85931
441.891,23.4387,-2.62631,0.84681,0.85881
442.591,23.46045,-2.62925,0.84539,0.85831
443.291,23.48225,-2.63175,0.84252,0.8578
443.991,23.50398,-2.63313,0.83867,0.8573
444.691,23.52574,-2.63634,0.83758,0.8568
445.391,23.54769,-2.63992,0.834,0.85629
446.091,23.56973,-2.64342,0.82956,0.85579
446.791,23.59185,-2.64564,0.82623,0.85529
447.491,23.61373,-2.64792,0.8235,0.85478
448.191,23.6356,-2.65026,0.82016,0.85428
448.891,23.6575,-2.65287,0.8172,0.85377
449.591,23.6795,-2.65582,0.81476,0.85327
450.291,23.7015,-2.65891,0.81148,0.85276
450.991,23.7237,-2.66177,0.80663,0.85226
451.691,23.74566,-2.66419,0.80385,0.85175
452.391,23.76771,-2.66707,0.80006,0.85124
453.091,23.7897,-2.66978,0.79772,0.85074
453.791,23.81169,-2.67233,0.79334,0.85023
454.491,23.83371,-2.67536,0.78929,0.84972
455.191,23.85566,-2.67818,0.78632,0.84921
455.891,23.8777,-2.68079,0.78406,0.8487
456.591,23.8997,-2.68306,0.78059,0.84819
457.291,23.9217,-2.68511,0.77714,0.84768
457.991,23.94381,-2.68705,0.77524,0.84718
458.691,23.9659,-2.68899,0.77232,0.84667
459.391,23.98791,-2.69162,0.76735,0.84616
460.091,24.01,-2.6944,0.76357,0.84564
460.791,24.03201,-2.69638,0.76264,0.84513
461.491,24.05405,-2.69929,0.75747,0.84462
462.191,24.07614,-2.70162,0.7564,0.84411
462.891,24.0982,-2.70325,0.7521,0.8436
463.591,24.1203,-2.70516,0.75013,0.84309
464.291,24.1423,-2.70698,0.74501,0.84257
464.991,24.16435,-2.70843,0.74305,0.84206
465.691,24.18654,-2.7123,0.73947,0.84155
466.391,24.20875,-2.71483,0.73804,0.84103
467.091,24.231,-2.71556,0.73402,0.84052
467.791,24.25318,-2.71746,0.72999,0.84001
468.491,24.27535,-2.72059,0.72529,0.83949
469.191,24.29741,-2.72285,0.72044,0.83898
469.891,24.3195,-2.72476,0.71927,0.83846
470.591,24.34163,-2.72723,0.71308,0.83795
471.291,24.36374,-2.72959,0.70859,0.83743
471.991,24.3859,-2.73167,0.70408,0.83691
472.691,24.4082,-2.73379,0.69906,0.8364
473.391,24.4301,-2.7358,0.69615,0.83588
474.091,24.45225,-2.73706,0.69278,0.83536
474.791,24.47436,-2.73859,0.68871,0.83485
475.491,24.4965,-2.74069,0.68193,0.83433
476.191,24.51886,-2.74292,0.6783,0.83381
476.891,24.54105,-2.74488,0.67244,0.83329
477.591,24.56325,-2.74689,0.66941,0.83277
478.291,24.58543,-2.74842,0.66592,0.83226
478.991,24.60759,-2.75002,0.66293,0.83174
479.691,24.6298,-2.75192,0.65872,0.83122
480.391,24.65203,-2.754,0.65569,0.8307
481.091,24.67409,-2.75552,0.65288,0.83018
481.791,24.69613,-2.7569,0.64955,0.82966
482.491,24.71817,-2.75814,0.6472,0.82913
483.191,24.74022,-2.75909,0.64589,0.82861
483.891,24.7624,-2.76019,0.64246,0.82809
484.591,24.7847,-2.76293,0.63865,0.82757
485.291,24.8069,-2.76478,0.63662,0.82705
485.991,24.82915,-2.76606,0.63562,0.82653
486.691,24.85143,-2.7677,0.63396,0.826
487.391,24.8736,-2.76978,0.63185,0.82548
488.091,24.89586,-2.77167,0.63108,0.82496
488.791,24.9181,-2.77296,0.62783,0.82443
489.491,24.94035,-2.77343,0.6251,0.82391
490.191,24.9627,-2.77517,0.62501,0.82339
490.891,24.98498,-2.7781,0.621,0.82286
491.591,25.00725,-2.77998,0.61936,0.82234
492.291,25.02949,-2.78153,0.61784,0.82181
492.991,25.05169,-2.78254,0.61701,0.82129
493.691,25.07398,-2.7842,0.61517,0.82076
494.391,25.09638,-2.78562,0.61285,0.82024
495.091,25.11881,-2.78717,0.61256,0.81971
495.791,25.1413,-2.78864,0.61017,0.81918
496.491,25.16359,-2.79026,0.60872,0.81866
497.191,25.1859,-2.79259,0.6067,0.81813
497.891,25.20825,-2.79481,0.60458,0.8176
498.591,25.2305,-2.79649,0.60352,0.81707
499.291,25.25296,-2.79783,0.60209,0.81655
499.991,25.27531,-2.79906,0.60227,0.81602
500.691,25.2976,-2.79999,0.59975,0.81549
501.391,25.32,-2.80045,0.59872,0.81496
502.091,25.3423,-2.80167,0.59782,0.81443
502.791,25.3646,-2.8032,0.59457,0.8139
503.491,25.38689,-2.80467,0.59471,0.81337
504.191,25.4091,-2.80612,0.59302,0.81284
504.891,25.4314,-2.80694,0.59115,0.81231
505.591,25.45365,-2.80747,0.58993,0.81178
506.291,25.47606,-2.80918,0.58944,0.81125
506.991,25.49849,-2.81079,0.5869,0.81072
507.691,25.52095,-2.81246,0.5861,0.81019
508.391,25.54334,-2.81378,0.58446,0.80966
509.091,25.5657,-2.81507,0.58379,0.80913
509.791,25.58811,-2.8157,0.58202,0.8086
510.491,25.61028,-2.81836,0.58024,0.80806
511.191,25.6326,-2.82013,0.57879,0.80753
511.891,25.65495,-2.82161,0.57807,0.807
512.591,25.67728,-2.82108,0.57729,0.80647
513.291,25.6998,-2.82185,0.57757,0.80593
513.991,25.72237,-2.82343,0.57436,0.8054
514.691,25.74473,-2.82383,0.57287,0.80487
515.391,25.76711,-2.82469,0.57264,0.80433
516.091,25.78951,-2.82696,0.57313,0.8038
516.791,25.8118,-2.82893,0.57036,0.80326
517.491,25.83418,-2.83008,0.56979,0.80273
518.191,25.8566,-2.83116,0.56771,0.80219
518.891,25.87898,-2.83236,0.5677,0.80166
519.591,25.90148,-2.83395,0.56521,0.80112
520.291,25.924,-2.83414,0.56491,0.80059
520.991,25.9465,-2.83532,0.56306,0.80005
521.691,25.969,-2.83615,0.5609,0.79951
522.391,25.9914,-2.83716,0.56117,0.79898
523.091,26.01388,-2.83811,0.56054,0.79844
523.791,26.03632,-2.8395,0.55887,0.7979
524.491,26.0587,-2.83976,0.55875,0.79737
525.191,26.0811,-2.84104,0.55596,0.79683
525.891,26.1035,-2.84244,0.5577,0.79629
526.591,26.12595,-2.84296,0.55569,0.79575
527.291,26.14845,-2.84288,0.55294,0.79521
527.991,26.17095,-2.84462,0.55282,0.79467
528.691,26.19342,-2.84556,0.55306,0.79414
529.391,26.21589,-2.84589,0.55074,0.7936
530.091,26.23831,-2.84754,0.55013,0.79306
530.791,26.2607,-2.84828,0.54892,0.79252
531.491,26.28312,-2.84907,0.54783,0.79198
532.191,26.30552,-2.85006,0.5473,0.79144
532.891,26.328,-2.85047,0.54482,0.7909
533.591,26.3505,-2.85252,0.54441,0.79036
534.291,26.37305,-2.85247,0.54516,0.78982
534.991,26.39562,-2.85368,0.54161,0.78928
535.691,26.4181,-2.85496,0.54203,0.78873
536.391,26.4406,-2.85612,0.54071,0.78819
537.091,26.4631,-2.85777,0.53854,0.78765
537.791,26.4856,-2.85877,0.53905,0.78711
538.491,26.50811,-2.85948,0.53944,0.78657
539.191,26.5306,-2.86061,0.53759,0.78603
539.891,26.5532,-2.86065,0.53632,0.78548
540.591,26.5757,-2.86201,0.53769,0.78494
541.291,26.5982,-2.86213,0.53757,0.7844
541.991,26.62068,-2.86334,0.53636,0.78385
542.691,26.6431,-2.86458,0.53545,0.78331
543.391,26.66568,-2.86479,0.53499,0.78277
544.091,26.6882,-2.86528,0.53434,0.78222
544.791,26.71088,-2.86535,0.53556,0.78168
545.491,26.73351,-2.86674,0.53462,0.78113
546.191,26.7561,-2.86656,0.53334,0.78059
546.891,26.7786,-2.86807,0.53218,0.78004
547.591,26.8011,-2.86885,0.53176,0.7795
548.291,26.82368,-2.86963,0.53161,0.77895
548.991,26.8463,-2.87115,0.53023,0.77841
549.691,26.86882,-2.87192,0.53181,0.77786
550.391,26.8914,-2.87237,0.53025,0.77732
551.091,26.91403,-2.87307,0.53156,0.77677
551.791,26.9366,-2.87501,0.53272,0.77623
552.491,26.9591,-2.87526,0.52943,0.77568
553.191,26.98152,-2.8763,0.52809,0.77513
553.891,27.0041,-2.87707,0.52898,0.77459
554.591,27.0267,-2.87763,0.52863,0.77404
555.291,27.0495,-2.87827,0.52898,0.77349
555.991,27.07222,-2.87768,0.52929,0.77294
556.691,27.0948,-2.87899,0.5302,0.7724
557.391,27.1174,-2.87906,0.53084,0.77185
558.091,27.14006,-2.87906,0.53121,0.7713
558.791,27.16273,-2.87995,0.52937,0.77075
559.491,27.1854,-2.88038,0.53062,0.7702
560.191,27.208,-2.88212,0.53011,0.76965
560.891,27.2307,-2.88317,0.53161,0.7691
561.591,27.2533,-2.88468,0.52941,0.76856
562.291,27.27598,-2.885,0.52869,0.76801
562.991,27.29867,-2.88599,0.52928,0.76746
563.691,27.32122,-2.88599,0.53217,0.76691
564.391,27.3439,-2.88632,0.53006,0.76636
565.091,27.3666,-2.88732,0.52995,0.76581
565.791,27.38925,-2.88762,0.5317,0.76526
566.491,27.4119,-2.8873,0.53203,0.76471
567.191,27.4346,-2.8881,0.53278,0.76416
567.891,27.4572,-2.88861,0.52945,0.7636
568.591,27.48,-2.88927,0.53166,0.76305
569.291,27.5027,-2.88992,0.53167,0.7625
569.991,27.5254,-2.88988,0.53367,0.76195
570.691,27.54815,-2.89114,0.53329,0.7614
571.391,27.5707,-2.89258,0.5326,0.76085
572.091,27.59344,-2.89258,0.53237,0.76029
572.791,27.6161,-2.89313,0.53268,0.75974
573.491,27.63881,-2.89399,0.53463,0.75919
574.191,27.66168,-2.89538,0.53393,0.75864
574.891,27.68445,-2.89532,0.534,0.75808
575.591,27.70723,-2.89539,0.53546,0.75753
576.291,27.72997,-2.89542,0.53313,0.75698
576.991,27.75265,-2.89737,0.53304,0.75643
577.691,27.7754,-2.8981,0.53573,0.75587
578.391,27.7981,-2.89952,0.53799,0.75532
579.091,27.8208,-2.8995,0.53784,0.75476
579.791,27.8436,-2.89846,0.53849,0.75421
580.491,27.86628,-2.89913,0.53961,0.75366
581.191,27.8891,-2.89949,0.5415,0.7531
581.891,27.9118,-2.89945,0.54283,0.75255
582.591,27.93458,-2.90072,0.54474,0.75199
583.291,27.9572,-2.9007,0.54423,0.75144
583.991,27.97997,-2.90343,0.54387,0.75088
584.691,28.00277,-2.90343,0.54476,0.75033
585.391,28.0255,-2.90441,0.54692,0.74977
586.091,28.0484,-2.90481,0.5478,0.74922
586.791,28.0711,-2.90781,0.54911,0.74866
587.491,28.09388,-2.90778,0.54856,0.7481
588.191,28.1166,-2.9068,0.55026,0.74755
588.891,28.13938,-2.90754,0.55263,0.74699
589.591,28.1622,-2.90653,0.55097,0.74644
590.291,28.18498,-2.90651,0.55161,0.74588
590.991,28.2079,-2.90766,0.55367,0.74532
591.691,28.2306,-2.90782,0.55535,0.74477
592.391,28.2534,-2.90879,0.55732,0.74421
593.091,28.27617,-2.90914,0.55763,0.74365
593.791,28.299,-2.91056,0.55751,0.74309
594.491,28.3219,-2.91058,0.56114,0.74254
595.191,28.34474,-2.91198,0.56593,0.74198
595.891,28.36754,-2.91234,0.56611,0.74142
596.591,28.39035,-2.9132,0.56572,0.74086
597.291,28.41318,-2.91468,0.56638,0.7403
597.991,28.436,-2.91324,0.56976,0.73975
598.691,28.45885,-2.91315,0.57192,0.73919
599.391,28.48177,-2.91453,0.5734,0.73863
600.091,28.50447,-2.91457,0.57312,0.73807
600.791,28.5272,-2.9159,0.5774,0.73751
601.491,28.54986,-2.91584,0.57628,0.73695
602.191,28.57256,-2.91699,0.57729,0.73639
602.891,28.5956,-2.91715,0.57999,0.73583
603.591,28.61855,-2.91715,0.58054,0.73527
604.291,28.6414,-2.91761,0.58012,0.73471
604.991,28.6642,-2.91848,0.57964,0.73416
605.691,28.68696,-2.91975,0.58246,0.7336
606.391,28.70989,-2.92111,0.57964,0.73304
607.091,28.7329,-2.91958,0.58064,0.73247
607.791,28.75593,-2.92105,0.58178,0.73191
608.491,28.77879,-2.92102,0.5802,0.73135
609.191,28.8016,-2.9221,0.57648,0.73079
609.891,28.8245,-2.92229,0.5781,0.73023
610.591,28.84732,-2.92158,0.57823,0.72967
611.291,28.8702,-2.92099,0.57987,0.72911
611.991,28.89306,-2.92123,0.5791,0.72855
612.691,28.91595,-2.92288,0.5783,0.72799
613.391,28.93887,-2.92298,0.57746,0.72743
614.091,28.96175,-2.92377,0.58001,0.72687
614.791,28.98457,-2.92417,0.57816,0.7263
615.491,29.00743,-2.92628,0.57508,0.72574
616.191,29.03029,-2.92638,0.57209,0.72518
616.891,29.0532,-2.92756,0.57217,0.72462
617.591,29.0761,-2.92771,0.5747,0.72406
618.291,29.09893,-2.92858,0.57522,0.72349
618.991,29.1218,-2.9304,0.57592,0.72293
619.691,29.14472,-2.93002,0.5762,0.72237
620.391,29.16759,-2.93017,0.57522,0.7218
621.091,29.1905,-2.93022,0.57447,0.72124
621.791,29.2133,-2.93019,0.57626,0.72068
622.491,29.2362,-2.93136,0.5742,0.72012
623.191,29.2591,-2.93154,0.57402,0.71955
623.891,29.28197,-2.93235,0.57492,0.71899
624.591,29.3048,-2.93284,0.57554,0.71843
625.291,29.3277,-2.93285,0.57502,0.71786
625.991,29.3505,-2.93322,0.57447,0.7173
626.691,29.37339,-2.93415,0.57661,0.71673
627.391,29.39633,-2.93428,0.57652,0.71617
628.091,29.4193,-2.9355,0.57698,0.71561
628.791,29.44228,-2.93545,0.57644,0.71504
629.491,29.46517,-2.93674,0.57628,0.71448
630.191,29.48808,-2.9368,0.5766,0.71391
630.891,29.5111,-2.93679,0.57587,0.71335
631.591,29.534,-2.93944,0.57787,0.71278
632.291,29.557,-2.93944,0.57488,0.71222
632.991,29.5798,-2.93944,0.57548,0.71165
633.691,29.60262,-2.93944,0.57195,0.71109
634.391,29.6255,-2.93952,0.57384,0.71052
635.091,29.6484,-2.94079,0.57318,0.70996
635.791,29.6714,-2.94081,0.57472,0.70939
636.491,29.6944,-2.94212,0.57388,0.70883
637.191,29.71738,-2.94207,0.57384,0.70826
637.891,29.7403,-2.94207,0.5735,0.7077
638.591,29.76325,-2.94326,0.57299,0.70713
639.291,29.7862,-2.9434,0.57374,0.70657
639.991,29.80916,-2.94398,0.57353,0.706
640.691,29.83216,-2.9447,0.57502,0.70543
641.391,29.8551,-2.94466,0.57164,0.70487
642.091,29.8781,-2.94595,0.57264,0.7043
642.791,29.90111,-2.94603,0.57435,0.70374
643.491,29.92391,-2.94676,0.57259,0.70317
644.191,29.9467,-2.94733,0.56879,0.7026
644.891,29.96957,-2.94736,0.57236,0.70204
645.591,29.9925,-2.9469,0.573,0.70147
646.291,30.0157,-2.94801,0.57091,0.7009
646.991,30.0388,-2.948,0.57334,0.70034
647.691,30.0618,-2.948,0.56979,0.69977
648.391,30.0848,-2.94802,0.56898,0.6992
649.091,30.1077,-2.94877,0.56976,0.69863
649.791,30.1307,-2.94931,0.56697,0.69807
650.491,30.1537,-2.95005,0.56855,0.6975
651.191,30.17669,-2.95,0.56648,0.69693
651.891,30.1997,-2.9506,0.56359,0.69637
652.591,30.22268,-2.95129,0.56556,0.6958
653.291,30.24567,-2.95167,0.5645,0.69523
653.991,30.26861,-2.95195,0.5637,0.69466
654.691,30.29161,-2.95274,0.56038,0.69409
655.391,30.31461,-2.95326,0.56029,0.69353
656.091,30.33762,-2.95327,0.55803,0.69296
656.791,30.3606,-2.95365,0.55809,0.69239
657.491,30.3836,-2.95426,0.55467,0.69182
658.191,30.40663,-2.95329,0.55445,0.69125
658.891,30.42969,-2.95391,0.55314,0.69069
659.591,30.45277,-2.95466,0.55111,0.69012
660.291,30.4758,-2.95582,0.5509,0.68955
660.991,30.4988,-2.95656,0.54978,0.68898
661.691,30.52184,-2.95653,0.55032,0.68841
662.391,30.5449,-2.95781,0.54883,0.68784
663.091,30.56795,-2.95788,0.54779,0.68727
663.791,30.5909,-2.95791,0.54847,0.6867
664.491,30.61395,-2.95925,0.5484,0.68614
665.191,30.6369,-2.95933,0.54706,0.68557
665.891,30.65985,-2.96052,0.54428,0.685
666.591,30.68279,-2.96049,0.54253,0.68443
667.291,30.7057,-2.95907,0.5407,0.68386
667.991,30.7287,-2.96017,0.54229,0.68329
668.691,30.75174,-2.96024,0.54152,0.68272
669.391,30.77488,-2.96051,0.53987,0.68215
670.091,30.79797,-2.96048,0.53894,0.68158
670.791,30.821,-2.96187,0.53865,0.68101
671.491,30.8441,-2.96184,0.53708,0.68044
672.191,30.86705,-2.96175,0.53623,0.67987
672.891,30.89002,-2.96316,0.53384,0.6793
673.591,30.9131,-2.96318,0.53469,0.67873
674.291,30.93608,-2.96375,0.53401,0.67816
674.991,30.9592,-2.96448,0.53126,0.67759
675.691,30.98237,-2.96449,0.53171,0.67702
676.391,31.00538,-2.96498,0.53014,0.67645
677.091,31.02853,-2.96579,0.52838,0.67588
677.791,31.0517,-2.96576,0.52891,0.67531
678.491,31.07487,-2.96704,0.5264,0.67474
679.191,31.09812,-2.96711,0.52468,0.67417
679.891,31.12122,-2.96711,0.5236,0.6736
680.591,31.14426,-2.96707,0.52338,0.67303
681.291,31.16736,-2.96831,0.52258,0.67246
681.991,31.19043,-2.96843,0.51908,0.67189
682.691,31.2135,-2.96843,0.5174,0.67132
683.391,31.23653,-2.96833,0.51658,0.67075
684.091,31.2596,-2.96974,0.51361,0.67018
684.791,31.2827,-2.96976,0.51497,0.66961
685.491,31.30583,-2.97114,0.51107,0.66904
686.191,31.3289,-2.97106,0.51177,0.66847
686.891,31.35199,-2.97102,0.51216,0.6679
687.591,31.37505,-2.97301,0.50933,0.66732
688.291,31.39818,-2.97336,0.50927,0.66675
688.991,31.4213,-2.97381,0.50681,0.66618
689.691,31.44442,-2.97472,0.5067,0.66561
690.391,31.4675,-2.97416,0.50273,0.66504
691.091,31.49057,-2.97534,0.50475,0.66447
691.791,31.5137,-2.9746,0.50441,0.6639
692.491,31.53675,-2.97573,0.50261,0.66333
693.191,31.5599,-2.976,0.50136,0.66276
693.891,31.5831,-2.976,0.50014,0.66218
694.591,31.6062,-2.97611,0.49883,0.66161
695.291,31.62932,-2.97734,0.49916,0.66104
695.991,31.6524,-2.97664,0.49724,0.66047
696.691,31.67557,-2.97674,0.4949,0.6599
697.391,31.6987,-2.978,0.4924,0.65933
698.091,31.7219,-2.97798,0.49206,0.65876
698.791,31.745,-2.97807,0.49193,0.65818
699.491,31.76813,-2.9781,0.49053,0.65761
700.191,31.79125,-2.97863,0.48998,0.65704
700.891,31.81435,-2.97863,0.48681,0.65647
701.591,31.83752,-2.97858,0.48675,0.6559
702.291,31.8607,-2.97997,0.48433,0.65533
702.991,31.8838,-2.97994,0.48363,0.65475
703.691,31.90703,-2.98069,0.48252,0.65418
704.391,31.93017,-2.98226,0.47864,0.65361
705.091,31.9533,-2.98226,0.47677,0.65304
705.791,31.97648,-2.98227,0.47574,0.65247
706.491,31.9996,-2.98288,0.47198,0.6519
707.191,32.02276,-2.98356,0.47144,0.65132
707.891,32.04592,-2.98348,0.47046,0.65075
708.591,32.06906,-2.98489,0.47059,0.65018
709.291,32.0922,-2.98489,0.4692,0.64961
709.991,32.11522,-2.98492,0.46926,0.64904
710.691,32.13841,-2.98452,0.46591,0.64846
711.391,32.1616,-2.98488,0.46394,0.64789
712.091,32.18486,-2.98489,0.45986,0.64732
712.791,32.20824,-2.98485,0.45813,0.64675
713.491,32.23148,-2.98625,0.45632,0.64618
714.191,32.25475,-2.9863,0.45584,0.6456
714.891,32.27791,-2.98723,0.45639,0.64503
715.591,32.30101,-2.9872,0.45294,0.64446
716.291,32.3242,-2.98722,0.44745,0.64389
716.991,32.3474,-2.98792,0.44676,0.64332
717.691,32.37062,-2.98851,0.4451,0.64274
718.391,32.39393,-2.98852,0.44359,0.64217
719.091,32.41724,-2.98894,0.44371,0.6416
719.791,32.44055,-2.98983,0.44156,0.64103
720.491,32.4639,-2.98982,0.44049,0.64045
721.191,32.4872,-2.98974,0.43964,0.63988
721.891,32.51043,-2.99115,0.43639,0.63931
722.591,32.53365,-2.99111,0.43704,0.63874
723.291,32.55699,-2.99233,0.43681,0.63817
723.991,32.58025,-2.99247,0.43461,0.63759
724.691,32.60362,-2.99188,0.42891,0.63702
725.391,32.62695,-2.99017,0.43017,0.63645
726.091,32.6503,-2.98916,0.4276,0.63588
726.791,32.6736,-2.98724,0.42755,0.6353
727.491,32.6969,-2.98683,0.4258,0.63473
728.191,32.72018,-2.98775,0.42518,0.63416
728.891,32.74351,-2.98768,0.42316,0.63359
729.591,32.76684,-2.98917,0.4216,0.63302
730.291,32.79017,-2.99038,0.42234,0.63244
730.991,32.81357,-2.99038,0.41746,0.63187
731.691,32.8369,-2.99037,0.41922,0.6313
732.391,32.86016,-2.99039,0.4122,0.63073
733.091,32.8835,-2.99311,0.41285,0.63015
733.791,32.90678,-2.99301,0.40999,0.62958
734.491,32.93012,-2.99301,0.40757,0.62901
735.191,32.9535,-2.99321,0.40669,0.62844
735.891,32.97687,-2.99574,0.40546,0.62787
736.591,33.00022,-2.99565,0.4035,0.62729
737.291,33.02361,-2.99582,0.40356,0.62672
737.991,33.047,-2.997,0.40464,0.62615
738.691,33.07042,-2.99697,0.40205,0.62558
739.391,33.0938,-2.99729,0.39887,0.62501
740.091,33.11711,-2.99938,0.39916,0.62443
740.791,33.14048,-2.99961,0.39756,0.62386
741.491,33.16386,-2.99961,0.3939,0.62329
742.191,33.1873,-2.99961,0.39357,0.62272
742.891,33.21066,-2.99961,0.39027,0.62214
743.591,33.23401,-3.00199,0.38883,0.62157
744.291,33.25717,-3.00222,0.38647,0.621
744.991,33.28049,-3.00225,0.38529,0.62043
745.691,33.30381,-3.00356,0.38409,0.61986
746.391,33.32712,-3.00219,0.38059,0.61928
747.091,33.35067,-3.00263,0.37784,0.61871
747.791,33.37405,-3.00353,0.37442,0.61814
748.491,33.3975,-3.00356,0.37536,0.61757
749.191,33.42091,-3.00356,0.3739,0.617
749.891,33.4443,-3.00394,0.37052,0.61643
750.591,33.4677,-3.00489,0.36702,0.61585
751.291,33.491,-3.00351,0.36731,0.61528
751.991,33.51441,-3.00355,0.36692,0.61471
752.691,33.5378,-3.00351,0.36567,0.61414
753.391,33.56116,-3.00455,0.3612,0.61357
754.091,33.5846,-3.00454,0.35725,0.61299
754.791,33.60779,-3.00451,0.3517,0.61242
755.491,33.63108,-3.00485,0.35012,0.61185
756.191,33.65441,-3.00588,0.34998,0.61128
756.891,33.67775,-3.00618,0.35036,0.61071
757.591,33.70115,-3.00619,0.35274,0.61014
758.291,33.72449,-3.0062,0.34624,0.60956
758.991,33.7478,-3.00667,0.34123,0.60899
759.691,33.7712,-3.00706,0.34106,0.60842
760.391,33.79459,-3.00624,0.34067,0.60785
761.091,33.818,-3.00699,0.33553,0.60728
761.791,33.84142,-3.00751,0.33501,0.60671
762.491,33.8647,-3.00751,0.33472,0.60614
763.191,33.88808,-3.0075,0.33267,0.60557
763.891,33.91141,-3.00888,0.32691,0.60499
764.591,33.9347,-3.00883,0.3261,0.60442
765.291,33.9581,-3.00883,0.32365,0.60385
765.991,33.98152,-3.00744,0.31855,0.60328
766.691,34.0049,-3.00889,0.31778,0.60271
767.391,34.0283,-3.00831,0.31711,0.60214
768.091,34.05165,-3.00751,0.31376,0.60157
768.791,34.075,-3.00705,0.30987,0.601
769.491,34.0983,-3.00618,0.30623,0.60043
770.191,34.12168,-3.00631,0.30389,0.59985
770.891,34.14506,-3.00752,0.29939,0.59928
771.591,34.1685,-3.00751,0.29493,0.59871
772.291,34.19194,-3.00749,0.29676,0.59814
772.991,34.21529,-3.00854,0.29267,0.59757
773.691,34.23872,-3.00793,0.29299,0.597
774.391,34.26215,-3.00796,0.29162,0.59643
775.091,34.28563,-3.00848,0.29061,0.59586
775.791,34.30907,-3.00926,0.28589,0.59529
776.491,34.33249,-3.00926,0.28593,0.59472
777.191,34.3559,-3.0093,0.284,0.59415
777.891,34.37935,-3.01189,0.28651,0.59358
778.591,34.40272,-3.01281,0.28598,0.59301
779.291,34.42615,-3.01321,0.27959,0.59244
779.991,34.44952,-3.01475,0.28145,0.59187
780.691,34.473,-3.01589,0.28107,0.5913
781.391,34.49645,-3.0175,0.27548,0.59073
782.091,34.5199,-3.01881,0.27546,0.59016
782.791,34.54336,-3.01884,0.27425,0.58959
783.491,34.5668,-3.01922,0.27564,0.58902
784.191,34.5903,-3.02014,0.27729,0.58845
784.891,34.61375,-3.02205,0.27249,0.58788
785.591,34.6372,-3.02441,0.27276,0.58731
786.291,34.66065,-3.0266,0.27144,0.58674
786.991,34.68403,-3.02911,0.26993,0.58617
787.691,34.70742,-3.02914,0.26799,0.5856
788.391,34.73081,-3.02916,0.26186,0.58503
789.091,34.75428,-3.02757,0.25919,0.58446
789.791,34.7778,-3.02602,0.25795,0.58389
790.491,34.80125,-3.02684,0.25888,0.58332
791.191,34.8247,-3.02572,0.25663,0.58275
791.891,34.84806,-3.02407,0.25647,0.58218
792.591,34.87147,-3.02389,0.25128,0.58161
793.291,34.89492,-3.02352,0.25192,0.58105
793.991,34.9184,-3.02253,0.25322,0.58048
794.691,34.9418,-3.02175,0.24963,0.57991
795.391,34.9652,-3.0216,0.2445,0.57934
796.091,34.98852,-3.02087,0.24727,0.57877
796.391,34.99837,-3.02075,0.24576,0.57853