File: 01_Data/Feather_Pillow_Feathers/STA/N2/30K_min/Feather_Pillow_Feathers_STA_N2_30KData_2236_R2.csv
##Temp./Â°C,Time/min,Mass loss(subtr.2)/mg,DSC(subtr.2)/(mW/mg),Sensit./(uV/mW)
48.557,10.01,-0.05797,0.03745291,1.054
49.257,10.5611,-0.06137384,0.07711998,1.05386
49.957,10.68342,-0.06272698,0.10552,1.05372
50.657,10.7765,-0.06301856,0.13833,1.05358
51.357,10.84989,-0.05970552,0.16733,1.05343
52.057,10.91339,-0.06168794,0.19297,1.05329
52.757,10.9689,-0.06043489,0.21509,1.05314
53.457,11.0215,-0.06241592,0.24145,1.05299
54.157,11.07036,-0.06151385,0.25992,1.05284
54.857,11.11544,-0.06339316,0.28149,1.0527
55.557,11.15829,-0.06209266,0.30114,1.05255
56.257,11.199,-0.06581914,0.32135,1.0524
56.957,11.238,-0.06429599,0.33805,1.05224
57.657,11.27571,-0.0644818,0.35454,1.05209
58.357,11.31197,-0.06669444,0.37168,1.05194
59.057,11.34695,-0.06420158,0.39068,1.05178
59.757,11.38137,-0.065198,0.40493,1.05163
60.457,11.4149,-0.06642239,0.42023,1.05147
61.157,11.44753,-0.06408212,0.43476,1.05131
61.857,11.47937,-0.06420144,0.45037,1.05116
62.557,11.51056,-0.06553845,0.46469,1.051
63.257,11.54151,-0.06607082,0.47649,1.05084
63.957,11.57194,-0.0667735,0.4932,1.05068
64.657,11.60172,-0.06823359,0.50536,1.05052
65.357,11.631,-0.06634948,0.51504,1.05035
66.057,11.66014,-0.06455938,0.52959,1.05019
66.757,11.68896,-0.06526042,0.54461,1.05003
67.457,11.71717,-0.06687612,0.55474,1.04986
68.157,11.74522,-0.06586094,0.56754,1.0497
68.857,11.77307,-0.06547994,0.58035,1.04953
69.557,11.80097,-0.06662805,0.5932,1.04936
70.257,11.82837,-0.06863143,0.60383,1.04919
70.957,11.85546,-0.06841779,0.61756,1.04902
71.657,11.88246,-0.06744919,0.62949,1.04885
72.357,11.9092,-0.06896143,0.64074,1.04868
73.057,11.93576,-0.06952526,0.65187,1.04851
73.757,11.96214,-0.06771237,0.66464,1.04834
74.457,11.98842,-0.06758626,0.67746,1.04816
75.157,12.01454,-0.06935042,0.68815,1.04799
75.857,12.04049,-0.07048285,0.70051,1.04781
76.557,12.06626,-0.06920556,0.71068,1.04764
77.257,12.09207,-0.07047818,0.72374,1.04746
77.957,12.11771,-0.07075294,0.7352,1.04728
78.657,12.1432,-0.07263247,0.74744,1.0471
79.357,12.16853,-0.0719435,0.76066,1.04692
80.057,12.19389,-0.07265869,0.77171,1.04674
80.757,12.21907,-0.07410099,0.78167,1.04656
81.457,12.24416,-0.07405344,0.79389,1.04638
82.157,12.26908,-0.07411599,0.80855,1.04619
82.857,12.29383,-0.07509043,0.82128,1.04601
83.557,12.31864,-0.07623016,0.83262,1.04583
84.257,12.34356,-0.07796014,0.84287,1.04564
84.957,12.3683,-0.07755314,0.85348,1.04545
85.657,12.39296,-0.07893532,0.86618,1.04527
86.357,12.41746,-0.07945844,0.88095,1.04508
87.057,12.44186,-0.07932657,0.89035,1.04489
87.757,12.4662,-0.07941453,0.89979,1.0447
88.457,12.49032,-0.0793829,0.9132,1.04451
89.157,12.5146,-0.08038082,0.92317,1.04431
89.857,12.5387,-0.08194185,0.9323,1.04412
90.557,12.56284,-0.08201484,0.94305,1.04393
91.257,12.58699,-0.08201146,0.95122,1.04373
91.957,12.61106,-0.08199759,0.96193,1.04354
92.657,12.6351,-0.08472365,0.97181,1.04334
93.357,12.6591,-0.08471627,0.98096,1.04315
94.057,12.68299,-0.08608614,0.99001,1.04295
94.757,12.7068,-0.0860731,0.99876,1.04275
95.457,12.73064,-0.08612245,1.00598,1.04255
96.157,12.7544,-0.08892308,1.01344,1.04235
96.857,12.778,-0.08882459,1.02135,1.04215
97.557,12.80178,-0.08961747,1.02849,1.04195
98.257,12.8254,-0.09011908,1.03285,1.04174
98.957,12.84903,-0.09038162,1.0411,1.04154
99.657,12.8727,-0.09283756,1.0453,1.04133
100.357,12.89625,-0.09277776,1.05162,1.04113
101.057,12.9198,-0.09277532,1.05545,1.04092
101.757,12.9435,-0.09537009,1.05691,1.04072
102.457,12.9671,-0.09573641,1.06198,1.04051
103.157,12.9907,-0.09613179,1.06537,1.0403
103.857,13.0142,-0.09704551,1.06748,1.04009
104.557,13.0375,-0.09751537,1.0682,1.03988
105.257,13.0609,-0.09836375,1.07136,1.03967
105.957,13.08433,-0.09835274,1.06729,1.03946
106.657,13.10781,-0.09921733,1.06699,1.03924
107.357,13.1315,-0.09965478,1.06888,1.03903
108.057,13.1551,-0.10126,1.06694,1.03881
108.757,13.17859,-0.10244,1.06548,1.0386
109.457,13.202,-0.10243,1.06375,1.03838
110.157,13.22528,-0.10242,1.06212,1.03816
110.857,13.24862,-0.10369,1.05848,1.03795
111.557,13.2719,-0.10527,1.05445,1.03773
112.257,13.2952,-0.10655,1.05054,1.03751
112.957,13.3186,-0.1065,1.04651,1.03729
113.657,13.342,-0.1065,1.04332,1.03707
114.357,13.3653,-0.10652,1.03665,1.03684
115.057,13.3887,-0.10736,1.03075,1.03662
115.757,13.41196,-0.10781,1.02535,1.0364
116.457,13.4352,-0.10782,1.02084,1.03617
117.157,13.4585,-0.10827,1.01409,1.03595
117.857,13.48166,-0.11055,1.00767,1.03572
118.557,13.5047,-0.11056,0.99993,1.03549
119.257,13.5277,-0.11056,0.99226,1.03527
119.957,13.5508,-0.11098,0.98529,1.03504
120.657,13.574,-0.11203,0.97695,1.03481
121.357,13.5971,-0.11328,0.97181,1.03458
122.057,13.62036,-0.11341,0.9606,1.03435
122.757,13.6434,-0.11335,0.95477,1.03411
123.457,13.66659,-0.11477,0.94762,1.03388
124.157,13.6898,-0.11483,0.93776,1.03365
124.857,13.71282,-0.11483,0.9288,1.03341
125.557,13.73575,-0.11491,0.922,1.03318
126.257,13.7586,-0.1163,0.91399,1.03294
126.957,13.7814,-0.1175,0.90504,1.03271
127.657,13.8043,-0.11886,0.89664,1.03247
128.357,13.82707,-0.1189,0.88661,1.03223
129.057,13.85002,-0.1189,0.88071,1.03199
129.757,13.87287,-0.1189,0.87186,1.03175
130.457,13.89564,-0.1189,0.86395,1.03151
131.157,13.9184,-0.1189,0.85581,1.03127
131.857,13.94108,-0.1189,0.8496,1.03102
132.557,13.96374,-0.11886,0.8425,1.03078
133.257,13.98644,-0.12012,0.8346,1.03054
133.957,14.00889,-0.12033,0.82598,1.03029
134.657,14.03156,-0.12033,0.8198,1.03005
135.357,14.05422,-0.12035,0.81268,1.0298
136.057,14.07674,-0.12099,0.80537,1.02955
136.757,14.0995,-0.12165,0.79849,1.0293
137.457,14.12199,-0.12173,0.79376,1.02906
138.157,14.14448,-0.12302,0.78532,1.02881
138.857,14.16702,-0.12297,0.7819,1.02856
139.557,14.1895,-0.12425,0.77586,1.0283
140.257,14.21197,-0.12429,0.76992,1.02805
140.957,14.23435,-0.12428,0.76558,1.0278
141.657,14.25665,-0.12428,0.75837,1.02755
142.357,14.2789,-0.12428,0.75677,1.02729
143.057,14.3013,-0.12428,0.75062,1.02704
143.757,14.32347,-0.12432,0.74852,1.02678
144.457,14.34578,-0.12317,0.74321,1.02652
145.157,14.3681,-0.12297,0.74057,1.02627
145.857,14.3903,-0.12296,0.73853,1.02601
146.557,14.41265,-0.12355,0.73323,1.02575
147.257,14.4349,-0.12425,0.73112,1.02549
147.957,14.4571,-0.12428,0.72872,1.02523
148.657,14.47925,-0.12428,0.7272,1.02497
149.357,14.5014,-0.12428,0.72353,1.0247
150.057,14.5235,-0.12428,0.72298,1.02444
150.757,14.5457,-0.12428,0.72105,1.02418
151.457,14.56785,-0.12428,0.72001,1.02391
152.157,14.59,-0.12428,0.71936,1.02365
152.857,14.612,-0.12428,0.7165,1.02338
153.557,14.634,-0.12353,0.71723,1.02311
154.257,14.656,-0.12395,0.71479,1.02285
154.957,14.6781,-0.12427,0.71499,1.02258
155.657,14.70015,-0.12428,0.71381,1.02231
156.357,14.7222,-0.12428,0.71607,1.02204
157.057,14.74426,-0.1242,0.7139,1.02177
157.757,14.76624,-0.12556,0.7135,1.0215
158.457,14.7882,-0.12561,0.71367,1.02122
159.157,14.8101,-0.12593,0.71457,1.02095
159.857,14.83205,-0.12593,0.71287,1.02068
160.557,14.854,-0.12593,0.7123,1.0204
161.257,14.8759,-0.12592,0.71468,1.02013
161.957,14.8979,-0.12584,0.71642,1.01985
162.657,14.91983,-0.12692,0.71627,1.01957
163.357,14.94171,-0.12691,0.71698,1.0193
164.057,14.96375,-0.12669,0.71763,1.01902
164.757,14.9857,-0.12629,0.71628,1.01874
165.457,15.0076,-0.12672,0.71784,1.01846
166.157,15.02941,-0.12759,0.71915,1.01818
166.857,15.05122,-0.12758,0.72163,1.0179
167.557,15.07298,-0.12758,0.71955,1.01761
168.257,15.0948,-0.12758,0.72271,1.01733
168.957,15.1167,-0.12758,0.72182,1.01705
169.657,15.1385,-0.12757,0.72286,1.01676
170.357,15.1603,-0.12689,0.72439,1.01648
171.057,15.1821,-0.12627,0.72992,1.01619
171.757,15.2038,-0.1263,0.72753,1.0159
172.457,15.2256,-0.12766,0.72891,1.01562
173.157,15.2473,-0.12758,0.73102,1.01533
173.857,15.269,-0.12758,0.7307,1.01504
174.557,15.29067,-0.12757,0.73341,1.01475
175.257,15.31231,-0.12842,0.73546,1.01446
175.957,15.334,-0.12888,0.73885,1.01417
176.657,15.35571,-0.12889,0.73903,1.01387
177.357,15.37747,-0.12889,0.73888,1.01358
178.057,15.39911,-0.12889,0.74312,1.01329
178.757,15.4207,-0.12889,0.7427,1.01299
179.457,15.4423,-0.12889,0.74375,1.0127
180.157,15.4638,-0.1289,0.74779,1.0124
180.857,15.48535,-0.12918,0.75005,1.01211
181.557,15.5069,-0.13024,0.75071,1.01181
182.257,15.5284,-0.13021,0.75418,1.01151
182.957,15.54998,-0.13021,0.75429,1.01121
183.657,15.57151,-0.13021,0.75718,1.01091
184.357,15.593,-0.13021,0.75921,1.01061
185.057,15.61445,-0.13101,0.76072,1.01031
185.757,15.63589,-0.13165,0.76671,1.01001
186.457,15.65732,-0.13177,0.76736,1.00971
187.157,15.6788,-0.13074,0.76705,1.00941
187.857,15.7003,-0.13075,0.77075,1.0091
188.557,15.7217,-0.13075,0.77287,1.0088
189.257,15.7431,-0.13075,0.77664,1.00849
189.957,15.76446,-0.13075,0.78061,1.00819
190.657,15.7858,-0.13076,0.78458,1.00788
191.357,15.8072,-0.13118,0.78285,1.00757
192.057,15.82862,-0.13208,0.78757,1.00726
192.757,15.85,-0.13207,0.79291,1.00696
193.457,15.8714,-0.13207,0.79336,1.00665
194.157,15.89269,-0.13203,0.79951,1.00634
194.857,15.91402,-0.13281,0.80302,1.00602
195.557,15.9354,-0.13302,0.80431,1.00571
196.257,15.9566,-0.13409,0.80831,1.0054
196.957,15.97794,-0.13405,0.81102,1.00509
197.657,15.99925,-0.13405,0.81716,1.00477
198.357,16.02051,-0.13405,0.82132,1.00446
199.057,16.0417,-0.13405,0.8254,1.00414
199.757,16.06297,-0.13405,0.82916,1.00383
200.457,16.0842,-0.13405,0.8346,1.00351
201.157,16.10543,-0.13405,0.83997,1.00319
201.857,16.12667,-0.13405,0.8429,1.00287
202.557,16.14785,-0.13405,0.84942,1.00256
203.257,16.16901,-0.13405,0.85615,1.00224
203.957,16.19031,-0.13405,0.85834,1.00192
204.657,16.2115,-0.13406,0.86597,1.00159
205.357,16.2328,-0.13546,0.87193,1.00127
206.057,16.254,-0.13538,0.87725,1.00095
206.757,16.2751,-0.13537,0.88458,1.00063
207.457,16.2963,-0.13537,0.89352,1.0003
208.157,16.3174,-0.13552,0.90136,0.99998
208.857,16.33857,-0.13682,0.90496,0.99965
209.557,16.3598,-0.13679,0.91323,0.99933
210.257,16.38092,-0.13676,0.92292,0.999
210.957,16.40205,-0.13543,0.9323,0.99867
211.657,16.4232,-0.13549,0.94325,0.99835
212.357,16.4443,-0.13689,0.9522,0.99802
213.057,16.46547,-0.13679,0.96298,0.99769
213.757,16.48665,-0.13669,0.9741,0.99736
214.457,16.50778,-0.13809,0.98482,0.99703
215.157,16.52896,-0.13809,1.00232,0.9967
215.857,16.5501,-0.13965,1.01588,0.99636
216.557,16.57118,-0.13965,1.0295,0.99603
217.257,16.59233,-0.13967,1.0447,0.9957
217.957,16.61342,-0.14107,1.06475,0.99536
218.657,16.6345,-0.14136,1.08183,0.99503
219.357,16.65564,-0.14235,1.10204,0.99469
220.057,16.6768,-0.14357,1.12355,0.99436
220.757,16.698,-0.1437,1.14502,0.99402
221.457,16.71913,-0.14366,1.16878,0.99368
222.157,16.74036,-0.14525,1.19571,0.99334
222.857,16.76146,-0.14687,1.2242,0.993
223.557,16.78262,-0.1474,1.25289,0.99266
224.257,16.8038,-0.14819,1.28549,0.99232
224.957,16.82487,-0.14975,1.31725,0.99198
225.657,16.84601,-0.15135,1.35483,0.99164
226.357,16.8671,-0.15297,1.39163,0.9913
227.057,16.88811,-0.15332,1.43192,0.99096
227.757,16.90915,-0.15469,1.47302,0.99061
228.457,16.9303,-0.15637,1.51776,0.99027
229.157,16.95149,-0.15821,1.56652,0.98992
229.857,16.9727,-0.16112,1.61325,0.98958
230.557,16.99411,-0.16176,1.66171,0.98923
231.257,17.01526,-0.16237,1.719,0.98888
231.957,17.03639,-0.16358,1.76715,0.98854
232.657,17.0575,-0.16675,1.82002,0.98819
233.357,17.07852,-0.16878,1.87088,0.98784
234.057,17.09962,-0.1698,1.91833,0.98749
234.757,17.12084,-0.17181,1.96309,0.98714
235.457,17.14206,-0.17507,2.00518,0.98679
236.157,17.16339,-0.17907,2.04211,0.98644
236.857,17.1846,-0.18174,2.07315,0.98608
237.557,17.20586,-0.18364,2.09922,0.98573
238.257,17.22702,-0.1869,2.12351,0.98538
238.957,17.2483,-0.19063,2.14099,0.98502
239.657,17.2695,-0.19447,2.15452,0.98467
240.357,17.2907,-0.19681,2.16362,0.98431
241.057,17.31191,-0.19941,2.17139,0.98395
241.757,17.3331,-0.2026,2.1759,0.9836
242.457,17.35429,-0.20758,2.17723,0.98324
243.157,17.37545,-0.21135,2.17598,0.98288
243.857,17.39665,-0.21366,2.1754,0.98252
244.557,17.41785,-0.21621,2.17359,0.98216
245.257,17.439,-0.21999,2.16468,0.9818
245.957,17.46019,-0.22465,2.15623,0.98144
246.657,17.48135,-0.22838,2.14783,0.98108
247.357,17.50244,-0.23126,2.13689,0.98072
248.057,17.52355,-0.23402,2.12678,0.98036
248.757,17.5447,-0.23844,2.11784,0.97999
249.457,17.56579,-0.24326,2.10652,0.97963
250.157,17.58691,-0.24776,2.09636,0.97926
250.857,17.60807,-0.25071,2.08486,0.9789
251.557,17.6292,-0.25315,2.07395,0.97853
252.257,17.65031,-0.25707,2.06407,0.97817
252.957,17.67141,-0.26086,2.0537,0.9778
253.657,17.6925,-0.26446,2.04587,0.97743
254.357,17.71357,-0.26728,2.03613,0.97706
255.057,17.73465,-0.27049,2.02896,0.97669
255.757,17.7557,-0.27528,2.02236,0.97632
256.457,17.77664,-0.28015,2.01632,0.97595
257.157,17.79776,-0.28461,2.01295,0.97558
257.857,17.81887,-0.28723,2.00848,0.97521
258.557,17.84,-0.29027,2.0035,0.97484
259.257,17.86113,-0.29438,2.00161,0.97446
259.957,17.8821,-0.30008,1.99987,0.97409
260.657,17.9031,-0.30451,1.9992,0.97372
261.357,17.9242,-0.30745,1.99866,0.97334
262.057,17.94527,-0.31022,2.00176,0.97297
262.757,17.96654,-0.31424,2.00006,0.97259
263.457,17.98765,-0.31906,2.00298,0.97221
264.157,18.0087,-0.32442,2.0057,0.97184
264.857,18.02982,-0.32834,2.00985,0.97146
265.557,18.05087,-0.33123,2.01475,0.97108
266.257,18.0719,-0.33587,2.01852,0.9707
266.957,18.09301,-0.34065,2.02417,0.97032
267.657,18.11407,-0.34515,2.0306,0.96994
268.357,18.13516,-0.34907,2.03694,0.96956
269.057,18.1563,-0.35226,2.04311,0.96918
269.757,18.17738,-0.35817,2.04902,0.9688
270.457,18.1984,-0.36342,2.05474,0.96841
271.157,18.21949,-0.36843,2.06233,0.96803
271.857,18.24053,-0.37338,2.06777,0.96764
272.557,18.26165,-0.37854,2.07409,0.96726
273.257,18.28275,-0.38462,2.07976,0.96687
273.957,18.30385,-0.39049,2.08586,0.96649
274.657,18.325,-0.39453,2.09204,0.9661
275.357,18.3461,-0.39854,2.09741,0.96572
276.057,18.36727,-0.40457,2.10223,0.96533
276.757,18.3884,-0.41036,2.10417,0.96494
277.457,18.40945,-0.41611,2.11002,0.96455
278.157,18.43056,-0.42114,2.114,0.96416
278.857,18.4516,-0.42642,2.11537,0.96377
279.557,18.47278,-0.43302,2.11625,0.96338
280.257,18.4939,-0.43943,2.11869,0.96299
280.957,18.51507,-0.44493,2.12222,0.9626
281.657,18.53623,-0.45077,2.12147,0.9622
282.357,18.55733,-0.45539,2.12559,0.96181
283.057,18.5785,-0.46171,2.12639,0.96142
283.757,18.59959,-0.46766,2.12689,0.96102
284.457,18.62071,-0.4749,2.12893,0.96063
285.157,18.64188,-0.47955,2.12947,0.96023
285.857,18.66303,-0.48518,2.13145,0.95984
286.557,18.68413,-0.49072,2.13214,0.95944
287.257,18.70523,-0.49822,2.13246,0.95904
287.957,18.72632,-0.50397,2.13473,0.95865
288.657,18.74746,-0.51086,2.13634,0.95825
289.357,18.76858,-0.51667,2.13762,0.95785
290.057,18.78973,-0.52392,2.13916,0.95745
290.757,18.81083,-0.53101,2.14239,0.95705
291.457,18.8319,-0.53743,2.14716,0.95665
292.157,18.85304,-0.54384,2.15006,0.95625
292.857,18.87422,-0.54976,2.15434,0.95584
293.557,18.89544,-0.55722,2.15577,0.95544
294.257,18.9166,-0.56392,2.16112,0.95504
294.957,18.9377,-0.57125,2.16482,0.95464
295.657,18.9588,-0.57698,2.17206,0.95423
296.357,18.97991,-0.58489,2.17594,0.95383
297.057,19.001,-0.59186,2.18158,0.95342
297.757,19.0221,-0.59971,2.18793,0.95302
298.457,19.0432,-0.60525,2.19151,0.95261
299.157,19.06439,-0.61171,2.19777,0.9522
299.857,19.08553,-0.6182,2.2035,0.95179
300.557,19.10675,-0.62694,2.20962,0.95139
301.257,19.12794,-0.63444,2.21421,0.95098
301.957,19.14905,-0.64113,2.21457,0.95057
302.657,19.1702,-0.64701,2.21855,0.95016
303.357,19.19119,-0.65341,2.21835,0.94975
304.057,19.21213,-0.66219,2.21845,0.94934
304.757,19.23311,-0.67114,2.21577,0.94893
305.457,19.25421,-0.67894,2.20852,0.94851
306.157,19.27534,-0.68575,2.1989,0.9481
306.857,19.29662,-0.69417,2.18746,0.94769
307.557,19.3179,-0.70125,2.16591,0.94727
308.257,19.33906,-0.71008,2.13525,0.94686
308.957,19.3602,-0.71663,2.09784,0.94645
309.657,19.3814,-0.72464,2.05264,0.94603
310.357,19.40254,-0.73208,2.00782,0.94561
311.057,19.42376,-0.74185,1.97267,0.9452
311.757,19.4449,-0.75036,1.94739,0.94478
312.457,19.466,-0.75717,1.92613,0.94436
313.157,19.48714,-0.76336,1.91434,0.94394
313.857,19.50819,-0.77224,1.90542,0.94353
314.557,19.52935,-0.7807,1.89574,0.94311
315.257,19.55051,-0.78849,1.89071,0.94269
315.957,19.57165,-0.79596,1.89081,0.94227
316.657,19.59281,-0.80373,1.89491,0.94185
317.357,19.61395,-0.8133,1.90146,0.94142
318.057,19.6351,-0.82185,1.91054,0.941
318.757,19.65624,-0.83071,1.92004,0.94058
319.457,19.67736,-0.83764,1.93086,0.94016
320.157,19.69846,-0.84723,1.94165,0.93973
320.857,19.71956,-0.85653,1.95682,0.93931
321.557,19.74071,-0.86862,1.97023,0.93888
322.257,19.7619,-0.8771,1.97877,0.93846
322.957,19.78304,-0.88602,1.98781,0.93803
323.657,19.80422,-0.89418,2.01089,0.93761
324.357,19.82538,-0.90434,2.05576,0.93718
325.057,19.84649,-0.91483,2.08761,0.93675
325.757,19.86769,-0.92809,2.10447,0.93633
326.457,19.88895,-0.94215,2.11543,0.9359
327.157,19.91016,-0.95597,2.12108,0.93547
327.857,19.93148,-0.96967,2.1261,0.93504
328.557,19.95273,-0.98224,2.13236,0.93461
329.257,19.97392,-0.99405,2.13385,0.93418
329.957,19.99515,-1.00462,2.14212,0.93375
330.657,20.0164,-1.01873,2.1498,0.93332
331.357,20.03753,-1.03166,2.15864,0.93288
332.057,20.0587,-1.04675,2.16744,0.93245
332.757,20.07994,-1.05763,2.17555,0.93202
333.457,20.1012,-1.07109,2.18974,0.93158
334.157,20.12246,-1.0832,2.21031,0.93115
334.857,20.14375,-1.09976,2.22574,0.93072
335.557,20.165,-1.11446,2.23688,0.93028
336.257,20.18631,-1.12933,2.25133,0.92984
336.957,20.20761,-1.14251,2.25913,0.92941
337.657,20.22887,-1.15783,2.27553,0.92897
338.357,20.25018,-1.17275,2.28149,0.92853
339.057,20.27135,-1.18766,2.29324,0.9281
339.757,20.29259,-1.20291,2.29956,0.92766
340.457,20.31387,-1.21778,2.30615,0.92722
341.157,20.3351,-1.23582,2.31703,0.92678
341.857,20.35643,-1.25293,2.3257,0.92634
342.557,20.37779,-1.26974,2.32824,0.9259
343.257,20.39911,-1.28329,2.33328,0.92546
343.957,20.42044,-1.30107,2.33679,0.92502
344.657,20.44179,-1.31655,2.3411,0.92458
345.357,20.46312,-1.33537,2.34552,0.92413
346.057,20.48442,-1.35029,2.34815,0.92369
346.757,20.50574,-1.36854,2.34853,0.92325
347.457,20.52702,-1.38424,2.34436,0.92281
348.157,20.54834,-1.40282,2.34581,0.92236
348.857,20.56966,-1.41919,2.34037,0.92192
349.557,20.59102,-1.43552,2.33267,0.92147
350.257,20.61243,-1.45196,2.32608,0.92103
350.957,20.63371,-1.46805,2.31482,0.92058
351.657,20.65506,-1.48742,2.30849,0.92013
352.357,20.67642,-1.50262,2.29737,0.91969
353.057,20.69771,-1.52132,2.28415,0.91924
353.757,20.7191,-1.53698,2.27638,0.91879
354.457,20.7405,-1.55757,2.26461,0.91834
355.157,20.76176,-1.57417,2.24655,0.91789
355.857,20.7831,-1.59341,2.23183,0.91744
356.557,20.80444,-1.60774,2.21278,0.91699
357.257,20.8258,-1.62492,2.19479,0.91654
357.957,20.84711,-1.64138,2.17639,0.91609
358.657,20.86854,-1.65989,2.15726,0.91564
359.357,20.88991,-1.67566,2.13358,0.91519
360.057,20.91125,-1.69098,2.1125,0.91473
360.757,20.93267,-1.70748,2.08437,0.91428
361.457,20.95401,-1.72333,2.05569,0.91383
362.157,20.97531,-1.74083,2.02776,0.91337
362.857,20.99672,-1.75474,2.0026,0.91292
363.557,21.01813,-1.77001,1.97729,0.91246
364.257,21.03952,-1.78354,1.94789,0.91201
364.957,21.06096,-1.80197,1.91947,0.91155
365.657,21.08235,-1.81595,1.89329,0.9111
366.357,21.1037,-1.83137,1.86199,0.91064
367.057,21.12506,-1.84484,1.8336,0.91018
367.757,21.14641,-1.86055,1.80478,0.90972
368.457,21.16775,-1.87514,1.77621,0.90927
369.157,21.18914,-1.89035,1.74835,0.90881
369.857,21.21051,-1.9037,1.71965,0.90835
370.557,21.23195,-1.91684,1.69103,0.90789
371.257,21.25338,-1.93083,1.66389,0.90743
371.957,21.2747,-1.94388,1.63697,0.90697
372.657,21.2961,-1.95821,1.60902,0.90651
373.357,21.3175,-1.96908,1.58433,0.90605
374.057,21.33894,-1.98226,1.55765,0.90558
374.757,21.3604,-1.99304,1.53016,0.90512
375.457,21.3818,-2.00754,1.50473,0.90466
376.157,21.4032,-2.01781,1.4827,0.9042
376.857,21.42459,-2.02946,1.45775,0.90373
377.557,21.44598,-2.04003,1.43165,0.90327
378.257,21.4673,-2.0528,1.41283,0.9028
378.957,21.48864,-2.06446,1.39033,0.90234
379.657,21.51012,-2.07638,1.37026,0.90187
380.357,21.53161,-2.08704,1.34923,0.90141
381.057,21.55319,-2.09737,1.32953,0.90094
381.757,21.57476,-2.10953,1.30767,0.90047
382.457,21.59625,-2.12032,1.28924,0.90001
383.157,21.6177,-2.132,1.27165,0.89954
383.857,21.63925,-2.14004,1.254,0.89907
384.557,21.66074,-2.15069,1.23468,0.8986
385.257,21.68224,-2.16062,1.21763,0.89813
385.957,21.70372,-2.17275,1.20118,0.89766
386.657,21.7252,-2.18164,1.18314,0.89719
387.357,21.74665,-2.19077,1.16805,0.89672
388.057,21.76812,-2.1993,1.15296,0.89625
388.757,21.78961,-2.20979,1.13722,0.89578
389.457,21.81109,-2.2196,1.12142,0.89531
390.157,21.8326,-2.22763,1.10574,0.89484
390.857,21.85418,-2.23549,1.09162,0.89436
391.557,21.87569,-2.24401,1.0748,0.89389
392.257,21.89722,-2.25562,1.06137,0.89342
392.957,21.91871,-2.26449,1.04602,0.89294
393.657,21.9403,-2.27228,1.03188,0.89247
394.357,21.96183,-2.279,1.01667,0.89199
395.057,21.98333,-2.28849,1.00157,0.89152
395.757,22.0049,-2.29711,0.9851,0.89104
396.457,22.0264,-2.30639,0.97097,0.89057
397.157,22.04798,-2.31347,0.95696,0.89009
397.857,22.0696,-2.31949,0.94385,0.88961
398.557,22.09122,-2.32801,0.92955,0.88914
399.257,22.1128,-2.33617,0.91691,0.88866
399.957,22.1343,-2.34375,0.90425,0.88818
400.657,22.15588,-2.35076,0.88942,0.8877
401.357,22.1774,-2.35875,0.87733,0.88722
402.057,22.19901,-2.36603,0.86408,0.88674
402.757,22.22061,-2.37438,0.85219,0.88626
403.457,22.2423,-2.3802,0.83901,0.88578
404.157,22.26396,-2.38813,0.82605,0.8853
404.857,22.2856,-2.39451,0.81395,0.88482
405.557,22.3073,-2.40247,0.80261,0.88434
406.257,22.32886,-2.40782,0.7925,0.88386
406.957,22.3505,-2.41347,0.78067,0.88338
407.657,22.3721,-2.41927,0.76803,0.88289
408.357,22.39374,-2.4242,0.75684,0.88241
409.057,22.4154,-2.43127,0.7462,0.88193
409.757,22.43701,-2.43659,0.73566,0.88144
410.457,22.45869,-2.44264,0.72867,0.88096
411.157,22.4803,-2.44794,0.71779,0.88047
411.857,22.50198,-2.45511,0.70816,0.87999
412.557,22.5237,-2.46171,0.69954,0.8795
413.257,22.5454,-2.4681,0.69063,0.87902
413.957,22.56706,-2.47224,0.68236,0.87853
414.657,22.58876,-2.47733,0.67292,0.87805
415.357,22.61044,-2.48376,0.66503,0.87756
416.057,22.632,-2.4896,0.65541,0.87707
416.757,22.65374,-2.49516,0.6477,0.87658
417.457,22.6754,-2.49919,0.6403,0.87609
418.157,22.69715,-2.50418,0.63178,0.87561
418.857,22.71895,-2.50891,0.62444,0.87512
419.557,22.74064,-2.51386,0.61755,0.87463
420.257,22.76238,-2.51762,0.60841,0.87414
420.957,22.78409,-2.52245,0.60401,0.87365
421.657,22.80593,-2.5285,0.59713,0.87316
422.357,22.82769,-2.53537,0.59302,0.87266
423.057,22.8494,-2.54009,0.58406,0.87217
423.757,22.8712,-2.54404,0.57591,0.87168
424.457,22.8929,-2.54809,0.57013,0.87119
425.157,22.91467,-2.55319,0.56399,0.8707
425.857,22.9365,-2.55798,0.55687,0.8702
426.557,22.95832,-2.56257,0.54944,0.86971
427.257,22.98015,-2.56699,0.54231,0.86922
427.957,23.002,-2.57041,0.53598,0.86872
428.657,23.02381,-2.5748,0.52989,0.86823
429.357,23.04567,-2.57867,0.52457,0.86773
430.057,23.06746,-2.58236,0.51706,0.86724
430.757,23.0892,-2.58577,0.5136,0.86674
431.457,23.111,-2.58996,0.50737,0.86625
432.157,23.13274,-2.59516,0.49942,0.86575
432.857,23.15455,-2.59928,0.49449,0.86525
433.557,23.1764,-2.60273,0.48883,0.86476
434.257,23.1982,-2.60584,0.4865,0.86426
434.957,23.2201,-2.6099,0.48073,0.86376
435.657,23.242,-2.61437,0.47384,0.86326
436.357,23.26391,-2.61774,0.47072,0.86276
437.057,23.2858,-2.61964,0.46717,0.86226
437.757,23.30767,-2.62255,0.46071,0.86176
438.457,23.3295,-2.62657,0.4565,0.86126
439.157,23.35135,-2.63226,0.44982,0.86076
439.857,23.37321,-2.63462,0.44604,0.86026
440.557,23.39511,-2.63703,0.43856,0.85976
441.257,23.41706,-2.63918,0.43733,0.85926
441.957,23.43895,-2.64346,0.43415,0.85876
442.657,23.46089,-2.64659,0.42907,0.85826
443.357,23.4828,-2.64885,0.42643,0.85776
444.057,23.50465,-2.65139,0.41966,0.85725
444.757,23.5266,-2.65503,0.41441,0.85675
445.457,23.54849,-2.65844,0.41127,0.85625
446.157,23.57047,-2.66297,0.40845,0.85574
446.857,23.5925,-2.66514,0.40435,0.85524
447.557,23.61444,-2.66745,0.40107,0.85474
448.257,23.6364,-2.67105,0.39681,0.85423
448.957,23.65829,-2.67561,0.39321,0.85373
449.657,23.68019,-2.67797,0.39236,0.85322
450.357,23.7021,-2.68012,0.38782,0.85271
451.057,23.72413,-2.68248,0.38518,0.85221
451.757,23.74615,-2.68546,0.38099,0.8517
452.457,23.76819,-2.68793,0.37713,0.85119
453.157,23.79028,-2.69061,0.37474,0.85069
453.857,23.81231,-2.69276,0.37041,0.85018
454.557,23.83432,-2.69528,0.36803,0.84967
455.257,23.85642,-2.69816,0.36592,0.84916
455.957,23.8784,-2.70072,0.36326,0.84866
456.657,23.90043,-2.7039,0.35931,0.84815
457.357,23.92246,-2.70545,0.35691,0.84764
458.057,23.9445,-2.70804,0.35157,0.84713
458.757,23.9665,-2.71146,0.3511,0.84662
459.457,23.9886,-2.71381,0.34929,0.84611
460.157,24.01066,-2.71612,0.34348,0.8456
460.857,24.03274,-2.71806,0.34014,0.84509
461.557,24.05479,-2.71934,0.34058,0.84457
462.257,24.0768,-2.72266,0.33643,0.84406
462.957,24.0989,-2.72492,0.33422,0.84355
463.657,24.12089,-2.72653,0.3326,0.84304
464.357,24.14304,-2.72878,0.32726,0.84253
465.057,24.16531,-2.7321,0.32698,0.84201
465.757,24.18739,-2.73578,0.32505,0.8415
466.457,24.20955,-2.73829,0.32211,0.84099
467.157,24.23166,-2.73931,0.31918,0.84047
467.857,24.25369,-2.74139,0.31726,0.83996
468.557,24.27583,-2.74397,0.31608,0.83944
469.257,24.2979,-2.7462,0.31421,0.83893
469.957,24.31999,-2.74734,0.3108,0.83841
470.657,24.34206,-2.74716,0.30767,0.8379
471.357,24.3641,-2.74952,0.30601,0.83738
472.057,24.38627,-2.75353,0.30525,0.83687
472.757,24.4085,-2.75591,0.30276,0.83635
473.457,24.43076,-2.75644,0.30107,0.83583
474.157,24.453,-2.7586,0.29844,0.83532
474.857,24.47514,-2.76163,0.29675,0.8348
475.557,24.49729,-2.76449,0.29432,0.83428
476.257,24.5194,-2.76622,0.29076,0.83376
476.957,24.5414,-2.76656,0.28927,0.83324
477.657,24.56356,-2.76768,0.28692,0.83273
478.357,24.5857,-2.7708,0.28419,0.83221
479.057,24.608,-2.77327,0.28363,0.83169
479.757,24.63028,-2.77479,0.2801,0.83117
480.457,24.65259,-2.77507,0.27636,0.83065
481.157,24.67472,-2.77753,0.27634,0.83013
481.857,24.69688,-2.78072,0.27532,0.82961
482.557,24.7191,-2.78338,0.27425,0.82909
483.257,24.7412,-2.78442,0.27052,0.82856
483.957,24.7635,-2.78641,0.26788,0.82804
484.657,24.78572,-2.78889,0.26737,0.82752
485.357,24.80794,-2.79126,0.26601,0.827
486.057,24.83016,-2.79191,0.26218,0.82648
486.757,24.8524,-2.79191,0.26117,0.82595
487.457,24.87465,-2.79335,0.25965,0.82543
488.157,24.89687,-2.79595,0.2588,0.82491
488.857,24.91911,-2.7995,0.25767,0.82438
489.557,24.94136,-2.8004,0.25336,0.82386
490.257,24.9636,-2.80197,0.25274,0.82334
490.957,24.98591,-2.80424,0.24791,0.82281
491.657,25.00819,-2.80703,0.24558,0.82229
492.357,25.03045,-2.80771,0.24435,0.82176
493.057,25.05261,-2.80839,0.2435,0.82124
493.757,25.07479,-2.80847,0.24457,0.82071
494.457,25.09706,-2.81099,0.24335,0.82019
495.157,25.11929,-2.81335,0.23953,0.81966
495.857,25.14154,-2.81409,0.23761,0.81913
496.557,25.16378,-2.81542,0.23663,0.81861
497.257,25.18607,-2.81722,0.23336,0.81808
497.957,25.2084,-2.81934,0.23323,0.81755
498.657,25.23065,-2.82101,0.22899,0.81702
499.357,25.253,-2.82124,0.22757,0.8165
500.057,25.27533,-2.82233,0.22636,0.81597
500.757,25.2976,-2.82452,0.22619,0.81544
501.457,25.32005,-2.82671,0.22287,0.81491
502.157,25.3425,-2.82828,0.22047,0.81438
502.857,25.36478,-2.82878,0.21999,0.81385
503.557,25.38711,-2.83047,0.21926,0.81332
504.257,25.4094,-2.83269,0.21788,0.81279
504.957,25.4317,-2.834,0.21658,0.81226
505.657,25.45405,-2.83531,0.21348,0.81173
506.357,25.4764,-2.83514,0.2102,0.8112
507.057,25.49875,-2.83709,0.20889,0.81067
507.757,25.521,-2.83906,0.20807,0.81014
508.457,25.54334,-2.84056,0.20615,0.80961
509.157,25.56567,-2.83979,0.20439,0.80908
509.857,25.5881,-2.84082,0.20483,0.80855
510.557,25.61047,-2.84301,0.20083,0.80801
511.257,25.63283,-2.8447,0.19983,0.80748
511.957,25.65519,-2.84722,0.19954,0.80695
512.657,25.67749,-2.84715,0.19707,0.80642
513.357,25.69988,-2.84789,0.19407,0.80588
514.057,25.72225,-2.84978,0.19397,0.80535
514.757,25.74464,-2.85153,0.1925,0.80481
515.457,25.76708,-2.85226,0.18903,0.80428
516.157,25.78954,-2.85369,0.1915,0.80375
516.857,25.81195,-2.85476,0.18507,0.80321
517.557,25.83439,-2.85669,0.18373,0.80268
518.257,25.85677,-2.85765,0.18367,0.80214
518.957,25.87908,-2.85832,0.18281,0.80161
519.657,25.9014,-2.8585,0.18177,0.80107
520.357,25.9238,-2.86031,0.18117,0.80054
521.057,25.9463,-2.86244,0.1783,0.8
521.757,25.96872,-2.86326,0.1762,0.79946
522.457,25.9911,-2.86371,0.17463,0.79893
523.157,26.0135,-2.86532,0.17618,0.79839
523.857,26.03581,-2.86668,0.17239,0.79785
524.557,26.05825,-2.86699,0.17017,0.79731
525.257,26.08069,-2.86704,0.17051,0.79678
525.957,26.10322,-2.86835,0.16903,0.79624
526.657,26.12572,-2.87066,0.16857,0.7957
527.357,26.14816,-2.87289,0.16566,0.79516
528.057,26.17064,-2.87448,0.16599,0.79462
528.757,26.19305,-2.87357,0.16506,0.79409
529.457,26.21547,-2.87503,0.16385,0.79355
530.157,26.2379,-2.87693,0.16105,0.79301
530.857,26.2604,-2.87808,0.16097,0.79247
531.557,26.28292,-2.8781,0.16006,0.79193
532.257,26.30541,-2.8785,0.15706,0.79139
532.957,26.3279,-2.88062,0.1589,0.79085
533.657,26.35036,-2.88247,0.15486,0.79031
534.357,26.37282,-2.88364,0.15288,0.78977
535.057,26.3954,-2.88379,0.15052,0.78923
535.757,26.41783,-2.88379,0.14934,0.78868
536.457,26.44035,-2.88546,0.14903,0.78814
537.157,26.46292,-2.88675,0.14922,0.7876
537.857,26.4854,-2.88645,0.14756,0.78706
538.557,26.50801,-2.88683,0.14564,0.78652
539.257,26.5306,-2.88698,0.14555,0.78597
539.957,26.55317,-2.88864,0.14455,0.78543
540.657,26.5757,-2.88853,0.14356,0.78489
541.357,26.59817,-2.88851,0.14465,0.78435
542.057,26.62073,-2.88988,0.14523,0.7838
542.757,26.64322,-2.89056,0.14284,0.78326
543.457,26.6658,-2.89135,0.14262,0.78272
544.157,26.68846,-2.89162,0.14222,0.78217
544.857,26.71087,-2.8927,0.14225,0.78163
545.557,26.7333,-2.89332,0.13894,0.78108
546.257,26.7559,-2.8951,0.13764,0.78054
546.957,26.77845,-2.89532,0.13697,0.77999
547.657,26.80122,-2.89393,0.13563,0.77945
548.357,26.82392,-2.89524,0.13624,0.7789
549.057,26.8466,-2.89603,0.13422,0.77836
549.757,26.86914,-2.89687,0.13559,0.77781
550.457,26.8917,-2.89797,0.13541,0.77727
551.157,26.9143,-2.89814,0.13541,0.77672
551.857,26.93675,-2.89953,0.13393,0.77617
552.557,26.9593,-2.90083,0.13308,0.77563
553.257,26.9819,-2.90146,0.13203,0.77508
553.957,27.0045,-2.90142,0.13325,0.77453
554.657,27.02722,-2.90266,0.13379,0.77399
555.357,27.04993,-2.90311,0.13349,0.77344
556.057,27.07252,-2.9058,0.13295,0.77289
556.757,27.0951,-2.90712,0.13174,0.77234
557.457,27.11767,-2.90725,0.13224,0.7718
558.157,27.1403,-2.90588,0.1324,0.77125
558.857,27.1629,-2.90743,0.13196,0.7707
559.557,27.1856,-2.90793,0.13102,0.77015
560.257,27.2082,-2.90872,0.13082,0.7696
560.957,27.2307,-2.90871,0.13073,0.76905
561.657,27.25327,-2.9097,0.13058,0.7685
562.357,27.27595,-2.91069,0.13055,0.76795
563.057,27.29873,-2.91158,0.13047,0.7674
563.757,27.3215,-2.91154,0.13017,0.76686
564.457,27.3442,-2.9128,0.13221,0.76631
565.157,27.36676,-2.913,0.13226,0.76575
565.857,27.38928,-2.91433,0.1337,0.7652
566.557,27.41198,-2.91431,0.13552,0.76465
567.257,27.43464,-2.91418,0.13496,0.7641
567.957,27.45737,-2.91701,0.13513,0.76355
568.657,27.4802,-2.91847,0.13705,0.763
569.357,27.50292,-2.91707,0.13405,0.76245
570.057,27.5256,-2.91604,0.13398,0.7619
570.757,27.54828,-2.91704,0.13292,0.76135
571.457,27.57093,-2.91863,0.13652,0.76079
572.157,27.5936,-2.91955,0.13722,0.76024
572.857,27.61631,-2.9199,0.1373,0.75969
573.557,27.63907,-2.91991,0.13844,0.75914
574.257,27.66181,-2.92002,0.13839,0.75859
574.957,27.6845,-2.92238,0.13876,0.75803
575.657,27.7072,-2.9228,0.138,0.75748
576.357,27.7299,-2.92398,0.13891,0.75693
577.057,27.75263,-2.92408,0.13971,0.75637
577.757,27.7753,-2.92553,0.13997,0.75582
578.457,27.798,-2.92675,0.1387,0.75527
579.157,27.82072,-2.92683,0.13879,0.75471
579.857,27.84334,-2.92683,0.13986,0.75416
580.557,27.86607,-2.92692,0.1413,0.7536
581.257,27.88888,-2.92828,0.13982,0.75305
581.957,27.9116,-2.92826,0.14015,0.75249
582.657,27.93435,-2.92826,0.13906,0.75194
583.357,27.95696,-2.92948,0.14127,0.75139
584.057,27.97952,-2.92977,0.14085,0.75083
584.757,28.00212,-2.93112,0.13915,0.75027
585.457,28.02481,-2.93111,0.14182,0.74972
586.157,28.0476,-2.93107,0.14207,0.74916
586.857,28.07051,-2.93256,0.14373,0.74861
587.557,28.09341,-2.93326,0.14247,0.74805
588.257,28.11631,-2.93395,0.14047,0.7475
588.957,28.1391,-2.93397,0.14169,0.74694
589.657,28.16187,-2.93395,0.14256,0.74638
590.357,28.1847,-2.93523,0.14367,0.74583
591.057,28.20748,-2.93559,0.1438,0.74527
591.757,28.23034,-2.93627,0.14382,0.74471
592.457,28.2532,-2.93701,0.14466,0.74416
593.157,28.27587,-2.93725,0.14627,0.7436
593.857,28.29856,-2.93838,0.14449,0.74304
594.557,28.3213,-2.93833,0.14705,0.74248
595.257,28.34409,-2.93958,0.14827,0.74193
595.957,28.367,-2.93967,0.15039,0.74137
596.657,28.38992,-2.94109,0.15063,0.74081
597.357,28.41273,-2.9411,0.15038,0.74025
598.057,28.4356,-2.94104,0.15126,0.73969
598.757,28.45838,-2.94212,0.15205,0.73914
599.457,28.48122,-2.94145,0.15101,0.73858
600.157,28.50402,-2.94297,0.15137,0.73802
600.857,28.5268,-2.94286,0.1534,0.73746
601.557,28.5495,-2.94285,0.15214,0.7369
602.257,28.5723,-2.94423,0.1522,0.73634
602.957,28.59512,-2.94443,0.1542,0.73578
603.657,28.61797,-2.94574,0.15384,0.73522
604.357,28.6409,-2.94571,0.15096,0.73466
605.057,28.6638,-2.94571,0.15198,0.7341
605.757,28.6867,-2.94691,0.15184,0.73354
606.457,28.7095,-2.94753,0.15195,0.73298
607.157,28.73234,-2.94876,0.15034,0.73242
607.857,28.7552,-2.94879,0.15114,0.73186
608.557,28.77807,-2.94879,0.15262,0.7313
609.257,28.80097,-2.94877,0.15203,0.73074
609.957,28.82382,-2.95004,0.15172,0.73018
610.657,28.84665,-2.9502,0.14989,0.72962
611.357,28.86955,-2.94989,0.15005,0.72906
612.057,28.8924,-2.94997,0.15059,0.7285
612.757,28.9152,-2.95132,0.14835,0.72794
613.457,28.93794,-2.95274,0.14724,0.72737
614.157,28.9608,-2.9528,0.14643,0.72681
614.857,28.98367,-2.95152,0.14712,0.72625
615.557,29.0067,-2.95265,0.14791,0.72569
616.257,29.0297,-2.95294,0.1445,0.72513
616.957,29.0527,-2.95428,0.14446,0.72456
617.657,29.0757,-2.95427,0.14432,0.724
618.357,29.09853,-2.95565,0.14127,0.72344
619.057,29.1214,-2.95764,0.14223,0.72288
619.757,29.1442,-2.95853,0.14074,0.72231
620.457,29.16715,-2.95853,0.1386,0.72175
621.157,29.19009,-2.95756,0.13789,0.72119
621.857,29.21305,-2.95724,0.13778,0.72063
622.557,29.23609,-2.95714,0.13856,0.72006
623.257,29.259,-2.95855,0.13697,0.7195
623.957,29.282,-2.95855,0.13522,0.71894
624.657,29.305,-2.95859,0.13206,0.71837
625.357,29.3279,-2.96013,0.13281,0.71781
626.057,29.35091,-2.96145,0.13233,0.71725
626.757,29.3739,-2.96142,0.13277,0.71668
627.457,29.3967,-2.96141,0.13085,0.71612
628.157,29.41965,-2.96281,0.12763,0.71555
628.857,29.4426,-2.96427,0.12567,0.71499
629.557,29.4654,-2.96556,0.12521,0.71442
630.257,29.4882,-2.96527,0.12493,0.71386
630.957,29.51117,-2.96414,0.12206,0.7133
631.657,29.53412,-2.96534,0.12109,0.71273
632.357,29.5571,-2.96681,0.12025,0.71217
633.057,29.5802,-2.96756,0.11923,0.7116
633.757,29.60308,-2.96745,0.1184,0.71104
634.457,29.62603,-2.96761,0.11851,0.71047
635.157,29.6489,-2.96813,0.11733,0.70991
635.857,29.6719,-2.96887,0.11694,0.70934
636.557,29.6949,-2.96888,0.1144,0.70878
637.257,29.71789,-2.96888,0.11348,0.70821
637.957,29.741,-2.96929,0.11338,0.70764
638.657,29.76404,-2.97016,0.10983,0.70708
639.357,29.787,-2.97019,0.10831,0.70651
640.057,29.81,-2.97019,0.10754,0.70595
640.757,29.833,-2.97043,0.10362,0.70538
641.457,29.85602,-2.97164,0.10214,0.70481
642.157,29.8791,-2.97162,0.0997166,0.70425
642.857,29.90205,-2.97215,0.09522067,0.70368
643.557,29.925,-2.97291,0.0969566,0.70312
644.257,29.94802,-2.97428,0.09628392,0.70255
644.957,29.971,-2.97454,0.0925369,0.70198
645.657,29.9941,-2.97585,0.08992904,0.70142
646.357,30.01715,-2.97509,0.08888406,0.70085
647.057,30.04015,-2.97513,0.08751248,0.70028
647.757,30.063,-2.97674,0.08493071,0.69972
648.457,30.086,-2.97668,0.08311582,0.69915
649.157,30.109,-2.97695,0.08045633,0.69858
649.857,30.132,-2.978,0.07903119,0.69801
650.557,30.1551,-2.9779,0.07594874,0.69745
651.257,30.17812,-2.97929,0.07343477,0.69688
651.957,30.2012,-2.97929,0.07069703,0.69631
652.657,30.22421,-2.9779,0.06767515,0.69574
653.357,30.24725,-2.97853,0.0680387,0.69518
654.057,30.27025,-2.98094,0.06666575,0.69461
654.757,30.29328,-2.98094,0.06267188,0.69404
655.457,30.31642,-2.9809,0.06055967,0.69347
656.157,30.3395,-2.98225,0.05890969,0.6929
656.857,30.3626,-2.98229,0.05581243,0.69234
657.557,30.3857,-2.98389,0.05577546,0.69177
658.257,30.40875,-2.98239,0.05477452,0.6912
658.957,30.4318,-2.98238,0.05161113,0.69063
659.657,30.45488,-2.98239,0.04889899,0.69006
660.357,30.4778,-2.98283,0.04393719,0.68949
661.057,30.5009,-2.9839,0.04182108,0.68893
661.757,30.52388,-2.98392,0.04032072,0.68836
662.457,30.5469,-2.9843,0.04003529,0.68779
663.157,30.56996,-2.98534,0.03618695,0.68722
663.857,30.59303,-2.98683,0.03410717,0.68665
664.557,30.6161,-2.98677,0.0351533,0.68608
665.257,30.63917,-2.98678,0.02869338,0.68551
665.957,30.6622,-2.98759,0.02880856,0.68494
666.657,30.68525,-2.98969,0.02621789,0.68437
667.357,30.70832,-2.99108,0.02410084,0.68381
668.057,30.7314,-2.98967,0.02258821,0.68324
668.757,30.7545,-2.99012,0.02189571,0.68267
669.457,30.7775,-2.99101,0.02072705,0.6821
670.157,30.80053,-2.99261,0.01681033,0.68153
670.857,30.82355,-2.9923,0.01607052,0.68096
671.557,30.84658,-2.99128,0.01266972,0.68039
672.257,30.86965,-2.99128,0.01013089,0.67982
672.957,30.89278,-2.99139,0.00885529,0.67925
673.657,30.9159,-2.99275,0.007922657,0.67868
674.357,30.939,-2.9927,0.00287979,0.67811
675.057,30.9621,-2.9927,0.00236581,0.67754
675.757,30.9851,-2.9927,-0.003172564,0.67697
676.457,31.0082,-2.99266,-0.005597952,0.6764
677.157,31.0312,-2.99405,-0.008883,0.67583
677.857,31.05429,-2.99402,-0.01106489,0.67526
678.557,31.0773,-2.99416,-0.01303729,0.67469
679.257,31.10033,-2.99544,-0.01602139,0.67412
679.957,31.1233,-2.99545,-0.01711571,0.67355
680.657,31.14643,-2.99545,-0.01942795,0.67298
681.357,31.16957,-2.99545,-0.02312699,0.67241
682.057,31.1929,-2.99685,-0.02494946,0.67184
682.757,31.21612,-2.99677,-0.0262775,0.67127
683.457,31.2392,-2.99676,-0.03118473,0.6707
684.157,31.2623,-2.99686,-0.02946819,0.67012
684.857,31.28534,-2.99815,-0.03194317,0.66955
685.557,31.30842,-2.99901,-0.0339238,0.66898
686.257,31.33152,-2.99962,-0.03578684,0.66841
686.957,31.35463,-2.99964,-0.03849452,0.66784
687.657,31.37776,-3.00038,-0.04124895,0.66727
688.357,31.4009,-3.00108,-0.04279587,0.6667
689.057,31.42404,-3.00252,-0.04611397,0.66613
689.757,31.44718,-3.00205,-0.04929646,0.66556
690.457,31.4702,-3.00115,-0.04938346,0.66499
691.157,31.49333,-3.0021,-0.05348036,0.66442
691.857,31.5165,-3.00309,-0.05652279,0.66384
692.557,31.5396,-3.00379,-0.05604176,0.66327
693.257,31.56275,-3.00379,-0.05876132,0.6627
693.957,31.5859,-3.00386,-0.06154077,0.66213
694.657,31.6091,-3.00535,-0.06636781,0.66156
695.357,31.6321,-3.00688,-0.0708271,0.66099
696.057,31.65532,-3.00549,-0.07230258,0.66042
696.757,31.6784,-3.00543,-0.07764284,0.65984
697.457,31.7016,-3.00682,-0.08086094,0.65927
698.157,31.7248,-3.00682,-0.08385494,0.6587
698.857,31.74788,-3.00811,-0.08783136,0.65813
699.557,31.771,-3.00807,-0.0922264,0.65756
700.257,31.7942,-3.00807,-0.09064169,0.65699
700.957,31.81734,-3.00809,-0.0899771,0.65642
701.657,31.84052,-3.0091,-0.08997987,0.65584
702.357,31.86365,-3.00797,-0.0925846,0.65527
703.057,31.8868,-3.00806,-0.09279336,0.6547
703.757,31.91,-3.0084,-0.09545453,0.65413
704.457,31.93315,-3.01094,-0.0973403,0.65356
705.157,31.9564,-3.01092,-0.0999755,0.65299
705.857,31.97953,-3.01092,-0.10381,0.65241
706.557,32.00271,-3.01245,-0.10707,0.65184
707.257,32.0259,-3.01245,-0.10845,0.65127
707.957,32.04909,-3.01369,-0.11075,0.6507
708.657,32.07226,-3.01367,-0.11195,0.65013
709.357,32.09543,-3.01367,-0.11147,0.64955
710.057,32.1186,-3.01367,-0.11368,0.64898
710.757,32.1417,-3.01368,-0.11646,0.64841
711.457,32.16491,-3.01414,-0.12129,0.64784
712.157,32.1882,-3.01409,-0.12132,0.64727
712.857,32.2115,-3.01398,-0.1208,0.64669
713.557,32.23474,-3.01503,-0.12227,0.64612
714.257,32.2579,-3.0153,-0.12489,0.64555
714.957,32.28113,-3.01532,-0.12817,0.64498
715.657,32.30427,-3.01569,-0.12709,0.64441
716.357,32.32754,-3.01666,-0.13099,0.64383
717.057,32.3508,-3.01768,-0.1352,0.64326
717.757,32.37403,-3.01795,-0.13496,0.64269
718.457,32.39731,-3.01795,-0.13687,0.64212
719.157,32.4205,-3.01795,-0.13992,0.64154
719.857,32.44378,-3.01813,-0.1426,0.64097
720.557,32.46705,-3.0193,-0.14373,0.6404
721.257,32.49031,-3.01927,-0.14507,0.63983
721.957,32.51359,-3.01928,-0.14727,0.63926
722.657,32.5368,-3.02088,-0.14962,0.63868
723.357,32.56003,-3.0208,-0.15198,0.63811
724.057,32.58325,-3.02139,-0.15163,0.63754
724.757,32.60646,-3.02111,-0.15427,0.63697
725.457,32.6297,-3.02179,-0.15445,0.6364
726.157,32.65297,-3.02192,-0.15748,0.63582
726.857,32.6762,-3.02315,-0.15659,0.63525
727.557,32.69938,-3.02283,-0.1593,0.63468
728.257,32.7226,-3.02183,-0.15949,0.63411
728.957,32.74582,-3.02234,-0.16029,0.63353
729.657,32.76917,-3.02349,-0.16301,0.63296
730.357,32.79247,-3.0245,-0.16461,0.63239
731.057,32.81579,-3.02436,-0.16456,0.63182
731.757,32.83907,-3.02384,-0.16526,0.63125
732.457,32.8623,-3.02524,-0.16619,0.63067
733.157,32.88555,-3.0252,-0.16621,0.6301
733.857,32.90878,-3.02523,-0.1702,0.62953
734.557,32.93196,-3.0247,-0.17135,0.62896
735.257,32.95519,-3.02609,-0.17198,0.62838
735.957,32.97845,-3.02608,-0.17534,0.62781
736.657,33.00177,-3.02676,-0.17576,0.62724
737.357,33.0251,-3.02746,-0.1778,0.62667
738.057,33.04842,-3.0274,-0.17477,0.6261
738.757,33.07179,-3.02819,-0.17642,0.62552
739.457,33.0951,-3.02869,-0.17944,0.62495
740.157,33.1184,-3.0287,-0.1795,0.62438
740.857,33.1417,-3.02871,-0.1799,0.62381
741.557,33.16492,-3.02915,-0.18394,0.62323
742.257,33.1882,-3.03002,-0.18715,0.62266
742.957,33.21157,-3.03002,-0.18564,0.62209
743.657,33.23489,-3.03003,-0.18891,0.62152
744.357,33.25824,-3.03052,-0.19081,0.62095
745.057,33.28157,-3.03155,-0.1938,0.62037
745.757,33.3048,-3.03153,-0.19366,0.6198
746.457,33.32816,-3.03075,-0.19381,0.61923
747.157,33.3515,-3.03031,-0.19696,0.61866
747.857,33.3749,-3.03162,-0.19822,0.61809
748.557,33.39821,-3.03157,-0.19721,0.61751
749.257,33.42158,-3.03157,-0.19782,0.61694
749.957,33.44488,-3.03161,-0.20097,0.61637
750.657,33.46818,-3.03314,-0.20361,0.6158
751.357,33.49156,-3.03308,-0.20213,0.61523
752.057,33.51484,-3.03415,-0.20029,0.61466
752.757,33.53821,-3.03442,-0.20161,0.61408
753.457,33.56158,-3.03524,-0.20748,0.61351
754.157,33.58494,-3.03594,-0.20619,0.61294
754.857,33.60833,-3.03596,-0.20883,0.61237
755.557,33.63172,-3.03596,-0.20796,0.6118
756.257,33.65502,-3.03595,-0.20929,0.61123
756.957,33.6783,-3.03589,-0.21072,0.61065
757.657,33.70172,-3.03728,-0.21122,0.61008
758.357,33.72504,-3.03736,-0.20926,0.60951
759.057,33.74852,-3.03596,-0.21092,0.60894
759.757,33.77191,-3.0365,-0.20506,0.60837
760.457,33.79527,-3.03746,-0.20811,0.6078
761.157,33.81861,-3.03749,-0.20823,0.60723
761.857,33.84191,-3.0361,-0.21103,0.60665
762.557,33.8653,-3.03664,-0.20851,0.60608
763.257,33.8887,-3.03755,-0.21114,0.60551
763.957,33.91214,-3.03893,-0.21227,0.60494
764.657,33.9356,-3.03892,-0.21761,0.60437
765.357,33.95897,-3.03764,-0.21679,0.6038
766.057,33.98233,-3.03908,-0.22125,0.60323
766.757,34.0057,-3.03903,-0.22454,0.60266
767.457,34.0291,-3.03903,-0.22771,0.60208
768.157,34.05245,-3.03959,-0.23291,0.60151
768.857,34.07589,-3.04032,-0.23103,0.60094
769.557,34.09926,-3.04062,-0.2352,0.60037
770.257,34.1227,-3.042,-0.23229,0.5998
770.957,34.14613,-3.04216,-0.23393,0.59923
771.657,34.16956,-3.04265,-0.23303,0.59866
772.357,34.19297,-3.04406,-0.2343,0.59809
773.057,34.21629,-3.04396,-0.2372,0.59752
773.757,34.23976,-3.04333,-0.23714,0.59695
774.457,34.26314,-3.04266,-0.23841,0.59638
775.157,34.2866,-3.04265,-0.23801,0.59581
775.857,34.31006,-3.04299,-0.23721,0.59524
776.557,34.33347,-3.04393,-0.23808,0.59466
777.257,34.35689,-3.04396,-0.23855,0.59409
777.957,34.38035,-3.04396,-0.23564,0.59352
778.657,34.40383,-3.04429,-0.23634,0.59295
779.357,34.42725,-3.04528,-0.24339,0.59238
780.057,34.45071,-3.04528,-0.24187,0.59181
780.757,34.4741,-3.04452,-0.24308,0.59124
781.457,34.49759,-3.04398,-0.24353,0.59067
782.157,34.52106,-3.04397,-0.2456,0.5901
782.857,34.54449,-3.04397,-0.24816,0.58953
783.557,34.56792,-3.04397,-0.24908,0.58896
784.257,34.59131,-3.04397,-0.25049,0.58839
784.957,34.61468,-3.04475,-0.25462,0.58782
785.657,34.63815,-3.04652,-0.25548,0.58725
786.357,34.6616,-3.04659,-0.25316,0.58668
787.057,34.68509,-3.04613,-0.25413,0.58611
787.757,34.70865,-3.04672,-0.25761,0.58555
788.457,34.7321,-3.04744,-0.2567,0.58498
789.157,34.75555,-3.04738,-0.25737,0.58441
789.857,34.77902,-3.04738,-0.25815,0.58384
790.557,34.8025,-3.04738,-0.25881,0.58327
791.257,34.826,-3.04734,-0.26259,0.5827
791.957,34.84957,-3.04771,-0.26177,0.58213
792.657,34.8731,-3.0478,-0.26182,0.58156
793.357,34.89654,-3.04797,-0.26071,0.58099
794.057,34.92,-3.04946,-0.26256,0.58042
794.757,34.94347,-3.04946,-0.26197,0.57985
795.457,34.967,-3.04946,-0.26183,0.57929
796.157,34.99054,-3.04946,-0.26466,0.57872
796.357,34.99727,-3.04946,-0.26435,0.57855