File: 01_Data/Wood_Stud/STA/N2/30K_min/Wood_Stud_STA_N2_30KData_220128_R2.csv
##Temp./Â°C,Time/min,Mass loss(subtr.2)/mg,DSC(subtr.2)/(mW/mg),Sensit./(uV/mW)
48.382,10.01,-0.04344,0.0314623,1.06965
49.082,10.55247,-0.04475083,0.07450393,1.06958
49.782,10.67756,-0.04674751,0.11288,1.06952
50.482,10.76778,-0.04556059,0.14243,1.06946
51.182,10.84061,-0.04528521,0.17465,1.06939
51.882,10.9034,-0.04550018,0.20204,1.06933
52.582,10.95985,-0.04520345,0.22686,1.06926
53.282,11.01183,-0.04552654,0.25358,1.06919
53.982,11.05978,-0.04618527,0.27496,1.06912
54.682,11.10484,-0.04729681,0.29736,1.06905
55.382,11.14775,-0.04750887,0.31813,1.06897
56.082,11.18812,-0.04650758,0.33818,1.0689
56.782,11.22692,-0.0456505,0.35592,1.06882
57.482,11.26464,-0.04681563,0.37431,1.06875
58.182,11.30107,-0.04599609,0.38952,1.06867
58.882,11.33633,-0.04619252,0.40853,1.06859
59.582,11.37069,-0.04663129,0.42365,1.06851
60.282,11.40426,-0.04665171,0.43887,1.06842
60.982,11.43705,-0.04731258,0.45513,1.06834
61.682,11.46902,-0.04746736,0.4698,1.06825
62.382,11.50044,-0.04737262,0.48349,1.06817
63.082,11.53132,-0.04654153,0.49669,1.06808
63.782,11.5616,-0.0472164,0.5101,1.06799
64.482,11.5916,-0.04673516,0.52289,1.0679
65.182,11.62094,-0.04700725,0.53551,1.0678
65.882,11.65,-0.04793888,0.54746,1.06771
66.582,11.67858,-0.04772877,0.56196,1.06762
67.282,11.70708,-0.04751301,0.57186,1.06752
67.982,11.73545,-0.04732872,0.58398,1.06742
68.682,11.76357,-0.04819014,0.59538,1.06732
69.382,11.7913,-0.04920557,0.60604,1.06722
70.082,11.8186,-0.04894735,0.61641,1.06712
70.782,11.8457,-0.04873422,0.62674,1.06702
71.482,11.8726,-0.04857712,0.63681,1.06691
72.182,11.8995,-0.04946001,0.64809,1.06681
72.882,11.92614,-0.05004903,0.65603,1.0667
73.582,11.9526,-0.0509812,0.66483,1.06659
74.282,11.97889,-0.05039188,0.67435,1.06648
74.982,12.00515,-0.05083317,0.68348,1.06637
75.682,12.03117,-0.05100607,0.69233,1.06626
76.382,12.0572,-0.05049144,0.70169,1.06614
77.082,12.08283,-0.04993046,0.71393,1.06603
77.782,12.1085,-0.05132102,0.71948,1.06591
78.482,12.13401,-0.05197121,0.72778,1.0658
79.182,12.15955,-0.05180237,0.73407,1.06568
79.882,12.185,-0.05300207,0.74504,1.06556
80.582,12.21031,-0.05207386,0.75505,1.06543
81.282,12.2354,-0.05209895,0.76261,1.06531
81.982,12.26046,-0.05165594,0.77177,1.06519
82.682,12.28536,-0.05260704,0.77787,1.06506
83.382,12.3103,-0.05224023,0.788,1.06493
84.082,12.33494,-0.05339285,0.79548,1.06481
84.782,12.35967,-0.05352779,0.80285,1.06468
85.482,12.38433,-0.05433053,0.81133,1.06455
86.182,12.40858,-0.05408254,0.81786,1.06441
86.882,12.43334,-0.05357931,0.82655,1.06428
87.582,12.45797,-0.0549859,0.83536,1.06414
88.282,12.48255,-0.05368925,0.84224,1.06401
88.982,12.50709,-0.05519308,0.84802,1.06387
89.682,12.53134,-0.05448998,0.85631,1.06373
90.382,12.5555,-0.0551899,0.86301,1.06359
91.082,12.57961,-0.05546821,0.86962,1.06345
91.782,12.60372,-0.05647476,0.87319,1.06331
92.482,12.62781,-0.05697492,0.87944,1.06316
93.182,12.65185,-0.05640514,0.88742,1.06302
93.882,12.67581,-0.05647648,0.89169,1.06287
94.582,12.69975,-0.0577948,0.8974,1.06272
95.282,12.72366,-0.05781773,0.90466,1.06258
95.982,12.74762,-0.05782248,0.90857,1.06243
96.682,12.77157,-0.05860045,0.91345,1.06227
97.382,12.79538,-0.0591105,0.92039,1.06212
98.082,12.8192,-0.06038741,0.92242,1.06197
98.782,12.8429,-0.06044633,0.92763,1.06181
99.482,12.86667,-0.06043337,0.93068,1.06165
100.182,12.89043,-0.06178274,0.93487,1.0615
100.882,12.91413,-0.0617669,0.93885,1.06134
101.582,12.93785,-0.0617598,0.94059,1.06118
102.282,12.96153,-0.06176747,0.94139,1.06101
102.982,12.98518,-0.06224125,0.94512,1.06085
103.682,13.00871,-0.06307145,0.94675,1.06069
104.382,13.03236,-0.06306661,0.94719,1.06052
105.082,13.05595,-0.06403458,0.94809,1.06035
105.782,13.07965,-0.06438852,0.94897,1.06018
106.482,13.10328,-0.06439059,0.94905,1.06001
107.182,13.1268,-0.06439184,0.94964,1.05984
107.882,13.1504,-0.06475498,0.94982,1.05967
108.582,13.17402,-0.06568476,0.94877,1.0595
109.282,13.1976,-0.06571915,0.94683,1.05932
109.982,13.2211,-0.06604012,0.94678,1.05915
110.682,13.24438,-0.06726753,0.94539,1.05897
111.382,13.26784,-0.06734927,0.94331,1.05879
112.082,13.2914,-0.06734975,0.9417,1.05861
112.782,13.31489,-0.06733662,0.93986,1.05843
113.482,13.3386,-0.06722025,0.93866,1.05825
114.182,13.36191,-0.06963312,0.93573,1.05807
114.882,13.3853,-0.06964862,0.93324,1.05788
115.582,13.4088,-0.06964998,0.9307,1.05769
116.282,13.4323,-0.06965,0.92768,1.05751
116.982,13.4557,-0.06965,0.92509,1.05732
117.682,13.47901,-0.06964998,0.92331,1.05713
118.382,13.50234,-0.06965086,0.9205,1.05694
119.082,13.52558,-0.06967532,0.91469,1.05675
119.782,13.54884,-0.07053416,0.91323,1.05655
120.482,13.57209,-0.07096817,0.90898,1.05636
121.182,13.5954,-0.07096262,0.90579,1.05616
121.882,13.61861,-0.07090313,0.9033,1.05597
122.582,13.64175,-0.07192925,0.90175,1.05577
123.282,13.66495,-0.0719569,0.89606,1.05557
123.982,13.6881,-0.0722278,0.89621,1.05537
124.682,13.7112,-0.07228141,0.89068,1.05516
125.382,13.7343,-0.07228018,0.8901,1.05496
126.082,13.75734,-0.07228,0.88708,1.05476
126.782,13.7804,-0.07228,0.88339,1.05455
127.482,13.80339,-0.07228009,0.88257,1.05434
128.182,13.8264,-0.07228189,0.88088,1.05414
128.882,13.8494,-0.07256079,0.87479,1.05393
129.582,13.87236,-0.07357714,0.87549,1.05372
130.282,13.89535,-0.07359834,0.87103,1.0535
130.982,13.91823,-0.07359996,0.87071,1.05329
131.682,13.941,-0.0735999,0.87003,1.05308
132.382,13.9638,-0.07359415,0.8691,1.05286
133.082,13.98645,-0.07461223,0.86483,1.05264
133.782,14.0092,-0.07490648,0.86556,1.05243
134.482,14.0321,-0.0749104,0.86481,1.05221
135.182,14.0549,-0.07491002,0.86213,1.05199
135.882,14.0777,-0.07490988,0.86384,1.05177
136.582,14.1004,-0.07491049,0.86347,1.05154
137.282,14.12299,-0.07428356,0.86324,1.05132
137.982,14.1456,-0.07362177,0.86218,1.05109
138.682,14.1682,-0.07360066,0.86074,1.05087
139.382,14.1907,-0.07359995,0.86297,1.05064
140.082,14.2133,-0.07359756,0.86478,1.05041
140.782,14.23596,-0.07354852,0.86411,1.05018
141.482,14.25854,-0.07486447,0.86501,1.04995
142.182,14.2811,-0.07492124,0.86428,1.04972
142.882,14.3037,-0.07488227,0.86686,1.04949
143.582,14.3261,-0.0760486,0.86652,1.04925
144.282,14.34847,-0.07623616,0.87007,1.04901
144.982,14.37091,-0.07623787,0.87204,1.04878
145.682,14.3932,-0.07609331,0.87215,1.04854
146.382,14.4156,-0.07487517,0.87353,1.0483
147.082,14.43796,-0.07491851,0.87385,1.04806
147.782,14.4603,-0.07492001,0.8769,1.04782
148.482,14.4827,-0.07492,0.87615,1.04758
149.182,14.50501,-0.07492,0.88073,1.04733
149.882,14.5273,-0.07491996,0.88272,1.04709
150.582,14.5495,-0.07491986,0.8811,1.04684
151.282,14.57177,-0.07492983,0.88561,1.04659
151.982,14.59406,-0.07530452,0.88915,1.04634
152.682,14.61629,-0.07588856,0.89099,1.04609
153.382,14.63844,-0.07590939,0.89301,1.04584
154.082,14.66065,-0.07591003,0.8951,1.04559
154.782,14.6828,-0.07591107,0.89769,1.04534
155.482,14.705,-0.07593412,0.89973,1.04508
156.182,14.7273,-0.07662558,0.89987,1.04483
156.882,14.74955,-0.07722043,0.90283,1.04457
157.582,14.77165,-0.07722772,0.90496,1.04431
158.282,14.79375,-0.07673054,0.90866,1.04405
158.982,14.81586,-0.07636997,0.90992,1.04379
159.682,14.83789,-0.0762638,0.91336,1.04353
160.382,14.85997,-0.07589981,0.91621,1.04327
161.082,14.88205,-0.07590054,0.91695,1.04301
161.782,14.90409,-0.0758999,0.91718,1.04274
162.482,14.92617,-0.07589746,0.92139,1.04248
163.182,14.94827,-0.07587404,0.92263,1.04221
163.882,14.9703,-0.0762285,0.92695,1.04194
164.582,14.99231,-0.07624592,0.92923,1.04167
165.282,15.0144,-0.07764526,0.92978,1.0414
165.982,15.0363,-0.07755514,0.93353,1.04113
166.682,15.05835,-0.07755016,0.93771,1.04086
167.382,15.08036,-0.07755,0.93793,1.04058
168.082,15.10229,-0.07755,0.93862,1.04031
168.782,15.12429,-0.07755,0.94156,1.04003
169.482,15.1462,-0.07755,0.94589,1.03976
170.182,15.1682,-0.07755004,0.94681,1.03948
170.882,15.1901,-0.07754995,0.94932,1.0392
171.582,15.212,-0.07753594,0.95305,1.03892
172.282,15.234,-0.07791531,0.95302,1.03864
172.982,15.25586,-0.07788209,0.95637,1.03835
173.682,15.27772,-0.07788008,0.9607,1.03807
174.382,15.29962,-0.07788,0.96332,1.03779
175.082,15.3214,-0.07788,0.96646,1.0375
175.782,15.34327,-0.07788,0.96335,1.03721
176.482,15.36514,-0.07788,0.96873,1.03692
177.182,15.3869,-0.07788,0.973,1.03663
177.882,15.4087,-0.07788,0.97273,1.03634
178.582,15.4304,-0.07788001,0.9761,1.03605
179.282,15.45215,-0.07788047,0.97732,1.03576
179.982,15.4739,-0.07789184,0.97887,1.03547
180.682,15.4957,-0.07821199,0.98338,1.03517
181.382,15.51746,-0.07974087,0.98631,1.03488
182.082,15.53919,-0.0798578,0.98754,1.03458
182.782,15.56095,-0.07986014,0.98908,1.03428
183.482,15.58262,-0.07986002,0.99217,1.03398
184.182,15.6043,-0.07986,0.99301,1.03368
184.882,15.626,-0.07986,0.99554,1.03338
185.582,15.6476,-0.07986,0.99834,1.03308
186.282,15.66929,-0.07986,1.00038,1.03278
186.982,15.69085,-0.07986,1.00197,1.03247
187.682,15.71248,-0.07986,1.00495,1.03217
188.382,15.7341,-0.07986,1.00598,1.03186
189.082,15.75565,-0.07985999,1.0081,1.03155
189.782,15.77725,-0.07985988,1.01103,1.03124
190.482,15.7988,-0.07985895,1.01087,1.03093
191.182,15.82034,-0.07986535,1.01531,1.03062
191.882,15.8419,-0.07873295,1.01719,1.03031
192.582,15.86346,-0.07847011,1.02055,1.03
193.282,15.885,-0.0799936,1.02515,1.02968
193.982,15.90647,-0.08069835,1.02608,1.02937
194.682,15.9279,-0.08139276,1.02802,1.02905
195.382,15.9494,-0.08139009,1.03099,1.02874
196.082,15.9709,-0.08138887,1.03152,1.02842
196.782,15.99244,-0.08134363,1.03527,1.0281
197.482,16.01389,-0.08259803,1.03823,1.02778
198.182,16.0353,-0.0826983,1.04199,1.02746
198.882,16.05667,-0.08269995,1.04352,1.02714
199.582,16.07798,-0.08270044,1.04523,1.02681
200.282,16.09955,-0.08270184,1.04708,1.02649
200.982,16.12099,-0.08262757,1.04994,1.02616
201.682,16.14246,-0.08173503,1.05253,1.02584
202.382,16.1641,-0.08171125,1.05425,1.02551
203.082,16.18545,-0.08169672,1.05779,1.02518
203.782,16.20681,-0.08131775,1.05962,1.02485
204.482,16.22821,-0.08037607,1.05948,1.02452
205.182,16.24948,-0.08037017,1.06481,1.02419
205.882,16.27081,-0.08193597,1.06771,1.02386
206.582,16.29223,-0.08190613,1.07044,1.02352
207.282,16.3136,-0.08283131,1.07242,1.02319
207.982,16.3351,-0.08396222,1.07513,1.02285
208.682,16.35654,-0.083906,1.07655,1.02252
209.382,16.37789,-0.08383,1.07816,1.02218
210.082,16.39926,-0.08522635,1.08084,1.02184
210.782,16.42057,-0.08523016,1.08326,1.0215
211.482,16.4419,-0.08523003,1.08674,1.02116
212.182,16.46317,-0.08522992,1.08827,1.02082
212.882,16.48451,-0.08522837,1.092,1.02048
213.582,16.5059,-0.08520416,1.09589,1.02013
214.282,16.52719,-0.08582734,1.1005,1.01979
214.982,16.5486,-0.08588367,1.10108,1.01944
215.682,16.56992,-0.08588549,1.10211,1.0191
216.382,16.59122,-0.08720418,1.10397,1.01875
217.082,16.61255,-0.08720048,1.10782,1.0184
217.782,16.63382,-0.08720004,1.11134,1.01805
218.482,16.6551,-0.08720001,1.11191,1.0177
219.182,16.67644,-0.08720013,1.11447,1.01735
219.882,16.6977,-0.08720161,1.11775,1.017
220.582,16.71895,-0.08721315,1.11818,1.01665
221.282,16.7402,-0.08820621,1.12193,1.01629
221.982,16.7614,-0.08853517,1.12537,1.01594
222.682,16.78268,-0.08771746,1.12657,1.01558
223.382,16.804,-0.08757735,1.13024,1.01522
224.082,16.82529,-0.08892588,1.13132,1.01486
224.782,16.84655,-0.08884478,1.13297,1.01451
225.482,16.8677,-0.08883996,1.13441,1.01415
226.182,16.88889,-0.08883776,1.13868,1.01378
226.882,16.91009,-0.08884319,1.14078,1.01342
227.582,16.93132,-0.09157161,1.14302,1.01306
228.282,16.95254,-0.0914907,1.14377,1.0127
228.982,16.9738,-0.091518,1.14696,1.01233
229.682,16.995,-0.09289065,1.14838,1.01196
230.382,17.0162,-0.09280479,1.1511,1.0116
231.082,17.0374,-0.0927936,1.15373,1.01123
231.782,17.05861,-0.0940144,1.15597,1.01086
232.482,17.07979,-0.0941091,1.15827,1.01049
233.182,17.1009,-0.09411025,1.15853,1.01012
233.882,17.12211,-0.0941108,1.16177,1.00975
234.582,17.1433,-0.09413915,1.16483,1.00938
235.282,17.1645,-0.09552162,1.16498,1.009
235.982,17.1857,-0.09538693,1.17073,1.00863
236.682,17.20686,-0.09667837,1.17073,1.00826
237.382,17.22796,-0.09683788,1.17431,1.00788
238.082,17.24904,-0.09810672,1.17728,1.0075
238.782,17.2702,-0.09816901,1.1781,1.00712
239.482,17.29135,-0.09894268,1.18133,1.00675
240.182,17.31253,-0.09947371,1.18516,1.00637
240.882,17.33365,-0.10019,1.18524,1.00599
241.582,17.35474,-0.10078,1.18901,1.0056
242.282,17.3759,-0.1008,1.19153,1.00522
242.982,17.39701,-0.10094,1.196,1.00484
243.682,17.41819,-0.10216,1.19787,1.00445
244.382,17.4393,-0.10272,1.19958,1.00407
245.082,17.4605,-0.10367,1.20051,1.00368
245.782,17.4816,-0.10525,1.20433,1.0033
246.482,17.5027,-0.10531,1.20706,1.00291
247.182,17.52381,-0.10656,1.20942,1.00252
247.882,17.54489,-0.10752,1.21033,1.00213
248.582,17.56602,-0.10821,1.21392,1.00174
249.282,17.58717,-0.10966,1.21806,1.00135
249.982,17.6082,-0.11039,1.2189,1.00096
250.682,17.62934,-0.11097,1.22272,1.00056
251.382,17.65046,-0.11243,1.2261,1.00017
252.082,17.67159,-0.11379,1.22696,0.99977
252.782,17.6928,-0.11474,1.2291,0.99938
253.482,17.71395,-0.11578,1.23157,0.99898
254.182,17.735,-0.11736,1.2337,0.99858
254.882,17.75611,-0.11866,1.23581,0.99819
255.582,17.77721,-0.11909,1.24155,0.99779
256.282,17.7983,-0.12041,1.24254,0.99739
256.982,17.81938,-0.12195,1.24558,0.99699
257.682,17.84052,-0.12374,1.24646,0.99658
258.382,17.8616,-0.12533,1.24838,0.99618
259.082,17.88266,-0.12635,1.25155,0.99578
259.782,17.90379,-0.12794,1.25509,0.99537
260.482,17.92484,-0.12942,1.2567,0.99497
261.182,17.94592,-0.13081,1.26044,0.99456
261.882,17.96707,-0.13253,1.2656,0.99415
262.582,17.9881,-0.1341,1.26739,0.99375
263.282,18.00926,-0.13605,1.27111,0.99334
263.982,18.03034,-0.13824,1.27292,0.99293
264.682,18.0515,-0.14025,1.27583,0.99252
265.382,18.07245,-0.14202,1.27863,0.99211
266.082,18.0935,-0.14336,1.28178,0.99169
266.782,18.11456,-0.14527,1.28494,0.99128
267.482,18.1356,-0.14723,1.28683,0.99087
268.182,18.1567,-0.14924,1.29223,0.99045
268.882,18.17786,-0.15159,1.29402,0.99004
269.582,18.19892,-0.15432,1.29348,0.98962
270.282,18.22,-0.15685,1.29472,0.98921
270.982,18.24103,-0.15925,1.29947,0.98879
271.682,18.2621,-0.16104,1.30213,0.98837
272.382,18.28321,-0.16318,1.30593,0.98795
273.082,18.30424,-0.16541,1.3067,0.98753
273.782,18.3253,-0.1685,1.30773,0.98711
274.482,18.3464,-0.17114,1.30989,0.98669
275.182,18.36749,-0.17406,1.30897,0.98626
275.882,18.38867,-0.17695,1.31481,0.98584
276.582,18.40985,-0.17965,1.3158,0.98542
277.282,18.43095,-0.18287,1.31738,0.98499
277.982,18.4521,-0.1857,1.31937,0.98456
278.682,18.47314,-0.18938,1.32047,0.98414
279.382,18.4942,-0.19234,1.3223,0.98371
280.082,18.51539,-0.19536,1.32643,0.98328
280.782,18.53652,-0.19895,1.32805,0.98285
281.482,18.55767,-0.20248,1.32986,0.98242
282.182,18.57876,-0.20589,1.33161,0.98199
282.882,18.59988,-0.2085,1.33091,0.98156
283.582,18.62108,-0.21183,1.33664,0.98113
284.282,18.6422,-0.21568,1.33775,0.9807
284.982,18.6633,-0.22051,1.33782,0.98026
285.682,18.6845,-0.22641,1.33832,0.97983
286.382,18.70562,-0.23008,1.34075,0.97939
287.082,18.72682,-0.23367,1.34267,0.97896
287.782,18.74802,-0.23642,1.3436,0.97852
288.482,18.76921,-0.24015,1.34346,0.97808
289.182,18.79036,-0.24478,1.34485,0.97764
289.882,18.81144,-0.24991,1.34634,0.9772
290.582,18.8326,-0.25517,1.34757,0.97676
291.282,18.8538,-0.25872,1.3513,0.97632
291.982,18.875,-0.26249,1.35083,0.97588
292.682,18.89615,-0.26615,1.35305,0.97544
293.382,18.91734,-0.27085,1.35158,0.975
294.082,18.9385,-0.2761,1.35422,0.97455
294.782,18.95966,-0.28117,1.35402,0.97411
295.482,18.9808,-0.2866,1.35716,0.97366
296.182,19.002,-0.29084,1.3581,0.97322
296.882,19.02318,-0.2972,1.36097,0.97277
297.582,19.04436,-0.3022,1.35942,0.97232
298.282,19.06559,-0.30773,1.36247,0.97188
298.982,19.0868,-0.31241,1.36325,0.97143
299.682,19.10803,-0.31789,1.36331,0.97098
300.382,19.12929,-0.32346,1.36762,0.97053
301.082,19.15051,-0.3294,1.36655,0.97008
301.782,19.17174,-0.33562,1.36933,0.96962
302.482,19.19289,-0.34137,1.37032,0.96917
303.182,19.21402,-0.34777,1.3723,0.96872
303.882,19.23522,-0.35325,1.37442,0.96826
304.582,19.25647,-0.35946,1.37742,0.96781
305.282,19.27766,-0.36514,1.37726,0.96735
305.982,19.2989,-0.37246,1.38182,0.9669
306.682,19.32014,-0.37858,1.381,0.96644
307.382,19.34133,-0.38572,1.38433,0.96598
308.082,19.36259,-0.39137,1.38836,0.96553
308.782,19.38384,-0.39848,1.39215,0.96507
309.482,19.40506,-0.40474,1.3946,0.96461
310.182,19.42635,-0.41225,1.39447,0.96415
310.882,19.44765,-0.41894,1.40104,0.96369
311.582,19.4689,-0.4266,1.40258,0.96322
312.282,19.49014,-0.43366,1.40733,0.96276
312.982,19.51138,-0.44101,1.40883,0.9623
313.682,19.53264,-0.44912,1.41334,0.96183
314.382,19.5539,-0.45756,1.41832,0.96137
315.082,19.5751,-0.46557,1.42534,0.9609
315.782,19.59638,-0.47296,1.42663,0.96044
316.482,19.6176,-0.4819,1.43235,0.95997
317.182,19.63887,-0.48973,1.43764,0.95951
317.882,19.66027,-0.49951,1.44243,0.95904
318.582,19.68156,-0.50729,1.44847,0.95857
319.282,19.7029,-0.51728,1.45362,0.9581
319.982,19.72423,-0.5253,1.46306,0.95763
320.682,19.74554,-0.53504,1.46781,0.95716
321.382,19.76684,-0.54395,1.47437,0.95669
322.082,19.7881,-0.55401,1.48096,0.95622
322.782,19.8094,-0.56317,1.48951,0.95574
323.482,19.83072,-0.57273,1.49944,0.95527
324.182,19.85207,-0.5827,1.50614,0.9548
324.882,19.87344,-0.59254,1.51226,0.95432
325.582,19.8948,-0.60319,1.52073,0.95385
326.282,19.91613,-0.61344,1.53049,0.95337
326.982,19.93747,-0.626,1.53703,0.95289
327.682,19.9588,-0.63633,1.54765,0.95242
328.382,19.98012,-0.64908,1.55638,0.95194
329.082,20.0015,-0.6597,1.56253,0.95146
329.782,20.0228,-0.67268,1.57406,0.95098
330.482,20.04414,-0.68308,1.58389,0.9505
331.182,20.0655,-0.69616,1.5935,0.95002
331.882,20.08687,-0.70754,1.60217,0.94954
332.582,20.10828,-0.7205,1.61128,0.94906
333.282,20.12967,-0.73268,1.6227,0.94858
333.982,20.15103,-0.74589,1.63228,0.94809
334.682,20.1724,-0.76042,1.64101,0.94761
335.382,20.19385,-0.77397,1.65028,0.94713
336.082,20.2152,-0.78896,1.66199,0.94664
336.782,20.23657,-0.80158,1.66963,0.94616
337.482,20.25795,-0.81739,1.68038,0.94567
338.182,20.27931,-0.83081,1.68989,0.94518
338.882,20.3007,-0.84872,1.69614,0.9447
339.582,20.32216,-0.86172,1.7085,0.94421
340.282,20.3436,-0.87809,1.71681,0.94372
340.982,20.36504,-0.89221,1.72794,0.94323
341.682,20.38645,-0.90889,1.73677,0.94274
342.382,20.4079,-0.92366,1.74539,0.94225
343.082,20.42932,-0.93982,1.75189,0.94176
343.782,20.4508,-0.95574,1.76151,0.94127
344.482,20.4723,-0.97202,1.76811,0.94078
345.182,20.49376,-0.98962,1.77463,0.94028
345.882,20.5152,-1.00553,1.78118,0.93979
346.582,20.5367,-1.02408,1.79058,0.9393
347.282,20.55821,-1.03983,1.7958,0.9388
347.982,20.57968,-1.05919,1.80073,0.93831
348.682,20.60118,-1.07478,1.80914,0.93781
349.382,20.62261,-1.09467,1.81543,0.93732
350.082,20.64408,-1.11137,1.82353,0.93682
350.782,20.66558,-1.13055,1.82876,0.93632
351.482,20.6871,-1.14708,1.83419,0.93582
352.182,20.7086,-1.16579,1.83968,0.93533
352.882,20.73002,-1.18375,1.84519,0.93483
353.582,20.7515,-1.20192,1.85174,0.93433
354.282,20.77297,-1.22069,1.85554,0.93383
354.982,20.79448,-1.2386,1.8622,0.93333
355.682,20.81607,-1.2588,1.86837,0.93282
356.382,20.8376,-1.27639,1.87415,0.93232
357.082,20.85916,-1.29819,1.88096,0.93182
357.782,20.8807,-1.31584,1.88931,0.93132
358.482,20.90222,-1.33675,1.89198,0.93081
359.182,20.92373,-1.35411,1.90291,0.93031
359.882,20.94531,-1.37549,1.91192,0.92981
360.582,20.96688,-1.39392,1.92089,0.9293
361.282,20.98844,-1.41468,1.93157,0.92879
361.982,21.00994,-1.43397,1.9416,0.92829
362.682,21.03139,-1.45422,1.95299,0.92778
363.382,21.05295,-1.47574,1.96517,0.92727
364.082,21.07445,-1.49539,1.9759,0.92677
364.782,21.0961,-1.51759,1.99,0.92626
365.482,21.1177,-1.53651,2.0045,0.92575
366.182,21.13925,-1.55953,2.01917,0.92524
366.882,21.1608,-1.57796,2.03339,0.92473
367.582,21.18238,-1.60099,2.05153,0.92422
368.282,21.20397,-1.62043,2.07082,0.92371
368.982,21.22556,-1.64402,2.08723,0.9232
369.682,21.24719,-1.66403,2.10781,0.92268
370.382,21.26885,-1.68711,2.12857,0.92217
371.082,21.29048,-1.70907,2.14964,0.92166
371.782,21.31214,-1.73179,2.17114,0.92115
372.482,21.3338,-1.75606,2.19429,0.92063
373.182,21.35543,-1.77817,2.21613,0.92012
373.882,21.37708,-1.80414,2.24028,0.9196
374.582,21.39874,-1.826,2.26661,0.91909
375.282,21.4204,-1.85279,2.28998,0.91857
375.982,21.44196,-1.87429,2.30973,0.91805
376.682,21.4636,-1.90141,2.33637,0.91754
377.382,21.48532,-1.92426,2.35881,0.91702
378.082,21.50706,-1.95119,2.38178,0.9165
378.782,21.5288,-1.97556,2.40046,0.91598
379.482,21.55051,-2.00184,2.42156,0.91546
380.182,21.57218,-2.0281,2.43739,0.91494
380.882,21.59385,-2.05385,2.45625,0.91442
381.582,21.6156,-2.08234,2.47163,0.9139
382.282,21.63728,-2.10699,2.48656,0.91338
382.982,21.65906,-2.13697,2.49304,0.91286
383.682,21.6808,-2.1615,2.50098,0.91234
384.382,21.7025,-2.19191,2.507,0.91182
385.082,21.7242,-2.21618,2.50653,0.91129
385.782,21.7459,-2.24519,2.50579,0.91077
386.482,21.76762,-2.27155,2.49831,0.91024
387.182,21.78937,-2.29948,2.49021,0.90972
387.882,21.81111,-2.32632,2.47523,0.9092
388.582,21.83284,-2.35263,2.45838,0.90867
389.282,21.85456,-2.38093,2.43594,0.90814
389.982,21.87627,-2.40584,2.40869,0.90762
390.682,21.89796,-2.4349,2.37694,0.90709
391.382,21.91966,-2.45801,2.33801,0.90656
392.082,21.9414,-2.48593,2.29762,0.90604
392.782,21.9631,-2.50833,2.2519,0.90551
393.482,21.98477,-2.53482,2.20018,0.90498
394.182,22.0065,-2.55658,2.14694,0.90445
394.882,22.0282,-2.58019,2.08813,0.90392
395.582,22.0499,-2.60139,2.02808,0.90339
396.282,22.07152,-2.62276,1.95867,0.90286
396.982,22.09314,-2.64451,1.88956,0.90233
397.682,22.1148,-2.66428,1.81591,0.9018
398.382,22.13646,-2.68523,1.7414,0.90127
399.082,22.15819,-2.70198,1.66255,0.90074
399.782,22.17993,-2.7207,1.58167,0.9002
400.482,22.20151,-2.73572,1.50342,0.89967
401.182,22.22315,-2.75271,1.41958,0.89914
401.882,22.24471,-2.76573,1.33751,0.8986
402.582,22.26623,-2.78049,1.25859,0.89807
403.282,22.28779,-2.79268,1.17909,0.89753
403.982,22.30932,-2.80514,1.09964,0.897
404.682,22.3309,-2.81652,1.02168,0.89646
405.382,22.35247,-2.82791,0.94406,0.89593
406.082,22.37411,-2.83923,0.87288,0.89539
406.782,22.39569,-2.8481,0.80096,0.89486
407.482,22.4173,-2.8572,0.73296,0.89432
408.182,22.43889,-2.86418,0.66884,0.89378
408.882,22.46048,-2.87216,0.61095,0.89324
409.582,22.48208,-2.87708,0.55217,0.8927
410.282,22.50367,-2.88365,0.50285,0.89217
410.982,22.5253,-2.8889,0.45391,0.89163
411.682,22.54692,-2.89451,0.41048,0.89109
412.382,22.56853,-2.8987,0.37047,0.89055
413.082,22.59018,-2.90266,0.33504,0.89001
413.782,22.61176,-2.9065,0.30213,0.88947
414.482,22.63342,-2.91062,0.27284,0.88893
415.182,22.65506,-2.91351,0.24716,0.88838
415.882,22.67675,-2.91707,0.22389,0.88784
416.582,22.69846,-2.92057,0.2042,0.8873
417.282,22.72012,-2.92436,0.18382,0.88676
417.982,22.74185,-2.92767,0.16731,0.88621
418.682,22.7636,-2.93004,0.15274,0.88567
419.382,22.78531,-2.93279,0.14226,0.88513
420.082,22.80706,-2.93557,0.13079,0.88458
420.782,22.82885,-2.93782,0.12087,0.88404
421.482,22.85061,-2.94022,0.11187,0.88349
422.182,22.87239,-2.94338,0.10162,0.88295
422.882,22.89419,-2.94606,0.0950251,0.8824
423.582,22.91593,-2.94901,0.08793183,0.88186
424.282,22.93766,-2.95123,0.08022364,0.88131
424.982,22.9594,-2.95306,0.07487345,0.88076
425.682,22.98123,-2.95374,0.06774423,0.88022
426.382,23.00307,-2.95578,0.06258957,0.87967
427.082,23.02499,-2.95882,0.05418822,0.87912
427.782,23.0469,-2.96188,0.0500869,0.87857
428.482,23.06876,-2.96402,0.04201849,0.87802
429.182,23.09059,-2.96555,0.03720372,0.87748
429.882,23.11242,-2.96772,0.03233721,0.87693
430.582,23.13425,-2.97004,0.02537631,0.87638
431.282,23.156,-2.97234,0.02205137,0.87583
431.982,23.17792,-2.97489,0.01436183,0.87528
432.682,23.19976,-2.97783,0.009872871,0.87473
433.382,23.22169,-2.97976,0.00497023,0.87418
434.082,23.24352,-2.98121,4.199458e-05,0.87362
434.782,23.26541,-2.98282,-0.00654939,0.87307
435.482,23.28735,-2.98491,-0.00941268,0.87252
436.182,23.30922,-2.98744,-0.01779174,0.87197
436.882,23.3312,-2.98997,-0.02235284,0.87142
437.582,23.3531,-2.9925,-0.02804337,0.87086
438.282,23.37503,-2.99433,-0.03149498,0.87031
438.982,23.39697,-2.99604,-0.03701188,0.86976
439.682,23.419,-2.99808,-0.03990778,0.8692
440.382,23.44096,-3.00002,-0.04654576,0.86865
441.082,23.4629,-3.00212,-0.05021019,0.86809
441.782,23.48483,-3.0044,-0.05548154,0.86754
442.482,23.50681,-3.00688,-0.06035201,0.86698
443.182,23.52871,-3.00961,-0.06153525,0.86643
443.882,23.5506,-3.01227,-0.06667139,0.86587
444.582,23.5726,-3.0149,-0.07073079,0.86532
445.282,23.59456,-3.01662,-0.0735865,0.86476
445.982,23.61654,-3.01747,-0.07862076,0.8642
446.682,23.6385,-3.01886,-0.08239334,0.86365
447.382,23.66047,-3.02103,-0.08430533,0.86309
448.082,23.68246,-3.02336,-0.08695532,0.86253
448.782,23.70447,-3.02558,-0.09261755,0.86197
449.482,23.7265,-3.0279,-0.09361225,0.86142
450.182,23.7485,-3.02893,-0.09665643,0.86086
450.882,23.77046,-3.03047,-0.10024,0.8603
451.582,23.79249,-3.03282,-0.10303,0.85974
452.282,23.81448,-3.03506,-0.10415,0.85918
452.982,23.83651,-3.03673,-0.10623,0.85862
453.682,23.8585,-3.03912,-0.10717,0.85806
454.382,23.8806,-3.04112,-0.1072,0.8575
455.082,23.90257,-3.0428,-0.11022,0.85694
455.782,23.9246,-3.04449,-0.11324,0.85638
456.482,23.94666,-3.04613,-0.11059,0.85582
457.182,23.96866,-3.04778,-0.11102,0.85526
457.882,23.99074,-3.04964,-0.11101,0.8547
458.582,24.0128,-3.05105,-0.11035,0.85413
459.282,24.03481,-3.05267,-0.11268,0.85357
459.982,24.0569,-3.05435,-0.10992,0.85301
460.682,24.07902,-3.05583,-0.10736,0.85245
461.382,24.10112,-3.05752,-0.106,0.85188
462.082,24.12322,-3.05973,-0.10407,0.85132
462.782,24.14534,-3.062,-0.10151,0.85076
463.482,24.1674,-3.06427,-0.10103,0.85019
464.182,24.1894,-3.06622,-0.0999165,0.84963
464.882,24.21151,-3.06751,-0.09311361,0.84907
465.582,24.2336,-3.06871,-0.09423488,0.8485
466.282,24.2557,-3.07037,-0.08968335,0.84794
466.982,24.2778,-3.07241,-0.08780442,0.84737
467.682,24.29991,-3.07383,-0.08244115,0.84681
468.382,24.32206,-3.07532,-0.07659968,0.84624
469.082,24.34424,-3.07771,-0.07339239,0.84568
469.782,24.3664,-3.08005,-0.06975573,0.84511
470.482,24.3886,-3.08174,-0.06459404,0.84454
471.182,24.41077,-3.08327,-0.0621379,0.84398
471.882,24.43294,-3.08384,-0.05405769,0.84341
472.582,24.45515,-3.08522,-0.0496389,0.84284
473.282,24.47731,-3.0867,-0.04512863,0.84228
473.982,24.4995,-3.08852,-0.03830805,0.84171
474.682,24.52175,-3.09049,-0.03360461,0.84114
475.382,24.54392,-3.09196,-0.02963777,0.84057
476.082,24.56615,-3.09329,-0.02218454,0.84001
476.782,24.58834,-3.09418,-0.01784279,0.83944
477.482,24.61045,-3.09525,-0.006945959,0.83887
478.182,24.6327,-3.09691,-0.006076845,0.8383
478.882,24.65488,-3.09848,0.00011572,0.83773
479.582,24.6771,-3.0998,0.009793423,0.83716
480.282,24.6994,-3.10097,0.01162796,0.83659
480.982,24.72148,-3.102,0.01756457,0.83602
481.682,24.74373,-3.1034,0.02493016,0.83545
482.382,24.76601,-3.10493,0.03025164,0.83488
483.082,24.78824,-3.10776,0.03733567,0.83431
483.782,24.81052,-3.10953,0.03976176,0.83374
484.482,24.83275,-3.11045,0.04724349,0.83317
485.182,24.85494,-3.11126,0.05289812,0.8326
485.882,24.87718,-3.11245,0.05556573,0.83203
486.582,24.89947,-3.11397,0.06426,0.83146
487.282,24.92168,-3.11526,0.06691075,0.83089
487.982,24.9439,-3.11547,0.07610943,0.83032
488.682,24.9662,-3.1166,0.07625236,0.82974
489.382,24.98839,-3.11821,0.08133873,0.82917
490.082,25.01069,-3.11941,0.08570109,0.8286
490.782,25.03302,-3.12103,0.09214573,0.82803
491.482,25.05529,-3.12141,0.09428652,0.82745
492.182,25.07761,-3.12362,0.09898487,0.82688
492.882,25.09994,-3.12507,0.10433,0.82631
493.582,25.12225,-3.126,0.10583,0.82573
494.282,25.14462,-3.12605,0.1097,0.82516
494.982,25.1669,-3.12697,0.11485,0.82459
495.682,25.18923,-3.12836,0.11715,0.82401
496.382,25.2116,-3.12886,0.12049,0.82344
497.082,25.23394,-3.12977,0.12374,0.82287
497.782,25.25633,-3.13136,0.12607,0.82229
498.482,25.27872,-3.13285,0.12863,0.82172
499.182,25.30114,-3.1334,0.13166,0.82114
499.882,25.32349,-3.13424,0.13516,0.82057
500.582,25.3459,-3.13677,0.1384,0.81999
501.282,25.36825,-3.13674,0.13957,0.81942
501.982,25.39059,-3.13812,0.14213,0.81884
502.682,25.41297,-3.13809,0.14564,0.81827
503.382,25.43536,-3.13935,0.14665,0.81769
504.082,25.45778,-3.14058,0.15138,0.81712
504.782,25.48017,-3.14131,0.15271,0.81654
505.482,25.50255,-3.14267,0.1549,0.81596
506.182,25.525,-3.14287,0.1539,0.81539
506.882,25.54746,-3.14403,0.15903,0.81481
507.582,25.56991,-3.14558,0.15523,0.81423
508.282,25.5924,-3.14578,0.15947,0.81366
508.982,25.61478,-3.14703,0.16259,0.81308
509.682,25.6372,-3.14883,0.16367,0.8125
510.382,25.6596,-3.14982,0.16551,0.81193
511.082,25.68202,-3.15025,0.1636,0.81135
511.782,25.70451,-3.1517,0.16532,0.81077
512.482,25.72693,-3.15182,0.16835,0.8102
513.182,25.7494,-3.1531,0.1695,0.80962
513.882,25.77175,-3.15349,0.17039,0.80904
514.582,25.7942,-3.15384,0.17371,0.80846
515.282,25.81666,-3.15506,0.17272,0.80788
515.982,25.83916,-3.15714,0.1741,0.80731
516.682,25.8617,-3.1577,0.17755,0.80673
517.382,25.8842,-3.15929,0.17883,0.80615
518.082,25.90665,-3.15984,0.17739,0.80557
518.782,25.92912,-3.16051,0.17958,0.80499
519.482,25.95157,-3.1616,0.17931,0.80441
520.182,25.97397,-3.16185,0.18315,0.80383
520.882,25.99645,-3.16356,0.18102,0.80325
521.582,26.01898,-3.16293,0.18507,0.80267
522.282,26.0415,-3.16335,0.18577,0.8021
522.982,26.0641,-3.16327,0.18697,0.80152
523.682,26.08663,-3.16471,0.18887,0.80094
524.382,26.10906,-3.16473,0.18582,0.80036
525.082,26.13156,-3.16611,0.18628,0.79978
525.782,26.15411,-3.16771,0.18715,0.7992
526.482,26.17665,-3.16877,0.18767,0.79862
527.182,26.19926,-3.16873,0.1889,0.79804
527.882,26.22185,-3.17023,0.18789,0.79746
528.582,26.24441,-3.1702,0.18817,0.79688
529.282,26.26695,-3.17166,0.1892,0.7963
529.982,26.28957,-3.1722,0.19024,0.79571
530.682,26.3122,-3.17295,0.18719,0.79513
531.382,26.33483,-3.17425,0.18635,0.79455
532.082,26.3575,-3.17432,0.18601,0.79397
532.782,26.38,-3.17432,0.1904,0.79339
533.482,26.4025,-3.17425,0.18709,0.79281
534.182,26.4252,-3.17529,0.18868,0.79223
534.882,26.44776,-3.17603,0.18972,0.79165
535.582,26.47043,-3.17621,0.18786,0.79107
536.282,26.4931,-3.17761,0.18977,0.79048
536.982,26.5158,-3.17911,0.18985,0.7899
537.682,26.5384,-3.18058,0.192,0.78932
538.382,26.5611,-3.18166,0.18907,0.78874
539.082,26.5837,-3.18185,0.18656,0.78816
539.782,26.60635,-3.18303,0.18965,0.78758
540.482,26.6291,-3.18299,0.18858,0.78699
541.182,26.6517,-3.18299,0.18938,0.78641
541.882,26.67437,-3.18377,0.19067,0.78583
542.582,26.697,-3.18423,0.18982,0.78525
543.282,26.71971,-3.18571,0.19064,0.78467
543.982,26.7425,-3.18767,0.19039,0.78408
544.682,26.7652,-3.18833,0.18958,0.7835
545.382,26.78795,-3.18828,0.18838,0.78292
546.082,26.81063,-3.18979,0.18956,0.78234
546.782,26.83333,-3.19006,0.1887,0.78175
547.482,26.856,-3.19111,0.18671,0.78117
548.182,26.8787,-3.1911,0.188,0.78059
548.882,26.90135,-3.19108,0.18754,0.78
549.582,26.92403,-3.19232,0.18829,0.77942
550.282,26.9468,-3.19243,0.1901,0.77884
550.982,26.9694,-3.19303,0.18896,0.77826
551.682,26.9921,-3.19374,0.19067,0.77767
552.382,27.01475,-3.19417,0.18989,0.77709
553.082,27.03738,-3.19505,0.1897,0.77651
553.782,27.06008,-3.19505,0.18977,0.77592
554.482,27.08278,-3.19505,0.19267,0.77534
555.182,27.1055,-3.19505,0.19191,0.77476
555.882,27.12825,-3.19521,0.19369,0.77417
556.582,27.15098,-3.19693,0.19486,0.77359
557.282,27.1737,-3.19849,0.19467,0.77301
557.982,27.19643,-3.19974,0.19408,0.77242
558.682,27.2191,-3.19994,0.19556,0.77184
559.382,27.2419,-3.20132,0.19608,0.77125
560.082,27.2646,-3.20154,0.19716,0.77067
560.782,27.2873,-3.20265,0.19541,0.77009
561.482,27.31,-3.20262,0.19779,0.7695
562.182,27.33267,-3.20283,0.19914,0.76892
562.882,27.35541,-3.20395,0.20033,0.76834
563.582,27.37813,-3.20394,0.20172,0.76775
564.282,27.4009,-3.20541,0.20363,0.76717
564.982,27.42357,-3.20674,0.20531,0.76658
565.682,27.44626,-3.20782,0.207,0.766
566.382,27.46896,-3.20799,0.20921,0.76542
567.082,27.4916,-3.20796,0.21043,0.76483
567.782,27.5144,-3.20844,0.20984,0.76425
568.482,27.53707,-3.20801,0.21298,0.76366
569.182,27.55984,-3.2093,0.21549,0.76308
569.882,27.5826,-3.20929,0.2184,0.7625
570.582,27.6053,-3.21039,0.21948,0.76191
571.282,27.628,-3.21062,0.21993,0.76133
571.982,27.65075,-3.21063,0.22008,0.76074
572.682,27.67353,-3.21079,0.21906,0.76016
573.382,27.69626,-3.21209,0.22122,0.75957
574.082,27.71906,-3.21203,0.21969,0.75899
574.782,27.7418,-3.21341,0.21833,0.75841
575.482,27.76466,-3.21339,0.22084,0.75782
576.182,27.78755,-3.21383,0.22297,0.75724
576.882,27.8103,-3.21469,0.22365,0.75665
577.582,27.8331,-3.2147,0.22086,0.75607
578.282,27.85585,-3.21524,0.22357,0.75548
578.982,27.87865,-3.216,0.2228,0.7549
579.682,27.9015,-3.21647,0.22285,0.75432
580.382,27.92434,-3.21729,0.22298,0.75373
581.082,27.9472,-3.21732,0.22118,0.75315
581.782,27.96995,-3.21765,0.22309,0.75256
582.482,27.99281,-3.21859,0.2227,0.75198
583.182,28.0156,-3.21973,0.22289,0.75139
583.882,28.0384,-3.21996,0.22321,0.75081
584.582,28.06124,-3.22103,0.22519,0.75023
585.282,28.08401,-3.22126,0.22446,0.74964
585.982,28.1069,-3.22232,0.22236,0.74906
586.682,28.12974,-3.22258,0.22298,0.74847
587.382,28.15267,-3.22279,0.22572,0.74789
588.082,28.17543,-3.22391,0.22363,0.7473
588.782,28.19827,-3.22392,0.22283,0.74672
589.482,28.22115,-3.22498,0.22536,0.74613
590.182,28.244,-3.22664,0.22262,0.74555
590.882,28.26688,-3.22694,0.22452,0.74497
591.582,28.2897,-3.22784,0.22661,0.74438
592.282,28.31263,-3.22781,0.22409,0.7438
592.982,28.33551,-3.22893,0.22439,0.74321
593.682,28.35843,-3.22917,0.22737,0.74263
594.382,28.3813,-3.22993,0.22397,0.74204
595.082,28.40413,-3.23047,0.22213,0.74146
595.782,28.427,-3.23047,0.22352,0.74088
596.482,28.44995,-3.22982,0.2237,0.74029
597.182,28.47288,-3.23059,0.22541,0.73971
597.882,28.4958,-3.23048,0.22494,0.73912
598.582,28.5188,-3.23042,0.22354,0.73854
599.282,28.54165,-3.23181,0.22285,0.73796
599.982,28.56451,-3.2318,0.22206,0.73737
600.682,28.58741,-3.2318,0.22026,0.73679
601.382,28.61028,-3.2318,0.21967,0.7362
602.082,28.63325,-3.23207,0.21926,0.73562
602.782,28.65618,-3.23311,0.22214,0.73504
603.482,28.6791,-3.23309,0.21853,0.73445
604.182,28.70205,-3.23459,0.22104,0.73387
604.882,28.7249,-3.2345,0.2178,0.73328
605.582,28.74782,-3.23577,0.21988,0.7327
606.282,28.7705,-3.23587,0.21612,0.73212
606.982,28.7934,-3.23632,0.21625,0.73153
607.682,28.81632,-3.23817,0.21453,0.73095
608.382,28.83922,-3.23816,0.21546,0.73037
609.082,28.8623,-3.239,0.21462,0.72978
609.782,28.88522,-3.23947,0.2128,0.7292
610.482,28.9082,-3.23998,0.21365,0.72862
611.182,28.9313,-3.24078,0.21034,0.72803
611.882,28.9543,-3.24155,0.21125,0.72745
612.582,28.97723,-3.24209,0.20939,0.72687
613.282,29.00018,-3.2421,0.20874,0.72628
613.982,29.02313,-3.24211,0.20922,0.7257
614.682,29.04607,-3.24211,0.20429,0.72512
615.382,29.0691,-3.24346,0.20565,0.72453
616.082,29.09204,-3.2435,0.20174,0.72395
616.782,29.11505,-3.24479,0.20211,0.72337
617.482,29.1381,-3.24485,0.19949,0.72278
618.182,29.16103,-3.24485,0.19664,0.7222
618.882,29.18409,-3.24521,0.19807,0.72162
619.582,29.20707,-3.24617,0.19516,0.72104
620.282,29.2301,-3.24617,0.19349,0.72045
620.982,29.2531,-3.24614,0.19396,0.71987
621.682,29.2761,-3.24729,0.19227,0.71929
622.382,29.29908,-3.24748,0.18929,0.71871
623.082,29.32207,-3.24756,0.18531,0.71812
623.782,29.34507,-3.24885,0.18947,0.71754
624.482,29.3681,-3.2488,0.18485,0.71696
625.182,29.39105,-3.24878,0.18439,0.71638
625.882,29.41409,-3.25002,0.18224,0.71579
626.582,29.4371,-3.25011,0.18402,0.71521
627.282,29.46012,-3.25011,0.18198,0.71463
627.982,29.48307,-3.25075,0.17589,0.71405
628.682,29.5061,-3.25141,0.17777,0.71347
629.382,29.52908,-3.25143,0.17466,0.71288
630.082,29.55213,-3.25135,0.17284,0.7123
630.782,29.57522,-3.25377,0.17208,0.71172
631.482,29.5982,-3.25373,0.16925,0.71114
632.182,29.62132,-3.25382,0.16657,0.71056
632.882,29.6444,-3.25505,0.16899,0.70998
633.582,29.66752,-3.25504,0.16908,0.70939
634.282,29.69063,-3.25504,0.16606,0.70881
634.982,29.71371,-3.25506,0.16445,0.70823
635.682,29.7368,-3.25571,0.16461,0.70765
636.382,29.7598,-3.25636,0.16305,0.70707
637.082,29.78286,-3.25638,0.1631,0.70649
637.782,29.8059,-3.25775,0.16265,0.70591
638.482,29.82897,-3.25766,0.16376,0.70533
639.182,29.8521,-3.25903,0.15958,0.70475
639.882,29.87524,-3.25894,0.1604,0.70417
640.582,29.89835,-3.25848,0.15603,0.70359
641.282,29.92152,-3.259,0.16065,0.70301
641.982,29.94459,-3.259,0.15243,0.70242
642.682,29.96765,-3.259,0.15535,0.70184
643.382,29.9908,-3.259,0.1553,0.70126
644.082,30.01385,-3.25972,0.15396,0.70068
644.782,30.0369,-3.26029,0.15664,0.7001
645.482,30.06001,-3.26031,0.15417,0.69952
646.182,30.0831,-3.26164,0.15208,0.69895
646.882,30.1061,-3.26163,0.14982,0.69837
647.582,30.12927,-3.26161,0.15029,0.69779
648.282,30.1524,-3.263,0.15075,0.69721
648.982,30.17541,-3.26295,0.14956,0.69663
649.682,30.19851,-3.26295,0.14664,0.69605
650.382,30.22158,-3.26306,0.14591,0.69547
651.082,30.2447,-3.26427,0.1485,0.69489
651.782,30.2679,-3.26426,0.14585,0.69431
652.482,30.29096,-3.26426,0.14466,0.69373
653.182,30.314,-3.26461,0.14531,0.69315
653.882,30.337,-3.26559,0.14391,0.69257
654.582,30.3599,-3.26558,0.14479,0.692
655.282,30.38285,-3.26675,0.14104,0.69142
655.982,30.40598,-3.2669,0.13909,0.69084
656.682,30.4292,-3.2669,0.14059,0.69026
657.382,30.45252,-3.26747,0.14119,0.68968
658.082,30.47571,-3.26813,0.14028,0.6891
658.782,30.49881,-3.26962,0.14093,0.68853
659.482,30.52192,-3.27107,0.13618,0.68795
660.182,30.5451,-3.27106,0.13782,0.68737
660.882,30.56822,-3.27105,0.13843,0.68679
661.582,30.59135,-3.27029,0.13598,0.68622
662.282,30.61448,-3.26976,0.13386,0.68564
662.982,30.6376,-3.26975,0.13325,0.68506
663.682,30.66077,-3.26974,0.13387,0.68449
664.382,30.68389,-3.27072,0.1305,0.68391
665.082,30.70703,-3.2711,0.13331,0.68333
665.782,30.7301,-3.26974,0.13413,0.68275
666.482,30.7532,-3.27111,0.12869,0.68218
667.182,30.7763,-3.27106,0.12973,0.6816
667.882,30.7994,-3.27106,0.1309,0.68103
668.582,30.8224,-3.27156,0.12998,0.68045
669.282,30.8456,-3.27204,0.1297,0.67987
669.982,30.8688,-3.27206,0.12754,0.6793
670.682,30.8919,-3.27241,0.12772,0.67872
671.382,30.91514,-3.27245,0.12624,0.67815
672.082,30.9382,-3.27372,0.12355,0.67757
672.782,30.96135,-3.27374,0.12447,0.67699
673.482,30.98449,-3.27506,0.12422,0.67642
674.182,31.0076,-3.27501,0.12433,0.67584
674.882,31.0308,-3.27501,0.12004,0.67527
675.582,31.05395,-3.27575,0.12507,0.67469
676.282,31.0771,-3.27631,0.12262,0.67412
676.982,31.10022,-3.27633,0.12312,0.67354
677.682,31.12333,-3.27804,0.1208,0.67297
678.382,31.14648,-3.27861,0.12251,0.6724
679.082,31.16967,-3.27863,0.12037,0.67182
679.782,31.1928,-3.2786,0.11963,0.67125
680.482,31.21596,-3.27966,0.11783,0.67067
681.182,31.2391,-3.27862,0.11597,0.6701
681.882,31.2622,-3.27899,0.11948,0.66953
682.582,31.28538,-3.27896,0.11719,0.66895
683.282,31.30854,-3.27896,0.11894,0.66838
683.982,31.3317,-3.27893,0.11578,0.66781
684.682,31.35495,-3.28021,0.11684,0.66723
685.382,31.3781,-3.28027,0.1163,0.66666
686.082,31.4013,-3.28028,0.11071,0.66609
686.782,31.42458,-3.28068,0.11212,0.66551
687.482,31.44776,-3.28159,0.11503,0.66494
688.182,31.4709,-3.28159,0.1107,0.66437
688.882,31.49414,-3.28196,0.1091,0.6638
689.582,31.5173,-3.28291,0.11176,0.66323
690.282,31.54053,-3.28291,0.11254,0.66265
690.982,31.5637,-3.28291,0.10851,0.66208
691.682,31.58698,-3.28291,0.10761,0.66151
692.382,31.61022,-3.28291,0.10823,0.66094
693.082,31.63342,-3.28291,0.10694,0.66037
693.782,31.65666,-3.28394,0.1019,0.6598
694.482,31.6798,-3.28422,0.10412,0.65922
695.182,31.70303,-3.28513,0.10063,0.65865
695.882,31.72621,-3.28553,0.10201,0.65808
696.582,31.7494,-3.28554,0.10249,0.65751
697.282,31.77262,-3.28554,0.10004,0.65694
697.982,31.7958,-3.28554,0.09771976,0.65637
698.682,31.819,-3.28554,0.09869924,0.6558
699.382,31.8422,-3.28563,0.09808739,0.65523
700.082,31.8654,-3.28691,0.09490996,0.65466
700.782,31.88856,-3.28686,0.09542995,0.65409
701.482,31.91177,-3.28686,0.09340529,0.65352
702.182,31.935,-3.28695,0.09316865,0.65295
702.882,31.9582,-3.28786,0.08758855,0.65238
703.582,31.98149,-3.28784,0.08701125,0.65182
704.282,32.0047,-3.28784,0.08977035,0.65125
704.982,32.02793,-3.28784,0.09130264,0.65068
705.682,32.05125,-3.28783,0.08896278,0.65011
706.382,32.07448,-3.28886,0.08625027,0.64954
707.082,32.09773,-3.28915,0.08432073,0.64897
707.782,32.12097,-3.28916,0.08293143,0.64841
708.482,32.14416,-3.28921,0.08337795,0.64784
709.182,32.16741,-3.29052,0.0789582,0.64727
709.882,32.19065,-3.29047,0.07681289,0.6467
710.582,32.21393,-3.29047,0.07352364,0.64614
711.282,32.23723,-3.29047,0.07262446,0.64557
711.982,32.26055,-3.29047,0.07452617,0.645
712.682,32.28385,-3.2912,0.06865782,0.64443
713.382,32.30713,-3.29178,0.07082558,0.64387
714.082,32.33041,-3.29179,0.07042499,0.6433
714.782,32.3537,-3.29179,0.0655551,0.64273
715.482,32.37703,-3.29177,0.06505929,0.64217
716.182,32.40036,-3.29112,0.06187264,0.6416
716.882,32.42368,-3.29114,0.06342529,0.64104
717.582,32.4469,-3.29154,0.05904845,0.64047
718.282,32.47016,-3.29245,0.06361669,0.63991
718.982,32.4934,-3.29245,0.05902092,0.63934
719.682,32.51668,-3.29257,0.05772667,0.63878
720.382,32.54007,-3.29376,0.05693164,0.63821
721.082,32.56341,-3.29375,0.05680667,0.63765
721.782,32.58682,-3.29356,0.0557997,0.63708
722.482,32.6102,-3.29311,0.05044964,0.63652
723.182,32.63357,-3.29381,0.04863367,0.63595
723.882,32.65687,-3.29441,0.04921722,0.63539
724.582,32.6802,-3.29443,0.04821386,0.63483
725.282,32.7036,-3.29443,0.04674795,0.63426
725.982,32.72691,-3.29443,0.04708904,0.6337
726.682,32.75032,-3.29443,0.04680165,0.63313
727.382,32.77368,-3.29443,0.04229573,0.63257
728.082,32.79699,-3.29446,0.04373777,0.63201
728.782,32.8204,-3.29545,0.04236394,0.63145
729.482,32.8438,-3.29575,0.03927142,0.63088
730.182,32.8672,-3.29576,0.03458847,0.63032
730.882,32.89062,-3.29645,0.03587108,0.62976
731.582,32.91398,-3.29705,0.03257968,0.6292
732.282,32.93736,-3.29706,0.03200131,0.62864
732.982,32.9607,-3.29705,0.0301417,0.62807
733.682,32.98405,-3.29805,0.02798763,0.62751
734.382,33.00739,-3.29837,0.02470935,0.62695
735.082,33.03072,-3.29838,0.02703143,0.62639
735.782,33.0541,-3.29838,0.02788371,0.62583
736.482,33.07747,-3.29837,0.02239976,0.62527
737.182,33.1008,-3.29973,0.02475605,0.62471
737.882,33.12427,-3.2997,0.02514122,0.62415
738.582,33.14763,-3.29969,0.02191742,0.62359
739.282,33.171,-3.29969,0.01951764,0.62303
739.982,33.19441,-3.2997,0.02487679,0.62247
740.682,33.21779,-3.29977,0.01937629,0.62191
741.382,33.24122,-3.29837,0.01633244,0.62135
742.082,33.26465,-3.29838,0.01829804,0.62079
742.782,33.28805,-3.29887,0.01431073,0.62023
743.482,33.31145,-3.29968,0.01232326,0.61967
744.182,33.3347,-3.29969,0.01279618,0.61911
744.882,33.35807,-3.29965,0.01442893,0.61856
745.582,33.38147,-3.30104,0.01480764,0.618
746.282,33.40487,-3.30101,0.01027891,0.61744
746.982,33.4283,-3.30101,0.00825274,0.61688
747.682,33.45179,-3.30101,0.004069423,0.61632
748.382,33.4752,-3.30102,0.00621338,0.61577
749.082,33.49863,-3.30155,0.004531979,0.61521
749.782,33.522,-3.30231,0.005098755,0.61465
750.482,33.54523,-3.30232,0.004539279,0.6141
751.182,33.56847,-3.30235,-0.001600535,0.61354
751.882,33.59187,-3.30097,-0.00065974,0.61298
752.582,33.61525,-3.30149,-7.181439e-05,0.61243
753.282,33.63882,-3.30232,-0.0009261886,0.61187
753.982,33.66236,-3.30232,-7.919522e-05,0.61132
754.682,33.68572,-3.30241,-0.001205405,0.61076
755.382,33.70922,-3.30365,-0.00492048,0.6102
756.082,33.7327,-3.30364,-0.001770208,0.60965
756.782,33.7561,-3.30365,-0.006926461,0.60909
757.482,33.77957,-3.30426,-0.005951648,0.60854
758.182,33.80296,-3.30495,-0.004240665,0.60799
758.882,33.82638,-3.30496,-0.005548327,0.60743
759.582,33.84975,-3.30496,-0.009328095,0.60688
760.282,33.873,-3.30482,-0.008691575,0.60632
760.982,33.89643,-3.3036,-0.006495904,0.60577
761.682,33.91989,-3.30364,-0.009151422,0.60522
762.382,33.94336,-3.30365,-0.00926914,0.60466
763.082,33.96697,-3.30404,-0.00834265,0.60411
763.782,33.99049,-3.30495,-0.01112292,0.60356
764.482,34.01398,-3.30487,-0.01163754,0.603
765.182,34.0375,-3.30625,-0.007474499,0.60245
765.882,34.061,-3.30669,-0.002406784,0.6019
766.582,34.08442,-3.30747,-0.00724727,0.60135
767.282,34.1079,-3.3091,-0.01380255,0.6008
767.982,34.1314,-3.30907,-0.01431383,0.60024
768.682,34.15489,-3.3074,-0.01467413,0.59969
769.382,34.1783,-3.30573,-0.01932337,0.59914
770.082,34.2018,-3.30574,-0.02143018,0.59859
770.782,34.22532,-3.30465,-0.01665606,0.59804
771.482,34.24881,-3.30441,-0.02131513,0.59749
772.182,34.27238,-3.30441,-0.01738285,0.59694
772.882,34.29588,-3.30441,-0.01937114,0.59639
773.582,34.3194,-3.30441,-0.02164592,0.59584
774.282,34.3428,-3.30581,-0.02171699,0.59529
774.982,34.36622,-3.30573,-0.02410006,0.59474
775.682,34.38962,-3.30572,-0.02263261,0.59419
776.382,34.41308,-3.30572,-0.02755394,0.59364
777.082,34.43652,-3.30572,-0.02726424,0.59309
777.782,34.46008,-3.30606,-0.02742367,0.59254
778.482,34.48356,-3.30701,-0.03415036,0.592
779.182,34.5071,-3.30704,-0.033671,0.59145
779.882,34.5306,-3.307,-0.02858411,0.5909
780.582,34.5541,-3.30739,-0.02972218,0.59035
781.282,34.57768,-3.30769,-0.03112529,0.5898
781.982,34.60122,-3.3077,-0.03101371,0.58926
782.682,34.62469,-3.3077,-0.03455788,0.58871
783.382,34.6482,-3.30766,-0.03566667,0.58816
784.082,34.6717,-3.30905,-0.03257137,0.58762
784.782,34.6952,-3.30901,-0.03433958,0.58707
785.482,34.71867,-3.30901,-0.03689203,0.58652
786.182,34.74214,-3.30901,-0.03622605,0.58598
786.882,34.76567,-3.30899,-0.03680315,0.58543
787.582,34.78921,-3.30866,-0.03789653,0.58489
788.282,34.81272,-3.30964,-0.04220725,0.58434
788.982,34.8363,-3.30967,-0.04164491,0.5838
789.682,34.85985,-3.30967,-0.03967492,0.58325
790.382,34.8834,-3.30967,-0.04090501,0.58271
791.082,34.90695,-3.30967,-0.04210577,0.58216
791.782,34.93051,-3.30967,-0.04590201,0.58162
792.482,34.95405,-3.30967,-0.05136578,0.58108
793.182,34.97763,-3.30961,-0.04926156,0.58053
793.782,34.99787,-3.31037,-0.04902395,0.58007