File: 01_Data/Wood_Stud/STA/N2/30K_min/Wood_Stud_STA_N2_30KData_220127_R1.csv
##Temp./Â°C,Time/min,Mass loss(subtr.2)/mg,DSC(subtr.2)/(mW/mg),Sensit./(uV/mW)
48.457,10.00917,-0.02556,0.01065389,1.06964
49.157,10.5519,-0.02469338,0.05138438,1.06958
49.857,10.67623,-0.02624643,0.08429897,1.06952
50.557,10.76544,-0.02570998,0.11146,1.06945
51.257,10.8382,-0.02659363,0.13912,1.06939
51.957,10.9017,-0.02694702,0.16449,1.06932
52.657,10.9586,-0.02678322,0.1858,1.06925
53.357,11.01022,-0.02653384,0.20857,1.06918
54.057,11.0578,-0.02765346,0.2284,1.06911
54.757,11.10237,-0.02637616,0.24664,1.06904
55.457,11.1447,-0.02640213,0.26346,1.06897
56.157,11.1854,-0.02691884,0.27884,1.06889
56.857,11.22447,-0.02601209,0.29528,1.06881
57.557,11.26165,-0.02724509,0.30832,1.06874
58.257,11.2978,-0.02587337,0.32276,1.06866
58.957,11.33308,-0.02560486,0.33856,1.06858
59.657,11.36738,-0.02622099,0.35449,1.0685
60.357,11.40047,-0.02823446,0.36578,1.06841
61.057,11.43292,-0.02650447,0.37439,1.06833
61.757,11.4648,-0.02547358,0.38812,1.06824
62.457,11.4962,-0.02568568,0.39748,1.06816
63.157,11.52689,-0.02573569,0.41046,1.06807
63.857,11.55719,-0.02694517,0.42053,1.06798
64.557,11.5869,-0.02633423,0.43097,1.06789
65.257,11.61629,-0.02724438,0.44194,1.06779
65.957,11.64516,-0.02706229,0.45088,1.0677
66.657,11.6737,-0.02717101,0.46065,1.06761
67.357,11.70195,-0.02792834,0.46744,1.06751
68.057,11.72996,-0.02801666,0.47543,1.06741
68.757,11.7578,-0.02741696,0.48576,1.06731
69.457,11.78532,-0.02716013,0.49378,1.06721
70.157,11.81258,-0.02734467,0.50268,1.06711
70.857,11.83944,-0.02841743,0.51039,1.06701
71.557,11.86625,-0.02800946,0.51914,1.0669
72.257,11.89303,-0.02778375,0.52284,1.0668
72.957,11.9198,-0.02872158,0.5327,1.06669
73.657,11.94624,-0.02858762,0.5408,1.06658
74.357,11.9725,-0.02878246,0.54537,1.06647
75.057,11.9986,-0.028513,0.55228,1.06636
75.757,12.02454,-0.02870311,0.55818,1.06625
76.457,12.0505,-0.03010711,0.56449,1.06613
77.157,12.07622,-0.03018703,0.57161,1.06602
77.857,12.10192,-0.02929615,0.5788,1.0659
78.557,12.12749,-0.02957437,0.58267,1.06578
79.257,12.15259,-0.03040158,0.58982,1.06566
79.957,12.1778,-0.0306113,0.59573,1.06554
80.657,12.20294,-0.03071375,0.59931,1.06542
81.357,12.22816,-0.03029052,0.60526,1.0653
82.057,12.25351,-0.03052386,0.61173,1.06517
82.757,12.27842,-0.02947355,0.61564,1.06505
83.457,12.3034,-0.03048861,0.6205,1.06492
84.157,12.32803,-0.03100294,0.62583,1.06479
84.857,12.3527,-0.03187505,0.62931,1.06466
85.557,12.3773,-0.03101856,0.63454,1.06453
86.257,12.40184,-0.03217835,0.63966,1.0644
86.957,12.42641,-0.03097876,0.6449,1.06427
87.657,12.45084,-0.03242834,0.65084,1.06413
88.357,12.47526,-0.03216778,0.65672,1.06399
89.057,12.49952,-0.03236634,0.65967,1.06386
89.757,12.52378,-0.03236325,0.6625,1.06372
90.457,12.5481,-0.03235702,0.66619,1.06358
91.157,12.57212,-0.03249074,0.67052,1.06344
91.857,12.59623,-0.03356995,0.67614,1.06329
92.557,12.62031,-0.03281575,0.68034,1.06315
93.257,12.6443,-0.03374392,0.68249,1.063
93.957,12.6683,-0.03345452,0.68781,1.06286
94.657,12.69225,-0.03376938,0.68949,1.06271
95.357,12.71621,-0.03392059,0.69276,1.06256
96.057,12.7402,-0.03508204,0.69645,1.06241
96.757,12.764,-0.03368954,0.70017,1.06226
97.457,12.78782,-0.03500503,0.70101,1.0621
98.157,12.8115,-0.035106,0.70451,1.06195
98.857,12.83527,-0.03509347,0.70673,1.06179
99.557,12.85904,-0.03509282,0.71227,1.06164
100.257,12.88278,-0.03642706,0.71253,1.06148
100.957,12.90654,-0.03642539,0.71478,1.06132
101.657,12.93018,-0.03636576,0.71579,1.06116
102.357,12.95385,-0.03629506,0.71954,1.061
103.057,12.97748,-0.03641789,0.72065,1.06083
103.757,13.00108,-0.03643026,0.72217,1.06067
104.457,13.02473,-0.03781488,0.72335,1.0605
105.157,13.0483,-0.03773116,0.72392,1.06033
105.857,13.07189,-0.03772609,0.72359,1.06017
106.557,13.0955,-0.03763295,0.72522,1.06
107.257,13.1191,-0.03904976,0.72663,1.05983
107.957,13.14265,-0.03901759,0.72706,1.05965
108.657,13.16625,-0.03767302,0.7271,1.05948
109.357,13.1898,-0.03772987,0.72822,1.0593
110.057,13.2134,-0.0376508,0.72772,1.05913
110.757,13.237,-0.03902489,0.72958,1.05895
111.457,13.2605,-0.0390403,0.72894,1.05877
112.157,13.284,-0.03903926,0.72634,1.05859
112.857,13.30746,-0.03903142,0.72636,1.05841
113.557,13.33092,-0.03821243,0.72393,1.05823
114.257,13.3544,-0.03900307,0.72439,1.05805
114.957,13.3779,-0.03904978,0.72401,1.05786
115.657,13.4013,-0.03905,0.7225,1.05767
116.357,13.4247,-0.03904951,0.72339,1.05749
117.057,13.4481,-0.03904647,0.72187,1.0573
117.757,13.4716,-0.0404572,0.7191,1.05711
118.457,13.49496,-0.04038946,0.71906,1.05692
119.157,13.5183,-0.0409486,0.71758,1.05673
119.857,13.5416,-0.04166636,0.71727,1.05653
120.557,13.56487,-0.04158538,0.71422,1.05634
121.257,13.58809,-0.04029007,0.71517,1.05614
121.957,13.61137,-0.0416874,0.71291,1.05594
122.657,13.63461,-0.04168055,0.71234,1.05575
123.357,13.65775,-0.04168001,0.71205,1.05555
124.057,13.6809,-0.04168,0.71164,1.05534
124.757,13.70408,-0.04168,0.70889,1.05514
125.457,13.7272,-0.04168,0.70958,1.05494
126.157,13.75035,-0.04168001,0.70886,1.05473
126.857,13.77345,-0.04168031,0.70951,1.05453
127.557,13.7964,-0.04168486,0.70725,1.05432
128.257,13.81955,-0.0416626,0.71086,1.05411
128.957,13.8426,-0.04100129,0.7082,1.0539
129.657,13.86558,-0.04174231,0.70784,1.05369
130.357,13.8885,-0.04169095,0.71204,1.05348
131.057,13.9114,-0.0416801,0.70972,1.05327
131.757,13.9343,-0.04167826,0.70866,1.05305
132.457,13.95708,-0.04165851,0.70919,1.05284
133.157,13.97998,-0.04062692,0.71082,1.05262
133.857,14.0029,-0.04036187,0.71145,1.0524
134.557,14.02571,-0.04036013,0.71148,1.05218
135.257,14.04856,-0.04036017,0.71405,1.05196
135.957,14.0712,-0.04035197,0.71343,1.05174
136.657,14.09385,-0.04280778,0.71367,1.05152
137.357,14.1165,-0.04299614,0.7156,1.0513
138.057,14.1391,-0.04299992,0.71576,1.05107
138.757,14.1618,-0.04240941,0.71441,1.05084
139.457,14.1845,-0.0417034,0.71941,1.05062
140.157,14.20701,-0.04168079,0.72027,1.05039
140.857,14.22964,-0.04167999,0.72167,1.05016
141.557,14.25221,-0.04168031,0.72032,1.04993
142.257,14.27472,-0.04168693,0.72428,1.04969
142.957,14.29734,-0.04193398,0.72597,1.04946
143.657,14.31991,-0.04233956,0.72881,1.04923
144.357,14.34237,-0.04251539,0.7273,1.04899
145.057,14.36484,-0.04244501,0.72909,1.04875
145.757,14.38724,-0.04167689,0.72903,1.04851
146.457,14.4096,-0.04168004,0.73138,1.04827
147.157,14.432,-0.04167986,0.73313,1.04803
147.857,14.45435,-0.04167643,0.73561,1.04779
148.557,14.4767,-0.04163328,0.73594,1.04755
149.257,14.4991,-0.04298696,0.73842,1.04731
149.957,14.5214,-0.04299628,0.74115,1.04706
150.657,14.54372,-0.04218784,0.74199,1.04681
151.357,14.56605,-0.04169616,0.74458,1.04657
152.057,14.58836,-0.04168027,0.74452,1.04632
152.757,14.6107,-0.04167998,0.74665,1.04607
153.457,14.63291,-0.04167998,0.75099,1.04582
154.157,14.6552,-0.04167973,0.75136,1.04556
154.857,14.6774,-0.04167721,0.75257,1.04531
155.557,14.69943,-0.04168856,0.75469,1.04506
156.257,14.72158,-0.04304634,0.75907,1.0448
156.957,14.74373,-0.04300363,0.75934,1.04454
157.657,14.7659,-0.04300018,0.76087,1.04429
158.357,14.78824,-0.043,0.76518,1.04403
159.057,14.81052,-0.043,0.76671,1.04377
159.757,14.8327,-0.043,0.76783,1.0435
160.457,14.85479,-0.04299988,0.7699,1.04324
161.157,14.8769,-0.04299849,0.77388,1.04298
161.857,14.8988,-0.04269981,0.77652,1.04271
162.557,14.92084,-0.04169877,0.77588,1.04245
163.257,14.9429,-0.04168193,0.78062,1.04218
163.957,14.96491,-0.04168111,0.78325,1.04191
164.657,14.987,-0.04169162,0.78447,1.04164
165.357,15.0091,-0.04233736,0.78456,1.04137
166.057,15.0312,-0.04298877,0.78641,1.0411
166.757,15.0532,-0.04299978,0.78878,1.04083
167.457,15.07516,-0.04301351,0.79351,1.04055
168.157,15.09707,-0.04348523,0.79208,1.04028
168.857,15.119,-0.04431987,0.79673,1.04
169.557,15.1409,-0.0435616,0.79912,1.03973
170.257,15.16295,-0.04333973,0.79948,1.03945
170.957,15.185,-0.04342508,0.80181,1.03917
171.657,15.20694,-0.04202603,0.80397,1.03889
172.357,15.229,-0.04201151,0.80889,1.03861
173.057,15.2509,-0.04281236,0.80902,1.03832
173.757,15.2727,-0.04331598,0.81137,1.03804
174.457,15.2946,-0.04332911,0.81214,1.03775
175.157,15.3164,-0.04332996,0.81622,1.03747
175.857,15.33823,-0.04333,0.81942,1.03718
176.557,15.36005,-0.04333,0.81876,1.03689
177.257,15.3818,-0.04333,0.8222,1.0366
177.957,15.40363,-0.04333,0.82521,1.03631
178.657,15.4254,-0.04333,0.82638,1.03602
179.357,15.4472,-0.04333,0.82895,1.03573
180.057,15.469,-0.04333,0.82985,1.03544
180.757,15.49071,-0.04332999,0.83289,1.03514
181.457,15.5124,-0.04332983,0.83705,1.03484
182.157,15.53415,-0.04332662,0.83771,1.03455
182.857,15.55584,-0.04327965,0.84106,1.03425
183.557,15.57746,-0.04457237,0.84252,1.03395
184.257,15.599,-0.04463946,0.84497,1.03365
184.957,15.62066,-0.04469666,0.84578,1.03335
185.657,15.64202,-0.04600887,0.84983,1.03305
186.357,15.66354,-0.04596147,0.85035,1.03274
187.057,15.68503,-0.04592472,0.85565,1.03244
187.757,15.70651,-0.0463088,0.85395,1.03213
188.457,15.7283,-0.04629046,0.85816,1.03183
189.157,15.7499,-0.04628896,0.86134,1.03152
189.857,15.7716,-0.04623917,0.86408,1.03121
190.557,15.7932,-0.04739237,0.8652,1.0309
191.257,15.81471,-0.04636695,0.86755,1.03059
191.957,15.83622,-0.04597568,0.86944,1.03028
192.657,15.85769,-0.04596053,0.87101,1.02997
193.357,15.87915,-0.04596,0.87566,1.02965
194.057,15.9007,-0.04596053,0.87777,1.02934
194.757,15.9221,-0.04597555,0.88071,1.02902
195.457,15.9437,-0.0463655,0.88243,1.0287
196.157,15.96509,-0.04728547,0.88445,1.02838
196.857,15.98645,-0.04728027,0.88656,1.02807
197.557,16.00796,-0.04728008,0.88894,1.02775
198.257,16.02939,-0.04727975,0.89111,1.02742
198.957,16.0509,-0.04724756,0.89251,1.0271
199.657,16.0725,-0.04846475,0.89434,1.02678
200.357,16.09392,-0.04858819,0.89648,1.02645
201.057,16.11535,-0.0485899,0.89908,1.02613
201.757,16.1368,-0.04859,0.89878,1.0258
202.457,16.15812,-0.04859,0.90521,1.02547
203.157,16.17946,-0.04859,0.90556,1.02515
203.857,16.2009,-0.04859,0.90845,1.02482
204.557,16.22225,-0.04859,0.91113,1.02449
205.257,16.24369,-0.04859,0.91202,1.02415
205.957,16.2651,-0.04859001,0.91581,1.02382
206.657,16.28642,-0.0485901,0.91742,1.02349
207.357,16.30774,-0.048591,0.9217,1.02315
208.057,16.32909,-0.04891362,0.92363,1.02282
208.757,16.3505,-0.04994378,0.92242,1.02248
209.457,16.37182,-0.05126488,0.92593,1.02214
210.157,16.39323,-0.05122347,0.93081,1.02181
210.857,16.41457,-0.05122022,0.93002,1.02147
211.557,16.43592,-0.05122001,0.93222,1.02113
212.257,16.45733,-0.05122,0.93448,1.02078
212.957,16.47867,-0.05122,0.93762,1.02044
213.657,16.50005,-0.05121992,0.93794,1.0201
214.357,16.52137,-0.05121704,0.93777,1.01975
215.057,16.5427,-0.05190924,0.94046,1.01941
215.757,16.564,-0.05251486,0.9429,1.01906
216.457,16.58535,-0.05253119,0.94622,1.01871
217.157,16.60665,-0.05365423,0.94732,1.01836
217.857,16.62794,-0.05384424,0.94854,1.01801
218.557,16.64929,-0.05385003,0.95259,1.01766
219.257,16.6704,-0.05384916,0.95146,1.01731
219.957,16.6915,-0.05382591,0.9541,1.01696
220.657,16.71274,-0.05480122,0.95771,1.01661
221.357,16.73398,-0.05515687,0.95834,1.01625
222.057,16.75541,-0.05517113,0.96193,1.0159
222.757,16.7769,-0.0551923,0.96277,1.01554
223.457,16.79828,-0.05608105,0.96607,1.01518
224.157,16.81953,-0.05647969,0.96862,1.01483
224.857,16.84074,-0.05647992,0.96752,1.01447
225.557,16.86196,-0.05647997,0.96971,1.01411
226.257,16.88317,-0.05647961,0.97038,1.01375
226.957,16.90436,-0.05647339,0.97401,1.01338
227.657,16.92559,-0.05749426,0.9731,1.01302
228.357,16.94683,-0.05777573,0.9781,1.01266
229.057,16.96808,-0.05899494,0.97687,1.01229
229.757,16.98929,-0.06044149,0.98052,1.01193
230.457,17.01056,-0.06053688,0.98117,1.01156
231.157,17.0318,-0.06175657,0.98081,1.01119
231.857,17.0531,-0.06175048,0.9827,1.01082
232.557,17.07433,-0.06174956,0.98649,1.01045
233.257,17.0956,-0.06174303,0.98597,1.01008
233.957,17.11683,-0.0616653,0.98856,1.00971
234.657,17.13808,-0.06306453,0.99075,1.00934
235.357,17.15922,-0.06306996,0.99085,1.00896
236.057,17.18042,-0.06351507,0.9929,1.00859
236.757,17.2016,-0.06436664,0.99423,1.00822
237.457,17.2228,-0.06438873,0.99644,1.00784
238.157,17.24404,-0.06437566,0.99681,1.00746
238.857,17.26527,-0.06433144,1.00145,1.00708
239.557,17.28642,-0.06566352,1.00384,1.00671
240.257,17.30762,-0.06581453,1.00547,1.00633
240.957,17.32886,-0.06644412,1.00749,1.00594
241.657,17.35001,-0.06711857,1.01025,1.00556
242.357,17.3712,-0.06852792,1.01299,1.00518
243.057,17.39238,-0.06999127,1.0147,1.0048
243.757,17.4136,-0.07009317,1.01791,1.00441
244.457,17.43481,-0.07135557,1.01955,1.00403
245.157,17.45599,-0.07142486,1.0204,1.00364
245.857,17.47714,-0.07278253,1.02389,1.00325
246.557,17.49829,-0.07362627,1.02676,1.00287
247.257,17.51945,-0.07415783,1.02715,1.00248
247.957,17.54061,-0.07561448,1.02724,1.00209
248.657,17.56181,-0.07568842,1.03112,1.0017
249.357,17.58295,-0.07693687,1.03354,1.00131
250.057,17.60409,-0.07679742,1.0351,1.00091
250.757,17.62527,-0.0783906,1.03796,1.00052
251.457,17.64649,-0.07930211,1.03997,1.00013
252.157,17.66769,-0.08069804,1.044,0.99973
252.857,17.6889,-0.08182707,1.04621,0.99934
253.557,17.71007,-0.08339353,1.04743,0.99894
254.257,17.73116,-0.08392007,1.05063,0.99854
254.957,17.7523,-0.08484092,1.05331,0.99814
255.657,17.77345,-0.08600186,1.05711,0.99774
256.357,17.7946,-0.08673354,1.05925,0.99734
257.057,17.81586,-0.08833962,1.06426,0.99694
257.757,17.83697,-0.0896639,1.06667,0.99654
258.457,17.8581,-0.09154979,1.06922,0.99614
259.157,17.87922,-0.09345265,1.06959,0.99573
259.857,17.90032,-0.09552965,1.07682,0.99533
260.557,17.92154,-0.09858834,1.07741,0.99492
261.257,17.94268,-0.10034,1.079,0.99452
261.957,17.96386,-0.10198,1.08235,0.99411
262.657,17.985,-0.10335,1.08474,0.9937
263.357,18.00619,-0.10431,1.08863,0.99329
264.057,18.02739,-0.10634,1.09089,0.99288
264.757,18.0486,-0.10851,1.09331,0.99247
265.457,18.0698,-0.10981,1.09834,0.99206
266.157,18.0909,-0.11151,1.09875,0.99165
266.857,18.11194,-0.11351,1.10123,0.99124
267.557,18.1331,-0.11593,1.10673,0.99082
268.257,18.15423,-0.11772,1.10848,0.99041
268.957,18.17536,-0.11979,1.11035,0.98999
269.657,18.1966,-0.12245,1.11229,0.98958
270.357,18.21769,-0.12575,1.11638,0.98916
271.057,18.2388,-0.12893,1.11751,0.98874
271.757,18.25994,-0.1317,1.12206,0.98832
272.457,18.28102,-0.13407,1.12359,0.9879
273.157,18.3022,-0.13661,1.12533,0.98748
273.857,18.3234,-0.13934,1.12863,0.98706
274.557,18.34457,-0.14242,1.13217,0.98664
275.257,18.3657,-0.14366,1.1345,0.98622
275.957,18.38689,-0.14669,1.13775,0.98579
276.657,18.40804,-0.1494,1.14336,0.98537
277.357,18.42924,-0.15247,1.14466,0.98495
278.057,18.4505,-0.15548,1.14513,0.98452
278.757,18.47164,-0.15876,1.14715,0.98409
279.457,18.4927,-0.16236,1.14846,0.98366
280.157,18.51385,-0.16583,1.15238,0.98324
280.857,18.535,-0.16956,1.15483,0.98281
281.557,18.55617,-0.17262,1.15694,0.98238
282.257,18.57739,-0.17588,1.15945,0.98195
282.957,18.59856,-0.17938,1.1618,0.98151
283.657,18.6198,-0.18315,1.16495,0.98108
284.357,18.64096,-0.18706,1.16691,0.98065
285.057,18.6621,-0.18968,1.16873,0.98022
285.757,18.68329,-0.19347,1.1715,0.97978
286.457,18.70441,-0.19731,1.17352,0.97935
287.157,18.72556,-0.20153,1.17383,0.97891
287.857,18.74675,-0.20541,1.17545,0.97847
288.557,18.76791,-0.2093,1.17704,0.97803
289.257,18.7892,-0.21434,1.17972,0.9776
289.957,18.81041,-0.21915,1.18224,0.97716
290.657,18.83159,-0.22391,1.18255,0.97672
291.357,18.85277,-0.22828,1.18481,0.97628
292.057,18.87397,-0.23322,1.18775,0.97583
292.757,18.8951,-0.23847,1.18875,0.97539
293.457,18.91625,-0.24284,1.19118,0.97495
294.157,18.9374,-0.24713,1.19461,0.97451
294.857,18.95854,-0.25127,1.19668,0.97406
295.557,18.9798,-0.25704,1.1959,0.97362
296.257,19.0011,-0.2617,1.19911,0.97317
296.957,19.02231,-0.2673,1.19977,0.97272
297.657,19.04355,-0.27228,1.20471,0.97228
298.357,19.06474,-0.27836,1.20559,0.97183
299.057,19.0859,-0.28339,1.20791,0.97138
299.757,19.107,-0.2884,1.20941,0.97093
300.457,19.12821,-0.294,1.21212,0.97048
301.157,19.1494,-0.29972,1.21424,0.97003
301.857,19.17061,-0.30691,1.21752,0.96958
302.557,19.19194,-0.31322,1.22126,0.96912
303.257,19.2132,-0.31958,1.22178,0.96867
303.957,19.2344,-0.3249,1.22513,0.96822
304.657,19.25562,-0.33101,1.22611,0.96776
305.357,19.27683,-0.33682,1.23071,0.96731
306.057,19.29799,-0.34413,1.23346,0.96685
306.757,19.31925,-0.34992,1.23699,0.96639
307.457,19.34049,-0.35697,1.24024,0.96593
308.157,19.3617,-0.36276,1.24568,0.96548
308.857,19.38299,-0.37074,1.24724,0.96502
309.557,19.40427,-0.37727,1.25358,0.96456
310.257,19.42549,-0.38505,1.2549,0.9641
310.957,19.44674,-0.39154,1.25912,0.96364
311.657,19.46795,-0.39914,1.26585,0.96317
312.357,19.48913,-0.40681,1.26998,0.96271
313.057,19.5104,-0.41492,1.27569,0.96225
313.757,19.53162,-0.4229,1.27959,0.96178
314.457,19.5529,-0.43017,1.28753,0.96132
315.157,19.57418,-0.43871,1.29137,0.96085
315.857,19.59528,-0.44638,1.29909,0.96039
316.557,19.61659,-0.45571,1.30239,0.95992
317.257,19.63782,-0.46334,1.30775,0.95945
317.957,19.65907,-0.47271,1.31738,0.95899
318.657,19.6804,-0.48005,1.32481,0.95852
319.357,19.70168,-0.49012,1.33076,0.95805
320.057,19.7229,-0.49855,1.33847,0.95758
320.757,19.74429,-0.5087,1.34722,0.95711
321.457,19.76557,-0.51773,1.35426,0.95664
322.157,19.78685,-0.52819,1.36348,0.95617
322.857,19.80818,-0.5373,1.3703,0.95569
323.557,19.82945,-0.54667,1.38116,0.95522
324.257,19.8508,-0.55662,1.38773,0.95475
324.957,19.87213,-0.56726,1.39909,0.95427
325.657,19.89349,-0.57888,1.40871,0.9538
326.357,19.91478,-0.58953,1.41816,0.95332
327.057,19.936,-0.60142,1.42769,0.95284
327.757,19.95722,-0.61128,1.43704,0.95237
328.457,19.97849,-0.62425,1.44812,0.95189
329.157,19.9997,-0.63494,1.45706,0.95141
329.857,20.021,-0.64788,1.46772,0.95093
330.557,20.0424,-0.65838,1.4781,0.95045
331.257,20.06374,-0.67213,1.48933,0.94997
331.957,20.08513,-0.68352,1.50097,0.94949
332.657,20.10654,-0.697,1.51108,0.94901
333.357,20.12789,-0.70932,1.52354,0.94852
334.057,20.14923,-0.72308,1.53131,0.94804
334.757,20.17064,-0.73702,1.54314,0.94756
335.457,20.1921,-0.7507,1.55565,0.94707
336.157,20.21351,-0.7652,1.56646,0.94659
336.857,20.23499,-0.77839,1.57762,0.9461
337.557,20.25631,-0.79357,1.588,0.94562
338.257,20.2777,-0.80676,1.5998,0.94513
338.957,20.29909,-0.82313,1.61015,0.94464
339.657,20.3204,-0.83768,1.62038,0.94416
340.357,20.34185,-0.85439,1.6307,0.94367
341.057,20.36328,-0.8684,1.63969,0.94318
341.757,20.38468,-0.88582,1.649,0.94269
342.457,20.40609,-0.89986,1.65642,0.9422
343.157,20.42756,-0.91676,1.6684,0.94171
343.857,20.449,-0.9326,1.67653,0.94122
344.557,20.47041,-0.94957,1.6855,0.94072
345.257,20.4919,-0.96672,1.69143,0.94023
345.957,20.5134,-0.98267,1.69845,0.93974
346.657,20.5348,-1.00134,1.7093,0.93924
347.357,20.5563,-1.01778,1.71473,0.93875
348.057,20.57771,-1.03703,1.7246,0.93825
348.757,20.59917,-1.05233,1.72952,0.93776
349.457,20.62059,-1.07142,1.73421,0.93726
350.157,20.64206,-1.08662,1.74258,0.93677
350.857,20.6635,-1.10552,1.74832,0.93627
351.557,20.68502,-1.12186,1.75513,0.93577
352.257,20.70656,-1.14105,1.75931,0.93527
352.957,20.7281,-1.15845,1.76479,0.93477
353.657,20.74964,-1.17649,1.76902,0.93427
354.357,20.77115,-1.19487,1.77515,0.93377
355.057,20.79257,-1.21301,1.7829,0.93327
355.757,20.81401,-1.23304,1.7867,0.93277
356.457,20.8355,-1.25049,1.79283,0.93227
357.157,20.85709,-1.27074,1.79941,0.93177
357.857,20.87864,-1.2878,1.80503,0.93126
358.557,20.90024,-1.30941,1.81013,0.93076
359.257,20.92182,-1.32685,1.81738,0.93026
359.957,20.9433,-1.34814,1.82447,0.92975
360.657,20.96489,-1.3664,1.83632,0.92925
361.357,20.98646,-1.38743,1.84525,0.92874
362.057,21.008,-1.40607,1.85355,0.92823
362.757,21.02961,-1.42559,1.86362,0.92773
363.457,21.05116,-1.4453,1.87511,0.92722
364.157,21.07281,-1.46443,1.88757,0.92671
364.857,21.09439,-1.48713,1.90004,0.9262
365.557,21.11599,-1.50639,1.91529,0.92569
366.257,21.13764,-1.52932,1.93211,0.92519
366.957,21.15922,-1.54816,1.94746,0.92468
367.657,21.18088,-1.57097,1.96239,0.92416
368.357,21.20235,-1.5897,1.98128,0.92365
369.057,21.22374,-1.6128,1.99862,0.92314
369.757,21.2454,-1.63221,2.02221,0.92263
370.457,21.26699,-1.65433,2.04252,0.92212
371.157,21.28872,-1.67536,2.06558,0.9216
371.857,21.31065,-1.69883,2.08595,0.92109
372.557,21.33224,-1.72264,2.1096,0.92058
373.257,21.35388,-1.74428,2.13264,0.92006
373.957,21.3755,-1.76893,2.15791,0.91955
374.657,21.39716,-1.79012,2.18088,0.91903
375.357,21.41885,-1.81669,2.2058,0.91851
376.057,21.4406,-1.83836,2.23338,0.918
376.757,21.4623,-1.86463,2.25602,0.91748
377.457,21.484,-1.88627,2.28062,0.91696
378.157,21.50574,-1.91269,2.30785,0.91644
378.857,21.52751,-1.93629,2.32978,0.91593
379.557,21.5492,-1.96233,2.35481,0.91541
380.257,21.57092,-1.98993,2.37516,0.91489
380.957,21.59263,-2.01568,2.39448,0.91437
381.657,21.61436,-2.04371,2.41527,0.91385
382.357,21.63606,-2.0677,2.42967,0.91333
383.057,21.6578,-2.09619,2.44404,0.9128
383.757,21.6795,-2.11988,2.45804,0.91228
384.457,21.70117,-2.14949,2.46789,0.91176
385.157,21.7229,-2.17367,2.47311,0.91124
385.857,21.74469,-2.20164,2.47528,0.91071
386.557,21.7664,-2.22602,2.47389,0.91019
387.257,21.78816,-2.25433,2.47103,0.90966
387.957,21.8099,-2.28139,2.46221,0.90914
388.657,21.8317,-2.30788,2.44931,0.90861
389.357,21.85351,-2.3361,2.43369,0.90809
390.057,21.87526,-2.36144,2.41032,0.90756
390.757,21.89698,-2.39033,2.38379,0.90703
391.457,21.91872,-2.41478,2.35325,0.90651
392.157,21.94045,-2.44274,2.3174,0.90598
392.857,21.9621,-2.46548,2.2798,0.90545
393.557,21.98386,-2.49214,2.22889,0.90492
394.257,22.0056,-2.51429,2.17949,0.90439
394.957,22.02734,-2.53941,2.12539,0.90386
395.657,22.04906,-2.56214,2.06539,0.90334
396.357,22.07082,-2.58441,2.0,0.9028
397.057,22.09252,-2.60643,1.92956,0.90227
397.757,22.1142,-2.62618,1.85537,0.90174
398.457,22.13591,-2.64845,1.78186,0.90121
399.157,22.15755,-2.66741,1.70497,0.90068
399.857,22.17923,-2.6878,1.61961,0.90015
400.557,22.2009,-2.7035,1.5385,0.89961
401.257,22.2225,-2.72195,1.45461,0.89908
401.957,22.24415,-2.73593,1.36447,0.89855
402.657,22.2657,-2.75114,1.27993,0.89801
403.357,22.2873,-2.76437,1.19107,0.89748
404.057,22.30895,-2.77824,1.10599,0.89694
404.757,22.3306,-2.79077,1.01759,0.89641
405.457,22.35225,-2.80148,0.93445,0.89587
406.157,22.37388,-2.81386,0.85402,0.89533
406.857,22.39549,-2.82393,0.77439,0.8948
407.557,22.4171,-2.83445,0.69769,0.89426
408.257,22.43863,-2.84177,0.62413,0.89372
408.957,22.46027,-2.84987,0.555,0.89319
409.657,22.48199,-2.85576,0.49005,0.89265
410.357,22.50364,-2.86222,0.42854,0.89211
411.057,22.52531,-2.86718,0.37155,0.89157
411.757,22.54692,-2.87225,0.32136,0.89103
412.457,22.56845,-2.87721,0.27372,0.89049
413.157,22.59005,-2.88201,0.23082,0.88995
413.857,22.6115,-2.88682,0.19131,0.88941
414.557,22.63312,-2.89072,0.15824,0.88887
415.257,22.6548,-2.89477,0.12656,0.88833
415.957,22.67641,-2.89759,0.09905287,0.88778
416.657,22.6982,-2.90014,0.07796123,0.88724
417.357,22.71985,-2.90433,0.05380935,0.8867
418.057,22.74152,-2.90736,0.03786975,0.88616
418.757,22.7632,-2.91063,0.02319753,0.88561
419.457,22.78484,-2.91334,0.007595499,0.88507
420.157,22.80654,-2.9154,-0.004866583,0.88452
420.857,22.8283,-2.91745,-0.01628764,0.88398
421.557,22.85003,-2.91995,-0.02763037,0.88344
422.257,22.87175,-2.92271,-0.03430979,0.88289
422.957,22.89349,-2.92521,-0.04387465,0.88234
423.657,22.9152,-2.92734,-0.05130234,0.8818
424.357,22.93698,-2.93006,-0.05636079,0.88125
425.057,22.95886,-2.93231,-0.0628652,0.8807
425.757,22.9807,-2.93394,-0.0679328,0.88016
426.457,23.0026,-2.93597,-0.07277262,0.87961
427.157,23.0244,-2.93796,-0.08030371,0.87906
427.857,23.04614,-2.94029,-0.086251,0.87851
428.557,23.06793,-2.94285,-0.09186249,0.87797
429.257,23.08972,-2.94501,-0.09727192,0.87742
429.957,23.11157,-2.94714,-0.10439,0.87687
430.657,23.13343,-2.94913,-0.10764,0.87632
431.357,23.1553,-2.95123,-0.11289,0.87577
432.057,23.17719,-2.95337,-0.11923,0.87522
432.757,23.19906,-2.95537,-0.12408,0.87467
433.457,23.22096,-2.95792,-0.12875,0.87412
434.157,23.24285,-2.96043,-0.13426,0.87357
434.857,23.26474,-2.96245,-0.13848,0.87301
435.557,23.28664,-2.96423,-0.14371,0.87246
436.257,23.30852,-2.96562,-0.15004,0.87191
436.957,23.33041,-2.96715,-0.15444,0.87136
437.657,23.35235,-2.96921,-0.15858,0.8708
438.357,23.37429,-2.9713,-0.16194,0.87025
439.057,23.3961,-2.97346,-0.1654,0.8697
439.757,23.418,-2.97557,-0.17191,0.86914
440.457,23.43988,-2.97735,-0.17582,0.86859
441.157,23.46184,-2.9793,-0.18154,0.86803
441.857,23.4839,-2.98051,-0.18591,0.86748
442.557,23.50589,-2.98255,-0.19037,0.86692
443.257,23.5279,-2.98521,-0.19224,0.86637
443.957,23.5499,-2.98725,-0.19947,0.86581
444.657,23.57187,-2.98828,-0.20183,0.86526
445.357,23.59384,-2.99037,-0.20711,0.8647
446.057,23.61584,-2.99299,-0.20816,0.86414
446.757,23.63775,-2.99494,-0.21522,0.86359
447.457,23.65973,-2.99592,-0.21708,0.86303
448.157,23.68176,-2.99756,-0.22083,0.86247
448.857,23.7038,-3.0007,-0.22487,0.86191
449.557,23.72588,-3.00344,-0.22886,0.86136
450.257,23.74788,-3.00501,-0.22967,0.8608
450.957,23.7699,-3.00659,-0.23108,0.86024
451.657,23.79198,-3.00833,-0.2345,0.85968
452.357,23.814,-3.01,-0.23312,0.85912
453.057,23.83596,-3.01169,-0.23808,0.85856
453.757,23.8581,-3.01316,-0.24062,0.858
454.457,23.88012,-3.01473,-0.24053,0.85744
455.157,23.90222,-3.01659,-0.2409,0.85688
455.857,23.92441,-3.01795,-0.23832,0.85632
456.557,23.94644,-3.01927,-0.24043,0.85576
457.257,23.9685,-3.02166,-0.24006,0.8552
457.957,23.99054,-3.02431,-0.24167,0.85464
458.657,24.0126,-3.0262,-0.23872,0.85407
459.357,24.0347,-3.02785,-0.23901,0.85351
460.057,24.05675,-3.02976,-0.24001,0.85295
460.757,24.07882,-3.0317,-0.23592,0.85239
461.457,24.1009,-3.03323,-0.23426,0.85182
462.157,24.1231,-3.03498,-0.23364,0.85126
462.857,24.1452,-3.03624,-0.23206,0.8507
463.557,24.16739,-3.03713,-0.22809,0.85013
464.257,24.18955,-3.03896,-0.22596,0.84957
464.957,24.2117,-3.0408,-0.224,0.849
465.657,24.23382,-3.04219,-0.22267,0.84844
466.357,24.25592,-3.04258,-0.21625,0.84788
467.057,24.27809,-3.0447,-0.21338,0.84731
467.757,24.30025,-3.0466,-0.20801,0.84675
468.457,24.3224,-3.04755,-0.20372,0.84618
469.157,24.34456,-3.04863,-0.2001,0.84561
469.857,24.3667,-3.05098,-0.19447,0.84505
470.557,24.38889,-3.05308,-0.19332,0.84448
471.257,24.4111,-3.05468,-0.18688,0.84392
471.957,24.4333,-3.05649,-0.18204,0.84335
472.657,24.45559,-3.05778,-0.17742,0.84278
473.357,24.4778,-3.05933,-0.17464,0.84222
474.057,24.50004,-3.06105,-0.16878,0.84165
474.757,24.52233,-3.06291,-0.16446,0.84108
475.457,24.54457,-3.06367,-0.16053,0.84051
476.157,24.56684,-3.06397,-0.1547,0.83994
476.857,24.5891,-3.06562,-0.14797,0.83938
477.557,24.61133,-3.06741,-0.14485,0.83881
478.257,24.63361,-3.06924,-0.13686,0.83824
478.957,24.6558,-3.07067,-0.13183,0.83767
479.657,24.67803,-3.07214,-0.12693,0.8371
480.357,24.70025,-3.07229,-0.12218,0.83653
481.057,24.72249,-3.07386,-0.11392,0.83596
481.757,24.7448,-3.07537,-0.11165,0.83539
482.457,24.76703,-3.07725,-0.10495,0.83482
483.157,24.78933,-3.0801,-0.09768076,0.83425
483.857,24.81157,-3.0814,-0.09330194,0.83368
484.557,24.8339,-3.08267,-0.09033609,0.83311
485.257,24.85615,-3.08375,-0.08480549,0.83254
485.957,24.87848,-3.08494,-0.082801,0.83197
486.657,24.9008,-3.08631,-0.07684514,0.8314
487.357,24.92311,-3.08627,-0.07127889,0.83083
488.057,24.94546,-3.08636,-0.06622595,0.83025
488.757,24.96761,-3.08797,-0.06429539,0.82968
489.457,24.9899,-3.08799,-0.05880894,0.82911
490.157,25.01227,-3.08961,-0.05482691,0.82854
490.857,25.03461,-3.0919,-0.05144077,0.82797
491.557,25.05706,-3.0943,-0.04672362,0.82739
492.257,25.07939,-3.09493,-0.04431009,0.82682
492.957,25.1017,-3.09606,-0.04085151,0.82625
493.657,25.12404,-3.09726,-0.03818886,0.82567
494.357,25.14643,-3.09755,-0.03449319,0.8251
495.057,25.16868,-3.09907,-0.02941502,0.82453
495.757,25.19106,-3.09915,-0.02895464,0.82395
496.457,25.21344,-3.10053,-0.02596261,0.82338
497.157,25.23578,-3.10203,-0.02284294,0.8228
497.857,25.25824,-3.1026,-0.02024528,0.82223
498.557,25.28059,-3.10394,-0.01714848,0.82166
499.257,25.303,-3.10558,-0.01536772,0.82108
499.957,25.32537,-3.1056,-0.01070063,0.82051
500.657,25.34777,-3.10691,-0.009792388,0.81993
501.357,25.37017,-3.10704,-0.00894046,0.81936
502.057,25.3926,-3.10848,-0.006716151,0.81878
502.757,25.415,-3.10975,-0.002496126,0.81821
503.457,25.43744,-3.11022,-0.002046262,0.81763
504.157,25.45986,-3.11155,-0.000110435,0.81705
504.857,25.48225,-3.11275,0.002455876,0.81648
505.557,25.50461,-3.11288,0.004176321,0.8159
506.257,25.52703,-3.11404,0.004807583,0.81533
506.957,25.54944,-3.1142,0.008091015,0.81475
507.657,25.57185,-3.11551,0.007690682,0.81417
508.357,25.59429,-3.11581,0.01016643,0.8136
509.057,25.6167,-3.11774,0.0097588,0.81302
509.757,25.63915,-3.11816,0.01164919,0.81244
510.457,25.66161,-3.11912,0.01182261,0.81187
511.157,25.6841,-3.12003,0.01209399,0.81129
511.857,25.70659,-3.12047,0.01639254,0.81071
512.557,25.72907,-3.12188,0.01718096,0.81013
513.257,25.75161,-3.12186,0.01562937,0.80956
513.957,25.77411,-3.12299,0.01531057,0.80898
514.657,25.7966,-3.12345,0.01816503,0.8084
515.357,25.819,-3.12474,0.02059521,0.80782
516.057,25.8415,-3.12532,0.02072442,0.80724
516.757,25.864,-3.12613,0.02008483,0.80666
517.457,25.88645,-3.12734,0.02462714,0.80609
518.157,25.9089,-3.12759,0.02347493,0.80551
518.857,25.93135,-3.1291,0.02360176,0.80493
519.557,25.95385,-3.12989,0.02319221,0.80435
520.257,25.97639,-3.13045,0.02227007,0.80377
520.957,25.99894,-3.13141,0.0238743,0.80319
521.657,26.02144,-3.13177,0.02350043,0.80261
522.357,26.04402,-3.13219,0.02215845,0.80203
523.057,26.06651,-3.13315,0.02379642,0.80145
523.757,26.08902,-3.13471,0.02314892,0.80087
524.457,26.11159,-3.13531,0.02550182,0.80029
525.157,26.1341,-3.13612,0.02201838,0.79971
525.857,26.15669,-3.1365,0.02554791,0.79913
526.557,26.17928,-3.13889,0.02541116,0.79855
527.257,26.20186,-3.14021,0.02293029,0.79797
527.957,26.22445,-3.1407,0.02467509,0.79739
528.657,26.247,-3.14176,0.02125628,0.79681
529.357,26.26957,-3.14174,0.02415997,0.79623
530.057,26.29218,-3.14199,0.02287089,0.79565
530.757,26.3147,-3.14306,0.02304318,0.79507
531.457,26.3373,-3.1428,0.02278282,0.79449
532.157,26.3599,-3.14339,0.02191111,0.79391
532.857,26.3824,-3.14303,0.02428444,0.79333
533.557,26.4051,-3.14417,0.02324034,0.79275
534.257,26.4277,-3.14437,0.02267579,0.79217
534.957,26.4503,-3.14481,0.02187662,0.79159
535.657,26.4729,-3.14568,0.02345022,0.791
536.357,26.4954,-3.14628,0.02403041,0.79042
537.057,26.518,-3.14711,0.02196295,0.78984
537.757,26.54062,-3.14721,0.02009542,0.78926
538.457,26.56325,-3.14843,0.02262491,0.78868
539.157,26.5859,-3.1496,0.01847321,0.7881
539.857,26.6085,-3.15108,0.02142994,0.78751
540.557,26.6312,-3.15122,0.01903739,0.78693
541.257,26.6538,-3.15241,0.02278728,0.78635
541.957,26.6764,-3.15309,0.02191599,0.78577
542.657,26.699,-3.1537,0.02141402,0.78519
543.357,26.7216,-3.15456,0.02234386,0.7846
544.057,26.74424,-3.155,0.01776297,0.78402
544.757,26.7669,-3.15501,0.02252411,0.78344
545.457,26.78949,-3.15501,0.01652063,0.78286
546.157,26.81216,-3.15509,0.01867909,0.78227
546.857,26.83478,-3.15631,0.02163524,0.78169
547.557,26.8574,-3.15737,0.02127218,0.78111
548.257,26.88005,-3.15787,0.02305255,0.78052
548.957,26.90267,-3.15854,0.02383239,0.77994
549.657,26.9253,-3.15911,0.02108164,0.77936
550.357,26.9479,-3.16045,0.02557428,0.77878
551.057,26.97062,-3.16057,0.02538563,0.77819
551.757,26.9933,-3.16138,0.02478227,0.77761
552.457,27.016,-3.16156,0.02457267,0.77703
553.157,27.03864,-3.16249,0.02547955,0.77644
553.857,27.06108,-3.16342,0.02533425,0.77586
554.557,27.08372,-3.16407,0.0286208,0.77528
555.257,27.10642,-3.1651,0.02638489,0.77469
555.957,27.12925,-3.16511,0.02743489,0.77411
556.657,27.1522,-3.16642,0.02736053,0.77353
557.357,27.17502,-3.16632,0.03126695,0.77294
558.057,27.1977,-3.16772,0.03070134,0.77236
558.757,27.2205,-3.16773,0.03139774,0.77178
559.457,27.24318,-3.16772,0.03580806,0.77119
560.157,27.26588,-3.16763,0.03635397,0.77061
560.857,27.28861,-3.16905,0.03547992,0.77002
561.557,27.31128,-3.16902,0.03530401,0.76944
562.257,27.334,-3.17171,0.03887379,0.76886
562.957,27.3568,-3.1717,0.03573557,0.76827
563.657,27.3795,-3.17238,0.03758165,0.76769
564.357,27.40229,-3.17298,0.03521354,0.76711
565.057,27.42509,-3.17396,0.03675561,0.76652
565.757,27.44787,-3.17431,0.03831016,0.76594
566.457,27.47073,-3.17433,0.03651886,0.76535
567.157,27.4934,-3.17573,0.03874833,0.76477
567.857,27.5162,-3.17564,0.03941612,0.76419
568.557,27.539,-3.17595,0.03846912,0.7636
569.257,27.56183,-3.17577,0.03666569,0.76302
569.957,27.58479,-3.17594,0.03649391,0.76243
570.657,27.60765,-3.17696,0.03348683,0.76185
571.357,27.6304,-3.17702,0.03401641,0.76126
572.057,27.6532,-3.17914,0.0339045,0.76068
572.757,27.676,-3.17968,0.03332863,0.7601
573.457,27.6989,-3.18101,0.0311971,0.75951
574.157,27.7217,-3.18098,0.03269052,0.75893
574.857,27.7447,-3.1821,0.03078161,0.75834
575.557,27.76755,-3.18211,0.03283135,0.75776
576.257,27.7903,-3.18239,0.03348309,0.75717
576.957,27.8132,-3.18229,0.031163,0.75659
577.657,27.83597,-3.18349,0.03162972,0.75601
578.357,27.8588,-3.18362,0.03176531,0.75542
579.057,27.88167,-3.18503,0.0295387,0.75484
579.757,27.90458,-3.18635,0.03147867,0.75425
580.457,27.92748,-3.18721,0.03217154,0.75367
581.157,27.9504,-3.1877,0.02916828,0.75308
581.857,27.97325,-3.1877,0.02742991,0.7525
582.557,27.9961,-3.1877,0.02605456,0.75192
583.257,28.0189,-3.1877,0.02524156,0.75133
583.957,28.04178,-3.18829,0.02456037,0.75075
584.657,28.06462,-3.189,0.02651246,0.75016
585.357,28.08754,-3.18904,0.02302851,0.74958
586.057,28.1105,-3.1901,0.02574635,0.74899
586.757,28.13343,-3.19039,0.02164691,0.74841
587.457,28.15642,-3.18981,0.02373345,0.74782
588.157,28.17932,-3.19066,0.01500346,0.74724
588.857,28.20223,-3.19067,0.01587704,0.74666
589.557,28.22512,-3.19123,0.01433823,0.74607
590.257,28.2479,-3.19198,0.01622134,0.74549
590.957,28.2708,-3.19359,0.0151811,0.7449
591.657,28.2937,-3.19347,0.01174725,0.74432
592.357,28.31652,-3.19467,0.014411,0.74373
593.057,28.3394,-3.19616,0.01409953,0.74315
593.757,28.36235,-3.19615,0.007990707,0.74257
594.457,28.38522,-3.19597,0.00903954,0.74198
595.157,28.40806,-3.19652,0.01016025,0.7414
595.857,28.43099,-3.1971,0.01516013,0.74081
596.557,28.45389,-3.19798,0.008394235,0.74023
597.257,28.4768,-3.19801,0.01003361,0.73965
597.957,28.4998,-3.19803,0.009602263,0.73906
598.657,28.5228,-3.19936,0.007887409,0.73848
599.357,28.5457,-3.19991,0.00868504,0.73789
600.057,28.5686,-3.19999,0.009443035,0.73731
600.757,28.59161,-3.20084,0.007216647,0.73673
601.457,28.6146,-3.20129,0.007041265,0.73614
602.157,28.63754,-3.2013,0.004321028,0.73556
602.857,28.6606,-3.20306,0.004774693,0.73497
603.557,28.68351,-3.20327,0.00639713,0.73439
604.257,28.7064,-3.20453,0.00338255,0.73381
604.957,28.7293,-3.2048,0.00159642,0.73322
605.657,28.75228,-3.20572,0.004471917,0.73264
606.357,28.7752,-3.20611,0.00292726,0.73205
607.057,28.7981,-3.20612,0.004775343,0.73147
607.757,28.82109,-3.20612,0.003126354,0.73089
608.457,28.84402,-3.20606,0.00147386,0.7303
609.157,28.86696,-3.2068,0.00355347,0.72972
609.857,28.8899,-3.2061,-0.0005352076,0.72914
610.557,28.9128,-3.20683,-0.001744321,0.72855
611.257,28.93577,-3.20745,-0.0008576345,0.72797
611.957,28.95873,-3.20839,-0.000690068,0.72739
612.657,28.9817,-3.20876,-0.001208818,0.7268
613.357,29.0045,-3.20876,-0.003896836,0.72622
614.057,29.02745,-3.20875,-0.003888704,0.72564
614.757,29.0503,-3.21013,-0.00488583,0.72505
615.457,29.0733,-3.21009,-0.00620145,0.72447
616.157,29.0963,-3.21008,-0.005915551,0.72389
616.857,29.11924,-3.21008,-0.004803463,0.7233
617.557,29.14221,-3.21021,-0.006493716,0.72272
618.257,29.1652,-3.21143,-0.008562705,0.72214
618.957,29.18815,-3.21139,-0.00750441,0.72156
619.657,29.2111,-3.21135,-0.008397904,0.72097
620.357,29.23412,-3.2127,-0.007950094,0.72039
621.057,29.2571,-3.21281,-0.01057125,0.71981
621.757,29.2802,-3.21418,-0.009898643,0.71923
622.457,29.30312,-3.2141,-0.01019935,0.71864
623.157,29.32609,-3.21531,-0.01238632,0.71806
623.857,29.34905,-3.21545,-0.00942947,0.71748
624.557,29.37203,-3.21539,-0.009956152,0.7169
625.257,29.3951,-3.21673,-0.01118902,0.71631
625.957,29.4181,-3.21677,-0.01279907,0.71573
626.657,29.44115,-3.21677,-0.01230379,0.71515
627.357,29.4642,-3.21672,-0.01719651,0.71457
628.057,29.4872,-3.218,-0.01731538,0.71399
628.757,29.51016,-3.21808,-0.01771835,0.7134
629.457,29.5331,-3.21808,-0.0206787,0.71282
630.157,29.55599,-3.21922,-0.02183305,0.71224
630.857,29.579,-3.21951,-0.0238694,0.71166
631.557,29.60196,-3.22068,-0.02417984,0.71108
632.257,29.62503,-3.22082,-0.02405927,0.7105
632.957,29.64805,-3.22081,-0.02723099,0.70991
633.657,29.6711,-3.2197,-0.02621675,0.70933
634.357,29.69414,-3.21953,-0.02620446,0.70875
635.057,29.71715,-3.2203,-0.02970396,0.70817
635.757,29.7402,-3.22081,-0.03254846,0.70759
636.457,29.76325,-3.22157,-0.03514133,0.70701
637.157,29.78639,-3.2222,-0.03364181,0.70643
637.857,29.8095,-3.2228,-0.03885579,0.70585
638.557,29.8325,-3.2228,-0.03778859,0.70527
639.257,29.85531,-3.22378,-0.0414506,0.70468
639.957,29.87827,-3.22411,-0.04033564,0.7041
640.657,29.90128,-3.22411,-0.0412416,0.70352
641.357,29.92442,-3.22411,-0.04001939,0.70294
642.057,29.94762,-3.22433,-0.0419636,0.70236
642.757,29.97065,-3.22541,-0.04403407,0.70178
643.457,29.99369,-3.22538,-0.04756375,0.7012
644.157,30.0167,-3.22665,-0.04596987,0.70062
644.857,30.0399,-3.22675,-0.04638099,0.70004
645.557,30.06301,-3.22671,-0.04609733,0.69946
646.257,30.08608,-3.22792,-0.04817169,0.69888
646.957,30.10912,-3.22806,-0.04590941,0.6983
647.657,30.13216,-3.22806,-0.04997861,0.69772
648.357,30.1552,-3.22806,-0.04819894,0.69714
649.057,30.1784,-3.22806,-0.05153995,0.69656
649.757,30.20141,-3.22861,-0.05309497,0.69599
650.457,30.22448,-3.22936,-0.04906443,0.69541
651.157,30.24752,-3.22937,-0.05067016,0.69483
651.857,30.2706,-3.22948,-0.05399744,0.69425
652.557,30.2936,-3.23076,-0.05238543,0.69367
653.257,30.3166,-3.23,-0.05290139,0.69309
653.957,30.3397,-3.23002,-0.05494161,0.69251
654.657,30.3628,-3.23124,-0.05250096,0.69193
655.357,30.3859,-3.23134,-0.05449413,0.69136
656.057,30.40895,-3.23134,-0.05676114,0.69078
656.757,30.43201,-3.23268,-0.0586077,0.6902
657.457,30.4551,-3.23267,-0.05863437,0.68962
658.157,30.47826,-3.23267,-0.058445,0.68904
658.857,30.50143,-3.23269,-0.06310836,0.68847
659.557,30.52458,-3.23407,-0.06076148,0.68789
660.257,30.54764,-3.23398,-0.06395559,0.68731
660.957,30.57075,-3.23399,-0.06218776,0.68673
661.657,30.5938,-3.2344,-0.06156927,0.68615
662.357,30.61685,-3.2353,-0.0639289,0.68558
663.057,30.63995,-3.23529,-0.06281316,0.685
663.757,30.663,-3.23629,-0.06511362,0.68442
664.457,30.68617,-3.23709,-0.06642532,0.68385
665.157,30.70928,-3.23728,-0.06614565,0.68327
665.857,30.73242,-3.23743,-0.06760172,0.68269
666.557,30.75555,-3.23863,-0.06908545,0.68212
667.257,30.77866,-3.23859,-0.0670663,0.68154
667.957,30.80185,-3.2386,-0.06838188,0.68096
668.657,30.825,-3.23891,-0.06913921,0.68039
669.357,30.84808,-3.23992,-0.07094168,0.67981
670.057,30.87118,-3.2399,-0.06756604,0.67924
670.757,30.8942,-3.23849,-0.07409611,0.67866
671.457,30.91732,-3.23976,-0.07071074,0.67808
672.157,30.94042,-3.23991,-0.07212906,0.67751
672.857,30.96357,-3.24029,-0.07088883,0.67693
673.557,30.9867,-3.24122,-0.07073807,0.67636
674.257,31.0099,-3.24122,-0.07531099,0.67578
674.957,31.03306,-3.24122,-0.07459685,0.67521
675.657,31.05625,-3.24122,-0.07062895,0.67463
676.357,31.07944,-3.24122,-0.07163204,0.67406
677.057,31.1026,-3.24122,-0.07229939,0.67348
677.757,31.1258,-3.24121,-0.07236353,0.67291
678.457,31.14895,-3.24121,-0.07529919,0.67233
679.157,31.17215,-3.24255,-0.070433,0.67176
679.857,31.1954,-3.24255,-0.07287801,0.67119
680.557,31.21844,-3.24313,-0.07349824,0.67061
681.257,31.2417,-3.24384,-0.07632569,0.67004
681.957,31.26485,-3.24385,-0.07367803,0.66946
682.657,31.288,-3.24385,-0.07628988,0.66889
683.357,31.3113,-3.24385,-0.07750091,0.66832
684.057,31.3345,-3.24392,-0.07984662,0.66774
684.757,31.35763,-3.2452,-0.07897413,0.66717
685.457,31.3808,-3.24517,-0.0799568,0.6666
686.157,31.40405,-3.24526,-0.07943134,0.66603
686.857,31.4273,-3.2453,-0.0830184,0.66545
687.557,31.4505,-3.24584,-0.08588375,0.66488
688.257,31.4736,-3.24584,-0.08347329,0.66431
688.957,31.4968,-3.24584,-0.08207079,0.66374
689.657,31.52,-3.24584,-0.08210418,0.66316
690.357,31.5433,-3.24585,-0.08424983,0.66259
691.057,31.56655,-3.24628,-0.08776991,0.66202
691.757,31.58975,-3.24715,-0.08961163,0.66145
692.457,31.6129,-3.24715,-0.09057595,0.66088
693.157,31.6361,-3.24715,-0.08930543,0.66031
693.857,31.65928,-3.24715,-0.09137867,0.65973
694.557,31.6825,-3.24788,-0.09251096,0.65916
695.257,31.7058,-3.24781,-0.09542269,0.65859
695.957,31.72908,-3.24781,-0.09598745,0.65802
696.657,31.75225,-3.24781,-0.09517308,0.65745
697.357,31.77538,-3.24781,-0.09477359,0.65688
698.057,31.7986,-3.24781,-0.09378487,0.65631
698.757,31.82187,-3.24782,-0.09820179,0.65574
699.457,31.8452,-3.24815,-0.09469918,0.65517
700.157,31.8686,-3.24913,-0.09351473,0.6546
700.857,31.8918,-3.24912,-0.09474257,0.65403
701.557,31.915,-3.24913,-0.08949817,0.65346
702.257,31.9383,-3.24971,-0.09371707,0.65289
702.957,31.96152,-3.25043,-0.09296073,0.65232
703.657,31.98475,-3.25044,-0.09731984,0.65175
704.357,32.00799,-3.25047,-0.09850521,0.65119
705.057,32.0312,-3.24908,-0.09506054,0.65062
705.757,32.0544,-3.24919,-0.09809503,0.65005
706.457,32.07768,-3.25047,-0.10054,0.64948
707.157,32.1009,-3.25044,-0.10088,0.64891
707.857,32.1242,-3.25044,-0.1024,0.64834
708.557,32.14743,-3.25044,-0.09986827,0.64778
709.257,32.17074,-3.25044,-0.09954218,0.64721
709.957,32.19403,-3.25046,-0.10278,0.64664
710.657,32.21733,-3.25125,-0.10197,0.64607
711.357,32.2406,-3.25175,-0.10449,0.64551
712.057,32.2638,-3.25175,-0.10841,0.64494
712.757,32.28699,-3.25175,-0.10628,0.64437
713.457,32.31026,-3.25176,-0.10373,0.64381
714.157,32.33352,-3.25214,-0.10877,0.64324
714.857,32.35683,-3.25307,-0.11081,0.64267
715.557,32.38015,-3.25307,-0.10707,0.64211
716.257,32.4034,-3.25299,-0.10427,0.64154
716.957,32.42668,-3.25437,-0.10301,0.64098
717.657,32.44995,-3.25439,-0.10775,0.64041
718.357,32.47323,-3.25522,-0.1049,0.63985
719.057,32.49651,-3.25581,-0.1055,0.63928
719.757,32.51977,-3.25824,-0.1082,0.63872
720.457,32.54311,-3.25807,-0.11008,0.63815
721.157,32.56642,-3.25663,-0.11262,0.63759
721.857,32.58976,-3.25503,-0.11474,0.63702
722.557,32.61308,-3.25573,-0.11542,0.63646
723.257,32.6364,-3.25498,-0.113,0.63589
723.957,32.65964,-3.25505,-0.11672,0.63533
724.657,32.683,-3.25505,-0.11821,0.63476
725.357,32.70636,-3.25506,-0.1223,0.6342
726.057,32.72975,-3.25576,-0.1213,0.63364
726.757,32.75308,-3.25635,-0.12459,0.63307
727.457,32.77639,-3.25637,-0.11648,0.63251
728.157,32.7997,-3.25502,-0.11879,0.63195
728.857,32.82301,-3.25504,-0.11788,0.63139
729.557,32.84635,-3.25505,-0.12021,0.63082
730.257,32.86965,-3.25507,-0.12227,0.63026
730.957,32.89289,-3.25641,-0.12331,0.6297
731.657,32.91616,-3.25636,-0.12748,0.62914
732.357,32.93953,-3.25636,-0.12604,0.62857
733.057,32.96289,-3.25636,-0.12796,0.62801
733.757,32.98636,-3.25636,-0.13131,0.62745
734.457,33.00979,-3.25675,-0.12911,0.62689
735.157,33.0331,-3.25765,-0.13037,0.62633
735.857,33.0565,-3.25768,-0.12595,0.62577
736.557,33.07977,-3.25768,-0.12606,0.62521
737.257,33.10308,-3.25768,-0.13036,0.62465
737.957,33.12645,-3.25768,-0.12974,0.62409
738.657,33.14986,-3.25767,-0.13244,0.62353
739.357,33.17331,-3.2586,-0.12607,0.62297
740.057,33.19668,-3.25797,-0.13211,0.62241
740.757,33.22,-3.25801,-0.12884,0.62185
741.457,33.2433,-3.25821,-0.13367,0.62129
742.157,33.2667,-3.25947,-0.13376,0.62073
742.857,33.29006,-3.26106,-0.13432,0.62017
743.557,33.3135,-3.26112,-0.13692,0.61961
744.257,33.3369,-3.25968,-0.13653,0.61905
744.957,33.3602,-3.25955,-0.13678,0.6185
745.657,33.3836,-3.25853,-0.13553,0.61794
746.357,33.40697,-3.25823,-0.13597,0.61738
747.057,33.4304,-3.25822,-0.1354,0.61682
747.757,33.45391,-3.25905,-0.13631,0.61626
748.457,33.4773,-3.25953,-0.13493,0.61571
749.157,33.50076,-3.25954,-0.1401,0.61515
749.857,33.52415,-3.25954,-0.13965,0.61459
750.557,33.54757,-3.25954,-0.14046,0.61404
751.257,33.57105,-3.25955,-0.13945,0.61348
751.957,33.59454,-3.25983,-0.14546,0.61292
752.657,33.61799,-3.26087,-0.14512,0.61237
753.357,33.64151,-3.26086,-0.14646,0.61181
754.057,33.66491,-3.26076,-0.14826,0.61126
754.757,33.6883,-3.26343,-0.14731,0.6107
755.457,33.71181,-3.26348,-0.14787,0.61015
756.157,33.73525,-3.26285,-0.14485,0.60959
756.857,33.75874,-3.26348,-0.14753,0.60904
757.557,33.78226,-3.26349,-0.14726,0.60848
758.257,33.80574,-3.2634,-0.14684,0.60793
758.957,33.8292,-3.2648,-0.14819,0.60737
759.657,33.85259,-3.2648,-0.1465,0.60682
760.357,33.876,-3.2648,-0.15079,0.60626
761.057,33.89948,-3.2648,-0.15219,0.60571
761.757,33.923,-3.26484,-0.15551,0.60516
762.457,33.94643,-3.26361,-0.15609,0.6046
763.157,33.96986,-3.26349,-0.1514,0.60405
763.857,33.99335,-3.26348,-0.15612,0.6035
764.557,34.0169,-3.26341,-0.15346,0.60294
765.257,34.0404,-3.26481,-0.15645,0.60239
765.957,34.064,-3.26472,-0.15845,0.60184
766.657,34.08757,-3.26611,-0.15845,0.60129
767.357,34.1111,-3.26612,-0.15818,0.60074
768.057,34.13462,-3.26612,-0.15669,0.60018
768.757,34.15811,-3.26612,-0.15581,0.59963
769.457,34.1815,-3.26616,-0.1568,0.59908
770.157,34.20505,-3.26486,-0.15666,0.59853
770.857,34.22857,-3.26481,-0.1592,0.59798
771.557,34.25207,-3.26571,-0.16038,0.59743
772.257,34.27565,-3.26612,-0.1587,0.59688
772.957,34.29911,-3.26613,-0.1681,0.59633
773.657,34.32265,-3.26613,-0.16452,0.59578
774.357,34.3462,-3.26613,-0.16293,0.59523
775.057,34.36977,-3.26613,-0.16034,0.59468
775.757,34.3934,-3.26613,-0.16479,0.59413
776.457,34.41685,-3.26613,-0.16617,0.59358
777.157,34.44032,-3.26481,-0.16707,0.59303
777.857,34.46387,-3.26544,-0.1654,0.59249
778.557,34.48747,-3.26546,-0.16363,0.59194
779.257,34.51109,-3.26546,-0.16489,0.59139
779.957,34.53471,-3.26546,-0.16946,0.59084
780.657,34.55823,-3.26543,-0.17122,0.59029
781.357,34.58171,-3.26612,-0.16822,0.58975
782.057,34.6053,-3.26691,-0.16979,0.5892
782.757,34.62878,-3.26777,-0.16995,0.58865
783.457,34.65233,-3.26777,-0.17193,0.58811
784.157,34.67597,-3.26777,-0.17098,0.58756
784.857,34.69951,-3.26777,-0.17109,0.58701
785.557,34.72307,-3.26777,-0.16923,0.58647
786.257,34.74668,-3.26777,-0.1719,0.58592
786.957,34.7701,-3.26777,-0.17172,0.58537
787.657,34.79373,-3.26777,-0.16655,0.58483
788.357,34.81732,-3.26779,-0.17106,0.58428
789.057,34.84093,-3.26888,-0.17208,0.58374
789.757,34.86457,-3.26908,-0.16869,0.58319
790.457,34.88816,-3.26909,-0.16861,0.58265
791.157,34.9118,-3.27024,-0.17108,0.58211
791.857,34.93528,-3.2704,-0.17497,0.58156
792.557,34.95892,-3.2704,-0.17315,0.58102
793.257,34.9825,-3.2704,-0.16934,0.58047
793.657,34.99604,-3.2704,-0.17186,0.58016