File: 01_Data/Wood_Stud/STA/N2/30K_min/Wood_Stud_STA_N2_30KData_220128_R3.csv
##Temp./Â°C,Time/min,Mass loss(subtr.2)/mg,DSC(subtr.2)/(mW/mg),Sensit./(uV/mW)
48.386,10.01,-0.01974,0.01380513,1.06965
49.086,10.55245,-0.02021407,0.0591258,1.06958
49.786,10.67671,-0.02030761,0.09252941,1.06952
50.486,10.7677,-0.01982021,0.12706,1.06946
51.186,10.84186,-0.0198187,0.15579,1.06939
51.886,10.90478,-0.02133307,0.18261,1.06933
52.586,10.96129,-0.02026666,0.20769,1.06926
53.286,11.01295,-0.01993622,0.23238,1.06919
53.986,11.06081,-0.01970587,0.25409,1.06912
54.686,11.10571,-0.0194811,0.2754,1.06905
55.386,11.1483,-0.02122487,0.29456,1.06897
56.086,11.18885,-0.02044949,0.31354,1.0689
56.786,11.2277,-0.02089649,0.33054,1.06882
57.486,11.2654,-0.02070628,0.34813,1.06875
58.186,11.30176,-0.0200273,0.36387,1.06867
58.886,11.3371,-0.02005092,0.37876,1.06859
59.586,11.3714,-0.02115288,0.39393,1.0685
60.286,11.4049,-0.02035504,0.41024,1.06842
60.986,11.43754,-0.02069734,0.42255,1.06834
61.686,11.46959,-0.02127404,0.43581,1.06825
62.386,11.50097,-0.02082261,0.45135,1.06817
63.086,11.53162,-0.02090007,0.46066,1.06808
63.786,11.5619,-0.02108422,0.47276,1.06799
64.486,11.59183,-0.02024268,0.48392,1.0679
65.186,11.62185,-0.02020982,0.49425,1.0678
65.886,11.6511,-0.02027661,0.5079,1.06771
66.586,11.67988,-0.0196302,0.51828,1.06762
67.286,11.70841,-0.0201717,0.52783,1.06752
67.986,11.73662,-0.02141105,0.53937,1.06742
68.686,11.76458,-0.02124,0.54964,1.06732
69.386,11.79197,-0.02092463,0.55754,1.06722
70.086,11.81933,-0.02162157,0.56544,1.06712
70.786,11.84646,-0.02036086,0.57375,1.06702
71.486,11.87347,-0.01986216,0.58303,1.06691
72.186,11.90034,-0.02028138,0.59303,1.06681
72.886,11.92694,-0.02034371,0.6033,1.0667
73.586,11.95343,-0.02093143,0.6111,1.06659
74.286,11.97995,-0.02073613,0.6195,1.06648
74.986,12.00618,-0.02122498,0.62687,1.06637
75.686,12.03215,-0.02208625,0.63597,1.06626
76.386,12.0581,-0.02203439,0.64098,1.06614
77.086,12.0839,-0.02208142,0.65037,1.06603
77.786,12.1096,-0.02194058,0.65693,1.06591
78.486,12.13517,-0.02193668,0.66498,1.06579
79.186,12.16052,-0.02182742,0.66966,1.06568
79.886,12.18585,-0.02085626,0.67541,1.06556
80.586,12.2111,-0.02096944,0.68491,1.06543
81.286,12.2364,-0.02148278,0.69246,1.06531
81.986,12.26155,-0.0203802,0.69974,1.06519
82.686,12.28656,-0.02183234,0.70543,1.06506
83.386,12.31149,-0.02319245,0.71274,1.06493
84.086,12.33633,-0.02273962,0.71878,1.06481
84.786,12.36103,-0.02327137,0.72326,1.06468
85.486,12.38565,-0.02348787,0.73227,1.06454
86.186,12.41019,-0.02448571,0.73852,1.06441
86.886,12.43469,-0.02460931,0.74274,1.06428
87.586,12.45909,-0.02479734,0.74945,1.06414
88.286,12.48344,-0.02478922,0.75676,1.06401
88.986,12.5075,-0.02465218,0.75971,1.06387
89.686,12.53168,-0.02459745,0.76673,1.06373
90.386,12.55596,-0.02468886,0.7718,1.06359
91.086,12.58015,-0.02631712,0.77868,1.06345
91.786,12.6045,-0.02536526,0.78267,1.06331
92.486,12.6286,-0.0263288,0.78903,1.06316
93.186,12.65265,-0.02642481,0.79595,1.06302
93.886,12.6766,-0.02629892,0.80005,1.06287
94.586,12.70054,-0.0263315,0.80293,1.06272
95.286,12.72446,-0.02655246,0.80967,1.06257
95.986,12.74835,-0.02746606,0.81406,1.06242
96.686,12.77219,-0.02762111,0.81793,1.06227
97.386,12.79594,-0.02778693,0.82504,1.06212
98.086,12.81967,-0.02852393,0.82837,1.06197
98.786,12.8434,-0.02851842,0.83332,1.06181
99.486,12.8672,-0.02851561,0.8374,1.06165
100.186,12.89095,-0.02856115,0.84122,1.06149
100.886,12.9147,-0.02774823,0.84427,1.06134
101.586,12.93848,-0.02785771,0.8474,1.06117
102.286,12.96214,-0.02785595,0.85096,1.06101
102.986,12.98578,-0.02874054,0.85259,1.06085
103.686,13.00935,-0.02906806,0.85363,1.06068
104.386,13.03293,-0.02901339,0.85825,1.06052
105.086,13.05644,-0.03035712,0.86051,1.06035
105.786,13.08,-0.03039,0.86266,1.06018
106.486,13.10352,-0.03038966,0.86652,1.06001
107.186,13.12703,-0.03038299,0.86541,1.05984
107.886,13.15059,-0.03172994,0.86781,1.05967
108.586,13.1741,-0.03170735,0.86776,1.0595
109.286,13.19755,-0.03170722,0.86726,1.05932
109.986,13.2211,-0.03161893,0.8696,1.05915
110.686,13.24461,-0.03065186,0.86903,1.05897
111.386,13.26816,-0.03201913,0.86917,1.05879
112.086,13.29173,-0.03203099,0.86726,1.05861
112.786,13.31523,-0.03210268,0.86898,1.05843
113.486,13.33865,-0.03337442,0.86722,1.05825
114.186,13.3621,-0.03334848,0.86669,1.05806
114.886,13.38546,-0.03334985,0.86467,1.05788
115.586,13.4089,-0.03334976,0.86584,1.05769
116.286,13.43234,-0.0333647,0.86402,1.05751
116.986,13.4557,-0.03474212,0.86145,1.05732
117.686,13.47904,-0.03466243,0.86112,1.05713
118.386,13.5022,-0.03459694,0.86015,1.05694
119.086,13.52558,-0.03433113,0.85876,1.05675
119.786,13.54889,-0.03557537,0.85762,1.05655
120.486,13.57206,-0.03565572,0.85582,1.05636
121.186,13.5952,-0.03565046,0.85501,1.05616
121.886,13.61825,-0.03565001,0.85445,1.05596
122.586,13.64132,-0.03565,0.85224,1.05577
123.286,13.66453,-0.03565,0.85089,1.05557
123.986,13.6877,-0.03565003,0.85062,1.05537
124.686,13.71093,-0.03564969,0.84727,1.05516
125.386,13.7341,-0.03562868,0.84519,1.05496
126.086,13.75711,-0.03505887,0.84336,1.05476
126.786,13.78019,-0.03596652,0.84358,1.05455
127.486,13.8032,-0.03598982,0.84241,1.05434
128.186,13.8261,-0.03562311,0.83938,1.05413
128.886,13.8491,-0.03564964,0.842,1.05393
129.586,13.872,-0.03564736,0.83888,1.05371
130.286,13.8949,-0.03649961,0.83724,1.0535
130.986,13.9179,-0.03695904,0.83711,1.05329
131.686,13.9408,-0.0369702,0.83817,1.05308
132.386,13.9636,-0.03697004,0.8362,1.05286
133.086,13.98642,-0.03697,0.83552,1.05264
133.786,14.0093,-0.03697,0.83603,1.05243
134.486,14.032,-0.03696997,0.83665,1.05221
135.186,14.05466,-0.0369691,0.83703,1.05199
135.886,14.07712,-0.03695662,0.83714,1.05176
136.586,14.0995,-0.0366343,0.83643,1.05154
137.286,14.12225,-0.03764203,0.83794,1.05132
137.986,14.145,-0.03763046,0.83797,1.05109
138.686,14.168,-0.03762437,0.83842,1.05087
139.386,14.19087,-0.03726371,0.84131,1.05064
140.086,14.21345,-0.03697699,0.8402,1.05041
140.786,14.23599,-0.03697224,0.84123,1.05018
141.486,14.25844,-0.03698779,0.84177,1.04995
142.186,14.281,-0.03802762,0.84066,1.04972
142.886,14.3035,-0.03827811,0.84469,1.04948
143.586,14.32608,-0.03828003,0.84428,1.04925
144.286,14.34857,-0.03828121,0.85152,1.04901
144.986,14.37096,-0.0382632,0.84946,1.04878
145.686,14.3934,-0.03947908,0.85183,1.04854
146.386,14.41575,-0.03959815,0.85309,1.0483
147.086,14.4381,-0.03959651,0.85273,1.04806
147.786,14.4604,-0.03924205,0.85329,1.04782
148.486,14.4829,-0.03862578,0.85691,1.04757
149.186,14.5052,-0.038611,0.86055,1.04733
149.886,14.5275,-0.03860897,0.86225,1.04709
150.586,14.5496,-0.03860669,0.86338,1.04684
151.286,14.5719,-0.03964754,0.86313,1.04659
151.986,14.59411,-0.03960649,0.86728,1.04634
152.686,14.61653,-0.03963595,0.86684,1.04609
153.386,14.63897,-0.03926325,0.87056,1.04584
154.086,14.6613,-0.03927041,0.87225,1.04559
154.786,14.6836,-0.03927005,0.87641,1.04534
155.486,14.70584,-0.03927012,0.87883,1.04508
156.186,14.728,-0.03927135,0.88205,1.04483
156.886,14.75017,-0.03926759,0.88371,1.04457
157.586,14.7723,-0.03865203,0.88558,1.04431
158.286,14.79447,-0.0389293,0.88721,1.04405
158.986,14.8166,-0.03894441,0.88846,1.04379
159.686,14.8387,-0.03898121,0.89282,1.04353
160.386,14.86085,-0.038298,0.89375,1.04327
161.086,14.8829,-0.03829131,0.89514,1.04301
161.786,14.90495,-0.03829009,0.90111,1.04274
162.486,14.927,-0.03829001,0.9021,1.04247
163.186,14.94902,-0.03829006,0.90268,1.04221
163.886,14.971,-0.03828898,0.90565,1.04194
164.586,14.993,-0.03891303,0.91046,1.04167
165.286,15.01508,-0.0395758,0.91214,1.0414
165.986,15.0371,-0.03959892,0.91484,1.04113
166.686,15.05913,-0.03959998,0.91894,1.04086
167.386,15.0812,-0.0396,0.91869,1.04058
168.086,15.1031,-0.0396,0.92083,1.04031
168.786,15.1251,-0.0396,0.92547,1.04003
169.486,15.1471,-0.0396,0.92962,1.03975
170.186,15.16903,-0.0396,0.9317,1.03948
170.886,15.19082,-0.0396,0.93221,1.0392
171.586,15.2127,-0.0396,0.93502,1.03892
172.286,15.2346,-0.0396,0.93748,1.03863
172.986,15.25651,-0.0396,0.94053,1.03835
173.686,15.27855,-0.0396,0.94101,1.03807
174.386,15.30045,-0.0396,0.94385,1.03778
175.086,15.32235,-0.0396,0.94723,1.0375
175.786,15.34415,-0.03959995,0.95229,1.03721
176.486,15.366,-0.03959923,0.95322,1.03692
177.186,15.38781,-0.03959095,0.95692,1.03663
177.886,15.40952,-0.03927656,0.95986,1.03634
178.586,15.43125,-0.0402947,0.9637,1.03605
179.286,15.453,-0.04026407,0.96454,1.03576
179.986,15.4748,-0.04026029,0.96859,1.03547
180.686,15.49654,-0.04026001,0.96967,1.03517
181.386,15.5183,-0.04026,0.97167,1.03487
182.086,15.53996,-0.04026,0.97385,1.03458
182.786,15.5616,-0.04026,0.97702,1.03428
183.486,15.5833,-0.04026,0.97937,1.03398
184.186,15.60493,-0.04026,0.98156,1.03368
184.886,15.6266,-0.04026,0.98742,1.03338
185.586,15.64821,-0.04026,0.9868,1.03308
186.286,15.66975,-0.04026,0.99127,1.03277
186.986,15.6914,-0.04025999,0.99295,1.03247
187.686,15.71299,-0.0402597,0.9935,1.03216
188.386,15.7345,-0.04025395,0.99741,1.03186
189.086,15.75605,-0.04016371,1.00093,1.03155
189.786,15.77764,-0.04155307,1.00468,1.03124
190.486,15.7992,-0.04157053,1.00501,1.03093
191.186,15.82071,-0.0419623,1.00842,1.03062
191.886,15.8422,-0.04285836,1.01257,1.03031
192.586,15.8637,-0.04287817,1.01449,1.03
193.286,15.8851,-0.04288022,1.01614,1.02968
193.986,15.90655,-0.04288497,1.02071,1.02937
194.686,15.92804,-0.04293545,1.02221,1.02905
195.386,15.9495,-0.04222395,1.02477,1.02874
196.086,15.971,-0.04223063,1.03,1.02842
196.786,15.99249,-0.0422288,1.0314,1.0281
197.486,16.0139,-0.04220186,1.03403,1.02778
198.186,16.03537,-0.04258499,1.03617,1.02746
198.886,16.0568,-0.0424674,1.03876,1.02713
199.586,16.0782,-0.04385889,1.04355,1.02681
200.286,16.0996,-0.04386987,1.04451,1.02649
200.986,16.12099,-0.04387002,1.04812,1.02616
201.686,16.1423,-0.04387,1.0528,1.02584
202.386,16.1637,-0.04387001,1.05286,1.02551
203.086,16.1851,-0.04387014,1.0564,1.02518
203.786,16.20648,-0.04387203,1.05912,1.02485
204.486,16.22788,-0.04389357,1.06351,1.02452
205.186,16.24917,-0.04480114,1.06786,1.02419
205.886,16.27046,-0.04486188,1.06846,1.02386
206.586,16.29179,-0.04485801,1.07156,1.02352
207.286,16.3132,-0.04479796,1.07462,1.02319
207.986,16.3346,-0.04610197,1.07624,1.02285
208.686,16.3559,-0.04617849,1.0779,1.02252
209.386,16.3772,-0.04617992,1.08095,1.02218
210.086,16.39846,-0.04617999,1.08399,1.02184
210.786,16.41968,-0.04617999,1.08655,1.0215
211.486,16.44095,-0.04618044,1.08955,1.02116
212.186,16.46215,-0.0461952,1.09125,1.02082
212.886,16.48345,-0.04581616,1.09573,1.02048
213.586,16.50481,-0.04587116,1.09816,1.02013
214.286,16.52607,-0.04642836,1.09778,1.01979
214.986,16.5474,-0.04716364,1.09959,1.01944
215.686,16.56869,-0.04716012,1.10272,1.0191
216.386,16.58991,-0.04716,1.1053,1.01875
217.086,16.61124,-0.04716,1.10674,1.0184
217.786,16.63251,-0.04715999,1.11074,1.01805
218.486,16.6538,-0.04715976,1.11297,1.0177
219.186,16.67513,-0.04715579,1.1166,1.01735
219.886,16.69631,-0.04709751,1.11847,1.017
220.586,16.71756,-0.04810894,1.12088,1.01664
221.286,16.73878,-0.04938522,1.12118,1.01629
221.986,16.75994,-0.04946974,1.12515,1.01593
222.686,16.78122,-0.04947343,1.12499,1.01558
223.386,16.80244,-0.04957421,1.12787,1.01522
224.086,16.82374,-0.05084316,1.12928,1.01486
224.786,16.84505,-0.05081098,1.13204,1.0145
225.486,16.86627,-0.05121227,1.13443,1.01414
226.186,16.88751,-0.0514314,1.13526,1.01378
226.886,16.90875,-0.05144525,1.13713,1.01342
227.586,16.9299,-0.05176751,1.13936,1.01306
228.286,16.95113,-0.05177031,1.14126,1.01269
228.986,16.97239,-0.05173637,1.14056,1.01233
229.686,16.9936,-0.0524978,1.14378,1.01196
230.386,17.0149,-0.0523872,1.14434,1.0116
231.086,17.0362,-0.05356614,1.14613,1.01123
231.786,17.05736,-0.05375556,1.14503,1.01086
232.486,17.07855,-0.05428965,1.14745,1.01049
233.186,17.0997,-0.05506224,1.149,1.01012
233.886,17.1209,-0.05506187,1.1504,1.00975
234.586,17.14218,-0.05514997,1.1531,1.00938
235.286,17.16346,-0.0564329,1.15215,1.009
235.986,17.18469,-0.05642998,1.154,1.00863
236.686,17.20593,-0.05789122,1.15756,1.00825
237.386,17.22713,-0.05772273,1.15757,1.00788
238.086,17.24834,-0.05911001,1.15997,1.0075
238.786,17.26951,-0.05911886,1.16567,1.00712
239.486,17.29074,-0.05914559,1.16357,1.00674
240.186,17.31198,-0.06048324,1.16644,1.00636
240.886,17.33319,-0.06048801,1.17022,1.00598
241.586,17.35441,-0.06225226,1.17071,1.0056
242.286,17.37561,-0.0631046,1.17198,1.00522
242.986,17.39682,-0.0634619,1.17655,1.00484
243.686,17.41795,-0.06453672,1.17918,1.00445
244.386,17.43916,-0.06509073,1.18211,1.00407
245.086,17.46032,-0.06581888,1.18345,1.00368
245.786,17.48144,-0.06591964,1.18468,1.00329
246.486,17.50262,-0.06713335,1.18837,1.00291
247.186,17.52368,-0.0678403,1.19085,1.00252
247.886,17.54489,-0.06843625,1.19311,1.00213
248.586,17.5661,-0.06876083,1.19625,1.00174
249.286,17.5873,-0.06992286,1.19846,1.00135
249.986,17.60858,-0.07168809,1.20059,1.00095
250.686,17.6298,-0.07337974,1.20221,1.00056
251.386,17.65105,-0.0750807,1.20566,1.00017
252.086,17.67225,-0.07632352,1.20527,0.99977
252.786,17.69345,-0.07656777,1.21036,0.99938
253.486,17.71461,-0.07659194,1.21016,0.99898
254.186,17.73578,-0.07710711,1.21396,0.99858
254.886,17.75694,-0.07777024,1.21659,0.99818
255.586,17.77812,-0.07957059,1.22192,0.99778
256.286,17.79927,-0.08124046,1.22265,0.99738
256.986,17.8204,-0.08306834,1.22354,0.99698
257.686,17.84161,-0.08426941,1.22889,0.99658
258.386,17.86281,-0.0856789,1.23127,0.99618
259.086,17.88394,-0.08672919,1.23551,0.99577
259.786,17.90513,-0.08840811,1.23819,0.99537
260.486,17.92628,-0.09028878,1.23988,0.99497
261.186,17.9474,-0.09235522,1.24308,0.99456
261.886,17.96859,-0.09389022,1.24697,0.99415
262.586,17.98975,-0.09552852,1.24967,0.99374
263.286,18.01093,-0.09757214,1.24861,0.99334
263.986,18.03211,-0.09909087,1.25228,0.99293
264.686,18.05321,-0.10117,1.25622,0.99252
265.386,18.0744,-0.10281,1.25927,0.9921
266.086,18.09553,-0.10458,1.26014,0.99169
266.786,18.11676,-0.10669,1.26392,0.99128
267.486,18.13795,-0.10858,1.2679,0.99087
268.186,18.15915,-0.11039,1.26999,0.99045
268.886,18.18027,-0.11258,1.27279,0.99004
269.586,18.20137,-0.11501,1.27787,0.98962
270.286,18.2225,-0.11715,1.27622,0.9892
270.986,18.2437,-0.11925,1.27925,0.98879
271.686,18.26484,-0.12155,1.28175,0.98837
272.386,18.28602,-0.12415,1.28292,0.98795
273.086,18.30729,-0.12721,1.2863,0.98753
273.786,18.32844,-0.13063,1.28715,0.98711
274.486,18.34959,-0.13356,1.29143,0.98668
275.186,18.37075,-0.13676,1.29312,0.98626
275.886,18.3918,-0.14067,1.29711,0.98584
276.586,18.41296,-0.14337,1.29774,0.98541
277.286,18.4341,-0.14587,1.29978,0.98499
277.986,18.45518,-0.14866,1.30274,0.98456
278.686,18.4763,-0.15208,1.30468,0.98414
279.386,18.49739,-0.15493,1.30524,0.98371
280.086,18.51859,-0.15785,1.30997,0.98328
280.786,18.53983,-0.16078,1.3121,0.98285
281.486,18.56108,-0.16423,1.31308,0.98242
282.186,18.58229,-0.1684,1.31286,0.98199
282.886,18.6035,-0.17149,1.31662,0.98156
283.586,18.6246,-0.17486,1.31892,0.98113
284.286,18.64572,-0.17812,1.32211,0.98069
284.986,18.66689,-0.18163,1.32135,0.98026
285.686,18.68814,-0.18473,1.32319,0.97983
286.386,18.70935,-0.18857,1.32597,0.97939
287.086,18.73058,-0.19305,1.32782,0.97895
287.786,18.75181,-0.1963,1.33014,0.97852
288.486,18.77296,-0.19995,1.33272,0.97808
289.186,18.79412,-0.20389,1.33161,0.97764
289.886,18.81524,-0.20873,1.33189,0.9772
290.586,18.83641,-0.214,1.33726,0.97676
291.286,18.85759,-0.21888,1.33722,0.97632
291.986,18.87878,-0.22379,1.33875,0.97588
292.686,18.90012,-0.22763,1.33937,0.97544
293.386,18.92139,-0.23224,1.34031,0.97499
294.086,18.9426,-0.2365,1.34169,0.97455
294.786,18.96377,-0.24113,1.34267,0.97411
295.486,18.9849,-0.24661,1.34348,0.97366
296.186,19.00602,-0.25193,1.34487,0.97322
296.886,19.0273,-0.25837,1.34746,0.97277
297.586,19.04854,-0.26361,1.34738,0.97232
298.286,19.06983,-0.26881,1.34988,0.97187
298.986,19.09104,-0.27399,1.35284,0.97142
299.686,19.11224,-0.27992,1.35475,0.97097
300.386,19.13342,-0.28599,1.35512,0.97052
301.086,19.15462,-0.29104,1.35666,0.97007
301.786,19.17578,-0.29723,1.3577,0.96962
302.486,19.19697,-0.30259,1.36049,0.96917
303.186,19.21818,-0.3089,1.36438,0.96872
303.886,19.23941,-0.31398,1.36335,0.96826
304.586,19.26065,-0.32092,1.36537,0.96781
305.286,19.2819,-0.32665,1.36924,0.96735
305.986,19.3031,-0.33369,1.36946,0.9669
306.686,19.32426,-0.33975,1.37499,0.96644
307.386,19.34542,-0.34714,1.37563,0.96598
308.086,19.36662,-0.35294,1.37927,0.96552
308.786,19.38784,-0.35977,1.38092,0.96506
309.486,19.40906,-0.36632,1.38381,0.9646
310.186,19.43029,-0.37333,1.38932,0.96414
310.886,19.4515,-0.38026,1.39276,0.96368
311.586,19.47275,-0.38748,1.39584,0.96322
312.286,19.494,-0.39575,1.40061,0.96276
312.986,19.5153,-0.40267,1.40541,0.9623
313.686,19.53663,-0.41059,1.41026,0.96183
314.386,19.55794,-0.4177,1.41339,0.96137
315.086,19.57922,-0.42721,1.41873,0.9609
315.786,19.60053,-0.43511,1.42227,0.96044
316.486,19.62181,-0.44447,1.4291,0.95997
317.186,19.64303,-0.4516,1.43545,0.9595
317.886,19.6643,-0.4607,1.43824,0.95903
318.586,19.68555,-0.46859,1.44613,0.95857
319.286,19.7068,-0.47786,1.45314,0.9581
319.986,19.7281,-0.48648,1.45996,0.95763
320.686,19.74934,-0.4962,1.46487,0.95716
321.386,19.77061,-0.50541,1.47531,0.95668
322.086,19.79186,-0.51483,1.48276,0.95621
322.786,19.8131,-0.52527,1.48883,0.95574
323.486,19.83439,-0.53472,1.49661,0.95527
324.186,19.8557,-0.5456,1.50538,0.95479
324.886,19.877,-0.55491,1.51411,0.95432
325.586,19.8983,-0.56602,1.52002,0.95384
326.286,19.9196,-0.57533,1.53191,0.95337
326.986,19.94088,-0.58784,1.53854,0.95289
327.686,19.96215,-0.59833,1.54797,0.95241
328.386,19.98346,-0.61147,1.55817,0.95194
329.086,20.00477,-0.62189,1.56605,0.95146
329.786,20.0261,-0.63417,1.57806,0.95098
330.486,20.04741,-0.64547,1.58508,0.9505
331.186,20.06877,-0.65839,1.5948,0.95002
331.886,20.09013,-0.67082,1.60725,0.94954
332.586,20.1114,-0.6835,1.61621,0.94906
333.286,20.1327,-0.69658,1.62518,0.94857
333.986,20.15406,-0.70913,1.63482,0.94809
334.686,20.17539,-0.72385,1.64544,0.94761
335.386,20.1968,-0.73725,1.65715,0.94712
336.086,20.21814,-0.75275,1.66743,0.94664
336.786,20.23948,-0.76606,1.67669,0.94615
337.486,20.26076,-0.78126,1.68458,0.94567
338.186,20.28206,-0.79433,1.69606,0.94518
338.886,20.30343,-0.81122,1.70675,0.94469
339.586,20.32478,-0.82387,1.71509,0.94421
340.286,20.34617,-0.83988,1.72442,0.94372
340.986,20.3675,-0.85448,1.73546,0.94323
341.686,20.38889,-0.8708,1.74443,0.94274
342.386,20.4103,-0.88641,1.75396,0.94225
343.086,20.43166,-0.90202,1.76002,0.94176
343.786,20.45305,-0.91884,1.77021,0.94127
344.486,20.4744,-0.93441,1.77694,0.94077
345.186,20.4958,-0.95234,1.78676,0.94028
345.886,20.5172,-0.96789,1.79159,0.93979
346.586,20.53864,-0.98713,1.80137,0.93929
347.286,20.56009,-1.00304,1.80706,0.9388
347.986,20.58152,-1.02251,1.81557,0.9383
348.686,20.60294,-1.03853,1.8219,0.93781
349.386,20.6243,-1.05808,1.82797,0.93731
350.086,20.64564,-1.0745,1.83191,0.93682
350.786,20.66703,-1.09402,1.8379,0.93632
351.486,20.68843,-1.11116,1.84695,0.93582
352.186,20.7099,-1.12927,1.8506,0.93532
352.886,20.73133,-1.14737,1.85814,0.93482
353.586,20.75281,-1.16595,1.86515,0.93432
354.286,20.77422,-1.18598,1.87031,0.93382
354.986,20.7957,-1.20371,1.87771,0.93332
355.686,20.8171,-1.22424,1.88163,0.93282
356.386,20.8385,-1.24154,1.88801,0.93232
357.086,20.85999,-1.26281,1.89413,0.93182
357.786,20.88146,-1.2799,1.90069,0.93131
358.486,20.90298,-1.30154,1.90752,0.93081
359.186,20.92452,-1.31948,1.9155,0.93031
359.886,20.94602,-1.34007,1.92441,0.9298
360.586,20.96745,-1.35804,1.93322,0.9293
361.286,20.98893,-1.3785,1.94139,0.92879
361.986,21.01039,-1.39848,1.95397,0.92829
362.686,21.03189,-1.41859,1.9648,0.92778
363.386,21.05334,-1.43956,1.9791,0.92727
364.086,21.0748,-1.45885,1.9914,0.92676
364.786,21.0963,-1.48101,2.00295,0.92626
365.486,21.11784,-1.49999,2.02033,0.92575
366.186,21.1393,-1.5234,2.03402,0.92524
366.886,21.16089,-1.5423,2.05196,0.92473
367.586,21.18238,-1.56608,2.06972,0.92422
368.286,21.20391,-1.58603,2.08867,0.92371
368.986,21.22553,-1.61006,2.10537,0.92319
369.686,21.24706,-1.63056,2.12683,0.92268
370.386,21.2686,-1.65414,2.14496,0.92217
371.086,21.29019,-1.67612,2.16742,0.92166
371.786,21.31175,-1.69933,2.18921,0.92114
372.486,21.33333,-1.72345,2.21299,0.92063
373.186,21.35494,-1.74514,2.23503,0.92011
373.886,21.3765,-1.77032,2.25967,0.9196
374.586,21.3981,-1.79249,2.28035,0.91908
375.286,21.41975,-1.81984,2.30602,0.91857
375.986,21.44134,-1.84192,2.32657,0.91805
376.686,21.463,-1.86945,2.35234,0.91753
377.386,21.4847,-1.89228,2.37609,0.91702
378.086,21.50631,-1.91938,2.39552,0.9165
378.786,21.52795,-1.94329,2.41806,0.91598
379.486,21.54964,-1.96982,2.43779,0.91546
380.186,21.5713,-1.99595,2.45417,0.91494
380.886,21.5929,-2.02061,2.47277,0.91442
381.586,21.61458,-2.04892,2.49279,0.9139
382.286,21.63622,-2.07436,2.50226,0.91338
382.986,21.65792,-2.10411,2.51779,0.91286
383.686,21.67959,-2.12894,2.52266,0.91233
384.386,21.7013,-2.15983,2.53052,0.91181
385.086,21.72302,-2.18581,2.53017,0.91129
385.786,21.74473,-2.21553,2.52867,0.91077
386.486,21.76645,-2.24032,2.52569,0.91024
387.186,21.78816,-2.26887,2.51309,0.90972
387.886,21.8098,-2.29543,2.50192,0.90919
388.586,21.83151,-2.32265,2.48156,0.90867
389.286,21.85321,-2.35058,2.46246,0.90814
389.986,21.87489,-2.37652,2.43532,0.90762
390.686,21.89667,-2.40574,2.40335,0.90709
391.386,21.91835,-2.42906,2.36615,0.90656
392.086,21.94006,-2.45704,2.32675,0.90603
392.786,21.96177,-2.47939,2.2803,0.90551
393.486,21.9835,-2.5067,2.22858,0.90498
394.186,22.0052,-2.52887,2.17414,0.90445
394.886,22.0269,-2.55357,2.11587,0.90392
395.586,22.0486,-2.57523,2.0528,0.90339
396.286,22.07026,-2.59703,1.9867,0.90286
396.986,22.09173,-2.61813,1.91719,0.90233
397.686,22.1134,-2.63823,1.84537,0.9018
398.386,22.1351,-2.65922,1.76916,0.90127
399.086,22.1567,-2.67695,1.69384,0.90073
399.786,22.17856,-2.69725,1.60926,0.9002
400.486,22.2002,-2.7127,1.52544,0.89967
401.186,22.22182,-2.73034,1.44756,0.89913
401.886,22.2435,-2.74377,1.36554,0.8986
402.586,22.26511,-2.75928,1.28477,0.89807
403.286,22.28679,-2.77156,1.20074,0.89753
403.986,22.30844,-2.78406,1.12019,0.897
404.686,22.33002,-2.79481,1.04422,0.89646
405.386,22.35165,-2.80546,0.96734,0.89593
406.086,22.37325,-2.81598,0.8942,0.89539
406.786,22.39489,-2.82451,0.82288,0.89485
407.486,22.4166,-2.83376,0.75353,0.89432
408.186,22.43822,-2.84063,0.69308,0.89378
408.886,22.45986,-2.84828,0.63004,0.89324
409.586,22.48152,-2.85427,0.5726,0.8927
410.286,22.50314,-2.86187,0.52191,0.89216
410.986,22.52486,-2.86767,0.47395,0.89162
411.686,22.54651,-2.8736,0.43086,0.89108
412.386,22.56823,-2.87846,0.39019,0.89054
413.086,22.58982,-2.88207,0.35143,0.89
413.786,22.61138,-2.88628,0.31722,0.88946
414.486,22.63305,-2.89141,0.28728,0.88892
415.186,22.65466,-2.89487,0.26334,0.88838
415.886,22.67643,-2.89771,0.24235,0.88784
416.586,22.6983,-2.90127,0.22252,0.8873
417.286,22.72008,-2.90472,0.20146,0.88675
417.986,22.7419,-2.90675,0.18585,0.88621
418.686,22.76359,-2.90861,0.17173,0.88567
419.386,22.78535,-2.91107,0.16067,0.88512
420.086,22.80709,-2.91405,0.14994,0.88458
420.786,22.82878,-2.91699,0.13994,0.88404
421.486,22.85061,-2.91996,0.1289,0.88349
422.186,22.87235,-2.92261,0.12119,0.88295
422.886,22.89412,-2.9249,0.11369,0.8824
423.586,22.91593,-2.92737,0.10582,0.88185
424.286,22.93771,-2.92988,0.0998585,0.88131
424.986,22.9596,-2.93244,0.09270019,0.88076
425.686,22.98141,-2.93326,0.08593869,0.88021
426.386,23.0033,-2.93587,0.07969533,0.87967
427.086,23.02522,-2.93847,0.07495173,0.87912
427.786,23.04711,-2.94161,0.06866195,0.87857
428.486,23.06899,-2.94367,0.06313875,0.87802
429.186,23.09091,-2.94536,0.05890914,0.87747
429.886,23.11274,-2.94763,0.05227486,0.87692
430.586,23.1346,-2.9501,0.04581406,0.87637
431.286,23.15648,-2.95244,0.04145538,0.87582
431.986,23.17834,-2.95626,0.03791959,0.87527
432.686,23.2003,-2.95893,0.03108542,0.87472
433.386,23.2222,-2.96153,0.02929473,0.87417
434.086,23.24407,-2.96295,0.02313559,0.87362
434.786,23.26599,-2.96416,0.01591056,0.87307
435.486,23.2879,-2.96594,0.01173541,0.87252
436.186,23.3098,-2.96895,0.008127425,0.87197
436.886,23.33182,-2.97101,0.003801664,0.87141
437.586,23.35379,-2.97264,-0.000704968,0.87086
438.286,23.37571,-2.97457,-0.00433982,0.87031
438.986,23.3977,-2.97689,-0.009411923,0.86975
439.686,23.41966,-2.97956,-0.01265447,0.8692
440.386,23.44162,-2.98179,-0.02185188,0.86865
441.086,23.46358,-2.98328,-0.02427444,0.86809
441.786,23.4855,-2.9851,-0.02808321,0.86754
442.486,23.5075,-2.98681,-0.03130418,0.86698
443.186,23.52945,-2.98889,-0.03776028,0.86643
443.886,23.5515,-2.99097,-0.04250277,0.86587
444.586,23.57351,-2.99321,-0.04394131,0.86531
445.286,23.5955,-2.99498,-0.05103591,0.86476
445.986,23.61744,-2.99662,-0.05435948,0.8642
446.686,23.63941,-2.99954,-0.05744988,0.86364
447.386,23.66145,-3.00172,-0.05931868,0.86309
448.086,23.68358,-3.00399,-0.06338112,0.86253
448.786,23.70571,-3.00491,-0.06771555,0.86197
449.486,23.72776,-3.00659,-0.07059102,0.86141
450.186,23.74962,-3.00855,-0.07255723,0.86085
450.886,23.7716,-3.01048,-0.07719246,0.8603
451.586,23.79365,-3.01395,-0.079934,0.85974
452.286,23.8157,-3.01611,-0.08048241,0.85918
452.986,23.83796,-3.01802,-0.08567315,0.85862
453.686,23.86005,-3.01956,-0.08297782,0.85806
454.386,23.8821,-3.02112,-0.08508039,0.8575
455.086,23.90417,-3.02325,-0.08717846,0.85694
455.786,23.9263,-3.0253,-0.08919332,0.85638
456.486,23.94847,-3.02735,-0.08813764,0.85582
457.186,23.9707,-3.02912,-0.09066281,0.85525
457.886,23.99287,-3.0305,-0.09301454,0.85469
458.586,24.01497,-3.03244,-0.09011132,0.85413
459.286,24.0371,-3.03448,-0.09181474,0.85357
459.986,24.05923,-3.0366,-0.08988771,0.85301
460.686,24.08132,-3.03821,-0.08539493,0.85244
461.386,24.10347,-3.03976,-0.08611385,0.85188
462.086,24.12559,-3.04136,-0.0851636,0.85132
462.786,24.14769,-3.04338,-0.08264212,0.85075
463.486,24.16984,-3.04565,-0.08306959,0.85019
464.186,24.192,-3.04772,-0.07791595,0.84963
464.886,24.21415,-3.04926,-0.0772932,0.84906
465.586,24.23637,-3.05073,-0.07351815,0.8485
466.286,24.25856,-3.05264,-0.06998681,0.84793
466.986,24.28073,-3.05406,-0.06762099,0.84737
467.686,24.3029,-3.05563,-0.0635037,0.8468
468.386,24.325,-3.05727,-0.06173163,0.84624
469.086,24.3472,-3.05866,-0.05222401,0.84567
469.786,24.36936,-3.05983,-0.05013737,0.84511
470.486,24.3916,-3.06273,-0.04762842,0.84454
471.186,24.41379,-3.06452,-0.04582975,0.84397
471.886,24.43601,-3.06651,-0.03610217,0.84341
472.586,24.45821,-3.06834,-0.03284976,0.84284
473.286,24.4804,-3.07003,-0.02750393,0.84227
473.986,24.50263,-3.07065,-0.02141391,0.84171
474.686,24.52485,-3.07194,-0.01720017,0.84114
475.386,24.5471,-3.07301,-0.01384137,0.84057
476.086,24.5693,-3.07444,-0.00615807,0.84
476.786,24.59158,-3.07592,0.000171384,0.83943
477.486,24.61381,-3.07753,0.002633397,0.83886
478.186,24.63606,-3.07913,0.009485115,0.8383
478.886,24.6583,-3.08129,0.01381606,0.83773
479.586,24.6805,-3.08362,0.02162624,0.83716
480.286,24.70275,-3.08385,0.0273238,0.83659
480.986,24.72499,-3.08529,0.02836983,0.83602
481.686,24.74727,-3.0854,0.03486075,0.83545
482.386,24.76957,-3.08721,0.04192978,0.83488
483.086,24.79184,-3.08932,0.04862617,0.83431
483.786,24.81413,-3.09031,0.05468059,0.83374
484.486,24.83636,-3.09136,0.05821722,0.83317
485.186,24.85857,-3.09258,0.06337581,0.8326
485.886,24.8809,-3.09353,0.0687452,0.83203
486.586,24.90322,-3.09502,0.07325293,0.83145
487.286,24.92558,-3.09684,0.07674614,0.83088
487.986,24.94793,-3.0982,0.08133594,0.83031
488.686,24.9702,-3.09942,0.08856129,0.82974
489.386,24.9925,-3.10048,0.09020863,0.82917
490.086,25.01482,-3.10149,0.09537679,0.8286
490.786,25.03707,-3.10309,0.10137,0.82802
491.486,25.0594,-3.1044,0.10451,0.82745
492.186,25.08178,-3.10532,0.11093,0.82688
492.886,25.10414,-3.10493,0.11212,0.8263
493.586,25.12654,-3.10625,0.11729,0.82573
494.286,25.14886,-3.10764,0.12076,0.82516
494.986,25.17115,-3.10782,0.12279,0.82458
495.686,25.1935,-3.10912,0.12675,0.82401
496.386,25.2159,-3.11039,0.12977,0.82344
497.086,25.23824,-3.11172,0.13352,0.82286
497.786,25.2607,-3.1122,0.13459,0.82229
498.486,25.2831,-3.11353,0.13643,0.82171
499.186,25.30547,-3.11503,0.13885,0.82114
499.886,25.32776,-3.11629,0.14146,0.82056
500.586,25.35008,-3.11651,0.14546,0.81999
501.286,25.37242,-3.11795,0.14957,0.81941
501.986,25.39475,-3.11955,0.15128,0.81884
502.686,25.41715,-3.12085,0.15444,0.81826
503.386,25.4394,-3.12171,0.15646,0.81769
504.086,25.4618,-3.1227,0.16054,0.81711
504.786,25.48423,-3.12414,0.16407,0.81654
505.486,25.50671,-3.12421,0.16358,0.81596
506.186,25.52921,-3.12541,0.16371,0.81538
506.886,25.55161,-3.12583,0.16597,0.81481
507.586,25.57396,-3.12791,0.17019,0.81423
508.286,25.59629,-3.12816,0.17069,0.81365
508.986,25.6187,-3.12924,0.17157,0.81308
509.686,25.64104,-3.13083,0.17684,0.8125
510.386,25.66354,-3.13107,0.17774,0.81192
511.086,25.68596,-3.13217,0.17998,0.81135
511.786,25.70845,-3.13364,0.17996,0.81077
512.486,25.73095,-3.13379,0.17912,0.81019
513.186,25.75337,-3.13515,0.17899,0.80961
513.886,25.77581,-3.13639,0.18388,0.80904
514.586,25.79825,-3.13661,0.18388,0.80846
515.286,25.82076,-3.13813,0.18247,0.80788
515.986,25.8432,-3.13812,0.18519,0.8073
516.686,25.8657,-3.13807,0.18608,0.80672
517.386,25.88806,-3.13936,0.18911,0.80614
518.086,25.9104,-3.13944,0.19045,0.80557
518.786,25.93284,-3.14007,0.19091,0.80499
519.486,25.9552,-3.14074,0.18832,0.80441
520.186,25.97772,-3.14225,0.19026,0.80383
520.886,26.00017,-3.1423,0.19094,0.80325
521.586,26.02263,-3.14373,0.1894,0.80267
522.286,26.0452,-3.14464,0.18475,0.80209
522.986,26.06765,-3.14509,0.19246,0.80151
523.686,26.09015,-3.14667,0.1941,0.80093
524.386,26.1127,-3.148,0.19194,0.80035
525.086,26.13525,-3.14849,0.19168,0.79977
525.786,26.15778,-3.14955,0.19452,0.79919
526.486,26.1803,-3.14953,0.19087,0.79861
527.186,26.20281,-3.15095,0.19125,0.79803
527.886,26.22526,-3.15133,0.1931,0.79745
528.586,26.24778,-3.15227,0.193,0.79687
529.286,26.27034,-3.1536,0.19351,0.79629
529.986,26.29287,-3.15371,0.1927,0.79571
530.686,26.3154,-3.15538,0.19437,0.79513
531.386,26.33795,-3.15594,0.19079,0.79455
532.086,26.36052,-3.15677,0.19129,0.79397
532.786,26.3831,-3.15676,0.19396,0.79339
533.486,26.4057,-3.1577,0.19204,0.79281
534.186,26.42813,-3.15808,0.19186,0.79223
534.886,26.45058,-3.15879,0.19033,0.79164
535.586,26.4731,-3.15946,0.19078,0.79106
536.286,26.4957,-3.16067,0.19183,0.79048
536.986,26.5184,-3.16113,0.18969,0.7899
537.686,26.5411,-3.16234,0.19046,0.78932
538.386,26.56372,-3.16229,0.19197,0.78874
539.086,26.58629,-3.16365,0.18961,0.78815
539.786,26.6089,-3.16369,0.18885,0.78757
540.486,26.6315,-3.16478,0.18864,0.78699
541.186,26.6541,-3.16514,0.18791,0.78641
541.886,26.6767,-3.16648,0.18754,0.78583
542.586,26.6993,-3.16642,0.18815,0.78524
543.286,26.7219,-3.16794,0.18996,0.78466
543.986,26.7444,-3.16824,0.18965,0.78408
544.686,26.7669,-3.16928,0.18917,0.7835
545.386,26.78957,-3.16956,0.18626,0.78291
546.086,26.8122,-3.1706,0.18673,0.78233
546.786,26.83503,-3.16992,0.18535,0.78175
547.486,26.8578,-3.1714,0.18583,0.78117
548.186,26.8804,-3.17172,0.18842,0.78058
548.886,26.90307,-3.17275,0.18388,0.78
549.586,26.92568,-3.17371,0.18474,0.77942
550.286,26.94823,-3.1741,0.18521,0.77883
550.986,26.9709,-3.17483,0.18367,0.77825
551.686,26.9936,-3.17552,0.18784,0.77767
552.386,27.01623,-3.17601,0.18659,0.77709
553.086,27.03893,-3.17785,0.18729,0.7765
553.786,27.0616,-3.17831,0.1859,0.77592
554.486,27.0842,-3.17912,0.18719,0.77534
555.186,27.1069,-3.17915,0.18563,0.77475
555.886,27.1297,-3.17977,0.18541,0.77417
556.586,27.1524,-3.18042,0.18627,0.77359
557.286,27.17515,-3.18153,0.1869,0.773
557.986,27.1978,-3.18177,0.1881,0.77242
558.686,27.2204,-3.18181,0.18828,0.77183
559.386,27.2431,-3.1831,0.18889,0.77125
560.086,27.26582,-3.1831,0.19019,0.77067
560.786,27.2885,-3.18363,0.18814,0.77008
561.486,27.31128,-3.18441,0.18727,0.7695
562.186,27.334,-3.18487,0.18951,0.76892
562.886,27.3567,-3.18619,0.19086,0.76833
563.586,27.37942,-3.1871,0.19074,0.76775
564.286,27.4022,-3.18748,0.19596,0.76716
564.986,27.42493,-3.18739,0.19515,0.76658
565.686,27.4477,-3.18878,0.19269,0.766
566.386,27.47038,-3.1888,0.19172,0.76541
567.086,27.49307,-3.19019,0.1953,0.76483
567.786,27.51582,-3.18965,0.1968,0.76424
568.486,27.53857,-3.19014,0.19542,0.76366
569.186,27.56134,-3.19008,0.1959,0.76308
569.886,27.58411,-3.19134,0.1952,0.76249
570.586,27.6069,-3.19141,0.19682,0.76191
571.286,27.6297,-3.1924,0.19368,0.76132
571.986,27.6525,-3.19378,0.19466,0.76074
572.686,27.67527,-3.19381,0.19356,0.76016
573.386,27.69805,-3.19509,0.19281,0.75957
574.086,27.72075,-3.19505,0.1914,0.75899
574.786,27.74353,-3.1952,0.19329,0.7584
575.486,27.7663,-3.19665,0.18938,0.75782
576.186,27.7891,-3.19716,0.19296,0.75723
576.886,27.81193,-3.19801,0.1893,0.75665
577.586,27.8348,-3.19844,0.19206,0.75607
578.286,27.85758,-3.19933,0.19029,0.75548
578.986,27.88042,-3.19932,0.19287,0.7549
579.686,27.9033,-3.20055,0.1912,0.75431
580.386,27.9261,-3.20075,0.19012,0.75373
581.086,27.9489,-3.20076,0.19188,0.75314
581.786,27.9718,-3.20187,0.19125,0.75256
582.486,27.9946,-3.20208,0.18849,0.75197
583.186,28.01752,-3.20253,0.18721,0.75139
583.886,28.0404,-3.20338,0.18637,0.75081
584.586,28.06322,-3.20404,0.18644,0.75022
585.286,28.086,-3.20469,0.1881,0.74964
585.986,28.10882,-3.20526,0.18784,0.74905
586.686,28.13165,-3.20601,0.18516,0.74847
587.386,28.15448,-3.20607,0.183,0.74788
588.086,28.17737,-3.20738,0.18353,0.7473
588.786,28.2002,-3.20733,0.181,0.74672
589.486,28.22307,-3.20727,0.182,0.74613
590.186,28.24592,-3.20861,0.17881,0.74555
590.886,28.2687,-3.20867,0.17872,0.74496
591.586,28.29158,-3.20976,0.17975,0.74438
592.286,28.3144,-3.20996,0.17766,0.74379
592.986,28.33731,-3.20988,0.17712,0.74321
593.686,28.3602,-3.21128,0.17768,0.74263
594.386,28.38307,-3.21129,0.17769,0.74204
595.086,28.40598,-3.21162,0.17768,0.74146
595.786,28.4289,-3.21261,0.17531,0.74087
596.486,28.45174,-3.21257,0.17238,0.74029
597.186,28.4746,-3.21384,0.17177,0.7397
597.886,28.4975,-3.21391,0.17397,0.73912
598.586,28.5204,-3.21427,0.17111,0.73854
599.286,28.54324,-3.2152,0.16873,0.73795
599.986,28.5662,-3.21513,0.17282,0.73737
600.686,28.58905,-3.21655,0.16946,0.73678
601.386,28.61194,-3.21655,0.16529,0.7362
602.086,28.6349,-3.21635,0.16616,0.73562
602.786,28.6578,-3.21656,0.16385,0.73503
603.486,28.6808,-3.21654,0.1636,0.73445
604.186,28.70368,-3.21686,0.16245,0.73387
604.886,28.72662,-3.21786,0.1631,0.73328
605.586,28.74952,-3.21786,0.16108,0.7327
606.286,28.7724,-3.21927,0.16074,0.73211
606.986,28.79533,-3.21926,0.15806,0.73153
607.686,28.81829,-3.22055,0.15554,0.73095
608.386,28.84119,-3.22157,0.15642,0.73036
609.086,28.86416,-3.2218,0.15685,0.72978
609.786,28.8872,-3.22171,0.15543,0.7292
610.486,28.9101,-3.22246,0.1525,0.72861
611.186,28.93313,-3.22185,0.15235,0.72803
611.886,28.9561,-3.2232,0.1521,0.72745
612.586,28.97907,-3.22313,0.15028,0.72686
613.286,29.00208,-3.22425,0.14908,0.72628
613.986,29.02507,-3.22443,0.14844,0.7257
614.686,29.04813,-3.22437,0.14302,0.72511
615.386,29.0711,-3.22576,0.14474,0.72453
616.086,29.0941,-3.22575,0.14181,0.72395
616.786,29.1171,-3.22567,0.14157,0.72336
617.486,29.1401,-3.22707,0.13908,0.72278
618.186,29.16317,-3.22709,0.13907,0.7222
618.886,29.1863,-3.22767,0.13678,0.72162
619.586,29.20932,-3.22836,0.13683,0.72103
620.286,29.23234,-3.22972,0.13724,0.72045
620.986,29.2553,-3.22971,0.13406,0.71987
621.686,29.2782,-3.22969,0.13323,0.71928
622.386,29.30123,-3.22867,0.13265,0.7187
623.086,29.3242,-3.23014,0.13402,0.71812
623.786,29.34723,-3.23165,0.13057,0.71754
624.486,29.37026,-3.23236,0.13072,0.71696
625.186,29.3933,-3.23306,0.12728,0.71637
625.886,29.41638,-3.23425,0.1298,0.71579
626.586,29.4395,-3.23442,0.12775,0.71521
627.286,29.4625,-3.23438,0.1243,0.71463
627.986,29.4856,-3.23514,0.12626,0.71404
628.686,29.50858,-3.23508,0.12098,0.71346
629.386,29.5316,-3.23558,0.1197,0.71288
630.086,29.5547,-3.2365,0.1212,0.7123
630.786,29.5778,-3.23728,0.12166,0.71172
631.486,29.60088,-3.23782,0.12084,0.71114
632.186,29.624,-3.23782,0.12087,0.71055
632.886,29.64695,-3.23777,0.12072,0.70997
633.586,29.66992,-3.23914,0.11903,0.70939
634.286,29.693,-3.23913,0.11714,0.70881
634.986,29.716,-3.23873,0.1138,0.70823
635.686,29.73922,-3.23875,0.11423,0.70765
636.386,29.7624,-3.23977,0.11487,0.70707
637.086,29.7854,-3.23975,0.11301,0.70649
637.786,29.80838,-3.24105,0.11068,0.70591
638.486,29.83147,-3.24112,0.1123,0.70532
639.186,29.8546,-3.24153,0.10604,0.70474
639.886,29.8777,-3.24243,0.10884,0.70416
640.586,29.9009,-3.24243,0.11075,0.70358
641.286,29.924,-3.24262,0.10864,0.703
641.986,29.94705,-3.24486,0.10561,0.70242
642.686,29.9701,-3.24507,0.10707,0.70184
643.386,29.9932,-3.24507,0.10486,0.70126
644.086,30.01635,-3.24604,0.10436,0.70068
644.786,30.03945,-3.24544,0.10238,0.7001
645.486,30.0626,-3.24506,0.10233,0.69952
646.186,30.0856,-3.24505,0.10211,0.69894
646.886,30.1086,-3.24628,0.10149,0.69836
647.586,30.1317,-3.24639,0.09977198,0.69778
648.286,30.1547,-3.24639,0.09783215,0.6972
648.986,30.1778,-3.2468,0.10138,0.69662
649.686,30.2009,-3.24834,0.09475679,0.69604
650.386,30.224,-3.24837,0.09507858,0.69547
651.086,30.2471,-3.24905,0.09714346,0.69489
651.786,30.27015,-3.24967,0.09352537,0.69431
652.486,30.29325,-3.24967,0.0934005,0.69373
653.186,30.31638,-3.2497,0.09315784,0.69315
653.886,30.3395,-3.25062,0.09173439,0.69257
654.586,30.3627,-3.25099,0.09355329,0.69199
655.286,30.38577,-3.25108,0.09422576,0.69141
655.986,30.40888,-3.25232,0.09375736,0.69084
656.686,30.432,-3.2523,0.08950308,0.69026
657.386,30.4551,-3.2523,0.08772612,0.68968
658.086,30.47818,-3.2523,0.08917571,0.6891
658.786,30.5012,-3.25274,0.08584393,0.68852
659.486,30.52429,-3.25282,0.08344179,0.68795
660.186,30.54741,-3.25235,0.08300625,0.68737
660.886,30.57058,-3.25335,0.07872039,0.68679
661.586,30.59375,-3.25362,0.08114908,0.68621
662.286,30.61678,-3.25362,0.08014495,0.68564
662.986,30.6399,-3.25362,0.07934493,0.68506
663.686,30.66299,-3.25499,0.08080581,0.68448
664.386,30.6861,-3.25494,0.07673066,0.6839
665.086,30.70927,-3.25495,0.08116199,0.68333
665.786,30.73234,-3.25579,0.0770064,0.68275
666.486,30.7554,-3.25625,0.07905997,0.68217
667.186,30.77852,-3.25648,0.07670757,0.6816
667.886,30.8016,-3.25755,0.0760899,0.68102
668.586,30.8247,-3.25759,0.07464278,0.68045
669.286,30.84784,-3.25835,0.07538768,0.67987
669.986,30.87095,-3.25889,0.06741665,0.67929
670.686,30.8941,-3.25889,0.07326805,0.67872
671.386,30.91725,-3.25889,0.07311274,0.67814
672.086,30.9403,-3.25889,0.06986385,0.67757
672.786,30.96347,-3.25889,0.07077658,0.67699
673.486,30.98655,-3.25889,0.07399338,0.67642
674.186,31.00975,-3.25888,0.06888621,0.67584
674.886,31.033,-3.26026,0.06970238,0.67527
675.586,31.0561,-3.26032,0.069283,0.67469
676.286,31.0793,-3.26153,0.06903748,0.67412
676.986,31.1024,-3.26152,0.06423557,0.67354
677.686,31.1255,-3.26152,0.06552736,0.67297
678.386,31.14862,-3.26152,0.06435799,0.67239
679.086,31.1717,-3.26152,0.06142672,0.67182
679.786,31.1949,-3.26178,0.05951887,0.67124
680.486,31.21808,-3.2629,0.06097171,0.67067
681.186,31.24124,-3.26149,0.06249194,0.6701
681.886,31.2644,-3.26154,0.06187449,0.66952
682.586,31.2876,-3.2623,0.058739,0.66895
683.286,31.31075,-3.26251,0.0570726,0.66838
683.986,31.33395,-3.26252,0.05984469,0.6678
684.686,31.3571,-3.26275,0.0569108,0.66723
685.386,31.3803,-3.26283,0.05459191,0.66666
686.086,31.40342,-3.26283,0.05738236,0.66608
686.786,31.42655,-3.26283,0.0532573,0.66551
687.486,31.4498,-3.26283,0.05362351,0.66494
688.186,31.4729,-3.26295,0.05012742,0.66437
688.886,31.4961,-3.26431,0.05104652,0.66379
689.586,31.51928,-3.26426,0.04864357,0.66322
690.286,31.54243,-3.26428,0.04813091,0.66265
690.986,31.56565,-3.26566,0.04865252,0.66208
691.686,31.5889,-3.26558,0.04632597,0.66151
692.386,31.6121,-3.26558,0.04929607,0.66094
693.086,31.63526,-3.26553,0.04921605,0.66036
693.786,31.65845,-3.26683,0.04746543,0.65979
694.486,31.68165,-3.26689,0.0432426,0.65922
695.186,31.70481,-3.26688,0.04238545,0.65865
695.886,31.72802,-3.26681,0.04206991,0.65808
696.586,31.75106,-3.26821,0.0399538,0.65751
697.286,31.77423,-3.26821,0.03903247,0.65694
697.986,31.7974,-3.26823,0.03842583,0.65637
698.686,31.8207,-3.26925,0.03617791,0.6558
699.386,31.844,-3.26953,0.03353479,0.65523
700.086,31.86732,-3.26953,0.03543519,0.65466
700.786,31.8906,-3.26953,0.03259173,0.65409
701.486,31.9139,-3.26954,0.03367902,0.65352
702.186,31.93713,-3.26977,0.02905054,0.65295
702.886,31.9604,-3.26985,0.03111768,0.65238
703.586,31.98358,-3.26984,0.02996843,0.65181
704.286,32.0068,-3.27067,0.03031221,0.65124
704.986,32.03007,-3.27084,0.02909985,0.65068
705.686,32.05321,-3.27084,0.03168414,0.65011
706.386,32.07646,-3.27084,0.03665332,0.64954
707.086,32.09975,-3.27084,0.02948168,0.64897
707.786,32.12307,-3.27084,0.02611965,0.6484
708.486,32.14645,-3.27084,0.01939415,0.64783
709.186,32.16969,-3.27084,0.01382158,0.64727
709.886,32.19292,-3.27224,0.01570924,0.6467
710.586,32.21613,-3.27216,0.0133437,0.64613
711.286,32.23938,-3.27215,0.01227595,0.64556
711.986,32.2627,-3.27215,0.01784072,0.645
712.686,32.28603,-3.27215,0.01517412,0.64443
713.386,32.30939,-3.27215,0.01021613,0.64386
714.086,32.3327,-3.27227,0.01130941,0.6433
714.786,32.3559,-3.27351,0.0096642,0.64273
715.486,32.37917,-3.27347,0.01168383,0.64217
716.186,32.40238,-3.27347,0.01014767,0.6416
716.886,32.4256,-3.27346,0.004954513,0.64103
717.586,32.44887,-3.27292,0.006435368,0.64047
718.286,32.4722,-3.27199,0.00540991,0.6399
718.986,32.4955,-3.27082,0.00284428,0.63934
719.686,32.51873,-3.27244,0.005007032,0.63877
720.386,32.54202,-3.27376,0.002101553,0.63821
721.086,32.5653,-3.2741,-0.0003168651,0.63764
721.786,32.58859,-3.27537,-0.0005794471,0.63708
722.486,32.61188,-3.27532,0.00128575,0.63651
723.186,32.63517,-3.27641,-0.00253079,0.63595
723.886,32.65846,-3.27666,-0.003673599,0.63539
724.586,32.68176,-3.27666,-0.00132214,0.63482
725.286,32.705,-3.27666,-0.00144284,0.63426
725.986,32.72831,-3.27666,-0.0052651,0.63369
726.686,32.75164,-3.27666,-0.00797852,0.63313
727.386,32.77495,-3.27666,-0.009507817,0.63257
728.086,32.7983,-3.27666,-0.009483324,0.63201
728.786,32.82163,-3.27714,-0.009743217,0.63144
729.486,32.845,-3.27795,-0.009278708,0.63088
730.186,32.86841,-3.27797,-0.01293292,0.63032
730.886,32.8918,-3.27797,-0.01106871,0.62976
731.586,32.91517,-3.27804,-0.01211439,0.62919
732.286,32.93844,-3.27932,-0.01369346,0.62863
732.986,32.96172,-3.27929,-0.0104441,0.62807
733.686,32.98507,-3.27929,-0.01299493,0.62751
734.386,33.0084,-3.27931,-0.0166598,0.62695
735.086,33.03182,-3.28041,-0.01620553,0.62639
735.786,33.0552,-3.28061,-0.01696439,0.62583
736.486,33.07853,-3.28061,-0.01906941,0.62527
737.186,33.10184,-3.28061,-0.01534552,0.6247
737.886,33.12522,-3.28052,-0.01385651,0.62414
738.586,33.1486,-3.28191,-0.01962413,0.62358
739.286,33.17202,-3.28192,-0.02098524,0.62302
739.986,33.19539,-3.28192,-0.02125527,0.62246
740.686,33.21877,-3.28192,-0.01957208,0.62191
741.386,33.24217,-3.28192,-0.02121736,0.62135
742.086,33.26556,-3.28173,-0.02263761,0.62079
742.786,33.2889,-3.28159,-0.02427281,0.62023
743.486,33.3123,-3.28169,-0.02215717,0.61967
744.186,33.3357,-3.28305,-0.0263074,0.61911
744.886,33.35907,-3.2816,-0.02539272,0.61855
745.586,33.3825,-3.28159,-0.02340181,0.61799
746.286,33.4058,-3.28159,-0.02453815,0.61744
746.986,33.42923,-3.28157,-0.03301808,0.61688
747.686,33.45264,-3.28258,-0.02908874,0.61632
748.386,33.47606,-3.28294,-0.03161636,0.61576
749.086,33.49947,-3.28291,-0.03260197,0.61521
749.786,33.52285,-3.28291,-0.03085428,0.61465
750.486,33.54618,-3.28286,-0.03278985,0.61409
751.186,33.56962,-3.28421,-0.03500158,0.61354
751.886,33.59301,-3.28423,-0.03722827,0.61298
752.586,33.6164,-3.28432,-0.03790056,0.61242
753.286,33.63988,-3.2829,-0.03371378,0.61187
753.986,33.6633,-3.2829,-0.0354854,0.61131
754.686,33.68665,-3.2829,-0.03579562,0.61076
755.386,33.71007,-3.2829,-0.03782687,0.6102
756.086,33.73357,-3.28432,-0.03800801,0.60965
756.786,33.7571,-3.28422,-0.0366474,0.60909
757.486,33.78048,-3.28422,-0.04428084,0.60854
758.186,33.80387,-3.28421,-0.03929537,0.60798
758.886,33.82725,-3.28413,-0.03990984,0.60743
759.586,33.85067,-3.28553,-0.04234401,0.60687
760.286,33.8742,-3.28553,-0.04176087,0.60632
760.986,33.89763,-3.28553,-0.0417396,0.60577
761.686,33.9211,-3.28553,-0.04478673,0.60521
762.386,33.94455,-3.28553,-0.04379557,0.60466
763.086,33.968,-3.28553,-0.04647425,0.60411
763.786,33.99156,-3.28552,-0.04867674,0.60355
764.486,34.01507,-3.28414,-0.04704357,0.603
765.186,34.0385,-3.28477,-0.04879766,0.60245
765.886,34.06204,-3.28636,-0.04691379,0.6019
766.586,34.08549,-3.28684,-0.0495594,0.60134
767.286,34.10893,-3.28685,-0.04870354,0.60079
767.986,34.13236,-3.28686,-0.04948157,0.60024
768.686,34.15583,-3.28732,-0.05055633,0.59969
769.386,34.17933,-3.28685,-0.05223709,0.59914
770.086,34.20284,-3.28686,-0.05183253,0.59859
770.786,34.22637,-3.28681,-0.04718083,0.59804
771.486,34.24986,-3.28817,-0.05257446,0.59749
772.186,34.2733,-3.28817,-0.05340915,0.59694
772.886,34.29681,-3.28812,-0.05488464,0.59639
773.586,34.32032,-3.28949,-0.05508084,0.59584
774.286,34.34381,-3.28948,-0.05502487,0.59529
774.986,34.36739,-3.28948,-0.05555261,0.59474
775.686,34.39093,-3.29078,-0.05896055,0.59419
776.386,34.4144,-3.28949,-0.05671198,0.59364
777.086,34.43789,-3.28949,-0.05928699,0.59309
777.786,34.4614,-3.28949,-0.05921939,0.59254
778.486,34.48488,-3.28949,-0.05959932,0.59199
779.186,34.50843,-3.28949,-0.06155214,0.59144
779.886,34.53197,-3.28949,-0.06468084,0.5909
780.586,34.55545,-3.28949,-0.06208177,0.59035
781.286,34.57898,-3.28949,-0.06574569,0.5898
781.986,34.60248,-3.28949,-0.0637558,0.58925
782.686,34.6261,-3.28939,-0.06560225,0.58871
783.386,34.64962,-3.29081,-0.06806013,0.58816
784.086,34.67313,-3.29081,-0.07046836,0.58761
784.786,34.69672,-3.2908,-0.0657881,0.58707
785.486,34.7202,-3.29047,-0.06904101,0.58652
786.186,34.7438,-3.29051,-0.07117005,0.58598
786.886,34.7674,-3.29112,-0.06775455,0.58543
787.586,34.79094,-3.29113,-0.06785699,0.58488
788.286,34.81452,-3.29115,-0.06938335,0.58434
788.986,34.83805,-3.29193,-0.06615343,0.58379
789.686,34.86155,-3.29245,-0.06899894,0.58325
790.386,34.88507,-3.29245,-0.06794831,0.5827
791.086,34.90858,-3.29245,-0.07123293,0.58216
791.786,34.9321,-3.29245,-0.07116384,0.58162
792.486,34.9557,-3.29244,-0.07524834,0.58107
793.186,34.97926,-3.29214,-0.07369612,0.58053
793.786,34.9996,-3.29212,-0.07513494,0.58006