File: 01_Data/Nylon/STA/N2/3K_min/Nylon_STA_N2_3KData_220704_R1.csv
##Temp./Â°C,Time/min,Mass loss(subtr.2)/mg,DSC(subtr.2)/(mW/mg),Sensit./(uV/mW)
50.534,10.0158,-0.07371,0.004854871,1.05026
51.234,11.13911,-0.08189186,0.02932484,1.05013
51.934,11.53251,-0.08589048,0.04100566,1.05001
52.634,11.85448,-0.08578148,0.0510134,1.04988
53.334,12.1479,-0.08852619,0.05751762,1.04976
54.034,12.42609,-0.09112067,0.0592887,1.04963
54.734,12.698,-0.09246975,0.06139207,1.0495
55.434,12.9632,-0.09380271,0.0642282,1.04937
56.134,13.2258,-0.0952341,0.06762739,1.04924
56.834,13.4858,-0.09636576,0.06808396,1.04911
57.534,13.74298,-0.09642271,0.07083806,1.04898
58.234,13.9969,-0.09905845,0.07112075,1.04885
58.934,14.24811,-0.09904693,0.07437626,1.04872
59.634,14.4962,-0.10169,0.07570521,1.04859
60.334,14.7417,-0.10231,0.07718496,1.04845
61.034,14.985,-0.10487,0.07697854,1.04832
61.734,15.22683,-0.10597,0.07665096,1.04818
62.434,15.4666,-0.10859,0.07783206,1.04804
63.134,15.7062,-0.10859,0.08070521,1.04791
63.834,15.9458,-0.10995,0.08055673,1.04777
64.534,16.18429,-0.10966,0.0835014,1.04763
65.234,16.42247,-0.11114,0.07998658,1.04749
65.934,16.65983,-0.1135,0.08009016,1.04735
66.634,16.8973,-0.11353,0.0795173,1.04721
67.334,17.13342,-0.11353,0.08257964,1.04707
68.034,17.37,-0.11616,0.08103153,1.04692
68.734,17.6072,-0.11616,0.08233799,1.04678
69.434,17.8442,-0.11748,0.08335895,1.04664
70.134,18.08087,-0.11747,0.08290446,1.04649
70.834,18.3161,-0.1178,0.08247567,1.04635
71.534,18.55075,-0.11949,0.08373064,1.0462
72.234,18.78472,-0.12011,0.08216954,1.04605
72.934,19.01827,-0.12274,0.08316108,1.0459
73.634,19.25205,-0.12406,0.08191285,1.04575
74.334,19.48505,-0.12274,0.08025861,1.0456
75.034,19.7188,-0.12472,0.07782113,1.04545
75.734,19.954,-0.12515,0.07916648,1.0453
76.434,20.18928,-0.12669,0.07932496,1.04515
77.134,20.4242,-0.12801,0.07734685,1.045
77.834,20.65768,-0.12899,0.07659302,1.04484
78.534,20.89157,-0.1271,0.07744102,1.04469
79.234,21.12631,-0.12939,0.07709869,1.04454
79.934,21.36148,-0.13063,0.07793321,1.04438
80.634,21.59636,-0.13187,0.07612732,1.04422
81.334,21.83132,-0.13197,0.07381671,1.04406
82.034,22.0665,-0.13491,0.07640011,1.04391
82.734,22.30215,-0.13355,0.07448594,1.04375
83.434,22.53763,-0.13385,0.07441971,1.04359
84.134,22.77211,-0.1348,0.07220508,1.04343
84.834,23.00618,-0.1357,0.07471961,1.04327
85.534,23.2395,-0.13525,0.07550197,1.0431
86.234,23.47241,-0.13458,0.07725323,1.04294
86.934,23.7042,-0.1359,0.0757899,1.04278
87.634,23.93621,-0.13719,0.07556341,1.04261
88.334,24.16752,-0.13722,0.07359186,1.04245
89.034,24.39947,-0.13722,0.07497218,1.04228
89.734,24.63257,-0.13788,0.07519783,1.04211
90.434,24.86657,-0.14118,0.075854,1.04195
91.134,25.10033,-0.14247,0.07424374,1.04178
91.834,25.33312,-0.14314,0.0761152,1.04161
92.534,25.56634,-0.1438,0.0749368,1.04144
93.234,25.79932,-0.14544,0.07418295,1.04127
93.934,26.03128,-0.14707,0.073534,1.0411
94.634,26.2646,-0.14716,0.07248492,1.04092
95.334,26.4975,-0.14973,0.07430548,1.04075
96.034,26.73106,-0.15073,0.07482495,1.04058
96.734,26.9626,-0.14972,0.07422719,1.0404
97.434,27.19427,-0.14972,0.07640269,1.04023
98.134,27.4263,-0.14976,0.07429267,1.04005
98.834,27.6585,-0.15104,0.07622003,1.03987
99.534,27.89081,-0.15111,0.07606923,1.0397
100.234,28.12237,-0.15107,0.07940871,1.03952
100.934,28.3544,-0.15236,0.07670493,1.03934
101.634,28.5856,-0.15325,0.07763416,1.03916
102.334,28.8175,-0.15235,0.07724295,1.03898
103.034,29.04825,-0.1543,0.07927985,1.0388
103.734,29.27999,-0.15433,0.07806683,1.03861
104.434,29.5114,-0.15573,0.07889247,1.03843
105.134,29.7436,-0.15696,0.079937,1.03825
105.834,29.9756,-0.15597,0.07958338,1.03806
106.534,30.2088,-0.15729,0.08101908,1.03788
107.234,30.4413,-0.15696,0.0794222,1.03769
107.934,30.67418,-0.15729,0.08102372,1.0375
108.634,30.9069,-0.15899,0.08065952,1.03732
109.334,31.1404,-0.15734,0.07994489,1.03713
110.034,31.3726,-0.15725,0.08146503,1.03694
110.734,31.604,-0.15828,0.07881481,1.03675
111.434,31.83424,-0.1596,0.08122705,1.03656
112.134,32.06552,-0.15959,0.08325381,1.03637
112.834,32.29619,-0.15959,0.07975598,1.03617
113.534,32.52749,-0.15959,0.08378772,1.03598
114.234,32.75788,-0.16105,0.08270853,1.03579
114.934,32.98904,-0.16097,0.0835577,1.03559
115.634,33.22012,-0.16091,0.08305009,1.0354
116.334,33.4508,-0.16057,0.08490049,1.0352
117.034,33.6796,-0.16197,0.08287747,1.035
117.734,33.9092,-0.16101,0.08248841,1.0348
118.434,34.14,-0.16352,0.08182336,1.03461
119.134,34.3718,-0.16223,0.08290097,1.03441
119.834,34.60307,-0.16247,0.08379046,1.03421
120.534,34.83408,-0.16486,0.08329981,1.034
121.234,35.06668,-0.16486,0.08700892,1.0338
121.934,35.29789,-0.16585,0.082143,1.0336
122.634,35.5288,-0.16615,0.08348819,1.0334
123.334,35.7589,-0.16759,0.08534563,1.03319
124.034,35.9904,-0.16747,0.08459505,1.03299
124.734,36.2214,-0.16782,0.08531149,1.03278
125.434,36.45192,-0.16783,0.08699324,1.03258
126.134,36.6828,-0.16683,0.08834745,1.03237
126.834,36.91427,-0.16815,0.08559724,1.03216
127.534,37.14577,-0.16814,0.08730573,1.03195
128.234,37.3759,-0.16688,0.08669845,1.03174
128.934,37.60557,-0.16815,0.08882107,1.03153
129.634,37.83502,-0.16689,0.08915086,1.03132
130.334,38.06455,-0.16848,0.08899084,1.03111
131.034,38.29417,-0.16811,0.08880745,1.0309
131.734,38.52407,-0.16825,0.08942097,1.03068
132.434,38.75423,-0.16914,0.08840927,1.03047
133.134,38.9845,-0.16781,0.09006513,1.03025
133.834,39.21488,-0.16948,0.08935803,1.03004
134.534,39.44512,-0.16952,0.09047762,1.02982
135.234,39.67472,-0.16946,0.0885831,1.02961
135.934,39.9043,-0.16946,0.08918521,1.02939
136.634,40.13397,-0.17045,0.08756617,1.02917
137.334,40.3648,-0.17176,0.0861054,1.02895
138.034,40.59534,-0.1716,0.08707804,1.02873
138.734,40.82457,-0.17209,0.0875786,1.02851
139.434,41.0533,-0.17208,0.09019878,1.02829
140.134,41.2825,-0.17112,0.08779752,1.02806
140.834,41.51299,-0.17243,0.08923843,1.02784
141.534,41.7431,-0.17342,0.08779387,1.02762
142.234,41.9722,-0.17407,0.09078529,1.02739
142.934,42.2005,-0.17341,0.08879071,1.02716
143.634,42.4283,-0.17615,0.08981993,1.02694
144.334,42.65615,-0.17487,0.09147001,1.02671
145.034,42.88456,-0.17571,0.0904566,1.02648
145.734,43.11282,-0.17522,0.09222145,1.02625
146.434,43.34121,-0.17553,0.09050334,1.02602
147.134,43.56889,-0.17433,0.09202359,1.02579
147.834,43.7973,-0.17572,0.09371156,1.02556
148.534,44.0261,-0.17539,0.09247356,1.02533
149.234,44.25537,-0.17309,0.09353673,1.0251
149.934,44.484,-0.17704,0.09130366,1.02487
150.634,44.71281,-0.17572,0.09415318,1.02463
151.334,44.942,-0.17638,0.09360099,1.0244
152.034,45.17125,-0.17671,0.0954262,1.02416
152.734,45.4001,-0.17671,0.09339869,1.02392
153.434,45.62872,-0.17572,0.09165745,1.02369
154.134,45.85669,-0.17572,0.09245045,1.02345
154.834,46.08489,-0.1744,0.09452281,1.02321
155.534,46.31224,-0.17539,0.09447116,1.02297
156.234,46.54,-0.17572,0.09522552,1.02273
156.934,46.76843,-0.17675,0.09504311,1.02249
157.634,46.9974,-0.17704,0.09525698,1.02225
158.334,47.22674,-0.17638,0.09720649,1.022
159.034,47.45538,-0.1777,0.09571452,1.02176
159.734,47.68432,-0.17771,0.09581873,1.02152
160.434,47.91319,-0.17671,0.09377751,1.02127
161.134,48.14261,-0.1767,0.09493727,1.02103
161.834,48.371,-0.17637,0.09748188,1.02078
162.534,48.5989,-0.17605,0.09933851,1.02053
163.234,48.82696,-0.1777,0.09591964,1.02028
163.934,49.05604,-0.1767,0.09516719,1.02004
164.634,49.28436,-0.17531,0.09609199,1.01979
165.334,49.51171,-0.17674,0.09730814,1.01954
166.034,49.73891,-0.17374,0.09711962,1.01928
166.734,49.96702,-0.17735,0.09982472,1.01903
167.434,50.19522,-0.17604,0.09888117,1.01878
168.134,50.42405,-0.17475,0.09696947,1.01853
168.834,50.6535,-0.1741,0.09712767,1.01827
169.534,50.8836,-0.17802,0.09677745,1.01802
170.234,51.1119,-0.17671,0.09673468,1.01776
170.934,51.3401,-0.17605,0.09696923,1.01751
171.634,51.56736,-0.17471,0.09759606,1.01725
172.334,51.79523,-0.17769,0.10077,1.01699
173.034,52.0206,-0.17631,0.10016,1.01673
173.734,52.2458,-0.17384,0.10185,1.01647
174.434,52.4709,-0.1777,0.09947174,1.01621
175.134,52.6989,-0.17572,0.09888377,1.01595
175.834,52.9292,-0.17669,0.09771263,1.01569
176.534,53.1601,-0.1754,0.09938674,1.01543
177.234,53.3902,-0.17506,0.09682236,1.01516
177.934,53.6193,-0.17639,0.0981926,1.0149
178.634,53.84874,-0.1777,0.09802855,1.01463
179.334,54.0782,-0.17743,0.0978222,1.01437
180.034,54.308,-0.17736,0.09946102,1.0141
180.734,54.53711,-0.17547,0.09904416,1.01384
181.434,54.76571,-0.17473,0.10153,1.01357
182.134,54.99352,-0.17564,0.10007,1.0133
182.834,55.2214,-0.17741,0.10105,1.01303
183.534,55.4498,-0.17605,0.10408,1.01276
184.234,55.6776,-0.17605,0.09897409,1.01249
184.934,55.90603,-0.17736,0.10211,1.01222
185.634,56.1337,-0.17736,0.10173,1.01194
186.334,56.3623,-0.17604,0.09852303,1.01167
187.034,56.58967,-0.17736,0.10313,1.0114
187.734,56.81694,-0.17604,0.10069,1.01112
188.434,57.0438,-0.17768,0.09976831,1.01085
189.134,57.27109,-0.17508,0.10294,1.01057
189.834,57.49864,-0.17766,0.10267,1.01029
190.534,57.72608,-0.17799,0.10005,1.01002
191.234,57.9532,-0.17769,0.10342,1.00974
191.934,58.18205,-0.17737,0.10062,1.00946
192.634,58.41131,-0.17737,0.10028,1.00918
193.334,58.6411,-0.17934,0.09860126,1.0089
194.034,58.8692,-0.17702,0.09954151,1.00862
194.734,59.0966,-0.17837,0.101,1.00833
195.434,59.3236,-0.17831,0.09904008,1.00805
196.134,59.5508,-0.17845,0.10236,1.00777
196.834,59.77834,-0.17932,0.10044,1.00748
197.534,60.0067,-0.17869,0.10251,1.0072
198.234,60.23409,-0.18,0.10219,1.00691
198.934,60.4611,-0.17951,0.1047,1.00662
199.634,60.68796,-0.17779,0.10203,1.00634
200.334,60.9155,-0.17932,0.10359,1.00605
201.034,61.14334,-0.17999,0.10293,1.00576
201.734,61.3709,-0.18099,0.10437,1.00547
202.434,61.59799,-0.18099,0.10498,1.00518
203.134,61.8252,-0.18131,0.10199,1.00489
203.834,62.0522,-0.18065,0.103,1.0046
204.534,62.2796,-0.1809,0.10283,1.0043
205.234,62.50707,-0.18062,0.10245,1.00401
205.934,62.73431,-0.18098,0.10285,1.00371
206.634,62.9613,-0.17853,0.10488,1.00342
207.334,63.1882,-0.17969,0.10438,1.00312
208.034,63.41579,-0.17901,0.10733,1.00283
208.734,63.64317,-0.18033,0.10787,1.00253
209.434,63.8704,-0.17936,0.105,1.00223
210.134,64.098,-0.17803,0.10532,1.00193
210.834,64.3253,-0.18066,0.10678,1.00163
211.534,64.55176,-0.17776,0.10561,1.00133
212.234,64.77724,-0.1766,0.10741,1.00103
212.934,65.0033,-0.1766,0.10776,1.00073
213.634,65.23057,-0.1766,0.10738,1.00043
214.334,65.4581,-0.17923,0.10841,1.00012
215.034,65.68523,-0.1753,0.10557,0.99982
215.734,65.91248,-0.17792,0.10528,0.99952
216.434,66.1394,-0.17923,0.10826,0.99921
217.134,66.36595,-0.18021,0.10624,0.9989
217.834,66.5926,-0.18022,0.10875,0.9986
218.534,66.8207,-0.18084,0.11013,0.99829
219.234,67.04942,-0.1789,0.11146,0.99798
219.934,67.2775,-0.1815,0.11002,0.99767
220.634,67.50476,-0.18068,0.11347,0.99736
221.334,67.7325,-0.18087,0.1108,0.99705
222.034,67.9606,-0.18133,0.11382,0.99674
222.734,68.18804,-0.17858,0.112,0.99643
223.434,68.41489,-0.18219,0.11457,0.99611
224.134,68.6409,-0.18219,0.1136,0.9958
224.834,68.8684,-0.18186,0.11471,0.99548
225.534,69.0954,-0.18247,0.11501,0.99517
226.234,69.3231,-0.18382,0.11762,0.99485
226.934,69.54952,-0.18088,0.11794,0.99454
227.634,69.77643,-0.18285,0.11769,0.99422
228.334,70.00373,-0.18219,0.12025,0.9939
229.034,70.23069,-0.18023,0.11826,0.99358
229.734,70.45795,-0.18417,0.11907,0.99326
230.434,70.685,-0.18406,0.1191,0.99294
231.134,70.91219,-0.18252,0.11916,0.99262
231.834,71.13937,-0.18476,0.12373,0.9923
232.534,71.36581,-0.18515,0.12412,0.99198
233.234,71.5924,-0.18338,0.12464,0.99165
233.934,71.819,-0.18417,0.12623,0.99133
234.634,72.04696,-0.18548,0.12509,0.991
235.334,72.27492,-0.18478,0.12606,0.99068
236.034,72.50224,-0.18378,0.13122,0.99035
236.734,72.72884,-0.18514,0.12935,0.99002
237.434,72.955,-0.18613,0.13014,0.9897
238.134,73.1816,-0.18515,0.13266,0.98937
238.834,73.40795,-0.18645,0.12982,0.98904
239.534,73.6344,-0.18742,0.13486,0.98871
240.234,73.86107,-0.18604,0.1369,0.98838
240.934,74.08801,-0.18727,0.1358,0.98805
241.634,74.31588,-0.18646,0.13728,0.98771
242.334,74.54405,-0.19005,0.13695,0.98738
243.034,74.77226,-0.19042,0.13934,0.98705
243.734,75,-0.1914,0.1406,0.98671
244.434,75.2274,-0.19042,0.14178,0.98638
245.134,75.45581,-0.18924,0.14237,0.98604
245.834,75.68445,-0.19009,0.14435,0.9857
246.534,75.91337,-0.19064,0.14829,0.98537
247.234,76.14108,-0.18932,0.14926,0.98503
247.934,76.3685,-0.18975,0.15235,0.98469
248.634,76.59613,-0.18865,0.15506,0.98435
249.334,76.82401,-0.18842,0.15963,0.98401
250.034,77.05235,-0.19101,0.16058,0.98367
250.734,77.28035,-0.18965,0.16998,0.98333
251.434,77.5087,-0.18965,0.18185,0.98298
252.134,77.73661,-0.19228,0.193,0.98264
252.834,77.96489,-0.19228,0.19773,0.9823
253.534,78.1924,-0.19103,0.21199,0.98195
254.234,78.4208,-0.19227,0.2279,0.98161
254.934,78.6489,-0.19197,0.2473,0.98126
255.634,78.8778,-0.19117,0.27646,0.98091
256.334,79.10639,-0.19394,0.29809,0.98057
257.034,79.3353,-0.19431,0.3277,0.98022
257.734,79.5641,-0.19459,0.35336,0.97987
258.434,79.79369,-0.19459,0.37642,0.97952
259.134,80.02306,-0.19455,0.39348,0.97917
259.834,80.2527,-0.19459,0.40642,0.97882
260.534,80.48183,-0.19228,0.41837,0.97846
261.234,80.7111,-0.19237,0.43318,0.97811
261.934,80.93942,-0.19412,0.44695,0.97776
262.634,81.1661,-0.19195,0.45211,0.9774
263.334,81.39312,-0.19295,0.43158,0.97705
264.034,81.61841,-0.19223,0.35564,0.97669
264.734,81.8432,-0.19406,0.24664,0.97634
265.434,82.06591,-0.19327,0.1633,0.97598
266.134,82.28921,-0.19196,0.13371,0.97562
266.834,82.51324,-0.19465,0.12534,0.97526
267.534,82.73925,-0.19524,0.12058,0.9749
268.234,82.96653,-0.19317,0.12082,0.97454
268.934,83.19375,-0.19382,0.11953,0.97418
269.634,83.41986,-0.19405,0.11866,0.97382
270.334,83.64569,-0.19513,0.11694,0.97346
271.034,83.87325,-0.19543,0.11768,0.9731
271.734,84.10181,-0.19474,0.11501,0.97273
272.434,84.33111,-0.19415,0.11313,0.97237
273.134,84.55977,-0.19653,0.11325,0.972
273.834,84.78841,-0.19371,0.11625,0.97164
274.534,85.01686,-0.19503,0.11526,0.97127
275.234,85.2451,-0.19471,0.11469,0.9709
275.934,85.47234,-0.19602,0.1151,0.97054
276.634,85.69944,-0.19467,0.11406,0.97017
277.334,85.9256,-0.19437,0.11445,0.9698
278.034,86.15208,-0.19569,0.11672,0.96943
278.734,86.3789,-0.19568,0.1195,0.96906
279.434,86.60645,-0.19436,0.1153,0.96869
280.134,86.83367,-0.19508,0.11423,0.96831
280.834,87.06058,-0.19503,0.11657,0.96794
281.534,87.28815,-0.19636,0.11889,0.96757
282.234,87.51621,-0.19765,0.11497,0.96719
282.934,87.7448,-0.19797,0.11579,0.96682
283.634,87.97313,-0.19619,0.11586,0.96644
284.334,88.2012,-0.19919,0.11164,0.96607
285.034,88.42832,-0.19818,0.11202,0.96569
285.734,88.65481,-0.19872,0.117,0.96531
286.434,88.88164,-0.19853,0.11493,0.96493
287.134,89.10899,-0.19984,0.11477,0.96455
287.834,89.33747,-0.20117,0.1143,0.96417
288.534,89.56557,-0.20248,0.11402,0.96379
289.234,89.7946,-0.20117,0.11478,0.96341
289.934,90.0231,-0.2026,0.11491,0.96303
290.634,90.25209,-0.20512,0.11445,0.96265
291.334,90.4807,-0.20387,0.11335,0.96226
292.034,90.7093,-0.20511,0.11402,0.96188
292.734,90.93689,-0.20741,0.11719,0.96149
293.434,91.16348,-0.20601,0.11408,0.96111
294.134,91.39017,-0.2061,0.1166,0.96072
294.834,91.61895,-0.20742,0.11698,0.96034
295.534,91.84776,-0.20835,0.11967,0.95995
296.234,92.07567,-0.20841,0.11663,0.95956
296.934,92.30323,-0.20652,0.11575,0.95917
297.634,92.53165,-0.20778,0.11695,0.95878
298.334,92.76071,-0.20791,0.11631,0.95839
299.034,92.9889,-0.20598,0.11497,0.958
299.734,93.2165,-0.2072,0.11572,0.95761
300.434,93.44409,-0.2062,0.11614,0.95721
301.134,93.6721,-0.20742,0.11712,0.95682
301.834,93.90021,-0.20479,0.11747,0.95643
302.534,94.12769,-0.20479,0.11905,0.95603
303.234,94.3545,-0.20338,0.11881,0.95564
303.934,94.58086,-0.20546,0.11593,0.95524
304.634,94.80812,-0.20499,0.11834,0.95484
305.334,95.03586,-0.20646,0.11838,0.95445
306.034,95.26402,-0.20616,0.11697,0.95405
306.734,95.49191,-0.20676,0.11607,0.95365
307.434,95.7204,-0.20808,0.11855,0.95325
308.134,95.949,-0.21071,0.11672,0.95285
308.834,96.178,-0.21071,0.11988,0.95245
309.534,96.4067,-0.21226,0.11644,0.95205
310.234,96.6356,-0.21234,0.12089,0.95164
310.934,96.86418,-0.21367,0.11933,0.95124
311.634,97.09258,-0.21487,0.12217,0.95084
312.334,97.32041,-0.21639,0.1216,0.95043
313.034,97.54851,-0.21477,0.12117,0.95003
313.734,97.7766,-0.21416,0.12094,0.94962
314.434,98.0047,-0.2151,0.12061,0.94922
315.134,98.23289,-0.2151,0.12044,0.94881
315.834,98.4598,-0.2151,0.11929,0.9484
316.534,98.68749,-0.21378,0.11954,0.94799
317.234,98.91547,-0.2151,0.12421,0.94758
317.934,99.14454,-0.21641,0.12114,0.94717
318.634,99.37298,-0.21542,0.12185,0.94676
319.334,99.60166,-0.21675,0.12082,0.94635
320.034,99.8305,-0.2163,0.12162,0.94594
320.734,100.059,-0.21773,0.12024,0.94553
321.434,100.287,-0.21606,0.12306,0.94511
322.134,100.515,-0.21575,0.12178,0.9447
322.834,100.7438,-0.2168,0.12119,0.94429
323.534,100.972,-0.22,0.12082,0.94387
324.234,101.2,-0.21671,0.12146,0.94345
324.934,101.428,-0.21809,0.12221,0.94304
325.634,101.656,-0.21872,0.12351,0.94262
326.334,101.885,-0.21737,0.12307,0.9422
327.034,102.114,-0.21888,0.12172,0.94178
327.734,102.342,-0.22113,0.12422,0.94136
328.434,102.571,-0.21911,0.12447,0.94094
329.134,102.8,-0.22016,0.12358,0.94052
329.834,103.029,-0.22266,0.12268,0.9401
330.534,103.257,-0.22146,0.12347,0.93968
331.234,103.487,-0.22366,0.12693,0.93926
331.934,103.716,-0.22311,0.12592,0.93883
332.634,103.945,-0.22343,0.12473,0.93841
333.334,104.175,-0.22343,0.12423,0.93798
334.034,104.404,-0.22456,0.12485,0.93756
334.734,104.633,-0.22442,0.12574,0.93713
335.434,104.862,-0.22691,0.12534,0.93671
336.134,105.091,-0.22705,0.12566,0.93628
336.834,105.321,-0.22781,0.1296,0.93585
337.534,105.55,-0.22837,0.12823,0.93542
338.234,105.779,-0.23002,0.13075,0.93499
338.934,106.008,-0.23002,0.13171,0.93456
339.634,106.237,-0.22871,0.1328,0.93413
340.334,106.466,-0.231,0.13166,0.9337
341.034,106.694,-0.23195,0.13369,0.93327
341.734,106.922,-0.22863,0.13211,0.93283
342.434,107.15,-0.23276,0.1355,0.9324
343.134,107.379,-0.23077,0.13708,0.93197
343.834,107.608,-0.23265,0.13917,0.93153
344.534,107.838,-0.23487,0.14288,0.9311
345.234,108.067,-0.23341,0.14514,0.93066
345.934,108.295,-0.23605,0.1481,0.93022
346.634,108.5218,-0.23605,0.14981,0.92979
347.334,108.749,-0.23835,0.15267,0.92935
348.034,108.978,-0.23932,0.15558,0.92891
348.734,109.208,-0.25125,0.16163,0.92847
349.434,109.437,-0.24443,0.16323,0.92803
350.134,109.666,-0.23802,0.16715,0.92759
350.834,109.894,-0.24344,0.17472,0.92715
351.534,110.123,-0.2502,0.18091,0.92671
352.234,110.351,-0.24584,0.18778,0.92626
352.934,110.578,-0.24191,0.19555,0.92582
353.634,110.804,-0.23969,0.2,0.92538
354.334,111.03,-0.24795,0.20805,0.92493
355.034,111.257,-0.25064,0.21665,0.92449
355.734,111.485,-0.2534,0.22292,0.92404
356.434,111.713,-0.25721,0.22889,0.92359
357.134,111.941,-0.25824,0.23155,0.92315
357.834,112.169,-0.2605,0.23547,0.9227
358.534,112.396,-0.26313,0.24012,0.92225
359.234,112.625,-0.26621,0.23805,0.9218
359.934,112.854,-0.27006,0.241,0.92135
360.634,113.085,-0.27137,0.23958,0.9209
361.334,113.316,-0.27532,0.24025,0.92045
362.034,113.5469,-0.27926,0.23724,0.92
362.734,113.778,-0.28292,0.23824,0.91955
363.434,114.01,-0.28636,0.23356,0.91909
364.134,114.241,-0.29236,0.23452,0.91864
364.834,114.472,-0.29908,0.23879,0.91818
365.534,114.703,-0.30142,0.24521,0.91773
366.234,114.9339,-0.30941,0.2529,0.91727
366.934,115.165,-0.31348,0.25472,0.91682
367.634,115.396,-0.31872,0.25262,0.91636
368.334,115.627,-0.32533,0.25414,0.9159
369.034,115.858,-0.33376,0.26185,0.91544
369.734,116.089,-0.33939,0.26618,0.91499
370.434,116.32,-0.34891,0.27042,0.91453
371.134,116.549,-0.35694,0.27622,0.91407
371.834,116.779,-0.36927,0.28212,0.91361
372.534,117.009,-0.37663,0.28392,0.91314
373.234,117.24,-0.38499,0.28948,0.91268
373.934,117.469,-0.39536,0.29205,0.91222
374.634,117.697,-0.4061,0.2949,0.91176
375.334,117.926,-0.41853,0.30527,0.91129
376.034,118.157,-0.42783,0.30881,0.91083
376.734,118.389,-0.43926,0.3164,0.91036
377.434,118.621,-0.45241,0.32303,0.9099
378.134,118.8521,-0.46451,0.32512,0.90943
378.834,119.083,-0.47803,0.33118,0.90896
379.534,119.313,-0.49118,0.33627,0.9085
380.234,119.543,-0.50617,0.34367,0.90803
380.934,119.773,-0.52063,0.35348,0.90756
381.634,120.004,-0.53709,0.35883,0.90709
382.334,120.235,-0.55303,0.36533,0.90662
383.034,120.465,-0.56993,0.37406,0.90615
383.734,120.695,-0.585,0.38306,0.90568
384.434,120.926,-0.60275,0.38927,0.90521
385.134,121.156,-0.62449,0.39614,0.90473
385.834,121.387,-0.64488,0.40076,0.90426
386.534,121.618,-0.66351,0.40759,0.90379
387.234,121.849,-0.68378,0.41416,0.90331
387.934,122.08,-0.70472,0.4163,0.90284
388.634,122.31,-0.72621,0.42604,0.90236
389.334,122.54,-0.74947,0.43245,0.90188
390.034,122.771,-0.77045,0.43864,0.90141
390.734,123.001,-0.79525,0.44654,0.90093
391.434,123.232,-0.81799,0.45075,0.90045
392.134,123.463,-0.84315,0.44369,0.89997
392.834,123.693,-0.86785,0.44993,0.89949
393.534,123.924,-0.89389,0.45413,0.89901
394.234,124.156,-0.91884,0.46113,0.89853
394.934,124.385,-0.94515,0.46621,0.89805
395.634,124.6144,-0.97404,0.46795,0.89757
396.334,124.8437,-1.00093,0.47416,0.89709
397.034,125.074,-1.03139,0.47659,0.8966
397.734,125.305,-1.05905,0.48297,0.89612
398.434,125.534,-1.08894,0.48678,0.89564
399.134,125.763,-1.11958,0.49077,0.89515
399.834,125.993,-1.15138,0.49243,0.89467
400.534,126.226,-1.18508,0.49684,0.89418
401.234,126.459,-1.21653,0.49775,0.89369
401.934,126.69,-1.25019,0.50127,0.89321
402.634,126.921,-1.28344,0.50283,0.89272
403.334,127.151,-1.31796,0.50527,0.89223
404.034,127.383,-1.35367,0.50551,0.89174
404.734,127.614,-1.38878,0.51072,0.89125
405.434,127.845,-1.42421,0.5136,0.89076
406.134,128.076,-1.46122,0.51078,0.89027
406.834,128.306,-1.49719,0.51602,0.88978
407.534,128.537,-1.5348,0.51487,0.88929
408.234,128.767,-1.57182,0.51528,0.88879
408.934,128.998,-1.61071,0.51577,0.8883
409.634,129.229,-1.64983,0.51621,0.88781
410.334,129.46,-1.68882,0.51732,0.88731
411.034,129.69,-1.72767,0.51835,0.88682
411.734,129.921,-1.7698,0.51924,0.88632
412.434,130.152,-1.81038,0.51765,0.88583
413.134,130.382,-1.849,0.51617,0.88533
413.834,130.612,-1.88963,0.51619,0.88483
414.534,130.842,-1.93547,0.51596,0.88433
415.234,131.072,-1.97361,0.51852,0.88383
415.934,131.302,-2.01691,0.51739,0.88334
416.634,131.531,-2.0586,0.51522,0.88284
417.334,131.761,-2.10091,0.51478,0.88234
418.034,131.994,-2.14426,0.5109,0.88183
418.734,132.227,-2.18839,0.5104,0.88133
419.434,132.46,-2.23387,0.50849,0.88083
420.134,132.692,-2.27761,0.50505,0.88033
420.834,132.923,-2.32242,0.49888,0.87983
421.534,133.155,-2.36661,0.49637,0.87932
422.234,133.386,-2.41029,0.49757,0.87882
422.934,133.618,-2.4544,0.49062,0.87831
423.634,133.849,-2.49675,0.48494,0.87781
424.334,134.08,-2.54265,0.48152,0.8773
425.034,134.31,-2.58712,0.47646,0.87679
425.734,134.54,-2.63018,0.47198,0.87629
426.434,134.77,-2.67657,0.46785,0.87578
427.134,134.9997,-2.72,0.46192,0.87527
427.834,135.23,-2.76475,0.45462,0.87476
428.534,135.461,-2.8055,0.44753,0.87425
429.234,135.692,-2.85311,0.44269,0.87374
429.934,135.923,-2.89659,0.43468,0.87323
430.634,136.155,-2.9384,0.42755,0.87272
431.334,136.387,-2.98121,0.41796,0.87221
432.034,136.62,-3.02603,0.40868,0.8717
432.734,136.853,-3.06703,0.40024,0.87118
433.434,137.086,-3.10862,0.39186,0.87067
434.134,137.318,-3.14776,0.38126,0.87016
434.834,137.5484,-3.18942,0.3732,0.86964
435.534,137.779,-3.22565,0.36173,0.86913
436.234,138.008,-3.2636,0.35496,0.86861
436.934,138.238,-3.30346,0.34214,0.86809
437.634,138.468,-3.34135,0.32999,0.86758
438.334,138.698,-3.37691,0.31982,0.86706
439.034,138.929,-3.41301,0.30702,0.86654
439.734,139.16,-3.44795,0.29487,0.86602
440.434,139.391,-3.48337,0.2812,0.86551
441.134,139.623,-3.51556,0.27131,0.86499
441.834,139.854,-3.54918,0.25526,0.86447
442.534,140.087,-3.57858,0.24514,0.86395
443.234,140.319,-3.60679,0.22778,0.86342
443.934,140.551,-3.63501,0.21265,0.8629
444.634,140.783,-3.6618,0.19712,0.86238
445.334,141.015,-3.68635,0.1854,0.86186
446.034,141.246,-3.71072,0.17169,0.86133
446.734,141.478,-3.73506,0.15967,0.86081
447.434,141.708,-3.75615,0.14785,0.86029
448.134,141.938,-3.77687,0.13557,0.85976
448.834,142.169,-3.79631,0.12565,0.85923
449.534,142.4,-3.81624,0.11281,0.85871
450.234,142.63,-3.83101,0.10154,0.85818
450.934,142.86,-3.8476,0.09218642,0.85765
451.634,143.091,-3.86192,0.08289402,0.85713
452.334,143.323,-3.87502,0.07575997,0.8566
453.034,143.553,-3.89046,0.06492701,0.85607
453.734,143.783,-3.89783,0.05956455,0.85554
454.434,144.013,-3.9086,0.05259606,0.85501
455.134,144.246,-3.91841,0.0452908,0.85448
455.834,144.4791,-3.92863,0.04267731,0.85395
456.534,144.712,-3.93422,0.03614126,0.85342
457.234,144.944,-3.94288,0.0324224,0.85289
457.934,145.176,-3.94804,0.03066882,0.85235
458.634,145.409,-3.9524,0.02644635,0.85182
459.334,145.641,-3.95813,0.02435405,0.85129
460.034,145.872,-3.96506,0.02284255,0.85075
460.734,146.104,-3.96627,0.02181167,0.85022
461.434,146.336,-3.96992,0.02320415,0.84968
462.134,146.568,-3.9736,0.02039357,0.84915
462.834,146.801,-3.97492,0.02095273,0.84861
463.534,147.0316,-3.97816,0.01821411,0.84807
464.234,147.264,-3.97953,0.0158374,0.84754
464.934,147.496,-3.98252,0.01915859,0.847
465.634,147.7288,-3.98347,0.0189859,0.84646
466.334,147.961,-3.98476,0.02164779,0.84592
467.034,148.194,-3.98545,0.02493291,0.84538
467.734,148.426,-3.98678,0.02343858,0.84484
468.434,148.659,-3.98808,0.02468634,0.8443
469.134,148.891,-3.99047,0.0281689,0.84376
469.834,149.123,-3.99005,0.02963774,0.84322
470.534,149.3557,-3.99005,0.02970462,0.84268
471.234,149.589,-3.99288,0.02569527,0.84214
471.934,149.822,-3.99304,0.02290503,0.84159
472.634,150.054,-3.9927,0.0192194,0.84105
473.334,150.287,-3.99538,0.01455237,0.84051
474.034,150.52,-3.99536,0.01442205,0.83996
474.734,150.7524,-3.99501,0.01271189,0.83942
475.434,150.985,-3.9963,0.009258654,0.83887
476.134,151.216,-3.99762,0.00582923,0.83832
476.834,151.447,-3.99761,0.0077629,0.83778
477.534,151.678,-3.99762,-0.0009603841,0.83723
478.234,151.912,-3.99819,-0.00235596,0.83668
478.934,152.148,-3.99927,-0.008360055,0.83614
479.634,152.383,-3.99795,-0.00995837,0.83559
480.334,152.616,-3.99927,-0.01638556,0.83504
481.034,152.849,-4.00058,-0.01992079,0.83449
481.734,153.082,-3.9999,-0.02342358,0.83394
482.434,153.314,-3.99927,-0.02486643,0.83339
483.134,153.547,-4.00053,-0.02637188,0.83284
483.834,153.779,-4.00134,-0.02973117,0.83229
484.534,154.011,-3.99933,-0.03229449,0.83173
485.234,154.244,-4.00058,-0.03357086,0.83118
485.934,154.478,-4.00058,-0.03580861,0.83063
486.634,154.713,-4.00157,-0.03483222,0.83008
487.334,154.947,-4.00189,-0.03094181,0.82952
488.034,155.181,-4.00092,-0.03138143,0.82897
488.734,155.414,-4.00254,-0.03179269,0.82841
489.434,155.647,-4.00256,-0.03376089,0.82786
490.134,155.879,-4.00336,-0.03583722,0.8273
490.834,156.112,-4.00115,-0.03469862,0.82674
491.534,156.345,-4.00258,-0.0334215,0.82619
492.234,156.579,-4.00289,-0.03507527,0.82563
492.934,156.813,-4.00251,-0.0358747,0.82507
493.634,157.046,-4.00258,-0.03592901,0.82451
494.334,157.279,-4.00379,-0.03615507,0.82396
495.034,157.512,-4.00387,-0.0338415,0.8234
495.734,157.7445,-4.00223,-0.03489259,0.82284
496.434,157.978,-4.00366,-0.03285674,0.82228
497.134,158.212,-4.0041,-0.03310372,0.82172
497.834,158.446,-4.00446,-0.03369696,0.82116
498.534,158.679,-4.0042,-0.03432001,0.82059
499.234,158.912,-4.00552,-0.03062513,0.82003
499.934,159.145,-4.00453,-0.02860496,0.81947
500.634,159.3786,-4.00567,-0.0293227,0.81891
501.334,159.612,-4.00705,-0.0281509,0.81834
502.034,159.846,-4.00711,-0.02464933,0.81778
502.734,160.08,-4.00684,-0.02472122,0.81721
503.434,160.313,-4.00815,-0.02417176,0.81665
504.134,160.547,-4.00947,-0.02360154,0.81608
504.834,160.781,-4.00947,-0.02456561,0.81552
505.534,161.016,-4.00848,-0.02108017,0.81495
506.234,161.25,-4.00749,-0.02377515,0.81439
506.934,161.485,-4.00848,-0.0242405,0.81382
507.634,161.719,-4.00827,-0.02348046,0.81325
508.334,161.952,-4.00958,-0.02321587,0.81268
509.034,162.186,-4.00848,-0.0230681,0.81211
509.734,162.419,-4.008,-0.0240459,0.81155
510.434,162.652,-4.00914,-0.02163148,0.81098
511.134,162.885,-4.00811,-0.02171214,0.81041
511.834,163.118,-4.00888,-0.02024309,0.80984
512.534,163.351,-4.00815,-0.02040401,0.80927
513.234,163.584,-4.01025,-0.01973381,0.80869
513.934,163.817,-4.00881,-0.01846082,0.80812
514.634,164.05,-4.00945,-0.01911556,0.80755
515.334,164.284,-4.00809,-0.02278243,0.80698
516.034,164.517,-4.01045,-0.0215532,0.80641
516.734,164.751,-4.00914,-0.02185798,0.80583
517.434,164.983,-4.01142,-0.02300851,0.80526
518.134,165.217,-4.01144,-0.01966231,0.80468
518.834,165.451,-4.00879,-0.02216413,0.80411
519.534,165.684,-4.01205,-0.02418495,0.80353
520.234,165.917,-4.01144,-0.02259787,0.80296
520.934,166.15,-4.01144,-0.0216887,0.80238
521.634,166.3829,-4.01144,-0.02496983,0.80181
522.334,166.616,-4.01177,-0.02639915,0.80123
523.034,166.849,-4.01111,-0.02453551,0.80065
523.734,167.083,-4.01046,-0.0247199,0.80007
524.434,167.317,-4.01144,-0.02693381,0.7995
525.134,167.551,-4.01012,-0.02702878,0.79892
525.834,167.786,-4.01111,-0.02482363,0.79834
526.534,168.02,-4.01106,-0.02407926,0.79776
527.234,168.254,-4.01242,-0.02194764,0.79718
527.934,168.487,-4.01248,-0.02268975,0.7966
528.634,168.72,-4.01272,-0.02274806,0.79602
529.334,168.954,-4.01144,-0.02479588,0.79544
530.034,169.188,-4.01144,-0.02454926,0.79485
530.734,169.421,-4.01144,-0.02172144,0.79427
531.434,169.654,-4.01276,-0.02364294,0.79369
532.134,169.888,-4.01249,-0.02324934,0.79311
532.834,170.122,-4.01309,-0.02426454,0.79252
533.534,170.356,-4.01305,-0.02668654,0.79194
534.234,170.591,-4.01309,-0.02313226,0.79136
534.934,170.825,-4.01404,-0.0273788,0.79077
535.634,171.06,-4.01407,-0.02269747,0.79019
536.334,171.294,-4.01373,-0.02355627,0.7896
537.034,171.528,-4.01276,-0.02681742,0.78902
537.734,171.7616,-4.01368,-0.02262385,0.78843
538.434,171.995,-4.01449,-0.02710381,0.78784
539.134,172.229,-4.0144,-0.02424736,0.78726
539.834,172.463,-4.01309,-0.02647331,0.78667
540.534,172.697,-4.01435,-0.03017394,0.78608
541.234,172.932,-4.01345,-0.0291822,0.78549
541.934,173.166,-4.01606,-0.02730766,0.7849
542.634,173.401,-4.01375,-0.0304297,0.78431
543.334,173.634,-4.01506,-0.02765506,0.78373
544.034,173.868,-4.01482,-0.02754244,0.78314
544.734,174.101,-4.01539,-0.02815586,0.78255
545.434,174.335,-4.01426,-0.03151034,0.78195
546.134,174.569,-4.01572,-0.02871008,0.78136
546.834,174.803,-4.01442,-0.02902256,0.78077
547.534,175.038,-4.01579,-0.03112006,0.78018
548.234,175.272,-4.01693,-0.03207515,0.77959
548.934,175.508,-4.01436,-0.02976164,0.779
549.634,175.743,-4.01572,-0.03230501,0.7784
550.334,175.979,-4.01561,-0.03277089,0.77781
551.034,176.214,-4.01473,-0.03133821,0.77722
551.734,176.449,-4.01539,-0.03322928,0.77662
552.434,176.6828,-4.01738,-0.0318769,0.77603
553.134,176.917,-4.01672,-0.02789606,0.77543
553.834,177.152,-4.01671,-0.02833978,0.77484
554.534,177.387,-4.0152,-0.0300334,0.77424
555.234,177.622,-4.01641,-0.02691989,0.77365
555.934,177.857,-4.01704,-0.02901993,0.77305
556.634,178.091,-4.01708,-0.02690919,0.77245
557.334,178.324,-4.01813,-0.02846539,0.77186
558.034,178.558,-4.01704,-0.02824898,0.77126
558.734,178.791,-4.01704,-0.02777542,0.77066
559.434,179.027,-4.018,-0.02711445,0.77006
560.134,179.262,-4.01873,-0.02578565,0.76946
560.834,179.498,-4.01867,-0.02581752,0.76886
561.534,179.7315,-4.01868,-0.02815731,0.76826
562.234,179.965,-4.01637,-0.02926342,0.76767
562.934,180.199,-4.01736,-0.02632178,0.76706
563.634,180.434,-4.01867,-0.0291388,0.76646
564.334,180.668,-4.01868,-0.02942105,0.76586
565.034,180.902,-4.01868,-0.03080794,0.76526
565.734,181.137,-4.01894,-0.0277062,0.76466
566.434,181.372,-4.01901,-0.02953451,0.76406
567.134,181.607,-4.0193,-0.03398151,0.76346
567.834,181.842,-4.01868,-0.02970346,0.76285
568.534,182.077,-4.02,-0.03076029,0.76225
569.234,182.312,-4.02,-0.02690636,0.76165
569.934,182.547,-4.01868,-0.02665853,0.76104
570.634,182.781,-4.01967,-0.02970953,0.76044
571.334,183.014,-4.01901,-0.02892528,0.75984
572.034,183.246,-4.01901,-0.03025669,0.75923
572.734,183.479,-4.01796,-0.02962888,0.75863
573.434,183.713,-4.01901,-0.03004828,0.75802
574.134,183.949,-4.01835,-0.02694459,0.75741
574.834,184.186,-4.01704,-0.02875346,0.75681
575.534,184.423,-4.01703,-0.03220528,0.7562
576.234,184.659,-4.01867,-0.02956735,0.7556
576.934,184.894,-4.02,-0.02911866,0.75499
577.634,185.13,-4.01868,-0.03204617,0.75438
578.334,185.366,-4.01967,-0.03206566,0.75377
579.034,185.6015,-4.01868,-0.03197133,0.75316
579.734,185.837,-4.01967,-0.03183815,0.75256
580.434,186.072,-4.01894,-0.03049809,0.75195
581.134,186.3059,-4.01868,-0.03335957,0.75134
581.834,186.54,-4.01868,-0.03528658,0.75073
582.534,186.775,-4.02149,-0.03407083,0.75012
583.234,187.011,-4.02065,-0.03485266,0.74951
583.934,187.247,-4.02065,-0.03408343,0.7489
584.634,187.483,-4.02065,-0.03736194,0.74829
585.334,187.719,-4.02065,-0.03328047,0.74768
586.034,187.954,-4.02197,-0.03489429,0.74706
586.734,188.19,-4.02065,-0.0335298,0.74645
587.434,188.425,-4.02195,-0.03665918,0.74584
588.134,188.66,-4.02107,-0.03584033,0.74523
588.834,188.8958,-4.02171,-0.03741302,0.74461
589.534,189.131,-4.02033,-0.03616927,0.744
590.234,189.367,-4.02038,-0.03575953,0.74339
590.934,189.601,-4.02263,-0.03499197,0.74277
591.634,189.8353,-4.02198,-0.03541759,0.74216
592.334,190.071,-4.02132,-0.03458032,0.74155
593.034,190.307,-4.02197,-0.03241894,0.74093
593.734,190.545,-4.02197,-0.03521011,0.74032
594.434,190.781,-4.02194,-0.03271005,0.7397
595.134,191.018,-4.02197,-0.03522266,0.73909
595.834,191.2532,-4.02164,-0.04061761,0.73847
596.534,191.4886,-4.01899,-0.03582899,0.73785
597.234,191.724,-4.0216,-0.03548822,0.73724
597.934,191.958,-4.02032,-0.03927947,0.73662
598.634,192.192,-4.02024,-0.03397609,0.736
599.334,192.428,-4.02032,-0.03670449,0.73539
600.034,192.665,-4.02032,-0.03404362,0.73477
600.734,192.902,-4.02027,-0.03839088,0.73415
601.434,193.137,-4.01902,-0.03593247,0.73353
602.134,193.372,-4.02132,-0.03763928,0.73291
602.834,193.605,-4.0203,-0.0349842,0.73229
603.534,193.839,-4.02066,-0.03818206,0.73167
604.234,194.074,-4.02066,-0.03426341,0.73105
604.934,194.3088,-4.02197,-0.03719588,0.73043
605.634,194.543,-4.02131,-0.03910885,0.72981
606.334,194.777,-4.0213,-0.03832924,0.72919
607.034,195.012,-4.02131,-0.03878552,0.72857
607.734,195.248,-4.02131,-0.03758762,0.72795
608.434,195.485,-4.02264,-0.03697845,0.72733
609.134,195.7218,-4.02153,-0.03683979,0.72671
609.834,195.959,-4.02165,-0.03902163,0.72609
610.534,196.195,-4.02217,-0.0396426,0.72547
611.234,196.43,-4.02296,-0.04010211,0.72484
611.934,196.6652,-4.02199,-0.04132157,0.72422
612.634,196.9,-4.02198,-0.03428044,0.7236
613.334,197.135,-4.02329,-0.03610536,0.72297
614.034,197.3704,-4.02296,-0.03673257,0.72235
614.734,197.606,-4.02198,-0.03775766,0.72173
615.434,197.843,-4.02296,-0.03769928,0.7211
616.134,198.079,-4.0231,-0.03899278,0.72048
616.834,198.3153,-4.02296,-0.03999532,0.71985
617.534,198.551,-4.02297,-0.03594448,0.71923
618.234,198.7867,-4.02329,-0.03694275,0.7186
618.934,199.0215,-4.02168,-0.037449,0.71798
619.634,199.257,-4.02177,-0.03583371,0.71735
620.334,199.494,-4.02164,-0.03586201,0.71673
621.034,199.73,-4.02164,-0.03445152,0.7161
621.734,199.965,-4.02031,-0.03529179,0.71547
622.434,200.2,-4.02263,-0.03354576,0.71485
623.134,200.434,-4.02198,-0.03436912,0.71422
623.834,200.668,-4.01999,-0.03664859,0.71359
624.534,200.902,-4.02008,-0.03699496,0.71297
625.234,201.137,-4.02131,-0.03412059,0.71234
625.934,201.373,-4.02163,-0.03397246,0.71171
626.634,201.61,-4.02164,-0.03339297,0.71108
627.334,201.846,-4.02296,-0.03609203,0.71045
628.034,202.082,-4.02427,-0.03612229,0.70982
628.734,202.318,-4.02296,-0.02929733,0.7092
629.434,202.553,-4.02427,-0.02979138,0.70857
630.134,202.788,-4.02329,-0.0301789,0.70794
630.834,203.024,-4.02539,-0.03304067,0.70731
631.534,203.261,-4.02584,-0.0338977,0.70668
632.234,203.499,-4.02361,-0.03236586,0.70605
632.934,203.736,-4.02329,-0.03325981,0.70542
633.634,203.971,-4.02197,-0.03259084,0.70479
634.334,204.207,-4.02459,-0.0345162,0.70415
635.034,204.442,-4.02535,-0.03264829,0.70352
635.734,204.677,-4.02362,-0.03580263,0.70289
636.434,204.9118,-4.02494,-0.03184488,0.70226
637.134,205.147,-4.0246,-0.03455217,0.70163
637.834,205.382,-4.02329,-0.03394848,0.701
638.534,205.619,-4.02329,-0.03629563,0.70036
639.234,205.855,-4.02233,-0.03093781,0.69973
639.934,206.09,-4.0229,-0.03293066,0.6991
640.634,206.325,-4.02361,-0.03035517,0.69847
641.334,206.561,-4.02362,-0.03142346,0.69783
642.034,206.797,-4.02362,-0.0297793,0.6972
642.734,207.034,-4.02298,-0.03263159,0.69656
643.434,207.271,-4.02329,-0.0295222,0.69593
644.134,207.508,-4.02197,-0.02721811,0.6953
644.834,207.744,-4.02362,-0.03001742,0.69466
645.534,207.979,-4.02164,-0.02896567,0.69403
646.234,208.214,-4.02395,-0.02918996,0.69339
646.934,208.449,-4.02427,-0.03298611,0.69276
647.634,208.685,-4.02527,-0.02600347,0.69212
648.334,208.921,-4.02319,-0.03043284,0.69149
649.034,209.157,-4.02559,-0.03289859,0.69085
649.734,209.3926,-4.02434,-0.03288449,0.69022
650.434,209.628,-4.02505,-0.0296749,0.68958
651.134,209.864,-4.02427,-0.03207589,0.68894
651.834,210.1,-4.02427,-0.03045748,0.68831
652.534,210.336,-4.02427,-0.03049373,0.68767
653.234,210.572,-4.0256,-0.03111749,0.68703
653.934,210.809,-4.02508,-0.02943458,0.6864
654.634,211.047,-4.02495,-0.03091572,0.68576
655.334,211.285,-4.0233,-0.02902332,0.68512
656.034,211.5226,-4.02452,-0.02828488,0.68448
656.734,211.759,-4.02332,-0.03113543,0.68385
657.434,211.9949,-4.0223,-0.0275981,0.68321
658.134,212.23,-4.02389,-0.02844219,0.68257
658.834,212.465,-4.02428,-0.02336716,0.68193
659.534,212.7,-4.02431,-0.02792152,0.68129
660.234,212.9365,-4.02632,-0.02689158,0.68065
660.934,213.1724,-4.02394,-0.02372917,0.68001
661.634,213.409,-4.02329,-0.02577921,0.67937
662.334,213.645,-4.02427,-0.02261952,0.67874
663.034,213.882,-4.02233,-0.02348095,0.6781
663.734,214.119,-4.02362,-0.02142109,0.67746
664.434,214.355,-4.02493,-0.01893372,0.67682
665.134,214.592,-4.02395,-0.02341364,0.67618
665.834,214.829,-4.024,-0.01640345,0.67554
666.534,215.065,-4.02526,-0.02069968,0.67489
667.234,215.302,-4.02328,-0.01971836,0.67425
667.934,215.539,-4.02328,-0.0164161,0.67361
668.634,215.775,-4.02395,-0.02165261,0.67297
669.334,216.012,-4.0233,-0.0221188,0.67233
670.034,216.249,-4.02329,-0.02107239,0.67169
670.734,216.488,-4.0221,-0.01861158,0.67105
671.434,216.726,-4.026,-0.02092465,0.67041
672.134,216.964,-4.02459,-0.02033281,0.66976
672.834,217.201,-4.02461,-0.02086979,0.66912
673.534,217.438,-4.02596,-0.0208961,0.66848
674.234,217.675,-4.02492,-0.01580235,0.66784
674.934,217.9117,-4.0262,-0.01754754,0.6672
675.634,218.148,-4.02561,-0.01449544,0.66655
676.334,218.384,-4.02494,-0.01529704,0.66591
677.034,218.6208,-4.02623,-0.01314831,0.66527
677.734,218.857,-4.02412,-0.01230294,0.66462
678.434,219.093,-4.0256,-0.01119689,0.66398
679.134,219.329,-4.02671,-0.01367954,0.66334
679.834,219.5638,-4.02461,-0.01027835,0.66269
680.534,219.8,-4.02426,-0.01175021,0.66205
681.234,220.038,-4.02666,-0.01284281,0.66141
681.934,220.277,-4.02606,-0.01237906,0.66076
682.634,220.514,-4.02658,-0.01312416,0.66012
683.334,220.752,-4.02656,-0.01333241,0.65947
684.034,220.9889,-4.02789,-0.01399149,0.65883
684.734,221.2252,-4.02757,-0.00965751,0.65818
685.434,221.461,-4.02722,-0.01442621,0.65754
686.134,221.697,-4.02604,-0.009867133,0.65689
686.834,221.932,-4.02691,-0.01062616,0.65625
687.534,222.169,-4.02824,-0.01029621,0.6556
688.234,222.404,-4.02691,-0.01255294,0.65496
688.934,222.64,-4.02604,-0.01375036,0.65431
689.634,222.875,-4.02597,-0.01130076,0.65367
690.334,223.111,-4.02592,-0.008493618,0.65302
691.034,223.347,-4.02599,-0.007291242,0.65237
691.734,223.584,-4.02586,-0.01127641,0.65173
692.434,223.8201,-4.02689,-0.007831784,0.65108
693.134,224.057,-4.02657,-0.008047623,0.65044
693.834,224.295,-4.02691,-0.01159045,0.64979
694.534,224.5318,-4.02724,-0.01003349,0.64914
695.234,224.769,-4.02757,-0.01133152,0.6485
695.934,225.005,-4.02856,-0.009423832,0.64785
696.634,225.241,-4.02959,-0.009864058,0.6472
697.334,225.4777,-4.02954,-0.01020911,0.64656
698.034,225.715,-4.02921,-0.00965347,0.64591
698.734,225.951,-4.02782,-0.01283781,0.64526
699.434,226.188,-4.02954,-0.00866301,0.64461
700.134,226.425,-4.02826,-0.01127639,0.64397
700.834,226.662,-4.02823,-0.008190444,0.64332
701.534,226.898,-4.03053,-0.009929039,0.64267
702.234,227.135,-4.03119,-0.01150233,0.64202
702.934,227.372,-4.03118,-0.00650816,0.64138
703.634,227.608,-4.02888,-0.00351019,0.64073
704.334,227.845,-4.03018,-0.006344046,0.64008
705.034,228.081,-4.02888,-0.008309953,0.63943
705.734,228.317,-4.02884,-0.005556585,0.63878
706.434,228.554,-4.02884,-0.01148414,0.63813
707.134,228.79,-4.0279,-0.009678374,0.63749
707.834,229.026,-4.02886,-0.008099768,0.63684
708.534,229.262,-4.02902,-0.01083106,0.63619
709.234,229.498,-4.02889,-0.007613288,0.63554
709.934,229.734,-4.02986,-0.006697899,0.63489
710.634,229.9715,-4.02724,-0.00659831,0.63424
711.334,230.208,-4.02987,-0.00678631,0.63359
712.034,230.445,-4.02987,-0.008736778,0.63294
712.734,230.68,-4.02986,-0.009242512,0.63229
713.434,230.917,-4.03119,-0.01142487,0.63164
714.134,231.153,-4.03119,-0.01158028,0.63099
714.834,231.389,-4.03153,-0.01199613,0.63034
715.534,231.624,-4.0302,-0.01504674,0.6297
716.234,231.861,-4.0302,-0.01630464,0.62905
716.934,232.0972,-4.03093,-0.01601972,0.6284
717.634,232.333,-4.03053,-0.01668,0.62775
718.334,232.569,-4.03025,-0.01624133,0.6271
719.034,232.8057,-4.03182,-0.01532963,0.62645
719.734,233.043,-4.03047,-0.01878828,0.6258
720.434,233.281,-4.03013,-0.01881463,0.62514
721.134,233.519,-4.03086,-0.01737613,0.62449
721.834,233.757,-4.03085,-0.01771538,0.62384
722.534,233.995,-4.02856,-0.01876266,0.62319
723.234,234.233,-4.02922,-0.01724469,0.62254
723.934,234.469,-4.03114,-0.0198641,0.62189
724.634,234.705,-4.03117,-0.01836449,0.62124
725.334,234.94,-4.03115,-0.01801215,0.62059
726.034,235.175,-4.02967,-0.02359286,0.61994
726.734,235.411,-4.02917,-0.02385824,0.61929
727.434,235.646,-4.0302,-0.01836979,0.61864
728.134,235.882,-4.03053,-0.02217417,0.61799
728.834,236.117,-4.02987,-0.01733053,0.61734
729.534,236.353,-4.0312,-0.01619293,0.61669
730.234,236.589,-4.02953,-0.0180756,0.61603
730.934,236.825,-4.02826,-0.01526104,0.61538
731.634,237.062,-4.0312,-0.01547302,0.61473
732.334,237.297,-4.03184,-0.01668137,0.61408
733.034,237.533,-4.03053,-0.01506719,0.61343
733.734,237.769,-4.03085,-0.01432546,0.61278
734.434,238.006,-4.02943,-0.01465094,0.61213
735.134,238.243,-4.03085,-0.01297262,0.61147
735.834,238.479,-4.03044,-0.01779667,0.61082
736.534,238.716,-4.03184,-0.01332665,0.61017
737.234,238.954,-4.03052,-0.01715647,0.60952
737.934,239.191,-4.03016,-0.02169283,0.60887
738.634,239.428,-4.03151,-0.02021415,0.60822
739.334,239.664,-4.03052,-0.02109558,0.60756
740.034,239.901,-4.0305,-0.01627998,0.60691
740.734,240.137,-4.03051,-0.02311034,0.60626
741.434,240.373,-4.03053,-0.02117311,0.60561
742.134,240.61,-4.03053,-0.02321387,0.60496
742.834,240.847,-4.02955,-0.02758486,0.60431
743.534,241.086,-4.0321,-0.02497626,0.60365
744.234,241.324,-4.03217,-0.03043042,0.603
744.934,241.561,-4.03085,-0.02866148,0.60235
745.634,241.798,-4.03084,-0.03015743,0.6017
746.334,242.035,-4.03152,-0.02928126,0.60105
747.034,242.272,-4.03152,-0.03123607,0.60039
747.734,242.5075,-4.03316,-0.03015316,0.59974
748.434,242.743,-4.03215,-0.02774966,0.59909
749.134,242.978,-4.03152,-0.03139079,0.59844
749.834,243.214,-4.03152,-0.02889972,0.59778
750.134,243.317,-4.0305,-0.03480831,0.5975