File: 01_Data/Latex_Pillow_Inner_Fabric/MCC/Latex_Pillow_Inner_Fabric_MCC_30K_min_211210_R1.txt
Sample ID:	C:\MCC\MCC Cal\Test\LatexPillow_B_Inner_Fabric_MCC_30K_min_211210_R1.txt
Sample Weight (mg):	4.42
Heating Rate (C/s):	0.5
Combustor Temp (C):	900
N2 Flow Rate (cc/min):	80
O2 Flow Rate (cc/min):	20
Calibration File:	C:\MCC\MCC Cal\Coeff1 JN10440_30_210304.txt.txt
T Correction Coefficients:	0	1.024463	0
Time Shift (s):	14
*
Time (s)	Temperature (C)	N2 flow rate (cc/min)	O2 flow rate (cc/min)	Flow Rate (cc/min)	Oxygen (%)	HRR (W/g)	Heating rate (C/s)
0.000	108.624	80.009	19.998	103.085	20.269	-0.284	0.017
2.000	108.653	80.009	19.999	103.069	20.267	-0.148	0.003
4.000	108.638	80.008	19.995	103.073	20.266	-0.036	-0.021
6.000	108.642	80.008	19.996	103.087	20.261	0.267	0.002
8.000	108.656	80.008	19.994	103.102	20.263	0.176	0.024
10.000	108.669	80.007	19.995	103.114	20.260	0.345	-0.011
12.000	108.673	80.005	19.994	103.125	20.258	0.511	0.010
14.000	108.692	80.005	19.995	103.136	20.251	1.027	0.017
16.000	108.760	80.005	19.994	103.160	20.253	0.914	0.016
18.000	108.834	80.005	19.995	103.177	20.250	1.089	0.048
20.000	108.928	80.004	19.996	103.196	20.248	1.246	0.041
22.000	109.088	80.005	19.997	103.207	20.243	1.615	0.071
24.000	109.252	80.003	19.996	103.218	20.238	1.962	0.090
26.000	109.430	80.004	19.995	103.244	20.234	2.303	0.100
28.000	109.612	80.006	19.995	103.267	20.236	2.132	0.114
30.000	109.899	80.005	19.996	103.272	20.232	2.413	0.156
32.000	110.118	80.005	19.996	103.267	20.231	2.518	0.134
34.001	110.435	80.005	19.994	103.267	20.232	2.438	0.171
36.001	110.722	80.004	19.997	103.275	20.233	2.347	0.134
38.001	111.054	80.005	19.995	103.258	20.233	2.353	0.165
40.000	111.406	80.004	19.995	103.282	20.231	2.493	0.178
42.000	111.797	80.005	19.995	103.289	20.229	2.614	0.230
44.000	112.191	80.005	19.995	103.294	20.225	2.905	0.196
46.000	112.612	80.006	19.996	103.291	20.227	2.776	0.213
48.000	113.068	80.006	19.995	103.289	20.228	2.700	0.226
50.000	113.505	80.005	19.994	103.284	20.232	2.435	0.223
52.000	114.040	80.007	19.994	103.287	20.227	2.786	0.270
54.000	114.500	80.008	19.994	103.284	20.227	2.785	0.229
56.001	115.047	80.007	19.995	103.287	20.230	2.580	0.262
58.000	115.554	80.007	19.997	103.288	20.232	2.416	0.277
60.001	116.081	80.008	19.996	103.287	20.225	2.931	0.255
62.000	116.651	80.008	19.995	103.287	20.228	2.734	0.272
64.000	117.229	80.008	19.995	103.289	20.227	2.771	0.312
66.000	117.791	80.006	19.996	103.294	20.228	2.705	0.269
68.001	118.401	80.007	19.995	103.288	20.227	2.793	0.321
70.000	119.055	80.008	19.995	103.308	20.223	3.052	0.322
72.000	119.679	80.007	19.995	103.291	20.226	2.824	0.322
74.001	120.246	80.007	19.995	103.294	20.226	2.882	0.293
76.000	120.971	80.006	19.995	103.308	20.226	2.854	0.322
78.000	121.631	80.008	19.993	103.313	20.226	2.874	0.320
80.000	122.316	80.007	19.994	103.324	20.221	3.197	0.342
82.000	122.999	80.010	19.995	103.322	20.220	3.263	0.337
84.000	123.688	80.009	19.995	103.326	20.218	3.400	0.345
86.001	124.432	80.009	19.993	103.328	20.221	3.221	0.363
88.000	125.184	80.009	19.995	103.326	20.217	3.518	0.384
90.000	125.941	80.009	19.995	103.327	20.219	3.346	0.394
92.000	126.691	80.007	19.995	103.327	20.220	3.325	0.374
94.000	127.435	80.005	19.996	103.327	20.218	3.408	0.380
96.000	128.237	80.007	19.994	103.327	20.215	3.622	0.412
98.001	129.053	80.006	19.995	103.328	20.216	3.582	0.400
100.000	129.873	80.007	19.995	103.329	20.216	3.584	0.425
102.000	130.655	80.004	19.995	103.328	20.215	3.634	0.415
104.000	131.489	80.005	19.995	103.330	20.215	3.681	0.390
106.000	132.310	80.006	19.995	103.329	20.215	3.624	0.416
108.000	133.129	80.006	19.996	103.330	20.216	3.588	0.416
110.001	133.992	80.006	19.995	103.328	20.217	3.530	0.457
112.001	134.845	80.005	19.995	103.328	20.219	3.390	0.448
114.001	135.694	80.007	19.996	103.327	20.218	3.438	0.430
116.001	136.542	80.006	19.996	103.327	20.217	3.476	0.407
118.000	137.454	80.006	19.998	103.327	20.217	3.516	0.430
120.000	138.370	80.007	19.997	103.326	20.216	3.576	0.452
122.000	139.265	80.006	19.997	103.324	20.215	3.689	0.431
124.000	140.163	80.006	19.997	103.325	20.215	3.646	0.444
126.000	141.087	80.005	19.996	103.324	20.213	3.813	0.466
128.000	142.039	80.005	19.995	103.325	20.217	3.488	0.470
130.000	142.946	80.005	19.996	103.327	20.218	3.470	0.461
132.000	143.889	80.006	19.995	103.327	20.217	3.532	0.440
134.000	144.859	80.006	19.995	103.327	20.217	3.508	0.482
136.000	145.750	80.007	19.994	103.326	20.219	3.354	0.483
138.000	146.733	80.006	19.994	103.327	20.217	3.506	0.472
140.000	147.663	80.008	19.995	103.327	20.218	3.412	0.461
142.000	148.639	80.007	19.993	103.330	20.219	3.377	0.481
144.001	149.643	80.007	19.995	103.321	20.217	3.486	0.470
146.000	150.580	80.008	19.994	103.328	20.220	3.273	0.480
148.000	151.605	80.007	19.993	103.326	20.219	3.335	0.486
150.000	152.581	80.007	19.995	103.326	20.223	3.073	0.478
152.000	153.533	80.007	19.995	103.327	20.221	3.181	0.466
154.000	154.489	80.007	19.995	103.326	20.222	3.114	0.509
156.000	155.445	80.007	19.995	103.326	20.222	3.119	0.450
158.000	156.453	80.006	19.994	103.327	20.221	3.187	0.493
160.000	157.441	80.009	19.995	103.327	20.221	3.200	0.478
162.001	158.441	80.007	19.994	103.328	20.220	3.297	0.515
164.000	159.427	80.007	19.994	103.321	20.220	3.283	0.481
166.000	160.390	80.008	19.993	103.322	20.221	3.205	0.486
168.000	161.404	80.009	19.993	103.326	20.219	3.337	0.495
170.000	162.418	80.010	19.994	103.311	20.221	3.212	0.510
172.000	163.370	80.008	19.993	103.317	20.224	2.988	0.472
174.000	164.409	80.007	19.995	103.315	20.221	3.180	0.505
176.001	165.408	80.007	19.994	103.318	20.223	3.058	0.507
178.000	166.401	80.007	19.995	103.313	20.224	3.021	0.449
180.000	167.409	80.006	19.996	103.316	20.225	2.893	0.479
182.000	168.430	80.006	19.994	103.304	20.224	2.977	0.532
184.000	169.420	80.006	19.995	103.306	20.227	2.770	0.501
186.000	170.438	80.006	19.995	103.296	20.228	2.723	0.493
188.000	171.423	80.006	19.995	103.302	20.226	2.885	0.487
190.000	172.467	80.007	19.995	103.291	20.223	3.105	0.524
192.000	173.462	80.005	19.995	103.288	20.227	2.805	0.541
194.000	174.482	80.008	19.995	103.289	20.226	2.819	0.483
196.000	175.425	80.006	19.995	103.296	20.224	2.965	0.489
198.000	176.461	80.006	19.996	103.295	20.225	2.889	0.523
200.000	177.411	80.007	19.995	103.290	20.223	3.086	0.476
202.000	178.399	80.006	19.994	103.288	20.226	2.881	0.529
204.000	179.381	80.006	19.995	103.297	20.225	2.891	0.485
206.000	180.388	80.006	19.996	103.297	20.226	2.861	0.494
208.000	181.377	80.005	19.995	103.291	20.226	2.887	0.484
210.000	182.354	80.005	19.997	103.295	20.226	2.825	0.460
212.000	183.361	80.004	19.996	103.290	20.229	2.602	0.504
214.000	184.385	80.005	19.996	103.296	20.229	2.656	0.514
216.000	185.369	80.005	19.995	103.289	20.227	2.770	0.516
218.000	186.397	80.004	19.995	103.291	20.232	2.441	0.516
220.000	187.383	80.006	19.995	103.290	20.229	2.656	0.507
222.001	188.367	80.007	19.996	103.289	20.231	2.522	0.503
224.000	189.397	80.007	19.996	103.289	20.228	2.718	0.506
226.000	190.421	80.008	19.995	103.289	20.229	2.648	0.545
228.000	191.389	80.007	19.995	103.287	20.229	2.652	0.505
230.000	192.350	80.006	19.995	103.291	20.231	2.518	0.469
232.000	193.376	80.008	19.994	103.290	20.233	2.371	0.532
234.000	194.382	80.007	19.994	103.291	20.230	2.584	0.528
236.000	195.341	80.007	19.995	103.290	20.229	2.666	0.518
238.000	196.327	80.007	19.996	103.292	20.231	2.503	0.508
240.000	197.302	80.007	19.994	103.290	20.228	2.672	0.504
242.000	198.307	80.007	19.996	103.288	20.228	2.678	0.520
244.000	199.340	80.008	19.994	103.285	20.228	2.686	0.514
246.000	200.305	80.008	19.994	103.285	20.229	2.652	0.507
248.000	201.275	80.009	19.995	103.284	20.231	2.518	0.477
250.000	202.231	80.009	19.994	103.272	20.227	2.802	0.464
252.000	203.237	80.008	19.996	103.279	20.225	2.891	0.497
254.000	204.223	80.008	19.995	103.276	20.229	2.662	0.494
256.000	205.182	80.007	19.994	103.276	20.227	2.806	0.489
258.000	206.186	80.007	19.995	103.286	20.228	2.706	0.504
260.000	207.167	80.006	19.995	103.284	20.230	2.532	0.494
262.000	208.164	80.006	19.995	103.282	20.233	2.369	0.484
264.000	209.141	80.006	19.995	103.281	20.235	2.189	0.469
266.000	210.091	80.007	19.996	103.274	20.231	2.481	0.458
268.000	211.108	80.008	19.997	103.274	20.229	2.640	0.476
270.000	212.079	80.007	19.996	103.279	20.228	2.734	0.477
272.000	213.077	80.007	19.994	103.283	20.232	2.437	0.497
274.000	214.097	80.007	19.994	103.280	20.233	2.351	0.500
276.000	215.160	80.007	19.995	103.282	20.230	2.559	0.513
278.000	216.122	80.006	19.995	103.273	20.225	2.955	0.500
280.000	217.108	80.006	19.997	103.279	20.227	2.758	0.512
282.000	218.048	80.007	19.995	103.280	20.230	2.549	0.486
284.000	219.029	80.007	19.996	103.273	20.231	2.483	0.471
286.000	220.036	80.006	19.995	103.274	20.231	2.483	0.460
288.000	221.057	80.005	19.994	103.278	20.231	2.495	0.512
290.000	222.042	80.005	19.996	103.280	20.233	2.333	0.526
292.000	223.019	80.005	19.995	103.260	20.234	2.280	0.511
294.000	224.012	80.006	19.995	103.269	20.234	2.293	0.514
296.000	224.996	80.005	19.996	103.274	20.232	2.447	0.487
298.000	225.983	80.005	19.996	103.262	20.233	2.356	0.491
300.000	227.016	80.005	19.996	103.277	20.234	2.282	0.509
302.000	228.026	80.006	19.996	103.269	20.233	2.341	0.482
304.001	229.064	80.008	19.996	103.266	20.232	2.427	0.533
306.000	230.106	80.008	19.996	103.268	20.235	2.178	0.517
308.000	231.098	80.009	19.996	103.260	20.233	2.326	0.470
310.001	232.059	80.008	19.995	103.254	20.233	2.355	0.478
312.000	233.096	80.007	19.997	103.256	20.232	2.389	0.511
314.000	234.090	80.007	19.994	103.275	20.232	2.389	0.505
316.000	235.104	80.005	19.994	103.259	20.235	2.174	0.490
318.000	236.118	80.008	19.996	103.257	20.233	2.372	0.485
320.001	237.115	80.007	19.996	103.251	20.235	2.166	0.527
322.000	238.122	80.007	19.995	103.265	20.239	1.877	0.474
324.000	239.142	80.007	19.996	103.256	20.240	1.859	0.492
326.000	240.124	80.008	19.994	103.269	20.241	1.777	0.500
328.000	241.111	80.007	19.995	103.256	20.237	2.078	0.475
330.000	242.136	80.008	19.995	103.253	20.235	2.208	0.511
332.000	243.137	80.008	19.994	103.247	20.237	2.039	0.529
334.000	244.087	80.008	19.995	103.252	20.237	2.033	0.448
336.000	245.151	80.008	19.996	103.247	20.237	2.082	0.536
338.000	246.182	80.008	19.996	103.251	20.239	1.933	0.518
340.000	247.167	80.007	19.997	103.250	20.237	2.017	0.537
342.000	248.116	80.005	19.996	103.248	20.238	1.975	0.491
344.000	249.093	80.005	19.995	103.251	20.240	1.835	0.495
346.000	250.123	80.006	19.993	103.252	20.238	1.979	0.466
348.000	251.109	80.006	19.996	103.253	20.240	1.797	0.466
350.000	252.064	80.006	19.993	103.252	20.240	1.813	0.471
352.000	253.057	80.005	19.995	103.252	20.237	2.029	0.478
354.000	254.059	80.005	19.995	103.252	20.236	2.136	0.479
356.000	255.000	80.005	19.995	103.253	20.239	1.879	0.497
358.000	256.058	80.006	19.995	103.259	20.235	2.218	0.525
360.000	256.936	80.006	19.996	103.253	20.233	2.322	0.453
362.000	257.960	80.007	19.994	103.256	20.232	2.422	0.496
364.000	258.898	80.007	19.994	103.253	20.232	2.428	0.473
366.000	259.887	80.006	19.995	103.254	20.231	2.511	0.474
368.000	260.867	80.006	19.995	103.254	20.238	1.995	0.494
370.000	261.837	80.005	19.995	103.251	20.236	2.122	0.552
372.000	262.785	80.006	19.995	103.250	20.235	2.178	0.457
374.000	263.737	80.007	19.995	103.249	20.233	2.310	0.503
376.000	264.753	80.005	19.995	103.243	20.236	2.144	0.482
378.000	265.706	80.005	19.996	103.243	20.237	2.013	0.473
380.000	266.647	80.007	19.995	103.249	20.234	2.262	0.493
382.000	267.668	80.007	19.996	103.244	20.237	2.063	0.503
384.000	268.662	80.008	19.994	103.246	20.239	1.899	0.496
386.000	269.681	80.007	19.996	103.249	20.236	2.136	0.495
388.000	270.688	80.008	19.996	103.249	20.234	2.250	0.527
390.000	271.703	80.009	19.996	103.248	20.234	2.256	0.486
392.000	272.713	80.009	19.996	103.247	20.236	2.110	0.495
394.000	273.659	80.008	19.996	103.248	20.232	2.382	0.479
396.000	274.686	80.007	19.996	103.243	20.231	2.456	0.477
398.001	275.750	80.007	19.996	103.245	20.235	2.162	0.516
400.000	276.652	80.007	19.996	103.247	20.237	2.067	0.497
402.000	277.658	80.007	19.996	103.248	20.232	2.418	0.460
404.000	278.634	80.007	19.996	103.245	20.237	2.071	0.496
406.000	279.620	80.006	19.995	103.247	20.237	2.031	0.487
408.000	280.622	80.007	19.996	103.241	20.239	1.925	0.472
410.000	281.586	80.008	19.995	103.245	20.239	1.931	0.478
412.000	282.609	80.007	19.996	103.247	20.236	2.152	0.514
414.000	283.623	80.008	19.996	103.248	20.238	2.009	0.511
416.000	284.614	80.008	19.995	103.240	20.239	1.891	0.465
418.000	285.629	80.009	19.997	103.247	20.240	1.859	0.491
420.000	286.644	80.008	19.995	103.245	20.237	2.060	0.523
422.000	287.634	80.007	19.994	103.234	20.236	2.116	0.516
424.000	288.645	80.008	19.993	103.249	20.241	1.755	0.491
426.000	289.667	80.006	19.995	103.243	20.240	1.819	0.525
428.000	290.648	80.005	19.995	103.247	20.240	1.843	0.521
430.000	291.681	80.005	19.994	103.245	20.238	1.959	0.506
432.000	292.699	80.004	19.994	103.253	20.239	1.873	0.494
434.000	293.691	80.006	19.995	103.250	20.240	1.795	0.494
436.000	294.744	80.007	19.997	103.241	20.237	2.065	0.544
438.000	295.757	80.005	19.995	103.238	20.240	1.853	0.487
440.000	296.786	80.005	19.995	103.248	20.240	1.859	0.498
442.000	297.804	80.007	19.995	103.247	20.236	2.089	0.511
444.000	298.850	80.006	19.995	103.246	20.232	2.428	0.504
446.000	299.825	80.007	19.995	103.247	20.238	1.955	0.480
448.000	300.857	80.006	19.995	103.248	20.242	1.708	0.513
450.000	301.854	80.006	19.996	103.245	20.237	2.015	0.497
452.000	302.921	80.006	19.993	103.241	20.240	1.843	0.545
454.001	303.951	80.007	19.994	103.244	20.243	1.590	0.508
456.000	304.943	80.007	19.994	103.243	20.239	1.915	0.503
458.000	305.966	80.007	19.994	103.244	20.240	1.857	0.521
460.000	306.992	80.005	19.995	103.242	20.238	1.957	0.536
462.000	308.068	80.006	19.994	103.239	20.236	2.129	0.524
464.000	309.065	80.006	19.994	103.239	20.236	2.139	0.519
466.000	310.053	80.006	19.995	103.233	20.239	1.907	0.500
468.000	311.141	80.007	19.995	103.228	20.240	1.861	0.517
470.000	312.203	80.007	19.996	103.231	20.240	1.831	0.564
472.000	313.220	80.005	19.995	103.222	20.240	1.818	0.517
474.000	314.210	80.006	19.995	103.233	20.239	1.929	0.491
476.000	315.244	80.007	19.995	103.220	20.243	1.610	0.511
478.000	316.263	80.006	19.997	103.234	20.242	1.676	0.528
480.000	317.290	80.006	19.997	103.241	20.240	1.850	0.531
482.000	318.303	80.007	19.995	103.223	20.238	1.959	0.498
484.000	319.308	80.007	19.995	103.228	20.241	1.756	0.508
486.000	320.315	80.005	19.994	103.223	20.241	1.750	0.496
488.000	321.354	80.007	19.995	103.222	20.241	1.734	0.535
490.000	322.362	80.006	19.996	103.223	20.240	1.802	0.476
492.000	323.380	80.007	19.995	103.223	20.242	1.672	0.513
494.000	324.361	80.007	19.995	103.223	20.242	1.704	0.501
496.000	325.372	80.008	19.996	103.223	20.242	1.652	0.524
498.000	326.386	80.008	19.997	103.227	20.239	1.931	0.489
500.000	327.417	80.007	19.997	103.231	20.237	2.069	0.516
502.000	328.424	80.008	19.997	103.216	20.238	2.003	0.509
504.000	329.431	80.007	19.997	103.227	20.242	1.660	0.483
506.000	330.380	80.005	19.996	103.235	20.242	1.692	0.487
508.000	331.445	80.006	19.996	103.218	20.243	1.586	0.529
510.000	332.454	80.007	19.997	103.217	20.241	1.752	0.532
512.001	333.443	80.005	19.995	103.211	20.240	1.824	0.503
514.000	334.427	80.007	19.994	103.217	20.241	1.758	0.488
516.000	335.424	80.008	19.996	103.223	20.242	1.704	0.498
518.000	336.473	80.006	19.994	103.220	20.238	1.995	0.511
520.001	337.464	80.007	19.996	103.215	20.237	2.019	0.498
522.000	338.492	80.006	19.994	103.225	20.239	1.929	0.517
524.000	339.498	80.006	19.997	103.218	20.237	2.011	0.511
526.000	340.538	80.007	19.996	103.228	20.236	2.123	0.508
528.000	341.537	80.007	19.996	103.213	20.237	2.047	0.496
530.000	342.494	80.008	19.996	103.218	20.238	1.983	0.469
532.000	343.501	80.007	19.994	103.225	20.241	1.776	0.484
534.000	344.497	80.008	19.996	103.215	20.245	1.496	0.535
536.001	345.497	80.006	19.996	103.232	20.241	1.762	0.500
538.000	346.494	80.004	19.998	103.222	20.240	1.792	0.521
540.000	347.500	80.006	19.996	103.217	20.240	1.824	0.473
542.000	348.503	80.005	19.996	103.220	20.239	1.931	0.512
544.000	349.560	80.007	19.997	103.219	20.238	1.955	0.559
546.000	350.586	80.006	19.996	103.217	20.235	2.173	0.515
548.000	351.556	80.006	19.996	103.221	20.236	2.149	0.493
550.000	352.635	80.008	19.996	103.221	20.236	2.113	0.540
552.001	353.670	80.007	19.995	103.220	20.238	1.989	0.507
554.000	354.668	80.007	19.994	103.217	20.236	2.147	0.517
556.001	355.661	80.006	19.995	103.217	20.236	2.087	0.466
558.000	356.656	80.006	19.994	103.221	20.238	2.009	0.497
560.000	357.692	80.008	19.996	103.234	20.235	2.207	0.490
562.000	358.684	80.006	19.996	103.219	20.233	2.330	0.506
564.000	359.722	80.005	19.998	103.231	20.230	2.585	0.505
566.000	360.704	80.007	19.996	103.232	20.232	2.434	0.476
568.000	361.763	80.005	19.995	103.230	20.226	2.817	0.531
570.000	362.745	80.008	19.995	103.222	20.226	2.845	0.502
572.000	363.746	80.007	19.995	103.222	20.227	2.809	0.497
574.000	364.745	80.007	19.996	103.239	20.221	3.238	0.526
576.000	365.776	80.007	19.996	103.234	20.220	3.322	0.508
578.000	366.798	80.009	19.994	103.225	20.218	3.401	0.496
580.000	367.812	80.008	19.996	103.246	20.216	3.587	0.487
582.000	368.852	80.008	19.995	103.239	20.214	3.714	0.511
584.000	369.878	80.009	19.995	103.235	20.205	4.390	0.512
586.000	370.904	80.009	19.995	103.226	20.203	4.496	0.529
588.000	371.890	80.006	19.996	103.241	20.200	4.743	0.506
590.000	372.933	80.006	19.996	103.241	20.195	5.076	0.523
592.000	373.963	80.006	19.996	103.242	20.192	5.348	0.514
594.000	374.999	80.006	19.996	103.247	20.183	5.956	0.512
596.000	376.033	80.006	19.996	103.246	20.180	6.235	0.507
598.000	377.094	80.005	19.996	103.247	20.172	6.756	0.540
600.000	378.094	80.005	19.996	103.249	20.171	6.838	0.538
602.000	379.136	80.005	19.995	103.250	20.161	7.587	0.516
604.000	380.168	80.005	19.996	103.250	20.152	8.228	0.503
606.000	381.203	80.007	19.996	103.252	20.147	8.629	0.486
608.000	382.283	80.008	19.995	103.253	20.142	9.003	0.538
610.000	383.316	80.008	19.996	103.252	20.137	9.328	0.531
612.000	384.356	80.006	19.994	103.253	20.134	9.526	0.505
614.000	385.457	80.007	19.994	103.260	20.130	9.813	0.558
616.000	386.468	80.006	19.994	103.271	20.125	10.194	0.508
618.001	387.496	80.006	19.994	103.275	20.118	10.755	0.543
620.000	388.553	80.007	19.994	103.281	20.114	11.013	0.550
622.000	389.602	80.004	19.995	103.280	20.103	11.789	0.567
624.000	390.655	80.005	19.996	103.276	20.092	12.587	0.524
626.000	391.679	80.005	19.996	103.273	20.082	13.314	0.526
628.000	392.724	80.005	19.994	103.285	20.065	14.560	0.515
630.000	393.809	80.006	19.995	103.293	20.045	16.041	0.545
632.000	394.863	80.007	19.994	103.296	20.029	17.253	0.537
634.000	395.916	80.007	19.996	103.273	20.021	17.805	0.532
636.000	396.962	80.007	19.997	103.255	20.016	18.141	0.506
638.000	397.996	80.008	19.996	103.261	20.010	18.640	0.525
640.000	399.028	80.008	19.995	103.316	19.999	19.402	0.539
642.000	400.040	80.008	19.994	103.328	19.981	20.699	0.472
644.000	401.100	80.007	19.994	103.327	19.966	21.791	0.557
646.000	402.118	80.010	19.996	103.323	19.946	23.266	0.525
648.000	403.119	80.007	19.995	103.327	19.931	24.404	0.526
650.000	404.168	80.007	19.994	103.327	19.915	25.556	0.511
652.000	405.190	80.008	19.997	103.327	19.894	27.080	0.507
654.000	406.162	80.008	19.995	103.356	19.868	28.997	0.476
656.000	407.185	80.008	19.995	103.366	19.832	31.627	0.533
658.000	408.219	80.007	19.996	103.371	19.803	33.745	0.516
660.000	409.224	80.007	19.995	103.382	19.769	36.203	0.491
662.000	410.200	80.007	19.994	103.371	19.733	38.842	0.508
664.000	411.242	80.008	19.996	103.369	19.697	41.479	0.523
666.000	412.248	80.007	19.996	103.419	19.657	44.410	0.512
668.000	413.213	80.009	19.995	103.441	19.621	47.060	0.476
670.000	414.174	80.009	19.997	103.440	19.585	49.666	0.462
672.000	415.165	80.008	19.996	103.443	19.553	52.007	0.495
674.000	416.146	80.005	19.994	103.466	19.508	55.370	0.486
676.000	417.143	80.005	19.995	103.504	19.436	60.646	0.525
678.000	418.148	80.005	19.995	103.557	19.376	65.050	0.515
680.000	419.135	80.005	19.995	103.540	19.326	68.692	0.500
682.000	420.095	80.006	19.997	103.522	19.273	72.548	0.471
684.000	421.087	80.006	19.995	103.508	19.204	77.653	0.472
686.000	422.104	80.005	19.996	103.604	19.136	82.693	0.518
688.000	423.109	80.004	19.996	103.659	19.078	86.929	0.523
690.000	424.114	80.004	19.995	103.627	19.019	91.283	0.498
692.000	425.051	80.006	19.996	103.629	18.960	95.583	0.499
694.000	426.061	80.006	19.996	103.644	18.893	100.495	0.475
696.000	427.074	80.007	19.997	103.729	18.818	106.095	0.512
698.000	428.077	80.006	19.996	103.747	18.746	111.404	0.490
700.000	429.087	80.005	19.995	103.734	18.679	116.257	0.527
702.000	430.079	80.005	19.995	103.746	18.613	121.129	0.518
704.000	431.092	80.005	19.995	103.751	18.546	126.084	0.486
706.000	432.076	80.006	19.996	103.814	18.477	131.155	0.486
708.000	433.068	80.004	19.995	103.849	18.417	135.647	0.495
710.000	434.096	80.007	19.996	103.869	18.355	140.193	0.507
712.000	435.066	80.007	19.998	103.857	18.309	143.543	0.473
714.000	436.093	80.007	19.995	103.879	18.259	147.238	0.513
716.000	437.089	80.006	19.995	103.914	18.199	151.659	0.522
718.000	438.126	80.008	19.997	103.961	18.141	155.988	0.499
720.000	439.079	80.007	19.995	103.998	18.084	160.218	0.504
722.000	440.108	80.009	19.995	103.974	18.038	163.589	0.494
724.000	441.085	80.007	19.996	103.973	17.992	166.941	0.492
726.000	442.133	80.007	19.995	103.989	17.949	170.156	0.530
728.000	443.122	80.008	19.996	104.022	17.908	173.161	0.513
730.000	444.146	80.008	19.996	104.046	17.873	175.776	0.508
732.000	445.187	80.008	19.996	104.065	17.843	177.916	0.521
734.000	446.157	80.008	19.995	104.060	17.816	179.897	0.504
736.000	447.165	80.009	19.995	104.071	17.793	181.550	0.497
738.000	448.168	80.008	19.996	104.073	17.776	182.791	0.522
740.000	449.202	80.010	19.995	104.085	17.774	182.955	0.509
742.000	450.212	80.009	19.994	104.079	17.779	182.536	0.509
744.000	451.252	80.009	19.994	104.068	17.802	180.748	0.523
746.000	452.235	80.009	19.994	104.049	17.832	178.509	0.517
748.000	453.280	80.010	19.994	104.031	17.876	175.239	0.516
750.000	454.239	80.010	19.994	104.029	17.939	170.524	0.527
752.000	455.301	80.007	19.995	104.015	18.000	166.040	0.533
754.000	456.427	80.007	19.996	103.988	18.089	159.406	0.533
756.000	457.392	80.005	19.996	103.962	18.178	152.837	0.576
758.000	458.395	80.005	19.996	103.925	18.281	145.223	0.495
760.000	459.312	80.007	19.994	103.882	18.387	137.457	0.407
762.000	460.481	80.007	19.997	103.844	18.497	129.313	0.446
764.000	461.850	80.006	19.996	103.809	18.609	121.097	0.603
766.000	462.611	80.008	19.995	103.773	18.733	111.999	0.454
768.000	463.491	80.006	19.996	103.736	18.866	102.289	0.633
770.000	464.622	80.007	19.994	103.693	18.997	92.667	0.450
772.000	465.617	80.007	19.997	103.649	19.119	83.678	0.524
774.000	466.647	80.006	19.996	103.629	19.241	74.748	0.563
776.000	467.602	80.006	19.994	103.605	19.349	66.888	0.535
778.000	468.662	80.007	19.998	103.567	19.446	59.806	0.523
780.000	469.693	80.007	19.996	103.548	19.529	53.706	0.477
782.000	470.712	80.008	19.996	103.491	19.608	47.940	0.533
784.000	471.720	80.006	19.996	103.466	19.673	43.224	0.495
786.000	472.781	80.006	19.997	103.437	19.736	38.622	0.522
788.000	473.846	80.007	19.997	103.423	19.784	35.086	0.585
790.000	474.896	80.006	19.998	103.399	19.832	31.611	0.543
792.000	475.947	80.006	19.997	103.372	19.871	28.738	0.519
794.000	476.911	80.007	19.995	103.366	19.910	25.897	0.484
796.000	477.979	80.008	19.996	103.362	19.944	23.388	0.503
798.000	479.048	80.008	19.995	103.344	19.969	21.612	0.528
800.000	480.097	80.009	19.995	103.328	19.993	19.840	0.504
802.000	481.073	80.008	19.995	103.321	20.015	18.246	0.488
804.000	482.126	80.008	19.994	103.323	20.038	16.581	0.512
806.000	483.165	80.010	19.995	103.309	20.056	15.268	0.543
808.000	484.178	80.008	19.994	103.301	20.074	13.897	0.523
810.000	485.207	80.008	19.995	103.299	20.089	12.849	0.514
812.000	486.293	80.006	19.995	103.288	20.099	12.118	0.526
814.000	487.266	80.008	19.995	103.289	20.114	11.012	0.499
816.000	488.335	80.006	19.995	103.284	20.123	10.362	0.536
818.000	489.344	80.008	19.994	103.266	20.134	9.539	0.491
820.001	490.419	80.008	19.995	103.282	20.144	8.815	0.539
822.001	491.440	80.009	19.995	103.259	20.152	8.213	0.538
824.000	492.490	80.009	19.995	103.260	20.157	7.885	0.531
826.000	493.536	80.010	19.995	103.256	20.165	7.284	0.515
828.000	494.648	80.010	19.995	103.249	20.167	7.114	0.521
830.001	495.672	80.011	19.995	103.245	20.173	6.696	0.507
832.000	496.771	80.011	19.995	103.244	20.175	6.541	0.527
834.000	497.822	80.010	19.994	103.245	20.180	6.227	0.512
836.000	498.865	80.009	19.994	103.240	20.188	5.581	0.516
838.000	499.939	80.008	19.995	103.226	20.190	5.449	0.538
840.000	500.980	80.007	19.995	103.231	20.194	5.144	0.519
842.000	502.021	80.008	19.995	103.211	20.197	4.985	0.521
844.000	503.083	80.007	19.996	103.221	20.198	4.865	0.518
846.000	504.104	80.007	19.995	103.218	20.201	4.676	0.499
848.000	505.171	80.007	19.995	103.213	20.204	4.446	0.536
850.000	506.253	80.007	19.995	103.208	20.203	4.506	0.551
852.000	507.310	80.008	19.997	103.207	20.203	4.492	0.545
854.000	508.414	80.007	19.996	103.208	20.205	4.378	0.546
856.000	509.473	80.007	19.995	103.205	20.202	4.614	0.551
858.000	510.491	80.007	19.997	103.198	20.203	4.524	0.531
860.000	511.531	80.008	19.996	103.200	20.208	4.139	0.525
862.000	512.627	80.007	19.996	103.204	20.210	4.003	0.553
864.000	513.658	80.007	19.995	103.210	20.209	4.073	0.544
866.000	514.734	80.006	19.996	103.209	20.211	3.957	0.535
868.000	515.763	80.006	19.996	103.207	20.214	3.752	0.530
870.000	516.787	80.007	19.995	103.209	20.213	3.814	0.486
872.000	517.857	80.007	19.995	103.207	20.214	3.694	0.497
874.000	518.900	80.006	19.995	103.203	20.214	3.702	0.490
876.000	519.978	80.008	19.996	103.208	20.219	3.345	0.531
878.000	521.002	80.007	19.996	103.199	20.216	3.563	0.516
880.000	522.040	80.006	19.996	103.191	20.217	3.534	0.539
882.000	523.072	80.006	19.997	103.194	20.213	3.792	0.532
884.000	524.092	80.007	19.995	103.199	20.216	3.606	0.512
886.000	525.141	80.007	19.995	103.202	20.212	3.866	0.510
888.000	526.159	80.007	19.995	103.191	20.213	3.806	0.487
890.000	527.176	80.008	19.996	103.189	20.216	3.592	0.523
892.000	528.185	80.008	19.997	103.193	20.218	3.454	0.524
894.000	529.143	80.008	19.995	103.199	20.217	3.512	0.456
896.000	530.201	80.007	19.995	103.191	20.209	4.067	0.517
898.000	531.223	80.009	19.997	103.198	20.215	3.640	0.532
900.000	532.227	80.009	19.997	103.207	20.213	3.760	0.519
902.000	533.218	80.009	19.995	103.205	20.214	3.730	0.503
904.000	534.275	80.008	19.995	103.201	20.218	3.450	0.510
906.000	535.346	80.008	19.996	103.198	20.217	3.512	0.567
908.000	536.363	80.009	19.996	103.202	20.212	3.852	0.532
910.000	537.358	80.010	19.994	103.197	20.217	3.540	0.491
912.000	538.343	80.011	19.994	103.196	20.216	3.594	0.498
914.000	539.405	80.010	19.995	103.204	20.217	3.492	0.538
916.000	540.381	80.009	19.994	103.201	20.219	3.327	0.483
918.000	541.418	80.010	19.994	103.197	20.216	3.552	0.506
920.000	542.493	80.008	19.995	103.197	20.215	3.636	0.519
922.000	543.535	80.007	19.994	103.197	20.217	3.488	0.535
924.000	544.519	80.008	19.995	103.190	20.220	3.321	0.519
926.000	545.520	80.007	19.995	103.204	20.218	3.459	0.508
928.000	546.558	80.006	19.996	103.195	20.218	3.424	0.527
930.000	547.605	80.008	19.994	103.204	20.219	3.349	0.524
932.000	548.638	80.007	19.994	103.200	20.217	3.492	0.516
934.000	549.652	80.006	19.995	103.198	20.221	3.227	0.533
936.000	550.637	80.008	19.995	103.196	20.220	3.293	0.474
938.000	551.678	80.008	19.995	103.202	20.217	3.471	0.512
940.000	552.701	80.007	19.995	103.193	20.218	3.433	0.487
942.000	553.709	80.007	19.995	103.202	20.218	3.405	0.496
944.000	554.774	80.007	19.995	103.207	20.219	3.377	0.500
946.000	555.835	80.007	19.995	103.205	20.218	3.416	0.511
948.000	556.855	80.007	19.995	103.197	20.217	3.496	0.513
950.000	557.916	80.006	19.996	103.196	20.216	3.559	0.517
952.000	558.906	80.006	19.996	103.185	20.220	3.309	0.516
954.000	559.917	80.006	19.995	103.187	20.216	3.604	0.504
956.000	560.973	80.006	19.996	103.200	20.217	3.507	0.534
958.000	561.998	80.006	19.998	103.201	20.215	3.661	0.477
960.000	563.017	80.006	19.997	103.192	20.213	3.820	0.506
962.000	563.997	80.008	19.996	103.176	20.216	3.577	0.488
964.000	565.073	80.009	19.996	103.190	20.215	3.670	0.518
966.000	566.080	80.006	19.995	103.191	20.215	3.640	0.530
968.000	567.134	80.007	19.995	103.189	20.215	3.620	0.552
970.000	568.093	80.008	19.996	103.177	20.213	3.788	0.503
972.000	569.105	80.007	19.995	103.184	20.215	3.682	0.527
974.000	570.083	80.008	19.996	103.187	20.214	3.688	0.519
976.000	571.119	80.007	19.995	103.195	20.213	3.802	0.509
978.000	572.119	80.007	19.996	103.191	20.215	3.618	0.468
980.000	573.190	80.007	19.997	103.188	20.217	3.516	0.543
982.000	574.222	80.006	19.995	103.189	20.215	3.628	0.501
984.000	575.302	80.007	19.996	103.194	20.217	3.507	0.549
986.000	576.295	80.006	19.995	103.198	20.214	3.718	0.508
988.000	577.305	80.007	19.996	103.197	20.216	3.606	0.480
990.000	578.346	80.008	19.997	103.198	20.217	3.538	0.534
992.000	579.399	80.008	19.997	103.189	20.211	3.953	0.545
994.000	580.419	80.009	19.995	103.182	20.212	3.834	0.519
996.000	581.446	80.009	19.995	103.188	20.217	3.518	0.514
998.000	582.478	80.010	19.995	103.195	20.211	3.914	0.506
1000.000	583.497	80.008	19.995	103.188	20.209	4.070	0.525
1002.000	584.557	80.008	19.995	103.203	20.211	3.938	0.518
1004.000	585.598	80.008	19.995	103.184	20.210	4.022	0.527
1006.000	586.623	80.006	19.995	103.189	20.211	3.914	0.510
1008.001	587.684	80.006	19.995	103.198	20.208	4.175	0.521
1010.000	588.728	80.006	19.995	103.187	20.212	3.897	0.526
1012.000	589.766	80.006	19.995	103.193	20.211	3.974	0.531
1014.000	590.794	80.005	19.996	103.195	20.204	4.473	0.516
1016.000	591.847	80.007	19.995	103.187	20.209	4.118	0.519
1018.000	592.929	80.006	19.996	103.196	20.208	4.168	0.547
1020.000	593.996	80.006	19.996	103.201	20.208	4.188	0.582
1022.000	595.045	80.009	19.995	103.202	20.202	4.599	0.531
1024.000	596.106	80.008	19.995	103.178	20.204	4.479	0.537
1026.000	597.119	80.007	19.993	103.180	20.206	4.322	0.506
1028.000	598.151	80.007	19.994	103.180	20.200	4.714	0.494
1030.000	599.203	80.007	19.996	103.176	20.205	4.399	0.516
1032.001	600.246	80.008	19.996	103.178	20.203	4.509	0.525
1034.001	601.258	80.008	19.994	103.176	20.205	4.404	0.496
1036.000	602.224	80.007	19.996	103.199	20.201	4.641	0.472
1038.000	603.282	80.006	19.995	103.200	20.204	4.471	0.520
1040.001	604.283	80.006	19.996	103.196	20.199	4.842	0.494
1042.000	605.291	80.006	19.997	103.184	20.201	4.652	0.505
1044.000	606.336	80.006	19.997	103.180	20.200	4.759	0.513
1046.000	607.326	80.006	19.996	103.172	20.201	4.699	0.491
1048.000	608.357	80.006	19.996	103.186	20.203	4.557	0.512
1050.000	609.385	80.007	19.995	103.189	20.202	4.612	0.497
1052.001	610.393	80.008	19.995	103.199	20.200	4.768	0.486
1054.000	611.391	80.009	19.995	103.181	20.203	4.489	0.461
1056.000	612.417	80.009	19.996	103.172	20.203	4.512	0.528
1058.001	613.426	80.008	19.994	103.179	20.201	4.645	0.520
1060.001	614.423	80.008	19.994	103.181	20.199	4.787	0.494
1062.001	615.472	80.008	19.996	103.187	20.202	4.592	0.543
1064.001	616.553	80.006	19.994	103.177	20.201	4.651	0.503
1066.001	617.532	80.008	19.995	103.183	20.202	4.591	0.486
1068.000	618.542	80.007	19.995	103.190	20.201	4.644	0.499
1070.001	619.594	80.007	19.995	103.173	20.204	4.443	0.496
1072.000	620.582	80.006	19.995	103.184	20.204	4.477	0.535
1074.001	621.605	80.007	19.995	103.190	20.202	4.585	0.518
1076.000	622.635	80.007	19.996	103.178	20.203	4.551	0.491
1078.000	623.627	80.008	19.996	103.191	20.207	4.234	0.480
1080.000	624.639	80.007	19.995	103.200	20.204	4.475	0.505
1082.000	625.674	80.008	19.995	103.179	20.206	4.300	0.493
1084.000	626.700	80.007	19.995	103.179	20.207	4.267	0.502
1086.000	627.689	80.009	19.995	103.177	20.203	4.509	0.495
1088.000	628.727	80.008	19.994	103.174	20.206	4.295	0.508
1090.000	629.789	80.006	19.993	103.174	20.204	4.461	0.524
1092.001	630.739	80.007	19.995	103.172	20.205	4.381	0.477
1094.000	631.810	80.007	19.995	103.179	20.203	4.525	0.509
1096.001	632.846	80.006	19.994	103.181	20.204	4.457	0.502
1098.000	633.886	80.007	19.995	103.181	20.208	4.142	0.519
1100.000	634.916	80.006	19.995	103.172	20.206	4.272	0.505
1102.001	635.945	80.006	19.996	103.181	20.208	4.156	0.485
1104.000	636.948	80.008	19.995	103.181	20.207	4.248	0.499
1106.001	638.012	80.008	19.995	103.181	20.212	3.896	0.519
1108.000	639.044	80.007	19.994	103.172	20.211	3.966	0.533
1110.000	640.061	80.007	19.995	103.173	20.209	4.074	0.513
1112.000	641.060	80.007	19.995	103.174	20.212	3.898	0.497
1114.000	642.076	80.007	19.995	103.172	20.211	3.962	0.484
1116.000	643.113	80.008	19.995	103.172	20.210	3.990	0.527
1118.001	644.127	80.007	19.996	103.182	20.210	3.984	0.508
1120.000	645.193	80.008	19.994	103.186	20.210	3.988	0.513
1122.001	646.226	80.007	19.994	103.174	20.212	3.888	0.502
1124.000	647.215	80.007	19.994	103.176	20.210	3.982	0.502
1126.000	648.209	80.005	19.994	103.173	20.211	3.970	0.497
1128.000	649.221	80.007	19.995	103.182	20.211	3.926	0.476
1130.001	650.212	80.006	19.994	103.177	20.208	4.156	0.503
1132.000	651.236	80.007	19.995	103.175	20.211	3.946	0.526
1134.000	652.247	80.006	19.995	103.176	20.211	3.954	0.501
1136.000	653.201	80.007	19.995	103.174	20.211	3.918	0.481
1138.000	654.122	80.008	19.995	103.172	20.210	4.042	0.459
1140.000	655.156	80.008	19.996	103.179	20.211	3.956	0.484
1142.000	656.149	80.007	19.996	103.172	20.213	3.805	0.477
1144.000	657.116	80.008	19.995	103.173	20.213	3.777	0.441
1146.001	658.030	80.008	19.995	103.171	20.218	3.397	0.481
1148.001	659.109	80.006	19.995	103.173	20.216	3.585	0.605
1150.000	660.122	80.006	19.995	103.174	20.217	3.501	0.499
1152.000	661.138	80.007	19.995	103.171	20.215	3.647	0.498
1154.000	662.166	80.007	19.996	103.171	20.213	3.801	0.540
1156.000	663.135	80.009	19.996	103.170	20.212	3.845	0.507
1158.000	664.157	80.008	19.995	103.179	20.214	3.757	0.527
1160.001	665.177	80.010	19.995	103.178	20.210	3.984	0.508
1162.000	666.245	80.010	19.996	103.173	20.213	3.759	0.510
1164.000	667.267	80.007	19.997	103.174	20.213	3.827	0.513
1166.000	668.269	80.009	19.996	103.170	20.212	3.893	0.480
1168.002	669.310	80.007	19.996	103.167	20.213	3.821	0.533
1170.000	670.332	80.007	19.996	103.167	20.215	3.665	0.500
1172.000	671.402	80.007	19.996	103.167	20.216	3.599	0.537
1174.000	672.476	80.005	19.996	103.168	20.216	3.611	0.500
1176.000	673.523	80.006	19.996	103.168	20.217	3.527	0.514
1178.000	674.572	80.006	19.995	103.169	20.212	3.837	0.515
1180.000	675.668	80.006	19.996	103.169	20.214	3.691	0.519
1182.000	676.694	80.006	19.995	103.173	20.219	3.338	0.541
1184.000	677.784	80.007	19.996	103.169	20.219	3.391	0.548
1186.000	678.874	80.006	19.996	103.169	20.219	3.361	0.560
1188.000	679.884	80.008	19.995	103.171	20.217	3.531	0.527
1190.000	680.971	80.006	19.995	103.172	20.216	3.549	0.537
1192.000	681.852	80.007	19.996	103.163	20.216	3.609	0.471
1194.000	683.033	80.006	19.994	103.170	20.220	3.304	0.536
1196.000	684.053	80.006	19.995	103.173	20.218	3.417	0.513
1198.001	685.121	80.023	19.998	103.173	20.221	3.224	0.522
1200.000	686.142	80.007	19.996	103.172	20.217	3.527	0.535
1202.000	687.206	80.006	19.995	103.170	20.216	3.593	0.542
1204.000	688.202	80.006	19.995	103.165	20.215	3.613	0.523
1206.000	689.244	80.005	19.995	103.170	20.220	3.296	0.522
1208.001	690.260	80.006	19.994	103.175	20.221	3.214	0.491
1210.000	691.245	80.005	19.995	103.171	20.221	3.192	0.479
1212.000	692.279	80.005	19.995	103.169	20.218	3.404	0.529
1214.000	693.294	80.007	19.995	103.175	20.220	3.256	0.488
1216.000	694.308	80.006	19.995	103.171	20.217	3.487	0.542
1218.000	695.319	80.007	19.994	103.169	20.221	3.218	0.513
1220.001	696.337	80.009	19.995	103.172	20.220	3.284	0.536
1222.001	697.382	80.008	19.994	103.165	20.221	3.176	0.523
1224.001	698.409	80.009	19.995	103.165	20.218	3.416	0.505
1226.001	699.430	80.008	19.995	103.167	20.215	3.659	0.505
1228.000	700.392	80.007	19.995	103.169	20.215	3.635	0.506
1230.000	701.436	80.008	19.994	103.166	20.217	3.505	0.525
1232.000	702.448	80.007	19.994	103.163	20.222	3.122	0.508
1234.001	703.403	80.007	19.996	103.167	20.219	3.336	0.478
1236.001	704.435	80.008	19.996	103.165	20.220	3.280	0.498
1238.001	705.397	80.007	19.997	103.167	20.220	3.280	0.526
1240.001	706.369	80.009	19.996	103.168	20.224	3.028	0.477
1242.000	707.376	80.009	19.996	103.167	20.219	3.332	0.500
1244.000	708.379	80.008	19.995	103.164	20.219	3.332	0.488
1246.000	709.403	80.009	19.996	103.164	20.218	3.452	0.507
1248.000	710.390	80.008	19.995	103.168	20.218	3.433	0.461
1250.000	711.381	80.009	19.996	103.168	20.217	3.505	0.499
1252.000	712.376	80.009	19.996	103.168	20.216	3.605	0.496
1254.001	713.390	80.008	19.995	103.166	20.218	3.394	0.506
1256.000	714.391	80.006	19.996	103.163	20.217	3.515	0.483
1258.000	715.370	80.005	19.998	103.171	20.219	3.350	0.508
1260.001	716.391	80.005	19.998	103.172	20.220	3.272	0.527
1262.000	717.430	80.005	19.997	103.173	20.217	3.477	0.510
1264.001	718.496	80.006	19.996	103.171	20.220	3.314	0.539
1266.000	719.500	80.005	19.996	103.169	20.221	3.224	0.508
1268.001	720.484	80.006	19.996	103.167	20.217	3.520	0.502
1270.000	721.498	80.005	19.996	103.166	20.218	3.401	0.518
1272.001	722.501	80.006	19.996	103.167	20.214	3.689	0.518
1274.000	723.514	80.006	19.996	103.171	20.215	3.682	0.497
1276.000	724.531	80.006	19.995	103.169	20.217	3.526	0.498
1278.000	725.561	80.006	19.995	103.162	20.215	3.629	0.548
1280.000	726.580	80.006	19.995	103.172	20.216	3.601	0.505
1282.000	727.598	80.006	19.995	103.168	20.216	3.583	0.518
1284.001	728.573	80.006	19.995	103.151	20.216	3.563	0.519
1286.000	729.593	80.006	19.996	103.163	20.217	3.490	0.509
1288.001	730.585	80.006	19.995	103.163	20.215	3.630	0.507
1290.000	731.624	80.005	19.994	103.166	20.218	3.438	0.514
1292.000	732.598	80.005	19.995	103.172	20.217	3.515	0.476
1294.000	733.642	80.006	19.996	103.171	20.217	3.472	0.497
1296.000	734.629	80.008	19.995	103.166	20.216	3.600	0.504
1298.000	735.623	80.007	19.997	103.164	20.217	3.518	0.480
1300.000	736.632	80.008	19.996	103.149	20.214	3.703	0.496
1302.000	737.591	80.008	19.996	103.166	20.214	3.727	0.490
1304.000	738.618	80.010	19.995	103.169	20.216	3.552	0.499
1306.000	739.631	80.009	19.996	103.155	20.217	3.516	0.493
1308.001	740.631	80.009	19.996	103.158	20.218	3.402	0.487
1310.001	741.645	80.008	19.994	103.163	20.215	3.683	0.512
1312.000	742.631	80.009	19.995	103.160	20.213	3.805	0.477
1314.000	743.638	80.007	19.994	103.164	20.214	3.685	0.496