File: 01_Data/LDPE/Cone/LDPE_Cone_HF75Scan_220202_R1.csv
Names,Time,Stack TC,Smoke TC,Exh Press,Smoke Comp,Smoke Meas,CO Meter,CO2 Meter,O2 Meter,Sample Mass,Ext Coeff,Start Test,Flame Verif
Chan Gain,,500,500,1,1,1,1,1,1,1,1,1.0,1.0
Offset,,0,0,0.14021,0,0,0,0,0,0,0,0.0,0.0
Gain,,1,1,25.011,13.3046,13.3037,1,1,1,1.00087,1.10262,1.0,1.0
Units,sec,C,C,Pa,%,%,%,%,%,g,/m,,
Baseline,,28.6401,31.9155,138.912,100.505,105.441,0.00453622,0.106403,20.8961,-1.59502,-0.463682,,
2,0.25,26.3121,28.0265,139.877,100.584,106.273,0.00471278,0.11496,20.8892,896.292,-0.532105,0.0,0.0
4,0.75,25.9758,28.2133,136.605,100.597,105.295,0.0047116,0.114776,20.8894,896.282,-0.44143,0.0,0.0
6,1.25,25.9204,28.8452,137.985,100.617,104.456,0.00471065,0.114698,20.8895,896.202,-0.362163,0.0,0.0
8,1.75,26.028,28.6003,136.623,100.609,105.753,0.00470245,0.114496,20.8902,896.282,-0.482235,0.0,0.0
10,2.25,26.2499,29.261,137.123,100.603,105.589,0.00469189,0.114318,20.8908,896.242,-0.467848,0.0,0.0
12,2.75,26.3615,29.3452,135.49,100.617,105.623,0.00467981,0.11416,20.8913,896.182,-0.469642,0.0,0.0
14,3.25,26.6885,28.9646,135.783,100.618,105.786,0.00467003,0.114033,20.8917,896.252,-0.484384,0.0,0.0
16,3.75,27.1823,29.1974,143.648,100.623,106.142,0.00466211,0.113879,20.8921,908.102,-0.516492,0.0,0.0
18,4.25,26.6576,29.0239,134.406,100.611,106.045,0.00465817,0.113709,20.8923,921.454,-0.508702,0.0,0.0
20,4.75,26.9141,29.5627,137.812,100.617,105.642,0.00465629,0.113571,20.8925,933.284,-0.471352,0.0,0.0
22,5.25,27.3637,29.8218,134.846,100.612,105.52,0.0046561,0.113474,20.8926,940.29,-0.460625,0.0,0.0
24,5.75,27.1865,29.3263,137.919,100.625,105.458,0.00465578,0.113394,20.8928,945.905,-0.45368,0.0,0.0
26,6.25,27.5413,29.5513,134.216,100.608,105.758,0.00465683,0.113294,20.8929,950.249,-0.482875,0.0,0.0
28,6.75,27.0616,29.7277,141.059,100.615,105.527,0.00465885,0.113181,20.8934,953.752,-0.461061,0.0,0.0
30,7.25,27.3229,29.8487,139.756,100.618,104.705,0.00466049,0.113089,20.8939,956.705,-0.385177,0.0,0.0
32,7.75,27.0326,29.1786,137.388,100.622,105.421,0.00466181,0.112973,20.8942,959.477,-0.450643,0.0,0.0
34,8.25,27.28,30.0822,137.156,100.624,105.05,0.00466223,0.112924,20.8945,961.779,-0.416303,0.0,0.0
36,8.75,28.0427,29.7075,141.164,100.637,105.087,0.00466199,0.112811,20.8947,963.33,-0.418491,0.0,0.0
38,9.25,27.9104,30.3433,141.606,100.629,105.016,0.00465683,0.112693,20.8949,962.39,-0.412731,0.0,0.0
40,9.75,27.2886,29.9644,136.747,100.637,105.214,0.00465266,0.112555,20.8951,963.801,-0.430258,0.0,0.0
42,10.25,27.4725,29.6869,139.674,100.628,104.915,0.00464928,0.112403,20.8952,965.953,-0.403571,0.0,0.0
44,10.75,27.2786,29.8541,136.824,100.644,105.129,0.00463663,0.112267,20.8953,967.334,-0.421639,0.0,0.0
46,11.25,27.8182,30.0333,134.8,100.64,106.076,0.00462638,0.112143,20.8954,968.655,-0.508783,0.0,0.0
48,11.75,27.9932,30.3417,134.731,100.639,105.949,0.00461874,0.112021,20.8955,969.366,-0.497344,0.0,0.0
50,12.25,28.492,30.6411,136.815,100.633,105.636,0.00461313,0.111903,20.8955,969.946,-0.46931,0.0,0.0
52,12.75,27.3299,30.4626,138.561,100.615,105.54,0.00461771,0.111807,20.8955,969.856,-0.462175,0.0,0.0
54,13.25,27.8105,30.575,137.692,100.601,105.634,0.00462965,0.111661,20.8951,970.256,-0.472209,0.0,0.0
56,13.75,27.9253,30.5199,138.996,100.607,106.032,0.00465431,0.111543,20.8948,970.327,-0.507985,0.0,0.0
58,14.25,28.1769,30.1988,139.839,100.618,105.406,0.0046878,0.111455,20.8941,969.786,-0.449692,0.0,0.0
60,14.75,27.8606,30.3941,137.421,100.606,105.369,0.00472602,0.111389,20.8936,969.316,-0.447434,0.0,0.0
62,15.25,27.8829,30.6671,136.241,100.59,105.046,0.00476697,0.111373,20.8931,968.045,-0.419282,0.0,0.0
64,15.75,28.275,30.6181,137.093,100.592,105.869,0.00480014,0.111391,20.8927,966.293,-0.49453,0.0,0.0
66,16.25,27.4255,30.9943,137.524,100.567,105.871,0.00485183,0.111407,20.8922,963.371,-0.497095,0.0,0.0
68,16.75,28.1137,30.6526,140.25,100.566,105.953,0.0048937,0.111542,20.8916,959.917,-0.5047,0.0,0.0
70,17.25,28.4154,30.9389,139.198,100.537,106.069,0.00493742,0.111652,20.891,956.064,-0.518106,0.0,0.0
72,17.75,28.4593,30.6173,137.048,100.55,105.273,0.00498166,0.111823,20.8897,952.351,-0.443948,0.0,0.0
74,18.25,28.0934,30.9852,139.726,100.508,105.376,0.00501749,0.111961,20.8887,947.427,-0.457516,0.0,0.0
76,18.75,28.4501,30.4523,139.148,100.508,105.08,0.00507013,0.112197,20.8878,939.089,-0.430274,0.0,0.0
78,19.25,27.8951,30.7658,141.525,100.489,104.043,0.00511276,0.112388,20.8872,928.49,-0.336155,0.0,0.0
80,19.75,28.4915,31.0051,136.131,100.462,105.18,0.00518709,0.112665,20.8864,921.774,-0.443919,0.0,0.0
82,20.25,28.1143,31.514,136.263,100.441,105.34,0.0052473,0.113,20.8855,916.51,-0.460534,0.0,0.0
84,20.75,28.2136,30.6377,134.474,100.444,105.005,0.00527296,0.113271,20.8852,911.986,-0.429532,0.0,0.0
86,21.25,28.5369,31.0026,137.517,100.405,104.868,0.00537165,0.114053,20.8819,907.832,-0.420601,0.0,0.0
88,21.75,27.6519,31.0606,133.901,100.394,104.483,0.00547258,0.114686,20.8793,903.979,-0.38613,0.0,0.0
90,22.25,28.2865,31.3886,137.356,100.365,104.788,0.00557323,0.116024,20.8756,900.466,-0.417171,0.0,0.0
92,22.75,28.3947,31.0408,136.709,100.356,103.064,0.00566133,0.117108,20.8711,897.423,-0.257516,0.0,0.0
94,23.25,28.3033,31.4122,137.182,100.305,104.294,0.0057386,0.119033,20.8675,894.841,-0.37725,0.0,0.0
96,23.75,28.4474,31.1501,136.195,100.305,104.992,0.00580118,0.119853,20.8629,895.191,-0.441755,0.0,0.0
98,24.25,28.9953,31.5953,133.236,100.265,104.712,0.00585188,0.121257,20.8578,891.668,-0.419753,0.0,0.0
100,24.75,28.9558,32.0644,137.237,100.254,103.837,0.00589294,0.123915,20.8537,889.266,-0.339655,0.0,0.0
102,25.25,28.6661,31.6842,131.74,100.229,102.981,0.0058727,0.126067,20.8485,887.414,-0.261996,0.0,0.0
104,25.75,28.6077,31.2815,131.894,100.216,103.394,0.00585629,0.129437,20.8428,885.563,-0.301914,0.0,0.0
106,26.25,29.3547,32.5291,132.621,100.175,103.809,0.00579942,0.132166,20.8381,884.672,-0.344688,0.0,0.0
108,26.75,28.884,32.0654,135.701,100.157,103.899,0.00575335,0.134377,20.8305,885.022,-0.35473,0.0,0.0
110,27.25,29.4239,33.2383,133.866,100.12,103.904,0.00571604,0.137847,20.8244,885.683,-0.358828,0.0,1.0
112,27.75,29.9717,32.7147,135.628,100.1,104.131,0.00565098,0.142169,20.8146,886.473,-0.381892,0.0,1.0
114,28.25,29.09,32.6671,133.916,100.058,102.967,0.00559893,0.14567,20.8067,887.084,-0.27721,0.0,1.0
116,28.75,29.5435,33.6252,126.225,100.036,102.553,0.00555736,0.150195,20.7948,887.534,-0.240351,0.0,1.0
118,29.25,30.5174,34.2396,129.824,100.013,102.519,0.00554268,0.15538,20.7802,887.965,-0.239374,0.0,1.0
120,29.75,30.3097,33.8763,128.01,99.9813,103.569,0.00554789,0.161113,20.7609,888.405,-0.340984,0.0,1.0
122,30.25,30.9405,34.635,124.721,99.944,100.98,0.00558751,0.167136,20.7453,889.696,-0.0997017,0.0,1.0
124,30.75,31.2359,35.5577,131.027,99.9176,100.996,0.00565147,0.172014,20.7252,891.157,-0.103812,0.0,1.0
126,31.25,30.9565,35.6339,129.03,99.8892,98.0227,0.00570328,0.17905,20.709,893.98,0.182439,0.0,1.0
128,31.75,31.8805,35.5755,129.001,99.8648,98.6304,0.00581362,0.184749,20.6958,895.211,0.120294,0.0,1.0
130,32.25,30.8886,35.4725,129.061,99.8246,97.0771,0.00596454,0.192615,20.6777,895.471,0.269939,0.0,1.0
132,32.75,31.3718,35.655,124.788,99.8019,96.7572,0.0061402,0.198986,20.663,895.561,0.299663,0.0,0.0
134,33.25,32.2527,36.693,126.041,99.7779,96.2676,0.00633056,0.207788,20.6424,895.661,0.34641,0.0,0.0
136,33.75,32.6726,36.7509,124.602,99.7454,95.2522,0.00652772,0.214918,20.6257,895.701,0.445821,0.0,0.0
138,34.25,33.1177,37.042,126.433,99.7166,95.1596,0.00672609,0.225617,20.6026,895.711,0.452429,0.0,0.0
140,34.75,33.322,38.2326,128.802,99.6906,93.9416,0.00692984,0.234284,20.5839,895.742,0.574505,0.0,0.0
142,35.25,33.8792,39.0668,119.679,99.6553,91.9372,0.00713363,0.241304,20.5602,895.651,0.77968,0.0,0.0
144,35.75,34.3415,39.3392,119.126,99.6232,91.748,0.0072987,0.253251,20.5333,895.701,0.796491,0.0,0.0
146,36.25,33.8058,39.0579,115.115,99.6013,90.8349,0.00754712,0.262929,20.5052,895.651,0.891102,0.0,0.0
148,36.75,34.1259,39.9151,126.852,99.5725,91.4642,0.00774834,0.275677,20.4765,895.651,0.821526,0.0,0.0
150,37.25,35.2494,41.3137,121.778,99.5335,89.6409,0.0079853,0.288651,20.4534,895.631,1.0125,0.0,0.0
152,37.75,36.057,42.0939,112.299,99.5083,88.5589,0.00824382,0.301544,20.4248,895.521,1.12751,0.0,0.0
154,38.25,37.1949,43.2096,121.625,99.4904,87.8675,0.00845321,0.311987,20.4017,895.511,1.20158,0.0,0.0
156,38.75,37.3006,43.6324,120.512,99.4592,87.4047,0.00870376,0.326782,20.3758,895.501,1.24962,0.0,0.0
158,39.25,37.6874,44.6557,118.065,99.4377,88.1671,0.00897956,0.338766,20.3485,895.481,1.16352,0.0,0.0
160,39.75,38.3631,45.2109,116.83,99.4234,87.8322,0.00925329,0.351571,20.3263,895.371,1.19895,0.0,0.0
162,40.25,38.6124,45.857,112.261,99.3796,85.2346,0.00952031,0.364732,20.2948,895.351,1.48504,0.0,0.0
164,40.75,39.4673,46.5418,113.195,99.3759,84.9987,0.00979109,0.375392,20.2693,895.311,1.51149,0.0,0.0
166,41.25,40.0267,47.9393,112.565,99.3532,85.7036,0.0100595,0.393179,20.2325,895.331,1.42941,0.0,0.0
168,41.75,40.9683,48.7518,112.113,99.3301,84.2728,0.0103322,0.407587,20.2026,895.261,1.58999,0.0,0.0
170,42.25,41.1395,50.1693,109.079,99.3167,84.4714,0.0106029,0.4233,20.1632,895.231,1.56592,0.0,0.0
172,42.75,42.3852,50.8333,113.293,99.2976,83.2095,0.0108891,0.439665,20.1312,895.151,1.70964,0.0,0.0
174,43.25,43.167,52.2732,109.467,99.272,84.1437,0.0111812,0.452921,20.0922,895.091,1.59916,0.0,0.0
176,43.75,43.8524,52.873,106.596,99.2598,82.5591,0.0114966,0.470057,20.0607,895.091,1.78185,0.0,0.0
178,44.25,44.4194,54.1428,111.611,99.2562,81.4207,0.011823,0.483937,20.0202,894.981,1.9158,0.0,0.0
180,44.75,44.5447,54.9286,116.238,99.2334,81.4215,0.0120873,0.502155,19.9875,894.981,1.91348,0.0,0.0
182,45.25,45.5171,55.9835,111.273,99.2355,81.7561,0.0124524,0.516912,19.9609,894.921,1.87402,0.0,0.0
184,45.75,46.4381,56.9185,106.905,99.2135,82.5551,0.0128838,0.536319,19.9233,894.861,1.77782,0.0,0.0
186,46.25,47.2942,58.0182,107.769,99.2038,76.7363,0.0133778,0.552038,19.8928,894.781,2.4838,0.0,0.0
188,46.75,47.9085,59.4848,110.782,99.1908,77.8041,0.0139079,0.572733,19.8681,894.711,2.34888,0.0,0.0
190,47.25,48.2659,60.9758,97.7531,99.1944,76.3031,0.0143373,0.589496,19.8382,894.681,2.53765,0.0,0.0
192,47.75,50.0219,61.9083,101.917,99.181,76.5305,0.0146851,0.613828,19.8051,894.601,2.50757,0.0,0.0
194,48.25,51.0318,63.0223,99.5819,99.1843,76.321,0.0151852,0.633536,19.7704,894.54,2.5344,0.0,0.0
196,48.75,51.977,64.4694,104.59,99.1762,75.3807,0.0157869,0.6495,19.7351,894.45,2.65351,0.0,0.0
198,49.25,52.4495,66.0078,110.794,99.188,73.6297,0.0164029,0.678691,19.7066,894.37,2.88198,0.0,0.0
200,49.75,53.653,68.3066,102.058,99.1693,73.4701,0.0170177,0.702336,19.6476,894.32,2.90114,0.0,0.0
202,50.25,55.4521,69.1625,93.0345,99.1782,73.732,0.0176591,0.721488,19.5817,894.21,2.8676,0.0,0.0
204,50.75,56.3251,71.5431,87.7573,99.175,74.4973,0.0183078,0.756094,19.5119,894.1,2.76741,0.0,0.0
206,51.25,57.7892,72.8169,90.9577,99.1794,73.6053,0.018982,0.784124,19.4353,894.05,2.88435,0.0,0.0
208,51.75,59.0637,74.9353,101.692,99.1802,74.3227,0.019662,0.814892,19.3552,893.96,2.79062,0.0,0.0
210,52.25,60.1556,76.9017,85.3262,99.2046,72.3902,0.0202127,0.847071,19.2904,893.86,3.04782,0.0,0.0
212,52.75,61.3403,78.2407,81.1435,99.1981,72.4011,0.0210699,0.881337,19.2215,893.72,3.04572,0.0,0.0
214,53.25,62.3875,80.8845,104.684,99.2111,71.7601,0.0217642,0.916474,19.151,893.75,3.13301,0.0,0.0
216,53.75,63.8364,82.51,107.568,99.2127,70.1949,0.0226469,0.953595,19.0759,893.58,3.34645,0.0,0.0
218,54.25,65.6335,85.1213,97.0165,99.2298,71.1494,0.0233618,0.991458,18.999,893.399,3.21748,0.0,0.0
220,54.75,66.6496,87.4242,79.5917,99.2432,71.2574,0.0241611,1.02213,18.9366,893.309,3.20412,0.0,0.0
222,55.25,68.7535,89.8678,97.5776,99.2692,70.8226,0.0250067,1.06758,18.8507,893.259,3.26585,0.0,0.0
224,55.75,69.7783,91.6369,106.038,99.2801,68.9092,0.0258903,1.1044,18.7811,893.109,3.53183,0.0,0.0
226,56.25,71.488,94.2261,83.7783,99.3029,69.3899,0.0267849,1.14613,18.677,893.019,3.46681,0.0,0.0
228,56.75,73.1125,96.4407,86.5208,99.3163,68.3931,0.0277614,1.19063,18.5927,892.949,3.60805,0.0,0.0
230,57.25,75.1639,99.3667,89.1769,99.3264,68.357,0.0287789,1.23734,18.4859,892.809,3.61415,0.0,0.0
232,57.75,76.9472,101.749,80.7855,99.3524,66.2369,0.029857,1.28477,18.3994,892.639,3.92141,0.0,0.0
234,58.25,78.0088,104.407,80.0436,99.3792,65.0875,0.0309588,1.33454,18.2909,892.579,4.09333,0.0,0.0
236,58.75,79.3034,107.618,75.9692,99.3897,64.481,0.0318512,1.38506,18.2029,892.369,4.18491,0.0,0.0
238,59.25,81.2427,109.99,81.9953,99.4186,65.3754,0.0325741,1.43731,18.0932,892.389,4.05448,0.0,0.0
240,59.75,83.4675,112.055,85.8994,99.4283,64.6385,0.0345875,1.48982,18.0043,892.228,4.16507,0.0,0.0
242,60.25,84.9124,115.288,74.7625,99.4649,64.332,0.0351291,1.53236,17.9042,892.068,4.2146,0.0,0.0
244,60.75,86.53,118.358,68.8899,99.4746,65.5719,0.0363044,1.59429,17.7979,891.898,4.0309,0.0,0.0
246,61.25,88.7999,120.675,78.8514,99.5156,66.7809,0.0382346,1.64445,17.6885,891.818,3.85817,0.0,0.0
248,61.75,90.6773,123.574,69.6226,99.531,67.1768,0.0389132,1.7038,17.5789,891.638,3.80251,0.0,0.0
250,62.25,92.2709,126.488,84.5919,99.5635,65.8098,0.0400736,1.76871,17.4699,891.468,4.00452,0.0,0.0
252,62.75,94.2261,130.445,71.0102,99.5838,65.7355,0.0413419,1.85956,17.3634,891.398,4.01741,0.0,0.0
254,63.25,96.8602,133.397,72.3712,99.6131,65.7477,0.0426646,1.89399,17.2504,891.208,4.01846,0.0,0.0
256,63.75,98.7671,136.92,86.117,99.6382,65.3145,0.0441133,1.95287,17.1348,891.137,4.08484,0.0,0.0
258,64.25,100.419,140.561,64.8911,99.6809,67.6831,0.0456262,2.03143,17.0064,890.797,3.74444,0.0,0.0
260,64.75,102.753,143.486,78.3911,99.6975,64.766,0.0475876,2.09506,16.8712,890.727,4.17216,0.0,0.0
262,65.25,104.905,146.694,74.8655,99.7531,61.4283,0.0491764,2.18085,16.7616,890.557,4.68931,0.0,0.0
264,65.75,107.153,150.315,59.4535,99.7629,64.8078,0.0504633,2.25035,16.6019,890.427,4.17226,0.0,0.0
266,66.25,108.586,154.312,64.0736,99.8039,63.088,0.0526049,2.34577,16.4726,890.337,4.43637,0.0,0.0
268,66.75,111.549,158.138,64.082,99.8295,62.2281,0.0543396,2.42307,16.3304,889.996,4.57159,0.0,0.0
270,67.25,113.882,162.124,60.116,99.8603,66.254,0.0561589,2.52633,16.1813,889.826,3.96825,0.0,0.0
272,67.75,116.052,166.304,63.9774,99.8928,62.9228,0.0580053,2.60998,16.0606,889.796,4.47035,0.0,0.0
274,68.25,118.2,170.246,82.725,99.922,64.6174,0.0587924,2.70734,15.9707,889.526,4.21614,0.0,0.0
276,68.75,120.7,174.335,66.526,99.9586,64.7315,0.0614899,2.81285,15.7514,889.306,4.20261,0.0,0.0
278,69.25,122.751,178.562,68.7693,99.9801,63.1875,0.0622155,2.89831,15.6924,889.106,4.43819,0.0,0.0
280,69.75,126.11,182.954,61.3472,100.028,67.4054,0.0634563,3.03101,15.5372,889.076,3.81787,0.0,0.0
282,70.25,128.315,188.277,67.0725,100.047,64.4919,0.0653866,3.1385,15.3626,888.695,4.24699,0.0,0.0
284,70.75,131.279,192.194,71.459,100.095,65.8159,0.065984,3.25735,15.1737,888.495,4.05511,0.0,0.0
286,71.25,132.858,197.188,67.4083,100.116,66.9973,0.0670685,3.32309,14.978,888.385,3.88503,0.0,0.0
288,71.75,135.68,200.822,77.4668,100.154,69.139,0.0680036,3.51204,14.8194,888.085,3.58442,0.0,0.0
290,72.25,138.826,205.966,53.9457,100.179,65.554,0.0688127,3.58094,14.6095,887.835,4.10183,0.0,0.0
292,72.75,141.2,210.524,50.4659,100.22,68.5356,0.0695146,3.69876,14.4394,887.795,3.67558,0.0,0.0
294,73.25,143.382,215.535,60.6877,100.243,74.3081,0.0700831,3.7942,14.1947,887.444,2.89563,0.0,0.0
296,73.75,145.857,219.997,79.3223,100.282,67.8467,0.0706871,3.95598,13.9965,887.154,3.77922,0.0,0.0
298,74.25,148.326,224.689,62.9065,100.305,72.4133,0.0713053,4.08702,13.7646,887.064,3.15141,0.0,0.0
300,74.75,151.417,229.074,77.0859,100.342,68.7764,0.0719582,4.22869,13.5126,886.744,3.65337,0.0,0.0
302,75.25,153.358,235.104,43.9369,100.38,69.3586,0.0726241,4.37541,13.2628,886.614,3.57556,0.0,0.0
304,75.75,156.56,239.644,46.9747,100.408,79.0712,0.0732808,4.49426,13.0194,886.393,2.31064,0.0,0.0
306,76.25,158.756,244.989,38.9618,100.438,69.1901,0.0739185,4.65309,12.7859,886.093,3.60464,0.0,0.0
308,76.75,161.893,251.148,50.9819,100.495,66.755,0.0745316,4.78174,12.5642,885.833,3.95669,0.0,0.0
310,77.25,164.742,256.078,43.5537,100.494,68.0574,0.0750283,4.93903,12.3847,885.583,3.76965,0.0,0.0
312,77.75,166.952,260.453,55.0731,100.541,66.2889,0.0753985,5.06643,12.1783,885.412,4.02888,0.0,0.0
314,78.25,169.351,264.614,65.7184,100.56,75.4855,0.0756693,5.21205,12.0111,884.952,2.77413,0.0,0.0
316,78.75,171.452,268.869,50.6544,100.588,71.2591,0.0758888,5.32999,11.82,884.812,3.33411,0.0,0.0
318,79.25,174.429,273.517,46.5251,100.62,79.5946,0.0759277,5.46698,11.6652,884.562,2.26715,0.0,0.0
320,79.75,176.147,278.499,54.2197,100.646,72.0142,0.0759592,5.57794,11.5119,884.412,3.23773,0.0,0.0
322,80.25,179.433,283.4,57.2934,100.665,73.8777,0.0759847,5.7069,11.3626,884.021,2.99247,0.0,0.0
324,80.75,181.351,288.042,48.1166,100.709,68.1171,0.0755646,5.81135,11.2417,883.891,3.78186,0.0,0.0
326,81.25,184.299,292.244,49.3126,100.723,75.6369,0.0752242,5.92092,11.0924,883.681,2.77039,0.0,0.0
328,81.75,186.863,296.694,48.3211,100.752,67.3144,0.0745532,6.03213,10.9715,883.451,3.9006,0.0,0.0
330,82.25,188.533,301.393,58.3735,100.769,72.8607,0.0740097,6.12222,10.807,883.19,3.13648,0.0,0.0
332,82.75,190.746,304.824,73.1054,100.806,72.2062,0.073151,6.25718,10.6737,882.95,3.2273,0.0,0.0
334,83.25,192.618,308.661,35.2035,100.829,85.9646,0.0722406,6.3665,10.4521,882.54,1.54262,0.0,0.0
336,83.75,195.653,312.731,50.8911,100.846,75.587,0.0713098,6.45505,10.2727,882.24,2.78855,0.0,0.0
338,84.25,197.41,318.648,77.2844,100.863,71.5217,0.0705558,6.59341,10.0817,882.1,3.32492,0.0,0.0
340,84.75,200.525,323.006,51.6108,100.898,82.2286,0.069542,6.72995,9.88579,881.769,1.97899,0.0,0.0
342,85.25,203.023,327.144,37.6971,100.899,75.4575,0.0687208,6.86258,9.70015,881.589,2.81023,0.0,0.0
344,85.75,206.299,332.331,59.3497,100.927,72.2294,0.0677459,6.99112,9.52547,881.269,3.23584,0.0,0.0
346,86.25,208.412,336.585,58.9306,100.938,77.4188,0.0669562,7.11424,9.38399,881.029,2.56577,0.0,0.0
348,86.75,210.507,340.672,36.1255,100.969,86.3308,0.0663166,7.23278,9.22905,880.758,1.51493,0.0,0.0
350,87.25,213.169,344.387,52.8328,100.968,81.5892,0.0655563,7.34571,9.10355,880.528,2.06119,0.0,0.0
352,87.75,215.791,349.069,48.8531,100.997,75.4834,0.0649405,7.43719,8.95148,880.288,2.81628,0.0,0.0
354,88.25,217.451,353.101,52.7038,101.014,84.1835,0.0644849,7.55209,8.82829,879.898,1.76286,0.0,0.0
356,88.75,219.664,356.413,72.2269,101.035,81.1686,0.0641158,7.64515,8.71352,879.597,2.11763,0.0,0.0
358,89.25,222.395,360.835,46.3671,101.053,76.6369,0.0639858,7.7402,8.60705,879.257,2.67497,0.0,0.0
360,89.75,224.391,364.408,31.9489,101.062,81.5283,0.0640325,7.83487,8.52081,879.147,2.07739,0.0,0.0
362,90.25,225.309,367.814,70.579,101.065,77.8224,0.0643391,7.91156,8.45084,878.877,2.5277,0.0,0.0
364,90.75,227.7,370.91,51.1368,101.095,78.0461,0.0648293,7.98925,8.39416,878.587,2.50273,0.0,0.0
366,91.25,230.237,374.55,65.9337,101.093,74.4973,0.0652263,8.05218,8.34826,878.236,2.95265,0.0,0.0
368,91.75,231.469,378.235,73.5435,101.13,68.3529,0.0660723,8.08581,8.31107,877.996,3.78877,0.0,0.0
370,92.25,233.365,380.27,67.7793,101.112,69.763,0.0667575,8.11306,8.28095,877.836,3.58957,0.0,0.0
372,92.75,235.216,381.864,51.062,101.138,69.7037,0.0673126,8.11887,8.34468,877.396,3.60032,0.0,0.0
374,93.25,236.307,382.513,62.0143,101.136,68.4711,0.0685179,8.10895,8.3963,877.335,3.77261,0.0,0.0
376,93.75,236.431,383.907,64.4926,101.155,70.1231,0.0694942,8.08565,8.46949,877.135,3.54389,0.0,0.0
378,94.25,236.99,384.162,62.2975,101.163,73.7198,0.070285,8.05305,8.55703,876.775,3.06088,0.0,0.0
380,94.75,237.653,384.625,39.906,101.19,75.1083,0.0715321,8.01081,8.62793,876.595,2.883,0.0,0.0
382,95.25,240.643,386.336,67.1076,101.174,66.6413,0.0725422,7.96235,8.71101,876.445,4.03826,0.0,0.0
384,95.75,241.036,388.086,69.7386,101.19,68.1366,0.0736649,7.9231,8.80137,876.174,3.82515,0.0,0.0
386,96.25,241.857,388.568,67.1351,101.184,65.591,0.0746453,7.8913,8.87456,875.984,4.19292,0.0,0.0
388,96.75,242.089,388.642,53.448,101.197,70.5636,0.0755033,7.84607,8.98563,875.614,3.48728,0.0,0.0
390,97.25,242.674,389.208,60.7526,101.203,70.4186,0.0762434,7.79192,9.0756,875.484,3.50775,0.0,0.0
392,97.75,243.586,389.935,55.3532,101.211,69.4613,0.0768835,7.74805,9.15111,875.133,3.64092,0.0,0.0
394,98.25,244.105,391.871,42.7492,101.218,72.0767,0.0774461,7.69825,9.21227,874.893,3.28416,0.0,0.0
396,98.75,245.688,393.324,53.4893,101.23,62.3942,0.0779417,7.65585,9.26182,874.693,4.68058,0.0,0.0
398,99.25,245.936,393.843,53.8663,101.223,66.1565,0.0783431,7.61965,9.30194,874.333,4.11361,0.0,0.0
400,99.75,246.762,394.113,39.4961,101.228,74.0072,0.0788541,7.59187,9.33445,874.243,3.02941,0.0,0.0
402,100.25,247.574,395.19,45.0024,101.224,73.5306,0.0792679,7.57074,9.36077,874.043,3.09155,0.0,0.0
404,100.75,249.239,396.255,72.3841,101.242,67.0655,0.0796032,7.55573,9.3821,873.592,3.98336,0.0,0.0
406,101.25,250.225,397.433,52.0795,101.235,72.4101,0.0801114,7.54548,9.39406,873.432,3.24109,0.0,0.0
408,101.75,250.275,398.434,59.9885,101.231,67.2405,0.0805231,7.53881,9.39897,873.282,3.95718,0.0,0.0
410,102.25,251.609,398.83,53.6358,101.227,65.8723,0.0809102,7.53487,9.4011,872.922,4.15559,0.0,0.0
412,102.75,252.393,399.888,42.0478,101.232,71.2144,0.0812238,7.53169,9.40116,872.751,3.40186,0.0,0.0
414,103.25,253.451,400.122,72.1322,101.229,64.7197,0.0814788,7.53495,9.4012,872.451,4.32657,0.0,0.0
416,103.75,253.934,401.341,64.1415,101.248,70.0683,0.0816861,7.54285,9.38105,872.201,3.56034,0.0,0.0
418,104.25,254.246,402.394,45.5978,101.225,80.1499,0.0818376,7.54925,9.36473,871.971,2.25796,0.0,0.0
420,104.75,254.869,402.975,66.7512,101.22,67.1764,0.0819455,7.56634,9.29973,871.751,3.96533,0.0,0.0
422,105.25,256.457,405.44,33.2022,101.229,77.7984,0.0820138,7.59089,9.24708,871.29,2.54632,0.0,0.0
424,105.75,257.506,406.745,74.0023,101.212,66.688,0.0820519,7.61646,9.20442,871.26,4.03517,0.0,0.0
426,106.25,258.395,408.574,49.8339,101.223,74.9788,0.08206,7.64226,9.16988,871.09,2.90279,0.0,0.0
428,106.75,259.225,408.86,50.3843,101.218,71.227,0.082046,7.6652,9.1419,870.67,3.39879,0.0,0.0
430,107.25,259.878,410.404,56.5981,101.212,67.9847,0.0820347,7.6856,9.11923,870.64,3.84886,0.0,0.0
432,107.75,260.507,411.284,33.6838,101.207,73.857,0.0820128,7.70213,9.10087,870.189,3.04704,0.0,0.0
434,108.25,260.996,411.825,49.0401,101.201,71.4328,0.0819836,7.71363,9.09214,870.099,3.36933,0.0,0.0
436,108.75,262.131,412.571,53.4877,101.188,72.7941,0.0819818,7.72295,9.08507,869.909,3.1855,0.0,0.0
438,109.25,262.477,413.924,40.177,101.187,73.2854,0.082,7.71645,9.11885,869.529,3.12029,0.0,0.0
440,109.75,263.117,414.688,58.8383,101.18,68.2864,0.0820147,7.71118,9.1462,869.419,3.80298,0.0,0.0
442,110.25,264.339,415.29,86.0651,101.176,62.5752,0.0821098,7.68951,9.20555,869.188,4.64739,0.0,0.0
444,110.75,264.264,415.876,52.4321,101.17,63.2938,0.0821868,7.6563,9.28709,868.998,4.53633,0.0,0.0
446,111.25,264.334,415.085,41.518,101.169,66.7817,0.0822702,7.62941,9.35313,868.588,4.01743,0.0,0.0
448,111.75,265.19,414.837,56.1027,101.146,60.1701,0.0823567,7.5632,9.49967,868.558,5.02361,0.0,0.0
450,112.25,265.259,414.436,60.6076,101.16,60.9297,0.0823237,7.50958,9.61837,868.448,4.90355,0.0,0.0
452,112.75,265.261,413.745,55.8882,101.122,68.653,0.0822043,7.42451,9.79087,868.167,3.74567,0.0,0.0
454,113.25,264.999,413.011,61.8349,101.14,60.4076,0.0817903,7.35561,9.9306,867.937,4.98492,0.0,0.0
456,113.75,265.637,412.326,69.992,101.117,62.2996,0.0811695,7.26252,10.1974,867.827,4.68447,0.0,0.0
458,114.25,265.459,411.869,59.5603,101.114,59.186,0.0806666,7.15356,10.4135,867.567,5.18004,0.0,0.0
460,114.75,265.115,410.544,64.1766,101.11,59.4101,0.078551,7.01138,10.7253,867.547,5.1431,0.0,0.0
462,115.25,264.641,408.869,68.2472,101.095,58.8181,0.077649,6.84768,11.1009,867.467,5.23855,0.0,0.0
464,115.75,264.462,405.749,69.8821,101.083,59.7722,0.0752673,6.65056,11.261,867.347,5.08172,0.0,0.0
466,116.25,262.475,402.726,68.3212,101.075,63.3953,0.0725826,6.43283,11.5348,867.277,4.51175,0.0,0.0
468,116.75,262.132,399.359,82.3563,101.061,67.4451,0.070408,6.25647,12.0081,867.237,3.91149,0.0,0.0
470,117.25,259.867,394.974,86.6856,101.064,71.0276,0.0686465,5.95283,12.3914,867.257,3.41118,0.0,0.0
472,117.75,257.222,390.289,96.2159,101.042,76.7526,0.0642931,5.70689,12.8418,867.227,2.65936,0.0,0.0
474,118.25,254.931,383.867,107.26,101.044,85.3414,0.0607667,5.42932,13.3324,867.267,1.63361,0.0,0.0
476,118.75,252.013,377.967,107.231,101.03,94.1422,0.0564513,5.27387,13.896,867.277,0.68293,0.0,0.0
478,119.25,248.079,371.659,110.117,101.022,96.9837,0.0529558,5.00805,14.5021,867.277,0.39461,0.0,0.0
480,119.75,244.428,364.868,108.419,101.008,98.6471,0.0488704,4.79274,14.993,867.257,0.22877,0.0,0.0
482,120.25,240.967,358.41,110.946,101.007,98.9118,0.0455612,4.44956,15.5797,867.227,0.202773,0.0,0.0
484,120.75,236.231,351.416,112.426,100.987,99.3466,0.0417385,4.17159,16.0549,867.237,0.158363,0.0,0.0
486,121.25,233.177,344.87,110.935,100.977,99.6613,0.0386422,3.85676,16.5216,867.227,0.126845,0.0,0.0
488,121.75,230.057,338.515,112.244,100.963,99.889,0.0361342,3.60176,16.9731,867.217,0.103484,0.0,0.0
490,122.25,226.753,333.001,115.879,100.964,100.303,0.0335813,3.32672,17.3781,867.247,0.0635451,0.0,0.0
492,122.75,223.918,326.872,116.929,100.944,100.293,0.0310442,3.08016,17.7416,867.217,0.0625794,0.0,0.0
494,123.25,220.224,321.875,113.583,100.942,100.448,0.0287493,2.85904,18.036,867.207,0.0474782,0.0,0.0
496,123.75,217.186,315.627,114.969,100.92,100.459,0.0266747,2.67994,18.3526,867.217,0.0443614,0.0,0.0
498,124.25,213.992,310.829,113.909,100.921,100.495,0.0248273,2.49841,18.609,867.267,0.0409222,0.0,0.0
500,124.75,211.398,305.7,116.34,100.906,100.196,0.0231807,2.31858,18.8732,867.217,0.0682838,0.0,0.0
502,125.25,209.143,301.301,113.792,100.904,99.9788,0.0215908,2.17291,19.103,867.207,0.089119,0.0,0.0
504,125.75,206.325,295.744,113.503,100.887,100.37,0.020303,2.02621,19.3032,867.217,0.0497348,0.0,0.0
506,126.25,202.548,290.709,118.62,100.885,100.256,0.0190391,1.88154,19.4774,867.177,0.060422,0.0,0.0
508,126.75,199.285,284.952,116.524,100.871,100.418,0.0180154,1.74954,19.6293,867.207,0.0435224,0.0,0.0
510,127.25,198.036,281.516,116.755,100.873,100.476,0.0169975,1.62928,19.7615,867.217,0.0380882,0.0,0.0
512,127.75,195.229,277.407,115.807,100.856,100.37,0.016173,1.51986,19.877,867.207,0.0467358,0.0,0.0
514,128.25,192.848,272.876,114.808,100.86,100.722,0.0155051,1.42042,19.9705,867.197,0.0132643,0.0,0.0
516,128.75,190.877,268.716,117.736,100.83,100.22,0.0147264,1.32994,20.0536,867.207,0.0586527,0.0,0.0
518,129.25,188.374,265.114,112.783,100.825,100.434,0.0140956,1.24772,20.1276,867.207,0.0376357,0.0,0.0
520,129.75,186.273,261.859,115.511,100.811,100.091,0.0134466,1.17243,20.1938,867.187,0.0693668,0.0,0.0
522,130.25,182.83,255.941,113.927,100.812,100.377,0.0129208,1.10362,20.253,867.187,0.0417477,0.0,0.0
524,130.75,180.909,252.182,116.374,100.796,100.651,0.0123879,1.0392,20.3009,867.187,0.0139356,0.0,0.0
526,131.25,179.94,249.692,116.607,100.797,100.654,0.0119562,0.979192,20.3494,867.167,0.013741,0.0,0.0
528,131.75,178.152,246.356,118.117,100.774,100.305,0.011561,0.930588,20.3887,867.147,0.0451292,0.0,0.0
530,132.25,175.512,242.65,115.487,100.786,100.207,0.0111999,0.877088,20.4258,867.177,0.0557769,0.0,0.0
532,132.75,173.181,239.408,116.945,100.756,100.384,0.0109074,0.833753,20.4607,867.167,0.0357048,0.0,0.0
534,133.25,172.53,236.723,117.024,100.763,100.421,0.0106351,0.793197,20.4921,867.167,0.0328865,0.0,0.0
536,133.75,170.199,233.527,116.681,100.743,99.699,0.0103827,0.755437,20.5205,867.167,0.100793,0.0,0.0
538,134.25,167.478,228.342,118.176,100.746,100.474,0.0101326,0.719526,20.547,867.157,0.0262069,0.0,0.0
540,134.75,166.04,225.459,117.781,100.723,99.9645,0.00993,0.685646,20.5715,867.177,0.0731186,0.0,0.0
542,135.25,164.734,223.817,116.358,100.729,100.009,0.00976591,0.658202,20.5914,867.167,0.0693851,0.0,0.0
544,135.75,163.693,221.11,118.326,100.713,99.8724,0.00957224,0.626926,20.6103,867.157,0.0810661,0.0,0.0
546,136.25,161.236,217.015,115.493,100.729,99.6223,0.00938809,0.601592,20.628,867.157,0.106837,0.0,0.0
548,136.75,159.579,214.28,115.342,100.704,99.6791,0.00921438,0.574246,20.6448,867.167,0.0989024,0.0,0.0
550,137.25,159.399,213.109,115.803,100.705,100.113,0.00907368,0.552096,20.6604,867.167,0.0569989,0.0,0.0
552,137.75,157.63,210.242,117.308,100.686,99.6483,0.00890165,0.530543,20.6746,867.147,0.10022,0.0,0.0
554,138.25,154.791,206.892,115.84,100.693,99.4851,0.00876231,0.509835,20.6876,867.137,0.116699,0.0,0.0
556,138.75,153.828,204.076,118.278,100.674,99.5922,0.0085877,0.493062,20.6982,867.137,0.104528,0.0,0.0
558,139.25,153.327,202.065,114.238,100.674,99.3336,0.00844627,0.473209,20.709,867.137,0.129639,0.0,0.0
560,139.75,151.933,199.772,115.869,100.677,99.8931,0.0083317,0.457129,20.7199,867.107,0.0756289,0.0,0.0
562,140.25,150.64,197.762,118.825,100.675,99.4518,0.00815087,0.439698,20.7306,867.137,0.11822,0.0,0.0
564,140.75,149.197,195.449,118.833,100.651,99.9284,0.0080044,0.42558,20.7411,867.127,0.0696736,0.0,0.0
566,141.25,147.882,193.369,115.768,100.643,99.7847,0.0078619,0.410238,20.7495,867.117,0.0828142,0.0,0.0
568,141.75,145.81,190.651,117.708,100.637,99.5135,0.00774647,0.397812,20.7582,867.117,0.10863,0.0,0.0
570,142.25,145.42,188.8,119.248,100.637,99.3454,0.00765298,0.387746,20.7651,867.117,0.124942,0.0,0.0
572,142.75,144.593,186.884,117.057,100.627,99.4822,0.00757262,0.374321,20.7708,867.117,0.110694,0.0,0.0
574,143.25,143.425,184.472,121.299,100.641,100.057,0.00750337,0.363447,20.7771,867.117,0.0562492,0.0,0.0
576,143.75,141.802,182.51,114.586,100.613,99.66,0.00744067,0.351446,20.7822,867.096,0.0920546,0.0,0.0
578,144.25,141.284,180.637,119.925,100.616,99.6917,0.00738394,0.341726,20.7886,867.107,0.0892161,0.0,0.0
580,144.75,140.171,178.916,119.029,100.599,99.6872,0.00733799,0.333853,20.7937,867.127,0.0880885,0.0,0.0
582,145.25,138.776,176.806,118.755,100.605,99.3547,0.00727317,0.32394,20.7986,867.107,0.120949,0.0,0.0
584,145.75,138.086,174.968,118.768,100.582,99.8935,0.00722068,0.31591,20.8032,867.107,0.0664586,0.0,0.0
586,146.25,136.893,173.106,119.254,100.589,99.9901,0.00714682,0.309406,20.8078,867.127,0.0577702,0.0,0.0
588,146.75,135.852,171.465,121.413,100.566,99.6093,0.007087,0.300902,20.8123,867.107,0.092452,0.0,0.0
590,147.25,134.611,169.47,116.261,100.584,99.4522,0.00699973,0.294014,20.8165,867.076,0.109479,0.0,0.0
592,147.75,133.827,167.994,115.129,100.57,99.4165,0.00692904,0.286249,20.8203,867.096,0.111547,0.0,0.0
594,148.25,133.231,165.671,119.284,100.571,99.1684,0.0068355,0.279959,20.8238,867.086,0.135829,0.0,0.0
596,148.75,132.241,164.918,116.06,100.558,99.0446,0.00675974,0.273065,20.8271,867.107,0.146664,0.0,0.0
598,149.25,130.884,162.919,118.229,100.562,99.334,0.0066793,0.26748,20.8297,867.127,0.118788,0.0,0.0
600,149.75,130.71,161.367,119.974,100.542,99.7035,0.00659697,0.261155,20.8328,867.107,0.0810066,0.0,0.0
602,150.25,128.991,160.013,118.115,100.538,99.3016,0.00653029,0.256031,20.8352,867.096,0.119687,0.0,0.0
604,150.75,128.129,158.531,117.865,100.546,99.1627,0.00646629,0.250397,20.8374,867.096,0.134,0.0,0.0
606,151.25,127.994,157.228,118.778,100.543,99.7518,0.00641445,0.245833,20.8394,867.086,0.0763988,0.0,0.0
608,151.75,126.609,155.58,119.639,100.529,99.3044,0.0063787,0.241214,20.8413,867.096,0.118589,0.0,0.0
610,152.25,125.928,153.688,120.38,100.519,98.9333,0.00634974,0.236642,20.843,867.086,0.153822,0.0,0.0
612,152.75,125.103,152.276,119.677,100.521,98.9171,0.00632228,0.232939,20.8444,867.107,0.155606,0.0,0.0
614,153.25,124.354,151.436,119.089,100.516,99.0596,0.00629644,0.228312,20.8464,867.096,0.141134,0.0,0.0
616,153.75,123.502,149.824,124.942,100.506,99.0912,0.0062755,0.224565,20.848,867.076,0.137145,0.0,0.0
618,154.25,123.341,148.329,118.893,100.509,99.2508,0.00623982,0.220229,20.8495,867.076,0.121856,0.0,0.0
620,154.75,122.326,147.588,119.325,100.511,98.8286,0.00621092,0.216716,20.8508,867.086,0.163248,0.0,0.0
622,155.25,122.167,146.37,121.992,100.493,99.1331,0.00616131,0.213197,20.8521,867.086,0.131775,0.0,0.0
624,155.75,120.886,145.023,117.125,100.503,98.8708,0.00612113,0.209738,20.8533,867.076,0.158335,0.0,0.0
626,156.25,120.123,144.053,121.453,100.489,98.8241,0.00608858,0.206937,20.8543,867.076,0.161614,0.0,0.0
628,156.75,119.419,142.821,118.811,100.484,98.9605,0.00603852,0.20355,20.8554,867.066,0.147725,0.0,0.0
630,157.25,118.701,141.38,118.733,100.48,98.4465,0.00599798,0.200806,20.8565,867.066,0.19778,0.0,0.0
632,157.75,118.165,140.837,117.432,100.477,98.7356,0.00596265,0.198095,20.8575,867.096,0.169108,0.0,0.0
634,158.25,117.162,139.566,121.539,100.471,98.5318,0.00593403,0.19546,20.8586,867.107,0.188506,0.0,0.0
636,158.75,117.247,138.068,115.553,100.477,98.7632,0.00590462,0.192845,20.8595,867.086,0.166365,0.0,0.0
638,159.25,116.12,136.908,120.965,100.467,98.7218,0.00588079,0.190295,20.8602,867.107,0.169444,0.0,0.0
640,159.75,115.916,136.004,118.425,100.462,98.8862,0.00584904,0.18823,20.8613,867.086,0.152879,0.0,0.0
642,160.25,115.19,134.957,118.939,100.449,98.5415,0.00582332,0.185577,20.8625,867.096,0.185439,0.0,0.0
644,160.75,114.619,134.137,122.137,100.454,98.63,0.00578504,0.183428,20.8638,867.086,0.177265,0.0,0.0
646,161.25,114.018,132.909,116.704,100.449,98.6085,0.00575405,0.180937,20.865,867.066,0.178828,0.0,0.0
648,161.75,113.571,132.376,120.145,100.445,98.2626,0.00572147,0.17892,20.866,867.066,0.212503,0.0,0.0
650,162.25,112.144,130.343,123.339,100.442,98.3605,0.00569508,0.176621,20.867,867.066,0.202564,0.0,0.0
652,162.75,111.151,129.2,120.012,100.451,98.628,0.0056737,0.17476,20.8681,867.046,0.177112,0.0,0.0
654,163.25,111.596,129.032,121.081,100.434,99.0332,0.00565639,0.172933,20.8689,867.066,0.135816,0.0,0.0
656,163.75,110.972,128.642,119.364,100.438,98.5208,0.00564892,0.171165,20.8696,867.056,0.186377,0.0,0.0
658,164.25,110.915,127.849,118.979,100.426,98.3848,0.00564876,0.169378,20.8701,867.046,0.198644,0.0,0.0
660,164.75,110.89,127.266,120.203,100.457,98.3531,0.00564864,0.167611,20.8706,867.056,0.20469,0.0,0.0
662,165.25,109.094,125.924,119.667,100.422,98.4729,0.00564854,0.166179,20.8714,867.056,0.189557,0.0,0.0
664,165.75,108.759,124.053,120.776,100.431,98.3718,0.00564845,0.164525,20.8725,867.066,0.200352,0.0,0.0
666,166.25,109.044,124.489,121.734,100.417,98.2939,0.00564341,0.162739,20.8733,867.056,0.206728,0.0,0.0
668,166.75,108.275,123.278,121.289,100.426,98.0848,0.00563932,0.161293,20.874,867.056,0.228107,0.0,0.0
670,167.25,108.013,123.177,122.196,100.411,98.218,0.00561734,0.160121,20.8748,867.056,0.213615,0.0,0.0
672,167.75,107.485,122.242,120.094,100.419,98.2906,0.00559953,0.158388,20.8757,867.066,0.207204,0.0,0.0
674,168.25,107.207,121.393,118.718,100.414,97.922,0.00557005,0.156984,20.8764,867.046,0.243079,0.0,0.0
676,168.75,106.814,120.821,120.008,100.417,98.2817,0.00553261,0.155386,20.8774,867.056,0.207927,0.0,0.0
678,169.25,105.562,119.032,124.352,100.405,98.6646,0.00548594,0.154091,20.8782,867.056,0.16911,0.0,0.0
680,169.75,104.631,118.693,119.163,100.429,98.127,0.00543341,0.15261,20.8789,867.036,0.224257,0.0,0.0
682,170.25,105.027,118.972,119.011,100.433,98.3588,0.00539086,0.15141,20.8794,867.026,0.201864,0.0,0.0
684,170.75,105.16,117.396,122.179,100.44,98.5245,0.00534071,0.15024,20.8798,867.036,0.186253,0.0,0.0
686,171.25,104.562,116.463,120.317,100.435,98.1977,0.00528597,0.149114,20.8802,867.036,0.217922,0.0,0.0
688,171.75,103.622,116.202,119.603,100.469,98.2431,0.00524098,0.14799,20.8805,867.036,0.21665,0.0,0.0
690,172.25,103.71,115.337,121.186,100.464,98.222,0.00520394,0.146888,20.8811,867.006,0.218299,0.0,0.0
692,172.75,103.617,114.852,126.743,100.487,98.3726,0.00517591,0.145995,20.8817,867.036,0.205706,0.0,0.0
694,173.25,102.351,113.813,119.292,100.48,97.9626,0.00515496,0.144911,20.8821,867.046,0.245443,0.0,0.0
696,173.75,102.106,112.689,119.941,100.497,98.7474,0.00513799,0.144032,20.8825,867.036,0.169869,0.0,0.0
698,174.25,102.276,113.046,122.331,100.496,98.3637,0.00512301,0.143145,20.8828,867.036,0.207404,0.0,0.0
700,174.75,101.991,112.516,118.671,100.504,98.44,0.00511087,0.142268,20.883,867.036,0.200684,0.0,0.0
702,175.25,101.802,112.312,123.705,100.52,98.7153,0.00509856,0.141427,20.8834,867.056,0.175238,0.0,0.0
704,175.75,101.383,111.446,118.223,100.525,98.004,0.00508858,0.140627,20.884,867.026,0.245691,0.0,0.0
706,176.25,100.711,111.476,124.786,100.51,98.2821,0.0050792,0.139848,20.8844,867.026,0.216761,0.0,0.0
708,176.75,100.563,110.51,116.931,100.537,98.2074,0.00507042,0.139098,20.8848,867.016,0.226771,0.0,0.0
710,177.25,100.014,109.911,120.166,100.534,98.3499,0.00506331,0.138491,20.885,867.026,0.212435,0.0,0.0
712,177.75,99.3484,109.209,120.28,100.547,98.1554,0.00505298,0.137788,20.8853,867.016,0.232828,0.0,0.0
714,178.25,99.529,109.035,121.686,100.544,98.1518,0.00504049,0.137028,20.8855,867.026,0.232953,0.0,0.0
716,178.75,99.033,108.355,118.732,100.569,98.0535,0.00503038,0.13631,20.8856,867.036,0.244984,0.0,0.0
718,179.25,99.3224,107.677,122.743,100.562,98.0129,0.00502219,0.135637,20.8862,867.046,0.248327,0.0,0.0
720,179.75,98.9386,107.304,122.415,100.575,98.0296,0.00501882,0.135092,20.8867,867.056,0.247933,0.0,0.0
722,180.25,98.2591,106.733,119.551,100.559,98.164,0.00501903,0.134429,20.887,867.036,0.233199,0.0,0.0
724,180.75,98.0888,106.234,121.042,100.588,98.4015,0.00501986,0.133892,20.8873,867.046,0.212559,0.0,0.0
726,181.25,97.6994,105.692,122.375,100.59,98.1294,0.00502111,0.133355,20.8876,867.026,0.23949,0.0,0.0
728,181.75,97.3625,104.941,122.886,100.602,98.3917,0.00501821,0.132828,20.8878,867.026,0.214884,0.0,0.0
730,182.25,97.3064,104.959,120.389,100.609,98.2074,0.00501233,0.132321,20.8879,867.026,0.233683,0.0,0.0
732,182.75,96.5917,104.513,121.038,100.624,98.155,0.00499777,0.131839,20.8881,867.016,0.240287,0.0,0.0
734,183.25,96.1541,103.242,124.43,100.604,98.0933,0.00497716,0.131354,20.8882,867.016,0.244457,0.0,0.0
736,183.75,95.781,103.215,119.787,100.639,98.1863,0.00496047,0.130876,20.8882,867.016,0.238611,0.0,0.0
738,184.25,95.2755,103.01,119.752,100.62,98.6032,0.00493455,0.130438,20.8883,867.026,0.195791,0.0,0.0
740,184.75,95.5605,102.788,119.459,100.639,98.468,0.00490239,0.130037,20.8888,867.006,0.210973,0.0,0.0
742,185.25,95.3661,102.119,119.422,100.636,98.4043,0.00487635,0.129611,20.8892,867.006,0.216885,0.0,0.0
744,185.75,95.3494,102.115,123.056,100.652,98.3251,0.0048317,0.129174,20.8895,866.996,0.226192,0.0,0.0
746,186.25,95.0658,101.351,119.993,100.665,98.1388,0.00479554,0.12882,20.8898,866.986,0.245789,0.0,0.0
748,186.75,94.4139,100.826,122.044,100.679,98.628,0.00476625,0.128368,20.89,866.986,0.199058,0.0,0.0
750,187.25,94.284,100.43,120.432,100.682,98.22,0.0047347,0.128002,20.8894,866.986,0.239428,0.0,0.0
752,187.75,94.09,100.225,123.994,100.682,98.1051,0.00470211,0.127705,20.8881,866.996,0.250787,0.0,0.0
754,188.25,94.1659,99.5869,118.618,100.677,98.2496,0.00467701,0.127327,20.8871,866.986,0.236043,0.0,0.0
756,188.75,92.9655,98.9716,127.073,100.677,97.8453,0.00465785,0.126896,20.8863,866.976,0.275932,0.0,0.0
758,189.25,93.4517,99.0243,124.246,100.684,98.1388,0.00464625,0.126548,20.8858,866.966,0.24766,0.0,0.0
760,189.75,93.1333,98.5368,121.054,100.687,98.5704,0.00464037,0.126171,20.8857,866.976,0.205493,0.0,0.0
762,190.25,92.8293,98.1391,122.724,100.7,98.2598,0.00463887,0.125781,20.8856,866.986,0.237304,0.0,0.0
764,190.75,92.8857,98.0596,120.174,100.696,97.9752,0.00464058,0.125356,20.8855,867.006,0.264893,0.0,0.0
766,191.25,92.0331,97.784,122.943,100.696,98.2927,0.00464197,0.124915,20.8854,866.996,0.233678,0.0,0.0
768,191.75,91.8674,96.746,125.381,100.704,98.0223,0.00466293,0.124506,20.8858,866.976,0.261101,0.0,0.0
770,192.25,91.3875,96.8169,120.819,100.706,98.1956,0.0046799,0.124129,20.8865,866.976,0.244206,0.0,0.0
772,192.75,91.3499,96.0401,118.948,100.709,98.4364,0.00471597,0.123752,20.8871,866.986,0.220716,0.0,0.0
774,193.25,90.9722,95.9151,118.997,100.735,98.0888,0.00474518,0.123381,20.8876,866.986,0.257459,0.0,0.0
776,193.75,90.8848,96.1729,121.114,100.719,98.4559,0.00477877,0.12308,20.888,866.966,0.219854,0.0,0.0
778,194.25,90.9919,95.149,124.436,100.731,97.7811,0.00480598,0.122686,20.8883,866.996,0.287501,0.0,0.0
780,194.75,91.0722,95.0403,124.123,100.729,98.3531,0.00481933,0.122366,20.8886,866.976,0.230846,0.0,0.0
782,195.25,90.5859,94.7802,125.133,100.736,98.1229,0.00483014,0.122013,20.8892,866.966,0.254213,0.0,0.0
784,195.75,90.5034,94.4843,123.345,100.726,98.4019,0.00483891,0.121642,20.8897,866.956,0.225745,0.0,0.0
786,196.25,89.5394,94.0019,119.339,100.741,97.8972,0.00482131,0.121291,20.8902,866.986,0.276957,0.0,0.0
788,196.75,89.9068,93.6598,119.398,100.758,98.1648,0.00480706,0.120962,20.8905,866.976,0.252235,0.0,0.0
790,197.25,89.4749,93.5117,118.694,100.75,98.3592,0.00477445,0.120629,20.8909,866.986,0.232236,0.0,0.0
792,197.75,89.0678,92.8152,123.188,100.759,97.7714,0.00474803,0.120302,20.8913,866.966,0.291115,0.0,0.0
794,198.25,89.1339,92.9625,119.288,100.758,97.9094,0.00472664,0.120036,20.8916,866.956,0.277391,0.0,0.0
796,198.75,88.1486,92.2379,120.548,100.75,98.6211,0.00469073,0.119671,20.892,866.946,0.206597,0.0,0.0
798,199.25,88.2995,92.2903,122.222,100.76,98.6378,0.00466164,0.119376,20.8926,866.946,0.205939,0.0,0.0
800,199.75,89.017,91.9541,121.207,100.749,98.3998,0.00462942,0.11904,20.8931,866.966,0.228205,0.0,0.0
802,200.25,87.4264,90.8365,120.172,100.765,98.5492,0.00460332,0.118768,20.8935,866.956,0.215012,0.0,0.0
804,200.75,87.7231,90.7037,121.947,100.765,98.4331,0.00458465,0.118548,20.894,866.966,0.226454,0.0,0.0
806,201.25,88.1375,91.6241,126.282,100.762,97.8347,0.00456953,0.118273,20.8947,866.976,0.285163,0.0,0.0
808,201.75,87.9757,90.7086,121.716,100.754,98.0235,0.0045664,0.118051,20.8952,866.986,0.265699,0.0,0.0
810,202.25,88.1518,90.5655,124.408,100.759,98.1591,0.00457209,0.117789,20.8956,867.016,0.252835,0.0,0.0
812,202.75,87.5624,90.4184,122.081,100.759,98.4762,0.00459899,0.117576,20.896,867.006,0.221681,0.0,0.0
814,203.25,87.2431,89.6974,123.033,100.775,97.9882,0.00462078,0.11739,20.8963,866.996,0.27125,0.0,0.0
816,203.75,86.7603,89.8304,119.435,100.758,98.1932,0.00464496,0.117225,20.8965,866.976,0.249396,0.0,0.0
818,204.25,86.6869,89.2333,118.765,100.781,98.315,0.00465835,0.117064,20.8966,866.986,0.23959,0.0,0.0
820,204.75,86.3535,89.732,122.908,100.776,98.2914,0.00468126,0.116906,20.8968,866.976,0.2414,0.0,0.0
822,205.25,86.4587,89.302,122.473,100.78,98.5135,0.00470373,0.116736,20.8969,866.976,0.219961,0.0,0.0
824,205.75,86.6354,89.0214,121.352,100.77,98.2927,0.00472546,0.116559,20.897,866.966,0.240735,0.0,0.0
826,206.25,85.8207,88.3369,125.866,100.784,98.015,0.00474306,0.116408,20.8971,866.956,0.269424,0.0,0.0
828,206.75,85.8185,88.0864,119.7,100.783,97.717,0.00476248,0.116279,20.8972,866.946,0.298836,0.0,0.0
830,207.25,85.7362,87.8291,121.433,100.786,97.7519,0.00478285,0.116225,20.8972,866.946,0.295693,0.0,0.0
832,207.75,85.7891,88.3891,122.413,100.761,98.0328,0.00480524,0.116116,20.8973,866.946,0.265517,0.0,0.0
834,208.25,84.6783,86.3357,124.029,100.775,97.6305,0.00482866,0.116016,20.8971,866.936,0.306582,0.0,0.0
836,208.75,84.8532,87.2561,124.125,100.765,98.3341,0.00485546,0.115934,20.897,866.936,0.236192,0.0,0.0
838,209.25,85.172,87.2262,124.47,100.78,98.2082,0.00488423,0.115817,20.8969,866.936,0.249984,0.0,0.0
840,209.75,85.108,87.1474,122.192,100.769,98.2898,0.00490753,0.115676,20.8969,866.956,0.240897,0.0,0.0
842,210.25,84.7199,86.7577,126.619,100.796,98.0393,0.00494339,0.115555,20.8968,866.946,0.26819,0.0,0.0
844,210.75,85.0851,87.0436,122.994,100.767,98.1757,0.00498774,0.115451,20.8955,866.956,0.251935,0.0,0.0
846,211.25,84.3922,86.5915,124.823,100.78,98.4697,0.00502366,0.115351,20.8945,866.946,0.224305,0.0,0.0
848,211.75,84.1707,86.6504,123.426,100.751,98.1798,0.00506518,0.115258,20.8937,866.956,0.250055,0.0,0.0
850,212.25,83.6052,85.1138,127.476,100.773,97.6691,0.00509881,0.115182,20.893,866.956,0.302644,0.0,0.0
852,212.75,83.6112,85.0757,120.023,100.769,98.0876,0.00512082,0.115121,20.8924,866.956,0.260852,0.0,0.0
854,213.25,83.9291,84.8969,122.748,100.769,98.0783,0.00513393,0.115017,20.892,866.946,0.261734,0.0,0.0
856,213.75,84.0323,84.7813,123.235,100.761,98.3495,0.00513214,0.114932,20.8916,866.936,0.234324,0.0,0.0
858,214.25,83.8657,85.5151,126.345,100.776,98.2789,0.00511951,0.114809,20.8913,866.936,0.242639,0.0,0.0
860,214.75,83.1221,85.2912,127.59,100.775,98.0292,0.00509099,0.114709,20.8911,866.936,0.267164,0.0,0.0
862,215.25,83.4081,84.7694,121.805,100.766,97.7961,0.00505143,0.114563,20.8913,866.936,0.289327,0.0,0.0
864,215.75,83.6663,85.0027,124.533,100.763,98.522,0.00500373,0.114386,20.8915,866.926,0.217488,0.0,0.0
866,216.25,83.6724,84.7416,119.656,100.78,97.8854,0.00495099,0.114207,20.8917,866.926,0.281863,0.0,0.0
868,216.75,82.9236,84.367,126.954,100.756,97.5412,0.00490827,0.11403,20.8918,866.916,0.313641,0.0,0.0
870,217.25,82.6133,83.2666,122.087,100.766,98.0937,0.00486525,0.113886,20.8919,866.926,0.259939,0.0,0.0
872,217.75,82.2038,83.8995,123.352,100.758,97.6849,0.00482282,0.113756,20.892,866.906,0.299635,0.0,0.0
874,218.25,82.6767,83.7866,124.063,100.769,98.5602,0.00478911,0.11365,20.8921,866.926,0.214325,0.0,0.0
876,218.75,82.4922,83.3422,122.644,100.757,97.5554,0.00476239,0.113538,20.8923,866.916,0.312311,0.0,0.0
878,219.25,81.8849,83.0211,121.99,100.767,98.5967,0.00474074,0.113446,20.8925,866.936,0.210585,0.0,0.0
880,219.75,82.0102,83.5018,121.035,100.758,98.3418,0.00471799,0.113346,20.8926,866.936,0.23481,0.0,0.0
882,220.25,81.7976,82.8737,121.644,100.761,98.2525,0.00469487,0.113265,20.8928,866.936,0.243872,0.0,0.0
884,220.75,82.0069,82.8495,123.585,100.752,98.1489,0.0046768,0.113155,20.8928,866.946,0.253212,0.0,0.0
886,221.25,81.7817,82.1501,124.095,100.751,98.1595,0.00466274,0.113028,20.8934,866.936,0.252015,0.0,0.0
888,221.75,81.5788,82.2451,126.434,100.747,97.8879,0.00465723,0.112925,20.8938,866.946,0.278505,0.0,0.0
890,222.25,81.8907,82.4191,124.268,100.753,97.9191,0.00465804,0.112813,20.8941,866.936,0.275921,0.0,0.0
892,222.75,81.4533,82.2796,123.295,100.746,98.2163,0.00466392,0.112696,20.8944,866.916,0.245948,0.0,0.0
894,223.25,80.9997,82.1122,121.684,100.749,97.5842,0.00467741,0.112572,20.8947,866.806,0.308674,0.0,0.0
896,223.75,80.7848,81.5744,121.561,100.739,97.993,0.0046856,0.112446,20.8949,866.726,0.267301,0.0,0.0
898,224.25,81.1903,81.5777,125.162,100.754,98.1018,0.00468972,0.112344,20.8949,866.746,0.258048,0.0,0.0
900,224.75,80.3916,81.9032,126.293,100.734,97.9321,0.00469805,0.112261,20.8951,866.886,0.272885,0.0,0.0
902,225.25,80.605,81.2375,119.13,100.732,98.5078,0.00470936,0.112194,20.8952,866.926,0.215958,0.0,0.0
904,225.75,80.1173,80.92,121.887,100.741,98.0945,0.0047124,0.112085,20.8952,866.956,0.257521,0.0,0.0
906,226.25,79.6077,80.2151,126.026,100.741,98.1006,0.00472021,0.111938,20.8953,866.966,0.256843,0.0,0.0
908,226.75,80.0678,80.9981,122.674,100.738,98.4185,0.00472889,0.111837,20.8958,867.006,0.225318,0.0,0.0
910,227.25,78.8067,79.3187,127.301,100.732,97.9524,0.00473592,0.111793,20.8962,866.986,0.270607,0.0,0.0
912,227.75,78.9373,78.9197,124.597,100.725,97.6528,0.00475009,0.111719,20.8965,866.976,0.299575,0.0,0.0
914,228.25,79.4817,79.8807,119.562,100.72,98.5687,0.00476921,0.111634,20.8968,866.956,0.208851,0.0,0.0
916,228.75,79.2044,79.8353,125.575,100.721,97.749,0.00479253,0.11159,20.897,866.916,0.289699,0.0,0.0
918,229.25,79.4127,79.4861,125.887,100.712,98.3686,,0.111513,,866.936,0.227732,0.0,0.0
920,229.75,79.4929,79.3183,125.703,100.726,97.7052,,0.111452,,866.936,0.294468,0.0,0.0
922,230.25,78.6471,79.121,129.572,100.721,98.1924,,0.111388,,866.916,0.245891,0.0,0.0
924,230.75,79.248,79.2216,124.961,100.707,97.7685,,0.111336,,866.916,0.286445,0.0,0.0
926,231.25,77.8318,78.6006,120.848,100.722,97.9723,,0.111309,,866.906,0.267669,0.0,0.0
928,231.75,78.309,78.5378,120.719,100.709,98.4063,,0.1113,,866.906,0.223746,0.0,0.0
930,232.25,78.3848,79.2092,122.763,100.699,98.1323,,,,866.906,0.249745,0.0,0.0
932,232.75,78.6957,78.8542,124.696,100.706,97.8834,,,,866.906,0.274929,0.0,0.0
934,233.25,78.0932,78.8062,122.955,100.696,98.399,,,,866.906,0.223139,0.0,0.0
936,233.75,78.1021,78.4366,123.009,100.694,98.3016,,,,866.886,0.232565,0.0,0.0
938,234.25,77.9059,78.0203,121.642,100.696,98.4701,,,,866.896,0.216196,0.0,0.0
940,234.75,77.9337,78.3782,124.463,100.696,97.6958,,,,866.896,0.292584,0.0,0.0
942,235.25,78.0603,78.1498,124.781,100.676,98.2598,,,,866.896,0.234925,0.0,0.0
944,235.75,78.0337,78.1261,123.647,100.685,97.8546,,,,866.886,0.275828,0.0,0.0
946,236.25,77.7105,77.7927,122.944,100.677,97.8542,,,,866.876,0.275088,0.0,0.0
948,236.75,77.9086,77.6255,124.265,100.693,97.7401,,,,866.896,0.287932,0.0,0.0
950,237.25,76.8092,77.1818,123.456,100.67,98.6382,,,,866.896,0.197205,0.0,0.0
952,237.75,76.6302,76.7974,122.176,100.687,97.5119,,,,866.906,0.309913,0.0,0.0
954,238.25,77.2567,77.4004,127.008,100.67,98.0068,,,,866.906,0.259309,0.0,0.0
956,238.75,77.3592,77.2272,125.153,100.689,97.961,,,,866.916,0.265632,0.0,0.0
958,239.25,76.7837,77.4789,123.315,100.67,98.153,,,,866.906,0.244896,0.0,0.0
960,239.75,76.8564,77.1937,122.462,100.676,97.7961,,,,866.886,0.280672,0.0,0.0