File: 01_Data/LDPE/Cone/LDPE_Cone_HF25Scan_220202_R3.csv
Names,Time,Stack TC,Smoke TC,Exh Press,Smoke Comp,Smoke Meas,CO Meter,CO2 Meter,O2 Meter,Sample Mass,Ext Coeff,Start Test,Flame Verif
Chan Gain,,500,500,1,1,1,1,1,1,1,1,1.0,1.0
Offset,,0,0,0.14021,0,0,0,0,0,0,0,0.0,0.0
Gain,,1,1,25.011,13.3046,13.3037,1,1,1,1.00087,1.10262,1.0,1.0
Units,sec,C,C,Pa,%,%,%,%,%,g,/m,,
Baseline,,24.225,23.8983,142.676,100.463,102.799,0.00463444,0.102111,20.9112,0.00108428,-0.222165,,
4,0.75,21.5967,21.1438,142.268,100.759,102.536,0.00443665,0.10561,20.9081,898.354,-0.16904,0.0,0.0
8,1.75,21.914,22.1593,146.432,100.823,102.455,0.00442922,0.105673,20.9074,898.354,-0.15526,0.0,0.0
12,2.75,21.6009,21.4177,143.315,100.845,102.513,0.00443738,0.105962,20.9064,898.394,-0.158713,0.0,0.0
16,3.75,21.4829,21.6632,142.98,100.852,102.91,0.00447859,0.106268,20.9056,898.404,-0.195326,0.0,0.0
20,4.75,21.8326,21.4525,141.825,100.857,102.739,0.00451677,0.106637,20.9044,898.434,-0.178819,0.0,0.0
24,5.75,21.849,21.7703,141.48,100.832,101.656,0.00455209,0.107071,20.9037,898.434,-0.0787564,0.0,0.0
28,6.75,21.4328,20.8604,145.085,100.808,102.242,0.00458122,0.107398,20.9032,898.444,-0.136597,0.0,0.0
32,7.75,21.7036,21.9276,144.021,100.758,102.506,0.00461277,0.107761,20.9029,898.444,-0.166322,0.0,0.0
36,8.75,22.2911,22.1927,145.474,100.708,101.843,0.00465401,0.107975,20.9027,898.444,-0.108396,0.0,0.0
40,9.75,21.704,21.0741,138.213,100.647,101.933,0.0047237,0.10809,20.9029,898.424,-0.122841,0.0,0.0
44,10.75,22.4004,22.0023,141.22,100.555,102.174,0.00479597,0.108223,20.9032,898.404,-0.154558,0.0,0.0
48,11.75,22.3464,22.41,141.309,100.483,101.684,0.00487,0.10827,20.9034,898.394,-0.114935,0.0,0.0
52,12.75,21.9836,22.0018,140.513,100.414,101.798,0.00492558,0.108207,20.9037,898.404,-0.132427,0.0,0.0
56,13.75,21.9284,22.1661,141.588,100.37,101.064,0.00495631,0.108043,20.9045,898.394,-0.0666178,0.0,0.0
60,14.75,22.4808,22.157,144.034,100.311,101.31,0.00496773,0.107811,20.905,898.404,-0.0958098,0.0,0.0
64,15.75,22.5855,21.9075,143.488,100.274,102.003,0.00496972,0.107487,20.9056,904.539,-0.165429,0.0,0.0
68,16.75,22.032,22.0577,145.614,100.247,101.556,0.00496902,0.107175,20.9065,914.168,-0.125457,0.0,0.0
72,17.75,22.0685,22.3909,140.165,100.297,102.001,0.0049461,0.106822,20.9071,921.023,-0.163004,0.0,0.0
76,18.75,22.2566,22.2596,143.677,100.448,101.984,0.00490291,0.106442,20.9075,928.27,-0.146716,0.0,0.0
80,19.75,22.1376,22.519,146.095,100.596,102.312,0.00484345,0.106076,20.9081,934.115,-0.163634,0.0,0.0
84,20.75,21.7627,22.5665,144.148,100.731,102.024,0.00476059,0.105761,20.9093,938.589,-0.123315,0.0,0.0
88,21.75,22.0252,22.508,145.635,100.835,101.978,0.00466264,0.10545,20.9104,942.953,-0.109029,0.0,0.0
92,22.75,21.9685,21.9715,138.972,100.936,102.372,0.00456324,0.105099,20.9116,945.205,-0.136615,0.0,0.0
96,23.75,22.2079,22.3244,143.617,101.02,102.732,0.00448825,0.104795,20.9123,946.936,-0.16253,0.0,0.0
100,24.75,21.7863,21.9211,143.45,101.079,102.385,0.00445546,0.104497,20.9128,948.558,-0.124196,0.0,0.0
104,25.75,22.4556,22.2786,145.108,101.116,102.74,0.00446111,0.104252,20.9131,950.129,-0.154048,0.0,0.0
108,26.75,21.8492,22.2125,139.156,101.139,103.018,0.00448071,0.103994,20.9133,951.44,-0.17798,0.0,0.0
112,27.75,22.474,21.802,140.264,101.149,103.148,0.00449356,0.103771,20.9128,952.831,-0.189199,0.0,0.0
116,28.75,21.8484,22.0361,144.311,101.141,102.931,0.0044921,0.103576,20.9119,954.383,-0.169702,0.0,0.0
120,29.75,22.3765,22.0783,144.203,101.113,103.127,0.0044779,0.103382,20.9113,955.574,-0.190829,0.0,0.0
124,30.75,21.9324,22.1595,144.353,101.073,102.811,0.00445588,0.10315,20.9109,956.595,-0.164967,0.0,0.0
128,31.75,22.2596,22.1915,145.946,101.024,102.448,0.00440112,0.103048,20.9106,957.085,-0.135309,0.0,0.0
132,32.75,22.1096,21.8734,144.585,100.954,102.735,0.00432716,0.102941,20.9105,957.666,-0.169213,0.0,0.0
136,33.75,22.522,22.5629,147.35,100.887,102.687,0.004261,0.10282,20.9108,957.025,-0.171044,0.0,0.0
140,34.75,22.009,21.8016,139.716,100.788,102.244,0.00422343,0.102653,20.9114,957.726,-0.138737,0.0,0.0
144,35.75,21.6488,22.0863,144.418,100.705,102.189,0.00423519,0.102507,20.9117,958.056,-0.141541,0.0,0.0
148,36.75,22.3221,22.1208,142.368,100.655,102.024,0.00427424,0.102414,20.9114,958.416,-0.130687,0.0,0.0
152,37.75,22.1233,21.8918,140.039,100.687,102.096,0.0043209,0.102325,20.9109,957.866,-0.134453,0.0,0.0
156,38.75,22.0004,22.1366,142.571,100.726,102.532,0.00437246,0.102291,20.9107,957.245,-0.171891,0.0,0.0
160,39.75,21.9824,21.9279,146.928,100.762,102.387,0.00441582,0.102287,20.9105,956.274,-0.154779,0.0,0.0
164,40.75,21.8773,22.2331,141.318,100.807,102.206,0.00443083,0.10221,20.9104,955.223,-0.133334,0.0,0.0
168,41.75,21.8704,22.0278,145.203,100.86,102.726,0.00442499,0.10214,20.9103,953.792,-0.177285,0.0,0.0
172,42.75,22.0738,22.4628,142.29,100.912,102.537,0.00440382,0.102166,20.9109,952.581,-0.154472,0.0,0.0
176,43.75,22.073,22.1305,144.079,100.954,102.068,0.0043804,0.102205,20.9114,951.75,-0.10617,0.0,0.0
180,44.75,22.3373,22.1738,140.962,101.004,102.544,0.00434916,0.10223,20.9118,950.529,-0.14637,0.0,0.0
184,45.75,21.3182,21.2804,142.39,101.05,102.957,0.00431028,0.102206,20.912,949.428,-0.180845,0.0,0.0
188,46.75,22.1403,22.3386,143.555,101.093,102.314,0.00427746,0.10217,20.9121,948.237,-0.116122,0.0,0.0
192,47.75,21.5117,22.296,141.986,101.145,102.962,0.00425849,0.102165,20.9118,946.666,-0.172251,0.0,0.0
196,48.75,22.015,22.1603,142.391,101.175,102.27,0.00425406,0.102194,20.9112,944.964,-0.104094,0.0,0.0
200,49.75,21.6737,22.1203,139.494,101.215,102.379,0.00425304,0.102247,20.9109,942.252,-0.110614,0.0,0.0
204,50.75,22.2495,22.6309,142.467,101.259,103.249,0.00426581,0.102258,20.9109,939.44,-0.188235,0.0,0.0
208,51.75,22.1346,22.3042,141.419,101.299,102.528,0.00427418,0.102314,20.9111,935.977,-0.116691,0.0,0.0
212,52.75,22.0811,22.4883,142.472,101.336,102.454,0.0043267,0.10231,20.9112,931.863,-0.106152,0.0,0.0
216,53.75,21.9955,21.8577,142.918,101.373,102.404,0.00437459,0.102274,20.9113,926.879,-0.0978717,0.0,0.0
220,54.75,21.7945,21.9625,142.369,101.394,102.977,0.00440378,0.10229,20.9113,920.563,-0.149852,0.0,0.0
224,55.75,21.7465,22.3883,146.671,101.422,103.155,0.00441397,0.102351,20.9114,915.949,-0.163868,0.0,0.0
228,56.75,22.1507,21.9948,148.405,101.439,103.163,0.00441458,0.102411,20.9114,910.544,-0.163042,0.0,0.0
232,57.75,21.6546,22.5372,144.785,101.457,102.735,0.00441657,0.102412,20.9114,903.758,-0.121058,0.0,0.0
236,58.75,22.1178,22.6884,143.705,101.469,102.691,0.00444966,0.102468,20.9114,898.264,-0.115807,0.0,0.0
240,59.75,21.7131,22.2762,140.881,101.49,103.468,0.00450112,0.102565,20.9114,895.021,-0.186671,0.0,0.0
244,60.75,21.4072,21.9811,141.128,101.493,103.012,0.00453678,0.102666,20.9114,891.758,-0.143724,0.0,0.0
248,61.75,21.5706,22.6392,146.784,101.495,103.369,0.00458098,0.102762,20.9114,888.906,-0.17698,0.0,0.0
252,62.75,21.963,22.1734,142.66,101.508,103.304,0.00461577,0.102842,20.9114,887.925,-0.169701,0.0,0.0
256,63.75,22.1215,22.633,145.807,101.499,103.653,0.00464756,0.102883,20.911,888.475,-0.203034,0.0,0.0
260,64.75,21.8745,22.1939,142.673,101.498,103.334,0.00467479,0.10298,20.9108,889.286,-0.173365,0.0,0.0
264,65.75,21.6037,21.9837,143.11,101.503,103.04,0.00468205,0.103079,20.911,889.736,-0.145386,0.0,0.0
268,66.75,21.7826,22.311,138.807,101.503,102.713,0.00466805,0.103129,20.9112,890.457,-0.11466,0.0,0.0
272,67.75,21.714,22.0849,145.091,101.483,103.179,0.00464344,0.103184,20.9113,891.007,-0.160345,0.0,0.0
276,68.75,21.9856,22.3989,145.925,101.471,103.281,0.00460464,0.103278,20.9113,891.328,-0.171055,0.0,0.0
280,69.75,21.7931,22.3244,140.392,101.46,102.791,0.00454001,0.103421,20.9114,891.628,-0.126022,0.0,0.0
284,70.75,21.5661,22.3154,143.838,101.457,103.199,0.00449151,0.103489,20.9114,891.808,-0.164649,0.0,0.0
288,71.75,21.8948,22.3762,144.26,101.436,102.847,0.00442771,0.103517,20.9112,891.948,-0.133615,0.0,0.0
292,72.75,21.7408,21.7045,139.102,101.439,103.403,0.00437871,0.10367,20.9106,892.078,-0.185435,0.0,0.0
296,73.75,22.0889,22.6035,144.82,101.406,103.038,0.00427594,0.103759,20.9097,892.048,-0.154408,0.0,0.0
300,74.75,21.6947,22.1852,144.408,101.385,102.597,0.00419582,0.103833,20.909,891.858,-0.114907,0.0,0.0
304,75.75,21.9869,22.3532,141.109,101.388,103.299,0.00414464,0.103859,20.9086,891.608,-0.180549,0.0,0.0
308,76.75,21.9072,21.9708,144.248,101.358,103.104,0.00412533,0.103882,20.9084,891.508,-0.16519,0.0,0.0
312,77.75,22.2969,22.9022,140.24,101.334,102.384,0.00414621,0.103939,20.9082,891.518,-0.0997127,0.0,0.0
316,78.75,22.099,22.4744,141.896,101.334,102.902,0.00418004,0.104067,20.9075,891.528,-0.148491,0.0,0.0
320,79.75,21.8995,22.3522,139.396,101.318,102.522,0.00420577,0.104167,20.9068,891.678,-0.114256,0.0,0.0
324,80.75,21.9727,22.2482,140.84,101.29,102.814,0.00423771,0.10426,20.9064,891.828,-0.14447,0.0,0.0
328,81.75,21.8483,22.0965,145.444,101.265,102.507,0.00428968,0.104386,20.9061,892.138,-0.117956,0.0,0.0
332,82.75,22.0654,22.0185,140.709,101.249,102.773,0.00436068,0.104574,20.9059,892.419,-0.144451,0.0,0.0
336,83.75,21.4353,22.2937,141.757,101.233,102.71,0.00442842,0.104697,20.905,892.709,-0.140077,0.0,0.0
340,84.75,21.9203,22.5394,141.886,101.221,102.568,0.00450165,0.104803,20.9044,893.039,-0.127852,0.0,0.0
344,85.75,22.1522,22.6335,144.575,101.197,102.902,0.0045656,0.104922,20.904,893.339,-0.16156,0.0,0.0
348,86.75,21.507,22.0218,141.309,101.195,101.901,0.00463584,0.10504,20.9038,893.8,-0.0673045,0.0,0.0
352,87.75,21.8177,22.1341,148.655,101.173,102.139,0.00470722,0.105151,20.9036,894.19,-0.0919165,0.0,0.0
356,88.75,21.4745,22.5585,143.958,101.174,103.048,0.00476589,0.105361,20.9035,894.51,-0.1775,0.0,0.0
360,89.75,22.0516,22.3619,142.141,101.156,102.388,0.0047939,0.105645,20.903,894.811,-0.117048,0.0,0.0
364,90.75,22.204,22.4855,144.937,101.14,102.704,0.00477712,0.10594,20.9023,895.071,-0.148431,0.0,0.0
368,91.75,22.3017,22.7451,134.757,101.154,102.232,0.00473277,0.106186,20.9018,895.551,-0.102503,0.0,0.0
372,92.75,22.217,22.4682,144.092,101.125,102.662,0.0046836,0.106472,20.9015,895.862,-0.145928,0.0,0.0
376,93.75,21.9954,22.8778,143.548,101.121,102.601,0.00461996,0.106807,20.9007,896.182,-0.140501,0.0,0.0
380,94.75,22.2861,22.7069,142.322,101.118,102.275,0.00459057,0.107077,20.9,896.522,-0.110106,0.0,0.0
384,95.75,22.2644,22.7744,148.917,101.117,103.104,0.00458765,0.107331,20.8996,896.862,-0.18827,0.0,0.0
388,96.75,21.8507,22.6816,142.694,101.121,103.115,0.00462732,0.107613,20.8977,897.233,-0.18891,0.0,0.0
392,97.75,21.8802,22.5719,144.553,101.124,102.644,0.00469027,0.108026,20.8965,897.543,-0.144323,0.0,0.0
396,98.75,22.1208,22.481,138.265,101.123,102.312,0.00477516,0.108447,20.8949,897.773,-0.113055,0.0,0.0
400,99.75,21.7484,22.3916,140.838,101.129,101.874,0.00485954,0.108968,20.893,897.933,-0.0709329,0.0,0.0
404,100.75,21.7641,22.3091,139.015,101.123,102.953,0.00493083,0.109585,20.8918,898.003,-0.17347,0.0,0.0
408,101.75,22.3639,22.8118,141.936,101.132,102.875,0.00496486,0.110213,20.891,898.083,-0.165329,0.0,0.0
412,102.75,22.2014,22.8763,142.329,101.126,102.625,0.00497561,0.110946,20.8892,898.124,-0.142254,0.0,0.0
416,103.75,21.5466,22.6632,141.874,101.125,102.288,0.00496009,0.111793,20.8869,898.174,-0.110558,0.0,1.0
420,104.75,22.0231,22.9446,141.128,101.145,102.694,0.00492334,0.112509,20.8839,898.214,-0.147009,0.0,1.0
424,105.75,22.0748,22.7224,142.483,101.156,101.6,0.00488881,0.113691,20.8811,898.214,-0.0424336,0.0,1.0
428,106.75,22.521,23.7371,141.214,101.157,102.539,0.00487571,0.114898,20.8777,898.174,-0.131226,0.0,1.0
432,107.75,21.868,22.2613,139.904,101.15,102.11,0.00488304,0.116135,20.875,898.194,-0.0913223,0.0,1.0
436,108.75,22.1454,22.6219,140.821,101.162,102.534,0.00489921,0.117626,20.872,898.174,-0.130299,0.0,0.0
440,109.75,22.2892,23.2148,143.537,101.173,102.744,0.00492588,0.119086,20.8689,898.174,-0.149033,0.0,0.0
444,110.75,21.9578,22.6126,145.57,101.181,102.45,0.00496489,0.120591,20.8657,898.174,-0.120584,0.0,0.0
448,111.75,22.6463,23.5399,139.404,101.19,101.781,0.00500233,0.12218,20.8615,898.164,-0.0563179,0.0,0.0
452,112.75,22.9175,23.7428,142.244,101.205,101.818,0.00502704,0.123972,20.8575,898.174,-0.058314,0.0,0.0
456,113.75,22.8061,23.9866,141.264,101.197,102.984,0.00504276,0.126033,20.8543,898.204,-0.169227,0.0,0.0
460,114.75,23.2281,24.1015,141.006,101.215,102.099,0.00507107,0.128141,20.851,898.174,-0.084112,0.0,0.0
464,115.75,22.7362,23.8246,140.66,101.223,101.796,0.00512153,0.13011,20.848,898.164,-0.0546016,0.0,0.0
468,116.75,23.0798,24.0198,138.997,101.238,102.734,0.005178,0.132291,20.8453,898.174,-0.141829,0.0,0.0
472,117.75,23.2376,24.4434,142.366,101.256,101.578,0.00527673,0.134262,20.8424,898.174,-0.0306834,0.0,0.0
476,118.75,23.1488,24.2686,140.771,101.259,102.586,0.00535647,0.13652,20.8381,898.154,-0.125928,0.0,0.0
480,119.75,23.0014,24.3796,138.63,101.281,102.171,0.00541793,0.138328,20.8356,898.124,-0.0845947,0.0,0.0
484,120.75,23.5259,24.5275,138.55,101.293,101.615,0.00544546,0.140414,20.8316,898.104,-0.0307106,0.0,0.0
488,121.75,23.6597,25.0521,141.342,101.302,102.762,0.00543692,0.142452,20.8281,898.073,-0.138455,0.0,0.0
492,122.75,23.8497,25.3729,138.23,101.32,101.444,0.00541174,0.144889,20.8238,898.064,-0.0119086,0.0,0.0
496,123.75,24.2373,25.6772,139.628,101.335,101.926,0.00538566,0.146933,20.8195,898.083,-0.0563138,0.0,0.0
500,124.75,24.0366,25.6095,141.171,101.357,102.204,0.00535481,0.149294,20.8151,898.064,-0.0805758,0.0,0.0
504,125.75,24.1221,25.8213,138.73,101.359,102.191,0.00531967,0.151581,20.811,898.003,-0.0791138,0.0,0.0
508,126.75,23.8433,25.469,135.635,101.38,101.55,0.00527225,0.154022,20.806,898.013,-0.0162329,0.0,0.0
512,127.75,24.3666,26.423,139.462,101.39,102.3,0.00522837,0.156692,20.8012,897.993,-0.0864233,0.0,0.0
516,128.75,24.1158,26.2691,136.841,101.401,102.591,0.00518365,0.159267,20.7976,898.013,-0.112823,0.0,0.0
520,129.75,24.5451,26.6825,139.29,101.409,101.502,0.00515001,0.161883,20.794,897.983,-0.00891914,0.0,0.0
524,130.75,24.9514,27.2986,137.821,101.427,103.031,0.0051368,0.164481,20.7896,898.003,-0.151748,0.0,0.0
528,131.75,24.9775,26.8636,137.284,101.441,101.747,0.0051376,0.166747,20.7835,897.943,-0.0290827,0.0,0.0
532,132.75,24.894,27.2968,135.269,101.452,100.876,0.00514358,0.169721,20.7764,897.963,0.0549859,0.0,0.0
536,133.75,25.389,27.6913,134.666,101.454,102.418,0.00515554,0.172854,20.77,897.923,-0.0914701,0.0,0.0
540,134.75,25.3697,27.7795,136.051,101.475,101.494,0.00516268,0.176577,20.7641,897.873,-0.00179597,0.0,0.0
544,135.75,25.4905,27.6477,133.278,101.472,101.929,0.00516098,0.180242,20.7587,897.863,-0.0434545,0.0,0.0
548,136.75,25.8452,28.3602,136.336,101.492,101.669,0.00517336,0.183527,20.7526,897.853,-0.0169092,0.0,0.0
552,137.75,26.6081,29.0461,135.064,101.503,101.401,0.00519389,0.187094,20.7463,897.833,0.009776,0.0,0.0
556,138.75,26.9708,29.413,138.746,101.505,100.087,0.00520361,0.190374,20.7389,897.783,0.136027,0.0,0.0
560,139.75,26.0049,28.6631,142.254,101.514,101.259,0.00519213,0.194317,20.7305,897.793,0.0242691,0.0,0.0
564,140.75,26.9095,29.6203,136.838,101.518,101.158,0.00517322,0.198376,20.7232,897.773,0.0343159,0.0,0.0
568,141.75,27.613,30.201,136.932,101.525,99.5366,0.0051589,0.202534,20.7153,897.733,0.19131,0.0,0.0
572,142.75,27.8543,30.7704,133.277,101.532,100.745,0.00517787,0.206752,20.7091,897.723,0.0751907,0.0,0.0
576,143.75,26.723,29.9371,134.806,101.532,101.384,0.0052263,0.210566,20.7023,897.693,0.0141106,0.0,0.0
580,144.75,28.183,31.3428,135.879,101.523,100.82,0.00527554,0.21466,20.6962,897.643,0.0672098,0.0,0.0
584,145.75,27.7983,30.783,134.759,101.53,100.58,0.00530463,0.219224,20.6895,897.603,0.0909136,0.0,0.0
588,146.75,28.6405,32.2038,128.153,101.519,99.5395,0.00530876,0.224108,20.68,897.643,0.190415,0.0,0.0
592,147.75,28.6624,31.6543,134.257,101.51,100.061,0.00530104,0.228428,20.6698,897.633,0.139082,0.0,0.0
596,148.75,29.539,33.1322,128.054,101.508,100.021,0.00530554,0.23332,20.66,897.553,0.142695,0.0,0.0
600,149.75,29.9586,33.6373,128.451,101.49,98.3385,0.00538125,0.237968,20.6514,897.523,0.30511,0.0,0.0
604,150.75,29.7598,33.4691,134.311,101.484,101.232,0.00551266,0.242313,20.6431,897.493,0.0240046,0.0,0.0
608,151.75,30.4659,34.4896,140.958,101.474,98.8533,0.00565302,0.246419,20.6362,897.423,0.253098,0.0,0.0
612,152.75,30.7841,34.7005,132.34,101.446,98.7965,0.00579412,0.250378,20.6292,897.413,0.255991,0.0,0.0
616,153.75,30.8031,34.7416,132.858,101.425,97.8416,0.0059106,0.254766,20.6214,897.373,0.347878,0.0,0.0
620,154.75,31.4533,35.7275,134.692,101.406,98.7421,0.00600534,0.259224,20.6129,897.353,0.257525,0.0,0.0
624,155.75,31.1054,35.698,130.675,101.384,97.8534,0.0060766,0.263815,20.6045,897.303,0.342842,0.0,0.0
628,156.75,31.7763,36.2311,135.427,101.36,96.9646,0.00617783,0.268416,20.5977,897.313,0.428763,0.0,0.0
632,157.75,32.0978,36.7099,134.803,101.338,97.6788,0.00626921,0.272974,20.591,897.263,0.355695,0.0,0.0
636,158.75,32.3273,37.0532,131.648,101.307,97.6597,0.00633945,0.277684,20.5831,897.253,0.354601,0.0,0.0
640,159.75,32.6835,37.5251,130.447,101.28,97.5058,0.00639362,0.281825,20.5753,897.193,0.367333,0.0,0.0
644,160.75,33.2516,37.9467,132.923,101.261,97.1502,0.00645428,0.286486,20.5647,897.143,0.400854,0.0,0.0
648,161.75,33.29,38.3199,132.282,101.226,95.9671,0.00653781,0.291338,20.5545,897.053,0.516025,0.0,0.0
652,162.75,33.5826,38.7117,130.475,101.203,95.3553,0.00662974,0.296479,20.5459,897.073,0.575714,0.0,0.0
656,163.75,34.4775,39.6058,131.893,101.175,95.6598,0.00675599,0.301891,20.5364,897.003,0.542161,0.0,0.0
660,164.75,34.6953,40.1415,126.787,101.141,94.9095,0.00691149,0.306779,20.5286,896.963,0.615021,0.0,0.0
664,165.75,35.3579,40.8824,129.569,101.112,96.3175,0.00703856,0.312437,20.5195,896.913,0.46983,0.0,0.0
668,166.75,35.2325,41.2537,125.497,101.086,94.6225,0.00719561,0.318459,20.5096,896.862,0.639073,0.0,0.0
672,167.75,35.9653,41.7731,128.601,101.053,93.4654,0.00732932,0.323748,20.4972,896.842,0.754969,0.0,0.0
676,168.75,36.6052,42.7915,128.766,101.013,93.9388,0.00748307,0.330447,20.4819,896.812,0.702296,0.0,0.0
680,169.75,37.0213,43.0671,129.313,100.983,93.2762,0.00767058,0.337656,20.463,896.722,0.767842,0.0,0.0
684,170.75,36.9768,43.4486,122.611,100.954,93.5498,0.00789329,0.34602,20.4455,896.702,0.736747,0.0,0.0
688,171.75,37.3761,44.2476,122.315,100.932,91.5369,0.00819224,0.355068,20.4252,896.612,0.945034,0.0,0.0
692,172.75,37.7251,44.5917,128.277,100.9,91.344,0.00850252,0.363734,20.4054,896.582,0.962359,0.0,0.0
696,173.75,38.4109,45.733,121.569,100.867,89.9629,0.00878549,0.372332,20.3822,896.492,1.10657,0.0,0.0
700,174.75,38.378,46.177,126.368,100.845,88.5813,0.00901284,0.383221,20.3532,896.432,1.25416,0.0,0.0
704,175.75,39.7081,47.4442,119.619,100.826,89.7684,0.00918266,0.394945,20.3252,896.372,1.12357,0.0,0.0
708,176.75,40.2836,47.864,123.57,100.806,88.5057,0.00931691,0.407442,20.2974,896.342,1.25867,0.0,0.0
712,177.75,41.125,49.1073,121.754,100.774,88.6758,0.00947222,0.42034,20.2723,896.222,1.23702,0.0,0.0
716,178.75,40.8872,49.4967,120.569,100.756,87.93,0.00967752,0.432933,20.2489,896.182,1.31692,0.0,0.0
720,179.75,42.3594,51.3505,121.986,100.733,85.5761,0.0099115,0.445724,20.2229,896.102,1.5772,0.0,0.0
724,180.75,43.1319,52.2819,119.314,100.706,85.585,0.010162,0.456884,20.1927,896.032,1.57357,0.0,0.0
728,181.75,43.5423,53.0654,116.676,100.694,87.2037,0.0104198,0.47149,20.1596,895.942,1.39122,0.0,0.0
732,182.75,44.4357,54.0322,113.573,100.689,86.414,0.0106457,0.48792,20.1288,895.852,1.47873,0.0,0.0
736,183.75,45.9678,56.1922,114.112,100.743,84.7844,0.0108239,0.504102,20.1001,895.751,1.66803,0.0,0.0
740,184.75,46.7036,57.5177,119.487,100.795,86.5618,0.0110083,0.518381,20.0727,895.681,1.47242,0.0,0.0
744,185.75,47.588,58.2779,116.757,100.86,86.833,0.0111854,0.533399,20.0468,895.631,1.4484,0.0,0.0
748,186.75,48.8321,59.8662,118.206,100.905,85.2054,0.0113543,0.54826,20.0235,895.481,1.63566,0.0,0.0
752,187.75,49.566,60.9617,116.88,100.959,85.3126,0.011565,0.562513,20.0082,895.401,1.62871,0.0,0.0
756,188.75,50.5526,62.0455,115.207,100.992,84.2903,0.0117385,0.577824,19.9847,895.331,1.74842,0.0,0.0
760,189.75,50.6191,63.0688,115.498,101.043,83.2574,0.0119381,0.592649,19.9585,895.211,1.87261,0.0,0.0
764,190.75,52.1924,64.9528,117.261,101.066,83.3626,0.0121087,0.607314,19.9286,895.101,1.86262,0.0,0.0
768,191.75,53.1396,65.957,114.289,101.09,82.8251,0.0122225,0.624206,19.9012,894.971,1.92744,0.0,0.0
772,192.75,54.0218,67.4684,115.435,101.121,82.3947,0.0122958,0.641208,19.8694,894.881,1.98082,0.0,0.0
776,193.75,55.0432,68.3079,119.289,101.134,84.3755,0.0123654,0.657997,19.8339,894.801,1.75232,0.0,0.0
780,194.75,56.0081,70.3291,109.965,101.156,84.1263,0.0124593,0.674921,19.7943,894.681,1.783,0.0,0.0
784,195.75,57.2847,71.4383,110.036,101.173,82.8993,0.0125801,0.693515,19.7553,894.601,1.92673,0.0,0.0
788,196.75,57.7028,72.8814,108.26,101.186,82.3569,0.0127097,0.7124,19.7223,894.4,1.99146,0.0,0.0
792,197.75,59.2338,74.1682,110.281,101.192,84.2326,0.012825,0.731062,19.694,894.36,1.77419,0.0,0.0
796,198.75,60.0578,75.2013,113.416,101.209,82.9014,0.013006,0.749184,19.6685,894.25,1.92991,0.0,0.0
800,199.75,61.1641,76.8082,107.361,101.198,82.2063,0.0131996,0.766817,19.6448,894.08,2.0103,0.0,0.0
804,200.75,62.1366,78.8559,108.424,101.188,80.8442,0.0134213,0.783518,19.6075,893.96,2.17097,0.0,0.0
808,201.75,63.1319,79.9792,107.018,101.186,82.0257,0.0135723,0.80391,19.5757,893.84,2.03049,0.0,0.0
812,202.75,64.3476,81.6167,109.613,101.182,81.6875,0.0137824,0.823961,19.5288,893.67,2.07006,0.0,0.0
816,203.75,65.6993,83.833,108.802,101.158,81.1487,0.014012,0.850297,19.4877,893.56,2.1317,0.0,0.0
820,204.75,66.6838,85.6289,111.233,101.162,83.3451,0.014259,0.865398,19.456,893.43,1.87385,0.0,0.0
824,205.75,67.8633,86.9907,111.361,101.119,82.9334,0.0145721,0.885666,19.4248,893.349,1.91763,0.0,0.0
828,206.75,68.7187,87.9596,103.076,101.095,79.9319,0.0148864,0.906468,19.3908,893.199,2.27184,0.0,0.0
832,207.75,70.0014,90.3097,96.193,101.065,79.6347,0.0151617,0.92641,19.3573,893.019,2.30499,0.0,0.0
836,208.75,71.1043,91.6905,105.239,101.031,81.1475,0.0154384,0.948102,19.3219,892.929,2.11972,0.0,0.0
840,209.75,72.0844,92.983,94.7275,101.001,79.6319,0.0156821,0.969102,19.2908,892.769,2.29924,0.0,0.0
844,210.75,73.4448,94.8416,109.026,100.948,80.4747,0.0159655,0.988197,19.2674,892.629,2.19235,0.0,0.0
848,211.75,75.0815,96.9443,89.2617,100.896,81.0046,0.0162123,1.00836,19.2448,892.509,2.12389,0.0,0.0
852,212.75,76.2607,98.8184,107.654,100.851,81.2896,0.0165484,1.02766,19.2168,892.309,2.0856,0.0,0.0
856,213.75,76.6542,99.5944,98.6835,100.796,79.6977,0.0168315,1.04388,19.1882,892.208,2.27156,0.0,0.0
860,214.75,78.48,101.948,101.25,100.741,80.0533,0.0170997,1.06438,19.1489,892.058,2.22327,0.0,0.0
864,215.75,79.3717,103.871,103.746,100.693,80.5653,0.0173162,1.0852,19.1065,891.868,2.15697,0.0,0.0
868,216.75,80.9115,105.716,102.042,100.629,79.9965,0.0174785,1.10584,19.0756,891.708,2.21933,0.0,0.0
872,217.75,82.1035,107.36,103.051,100.574,80.1175,0.0176138,1.12498,19.0466,891.588,2.19945,0.0,0.0
876,218.75,83.5733,109.105,99.7987,100.499,79.4029,0.0177779,1.14352,19.0241,891.398,2.27883,0.0,0.0
880,219.75,84.137,110.784,98.3492,100.432,79.0233,0.017952,1.16281,19.0059,891.268,2.31877,0.0,0.0
884,220.75,85.7553,112.485,98.2698,100.372,78.945,0.0182589,1.18152,18.9732,891.147,2.32258,0.0,0.0
888,221.75,86.9347,114.078,91.4736,100.309,78.3778,0.0186377,1.20007,18.9368,890.987,2.38629,0.0,0.0
892,222.75,88.7211,116.458,97.6737,100.304,79.7322,0.0190155,1.21684,18.9034,890.807,2.22007,0.0,0.0
896,223.75,89.2135,117.563,102.966,100.318,78.3079,0.0193793,1.23802,18.8689,890.587,2.39569,0.0,0.0
900,224.75,90.2188,119.061,98.2469,100.343,78.9312,0.0197002,1.25935,18.828,890.437,2.32149,0.0,0.0
904,225.75,91.5398,121.127,96.7509,100.342,77.2775,0.0200788,1.28149,18.7882,890.307,2.5262,0.0,0.0
908,226.75,92.6471,123.144,92.6468,100.356,79.9254,0.0205446,1.30401,18.7524,890.117,2.20167,0.0,0.0
912,227.75,94.236,125.528,84.9965,100.374,78.6823,0.0210424,1.325,18.7184,889.896,2.35505,0.0,0.0
916,228.75,95.7926,126.971,98.9797,100.385,78.5093,0.0215768,1.34532,18.6805,889.766,2.37739,0.0,0.0
920,229.75,96.6128,128.894,90.8378,100.396,78.0424,0.0220572,1.36838,18.6402,889.636,2.43614,0.0,0.0
924,230.75,97.7987,130.434,106.537,100.429,77.133,0.0226417,1.39321,18.5913,889.416,2.55268,0.0,0.0
928,231.75,98.8257,132.467,102.166,100.43,76.6905,0.0231583,1.41691,18.5441,889.206,2.60844,0.0,0.0
932,232.75,100.735,135.071,96.8143,100.452,77.7765,0.0238673,1.44522,18.4901,889.046,2.47451,0.0,0.0
936,233.75,102.199,137.306,91.2676,100.471,75.293,0.0245777,1.47739,18.442,888.835,2.79022,0.0,0.0
940,234.75,103.856,139.4,78.282,100.495,76.8192,0.0251552,1.5102,18.3948,888.575,2.5984,0.0,0.0
944,235.75,105.266,142.013,88.2351,100.506,75.0149,0.0258792,1.53909,18.3484,888.375,2.82938,0.0,0.0
948,236.75,105.908,143.334,92.6651,100.533,75.7961,0.0266234,1.56834,18.288,888.165,2.7318,0.0,0.0
952,237.75,108.748,146.613,86.8619,100.553,74.9467,0.0274185,1.60522,18.212,887.985,2.84274,0.0,0.0
956,238.75,110.278,149.129,88.5297,100.578,73.788,0.0281508,1.64716,18.1179,887.805,2.99583,0.0,0.0
960,239.75,112.593,152.241,74.1824,100.603,74.3264,0.0290279,1.69094,18.0413,887.484,2.9279,0.0,0.0
964,240.75,113.851,154.681,80.4962,100.634,75.0328,0.0299139,1.73583,17.9715,887.284,2.83937,0.0,0.0
968,241.75,116.078,158.087,93.2505,100.646,75.2228,0.0309075,1.7792,17.8991,887.134,2.81604,0.0,0.0
972,242.75,118.062,160.958,70.8522,100.669,74.5992,0.0319655,1.81614,17.8183,886.854,2.89882,0.0,0.0
976,243.75,119.762,163.804,82.3227,100.688,72.8595,0.0330148,1.86448,17.7245,886.654,3.12885,0.0,0.0
980,244.75,120.855,166.215,77.45,100.721,73.127,0.0340434,1.91065,17.6394,886.423,3.09655,0.0,0.0
984,245.75,123.455,169.747,75.9906,100.74,73.6849,0.0348702,1.9565,17.5684,886.193,3.02488,0.0,0.0
988,246.75,125.544,172.87,81.8281,100.769,73.4823,0.0358212,2.00455,17.4927,885.973,3.05432,0.0,0.0
992,247.75,126.123,175.378,84.1164,100.786,75.3978,0.0365712,2.0524,17.4153,885.593,2.8071,0.0,0.0
996,248.75,129.622,179.228,80.155,100.803,72.5582,0.037278,2.10032,17.3353,885.443,3.17999,0.0,0.0
1000,249.75,131.693,182.83,80.6206,100.824,72.1226,0.0379861,2.14652,17.2617,885.172,3.24026,0.0,0.0
1004,250.75,133.821,185.942,74.5381,100.842,73.136,0.038756,2.19394,17.1896,884.932,3.10702,0.0,0.0
1008,251.75,135.406,189.073,71.314,100.855,71.486,0.0395385,2.24182,17.1173,884.662,3.32893,0.0,0.0
1012,252.75,136.953,191.588,78.2591,100.881,71.8741,0.0402495,2.28741,17.0534,884.392,3.27905,0.0,0.0
1016,253.75,139.115,194.951,70.247,100.887,71.6837,0.0411059,2.33828,16.9728,884.111,3.3053,0.0,0.0
1020,254.75,140.929,197.624,75.8158,100.904,71.9614,0.0420133,2.38501,16.8915,883.871,3.26957,0.0,0.0
1024,255.75,142.256,200.45,70.6935,100.914,71.8733,0.0430375,2.44372,16.7947,883.481,3.28239,0.0,0.0
1028,256.75,144.889,203.736,74.9678,100.922,73.9256,0.0440079,2.50331,16.7011,883.281,3.01082,0.0,0.0
1032,257.75,146.837,206.994,86.3093,100.928,73.177,0.0449806,2.56781,16.6029,883,3.10985,0.0,0.0
1036,258.75,148.457,210.152,107.879,100.936,72.9845,0.0461052,2.63576,16.4948,882.49,3.13606,0.0,0.0
1040,259.75,150.771,213.596,61.8891,100.948,73.7194,0.0470166,2.68581,16.3908,882.4,3.04029,0.0,0.0
1044,260.75,153.111,217.966,80.642,100.944,73.7957,0.0482551,2.75822,16.2902,882.1,3.0299,0.0,0.0
1048,261.75,155.138,221.055,84.6629,100.962,73.2525,0.0495025,2.83122,16.1846,881.709,3.10311,0.0,0.0
1052,262.75,157.787,224.745,83.8439,100.95,69.8251,0.0507684,2.90479,16.0663,881.529,3.56546,0.0,0.0
1056,263.75,160.064,228.669,88.09,100.958,69.8312,0.052026,2.98147,15.9233,881.089,3.56539,0.0,0.0
1060,264.75,162.042,231.982,83.7004,100.948,71.8949,0.0531573,3.05861,15.768,880.859,3.28269,0.0,0.0
1064,265.75,164.853,236.811,55.515,100.946,72.5591,0.0540729,3.13887,15.6349,880.498,3.19363,0.0,0.0
1068,266.75,166.909,240.493,57.1621,100.944,70.1645,0.0547608,3.21348,15.5384,880.178,3.51801,0.0,0.0
1072,267.75,169.445,243.42,81.4022,100.941,68.5596,0.0554253,3.2835,15.4561,879.918,3.7415,0.0,0.0
1076,268.75,171.317,246.349,75.8662,100.927,70.8847,0.0561414,3.34633,15.3602,879.517,3.41752,0.0,0.0
1080,269.75,173.291,250.724,73.6573,100.917,71.6472,0.0569329,3.42059,15.2574,879.097,3.31315,0.0,0.0
1084,270.75,175.995,255.04,76.6852,100.9,68.448,0.0576564,3.49017,15.1219,878.847,3.75334,0.0,0.0
1088,271.75,178.168,259.081,64.227,100.899,71.8709,0.0584166,3.56882,14.9865,878.597,3.28128,0.0,0.0
1092,272.75,180.025,262.04,48.747,100.884,70.687,0.0591911,3.64742,14.8648,878.066,3.44045,0.0,0.0
1096,273.75,183.521,267.773,58.2773,100.871,70.4649,0.0598488,3.72522,14.7689,877.786,3.46964,0.0,0.0
1100,274.75,185.206,270.874,74.851,100.859,71.1433,0.0605164,3.80048,14.683,877.476,3.37584,0.0,0.0
1104,275.75,187.82,274.497,57.0179,100.837,71.0439,0.0611123,3.85967,14.5882,877.335,3.38727,0.0,0.0
1108,276.75,189.276,277.847,72.8368,100.827,71.7706,0.0617721,3.93212,14.4807,876.705,3.2879,0.0,0.0
1112,277.75,192.243,282.052,66.2505,100.81,70.3111,0.062404,4.00855,14.3616,876.425,3.4849,0.0,0.0
1116,278.75,193.979,285.287,66.2199,100.794,73.8396,0.0630039,4.07976,14.2538,876.164,3.00982,0.0,0.0
1120,279.75,195.81,288.676,70.6049,100.778,69.7297,0.0634757,4.14889,14.178,875.774,3.56221,0.0,0.0
1124,280.75,197.337,291.01,56.2592,100.748,72.6317,0.0637121,4.21099,14.1378,875.344,3.1649,0.0,0.0
1128,281.75,199.504,294.603,60.0175,100.734,68.2311,0.0638456,4.26103,14.1015,875.023,3.76805,0.0,0.0
1132,282.75,201.222,296.367,70.6973,100.705,72.3317,0.0637664,4.29547,14.0777,874.633,3.20084,0.0,0.0
1136,283.75,202.604,298.046,69.9668,100.686,69.6095,0.0633513,4.31161,14.0878,874.273,3.57005,0.0,0.0
1140,284.75,203.253,299.464,82.3945,100.659,70.8092,0.0627405,4.32092,14.1456,873.902,3.40219,0.0,0.0
1144,285.75,204.773,301.166,69.5783,100.633,68.9757,0.0619769,4.30936,14.2539,873.732,3.6534,0.0,0.0
1148,286.75,205.975,302.346,63.005,100.611,69.9623,0.0611173,4.28165,14.4187,873.312,3.51397,0.0,0.0
1152,287.75,205.76,301.583,72.42,100.577,68.7658,0.0602209,4.23061,14.5682,873.122,3.67745,0.0,0.0
1156,288.75,205.971,300.972,63.692,100.551,70.1653,0.0590475,4.1552,14.7366,872.872,3.48017,0.0,0.0
1160,289.75,206.163,300.548,86.6062,100.522,71.0228,0.0576907,4.07719,14.9207,872.551,3.35983,0.0,0.0
1164,290.75,206.463,299.301,67.8167,100.494,69.3708,0.0561823,3.99265,15.1332,872.261,3.58481,0.0,0.0
1168,291.75,205.817,297.293,70.8339,100.466,71.1766,0.0546701,3.88193,15.3557,872.111,3.33355,0.0,0.0
1172,292.75,204.975,295.065,87.6458,100.427,71.7479,0.0528594,3.77745,15.5759,871.731,3.25244,0.0,0.0
1176,293.75,204,292.915,78.6369,100.402,68.923,0.0510962,3.66109,15.7782,871.59,3.63861,0.0,0.0
1180,294.75,203.14,290.553,75.7189,100.384,69.9404,0.0491663,3.54752,15.9423,871.26,3.49512,0.0,0.0
1184,295.75,202.201,288.317,82.5006,100.34,69.8982,0.0471068,3.44591,16.1169,871.13,3.49669,0.0,0.0
1188,296.75,201.402,285.707,87.8717,100.307,69.5644,0.0450161,3.34211,16.3127,870.87,3.53977,0.0,0.0
1192,297.75,199.863,282.535,83.4302,100.287,70.577,0.0429233,3.23696,16.5339,870.66,3.39816,0.0,0.0
1196,298.75,198.63,278.834,85.053,100.259,72.7162,0.0407879,3.1182,16.764,870.449,3.10658,0.0,0.0
1200,299.75,196.874,275.826,80.0841,100.222,72.3151,0.0385795,2.98858,16.984,870.309,3.15655,0.0,0.0
1204,300.75,195.229,272.087,91.9377,100.197,73.926,0.036665,2.86385,17.1573,870.149,2.94106,0.0,0.0
1208,301.75,192.984,268.119,89.2617,100.165,74.3219,0.0345095,2.74269,17.3375,869.919,2.88631,0.0,0.0
1212,302.75,191.588,264.39,93.2177,100.14,76.0916,0.032642,2.63268,17.4764,869.809,2.65627,0.0,0.0
1216,303.75,189.17,259.286,100.026,100.122,75.0864,0.031139,2.50819,17.618,869.659,2.78313,0.0,0.0
1220,304.75,186.191,254.382,95.2282,100.085,77.5118,0.0293348,2.39599,17.7917,869.519,2.47212,0.0,0.0
1224,305.75,183.95,249.501,101.653,100.057,77.1176,0.0278085,2.29766,18.0052,869.459,2.51869,0.0,0.0
1228,306.75,180.644,243.983,104.059,100.032,78.4939,0.0263491,2.16361,18.2206,869.398,2.34524,0.0,0.0
1232,307.75,177.621,239.313,111.078,100.015,78.3408,0.0249828,2.03427,18.4707,869.278,2.36239,0.0,0.0
1236,308.75,174.818,233.753,106.519,99.9846,76.0486,0.0236626,1.91293,18.7026,869.228,2.64671,0.0,0.0
1240,309.75,170.763,227.474,108.153,99.9683,76.008,0.0223642,1.78877,18.9303,869.168,2.6503,0.0,0.0
1244,310.75,168.115,222.5,109.637,99.9452,79.4764,0.0211388,1.66255,19.1299,869.108,2.21648,0.0,0.0
1248,311.75,164.07,215.921,114.147,99.9159,81.6956,0.0198324,1.54575,19.3293,869.078,1.94728,0.0,0.0
1252,312.75,160.54,209.817,117.334,99.9021,85.6642,0.0183503,1.43621,19.5353,869.058,1.48715,0.0,0.0
1256,313.75,156.866,204.301,121.634,99.8705,87.0178,0.0169292,1.32795,19.7241,869.038,1.33245,0.0,0.0
1260,314.75,153.884,198.758,121.999,99.8664,91.7086,0.0157221,1.22249,19.8815,868.998,0.824227,0.0,0.0
1264,315.75,149.178,192.635,120.598,99.8429,90.904,0.014289,1.12496,20.0153,868.988,0.907187,0.0,0.0
1268,316.75,146.466,186.419,124.872,99.8347,93.7869,0.0130697,1.03021,20.1327,868.968,0.604419,0.0,0.0
1272,317.75,142.768,180.942,124.169,99.8096,94.6168,0.0119349,0.949393,20.2551,868.978,0.516774,0.0,0.0
1276,318.75,140.126,176.475,123.26,99.7962,95.9647,0.0108751,0.873332,20.3684,868.988,0.378659,0.0,0.0
1280,319.75,136.576,171.028,125.613,99.7848,97.0714,0.00996249,0.798377,20.4659,868.988,0.266649,0.0,0.0
1284,320.75,133.921,166.965,129.398,99.7608,97.0121,0.00923254,0.730204,20.5424,868.998,0.270235,0.0,0.0
1288,321.75,130.265,161.467,128.076,99.7438,96.7738,0.00863788,0.668725,20.6031,868.988,0.292372,0.0,0.0
1292,322.75,127.289,156.723,126.838,99.7393,96.3695,0.00813611,0.613721,20.6544,869.008,0.332437,0.0,0.0
1296,323.75,124.527,152.716,125.576,99.7263,96.7426,0.00774099,0.56815,20.6942,868.998,0.293802,0.0,0.0
1300,324.75,121.748,148.651,127.31,99.715,96.2846,0.00741271,0.524552,20.7282,868.988,0.338594,0.0,0.0
1304,325.75,119.239,144.589,129.745,99.7064,96.5733,0.00710219,0.486152,20.7527,868.998,0.308814,0.0,0.0
1308,326.75,117.154,140.875,127.457,99.7052,96.6914,0.00682847,0.452793,20.7744,869.008,0.296871,0.0,0.0
1312,327.75,114.829,137.773,130.539,99.6918,96.3565,0.00656923,0.421215,20.7897,868.988,0.329134,0.0,0.0
1316,328.75,112.365,133.708,126.351,99.6894,96.4251,0.00634308,0.396277,20.8044,869.008,0.322013,0.0,0.0
1320,329.75,110.1,130.805,130.43,99.6768,96.3914,0.00613071,0.371729,20.8166,869.018,0.324172,0.0,0.0
1324,330.75,108.288,127.783,129.379,99.6772,96.4965,0.00597871,0.348754,20.8246,869.008,0.313666,0.0,0.0
1328,331.75,106.216,124.465,132.242,99.6695,96.1246,0.00579524,0.328917,20.8358,869.018,0.350265,0.0,0.0
1332,332.75,104.357,121.4,129.35,99.6699,96.8152,0.00561191,0.311308,20.845,869.028,0.281065,0.0,0.0
1336,333.75,102.669,118.929,128.561,99.6776,96.1839,0.00545954,0.298838,20.8525,869.028,0.34509,0.0,0.0
1340,334.75,100.913,116.391,127.806,99.6849,96.216,0.00533615,0.28345,20.8591,869.018,0.342576,0.0,0.0
1344,335.75,99.2972,113.364,132.471,99.6792,95.8624,0.00525007,0.269989,20.8639,869.018,0.377636,0.0,0.0
1348,336.75,97.9117,110.92,130.098,99.693,95.9371,0.00520599,0.257599,20.8675,869.028,0.371442,0.0,0.0
1352,337.75,96.0216,108.898,127.545,99.6963,96.516,0.00517917,0.24681,20.8707,869.038,0.313564,0.0,0.0
1356,338.75,95.4799,106.355,129.387,99.7138,96.6033,0.00514938,0.237948,20.8741,869.028,0.306515,0.0,0.0
1360,339.75,93.5823,104.551,129.338,99.7263,96.1738,0.0051121,0.229532,20.8773,869.018,0.350838,0.0,0.0
1364,340.75,92.5902,102.75,132.775,99.7483,96.2286,0.00507688,0.221125,20.8801,869.028,0.347453,0.0,0.0
1368,341.75,91.1003,100.539,128.36,99.7527,95.9095,0.00505075,0.213286,20.8826,869.028,0.380015,0.0,0.0
1372,342.75,89.9924,98.8486,133.382,99.7742,96.4811,0.00503361,0.206245,20.8849,869.028,0.324624,0.0,0.0
1376,343.75,88.7741,97.3213,128.808,99.8039,95.9127,0.00501589,0.199785,20.886,869.018,0.384646,0.0,0.0
1380,344.75,87.4969,95.0881,129.047,99.8226,96.3439,0.00496943,0.193739,20.8871,869.038,0.343073,0.0,0.0
1384,345.75,87.3633,93.7979,129.015,99.8518,96.6086,0.00491844,0.188352,20.8881,869.028,0.319368,0.0,0.0
1388,346.75,84.8461,91.3369,131.279,99.8912,96.9927,0.00486999,0.184818,20.8892,869.028,0.284806,0.0,0.0
1392,347.75,84.9197,90.9074,129.709,99.9237,96.1908,0.00482923,0.180577,20.8902,869.028,0.368242,0.0,0.0
1396,348.75,83.5607,89.0252,132.339,99.9537,96.1169,0.00479103,0.176283,20.8914,869.038,0.378583,0.0,0.0
1400,349.75,82.9523,87.7764,131.398,100,96.6398,0.00475994,0.171986,20.8922,869.038,0.330584,0.0,0.0
1404,350.75,81.9574,86.041,133.161,100.054,96.8213,0.0047222,0.168274,20.8928,869.048,0.317618,0.0,0.0
1408,351.75,81.2132,84.5163,129.972,100.095,96.9626,0.00467348,0.164897,20.8933,869.048,0.307518,0.0,0.0
1412,352.75,80.6694,83.7753,132.178,100.138,96.7089,0.00462606,0.162682,20.8937,869.048,0.337021,0.0,0.0
1416,353.75,80.1557,82.4259,131.852,100.186,96.6228,0.00459141,0.159604,20.8939,869.038,0.350219,0.0,0.0
1420,354.75,78.4068,81.2663,131.462,100.25,96.2448,0.00457654,0.156444,20.894,869.038,0.394322,0.0,0.0
1424,355.75,77.7328,79.9963,133.556,100.291,96.272,0.0045811,0.153638,20.8949,869.028,0.395544,0.0,0.0
1428,356.75,76.9469,79.0181,138.681,100.352,97.1632,0.00460875,0.151166,20.8955,869.048,0.312374,0.0,0.0
1432,357.75,77.0923,77.808,129.582,100.416,96.4977,0.00463929,0.148927,20.8959,869.048,0.384945,0.0,0.0
1436,358.75,75.4869,75.7332,132.467,100.47,97.0986,0.0046644,0.146677,20.8964,869.048,0.330106,0.0,0.0
1440,359.75,75.7351,76.0709,131.855,100.543,96.8396,0.004662,0.144815,20.8972,869.048,0.362974,0.0,0.0
1444,360.75,74.6493,74.6537,131.517,100.609,97.2131,0.0046412,0.143059,20.8978,869.048,0.332143,0.0,0.0
1448,361.75,74.146,74.077,127.753,100.674,96.9569,0.00460551,0.141332,20.8982,869.038,0.363871,0.0,0.0
1452,362.75,73.745,73.1556,131.935,100.725,97.6902,0.00457097,0.139648,20.8984,869.048,0.295916,0.0,0.0
1456,363.75,72.6069,71.9911,129.696,100.778,97.0134,0.00453486,0.138022,20.8986,869.028,0.368262,0.0,0.0
1460,364.75,72.4292,71.6344,130.395,100.853,97.4693,0.00450587,0.136449,20.8991,869.038,0.330042,0.0,0.0
1464,365.75,71.8346,70.5705,132.554,100.918,98.1493,0.00449038,0.135088,20.8999,869.038,0.269022,0.0,0.0
1468,366.75,71.4772,70.0767,132.855,100.975,97.7831,0.00449537,0.133849,20.9003,869.028,0.310662,0.0,0.0
1472,367.75,70.9457,69.0289,134.762,101.031,96.8299,0.00451757,0.132504,20.9006,869.038,0.410783,0.0,0.0
1476,368.75,70.1586,68.2417,129.882,101.084,97.4888,0.00454408,0.13132,20.9008,869.028,0.350239,0.0,0.0
1480,369.75,69.7054,67.9614,131.436,101.13,98.0576,0.00457296,0.130143,20.901,869.028,0.298399,0.0,0.0
1484,370.75,69.0209,66.9204,134.324,101.202,98.0109,0.00459669,0.128978,20.901,869.038,0.309915,0.0,0.0
1488,371.75,68.7441,65.703,129.847,101.239,98.1388,0.00462122,0.127851,20.9017,869.048,0.300795,0.0,0.0
1492,372.75,68.8417,65.5657,130.322,101.296,98.0016,0.00464405,0.126886,20.9023,869.038,0.319835,0.0,0.0
1496,373.75,66.7108,63.8965,132.836,101.334,97.8091,0.00466359,0.126018,20.9027,869.038,0.342451,0.0,0.0
1500,374.75,67.1716,64.435,131.674,101.37,98.2456,0.00468689,0.125161,20.9023,869.038,0.302837,0.0,0.0
1504,375.75,67.1298,63.9482,135.38,101.407,97.9853,0.0047006,0.124281,20.9021,869.028,0.331978,0.0,0.0
1508,376.75,67.1252,63.6426,137.393,101.441,98.2918,0.00470061,0.123448,20.9019,869.038,0.305019,0.0,0.0
1512,377.75,65.5185,61.9606,139.017,101.47,98.5586,0.00468295,0.122696,20.9022,869.018,0.281595,0.0,0.0
1516,378.75,65.7137,62.0981,132.471,101.501,97.7519,0.00464679,0.122069,20.9028,869.048,0.363991,0.0,0.0
1520,379.75,65.6224,61.5865,131.398,101.513,98.2882,0.0045934,0.121387,20.9032,869.028,0.312229,0.0,0.0
1524,380.75,64.9275,61.4799,136.126,101.542,98.183,0.00454212,0.120784,20.9034,869.048,0.325367,0.0,0.0
1528,381.75,63.8268,59.7781,132.346,101.551,98.2005,0.00449708,0.120115,20.9036,869.048,0.32446,0.0,0.0
1532,382.75,63.7833,60.2952,133.767,101.55,98.7612,0.00447526,0.119441,20.9039,869.038,0.269316,0.0,0.0
1536,383.75,64.1791,60.3031,131.541,101.561,98.0239,0.00448568,0.118818,20.9047,869.038,0.342876,0.0,0.0
1540,384.75,62.8139,58.7446,132.265,101.549,98.0024,0.00450355,0.11824,20.9052,869.048,0.343878,0.0,0.0
1544,385.75,63.036,58.7189,136.388,101.547,98.5456,0.00455339,0.117707,20.9055,869.018,0.29022,0.0,0.0
1548,386.75,62.9413,58.5197,131.511,101.542,99.2979,0.00460553,0.117208,20.9057,869.028,0.2162,0.0,0.0
1552,387.75,62.9065,58.0011,132.421,101.519,98.2817,0.0046523,0.116654,20.9057,869.018,0.313488,0.0,0.0
1556,388.75,61.8362,57.5173,138.285,101.497,98.9569,0.00469636,0.116155,20.9053,869.028,0.245103,0.0,0.0
1560,389.75,62.0957,57.2154,132.984,101.471,97.4681,0.00472385,0.11571,20.9045,869.038,0.389286,0.0,0.0
1564,390.75,61.7384,56.8251,132.354,101.451,98.4486,0.00470984,0.115293,20.9042,869.038,0.29054,0.0,0.0
1568,391.75,61.2746,56.4662,131.843,101.415,97.9841,0.00467957,0.114921,20.9046,869.038,0.332833,0.0,0.0
1572,392.75,61.3021,55.6413,133.767,101.388,98.6853,0.00457232,0.114478,20.9048,869.038,0.261312,0.0,0.0
1576,393.75,61.0532,55.744,136.992,101.339,98.4701,0.00448181,0.114039,20.905,869.028,0.277775,0.0,0.0
1580,394.75,60.4207,55.5841,131.479,101.295,98.0219,0.00444705,0.113594,20.9051,869.038,0.317715,0.0,0.0
1584,395.75,60.2072,54.9713,136.741,101.245,98.4542,0.00446233,0.11322,20.9052,869.028,0.270375,0.0,0.0
1588,396.75,60.0326,54.8095,133.413,101.208,98.5432,0.00449066,0.112913,20.9052,869.018,0.258075,0.0,0.0
1592,397.75,59.668,54.587,134.996,101.165,97.9114,0.0045539,0.112635,20.9051,869.018,0.316203,0.0,0.0
1596,398.75,59.2674,54.2975,133.393,101.121,99.2585,0.00459315,0.112408,20.9053,869.018,0.179847,0.0,0.0
1600,399.75,58.8281,53.6673,134.686,101.072,98.7324,0.00457121,0.112181,20.9054,869.028,0.226515,0.0,0.0
1604,400.75,59.0098,53.7858,133.816,101.012,98.166,0.0045175,0.112013,20.9055,869.038,0.276445,0.0,0.0
1608,401.75,58.6861,53.1621,131.608,100.973,97.1445,0.00446808,0.111845,20.9056,869.048,0.373884,0.0,0.0
1612,402.75,58.2715,52.2879,134.263,100.932,97.6459,0.00443905,0.111595,20.9056,869.038,0.320123,0.0,0.0
1616,403.75,58.3766,52.7811,137.23,100.889,97.4185,0.00442496,0.111282,20.9057,869.028,0.338544,0.0,0.0
1620,404.75,57.8858,52.2063,134.029,100.858,98.7758,0.00441543,0.111027,20.9057,869.038,0.201762,0.0,0.0
1624,405.75,57.8416,52.0587,138.001,100.81,98.8927,0.00440556,0.110785,20.9057,869.028,0.185724,0.0,0.0
1628,406.75,57.0061,51.1502,139.08,100.785,98.7332,0.00438623,0.110528,20.9057,869.038,0.198927,0.0,0.0
1632,407.75,56.8651,51.494,136.239,100.755,98.0523,0.00435767,0.110285,20.9057,869.028,0.263011,0.0,0.0
1636,408.75,56.5024,51.445,135.004,100.724,97.4518,0.00429174,0.110105,20.9057,869.028,0.319422,0.0,0.0
1640,409.75,55.8,51.0595,132.514,100.792,98.5882,0.00420377,0.109955,20.9055,869.038,0.213799,0.0,0.0
1644,410.75,55.7349,50.939,133.538,100.877,97.8197,0.00412139,0.10982,20.9053,869.038,0.297671,0.0,0.0
1648,411.75,56.0802,50.1842,135.244,100.942,98.684,0.00405015,0.109676,20.9051,869.038,0.218808,0.0,0.0
1652,412.75,55.6531,49.5355,136.129,101,98.384,0.00400381,0.109469,20.9051,869.038,0.253861,0.0,0.0
1656,413.75,55.4709,49.932,134.003,101.056,98.4835,0.0039861,0.109309,20.905,869.028,0.249373,0.0,0.0
1660,414.75,55.0633,50.0581,137.373,101.126,99.4696,0.00398905,0.109186,20.9049,869.048,0.159723,0.0,0.0
1664,415.75,55.0834,49.5388,141.439,101.157,98.1355,0.00400352,0.109103,20.9049,869.038,0.293315,0.0,0.0
1668,416.75,54.5381,49.1415,134.042,101.195,99.7425,0.00405268,0.108972,20.9049,869.038,0.139792,0.0,0.0
1672,417.75,54.7152,48.9823,134.196,101.217,99.2342,0.00411849,0.108758,20.9049,869.018,0.191381,0.0,0.0
1676,418.75,54.063,49.0497,135.165,101.242,99.1757,0.00418648,0.108627,20.9049,869.028,0.199409,0.0,0.0
1680,419.75,54.1714,48.489,136.889,101.251,99.0015,0.00423109,0.108478,20.9049,869.028,0.217342,0.0,0.0
1684,420.75,53.4241,47.8317,134.197,101.271,98.9394,0.00427623,0.108355,20.905,869.038,0.225311,0.0,0.0
1688,421.75,54.1014,48.546,136.082,101.247,98.9134,0.00431013,0.108264,20.9052,869.038,0.225565,0.0,0.0
1692,422.75,53.5245,48.01,136.889,101.234,99.5253,0.00432707,0.10815,20.9053,869.038,0.164641,0.0,0.0
1696,423.75,53.3576,47.9047,133.378,101.213,98.0121,0.00433676,0.108032,20.9054,869.048,0.310842,0.0,0.0
1700,424.75,53.1595,47.3434,133.206,101.185,99.5809,0.00434489,0.107806,20.9054,869.048,0.154581,0.0,0.0
1704,425.75,53.2199,47.3804,137.426,101.145,99.166,0.00434203,0.10764,20.9057,869.038,0.191084,0.0,0.0
1708,426.75,53.083,47.2582,132.325,101.1,99.2029,0.00432013,0.107549,20.9064,869.038,0.183248,0.0,0.0
1712,427.75,52.0844,46.9294,138.609,101.047,99.3556,0.00427402,0.107415,20.9069,869.018,0.163248,0.0,0.0
1716,428.75,51.8919,47.3471,137.827,100.997,99.5261,0.00419904,0.107228,20.9072,869.038,0.141881,0.0,0.0
1720,429.75,52.2854,46.589,134.902,100.946,99.1034,,0.107106,,869.038,0.178179,0.0,0.0
1724,430.75,51.9321,46.837,133.387,100.878,98.3475,,0.107039,,869.038,0.245703,0.0,0.0
1728,431.75,51.7243,46.3327,134.49,100.809,99.2049,,0.106979,,869.038,0.15516,0.0,0.0
1732,432.75,51.8436,46.2639,136.415,100.731,99.5204,,,,869.038,0.11697,0.0,0.0
1736,433.75,51.4132,46.2734,140.438,100.642,98.6853,,,,869.048,0.189856,0.0,0.0
1740,434.75,51.4449,45.8877,136.93,100.551,98.1481,,,,869.038,0.2339,0.0,0.0
1744,435.75,50.7697,45.3084,134.803,100.438,98.2001,,,,869.028,0.217994,0.0,0.0
1748,436.75,51.3984,44.9873,136.405,100.343,98.5545,,,,869.038,0.173955,0.0,0.0
1752,437.75,51.0457,45.1743,140.643,100.353,98.4173,,,,869.038,0.18841,0.0,0.0
1756,438.75,50.2943,44.7669,136.763,100.365,98.4624,,,,869.048,0.185157,0.0,0.0
1760,439.75,50.2609,44.4932,134.661,100.386,98.9098,,,,869.028,0.143302,0.0,0.0
1762,440.25,50.2817,44.872,135.244,100.401,99.1477,,,,869.038,0.121512,0.0,0.0