File: 01_Data/LDPE/Cone/LDPE_Cone_HF75Scan_220202_R2.csv
Names,Time,Stack TC,Smoke TC,Exh Press,Smoke Comp,Smoke Meas,CO Meter,CO2 Meter,O2 Meter,Sample Mass,Ext Coeff,Start Test,Flame Verif
Chan Gain,,500,500,1,1,1,1,1,1,1,1,1.0,1.0
Offset,,0,0,0.14021,0,0,0,0,0,0,0,0.0,0.0
Gain,,1,1,25.011,13.3046,13.3037,1,1,1,1.00087,1.10262,1.0,1.0
Units,sec,C,C,Pa,%,%,%,%,%,g,/m,,
Baseline,,42.2509,44.7586,132.164,99.8317,102.131,0.00408457,0.106772,20.8941,-2.06121,-0.220062,,
2,0.25,37.4306,38.7731,131.649,99.1218,101.696,0.00422988,0.116679,20.8795,896.062,-0.247955,0.0,0.0
4,0.75,37.1292,37.9793,133.886,99.1258,102.5,0.00421156,0.116539,20.8793,896.232,-0.323751,0.0,0.0
6,1.25,37.3691,39.5911,131.376,99.1262,101.948,0.00419737,0.116467,20.8791,896.392,-0.271506,0.0,0.0
8,1.75,37.3968,38.9959,137.956,99.1116,101.648,0.00418646,0.116408,20.879,896.112,-0.244426,0.0,0.0
10,2.25,37.4908,39.219,135.806,99.1295,101.594,0.00417763,0.116388,20.8789,920.743,-0.237505,0.0,0.0
12,2.75,37.4923,38.6108,137.018,99.1307,101.753,0.00419406,0.116372,20.8789,939.93,-0.252526,0.0,0.0
14,3.25,37.3689,38.6824,133.867,99.1368,102.345,0.00420737,0.116374,20.8788,957.035,-0.308074,0.0,0.0
16,3.75,37.4166,38.4066,132.494,99.1348,102.744,0.00424289,0.116388,20.8788,969.746,-0.345839,0.0,0.0
18,4.25,37.6248,39.0458,132.517,99.1441,101.935,0.00427166,0.116399,20.8787,982.327,-0.268531,0.0,0.0
20,4.75,37.6243,39.4089,131.13,99.1465,102.768,0.00429497,0.116401,20.8784,991.675,-0.346944,0.0,0.0
22,5.25,37.4564,39.6642,133.493,99.1628,102.274,0.0043188,0.116396,20.8782,998.751,-0.298784,0.0,0.0
24,5.75,37.6265,39.198,132.146,99.1571,102.59,0.0043381,0.116392,20.878,1003.07,-0.329164,0.0,0.0
26,6.25,37.8228,39.5877,137.444,99.1831,102.619,0.00434383,0.116377,20.8778,1005.09,-0.329347,0.0,0.0
28,6.75,38.1151,39.7694,130.934,99.177,100.937,0.00434848,0.116364,20.8779,1004.82,-0.170168,0.0,0.0
30,7.25,38.3094,39.5002,128.338,99.1888,102.45,0.00434481,0.116375,20.8782,1004.55,-0.312861,0.0,0.0
32,7.75,37.8998,39.7791,126.779,99.1916,102.03,0.00434185,0.116404,20.8784,1003.93,-0.272908,0.0,0.0
34,8.25,38.1579,39.6141,131.845,99.2078,102.267,0.00432956,0.116427,20.8786,1003.26,-0.293736,0.0,0.0
36,8.75,38.3091,39.5683,133.661,99.2139,102.754,0.00432431,0.116418,20.8787,1002.26,-0.33911,0.0,0.0
38,9.25,38.2836,39.799,133.495,99.2241,102.6,0.00430559,0.116411,20.8788,1000.87,-0.323588,0.0,0.0
40,9.75,37.9084,40.1524,132.932,99.2379,103.165,0.00428164,0.116337,20.8789,998.942,-0.375373,0.0,0.0
42,10.25,38.0122,40.0612,134.86,99.2655,103.123,0.00424859,0.116277,20.879,996.449,-0.368722,0.0,0.0
44,10.75,38.2873,40.0483,134.866,99.2566,101.824,0.00420952,0.116132,20.8791,993.377,-0.247004,0.0,0.0
46,11.25,37.8783,40.1061,134.196,99.2748,102.906,0.00417788,0.116007,20.8792,989.303,-0.347495,0.0,0.0
48,11.75,37.9312,39.8434,128.561,99.2842,101.798,0.00413002,0.115951,20.8792,983.438,-0.241807,0.0,0.0
50,12.25,38.5928,39.9068,134.693,99.3037,102.723,0.00409126,0.115854,20.8792,977.763,-0.327424,0.0,0.0
52,12.75,38.0308,40.1971,134.574,99.3069,102.872,0.00405656,0.115707,20.8793,971.367,-0.341165,0.0,0.0
54,13.25,37.9299,39.7391,134.164,99.3211,102.859,0.00402548,0.115589,20.8793,967.924,-0.338522,0.0,0.0
56,13.75,38.6236,40.5718,133.891,99.3297,102.434,0.0040003,0.115435,20.8798,964.972,-0.297675,0.0,0.0
58,14.25,38.4059,39.802,131.994,99.3536,102.418,0.00398855,0.115258,20.8801,962.229,-0.293771,0.0,0.0
60,14.75,38.6558,39.897,131.565,99.3593,101.27,0.00397903,0.115115,20.8806,959.607,-0.184253,0.0,0.0
62,15.25,38.1716,40.3454,129.963,99.3792,102.058,0.00401826,0.114916,20.8811,957.235,-0.257289,0.0,0.0
64,15.75,38.6651,40.1054,129.152,99.3849,102.052,0.00405003,0.114756,20.8815,954.433,-0.25612,0.0,0.0
66,16.25,38.3892,40.308,133.199,99.4109,102.833,0.00410897,0.11456,20.8818,951.08,-0.327381,0.0,0.0
68,16.75,38.7832,40.2505,132.289,99.4178,103.068,0.0041866,0.114343,20.882,947.086,-0.348719,0.0,0.0
70,17.25,37.9861,40.4086,132.503,99.4515,102.824,0.00428274,0.114167,20.8823,942.622,-0.322515,0.0,0.0
72,17.75,38.4806,40.1789,130.501,99.4531,102.598,0.00439054,0.113956,20.8824,937.768,-0.301139,0.0,0.0
74,18.25,38.6564,40.6,131.529,99.4783,101.818,0.00447787,0.113785,20.8826,932.754,-0.224808,0.0,0.0
76,18.75,38.3195,40.5478,129.954,99.4949,101.242,0.004578,0.113688,20.8827,928.19,-0.168347,0.0,0.0
78,19.25,38.7575,40.5061,132.714,99.5128,101.494,0.00468556,0.113609,20.8823,924.056,-0.190666,0.0,0.0
80,19.75,38.5899,40.6646,132.592,99.5233,102.283,0.00478183,0.113589,20.8821,920.163,-0.264525,0.0,0.0
82,20.25,38.278,40.5391,127.611,99.5509,101.668,0.00486806,0.113611,20.8801,916.159,-0.203503,0.0,0.0
84,20.75,38.6277,40.5713,130.601,99.5623,101.61,0.00494182,0.113867,20.8785,911.916,-0.196951,0.0,0.0
86,21.25,38.5223,40.82,133.402,99.5834,102.402,0.0050051,0.114289,20.875,907.562,-0.269967,0.0,0.0
88,21.75,38.4727,40.8405,131.332,99.5984,101.985,0.00506382,0.11463,20.8705,902.637,-0.229007,0.0,0.0
90,22.25,38.9677,40.7902,131.606,99.6338,102.066,0.00511138,0.115689,20.8655,898.414,-0.233314,0.0,0.0
92,22.75,39.099,40.7803,133.767,99.6443,102.431,0.00515115,0.117249,20.8614,895.551,-0.266777,0.0,0.0
94,23.25,38.9456,41.058,128.958,99.665,100.846,0.00518336,0.11929,20.8581,893.109,-0.113971,0.0,0.0
96,23.75,39.0876,41.435,130.48,99.6772,101.502,0.00520945,0.121643,20.851,891.368,-0.175432,0.0,0.0
98,24.25,39.5662,41.7599,129.86,99.7138,101.713,0.00522731,0.124506,20.8453,889.656,-0.192022,0.0,0.0
100,24.75,39.2634,41.7666,126.087,99.7231,101.284,0.00523884,0.127685,20.8389,888.795,-0.150184,0.0,0.0
102,25.25,39.4445,42.4136,126.494,99.7556,102.075,0.00524817,0.131413,20.8321,887.634,-0.222265,0.0,0.0
104,25.75,39.7025,41.5461,132.787,99.769,102.61,0.00525573,0.13547,20.8267,886.473,-0.271614,0.0,0.0
106,26.25,39.6124,42.1324,122.286,99.8039,101.558,0.00524943,0.138756,20.8199,884.772,-0.168524,0.0,0.0
108,26.75,39.9282,42.6556,126.479,99.812,99.9873,0.00524432,0.141418,20.8124,883.601,-0.0169698,0.0,1.0
110,27.25,40.5008,43.0177,130.575,99.8465,100.775,0.00522652,0.147717,20.8024,883.951,-0.0895172,0.0,1.0
112,27.75,40.9936,43.5009,125.755,99.8567,101.86,0.0052121,0.152818,20.7907,886.003,-0.192135,0.0,1.0
114,28.25,40.4877,43.4183,128.067,99.8887,101.867,0.00519918,0.159107,20.7764,890.006,-0.189722,0.0,1.0
116,28.75,40.6464,43.2159,129.692,99.9135,101.519,0.00518872,0.166141,20.7605,892.849,-0.154154,0.0,1.0
118,29.25,41.4089,44.2019,123.679,99.9403,99.3706,0.00519463,0.171838,20.7425,893.87,0.0552954,0.0,1.0
120,29.75,41.2981,44.5419,122.114,99.9549,100.174,0.00521236,0.180592,20.7234,894.34,-0.0211398,0.0,1.0
122,30.25,41.5538,44.7573,124.974,99.9744,98.1242,0.00525553,0.187683,20.7079,894.651,0.180681,0.0,1.0
124,30.75,41.9345,45.5343,121.118,99.9955,97.1693,0.00531642,0.195185,20.6883,894.801,0.277309,0.0,1.0
126,31.25,41.4668,45.1897,122.427,100.032,97.3406,0.00540838,0.202844,20.6725,894.891,0.263842,0.0,1.0
128,31.75,41.9011,45.2213,120.337,100.045,96.3792,0.00552123,0.210906,20.6522,894.871,0.361063,0.0,1.0
130,32.25,43.0322,46.3865,121.675,100.073,94.6277,0.00561264,0.219108,20.6357,894.811,0.541194,0.0,0.0
132,32.75,42.9756,46.2767,121.706,100.098,94.3395,0.00575245,0.227634,20.6224,894.841,0.573096,0.0,0.0
134,33.25,42.6495,47.2278,117.485,100.122,93.8226,0.00592488,0.236233,20.6042,895.011,0.628506,0.0,0.0
136,33.75,43.5595,47.6785,125.482,100.12,94.6139,0.00606456,0.24558,20.5894,895.201,0.547116,0.0,0.0
138,34.25,44.1482,48.1655,117.875,100.164,93.7362,0.00629804,0.255296,20.5682,895.461,0.641502,0.0,0.0
140,34.75,43.9508,48.6164,119.518,100.175,89.392,0.00648716,0.263166,20.5511,895.541,1.10149,0.0,0.0
142,35.25,44.1284,48.4589,116.617,100.207,89.6186,0.00677128,0.275584,20.5315,895.551,1.08014,0.0,0.0
144,35.75,44.5128,49.4864,115.077,100.228,89.7631,0.00700141,0.285643,20.5105,895.541,1.0666,0.0,0.0
146,36.25,45.4363,50.6803,115.284,100.248,89.807,0.00732667,0.29695,20.4857,895.531,1.06379,0.0,0.0
148,36.75,45.9695,51.5497,123.3,100.272,88.9617,0.00759013,0.308954,20.4585,895.581,1.15761,0.0,0.0
150,37.25,46.677,51.6381,114.894,100.289,85.1169,0.00790863,0.318677,20.4301,895.521,1.58653,0.0,0.0
152,37.75,46.9895,52.5199,118.281,100.309,87.0734,0.00816662,0.332532,20.4012,895.471,1.3686,0.0,0.0
154,38.25,47.5417,52.9588,114.526,100.337,85.7324,0.00847335,0.343754,20.3725,895.451,1.52142,0.0,0.0
156,38.75,47.6579,53.9234,111.041,100.345,83.5757,0.0087218,0.355707,20.3445,895.421,1.76866,0.0,0.0
158,39.25,47.8138,53.907,113.016,100.374,86.4352,0.00892305,0.367967,20.3218,895.391,1.4461,0.0,0.0
160,39.75,48.0717,54.842,114.192,100.389,83.7982,0.00921594,0.380289,20.2992,895.381,1.74721,0.0,0.0
162,40.25,49.3352,56.11,113.427,100.407,84.4478,0.00945318,0.392423,20.2772,895.301,1.67421,0.0,0.0
164,40.75,49.9333,57.0916,116.539,100.429,84.2217,0.00977054,0.404602,20.2552,895.281,1.70226,0.0,0.0
166,41.25,50.2879,57.5637,118.227,100.458,83.8733,0.0100276,0.416583,20.2337,895.261,1.7452,0.0,0.0
168,41.75,50.9955,58.3866,112.976,100.472,83.9614,0.0103833,0.429233,20.2112,895.171,1.73637,0.0,0.0
170,42.25,51.5584,59.4076,104.988,100.485,81.8848,0.0106713,0.442132,20.1884,895.141,1.97985,0.0,0.0
172,42.75,51.6895,60.0558,116.705,100.499,82.2201,0.0110488,0.452579,20.1699,895.161,1.94161,0.0,0.0
174,43.25,52.4216,60.52,117.047,100.523,80.5965,0.0113545,0.468855,20.137,895.051,2.1369,0.0,0.0
176,43.75,53.2324,61.3955,107.142,100.529,82.3054,0.0116804,0.482038,20.1103,894.991,1.93448,0.0,0.0
178,44.25,53.2988,62.177,110.942,100.562,77.7253,0.0120146,0.496464,20.0716,894.961,2.49146,0.0,0.0
180,44.75,54.137,63.2017,99.0362,100.587,78.2982,0.0122854,0.511522,20.0402,894.851,2.42282,0.0,0.0
182,45.25,54.908,64.5193,108.62,100.61,78.3778,0.0126692,0.5286,20.0051,894.831,2.41522,0.0,0.0
184,45.75,56.0737,65.459,103.172,100.636,79.709,0.0129801,0.546827,19.968,894.761,2.25485,0.0,0.0
186,46.25,56.7009,66.9753,101.788,100.635,78.1297,0.013232,0.56641,19.9379,894.651,2.44826,0.0,0.0
188,46.75,57.0133,67.825,111.932,100.658,76.3539,0.0136666,0.58661,19.9135,894.63,2.67286,0.0,0.0
190,47.25,58.3257,69.0507,99.7338,100.681,75.9645,0.0140187,0.602972,19.8831,894.56,2.72453,0.0,0.0
192,47.75,59.1903,70.5789,106.09,100.705,74.9049,0.0143038,0.628165,19.8488,894.58,2.8627,0.0,0.0
194,48.25,59.9227,71.5706,99.3285,100.72,75.4794,0.0148615,0.648571,19.8113,894.49,2.79024,0.0,0.0
196,48.75,61.0012,72.9887,99.4819,100.745,74.9171,0.0156372,0.67215,19.7556,894.45,2.86499,0.0,0.0
198,49.25,62.0392,74.5376,96.3273,100.753,75.0726,0.0159289,0.697596,19.7279,894.29,2.84571,0.0,0.0
200,49.75,62.9238,76.2789,96.5509,100.782,74.1132,0.0164275,0.718206,19.6805,894.2,2.97292,0.0,0.0
202,50.25,64.2029,78.0506,103.512,100.781,74.3284,0.0170894,0.734901,19.6175,894.19,2.94472,0.0,0.0
204,50.75,64.5053,79.9666,88.7739,100.804,72.8376,0.0176255,0.762311,19.5441,894.01,3.14291,0.0,0.0
206,51.25,66.4339,81.23,95.1702,100.799,72.9123,0.0182381,0.797012,19.4847,893.94,3.13256,0.0,0.0
208,51.75,67.2992,83.0393,96.8242,100.825,71.542,0.0188948,0.852012,19.3945,893.92,3.31847,0.0,0.0
210,52.25,68.35,84.5547,105.303,100.834,72.106,0.0195773,0.869152,19.3214,893.78,3.24339,0.0,0.0
212,52.75,69.5438,86.4939,84.2599,100.852,72.1263,0.0202657,0.906245,19.2376,893.73,3.24242,0.0,0.0
214,53.25,71.3883,88.7262,92.9964,100.85,70.3513,0.0208232,0.943294,19.1697,893.61,3.48327,0.0,0.0
216,53.75,72.168,90.568,87.6481,100.875,69.275,0.0215307,0.982384,19.1147,893.55,3.63472,0.0,0.0
218,54.25,73.2456,91.9059,87.7954,100.879,67.8215,0.0223341,1.02222,19.0408,893.52,3.84028,0.0,0.0
220,54.75,74.5342,93.9001,87.484,100.909,68.4894,0.0229848,1.05448,18.9809,893.359,3.74838,0.0,0.0
222,55.25,76.6559,96.951,87.3214,100.92,69.9513,0.0240705,1.09863,18.9139,893.299,3.54506,0.0,0.0
224,55.75,78.0063,99.0117,80.6504,100.937,69.1775,0.0249499,1.13438,18.843,893.469,3.65433,0.0,0.0
226,56.25,79.091,101.11,85.5216,100.915,67.9599,0.0261858,1.18557,18.7656,892.999,3.82394,0.0,0.0
228,56.75,80.5951,103.352,87.5619,100.948,66.3575,0.027187,1.22703,18.6848,892.939,4.05793,0.0,0.0
230,57.25,81.8864,105.528,81.9999,100.948,66.541,0.0286147,1.27507,18.5919,892.749,4.03126,0.0,0.0
232,57.75,83.8189,108.306,85.3835,100.964,66.7448,0.0297712,1.327,18.492,892.659,4.00319,0.0,0.0
234,58.25,84.8499,110.421,67.8358,100.972,65.9746,0.031283,1.36906,18.3814,892.509,4.11623,0.0,0.0
236,58.75,86.4577,112.422,68.3098,101,66.9157,0.0325076,1.43113,18.2652,892.429,3.98184,0.0,0.0
238,59.25,88.8023,116.275,69.3364,100.995,68.3359,0.0337924,1.48141,18.148,892.318,3.77825,0.0,0.0
240,59.75,90.7145,119.337,72.3902,101.015,66.1317,0.0350966,1.53692,18.0323,892.198,4.09734,0.0,0.0
242,60.25,93.1559,123.095,84.7858,101.017,64.8922,0.036153,1.59517,17.9386,892.028,4.28046,0.0,0.0
244,60.75,95.1265,125.629,89.5204,101.028,66.161,0.0377412,1.65599,17.8375,891.958,4.09427,0.0,0.0
246,61.25,96.7686,128.719,79.1773,101.029,67.9969,0.0390276,1.71753,17.7329,891.768,3.82962,0.0,0.0
248,61.75,98.2953,131.568,76.2471,101.047,64.4018,0.0403695,1.7823,17.6483,891.638,4.35676,0.0,0.0
250,62.25,100.776,135.085,92.5674,101.041,63.5626,0.0417262,1.8482,17.5283,891.428,4.48303,0.0,0.0
252,62.75,102.521,137.617,69.8279,101.063,65.9604,0.0431369,1.90158,17.4311,891.288,4.12702,0.0,0.0
254,63.25,104.724,141.29,69.7371,101.06,66.815,0.0445601,1.98386,17.2927,891.107,4.0022,0.0,0.0
256,63.75,107.059,144.479,76.6394,101.076,67.0432,0.0460409,2.05051,17.1807,890.977,3.97078,0.0,0.0
258,64.25,109.313,148.769,66.181,101.069,67.0119,0.0475355,2.12747,17.0135,890.797,3.97459,0.0,0.0
260,64.75,111.639,151.878,78.4529,101.1,64.4871,0.0490499,2.21048,16.8781,890.527,4.34901,0.0,0.0
262,65.25,112.812,155.324,70.15,101.083,67.4943,0.0505498,2.29645,16.7091,890.437,3.90654,0.0,0.0
264,65.75,115.247,159.099,56.7087,101.106,68.4037,0.052073,2.38294,16.5723,890.287,3.7793,0.0,0.0
266,66.25,117.739,163.161,70.35,101.101,64.1282,0.0535843,2.47527,16.3899,890.237,4.40307,0.0,0.0
268,66.75,119.292,167.307,89.6441,101.103,64.0697,0.0548085,2.5701,16.2422,890.057,4.41212,0.0,0.0
270,67.25,121.908,170.831,65.2941,101.102,69.6558,0.0558001,2.64691,16.1225,889.746,3.60344,0.0,0.0
272,67.75,124.596,175.046,74.4198,101.113,63.9207,0.0574315,2.75749,15.9808,889.676,4.43561,0.0,0.0
274,68.25,127.52,180.649,79.2208,101.113,63.2244,0.058753,2.84706,15.8257,889.456,4.54151,0.0,0.0
276,68.75,129.953,185.075,61.1464,101.117,65.6734,0.0602935,2.96554,15.6644,889.306,4.17429,0.0,0.0
278,69.25,132.117,189.19,61.757,101.117,64.6572,0.0615413,3.06152,15.5018,889.196,4.32516,0.0,0.0
280,69.75,134.288,193.625,57.6476,101.125,66.0229,0.0629135,3.16527,15.3701,888.855,4.12372,0.0,0.0
282,70.25,136.893,198.066,59.1741,101.122,64.9235,0.064025,3.27274,15.2338,888.795,4.28587,0.0,0.0
284,70.75,139.527,201.808,63.9263,101.123,61.786,0.0649253,3.35978,15.0968,888.465,4.76504,0.0,0.0
286,71.25,141.673,205.599,76.9684,101.124,66.1874,0.0660949,3.499,14.9255,888.175,4.09959,0.0,0.0
288,71.75,143.714,209.856,63.0607,101.128,71.1795,0.0670423,3.61176,14.7324,887.985,3.39667,0.0,0.0
290,72.25,145.83,213.952,50.6277,101.13,67.1362,0.0680423,3.75776,14.5255,887.825,3.96254,0.0,0.0
292,72.75,148.402,219.376,56.8118,101.136,72.1957,0.0688523,3.87601,14.3125,887.724,3.26029,0.0,0.0
294,73.25,150.92,223.752,73.5535,101.138,67.7115,0.0696885,3.9718,14.0808,887.384,3.88075,0.0,0.0
296,73.75,153.416,228.67,42.0897,101.126,69.6371,0.0703659,4.09792,13.8398,887.184,3.60836,0.0,0.0
298,74.25,156.329,233.857,60.1778,101.129,73.2789,0.0709146,4.24374,13.6445,887.044,3.11564,0.0,0.0
300,74.75,159.466,239.95,55.9661,101.121,71.0768,0.0713657,4.39058,13.3765,886.764,3.41001,0.0,0.0
302,75.25,162.241,244.509,40.8883,101.132,72.8745,0.0717311,4.53538,13.1594,886.463,3.16939,0.0,0.0
304,75.75,164.954,249.469,48.7279,101.117,71.0613,0.0717919,4.67923,12.947,886.233,3.41165,0.0,0.0
306,76.25,166.849,253.9,65.7154,101.131,67.7651,0.0718412,4.81967,12.742,885.963,3.8724,0.0,0.0
308,76.75,170.22,259.167,76.0227,101.122,71.225,0.0715496,4.93343,12.536,885.723,3.38995,0.0,0.0
310,77.25,172.791,263.756,58.2223,101.134,78.6465,0.0713133,5.09349,12.333,885.503,2.43237,0.0,0.0
312,77.75,174.672,268.112,43.3629,101.121,80.3217,0.0709159,5.22314,12.1687,885.252,2.22724,0.0,0.0
314,78.25,177.394,272.912,58.9513,101.129,74.9106,0.0704085,5.40179,11.9067,885.162,2.90263,0.0,0.0
316,78.75,180.353,278.957,59.3413,101.117,79.8584,0.0699975,5.5465,11.6945,884.732,2.28283,0.0,0.0
318,79.25,183.384,284.154,36.8521,101.117,75.8756,0.0693918,5.69766,11.4308,884.592,2.7777,0.0,0.0
320,79.75,185.85,288.693,50.5827,101.12,81.3939,0.0689012,5.85065,11.2171,884.271,2.09894,0.0,0.0
322,80.25,188.402,293.66,32.8724,101.117,76.373,0.0685783,6.00635,11.1261,883.991,2.71451,0.0,0.0
324,80.75,191.03,298.506,55.4623,101.117,72.106,0.068026,6.16106,10.8912,883.911,3.27058,0.0,0.0
326,81.25,193.408,302.598,36.1766,101.121,79.6189,0.0675787,6.28638,10.7009,883.381,2.31228,0.0,0.0
328,81.75,195.478,306.711,58.7658,101.116,78.5373,0.0669771,6.4603,10.4876,883.19,2.4441,0.0,0.0
330,82.25,198.006,311.912,57.5277,101.12,72.35,0.0664897,6.60117,10.2615,882.93,3.23817,0.0,0.0
332,82.75,200.872,317.165,26.6327,101.116,86.6065,0.0659837,6.79015,10.0212,882.65,1.49816,0.0,0.0
334,83.25,203.224,322.236,53.3763,101.117,79.4196,0.0655739,6.87071,9.7751,882.49,2.3361,0.0,0.0
336,83.75,206.964,328.704,37.3704,101.11,84.259,0.0652267,7.00848,9.57577,882.09,1.7634,0.0,0.0
338,84.25,209.304,333.496,45.1238,101.11,79.4403,0.0649318,7.18714,9.33958,881.809,2.33291,0.0,0.0
340,84.75,211.949,338.855,57.6827,101.108,79.6599,0.0647327,7.33185,9.14826,881.439,2.30601,0.0,0.0
342,85.25,214.639,342.442,36.5674,101.123,83.4653,0.0646072,7.47616,8.91812,881.199,1.85615,0.0,0.0
344,85.75,216.772,346.708,56.6103,101.108,80.2933,0.0645736,7.61743,8.7317,881.029,2.22942,0.0,0.0
346,86.25,219.549,350.909,53.0992,101.123,83.1592,0.0646074,7.75689,8.54692,880.648,1.89169,0.0,0.0
348,86.75,221.155,355.341,37.2903,101.106,80.3335,0.0647454,7.89239,8.29008,880.338,2.22446,0.0,0.0
350,87.25,223.526,360.227,60.7366,101.111,72.6654,0.0648449,8.02496,8.1879,880.098,3.1952,0.0,0.0
352,87.75,225.846,364.355,55.402,101.095,81.8348,0.065015,8.15289,8.01317,879.858,2.04428,0.0,0.0
354,88.25,227.9,367.628,33.6204,101.108,84.7929,0.0651527,8.2811,7.87164,879.547,1.70207,0.0,0.0
356,88.75,230.237,371.375,40.2419,101.103,86.5111,0.0657256,8.40708,7.71998,879.187,1.50758,0.0,0.0
358,89.25,232.459,376.301,57.9559,101.108,78.1062,0.0661896,8.50912,7.56381,878.817,2.49661,0.0,0.0
360,89.75,234.914,380.179,64.2171,101.09,82.7171,0.0670942,8.71102,7.39498,878.607,1.9401,0.0,0.0
362,90.25,237.116,383.106,30.1559,101.112,86.5054,0.0678269,8.76533,7.22011,878.306,1.50903,0.0,0.0
364,90.75,238.746,386.423,36.3102,101.105,83.5786,0.0694517,8.89445,7.03219,878.056,1.84132,0.0,0.0
366,91.25,241.043,390.974,47.4449,101.108,85.7291,0.0707678,9.03167,6.83833,877.636,1.59591,0.0,0.0
368,91.75,242.982,395.069,40.4044,101.108,90.42,0.0730332,9.14281,6.60239,877.385,1.08057,0.0,0.0
370,92.25,245.758,399.677,50.6735,101.115,86.7035,0.0748682,9.27675,6.34028,876.945,1.48718,0.0,0.0
372,92.75,247.435,404.653,47.6464,101.098,87.669,0.0776964,9.42476,6.12796,876.715,1.37852,0.0,0.0
374,93.25,249.765,409.238,39.6946,101.111,91.2223,0.0799873,9.60511,5.90346,876.395,0.995481,0.0,0.0
376,93.75,252.337,413.4,25.1542,101.124,87.4087,0.0818429,9.75119,5.67434,876.084,1.40976,0.0,0.0
378,94.25,255.44,419.49,40.9883,101.126,88.2788,0.083939,9.91963,5.48876,875.854,1.31411,0.0,0.0
380,94.75,258.146,425.287,54.6823,101.107,91.5714,0.0861707,10.0561,5.26742,875.504,0.958144,0.0,0.0
382,95.25,260.862,429.768,50.4888,101.12,86.4818,0.0879784,10.1862,5.08813,875.174,1.51244,0.0,0.0
384,95.75,263.333,435.184,39.9846,101.121,87.3515,0.0895474,10.3092,4.94291,874.853,1.41578,0.0,0.0
386,96.25,266.196,440.581,53.7488,101.11,91.3623,0.0909127,10.4089,4.77644,874.543,0.980486,0.0,0.0
388,96.75,268.589,444.882,56.9393,101.11,85.7714,0.0920185,10.501,4.6416,874.173,1.5913,0.0,0.0
390,97.25,269.866,448.424,54.5044,101.126,82.9379,0.0932486,10.5858,4.52705,873.792,1.91773,0.0,0.0
392,97.75,272.253,449.102,44.5299,101.102,81.7902,0.0942449,10.6544,4.42948,873.572,2.05022,0.0,0.0
394,98.25,274.85,448.837,50.3552,101.123,86.5411,0.095662,10.7172,4.34952,873.162,1.50613,0.0,0.0
396,98.75,276.209,446.701,37.1788,101.116,89.3388,0.0968098,10.768,4.28391,872.852,1.19773,0.0,0.0
398,99.25,278.271,446.264,53.4709,101.132,85.3077,0.0987226,10.8091,4.20924,872.631,1.64582,0.0,0.0
400,99.75,280.144,445.46,28.5095,101.112,89.8942,0.100272,10.8636,4.12937,872.381,1.1374,0.0,0.0
402,100.25,281.27,444.234,52.6901,101.12,85.7511,0.102079,10.9078,4.06468,871.971,1.59456,0.0,0.0
404,100.75,283.415,445.816,42.2897,101.134,87.6138,0.104039,10.9689,3.96388,871.61,1.38807,0.0,0.0
406,101.25,284.7,444.084,43.4736,101.127,91.4529,0.105938,11.0184,3.88223,871.43,0.972537,0.0,0.0
408,101.75,286.625,443.238,32.8236,101.128,90.5568,0.107757,11.0681,3.80158,871.07,1.06785,0.0,0.0
410,102.25,288.639,440.716,54.9128,101.13,82.6781,0.109229,11.1171,3.73625,870.61,1.9485,0.0,0.0
412,102.75,291.034,441.864,54.1693,101.115,90.3376,0.109919,11.1602,3.68333,870.389,1.09005,0.0,0.0
414,103.25,292.455,440.845,53.4915,101.139,81.646,0.110477,11.1982,3.64047,870.089,2.07081,0.0,0.0
416,103.75,293.598,440.149,34.6562,101.149,85.3183,0.110225,11.228,3.60575,869.819,1.64629,0.0,0.0
418,104.25,295.516,439.662,34.254,101.125,82.061,0.109388,11.2513,3.57763,869.579,2.0205,0.0,0.0
420,104.75,296.847,439.108,36.6003,101.135,88.5545,0.106985,11.2702,3.55485,869.298,1.28481,0.0,0.0
422,105.25,298.026,439.335,39.0542,101.131,91.7172,0.105039,11.2741,3.5628,868.958,0.945014,0.0,0.0
424,105.75,298.905,439.111,29.6125,101.132,90.5361,0.102649,11.2773,3.56924,868.578,1.07045,0.0,0.0
426,106.25,300.092,438.354,61.2686,101.121,84.6727,0.0999799,11.2573,3.68929,868.568,1.71703,0.0,0.0
428,106.75,301.599,437.395,55.8928,101.12,79.8645,0.0969141,11.2208,3.87197,868.187,2.28237,0.0,0.0
430,107.25,302.823,438.104,52.439,101.117,78.3352,0.0944308,11.1554,4.09685,867.857,2.46907,0.0,0.0
432,107.75,303.085,437.381,61.1586,101.123,76.1858,0.0921838,11.0702,4.279,867.647,2.73882,0.0,0.0
434,108.25,303.963,438.078,55.8653,101.123,72.2022,0.0901517,10.9486,4.62586,867.367,3.25826,0.0,0.0
436,108.75,303.875,438.357,55.7455,101.122,70.8389,0.0885058,10.8028,4.90681,867.197,3.44252,0.0,0.0
438,109.25,303.807,437.386,53.6518,101.116,69.8113,0.0870158,10.6158,5.13438,867.086,3.58323,0.0,0.0
440,109.75,303.378,437.923,66.3833,101.127,58.5116,0.0856678,10.4024,5.59633,866.876,5.29212,0.0,0.0
442,110.25,303.498,438.753,52.1222,101.119,60.1937,0.0842538,10.1365,5.97052,866.696,5.01722,0.0,0.0
444,110.75,302.892,440.294,66.4703,101.131,56.2389,0.0828185,9.83743,6.58423,866.706,5.67569,0.0,0.0
446,111.25,301.367,440.787,76.7791,101.124,57.0334,0.0809783,9.59515,7.08134,866.546,5.53931,0.0,0.0
448,111.75,299.058,441.29,73.3764,101.126,59.0082,0.078878,9.1733,7.86149,866.436,5.21031,0.0,0.0
450,112.25,297.44,443.281,73.5703,101.125,60.3544,0.0763595,8.83159,8.49342,866.426,4.992,0.0,0.0
452,112.75,295.597,446.419,79.1529,101.127,64.9864,0.073584,8.55482,9.51741,866.346,4.277,0.0,0.0
454,113.25,293.005,446.692,88.6869,101.126,69.8941,0.0703925,8.06988,10.3468,866.326,3.57277,0.0,0.0
456,113.75,290.737,449.201,94.4977,101.119,76.5102,0.0669584,7.67709,11.335,866.306,2.69726,0.0,0.0
458,114.25,287.557,447.634,105.388,101.129,88.3762,0.0632714,7.16415,12.1355,866.376,1.30376,0.0,0.0
460,114.75,283.202,439.675,104.602,101.128,94.2831,0.0594699,6.74867,13.0223,866.366,0.677908,0.0,0.0
462,115.25,279.267,431.576,108.242,101.118,97.587,0.0563908,6.25229,13.7406,866.346,0.34376,0.0,0.0
464,115.75,274.925,423.363,111.397,101.132,98.0361,0.0527535,5.85022,14.3224,866.356,0.300676,0.0,0.0
466,116.25,271.041,415.354,109.33,101.125,98.954,0.0487785,5.38723,14.7937,866.346,0.209913,0.0,0.0
468,116.75,266.94,407.503,110.314,101.122,99.7238,0.0455587,4.95471,15.3532,866.346,0.134693,0.0,0.0
470,117.25,261.98,399.061,111.554,101.128,100.005,0.0429506,4.55262,15.8064,866.356,0.108025,0.0,0.0
472,117.75,258.135,391.814,111.382,101.127,100.12,0.0391346,4.22693,16.2345,866.336,0.0968022,0.0,0.0
474,118.25,254.483,384.595,111.726,101.131,100.459,0.0360437,3.9042,16.6362,866.316,0.0644969,0.0,0.0
476,118.75,250.518,377.757,113.2,101.134,100.765,0.0328588,3.58976,17.0197,866.316,0.0353407,0.0,0.0
478,119.25,247.251,370.702,112.944,101.135,100.932,0.030279,3.33507,17.3825,866.316,0.0194926,0.0,0.0
480,119.75,243.817,364.644,113.838,101.133,100.898,0.0281894,3.12877,17.6764,866.306,0.0225277,0.0,0.0
482,120.25,240.445,358.097,113.888,101.124,100.995,0.0259184,2.8516,18.0288,866.316,0.0123374,0.0,0.0
484,120.75,236.827,351.469,113.234,101.131,101.009,0.0239023,2.62709,18.3142,866.316,0.0116372,0.0,0.0
486,121.25,233.036,345.517,113.428,101.127,101.23,0.0221103,2.39364,18.6196,866.326,-0.0098384,0.0,0.0
488,121.75,230.442,340.046,115.439,101.132,101.15,0.0205039,2.20455,18.867,866.346,-0.00172793,0.0,0.0
490,122.25,227.326,334.254,111.952,101.134,101.182,0.0190635,2.03235,19.1004,866.346,-0.00459928,0.0,0.0
492,122.75,224.496,328.468,111.771,101.134,101.07,0.0178968,1.87574,19.2894,866.336,0.00615739,0.0,0.0
494,123.25,222.055,323.629,114.294,101.128,101.081,0.0168008,1.73096,19.4425,866.316,0.00444727,0.0,0.0
496,123.75,218.65,318.262,113.364,101.129,101.243,0.0157771,1.59757,19.5982,866.326,-0.010924,0.0,0.0
498,124.25,216.332,313.526,112.928,101.117,101.274,0.0148605,1.48953,19.7243,866.336,-0.0149591,0.0,0.0
500,124.75,213.516,308.828,112.811,101.134,101.194,0.0140393,1.37807,19.8457,866.346,-0.00580251,0.0,0.0
502,125.25,210.826,303.98,115.071,101.121,101.138,0.0133742,1.28779,19.9441,866.356,-0.00157167,0.0,0.0
504,125.75,208.439,298.979,113.795,101.123,100.892,0.0126813,1.19353,20.0319,866.356,0.0221803,0.0,0.0
506,126.25,205.672,294.001,113.952,101.117,101.093,0.0120646,1.11718,20.1103,866.336,0.00227231,0.0,0.0
508,126.75,203.824,289.945,113.483,101.134,101.159,0.0115152,1.05534,20.1901,866.316,-0.00242565,0.0,0.0
510,127.25,200.862,285.975,116.781,101.119,101.252,0.0110189,0.986352,20.2547,866.306,-0.0127093,0.0,0.0
512,127.75,199.218,281.925,115.097,101.123,101.13,0.0105707,0.930473,20.313,866.316,-0.000639939,0.0,0.0
514,128.25,197.385,278.668,111.095,101.114,101.391,0.0102077,0.871882,20.3657,866.336,-0.0264295,0.0,0.0
516,128.75,194.812,274.645,112.332,101.114,101.181,0.00981139,0.824424,20.4126,866.336,-0.0063863,0.0,0.0
518,129.25,192.477,269.917,116.829,101.106,100.973,0.00949037,0.775109,20.4542,866.326,0.012768,0.0,0.0
520,129.75,190.216,266.35,113.941,101.114,101.19,0.00923035,0.735164,20.488,866.316,-0.0072782,0.0,0.0
522,130.25,188.866,262.798,112.125,101.105,101.339,0.00896009,0.693887,20.5153,866.336,-0.0223647,0.0,0.0
524,130.75,186.518,258.295,112.996,101.105,101.16,0.00868751,0.660452,20.5436,866.326,-0.00526086,0.0,0.0
526,131.25,184.555,255.972,116.558,101.095,100.918,0.00843499,0.628353,20.5666,866.326,0.01697,0.0,0.0
528,131.75,182.924,252.726,114.563,101.098,101.209,0.00820189,0.597838,20.5917,866.316,-0.0106175,0.0,0.0
530,132.25,181.278,249.355,113.498,101.089,101.079,0.00798865,0.573121,20.6121,866.296,0.000990381,0.0,0.0
532,132.75,179.778,245.689,115.879,101.094,101.096,0.00779394,0.545365,20.6326,866.306,-0.000251935,0.0,0.0
534,133.25,177.519,242.623,112.432,101.081,101.167,0.00762106,0.522883,20.6492,866.296,-0.00817365,0.0,0.0
536,133.75,175.928,239.3,115.578,101.084,101.299,0.00746738,0.500723,20.6683,866.326,-0.0205083,0.0,0.0
538,134.25,174.961,236.883,114.292,101.08,101.191,0.00733168,0.479218,20.6838,866.286,-0.0105413,0.0,0.0
540,134.75,172.434,233.44,111.278,101.082,101.285,0.00721169,0.459296,20.6994,866.296,-0.019424,0.0,0.0
542,135.25,171.559,231.137,115.009,101.067,101.168,0.00710066,0.440906,20.7121,866.306,-0.00968894,0.0,0.0
544,135.75,169.81,228.23,114.691,101.067,100.872,0.00699828,0.423767,20.7246,866.326,0.0187263,0.0,0.0
546,136.25,168.64,225.532,111.807,101.046,101.084,0.00691535,0.407866,20.7346,866.306,-0.0037105,0.0,0.0
548,136.75,167.056,222.814,114.407,101.066,100.958,0.00679568,0.393073,20.7437,866.296,0.010322,0.0,0.0
550,137.25,165.092,219.653,113.846,101.047,100.917,0.00669874,0.379369,20.7519,866.286,0.012464,0.0,0.0
552,137.75,164.128,217.158,114.368,101.041,101.177,0.00657651,0.366536,20.7586,866.286,-0.0130689,0.0,0.0
554,138.25,162.803,215.095,114.796,101.026,101.081,0.00647752,0.354581,20.7662,866.316,-0.00530412,0.0,0.0
556,138.75,161.557,212.599,116.14,101.02,100.699,0.00639733,0.344898,20.7723,866.286,0.0307766,0.0,0.0
558,139.25,160.265,210.382,115.813,101.008,101.292,0.00629756,0.333419,20.7773,866.286,-0.0271169,0.0,0.0
560,139.75,159.104,208.218,111.697,101.002,100.659,0.00621675,0.324121,20.7822,866.276,0.0328888,0.0,0.0
562,140.25,158.176,206.607,115.373,100.989,100.693,0.0061513,0.314868,20.7871,866.306,0.0284466,0.0,0.0
564,140.75,157.06,204.149,113.889,100.989,101.202,0.00608207,0.305823,20.7918,866.306,-0.0204124,0.0,0.0
566,141.25,155.482,201.03,112.651,100.966,100.759,0.006026,0.298496,20.7964,866.316,0.0197964,0.0,0.0
568,141.75,153.566,199.283,117.136,100.979,100.996,0.00597311,0.289775,20.8001,866.316,-0.00169161,0.0,0.0
570,142.25,153.512,198.017,113.461,100.947,101.061,0.00593027,0.28271,20.8049,866.306,-0.0109055,0.0,0.0
572,142.75,152.142,195.457,113.406,100.951,100.589,0.00588507,0.276988,20.8088,866.296,0.0347008,0.0,0.0
574,143.25,151.547,193.495,114.083,100.938,101.114,0.00583903,0.269285,20.8132,866.286,-0.0169282,0.0,0.0
576,143.75,150.27,192.057,116.179,100.93,101.087,0.00580173,0.263045,20.8168,866.256,-0.0149874,0.0,0.0
578,144.25,148.95,190.386,114.18,100.908,100.568,0.00573667,0.256908,20.8202,866.256,0.0326452,0.0,0.0
580,144.75,148.13,187.913,115.53,100.91,100.794,0.00568397,0.250962,20.8233,866.266,0.0110763,0.0,0.0
582,145.25,147.731,186.075,115.965,100.889,100.852,0.00562511,0.245278,20.8266,866.276,0.00348375,0.0,0.0
584,145.75,146.414,184.573,114.476,100.892,100.979,0.00557744,0.239892,20.8298,866.286,-0.00838483,0.0,0.0
586,146.25,145.284,182.608,115.417,100.867,100.544,0.00552763,0.235529,20.8327,866.276,0.0310179,0.0,0.0
588,146.75,145.319,181.418,115.208,100.856,100.39,0.00548729,0.230165,20.8352,866.306,0.0448194,0.0,0.0
590,147.25,143.535,179.279,113.57,100.854,100.58,0.00545585,0.225821,20.8375,866.296,0.0262586,0.0,0.0
592,147.75,142.349,177.519,115.417,100.828,100.969,0.00543039,0.221512,20.8396,866.316,-0.0134869,0.0,0.0
594,148.25,141.721,175.846,115.602,100.815,100.499,0.00540852,0.217311,20.8415,866.296,0.0303697,0.0,0.0
596,148.75,140.814,174.778,114.007,100.808,100.265,0.00539081,0.212786,20.8432,866.286,0.0522397,0.0,0.0
598,149.25,140.141,173.254,114.393,100.792,100.405,0.00536986,0.209121,20.8446,866.306,0.0371786,0.0,0.0
600,149.75,139.762,171.743,115.876,100.774,100.462,0.00534695,0.205165,20.8462,866.306,0.0299513,0.0,0.0
602,150.25,138.576,170.275,117.178,100.761,100.395,0.0053284,0.20196,20.8475,866.326,0.0352338,0.0,0.0
604,150.75,138.15,168.871,116.972,100.746,100.63,0.00529598,0.198492,20.8487,866.316,0.0111719,0.0,0.0
606,151.25,137.514,167.438,116.785,100.725,100.22,0.00526971,0.195684,20.8498,866.306,0.0485979,0.0,0.0
608,151.75,136.659,166.319,115.222,100.712,100.742,0.00524648,0.192555,20.8507,866.326,-0.00282873,0.0,0.0
610,152.25,135.708,164.992,116.825,100.688,100.236,0.00522589,0.19002,20.8518,866.326,0.0435213,0.0,0.0
612,152.75,134.958,163.679,117.896,100.678,100.211,0.00520595,0.187967,20.8528,866.316,0.0449364,0.0,0.0
614,153.25,133.923,162.065,116.008,100.668,100.442,0.00518686,0.185124,20.854,866.316,0.0217684,0.0,0.0
616,153.75,132.856,160.589,116.921,100.645,99.941,0.00516485,0.182822,20.8549,866.296,0.0678705,0.0,0.0
618,154.25,132.749,159.373,114.959,100.629,100.169,0.00514115,0.180466,20.8557,866.266,0.0443316,0.0,0.0
620,154.75,131.891,158.417,116.527,100.634,99.9593,0.00511281,0.178115,20.8563,866.276,0.0650879,0.0,0.0
622,155.25,131.385,157.174,111.832,100.608,100.304,0.00508162,0.175891,20.8573,866.276,0.029257,0.0,0.0
624,155.75,131.015,155.625,115.153,100.596,99.82,0.00504656,0.173803,20.8581,866.286,0.0749036,0.0,0.0
626,156.25,129.926,154.858,116.344,100.575,99.9715,0.00500935,0.171792,20.8591,866.276,0.0582103,0.0,0.0
628,156.75,129.562,154.192,116.098,100.551,100.014,0.00497921,0.169877,20.86,866.266,0.0518612,0.0,0.0
630,157.25,128.497,152.634,113.475,100.542,100.093,0.00494435,0.168325,20.8607,866.276,0.0432309,0.0,0.0
632,157.75,127.893,151.394,115.648,100.534,100.294,0.00490672,0.166506,20.8617,866.296,0.0231281,0.0,0.0
634,158.25,127.953,150.878,115.048,100.505,99.79,0.00487233,0.165033,20.8625,866.316,0.0691046,0.0,0.0
636,158.75,127.289,149.413,116.227,100.492,100.053,0.00484095,0.163306,20.8632,866.286,0.0423102,0.0,0.0
638,159.25,126.466,148.465,116.381,100.493,99.654,0.00481553,0.161907,20.8637,866.276,0.0811244,0.0,0.0
640,159.75,126.115,147.627,115.955,100.473,99.6215,0.00479483,0.160501,20.8642,866.256,0.0822837,0.0,0.0
642,160.25,124.926,146.47,115.082,100.459,99.6621,0.00477807,0.159117,20.8645,866.266,0.0770142,0.0,0.0
644,160.75,124.845,145.742,117.36,100.441,100.377,0.00477192,0.157996,20.8649,866.286,0.00607673,0.0,0.0
646,161.25,124.524,144.582,121.795,100.433,100.075,0.00476695,0.156584,20.8654,866.286,0.034602,0.0,0.0
648,161.75,123.663,143.251,116.394,100.415,99.5732,0.00476422,0.15544,20.8658,866.306,0.081424,0.0,0.0
650,162.25,123.318,142.805,116.611,100.398,99.4335,0.00476319,0.154052,20.8664,866.296,0.0933965,0.0,0.0
652,162.75,122.391,142.321,118.678,100.39,99.8074,0.00476235,0.152929,20.867,866.266,0.0563088,0.0,0.0
654,163.25,122.003,141.07,118.085,100.376,99.5724,0.00476755,0.151612,20.8675,866.276,0.0777085,0.0,0.0
656,163.75,121.795,140.465,113.673,100.352,99.7713,0.00477704,0.150546,20.8675,866.276,0.0561346,0.0,0.0
658,164.25,121.213,139.074,117.852,100.34,99.4546,0.00478473,0.14946,20.8674,866.266,0.0857482,0.0,0.0
660,164.75,120.732,138.4,120.253,100.325,99.8269,0.00479096,0.14858,20.8674,866.286,0.0481597,0.0,0.0
662,165.25,120.365,137.935,112.552,100.315,99.4745,0.004796,0.147867,20.8674,866.286,0.0813474,0.0,0.0
664,165.75,120.389,136.61,116.568,100.283,99.7384,0.00479487,0.14704,20.8674,866.266,0.0527076,0.0,0.0
666,166.25,119.308,135.616,116.559,100.302,99.384,0.00478925,0.146147,20.8674,866.266,0.0889796,0.0,0.0
668,166.75,118.201,134.747,114.183,100.271,99.561,0.00477688,0.145423,20.8673,866.266,0.0687131,0.0,0.0
670,167.25,118.918,134.745,115.799,100.268,99.1213,0.0047598,0.144447,20.8673,866.296,0.11121,0.0,0.0
672,167.75,118.074,133.86,115.801,100.24,100.116,0.00474076,0.143656,20.8673,866.286,0.0120483,0.0,0.0
674,168.25,117.182,132.502,118.839,100.237,99.3872,0.00472064,0.142826,20.8678,866.286,0.0823191,0.0,0.0
676,168.75,116.894,132.281,118.7,100.221,99.5845,0.00470108,0.141982,20.8681,866.266,0.0616468,0.0,0.0
678,169.25,117.307,131.542,115.134,100.22,99.5395,0.00468231,0.141175,20.8688,866.266,0.0658689,0.0,0.0
680,169.75,116.192,131.109,118.065,100.199,99.1461,0.0046671,0.140409,20.8694,866.266,0.102133,0.0,0.0
682,170.25,116.44,129.96,119.234,100.194,99.3937,0.00465106,0.139679,20.8701,866.256,0.0775335,0.0,0.0
684,170.75,115.313,129.116,120.704,100.167,99.0263,0.00463808,0.138989,20.8709,866.266,0.110767,0.0,0.0
686,171.25,115.152,128.813,117.367,100.17,99.1205,0.00462756,0.138314,20.8715,866.246,0.101845,0.0,0.0
688,171.75,114.704,128.172,117.649,100.151,99.3779,0.00460913,0.137661,20.872,866.246,0.0749185,0.0,0.0
690,172.25,113.601,126.95,116.185,100.144,99.613,0.0045942,0.137009,20.8725,866.256,0.0514002,0.0,0.0
692,172.75,112.954,126.343,116.337,100.117,99.6125,0.00457299,0.136369,20.8728,866.256,0.0488113,0.0,0.0
694,173.25,113.887,126.332,115.65,100.11,99.2281,0.0045476,0.135851,20.8731,866.256,0.0855882,0.0,0.0
696,173.75,113.642,126.076,122.969,100.091,99.1387,0.00453677,0.135264,20.8732,866.266,0.0924943,0.0,0.0
698,174.25,112.842,125.089,120.303,100.089,98.911,0.00449228,0.134637,20.8736,866.246,0.114504,0.0,0.0
700,174.75,112.71,124.063,116.646,100.065,98.7458,0.00443242,0.13413,20.8742,866.236,0.1284,0.0,0.0
702,175.25,111.766,124.134,117.414,100.056,99.3527,0.00441098,0.133566,20.8749,866.256,0.0682277,0.0,0.0
704,175.75,111.492,123.689,117.249,100.049,98.9284,0.00437432,0.132971,20.8756,866.266,0.108952,0.0,0.0
706,176.25,110.962,122.34,117.904,100.039,98.9682,0.00434918,0.13249,20.8762,866.256,0.10412,0.0,0.0
708,176.75,110.702,121.989,118.674,100.017,99.2569,0.00433291,0.132212,20.8767,866.266,0.0738303,0.0,0.0
710,177.25,110.844,122.045,118.526,100.011,98.8505,0.0043321,0.131737,20.8774,866.266,0.112925,0.0,0.0
712,177.75,109.875,121.435,116.016,99.9907,98.63,0.00434258,0.131264,20.8781,866.266,0.132517,0.0,0.0
714,178.25,110.62,120.662,116.865,99.9915,98.7364,0.00435107,0.130803,20.8787,866.266,0.122169,0.0,0.0
716,178.75,110.077,120.036,119.338,99.9675,98.8968,0.00439384,0.130343,20.8791,866.246,0.104155,0.0,0.0
718,179.25,109.438,119.604,120.241,99.9675,99.0023,0.00444022,0.129891,20.8795,866.256,0.0938372,0.0,0.0
720,179.75,109.439,118.68,121.502,99.9695,98.6304,0.00446556,0.129416,20.8799,866.266,0.130433,0.0,0.0
722,180.25,108.925,118.742,115.815,99.9476,99.062,0.00450887,0.128933,20.8806,866.276,0.0860831,0.0,0.0
724,180.75,108.631,118.374,117.012,99.9322,98.4522,0.00455179,0.128412,20.8811,866.266,0.144314,0.0,0.0
726,181.25,108.204,117.636,117.456,99.9261,98.6784,0.0045936,0.127872,20.8816,866.246,0.121534,0.0,0.0
728,181.75,107.998,117.155,116.299,99.9155,98.5647,0.00462942,0.127434,20.882,866.236,0.13166,0.0,0.0
730,182.25,107.672,116.312,117.403,99.903,98.6382,0.0046602,0.126914,20.8822,866.256,0.123232,0.0,0.0
732,182.75,107.616,116.168,117.737,99.8965,98.6386,0.00468252,0.126693,20.8825,866.266,0.122564,0.0,0.0
734,183.25,107.459,115.767,118.907,99.8766,98.4961,0.00469825,0.126263,20.8831,866.276,0.134621,0.0,0.0
736,183.75,107.594,114.943,119.441,99.8628,98.7393,0.00471099,0.125869,20.8836,866.266,0.109433,0.0,0.0
738,184.25,106.319,114.743,116.596,99.8644,98.4961,0.00470768,0.1255,20.884,866.276,0.133442,0.0,0.0
740,184.75,106.582,114.538,119.432,99.8522,98.2699,0.00470499,0.125155,20.8844,866.236,0.154494,0.0,0.0
742,185.25,105.881,113.949,120.246,99.8392,98.3471,0.00469173,0.12481,20.8846,866.266,0.145645,0.0,0.0
744,185.75,105.782,113.05,116.904,99.8181,98.1051,0.00467102,0.124472,20.8849,866.256,0.167427,0.0,0.0
746,186.25,105.791,113.204,117.72,99.8124,98.015,0.00465424,0.124198,20.885,866.276,0.175767,0.0,0.0
748,186.75,104.871,112.048,116.353,99.8047,98.1806,0.00463674,0.123839,20.8852,866.266,0.158687,0.0,0.0
750,187.25,104.806,112.102,120.2,99.8006,98.2106,0.00461904,0.123548,20.8838,866.276,0.155333,0.0,0.0
752,187.75,104.259,112.004,118.184,99.7803,98.3211,0.00460471,0.123261,20.8827,866.256,0.142497,0.0,0.0
754,188.25,104.234,111.617,118.8,99.7714,98.261,0.00458567,0.122983,20.8822,866.286,0.147544,0.0,0.0
756,188.75,104.272,111.043,118.297,99.7617,98.2699,0.00457024,0.122758,20.8819,866.286,0.145719,0.0,0.0
758,189.25,104.309,111.191,117.431,99.747,98.4051,0.0045528,0.122576,20.882,866.296,0.131004,0.0,0.0
760,189.75,104.096,110.594,117.465,99.7381,98.4859,0.00453867,0.122319,20.8821,866.296,0.122201,0.0,0.0
762,190.25,103.653,109.996,120.114,99.7308,98.3783,0.00453218,0.12211,20.8822,866.276,0.132065,0.0,0.0
764,190.75,103.288,109.8,120.695,99.7235,98.168,0.00452692,0.121831,20.8823,866.266,0.152054,0.0,0.0
766,191.25,102.283,108.58,115.596,99.7093,98.0962,0.00452989,0.121605,20.8823,866.276,0.157758,0.0,0.0
768,191.75,101.71,108.032,119.48,99.7036,98.367,0.00453879,0.121339,20.8824,866.276,0.130544,0.0,0.0
770,192.25,102.684,108.206,120.031,99.6943,98.412,0.004546,0.121124,20.8824,866.286,0.125207,0.0,0.0
772,192.75,102.265,107.949,123.175,99.6809,98.2078,0.00455928,0.120867,20.8825,866.266,0.143998,0.0,0.0
774,193.25,101.943,107.601,121.281,99.6654,97.9975,0.00457003,0.120659,20.8827,866.266,0.163236,0.0,0.0
776,193.75,101.732,107.238,116.65,99.6533,97.9305,0.00457874,0.12044,20.8829,866.256,0.168667,0.0,0.0
778,194.25,101.517,107.525,120.421,99.6411,97.9029,0.00459199,0.120217,20.883,866.246,0.170213,0.0,0.0
780,194.75,102.016,107.014,119.421,99.639,97.7535,0.00460989,0.120037,20.8831,866.236,0.184787,0.0,0.0
782,195.25,100.707,105.268,116.873,99.622,97.8396,0.00463085,0.119768,20.8831,866.236,0.174619,0.0,0.0
784,195.75,100.012,105.176,117.817,99.6155,98.0397,0.00464783,0.11955,20.8832,866.246,0.154222,0.0,0.0
786,196.25,100.695,105.958,122.5,99.6102,97.9398,0.0046777,0.119373,20.8832,866.236,0.163567,0.0,0.0
788,196.75,100.367,105.309,119.864,99.5972,98.4311,0.00470189,0.119189,20.8833,866.246,0.113913,0.0,0.0
790,197.25,100.363,105.202,118.752,99.5834,97.9403,0.00472645,0.11904,20.8833,866.266,0.160925,0.0,0.0
792,197.75,99.8235,104.442,118.26,99.5708,97.7348,0.00474634,0.118892,20.8833,866.276,0.180012,0.0,0.0
794,198.25,99.6017,104.012,116.402,99.5615,98.0608,0.00475625,0.118772,20.8834,866.246,0.146895,0.0,0.0
796,198.75,99.5986,104.916,119.493,99.5656,98.2776,0.00476047,0.118592,20.8834,866.246,0.125929,0.0,0.0
798,199.25,99.3139,103.315,119.218,99.5396,98.0596,0.0047677,0.118446,20.8834,866.266,0.144884,0.0,0.0
800,199.75,98.5525,103.496,117.878,99.5351,98.1294,0.00476507,0.118315,20.8834,866.266,0.137566,0.0,0.0
802,200.25,99.1569,103.526,119.75,99.5254,97.8229,0.00475531,0.118208,20.8834,866.256,0.166878,0.0,0.0
804,200.75,99.0365,103.232,120.197,99.5176,97.5087,0.00474864,0.118108,20.8834,866.246,0.197248,0.0,0.0
806,201.25,98.6108,102.834,118.798,99.5018,97.6374,0.00474324,0.118027,20.8834,866.246,0.182952,0.0,0.0
808,201.75,98.1129,102.415,121.86,99.5038,97.637,0.00474539,0.117992,20.8834,866.256,0.183189,0.0,0.0
810,202.25,98.7111,102.079,120.751,99.4819,97.5927,0.004753,0.117906,20.8834,866.236,0.185443,0.0,0.0
812,202.75,97.9209,101.975,120.596,99.4742,97.425,0.00476243,0.117836,20.8834,866.236,0.201324,0.0,0.0
814,203.25,98.1123,101.627,121.153,99.4539,97.7157,0.004773,0.117757,20.8834,866.236,0.170535,0.0,0.0
816,203.75,97.9623,101.457,123.579,99.458,97.557,0.00478157,0.117674,20.8834,866.236,0.186655,0.0,0.0
818,204.25,97.1,100.178,117.748,99.4267,97.4413,0.00478524,0.1176,20.8834,866.226,0.195092,0.0,0.0
820,204.75,96.5604,100.177,121.679,99.4271,97.3982,0.00478528,0.117533,20.8834,866.236,0.199404,0.0,0.0
822,205.25,97.1601,100.262,118.038,99.4169,97.6077,0.00477879,0.117479,20.8834,866.256,0.177636,0.0,0.0
824,205.75,96.8961,100.14,120.456,99.4222,97.4746,0.00476766,0.117449,20.8834,866.246,0.191353,0.0,0.0
826,206.25,96.5829,100.192,121.314,99.3979,97.3382,0.00475864,0.117424,20.8834,866.236,0.202529,0.0,0.0
828,206.75,96.5238,99.8511,118.448,99.4084,97.5079,0.00473765,0.117404,20.8834,866.236,0.186708,0.0,0.0
830,207.25,96.3268,99.1899,118.967,99.378,97.1725,0.00470832,0.117388,20.8834,866.226,0.217067,0.0,0.0
832,207.75,96.5497,99.1414,116.52,99.3812,97.4466,0.00467478,0.117375,20.8834,866.216,0.190144,0.0,0.0
834,208.25,95.7067,99.0887,115.111,99.3556,97.9833,0.00463882,0.117365,20.8834,866.246,0.134527,0.0,0.0
836,208.75,95.0882,98.5549,119.429,99.3512,97.3934,0.00460057,0.117356,20.8834,866.246,0.192499,0.0,0.0
838,209.25,95.6757,98.4199,122.981,99.3353,97.3548,0.00456139,0.117295,20.8834,866.246,0.194789,0.0,0.0
840,209.75,95.1979,98.1348,116.208,99.3362,97.6784,0.00452964,0.117245,20.8834,866.256,0.162775,0.0,0.0
842,210.25,94.9998,97.8864,123.398,99.3142,97.5911,0.00448909,0.117197,20.8828,866.236,0.169286,0.0,0.0
844,210.75,95.506,97.7422,119.597,99.3223,97.9614,0.00445624,0.117152,20.8818,866.226,0.13345,0.0,0.0
846,211.25,95.0078,97.8826,121.076,99.3049,97.0974,0.00442768,0.117115,20.881,866.226,0.217431,0.0,0.0
848,211.75,94.8391,97.8612,119.975,99.3073,97.7527,0.00440278,0.117085,20.8803,866.216,0.152612,0.0,0.0
850,212.25,94.5272,96.972,125.731,99.2842,97.2598,0.00438842,0.117061,20.8797,866.216,0.199249,0.0,0.0
852,212.75,94.4362,96.8985,120.786,99.2878,97.326,0.00438202,0.117035,20.8793,866.236,0.193027,0.0,0.0
854,213.25,94.3063,97.0312,118.88,99.2671,97.4547,0.00437682,0.117007,20.8789,866.246,0.178227,0.0,0.0
856,213.75,93.9117,96.6699,121.888,99.2716,97.2874,0.00438565,0.116991,20.8786,866.256,0.195278,0.0,0.0
858,214.25,94.2517,95.6446,123.446,99.2549,97.056,0.00440452,0.116985,20.8782,866.246,0.216691,0.0,0.0
860,214.75,94.2171,95.6057,120.915,99.2675,97.3881,0.00442631,0.116958,20.8779,866.246,0.184878,0.0,0.0
862,215.25,93.5886,95.5605,120.69,99.2521,97.1965,0.00444984,0.116917,20.8776,866.246,0.202424,0.0,0.0
864,215.75,93.5208,95.7905,122.03,99.2472,97.5424,0.00446889,0.116884,20.8774,866.226,0.167589,0.0,0.0
866,216.25,93.0504,95.047,120.163,99.2326,97.5663,0.0044868,0.116835,20.8773,866.226,0.163791,0.0,0.0
868,216.75,93.3689,94.9736,120.925,99.2338,97.0812,0.00450131,0.116775,20.8771,866.236,0.212125,0.0,0.0
870,217.25,93.196,94.7358,120.022,99.2103,97.0272,0.00449696,0.116734,20.877,866.216,0.215211,0.0,0.0
872,217.75,93.0917,94.8921,117.117,99.2123,97.1291,0.00449344,0.116707,20.8769,866.216,0.205255,0.0,0.0
874,218.25,92.52,94.3511,119.329,99.205,97.1116,0.00446708,0.116685,20.8768,866.236,0.206281,0.0,0.0
876,218.75,92.8483,94.1844,120.544,99.2046,97.259,0.00444573,0.116558,20.8768,866.216,0.191575,0.0,0.0
878,219.25,92.1193,94.1534,120.906,99.1766,97.0552,0.00440988,0.116455,20.8767,866.226,0.209132,0.0,0.0
880,219.75,92.0266,93.5657,120.469,99.1823,96.7621,0.00438084,0.11633,20.8767,866.206,0.238943,0.0,0.0
882,220.25,91.8069,93.6051,118.099,99.1701,97.2265,0.00435732,0.116229,20.8767,866.216,0.191439,0.0,0.0
884,220.75,92.0298,93.4171,121.686,99.1616,97.0726,0.00433456,0.116106,20.8766,866.236,0.205928,0.0,0.0
886,221.25,91.8659,92.907,121.209,99.1567,96.8286,0.00431613,0.116006,20.8766,866.236,0.229795,0.0,0.0
888,221.75,91.2963,93.0528,120.378,99.1522,97.149,0.00431109,0.11594,20.8766,866.236,0.197414,0.0,0.0
890,222.25,91.9491,93.1213,118.728,99.1437,97.2976,0.00430701,0.115899,20.8766,866.226,0.1818,0.0,0.0
892,222.75,91.9483,92.7184,120.658,99.149,96.7641,0.00430115,0.11583,20.8768,866.236,0.235492,0.0,0.0
894,223.25,91.2064,92.5298,122.35,99.1279,96.9854,0.00429411,0.115742,20.8772,866.196,0.211341,0.0,0.0
896,223.75,91.1523,92.62,120.73,99.1222,96.9553,0.00428451,0.11567,20.8775,866.216,0.213783,0.0,0.0
898,224.25,90.9018,92.3796,120.381,99.1136,96.9001,0.00427322,0.115516,20.8779,866.216,0.218461,0.0,0.0
900,224.75,90.6415,91.4863,119.85,99.1234,96.7543,0.00427123,0.115392,20.8783,866.226,0.233971,0.0,0.0
902,225.25,90.9175,91.5489,124.45,99.1124,97.3215,0.00427606,0.115304,20.8785,866.216,0.176368,0.0,0.0
904,225.75,90.1519,91.6295,121.183,99.1043,96.9123,,0.115233,,866.236,0.216334,0.0,0.0
906,226.25,90.5735,91.0444,117.868,99.1067,96.7755,,0.115184,,866.226,0.230236,0.0,0.0
908,226.75,90.3908,91.4106,120.85,99.1128,97.138,,0.115151,,866.226,0.194663,0.0,0.0
910,227.25,90.5824,91.4035,122.225,99.1051,96.7129,,0.115081,,866.216,0.236328,0.0,0.0
912,227.75,89.9319,90.6322,122.45,99.1027,96.5034,,0.114985,,866.226,0.257064,0.0,0.0
914,228.25,90.0207,90.8962,122.252,99.0978,96.8193,,0.114907,,866.196,0.224983,0.0,0.0
916,228.75,89.8744,90.4231,123.395,99.0946,96.8834,,,,866.216,0.21826,0.0,0.0
918,229.25,89.6266,90.3887,121.631,99.1092,96.503,,,,866.216,0.257739,0.0,0.0
920,229.75,89.2153,90.5878,120.689,99.1007,96.8169,,,,866.226,0.225504,0.0,0.0
922,230.25,89.141,89.778,118.359,99.1027,96.5615,,,,866.226,0.251247,0.0,0.0
924,230.75,88.7237,89.7239,123.273,99.0966,96.7008,,,,866.226,0.236714,0.0,0.0
926,231.25,88.7406,89.5672,124.33,99.0897,96.4206,,,,866.226,0.264101,0.0,0.0
928,231.75,88.9742,89.6566,118.977,99.0958,96.6707,,,,866.236,0.23964,0.0,0.0
930,232.25,88.9853,89.3898,122.271,99.099,97.1851,,,,866.246,0.188627,0.0,0.0
932,232.75,88.3804,89.6422,122.461,99.0974,96.9642,,,,866.236,0.210475,0.0,0.0
934,233.25,88.6714,89.3935,120.943,99.099,96.6484,,,,866.236,0.242192,0.0,0.0
936,233.75,88.0632,89.4204,122.128,99.0946,96.6228,,,,866.206,0.244316,0.0,0.0
938,234.25,87.9628,88.3319,120.103,99.1023,96.8818,,,,866.206,0.219176,0.0,0.0
940,234.75,87.496,87.9488,118.07,99.1043,96.9529,,,,866.186,0.212283,0.0,0.0
942,235.25,88.0153,88.8225,124.89,99.1031,96.8177,,,,866.216,0.22566,0.0,0.0
944,235.75,87.5719,88.1908,121.774,99.0974,96.3695,,,,866.206,0.269986,0.0,0.0
946,236.25,87.4611,88.2991,122.93,99.1092,96.6606,,,,866.206,0.241964,0.0,0.0