File: 01_Data/LDPE/Cone/LDPE_Cone_HF50Scan_220202_R3.csv
Names,Time,Stack TC,Smoke TC,Exh Press,Smoke Comp,Smoke Meas,CO Meter,CO2 Meter,O2 Meter,Sample Mass,Ext Coeff,Start Test,Flame Verif
Chan Gain,,500,500,1,1,1,1,1,1,1,1,1.0,1.0
Offset,,0,0,0.14021,0,0,0,0,0,0,0,0.0,0.0
Gain,,1,1,25.011,13.3046,13.3037,1,1,1,1.00087,1.10262,1.0,1.0
Units,sec,C,C,Pa,%,%,%,%,%,g,/m,,
Baseline,,38.8542,39.5654,135.107,100.704,100.183,0.00449386,0.105077,20.901,-1.6828,0.0503756,,
3,0.5,35.057,34.9926,138.15,100.977,100.398,0.00466702,0.117432,20.8816,896.562,0.0556336,0.0,0.0
6,1.25,35.4235,35.2425,135.027,101.048,100.884,0.00465982,0.117285,20.8826,896.622,0.0156935,0.0,0.0
9,2,35.3836,35.3058,138.495,101.113,100.379,0.00463279,0.117041,20.8833,896.622,0.0704531,0.0,0.0
12,2.75,35.192,35.524,134.131,101.162,100.839,0.00459303,0.116768,20.8842,896.592,0.0309294,0.0,0.0
15,3.5,35.2445,35.8023,132.03,101.183,101.13,0.00454301,0.116491,20.8851,896.632,0.00506728,0.0,0.0
18,4.25,35.0009,35.5184,135.896,101.195,101.042,0.00449497,0.116228,20.8857,906.331,0.0145826,0.0,0.0
21,5,34.9233,35.3302,135.205,101.192,101.017,0.00445549,0.115899,20.8862,925.067,0.0167214,0.0,0.0
24,5.75,35.1717,35.2001,136.257,101.183,100.554,0.00442606,0.115595,20.8865,935.636,0.0603625,0.0,0.0
27,6.5,34.8283,36.001,135.735,101.149,100.493,0.0044035,0.115262,20.8874,945.475,0.062883,0.0,0.0
30,7.25,35.4913,35.5376,135.525,101.105,100.51,0.00438705,0.114895,20.8882,954.132,0.0570883,0.0,0.0
33,8,35.4596,35.7691,136.138,101.035,100.426,0.00437505,0.114518,20.8893,961.038,0.0585335,0.0,0.0
36,8.75,35.1095,35.7256,135.573,100.961,100.448,0.00436631,0.114145,20.89,966.994,0.0493069,0.0,0.0
39,9.5,34.4303,35.8183,136.896,100.891,100.91,0.00435994,0.113793,20.8905,971.568,-0.00181096,0.0,0.0
42,10.25,35.2147,35.8816,135.568,100.798,100.001,0.00435529,0.113401,20.8909,974.55,0.0767958,0.0,0.0
45,11,35.6891,36.0718,136.892,100.692,99.5642,0.00435581,0.112803,20.8912,976.432,0.108928,0.0,0.0
48,11.75,35.2884,35.7609,133.987,100.692,99.4818,0.00436287,0.112298,20.8921,977.423,0.116976,0.0,0.0
51,12.5,35.7035,35.7558,139.378,100.741,100.698,0.00437974,0.111901,20.8927,978.043,0.00411189,0.0,0.0
54,13.25,35.8932,36.1279,132.707,100.786,100.354,0.00441209,0.111514,20.8931,977.563,0.0414848,0.0,0.0
57,14,35.6831,35.7011,137.972,100.822,100.131,0.00444996,0.111109,20.8934,976.132,0.0664964,0.0,0.0
60,14.75,35.0582,35.9569,140.116,100.876,99.8915,0.00450199,0.110733,20.8943,974.54,0.0948808,0.0,0.0
63,15.5,35.9497,36.1874,137.359,100.938,100.358,0.00455052,0.110409,20.8948,972.559,0.0557333,0.0,0.0
66,16.25,35.7176,36.595,134.854,100.991,100.336,0.00458962,0.110144,20.895,969.916,0.0628635,0.0,0.0
69,17,35.6066,36.1299,137.382,101.03,100.915,0.0046197,0.1099,20.8952,966.513,0.0111028,0.0,0.0
72,17.75,35.623,36.4811,138.673,101.1,100.488,0.00463693,0.109709,20.8961,962.159,0.0587318,0.0,0.0
75,18.5,35.6029,36.6178,135.767,101.143,99.9986,0.00464095,0.109592,20.8967,957.816,0.110051,0.0,0.0
78,19.25,35.7987,36.3936,138.928,101.195,100.834,0.00464475,0.109557,20.8974,953.292,0.0345801,0.0,0.0
81,20,35.6253,36.0589,140.29,101.235,100.971,0.00464622,0.109516,20.8979,948.387,0.0252283,0.0,0.0
84,20.75,35.5377,36.2523,138.456,101.283,100.797,0.00464506,0.109448,20.8976,942.412,0.0465419,0.0,0.0
87,21.5,35.9132,36.1927,138.481,101.326,100.524,0.00464422,0.109478,20.8974,939.38,0.0769056,0.0,0.0
90,22.25,35.6814,36.3197,137.894,101.368,101.435,0.0046436,0.109498,20.897,933.194,-0.00640706,0.0,0.0
93,23,35.3407,36.5366,135.635,101.411,100.117,0.0046425,0.109488,20.8964,928.71,0.124184,0.0,0.0
96,23.75,35.8941,36.61,135.516,101.426,100.483,0.00464058,0.109508,20.8959,923.025,0.0903802,0.0,0.0
99,24.5,36.1852,36.2958,137.964,101.452,100.699,0.00463272,0.109534,20.8955,909.884,0.0721287,0.0,0.0
102,25.25,35.1417,36.677,136.584,101.484,100.68,0.00461594,0.109651,20.8953,908.503,0.0769811,0.0,0.0
105,26,35.7986,36.9119,141.586,101.49,101.206,0.00460724,0.109775,20.8953,904.149,0.027106,0.0,0.0
108,26.75,35.8192,36.5785,136.837,101.497,100.912,0.0046009,0.109909,20.8953,899.585,0.0558961,0.0,0.0
111,27.5,35.5488,36.4411,133.974,101.5,100.912,0.00464222,0.110081,20.8954,895.381,0.0562045,0.0,0.0
114,28.25,35.7003,36.4268,137.354,101.515,100.605,0.00469839,0.110166,20.8954,892.689,0.0871001,0.0,0.0
117,29,35.9113,36.5539,136.157,101.501,100.975,0.00475044,0.110211,20.8948,890.487,0.0502142,0.0,0.0
120,29.75,35.8327,36.1511,136.285,101.482,101.276,0.00482909,0.11034,20.8943,888.966,0.0196998,0.0,0.0
123,30.5,35.4539,37.0486,136.144,101.493,100.639,0.00491123,0.110471,20.8938,887.905,0.0816938,0.0,0.0
126,31.25,36.1375,36.532,142.238,101.471,100.575,0.00497235,0.110628,20.8928,886.894,0.0857722,0.0,0.0
129,32,35.4072,36.4223,138.737,101.439,99.6791,0.00501743,0.110783,20.8916,886.724,0.169309,0.0,0.0
132,32.75,36.1796,36.9178,138.078,101.404,100.636,0.00503613,0.110936,20.8908,886.343,0.0736061,0.0,0.0
135,33.5,36.1797,37.0747,133.024,101.369,100.063,0.00504584,0.111084,20.8902,886.113,0.125412,0.0,0.0
138,34.25,36.0971,37.0936,138.529,101.339,101.116,0.00504621,0.11125,20.8897,895.832,0.0213577,0.0,0.0
141,35,35.8573,36.5208,133.048,101.307,100.941,0.00506152,0.111481,20.8894,896.462,0.0349696,0.0,0.0
144,35.75,35.7261,36.9142,138.815,101.242,100.186,0.00509838,0.111696,20.8892,896.482,0.101473,0.0,0.0
147,36.5,35.376,36.8212,136.703,101.212,100.612,0.00518377,0.112107,20.8881,896.452,0.0575353,0.0,0.0
150,37.25,35.9672,36.5708,134.896,101.156,100.476,0.00528086,0.112601,20.8865,896.442,0.0652241,0.0,0.0
153,38,35.9222,36.4572,136.728,101.116,100.19,0.00537764,0.113294,20.8846,896.452,0.0889328,0.0,0.0
156,38.75,35.7982,36.6438,136.253,101.065,99.17,0.00546724,0.11439,20.8801,896.412,0.183037,0.0,0.0
159,39.5,35.8116,37.4788,133.591,100.996,98.3962,0.00556277,0.115903,20.8768,896.432,0.252234,0.0,0.0
162,40.25,35.7374,37.2433,134.111,100.945,99.7871,0.00563242,0.117799,20.8717,896.442,0.111604,0.0,1.0
165,41,36.1432,37.2694,129.779,100.9,99.7189,0.00569566,0.120793,20.8669,896.402,0.11386,0.0,1.0
168,41.75,36.5016,37.7904,132.679,100.835,99.4258,0.00576308,0.123697,20.8592,896.422,0.136104,0.0,1.0
171,42.5,36.333,37.5903,131.437,100.777,98.1299,0.00580511,0.127048,20.8501,896.392,0.25743,0.0,1.0
174,43.25,36.8804,37.9626,133.378,100.73,99.021,0.00583451,0.12949,20.8398,896.392,0.165469,0.0,1.0
177,44,37.0809,38.5672,128.503,100.685,99.5618,0.00585541,0.134844,20.8289,896.402,0.108462,0.0,1.0
180,44.75,36.5453,37.8348,131.109,100.624,98.5683,0.00587064,0.139757,20.8152,896.352,0.199645,0.0,1.0
183,45.5,36.8223,38.911,129.399,100.553,97.8781,0.00587519,0.145067,20.8028,896.392,0.260777,0.0,0.0
186,46.25,36.5493,38.6914,132.062,100.512,99.371,0.00586728,0.151228,20.7894,896.372,0.110426,0.0,0.0
189,47,37.777,39.0966,130.464,100.471,97.967,0.0058384,0.157348,20.777,896.332,0.244064,0.0,0.0
192,47.75,37.4598,39.8,129.436,100.42,98.3186,0.00581736,0.162504,20.7668,896.272,0.204526,0.0,0.0
195,48.5,38.0115,40.3406,129.949,100.35,97.9727,0.00578069,0.169045,20.7555,896.312,0.231926,0.0,0.0
198,49.25,38.1491,40.6208,132.071,100.311,97.6268,0.0057577,0.175748,20.7437,896.262,0.262339,0.0,0.0
201,50,38.3401,40.8,128.519,100.268,97.5992,0.00574777,0.18146,20.732,896.212,0.260923,0.0,0.0
204,50.75,38.3194,40.4919,130.482,100.226,95.961,0.00574951,0.188401,20.719,896.182,0.420572,0.0,0.0
207,51.5,39.019,41.7759,124.745,100.173,96.5363,0.00575788,0.194592,20.7053,896.172,0.357704,0.0,0.0
210,52.25,39.179,41.0797,126.903,100.122,95.8506,0.00576274,0.20104,20.691,896.152,0.421712,0.0,0.0
213,53,39.6354,42.6893,125.973,100.092,94.9298,0.00576575,0.208369,20.6768,896.122,0.512135,0.0,0.0
216,53.75,40.348,43.1168,127.68,100.056,95.2278,0.00576794,0.21561,20.6613,896.112,0.478367,0.0,0.0
219,54.5,40.6736,43.6969,127.641,100.008,96.4304,0.00577873,0.222791,20.648,896.072,0.352357,0.0,0.0
222,55.25,40.6214,43.7783,128.862,99.9695,94.0374,0.00580229,0.229892,20.6348,896.092,0.59167,0.0,0.0
225,56,41.2395,44.4574,126.473,99.9354,93.8141,0.00585803,0.238008,20.6229,896.012,0.611364,0.0,0.0
228,56.75,41.3214,44.9304,128.387,99.9131,94.5607,0.00591509,0.245279,20.6102,895.982,0.532531,0.0,0.0
231,57.5,41.4977,45.4456,123.861,99.8689,93.2193,0.00603329,0.252896,20.5945,895.952,0.666433,0.0,0.0
234,58.25,42.175,45.6807,123.808,99.8356,91.9989,0.006192,0.26021,20.5735,895.902,0.790671,0.0,0.0
237,59,42.3291,46.513,123.124,99.8201,91.8187,0.0063802,0.268552,20.5629,895.932,0.808146,0.0,0.0
240,59.75,43.7257,47.6405,128.628,99.8059,91.582,0.00658846,0.277712,20.5407,895.852,0.831734,0.0,0.0
243,60.5,43.9321,47.5948,120.594,99.7799,89.6981,0.00684598,0.287053,20.5189,895.872,1.03024,0.0,0.0
246,61.25,43.6695,48.4276,122.088,99.7527,91.3964,0.00707809,0.296172,20.5005,895.822,0.846194,0.0,0.0
249,62,44.4351,49.485,121.573,99.7479,87.0559,0.00732319,0.306581,20.4797,895.742,1.31632,0.0,0.0
252,62.75,45.0724,50.086,124.609,99.7405,88.6771,0.0075756,0.317073,20.4645,895.701,1.13716,0.0,0.0
255,63.5,45.2904,50.724,122.906,99.7227,87.5691,0.0077596,0.325959,20.4446,895.661,1.25703,0.0,0.0
258,64.25,46.5055,51.7358,118.41,99.7008,87.5922,0.00802707,0.337151,20.4265,895.661,1.25235,0.0,0.0
261,65,46.4495,52.2551,117.543,99.6894,86.7933,0.00829422,0.34882,20.4077,895.601,1.33988,0.0,0.0
264,65.75,47.3315,53.2194,118.932,99.6878,86.801,0.00851973,0.358823,20.3874,895.521,1.33886,0.0,0.0
267,66.5,48.3291,54.2403,114.498,99.6886,86.8834,0.00879084,0.371266,20.3682,895.491,1.32976,0.0,0.0
270,67.25,48.6011,54.9078,118.434,99.6654,88.1221,0.00917825,0.382533,20.3341,895.411,1.1906,0.0,0.0
273,68,49.046,55.7998,120.911,99.6581,85.4746,0.00935396,0.397196,20.3126,895.321,1.48493,0.0,0.0
276,68.75,50.1372,57.2645,111.961,99.6638,86.5497,0.00961872,0.410678,20.2877,895.271,1.36458,0.0,0.0
279,69.5,50.7851,58.3518,108.012,99.6598,83.6752,0.00991731,0.42528,20.254,895.231,1.69087,0.0,0.0
282,70.25,51.6629,59.1631,108.482,99.6524,83.9017,0.0102718,0.449384,20.2154,895.231,1.66401,0.0,0.0
285,71,52.3994,60.2295,106.733,99.6415,81.9749,0.0106481,0.461418,20.1755,895.161,1.88766,0.0,0.0
288,71.75,52.8155,61.371,111.666,99.6581,83.8542,0.0110303,0.479555,20.1367,895.071,1.67004,0.0,0.0
291,72.5,54.1072,63.1567,111.605,99.6598,83.0686,0.0114073,0.500702,20.0895,894.951,1.76124,0.0,0.0
294,73.25,55.0905,64.2408,106.479,99.6528,79.5328,0.011855,0.519498,20.0261,894.851,2.18128,0.0,0.0
297,74,56.4877,65.8839,101.805,99.6512,80.6907,0.0122797,0.544742,19.962,894.771,2.04132,0.0,0.0
300,74.75,57.5078,67.845,110.172,99.6553,80.1223,0.0126312,0.571388,19.8999,894.731,2.11009,0.0,0.0
303,75.5,58.6033,69.4711,107.777,99.6589,79.8251,0.0130184,0.598862,19.8466,894.63,2.14639,0.0,0.0
306,76.25,60.2639,71.8375,105.921,99.6496,78.5174,0.0133565,0.626644,19.794,894.54,2.30524,0.0,0.0
309,77,60.4266,72.5601,101.236,99.6476,78.3851,0.0137397,0.657528,19.7492,894.43,2.32136,0.0,0.0
312,77.75,62.2457,75.1754,104.971,99.6638,80.5434,0.0141432,0.688118,19.7055,894.32,2.06023,0.0,0.0
315,78.5,63.7733,76.61,103.672,99.6801,76.6361,0.0145502,0.713861,19.6568,894.24,2.54278,0.0,0.0
318,79.25,64.5818,78.8433,103.019,99.7089,77.025,0.0150711,0.744622,19.5977,894.08,2.49661,0.0,0.0
321,80,65.9364,80.7458,100.009,99.6898,75.8318,0.0156311,0.772159,19.5321,893.95,2.64576,0.0,0.0
324,80.75,67.3061,82.4896,96.0945,99.689,76.615,0.0162317,0.807437,19.4631,893.93,2.54631,0.0,0.0
327,81.5,68.5844,84.7795,104.036,99.7158,76.1594,0.016867,0.842213,19.389,893.8,2.60659,0.0,0.0
330,82.25,70.7616,87.4247,99.069,99.7235,75.1996,0.0174871,0.876528,19.335,893.69,2.73,0.0,0.0
333,83,72.0924,89.4597,94.5786,99.7324,74.4437,0.0182073,0.910267,19.2701,893.57,2.82859,0.0,0.0
336,83.75,73.303,92.0872,100.025,99.7235,74.41,0.0189766,0.949227,19.2036,893.399,2.8321,0.0,0.0
339,84.5,75.2722,94.2861,86.407,99.7385,74.7474,0.0196973,0.983957,19.1383,893.319,2.7898,0.0,0.0
342,85.25,76.6494,96.8602,92.7132,99.7475,75.2703,0.0203775,1.0201,19.0762,893.199,2.72324,0.0,0.0
345,86,78.7787,99.5128,99.8994,99.756,73.1961,0.0210214,1.05764,19.0192,893.029,2.99434,0.0,0.0
348,86.75,80.4216,102.002,85.7552,99.758,74.6337,0.0214908,1.09533,18.9576,892.899,2.80641,0.0,0.0
351,87.5,81.5027,103.979,81.0946,99.7767,74.2987,0.0221584,1.1323,18.9034,892.809,2.85173,0.0,0.0
354,88.25,83.3158,106.871,85.8544,99.782,72.093,0.0228851,1.1721,18.8482,892.639,3.14373,0.0,0.0
357,89,85.0036,109.597,94.0688,99.7881,72.2119,0.023588,1.20659,18.7759,892.559,3.12838,0.0,0.0
360,89.75,86.6373,111.916,86.3017,99.7889,71.2047,0.0242675,1.24872,18.7232,892.379,3.26432,0.0,0.0
363,90.5,88.9682,115.238,92.7788,99.8063,70.9493,0.0250482,1.28667,18.651,892.228,3.30076,0.0,0.0
366,91.25,90.7151,117.906,83.0166,99.8185,70.5104,0.0260039,1.33009,18.5691,892.028,3.36196,0.0,0.0
369,92,92.7456,120.759,89.3487,99.8356,70.6907,0.0268515,1.37616,18.4836,891.908,3.33892,0.0,0.0
372,92.75,94.2824,123.641,79.7543,99.8319,72.4125,0.0277275,1.42293,18.3984,891.758,3.1058,0.0,0.0
375,93.5,96.2315,126.753,99.472,99.8295,71.0764,0.0287757,1.46719,18.3004,891.608,3.2857,0.0,0.0
378,94.25,98.5367,130.283,88.1053,99.8672,71.3147,0.0298771,1.51682,18.1843,891.438,3.25698,0.0,0.0
381,95,101.158,133.735,87.2069,99.8839,69.3854,0.0310132,1.57406,18.0872,891.208,3.52386,0.0,0.0
384,95.75,102.451,137.462,68.364,99.8859,72.9005,0.0321653,1.63093,17.9789,891.097,3.04607,0.0,0.0
387,96.5,104.264,139.939,93.1521,99.8985,70.1718,0.0333094,1.68758,17.9,890.897,3.41626,0.0,0.0
390,97.25,107.264,143.859,77.366,99.9127,68.7837,0.0346636,1.74378,17.8038,890.697,3.61089,0.0,0.0
393,98,108.984,146.753,74.4862,99.9362,68.0269,0.0362939,1.80945,17.7337,890.487,3.72017,0.0,0.0
396,98.75,111.66,150.547,78.4094,99.9334,70.6217,0.0377566,1.86896,17.6407,890.337,3.35784,0.0,0.0
399,99.5,113.368,154.361,75.1915,99.9403,70.2205,0.0394691,1.93224,17.5381,890.147,3.4136,0.0,0.0
402,100.25,115.997,158.494,74.1671,99.9594,68.4995,0.0410286,1.99171,17.4029,889.816,3.65545,0.0,0.0
405,101,119.351,163.141,79.5612,99.9691,68.7796,0.0424376,2.05788,17.285,889.656,3.61692,0.0,0.0
408,101.75,120.812,167.268,76.0494,99.9683,69.94,0.0437034,2.13464,17.1241,889.536,3.45503,0.0,0.0
411,102.5,123.197,171.258,97.215,99.9744,68.1979,0.0449979,2.2133,16.9744,889.406,3.69959,0.0,0.0
414,103.25,126.445,175.675,91.5675,100.002,67.5097,0.0459416,2.28866,16.8515,889.096,3.80032,0.0,0.0
417,104,129.471,179.61,76.2738,100.005,69.9619,0.0471511,2.37221,16.7291,888.795,3.45553,0.0,0.0
420,104.75,131.541,183.73,65.4818,99.9976,68.6424,0.0483369,2.45786,16.6081,888.695,3.63899,0.0,0.0
423,105.5,134.106,188.196,74.2564,100.008,67.4683,0.0494994,2.53085,16.4896,888.345,3.80684,0.0,0.0
426,106.25,136.019,191.985,68.1289,100.024,68.9839,0.050635,2.61246,16.3408,888.125,3.59351,0.0,0.0
429,107,138.948,196.545,62.8501,100.026,71.894,0.051825,2.68407,16.164,887.855,3.19412,0.0,0.0
432,107.75,141.345,200.922,68.68,100.035,70.0236,0.0528651,2.78489,16.0061,887.674,3.44995,0.0,0.0
435,108.5,144.224,205.579,69.8691,100.039,69.3931,0.053697,2.88964,15.816,887.494,3.53775,0.0,0.0
438,109.25,147.319,211.81,82.3174,100.036,68.8751,0.0544111,2.99422,15.6775,887.194,3.60995,0.0,0.0
441,110,150.441,216.964,72.0307,100.056,76.6442,0.0549776,3.09593,15.5288,886.884,2.57812,0.0,0.0
444,110.75,153.211,222.378,59.6642,100.061,72.4864,0.0553906,3.20934,15.4001,886.604,3.1181,0.0,0.0
447,111.5,156.594,227.861,78.5094,100.06,70.229,0.055926,3.31137,15.2747,886.423,3.42401,0.0,0.0
450,112.25,159.348,232.053,70.4882,100.065,73.773,0.0564875,3.41884,15.1471,886.063,2.94828,0.0,0.0
453,113,162.152,237.236,70.6118,100.072,71.6318,0.0570802,3.49719,15.015,885.863,3.23391,0.0,0.0
456,113.75,165.485,242.684,85.2713,100.072,69.1808,0.0577011,3.62533,14.8344,885.553,3.57061,0.0,0.0
459,114.5,167.675,246.891,65.7475,100.075,71.0122,0.0584837,3.73635,14.6357,885.122,3.31816,0.0,0.0
462,115.25,170.675,251.958,54.6395,100.077,69.7601,0.0592675,3.84739,14.4374,884.942,3.49042,0.0,0.0
465,116,173.647,256.964,58.5818,100.089,74.2249,0.0599299,3.95595,14.2502,884.652,2.89153,0.0,0.0
468,116.75,176.426,262.023,55.2242,100.086,73.3881,0.0606339,4.07597,14.0761,884.422,3.00091,0.0,0.0
471,117.5,179.534,267.792,65.2658,100.102,68.8052,0.061218,4.17587,13.9331,884.111,3.62616,0.0,0.0
474,118.25,182.483,273.051,57.9788,100.085,70.3366,0.061765,4.28575,13.7814,883.851,3.4116,0.0,0.0
477,119,185.785,278.037,46.3725,100.114,70.0037,0.062392,4.39112,13.6518,883.451,3.46027,0.0,0.0
480,119.75,187.792,282.796,49.0981,100.127,77.2406,0.0629463,4.47871,13.5251,883.11,2.51006,0.0,0.0
483,120.5,190.565,286.975,62.0059,100.106,69.2636,0.0636595,4.58275,13.3838,882.85,3.56237,0.0,0.0
486,121.25,193.649,291.865,61.9601,100.106,66.2016,0.064332,4.67316,13.2409,882.68,3.99966,0.0,0.0
489,122,195.807,296.357,54.0838,100.117,69.0131,0.0647599,4.76399,13.1559,882.22,3.59847,0.0,0.0
492,122.75,198.021,299.718,46.4847,100.125,76.82,0.0653037,4.8689,12.9578,881.899,2.56264,0.0,0.0
495,123.5,200.582,303.641,55.7127,100.132,76.1943,0.0657095,4.98005,12.7591,881.709,2.6424,0.0,0.0
498,124.25,202.95,309.391,71.6865,100.127,71.7312,0.0660053,5.09215,12.591,881.289,3.22574,0.0,0.0
501,125,206.473,314.188,54.9784,100.142,71.7426,0.0661327,5.18542,12.3829,880.808,3.22566,0.0,0.0
504,125.75,208.958,318.178,62.4936,100.13,77.5138,0.0661361,5.31174,12.2047,880.618,2.47622,0.0,0.0
507,126.5,211.428,323.363,56.6156,100.132,70.6631,0.0660246,5.43554,12.0295,880.208,3.37141,0.0,0.0
510,127.25,214.027,328.661,62.8264,100.136,71.2611,0.0658135,5.57669,11.8548,879.818,3.29029,0.0,0.0
513,128,216.703,332.385,63.8026,100.135,81.4244,0.0654636,5.70171,11.6487,879.447,2.0006,0.0,0.0
516,128.75,218.938,336.617,55.6814,100.145,77.0839,0.0650796,5.83067,11.4648,879.267,2.53147,0.0,0.0
519,129.5,222.162,341.728,58.4078,100.146,79.4569,0.0647447,5.98842,11.2301,878.757,2.23824,0.0,0.0
522,130.25,224.886,346.821,60.6724,100.145,78.9555,0.0643302,6.15054,11.0201,878.366,2.29939,0.0,0.0
525,131,227.528,352.736,53.0962,100.147,80.6197,0.0639554,6.31064,10.7713,878.106,2.09784,0.0,0.0
528,131.75,230.386,358.597,55.1845,100.162,78.7095,0.0636069,6.4647,10.5402,877.536,2.33122,0.0,0.0
531,132.5,233.102,362.071,71.3484,100.168,79.1337,0.0633208,6.60267,10.3718,877.265,2.27985,0.0,0.0
534,133.25,234.831,366.369,45.081,100.169,83.1409,0.0631434,6.74715,10.154,876.915,1.80211,0.0,0.0
537,134,237.967,371.228,42.1913,100.175,78.9998,0.0630674,6.90519,9.93649,876.295,2.29683,0.0,0.0
540,134.75,240.699,376.033,59.5306,100.188,74.9617,0.0630623,7.04288,9.75283,876.054,2.80555,0.0,0.0
543,135.5,242.782,380.004,85.2384,100.179,73.6565,0.0631469,7.19416,9.58642,875.734,2.97459,0.0,0.0
546,136.25,245.007,382.611,40.4227,100.189,82.6651,0.0632463,7.30445,9.38575,875.324,1.85955,0.0,0.0
549,137,246.79,387.241,42.5935,100.194,77.9738,0.063553,7.44678,9.16686,874.643,2.42514,0.0,0.0
552,137.75,249.567,392.136,50.5316,100.205,79.1877,0.0639134,7.5918,9.00851,874.283,2.27675,0.0,0.0
555,138.5,252.064,396.703,58.3521,100.205,71.9732,0.0643298,7.72295,8.8184,873.782,3.20078,0.0,0.0
558,139.25,254.036,399.344,57.7605,100.208,77.6263,0.0650026,7.8481,8.66758,873.592,2.46972,0.0,0.0
561,140,255.243,401.038,82.2922,100.215,75.0588,0.0658498,7.96091,8.53045,873.212,2.79567,0.0,0.0
564,140.75,257.733,404.485,63.579,100.219,78.9543,0.0668082,8.02502,8.41889,872.912,2.30667,0.0,0.0
567,141.5,259.958,408.905,69.7753,100.226,75.3101,0.0681115,8.11638,8.33757,872.391,2.76443,0.0,0.0
570,142.25,261.305,411.296,54.1625,100.233,77.5759,0.069678,8.19035,8.27828,871.911,2.47843,0.0,0.0
573,143,263.137,413.502,54.7616,100.241,75.5399,0.0714335,8.23737,8.25283,871.731,2.73642,0.0,0.0
576,143.75,264.423,415.684,54.9776,100.244,70.0732,0.0738023,8.24972,8.26466,871.34,3.46331,0.0,0.0
579,144.5,265.609,416.12,63.8675,100.25,70.4653,0.0759163,8.24937,8.35002,870.97,3.40984,0.0,0.0
582,145.25,266.467,416.913,71.5377,100.257,68.6014,0.0781195,8.20009,8.49964,870.67,3.66979,0.0,0.0
585,146,266.795,417.047,71.5369,100.263,65.8812,0.0804529,8.11074,8.70224,870.289,4.0617,0.0,0.0
588,146.75,266.894,416.025,56.6423,100.272,67.6209,0.0826239,7.99556,8.94771,870.059,3.81047,0.0,0.0
591,147.5,266.912,414.656,56.9713,100.289,73.0418,0.0844798,7.86496,9.21473,869.619,3.06634,0.0,0.0
594,148.25,266.863,413.255,50.1644,100.289,64.6076,0.0858327,7.70566,9.4887,869.459,4.25302,0.0,0.0
597,149,266.584,412.328,66.6641,100.279,62.9191,0.0864712,7.5622,9.85977,869.118,4.50822,0.0,0.0
600,149.75,266.179,409.595,69.86,100.281,58.9907,0.0867883,7.35455,10.2737,868.848,5.13194,0.0,0.0
603,150.5,265.832,406.696,50.6041,100.285,60.4766,0.0858861,7.12965,10.6365,868.578,4.8918,0.0,0.0
606,151.25,264.573,403.726,65.2002,100.285,59.4929,0.0846779,6.89613,11.0955,868.368,5.05034,0.0,0.0
609,152,263.586,400.239,76.1204,100.294,61.5066,0.0828555,6.66052,11.499,868.187,4.72931,0.0,0.0
612,152.75,261.873,396.526,74.3183,100.298,63.0498,0.0802317,6.38212,11.9108,868.047,4.48999,0.0,0.0
615,153.5,259.642,391.334,70.2096,100.314,59.8977,0.0772052,6.132,12.388,867.847,4.98761,0.0,0.0
618,154.25,258.701,387.724,66.5863,100.321,62.0097,0.0740386,5.86902,12.8696,867.657,4.65312,0.0,0.0
621,155,257.262,383.258,77.8934,100.32,63.0953,0.0699039,5.58732,13.2778,867.487,4.48517,0.0,0.0
624,155.75,255.217,377.962,69.5997,100.318,64.8931,0.0668896,5.34359,13.6528,867.357,4.21324,0.0,0.0
627,156.5,252.763,373.098,73.6802,100.336,66.6441,0.0628758,5.05065,14.0588,867.207,3.95744,0.0,0.0
630,157.25,250.314,367.013,80.3069,100.348,70.8681,0.0586031,4.77112,14.5438,867.167,3.36423,0.0,0.0
633,158,247.681,361.458,87.5351,100.35,71.743,0.0545099,4.49366,14.9705,867.066,3.24567,0.0,0.0
636,158.75,244.796,355.159,95.2366,100.352,72.6553,0.0499357,4.21349,15.4065,867.046,3.12368,0.0,0.0
639,159.5,241.986,348.63,100.369,100.365,73.015,0.0466011,4.00925,15.8838,866.946,3.07721,0.0,0.0
642,160.25,237.498,340.571,101.54,100.371,78.241,0.0421212,3.69472,16.2997,866.916,2.40914,0.0,0.0
645,161,233.335,332.569,106.199,100.376,88.0238,0.0383229,3.39943,16.8303,866.926,1.2701,0.0,0.0
648,161.75,229.034,324.73,108.205,100.372,94.3923,0.0346435,3.15603,17.2676,866.926,0.594132,0.0,0.0
651,162.5,224.634,316.981,111.21,100.389,97.5408,0.0308495,2.87694,17.6725,866.906,0.278344,0.0,0.0
654,163.25,220.046,309.453,111.529,100.407,98.7612,0.0275716,2.63568,18.1039,866.886,0.159878,0.0,0.0
657,164,215.234,301.241,112.019,100.404,98.9325,0.0247608,2.39519,18.4959,866.876,0.142761,0.0,0.0
660,164.75,211.266,294.387,114.754,100.41,98.0365,0.0223648,2.17093,18.8413,866.876,0.231347,0.0,0.0
663,165.5,207.671,287.434,114.515,100.417,98.3726,0.0201625,1.96802,19.1384,866.906,0.198942,0.0,0.0
666,166.25,203.878,280.624,115.563,100.437,98.5411,0.0185569,1.78837,19.3861,866.886,0.184307,0.0,0.0
669,167,199.609,273.73,116.985,100.443,99.5504,0.0169087,1.61783,19.5799,866.856,0.0862922,0.0,0.0
672,167.75,195.881,267.718,117.301,100.424,99.9735,0.0155041,1.46934,19.7574,866.876,0.0434777,0.0,0.0
675,168.5,192.847,261.818,115.77,100.454,100.226,0.0142988,1.35078,19.9079,866.846,0.0219306,0.0,0.0
678,169.25,188.631,255.403,117.024,100.466,100.176,0.0132579,1.22824,20.0376,866.826,0.0280028,0.0,0.0
681,170,185.977,250.357,114.727,100.473,100.582,0.0123102,1.12797,20.1511,866.826,-0.0105309,0.0,0.0
684,170.75,183.132,244.588,117.246,100.472,100.138,0.0115507,1.03618,20.2569,866.826,0.0321959,0.0,0.0
687,171.5,179.991,238.955,121.199,100.492,100.368,0.0108794,0.948646,20.3398,866.846,0.0119021,0.0,0.0
690,172.25,176.843,234.432,119.912,100.51,100.6,0.0102745,0.872799,20.4102,866.856,-0.00857582,0.0,0.0
693,173,173.944,229.019,118.017,100.52,100.492,0.00983358,0.806758,20.4699,866.836,0.00275068,0.0,0.0
696,173.75,170.911,224.658,114.622,100.494,100.749,0.00940585,0.74901,20.5171,866.846,-0.0244533,0.0,0.0
699,174.5,167.849,218.947,118.838,100.516,100.638,0.00906124,0.696021,20.5614,866.866,-0.0117361,0.0,0.0
702,175.25,164.992,215.228,117.305,100.534,100.242,0.00877814,0.652749,20.6032,866.826,0.0281408,0.0,0.0
705,176,163.102,210.736,113.91,100.547,100.462,0.00854114,0.60659,20.6397,866.816,0.00822089,0.0,0.0
708,176.75,159.989,207.184,118.207,100.54,100.639,0.00830373,0.568515,20.669,866.816,-0.00954871,0.0,0.0
711,177.5,158.101,202.882,117.286,100.546,100.958,0.00807284,0.533192,20.6972,866.826,-0.0395828,0.0,0.0
714,178.25,156.312,199.239,118.787,100.56,101.043,0.00787986,0.499678,20.7177,866.816,-0.0463417,0.0,0.0
717,179,153.963,195.565,119.841,100.554,100.333,0.00768966,0.468429,20.7365,866.826,0.0212438,0.0,0.0
720,179.75,152.394,192.017,119.18,100.557,100.336,0.00746633,0.443277,20.7514,866.826,0.0212829,0.0,0.0
723,180.5,149.783,188.12,119.348,100.563,100.065,0.00720091,0.420887,20.7645,866.856,0.0479692,0.0,0.0
726,181.25,148.081,185.077,118.681,100.588,100.387,0.00696368,0.398922,20.7762,866.846,0.0193212,0.0,0.0
729,182,146.117,182.005,121.227,100.589,100.633,0.00668213,0.38291,20.7857,866.856,-0.00427686,0.0,0.0
732,182.75,144.289,178.818,119.733,100.599,100.772,0.00643326,0.365238,20.7957,866.856,-0.0165979,0.0,0.0
735,183.5,142.807,175.994,119.592,100.592,100.002,0.00622406,0.349799,20.8053,866.836,0.0568647,0.0,0.0
738,184.25,140.777,172.877,119.228,100.608,99.7741,0.00605586,0.333429,20.814,866.836,0.0805207,0.0,0.0
741,185,138.279,169.237,121.157,100.614,100.42,0.00592204,0.319918,20.822,866.806,0.0186515,0.0,0.0
744,185.75,137.188,167.151,120.641,100.616,99.753,0.00581316,0.307373,20.8292,866.826,0.083348,0.0,0.0
747,186.5,136.352,164.878,122.661,100.622,99.7851,0.00572259,0.294492,20.8349,866.826,0.0807848,0.0,0.0
750,187.25,135.133,162.878,119.843,100.636,99.9207,0.00565067,0.282907,20.8404,866.836,0.0689764,0.0,0.0
753,188,133.579,160.278,121.055,100.657,100.221,0.00558816,0.273526,20.8448,866.826,0.0419681,0.0,0.0
756,188.75,132.029,157.826,120.96,100.655,100.087,0.0055355,0.263856,20.8488,866.826,0.0547497,0.0,0.0
759,189.5,130.744,155.25,120.176,100.665,100.243,0.00550084,0.255669,20.8524,866.836,0.0406317,0.0,0.0
762,190.25,129.591,153.696,122.521,100.669,99.4022,0.00548109,0.247754,20.8563,866.816,0.122491,0.0,0.0
765,191,128.136,151.266,120.049,100.674,99.7778,0.00547341,0.240085,20.8602,866.826,0.0864876,0.0,0.0
768,191.75,127.375,148.949,117.799,100.691,99.8903,0.00546781,0.232921,20.8638,866.836,0.0772293,0.0,0.0
771,192.5,126.016,147.066,119.154,100.677,100.04,0.00545254,0.226391,20.8664,866.816,0.0613696,0.0,0.0
774,193.25,125.001,145.533,125.336,100.678,99.008,0.00542228,0.220043,20.8683,866.846,0.161785,0.0,0.0
777,194,123.478,143.477,120.417,100.697,99.7863,0.0053878,0.214233,20.8707,866.846,0.0878839,0.0,0.0
780,194.75,122.909,141.813,122.198,100.702,99.6905,0.0053414,0.209495,20.8727,866.816,0.0976047,0.0,0.0
783,195.5,121.426,140.15,120.707,100.698,99.9414,0.00530581,0.204179,20.8746,866.846,0.0729023,0.0,0.0
786,196.25,120.372,137.789,119.706,100.708,100.031,0.0052779,0.199648,20.8759,866.826,0.0652757,0.0,0.0
789,197,119.379,136.638,123.156,100.715,99.5732,0.0052542,0.195226,20.8778,866.826,0.110282,0.0,0.0
792,197.75,118.624,135.258,121.142,100.726,99.3296,0.00521034,0.190977,20.8797,866.846,0.135064,0.0,0.0
795,198.5,117.608,133.196,121.459,100.722,99.2922,0.00513942,0.187002,20.8816,866.856,0.138235,0.0,0.0
798,199.25,116.507,131.899,120.234,100.724,99.3844,0.00505548,0.183351,20.8829,866.826,0.129496,0.0,0.0
801,200,115.389,130.472,119.936,100.739,99.5955,0.00498053,0.179659,20.8841,866.836,0.110375,0.0,0.0
804,200.75,114.63,128.907,119.949,100.762,99.7356,0.00490111,0.176361,20.8854,866.836,0.0990028,0.0,0.0
807,201.5,113.577,127.34,122.537,100.742,100.294,0.00483264,0.173393,20.8867,866.846,0.0431069,0.0,0.0
810,202.25,113.469,126.001,123.691,100.741,99.7546,0.00477686,0.170709,20.8879,866.846,0.0951651,0.0,0.0
813,203,112.721,124.929,122.127,100.749,99.658,0.00472617,0.168091,20.8862,866.856,0.105279,0.0,0.0
816,203.75,111.138,123.3,120.848,100.754,99.5517,0.00469901,0.165901,20.8856,866.836,0.116153,0.0,0.0
819,204.5,110.99,122.659,120.109,100.748,100.375,0.00466994,0.164304,20.8854,866.826,0.0359036,0.0,0.0
822,205.25,109.912,121.045,124.102,100.752,99.4392,0.00465544,0.161659,20.8852,866.836,0.126814,0.0,0.0
825,206,109.196,119.638,123.742,100.76,99.1432,0.00466607,0.159171,20.885,866.826,0.156502,0.0,0.0
828,206.75,108.67,119.421,121.384,100.768,98.8448,0.00468498,0.157733,20.8849,866.826,0.186398,0.0,0.0
831,207.5,107.841,117.33,122.401,100.767,99.2918,0.00470352,0.155624,20.8849,866.816,0.142679,0.0,0.0
834,208.25,107.438,116.448,121.815,100.763,99.3856,0.0047158,0.153704,20.8851,866.836,0.13308,0.0,0.0
837,209,106.283,115.218,124.661,100.769,99.714,0.004719,0.151795,20.8856,866.836,0.10183,0.0,0.0
840,209.75,105.61,114.224,121.874,100.778,98.8627,0.00471241,0.150089,20.886,866.836,0.185586,0.0,0.0
843,210.5,104.735,113.743,122.066,100.778,99.0048,0.00470141,0.1484,20.8867,866.856,0.171693,0.0,0.0
846,211.25,104.294,112.342,123.412,100.775,98.736,0.00469571,0.146978,20.8874,866.836,0.197713,0.0,0.0
849,212,103.96,110.9,124.169,100.8,99.1672,0.00469366,0.145366,20.8879,866.826,0.157985,0.0,0.0
852,212.75,102.886,110.59,124.069,100.804,99.2386,0.00471869,0.14403,20.8883,866.856,0.151329,0.0,0.0
855,213.5,102.511,109.934,123.278,100.8,98.7713,0.00474738,0.142781,20.8886,866.856,0.19667,0.0,0.0
858,214.25,101.508,108.263,125.427,100.792,99.6329,0.00478615,0.141494,20.8894,866.836,0.111893,0.0,0.0
861,215,101.304,107.672,126.273,100.795,98.3905,0.0048216,0.140306,20.89,866.786,0.233527,0.0,0.0
864,215.75,100.45,107.204,122.558,100.81,99.2248,0.00485973,0.139333,20.8904,866.786,0.153298,0.0,0.0
867,216.5,100.196,105.199,123.797,100.824,99.0498,0.00489283,0.138229,20.8912,866.806,0.171734,0.0,0.0
870,217.25,99.7435,104.306,123.24,100.814,99.0149,0.00491821,0.137424,20.8919,866.806,0.174131,0.0,0.0
873,218,99.0976,104.122,125.092,100.796,98.7535,0.00493723,0.136382,20.8925,866.786,0.197991,0.0,0.0
876,218.75,98.277,102.845,124.565,100.807,99.2589,0.00494402,0.135387,20.8929,866.816,0.149702,0.0,0.0
879,219.5,98.3454,103.038,123.637,100.812,99.045,0.00493481,0.134562,20.8931,866.816,0.17104,0.0,0.0
882,220.25,97.9146,102.033,122.247,100.818,99.1972,0.00492288,0.133625,20.8933,866.816,0.15677,0.0,0.0
885,221,97.4825,101.574,124.465,100.81,98.6402,0.00490524,0.132734,20.8935,866.806,0.210416,0.0,0.0
888,221.75,96.714,100.947,120.354,100.819,98.6057,0.00488991,0.131902,20.8936,866.836,0.214735,0.0,0.0
891,222.5,96.0152,99.9726,122.635,100.823,98.5708,0.00487767,0.131134,20.8937,866.856,0.21855,0.0,0.0
894,223.25,96.1294,99.3124,124.929,100.821,98.587,0.00485991,0.130377,20.8937,866.846,0.216723,0.0,0.0
897,224,95.5863,98.0278,123.723,100.815,98.4741,0.00483397,0.129759,20.8938,866.856,0.227256,0.0,0.0
900,224.75,95.1149,97.7713,126.384,100.819,98.9345,0.00479284,0.129197,20.8938,866.866,0.182493,0.0,0.0
903,225.5,94.8199,97.6688,125.839,100.825,98.4339,0.00474461,0.12865,20.8938,866.856,0.23214,0.0,0.0
906,226.25,94.4712,97.2046,122.422,100.825,98.3296,0.00467823,0.128192,20.8918,866.876,0.242359,0.0,0.0
909,227,94.3159,96.527,120.322,100.811,98.3487,0.00462984,0.127681,20.8903,866.846,0.239158,0.0,0.0
912,227.75,93.7372,95.759,123.552,100.819,99.0174,0.00460869,0.127308,20.8892,866.826,0.174361,0.0,0.0
915,228.5,93.7587,94.9875,124.265,100.834,98.7551,0.00459328,0.126914,20.8884,866.806,0.201492,0.0,0.0
918,229.25,93.0073,94.5937,123.334,100.821,98.8111,0.00459264,0.126532,20.8873,866.846,0.194722,0.0,0.0
921,230,92.6459,93.6208,123.143,100.809,99.1672,0.0045835,0.126193,20.8864,866.856,0.158803,0.0,0.0
924,230.75,92.8757,93.316,123.577,100.811,98.4628,0.00457624,0.125871,20.8859,866.846,0.227984,0.0,0.0
927,231.5,91.9739,93.0973,122.387,100.828,97.8708,0.00455373,0.125568,20.8854,866.826,0.287904,0.0,0.0
930,232.25,91.2518,92.235,122.841,100.83,98.3799,0.0045237,0.125317,20.885,866.826,0.237915,0.0,0.0
933,233,90.9054,91.993,123.444,100.824,98.6917,0.00448884,0.125056,20.8847,866.826,0.206725,0.0,0.0
936,233.75,90.7947,91.5614,123.641,100.818,98.6532,0.00445118,0.124915,20.8845,866.816,0.20996,0.0,0.0
939,234.5,90.5525,90.9159,126.449,100.827,98.0722,0.00440867,0.124743,20.8841,866.826,0.267984,0.0,0.0
942,235.25,90.2796,90.3487,123.686,100.832,98.2687,0.00437126,0.124519,20.8834,866.816,0.249092,0.0,0.0
945,236,89.6597,89.8171,123.853,100.818,98.0706,0.00435388,0.124356,20.8827,866.816,0.267209,0.0,0.0
948,236.75,89.4097,89.9701,126.084,100.825,98.021,0.00435455,0.124229,20.882,866.816,0.272758,0.0,0.0
951,237.5,89.0535,89.2197,121.871,100.834,98.274,0.00437062,0.124122,20.8814,866.806,0.24869,0.0,0.0
954,238.25,88.4892,88.4407,124.391,100.849,98.2293,0.00441942,0.123975,20.881,866.786,0.254603,0.0,0.0
957,239,88.0852,88.194,123.111,100.831,98.2025,0.00446999,0.123838,20.8807,866.806,0.255452,0.0,0.0
960,239.75,88.1981,88.0599,125.507,100.822,97.924,0.00453249,0.123562,20.8805,866.796,0.282104,0.0,0.0
963,240.5,88.319,87.4959,124.331,100.831,98.5058,0.00460104,0.123292,20.8803,866.796,0.225627,0.0,0.0
966,241.25,87.1356,87.0827,128.015,100.832,97.9748,0.00465102,0.123066,20.8802,866.806,0.277988,0.0,0.0
969,242,87.0084,86.7924,123.756,100.82,97.6134,0.00468745,0.122783,20.8801,866.796,0.312595,0.0,0.0
972,242.75,86.3365,86.2924,123.891,100.81,97.8952,0.00468922,0.122453,20.88,866.786,0.283782,0.0,0.0
975,243.5,86.4253,85.6364,119.5,100.821,98.1802,0.00466951,0.122123,20.88,866.806,0.256677,0.0,0.0
978,244.25,86.5441,85.6758,122.537,100.824,97.8968,0.00463731,0.121821,20.8806,866.796,0.284985,0.0,0.0
981,245,86.2781,84.7623,126.094,100.818,97.5229,0.00460032,0.121572,20.881,866.786,0.321416,0.0,0.0
984,245.75,85.8972,85.2861,125.166,100.813,97.9382,0.00456629,0.121341,20.8813,866.766,0.279843,0.0,0.0
987,246.5,85.3605,83.7435,126.044,100.809,97.9313,0.00453926,0.120996,20.8822,866.766,0.280136,0.0,0.0
990,247.25,85.4571,83.921,124.05,100.829,97.8375,0.00453368,0.120701,20.883,866.796,0.29131,0.0,0.0
993,248,85.188,83.9999,128.343,100.813,97.7669,0.00452961,0.120412,20.8836,866.786,0.296739,0.0,0.0
996,248.75,84.456,83.3461,125.989,100.802,97.6617,0.00454645,0.120045,20.8845,866.796,0.306135,0.0,0.0
999,249.5,83.9981,82.3743,123.073,100.804,97.3438,0.00456718,0.119735,20.8852,866.796,0.337864,0.0,0.0
1002,250.25,84.2172,82.7535,126.461,100.8,97.5156,0.00457982,0.119435,20.886,866.796,0.320387,0.0,0.0
1005,251,83.9248,82.0648,127.974,100.803,97.9545,0.00458146,0.119158,20.8869,866.786,0.277226,0.0,0.0
1008,251.75,83.8578,81.9935,121.69,100.788,97.6516,0.0045715,0.118857,20.8876,866.776,0.305737,0.0,0.0
1011,252.5,83.4206,81.922,126.171,100.778,97.693,0.00455365,0.118501,20.8881,866.776,0.30074,0.0,0.0
1014,253.25,82.719,80.9196,122.162,100.804,97.4762,0.00454187,0.118182,20.8887,866.776,0.324722,0.0,0.0
1017,254,83.1764,81.5355,122.921,100.802,97.9492,0.00454099,0.117833,20.8896,866.756,0.27767,0.0,0.0
1020,254.75,82.8983,80.8891,124.391,100.779,97.6865,0.0045526,0.117523,20.8902,866.776,0.301422,0.0,0.0
1023,255.5,82.4764,80.6054,124.844,100.758,97.7762,0.0045845,0.11723,20.8906,866.746,0.290555,0.0,0.0
1026,256.25,82.6435,80.0182,125.506,100.781,97.5322,0.00461774,0.116943,20.8909,866.766,0.316904,0.0,0.0
1029,257,81.4527,79.8313,120.987,100.78,97.6869,0.00467026,0.116616,20.8911,866.766,0.301538,0.0,0.0
1032,257.75,81.5266,79.1114,124.001,100.761,97.5996,0.00470986,0.116334,20.8911,866.806,0.308353,0.0,0.0
1035,258.5,81.7428,79.9557,124.058,100.747,97.948,0.00474095,0.116055,20.891,866.816,0.27249,0.0,0.0
1038,259.25,81.202,79.029,123.312,100.741,97.0897,0.00476362,0.115837,20.8916,866.796,0.357031,0.0,0.0
1041,260,81.2461,78.8312,128.572,100.745,97.4973,0.00477767,0.115671,20.8921,866.816,0.316899,0.0,0.0
1044,260.75,81.118,78.6445,125.779,100.727,97.6012,0.00478424,0.115414,20.8924,866.796,0.304878,0.0,0.0
1047,261.5,80.6085,78.4534,125.894,100.726,97.3601,0.00478457,0.115185,20.8926,866.776,0.328767,0.0,0.0
1050,262.25,80.8917,78.3465,127.34,100.719,97.4868,0.0047773,0.114979,20.8927,866.786,0.315451,0.0,0.0
1053,263,80.4755,77.9216,125.294,100.723,97.4185,0.0047689,0.114792,20.8929,866.786,0.32261,0.0,0.0
1056,263.75,80.0406,77.7875,126.956,100.712,97.3106,0.00475394,0.114587,20.893,866.786,0.332325,0.0,0.0
1059,264.5,79.7408,77.5171,123.501,100.702,97.4612,0.00474179,0.114339,20.8931,866.786,0.316429,0.0,0.0
1062,265.25,79.7545,77.4957,123.508,100.68,97.1534,0.00473241,0.114193,20.8931,866.796,0.344835,0.0,0.0
1065,266,79.0053,76.9167,124.059,100.691,97.2497,0.00471335,0.113996,20.8932,866.776,0.336391,0.0,0.0
1068,266.75,79.8859,76.6957,124.612,100.68,97.4632,0.00469202,0.11384,20.8933,866.746,0.314083,0.0,0.0
1071,267.5,79.4146,76.6278,128.265,100.657,97.4125,0.0046733,0.113649,20.8935,866.756,0.316858,0.0,0.0
1074,268.25,79.2012,76.2076,125.865,100.654,97.2959,0.00465259,0.113483,20.8937,866.766,0.3282,0.0,0.0
1077,269,78.7984,76.091,124.809,100.656,97.3617,0.0046313,0.113351,20.8938,866.756,0.32182,0.0,0.0
1080,269.75,77.8121,75.4481,125.568,100.646,97.3357,0.00461314,0.113235,20.8939,866.756,0.323504,0.0,0.0
1083,270.5,78.3604,75.5563,127.038,100.631,97.3134,0.0045739,0.11315,20.8939,866.756,0.324279,0.0,0.0
1086,271.25,78.051,75.5271,128.249,100.619,97.1197,0.00453421,0.113082,20.894,866.746,0.342377,0.0,0.0
1089,272,77.6364,74.7957,127.935,100.622,97.1132,0.00448796,0.113019,20.8937,866.736,0.343335,0.0,0.0
1092,272.75,77.2455,75.1411,126.293,100.607,97.1567,0.00445401,0.112933,20.893,866.736,0.337565,0.0,0.0
1095,273.5,76.9878,74.6723,126.757,100.59,96.9971,0.00444152,0.112852,20.8925,866.756,0.351746,0.0,0.0
1098,274.25,77.0624,74.2233,128.724,100.583,97.1579,0.00446949,0.112786,20.8922,866.746,0.335102,0.0,0.0
1101,275,76.8465,74.1542,126.66,100.577,96.7755,0.00451837,0.112725,20.8919,866.746,0.372626,0.0,0.0
1104,275.75,77.0731,73.9994,124.091,100.59,96.8847,0.00456615,0.112662,20.8917,866.756,0.363004,0.0,0.0
1107,276.5,76.8028,73.9066,129.644,100.55,96.7755,0.00461512,0.112615,20.8915,866.766,0.370087,0.0,0.0
1110,277.25,76.0537,73.3687,127.186,100.538,97.2545,0.00465083,0.112567,20.8914,866.756,0.321154,0.0,0.0
1113,278,76.6362,73.8251,125.471,100.553,96.8075,0.00466801,0.112507,20.8914,866.756,0.367117,0.0,0.0
1116,278.75,76.0749,73.4706,125.658,100.532,96.9768,0.00467728,0.112354,20.8913,866.786,0.348263,0.0,0.0
1119,279.5,76.2718,72.9138,128.044,100.523,96.801,0.00467846,0.112196,20.8913,866.786,0.364874,0.0,0.0
1122,280.25,75.7664,73.0272,133.023,100.499,97.1831,0.00468993,0.112002,20.8912,866.746,0.324511,0.0,0.0
1125,281,74.8085,73.0386,125.322,100.497,96.8688,0.00470821,0.111861,20.8915,866.736,0.355602,0.0,0.0
1128,281.75,75.5489,72.5061,130.11,100.497,97.14,0.00472576,0.111739,20.892,866.756,0.328561,0.0,0.0
1131,282.5,75.3112,71.7553,127.532,100.472,96.7572,0.00474916,0.111609,20.8924,866.756,0.364371,0.0,0.0
1134,283.25,74.8034,72.249,126.176,100.455,96.8323,,0.111475,,866.736,0.355264,0.0,0.0
1137,284,74.9988,71.9355,125.986,100.457,97.0499,,0.11134,,866.756,0.333748,0.0,0.0
1140,284.75,74.8439,71.2674,128.57,100.447,97.127,,0.111201,,866.746,0.325124,0.0,0.0
1143,285.5,73.8062,70.1285,126.055,100.425,96.8542,,0.111089,,866.746,0.350143,0.0,0.0
1146,286.25,74.1513,71.9605,124.986,100.394,96.5615,,,,866.756,0.376486,0.0,0.0
1149,287,73.8089,70.9392,125.241,100.386,96.838,,,,866.746,0.348048,0.0,0.0
1152,287.75,73.8558,71.055,126.616,100.382,96.7755,,,,866.726,0.353865,0.0,0.0
1155,288.5,73.8973,70.7871,124.854,100.366,97.0917,,,,866.736,0.320781,0.0,0.0
1158,289.25,73.3406,69.9488,126.151,100.346,96.4977,,,,866.756,0.378217,0.0,0.0
1161,290,73.6769,70.6121,127.696,100.333,96.5676,,,,866.756,0.369967,0.0,0.0
1164,290.75,73.0091,70.3328,125.356,100.328,96.57,,,,866.776,0.369291,0.0,0.0
1167,291.5,73.5789,70.0727,128.208,100.316,96.909,,,,866.766,0.334224,0.0,0.0
1170,292.25,73.3084,70.0676,126.767,100.296,96.5672,,,,866.746,0.366484,0.0,0.0
1173,293,72.0261,69.3703,126.754,100.282,96.2976,,,,866.756,0.392152,0.0,0.0
1175,293.5,72.5892,68.9831,124,100.274,96.8936,,,,866.736,0.331652,0.0,0.0