File: 01_Data/LDPE/Cone/LDPE_Cone_HF50Scan_220202_R2.csv
Names,Time,Stack TC,Smoke TC,Exh Press,Smoke Comp,Smoke Meas,CO Meter,CO2 Meter,O2 Meter,Sample Mass,Ext Coeff,Start Test,Flame Verif
Chan Gain,,500,500,1,1,1,1,1,1,1,1,1.0,1.0
Offset,,0,0,0.14021,0,0,0,0,0,0,0,0.0,0.0
Gain,,1,1,25.011,13.3046,13.3037,1,1,1,1.00087,1.10262,1.0,1.0
Units,sec,C,C,Pa,%,%,%,%,%,g,/m,,
Baseline,,31.2643,33.6804,137.454,100.095,102.725,0.00474352,0.109076,20.8916,-1.58443,-0.250777,,
3,0.5,28.0028,29.379,135.473,100.886,104.755,0.00464743,0.116878,20.883,896.192,-0.363987,0.0,0.0
6,1.25,28.1299,29.1614,138.375,100.932,104.187,0.00464723,0.116841,20.8825,896.192,-0.307041,0.0,0.0
9,2,28.0771,29.6847,132.345,100.96,103.933,0.00462813,0.116801,20.8827,896.152,-0.280696,0.0,0.0
12,2.75,28.0687,29.2463,136.888,101.016,104.243,0.00460008,0.116729,20.8828,896.172,-0.304152,0.0,0.0
15,3.5,27.7545,29.0613,139.951,101.065,105.139,0.00457963,0.116615,20.8829,896.172,-0.382271,0.0,0.0
18,4.25,27.6354,29.3198,136.736,101.097,104.518,0.00457178,0.116513,20.883,896.172,-0.321849,0.0,0.0
21,5,27.447,29.303,137.767,101.119,104.618,0.00457226,0.116452,20.8833,896.132,-0.329066,0.0,0.0
24,5.75,27.9376,29.9043,137.277,101.151,103.149,0.00457785,0.116413,20.8839,905.58,-0.189157,0.0,0.0
27,6.5,28.2604,29.3409,140.097,101.184,103.803,0.00458638,0.116365,20.8837,919.672,-0.247151,0.0,0.0
30,7.25,27.4812,29.2601,136.186,101.204,104.629,0.00460497,0.11633,20.884,927.83,-0.321926,0.0,0.0
33,8,28.1821,29.6057,140.83,101.218,104.911,0.0046334,0.116266,20.8845,933.635,-0.34658,0.0,0.0
36,8.75,28.3995,29.173,138.195,101.233,104.59,0.0046709,0.116205,20.8848,936.447,-0.315454,0.0,0.0
39,9.5,28.275,29.7507,136.925,101.247,104.821,0.00471609,0.116133,20.885,940.14,-0.335512,0.0,0.0
42,10.25,28.7282,30.0308,139.61,101.256,103.796,0.00475622,0.116044,20.8851,943.383,-0.239564,0.0,0.0
45,11,28.2349,29.9696,134.594,101.253,104.441,0.00479775,0.115881,20.8859,944.634,-0.299841,0.0,0.0
48,11.75,28.5751,30.3649,138.532,101.252,104.914,0.00481573,0.11568,20.8864,946.045,-0.343661,0.0,0.0
51,12.5,28.3409,30.7111,138.643,101.256,105.061,0.0048236,0.115498,20.8868,948.578,-0.356774,0.0,0.0
54,13.25,28.9283,30.6739,136.353,101.264,104.281,0.00481872,0.115229,20.8873,951.33,-0.283969,0.0,0.0
57,14,29.0968,30.9742,137.124,101.26,104.326,0.00481231,0.114982,20.8876,953.692,-0.288497,0.0,0.0
60,14.75,28.8171,29.9376,140.064,101.233,103.955,0.00479988,0.114716,20.8879,955.313,-0.25663,0.0,0.0
63,15.5,28.7106,30.7357,137.654,101.231,104.525,0.00476961,0.114399,20.8885,957.125,-0.309755,0.0,0.0
66,16.25,29.0771,31.0072,138.107,101.214,105.151,0.00472524,0.114073,20.8892,957.886,-0.369104,0.0,0.0
69,17,28.3535,30.462,136.897,101.182,104.697,0.00468338,0.113855,20.8897,958.026,-0.33025,0.0,0.0
72,17.75,28.3392,30.6672,138.875,101.161,104.059,0.0046343,0.11352,20.89,957.355,-0.273166,0.0,0.0
75,18.5,28.7621,31.0772,139.878,101.149,104.543,0.00458344,0.113198,20.8903,955.514,-0.319208,0.0,0.0
78,19.25,29.0875,30.9095,138.774,101.124,104.513,0.0045341,0.112889,20.8905,953.071,-0.318835,0.0,0.0
81,20,28.8164,30.7887,137.79,101.084,103.991,0.00448579,0.112595,20.8906,949.538,-0.274202,0.0,0.0
84,20.75,29.2095,31.1228,135.233,101.052,103.978,0.00445056,0.112352,20.8907,945.705,-0.276102,0.0,0.0
87,21.5,29.1736,31.0718,140.959,101.016,105.036,0.00442489,0.112136,20.8908,940.881,-0.377443,0.0,0.0
90,22.25,29.2917,31.0712,135.895,100.989,103.675,0.00440942,0.111951,20.891,936.377,-0.253835,0.0,0.0
93,23,29.4171,31.2517,136.894,100.931,103.547,0.00440372,0.111783,20.8914,930.982,-0.247537,0.0,0.0
96,23.75,28.8114,30.9099,137.549,100.896,104.108,0.00439941,0.111623,20.8915,926.138,-0.303114,0.0,0.0
99,24.5,29.3386,31.1932,134.671,100.852,102.919,0.00439626,0.111492,20.8915,920.613,-0.196204,0.0,0.0
102,25.25,29.5942,30.903,139.434,100.8,103.879,0.00437633,0.111372,20.8915,915.819,-0.291008,0.0,0.0
105,26,29.3076,31.0673,138.943,100.739,104.451,0.00436056,0.111339,20.8916,910.504,-0.34997,0.0,0.0
108,26.75,29.1109,30.9805,140.37,100.683,103.819,0.00434854,0.111337,20.8916,906.071,-0.296675,0.0,0.0
111,27.5,28.937,31.8191,139.8,100.624,103.905,0.00435389,0.111375,20.8911,901.436,-0.310311,0.0,0.0
114,28.25,29.3649,31.2867,139.653,100.578,103.107,0.00437263,0.111402,20.8906,898.083,-0.240173,0.0,0.0
117,29,29.0667,31.375,137.273,100.497,103.489,0.00439915,0.111442,20.8903,895.141,-0.28368,0.0,0.0
120,29.75,29.5214,31.1756,140.175,100.432,103.407,0.00442962,0.111485,20.89,893.249,-0.282343,0.0,0.0
123,30.5,29.1414,31.7411,134.551,100.367,103.94,0.00445262,0.111529,20.8899,891.838,-0.338335,0.0,0.0
126,31.25,29.4448,31.4668,136.3,100.364,103.045,0.00447919,0.111573,20.8897,891.198,-0.25502,0.0,0.0
129,32,29.2984,31.8144,136.874,100.363,103.346,0.00453214,0.111703,20.8892,890.767,-0.283295,0.0,0.0
132,32.75,29.8109,31.6299,132.216,100.358,103.037,0.004589,0.111841,20.8886,889.886,-0.254807,0.0,0.0
135,33.5,29.4768,31.8547,137.817,100.361,103.456,0.00467802,0.111964,20.8881,888.535,-0.293705,0.0,0.0
138,34.25,29.6971,31.564,139.732,100.389,102.817,0.00477083,0.11216,20.8878,887.364,-0.231116,0.0,0.0
141,35,29.9538,32.1854,138.981,100.397,102.593,0.00487037,0.112326,20.8874,886.764,-0.209304,0.0,0.0
144,35.75,29.1872,31.582,135.958,100.409,103.064,0.00495013,0.112487,20.8866,887.394,-0.252469,0.0,0.0
147,36.5,29.7663,31.6648,134.218,100.422,102.647,0.00502057,0.112686,20.8855,893.139,-0.211931,0.0,0.0
150,37.25,29.8253,32.5642,134.342,100.454,102.765,0.00510028,0.112938,20.8842,895.771,-0.220007,0.0,0.0
153,38,29.9349,32.082,138.165,100.471,103.217,0.00515839,0.113245,20.8831,896.072,-0.260763,0.0,0.0
156,38.75,30.2402,32.0387,134.664,100.48,103.435,0.0052522,0.113919,20.881,896.062,-0.280312,0.0,0.0
159,39.5,29.8392,31.864,136.166,100.493,102.491,0.00534922,0.114685,20.878,896.022,-0.190466,0.0,1.0
162,40.25,30.0614,31.7223,133.783,100.527,102.91,0.00544527,0.115712,20.8742,896.062,-0.226682,0.0,1.0
165,41,30.3615,32.4332,133.457,100.554,103.028,0.00553771,0.117328,20.8683,895.992,-0.235124,0.0,1.0
168,41.75,29.9301,32.8652,133.555,100.562,103.01,0.00561932,0.119572,20.8597,895.962,-0.232627,0.0,1.0
171,42.5,29.8232,32.8283,133.448,100.58,102.828,0.00568006,0.1224,20.8497,895.982,-0.213817,0.0,1.0
174,43.25,30.4827,32.974,129.726,100.605,102.576,0.00572487,0.125791,20.8393,895.992,-0.187614,0.0,1.0
177,44,30.753,33.2993,134.075,100.641,103.346,0.00575059,0.129546,20.8317,895.982,-0.25653,0.0,1.0
180,44.75,30.8075,33.026,132.93,100.644,102.777,0.00576933,0.13351,20.8224,895.962,-0.202836,0.0,0.0
183,45.5,30.7694,33.3488,130.501,100.675,103.129,0.00577513,0.138391,20.8156,895.932,-0.23298,0.0,0.0
186,46.25,30.9022,33.6458,138.755,100.706,102.637,0.0057659,0.143591,20.807,895.902,-0.183639,0.0,0.0
189,47,31.2767,34.3879,132.046,100.736,103.2,0.00575917,0.148082,20.7977,895.912,-0.233752,0.0,0.0
192,47.75,31.2273,34.3863,132.001,100.756,102.547,0.005758,0.152753,20.7872,895.882,-0.170385,0.0,0.0
195,48.5,31.6526,35.1812,132.139,100.777,101.342,0.00575874,0.158547,20.7757,895.902,-0.0541488,0.0,0.0
198,49.25,31.9818,35.0968,132.093,100.811,101.571,0.00575928,0.163916,20.7599,895.902,-0.0727043,0.0,0.0
201,50,32.2164,35.4756,129.782,100.834,101.209,0.00576323,0.169789,20.7452,895.922,-0.0358991,0.0,0.0
204,50.75,32.8355,36.3458,129.905,100.853,101.649,0.00577109,0.176317,20.7317,895.862,-0.0760361,0.0,0.0
207,51.5,32.9215,36.536,133.088,100.861,100.776,0.00577895,0.182571,20.719,895.882,0.00815868,0.0,0.0
210,52.25,33.0761,37.0135,132.229,100.875,100.613,0.00578966,0.188598,20.7068,895.842,0.0250811,0.0,0.0
213,53,33.4287,37.4669,128.844,100.902,100.127,0.00580832,0.195268,20.6965,895.781,0.0745992,0.0,0.0
216,53.75,33.8631,37.6485,134.112,100.91,99.6917,0.00582565,0.201595,20.6856,895.761,0.11751,0.0,0.0
219,54.5,34.0011,37.9977,128.578,100.911,99.4972,0.00585437,0.208183,20.6743,895.732,0.136474,0.0,0.0
222,55.25,34.3017,39.092,127.43,100.913,99.4055,0.00589006,0.213827,20.6629,895.701,0.145553,0.0,0.0
225,56,35.2169,39.779,128.275,100.925,98.4713,0.00594017,0.22139,20.6433,895.681,0.238086,0.0,0.0
228,56.75,35.2622,39.9887,130.04,100.928,97.3881,0.00599828,0.228232,20.6306,895.721,0.345303,0.0,0.0
231,57.5,36.2071,40.8022,135.498,100.914,98.656,0.00609502,0.235494,20.6159,895.551,0.218831,0.0,0.0
234,58.25,35.8409,40.5915,127.467,100.924,96.9094,0.00621617,0.243953,20.597,895.601,0.39261,0.0,0.0
237,59,36.4799,41.6996,124.942,100.918,95.4081,0.00634073,0.255164,20.5806,895.541,0.543083,0.0,0.0
240,59.75,37.1579,42.4526,124.959,100.912,96.747,0.00649351,0.25973,20.5638,895.551,0.407665,0.0,0.0
243,60.5,37.3648,42.8149,121.674,100.907,94.6074,0.00667286,0.269756,20.5451,895.451,0.62354,0.0,0.0
246,61.25,38.1131,43.5524,125.304,100.864,94.6907,0.00685382,0.278707,20.5259,895.511,0.610868,0.0,0.0
249,62,38.229,44.1181,123.38,100.852,94.1901,0.00704091,0.288043,20.5072,895.381,0.660969,0.0,0.0
252,62.75,38.768,44.7264,123.505,100.839,93.0947,0.00723502,0.298179,20.4836,895.381,0.772863,0.0,0.0
255,63.5,39.4845,45.9462,122.298,100.816,94.1227,0.00749333,0.308412,20.4603,895.291,0.664465,0.0,0.0
258,64.25,39.642,46.2274,121.379,100.783,91.4557,0.00773814,0.318305,20.4407,895.331,0.939289,0.0,0.0
261,65,40.3299,46.9975,118.676,100.766,91.1658,0.00801324,0.329848,20.417,895.281,0.968358,0.0,0.0
264,65.75,40.8888,48.0153,121.109,100.74,90.4285,0.00826176,0.34153,20.3959,895.171,1.04444,0.0,0.0
267,66.5,41.765,48.8231,120.299,100.705,88.2475,0.00852499,0.353438,20.3738,895.171,1.27722,0.0,0.0
270,67.25,42.6172,49.89,122.148,100.664,88.4737,0.00880195,0.365539,20.3578,895.131,1.24853,0.0,0.0
273,68,43.067,50.9767,108.669,100.633,88.5074,0.00900384,0.377194,20.3336,895.061,1.24181,0.0,0.0
276,68.75,43.4922,51.9604,116.575,100.608,88.8102,0.00927432,0.390534,20.3094,894.981,1.20642,0.0,0.0
279,69.5,44.3803,53.0788,116.039,100.569,87.036,0.00953135,0.405354,20.2825,894.921,1.39785,0.0,0.0
282,70.25,44.7118,53.7619,112.532,100.525,87.2776,0.00977849,0.41833,20.2519,894.871,1.36675,0.0,0.0
285,71,45.8496,55.037,115.737,100.48,85.514,0.0100172,0.432206,20.2071,894.841,1.55986,0.0,0.0
288,71.75,47.317,57.05,118.362,100.463,85.1745,0.0103042,0.449874,20.1593,894.771,1.59672,0.0,0.0
291,72.5,47.5559,57.6742,116.49,100.424,85.7641,0.0105135,0.47026,20.1178,894.671,1.5263,0.0,0.0
294,73.25,48.4363,59.0986,109.192,100.369,83.5696,0.0107255,0.492432,20.0727,894.611,1.77168,0.0,0.0
297,74,49.2163,60.1253,112.574,100.33,83.3033,0.0110616,0.511864,20.0439,894.49,1.79879,0.0,0.0
300,74.75,50.7375,61.951,114.757,100.295,81.2344,0.0113455,0.53162,20.0032,894.41,2.03864,0.0,0.0
303,75.5,51.9721,63.965,106.57,100.251,81.7873,0.0117197,0.556141,19.96,894.43,1.96876,0.0,0.0
306,76.25,52.5054,65.0549,109.819,100.2,81.7691,0.0120429,0.577779,19.9227,894.28,1.96606,0.0,0.0
309,77,53.8565,66.2857,108.035,100.149,81.6038,0.0123644,0.593351,19.8734,894.22,1.98064,0.0,0.0
312,77.75,54.596,67.7115,106.333,100.111,80.2328,0.0127355,0.618142,19.8247,894.07,2.14088,0.0,0.0
315,78.5,56.8609,70.7081,110.488,100.071,80.2876,0.0130889,0.639113,19.7751,893.98,2.13043,0.0,0.0
318,79.25,57.1148,71.7145,110.513,100.031,80.2409,0.013382,0.666559,19.7241,893.88,2.13221,0.0,0.0
321,80,58.5378,73.4393,105.784,99.972,80.1552,0.0137466,0.694197,19.6788,893.82,2.13681,0.0,0.0
324,80.75,59.513,74.9791,105.935,99.946,77.6624,0.0141475,0.717599,19.6221,893.69,2.43987,0.0,0.0
327,81.5,61.4087,77.4382,96.4777,99.9241,78.3611,0.0145608,0.747752,19.5639,893.61,2.35112,0.0,0.0
330,82.25,62.4646,79.1078,97.4997,99.8713,78.5808,0.0150732,0.778546,19.5009,893.54,2.31894,0.0,0.0
333,83,64.161,81.7855,103.78,99.8266,74.982,0.0156125,0.804752,19.4398,893.399,2.76802,0.0,0.0
336,83.75,65.1642,83.3608,97.6462,99.7897,78.0014,0.0161729,0.836881,19.3886,893.229,2.3826,0.0,0.0
339,84.5,67.171,86.1264,103.775,99.7726,76.494,0.0167467,0.867682,19.3308,893.209,2.5697,0.0,0.0
342,85.25,68.0883,87.7738,106.695,99.7353,76.4253,0.0174338,0.89761,19.2801,893.119,2.57476,0.0,0.0
345,86,69.3212,90.158,93.7306,99.6882,75.6901,0.0179347,0.926827,19.2287,892.919,2.6637,0.0,0.0
348,86.75,70.9499,92.8658,100.718,99.6723,73.8266,0.0186993,0.960532,19.1763,892.819,2.90327,0.0,0.0
351,87.5,72.7162,94.7642,87.9023,99.6638,75.4221,0.0194526,0.993724,19.1318,892.699,2.69563,0.0,0.0
354,88.25,73.5538,96.5247,95.1038,99.6463,75.073,0.0200854,1.0216,19.0761,892.549,2.73882,0.0,0.0
357,89,75.6759,99.5429,105.403,99.6191,73.1218,0.0208969,1.05475,19.0154,892.449,2.99089,0.0,0.0
360,89.75,77.1917,101.682,92.2881,99.6098,75.5906,0.0215935,1.08438,18.9626,892.328,2.66881,0.0,0.0
363,90.5,79.3307,104.284,95.5946,99.6224,71.8758,0.0222807,1.12392,18.9096,892.238,3.15744,0.0,0.0
366,91.25,80.8571,106.808,86.5498,99.6163,71.5786,0.0229578,1.15977,18.8462,892.058,3.19692,0.0,0.0
369,92,82.3878,109.801,90.8905,99.609,72.8014,0.0237524,1.19791,18.7675,891.888,3.03237,0.0,0.0
372,92.75,84.0208,112.232,81.4083,99.611,71.3305,0.0246393,1.24209,18.6904,891.718,3.22999,0.0,0.0
375,93.5,85.7217,114.901,88.4663,99.6196,70.8226,0.0254796,1.27431,18.6258,891.578,3.29993,0.0,0.0
378,94.25,88.15,118.591,77.6645,99.6407,72.1153,0.0264233,1.32359,18.542,891.448,3.12703,0.0,0.0
381,95,90.2093,121.711,78.7384,99.6585,70.4588,0.0273999,1.37144,18.4662,891.318,3.35352,0.0,0.0
384,95.75,91.8617,124.018,85.556,99.6671,71.4706,0.0284182,1.41141,18.3857,891.067,3.21645,0.0,0.0
387,96.5,93.3549,126.591,88.1511,99.6987,71.1994,0.029474,1.46163,18.299,891.047,3.2563,0.0,0.0
390,97.25,95.5637,129.743,89.6181,99.7312,71.089,0.0306209,1.5068,18.2008,890.787,3.27446,0.0,0.0
393,98,98.1803,133.355,72.8604,99.7539,70.832,0.0317245,1.55435,18.1143,890.517,3.31169,0.0,0.0
396,98.75,99.4535,136.382,80.4916,99.773,68.1719,0.0326431,1.61178,18.0045,890.537,3.68377,0.0,0.0
399,99.5,101.993,139.594,71.2453,99.8136,70.5445,0.0338074,1.66435,17.8869,890.257,3.35681,0.0,0.0
402,100.25,104.313,143.477,87.4901,99.8465,70.1353,0.0346562,1.72098,17.7852,890.047,3.41627,0.0,0.0
405,101,106.858,147.266,81.3404,99.8851,67.6327,0.0360077,1.78827,17.6769,889.846,3.77143,0.0,0.0
408,101.75,108.682,150.833,80.9496,99.9257,69.0172,0.0374141,1.86054,17.5593,889.676,3.57937,0.0,0.0
411,102.5,111.102,154.706,78.617,99.9675,67.3834,0.0388544,1.92313,17.4322,889.376,3.81512,0.0,0.0
414,103.25,113.881,158.961,66.2619,100.013,68.3489,0.0403071,2.00409,17.2904,889.246,3.68197,0.0,0.0
417,104,116.829,163.904,96.2159,100.06,68.4467,0.0418105,2.07565,17.1667,889.066,3.67268,0.0,0.0
420,104.75,119.207,167.69,80.4451,100.105,67.949,0.043341,2.14924,17.042,888.805,3.74759,0.0,0.0
423,105.5,120.968,170.845,74.5037,100.144,65.9503,0.0448757,2.23092,16.9036,888.585,4.04009,0.0,0.0
426,106.25,123.77,175.19,66.0879,100.202,67.4995,0.0465585,2.30386,16.7798,888.385,3.82115,0.0,0.0
429,107,125.618,179.213,68.8769,100.251,65.5061,0.0477852,2.37993,16.6502,888.065,4.11584,0.0,0.0
432,107.75,127.925,182.899,69.6638,100.29,66.1224,0.0495348,2.47341,16.5068,887.995,4.02899,0.0,0.0
435,108.5,130.897,187.708,73.8992,100.33,67.0188,0.0512284,2.55612,16.3813,887.534,3.90262,0.0,0.0
438,109.25,133.446,191.899,79.1429,100.406,65.2694,0.0526413,2.64135,16.2226,887.414,4.16572,0.0,0.0
441,110,136.002,196.756,82.0106,100.443,65.7327,0.0545706,2.73388,16.0736,887.174,4.10096,0.0,0.0
444,110.75,138.234,200.416,63.9957,100.474,68.9542,0.0565057,2.81429,15.9189,887.024,3.64111,0.0,0.0
447,111.5,140.802,204.162,79.7383,100.537,67.2982,0.0583915,2.91657,15.7514,886.543,3.88229,0.0,0.0
450,112.25,142.703,207.759,61.0678,100.593,67.5742,0.0601936,3.02499,15.5408,886.403,3.84812,0.0,0.0
453,113,144.781,212.67,71.0973,100.639,65.1789,0.0621889,3.13359,15.3873,886.043,4.20165,0.0,0.0
456,113.75,147.821,217.186,70.3714,100.694,66.055,0.0636436,3.23861,15.2268,885.793,4.07773,0.0,0.0
459,114.5,150.798,221.862,49.2951,100.759,72.9776,0.0651832,3.34909,15.1098,885.543,3.12004,0.0,0.0
462,115.25,153.163,225.785,69.0585,100.778,64.5005,0.0671252,3.45822,14.987,885.202,4.31619,0.0,0.0
465,116,154.707,229.058,54.4624,100.83,67.8588,0.0692645,3.54995,14.8446,884.872,3.83024,0.0,0.0
468,116.75,157.797,234.058,52.9885,100.872,69.8706,0.0711468,3.61683,14.7182,884.632,3.55169,0.0,0.0
471,117.5,160.115,238.833,70.1882,100.916,66.0798,0.0730709,3.75596,14.5218,884.332,4.09546,0.0,0.0
474,118.25,162.99,243.798,51.0872,100.963,66.7464,0.0750303,3.89483,14.2907,883.951,4.0028,0.0,0.0
477,119,166.139,248.879,66.9679,101.012,66.9628,0.0767604,4.01202,14.0848,883.601,3.97624,0.0,0.0
480,119.75,168.159,252.801,67.2931,101.056,70.1994,0.0781502,4.14501,13.8635,883.371,3.52389,0.0,0.0
483,120.5,171.178,257.342,53.7526,101.1,70.0078,0.0795344,4.28182,13.6492,882.98,3.55453,0.0,0.0
486,121.25,174.379,262.978,59.21,101.138,70.1202,0.0805434,4.39853,13.4705,882.76,3.54269,0.0,0.0
489,122,176.235,266.507,65.3505,101.183,73.5087,0.0815001,4.53032,13.2938,882.32,3.09052,0.0,0.0
492,122.75,178.665,270.916,72.7238,101.213,68.3529,0.0821661,4.65816,13.1293,882.15,3.79669,0.0,0.0
495,123.5,181.986,275.849,69.5104,101.25,69.6306,0.0825879,4.7649,12.9823,881.649,3.6211,0.0,0.0
498,124.25,184.964,281.103,68.9066,101.298,69.4134,0.0828091,4.87302,12.8582,881.479,3.65589,0.0,0.0
501,125,186.707,284.035,66.9511,101.319,66.824,0.082849,4.96321,12.7535,881.119,4.02563,0.0,0.0
504,125.75,188.557,288.194,57.2163,101.361,74.9861,0.0828155,5.04841,12.6394,880.889,2.91503,0.0,0.0
507,126.5,191.144,292.656,54.5479,101.388,67.6989,0.0827371,5.13737,12.5334,880.538,3.90644,0.0,0.0
510,127.25,193.801,296.807,64.3957,101.409,71.1925,0.0826332,5.20971,12.4561,880.308,3.42178,0.0,0.0
513,128,196.03,300.437,56.4721,101.435,72.8359,0.0825574,5.27527,12.3998,879.858,3.20347,0.0,0.0
516,128.75,198.286,304.374,61.296,101.465,73.2919,0.0823787,5.33199,12.3587,879.567,3.14602,0.0,0.0
519,129.5,200.247,307.317,50.0354,101.485,71.8672,0.0821897,5.37461,12.3356,879.287,3.33777,0.0,0.0
522,130.25,202.126,309.757,62.3661,101.504,70.8571,0.0820268,5.40621,12.3307,879.057,3.4765,0.0,0.0
525,131,203.596,312.217,59.1863,101.514,70.3127,0.0817776,5.42725,12.331,878.647,3.552,0.0,0.0
528,131.75,205.488,314.571,61.8868,101.531,72.2635,0.0814875,5.44193,12.3329,878.336,3.28893,0.0,0.0
531,132.5,206.977,316.842,86.7932,101.538,68.5267,0.0811646,5.4515,12.3343,878.076,3.80317,0.0,0.0
534,133.25,208.579,318.344,71.5865,101.553,70.0066,0.0808179,5.46498,12.3353,877.666,3.59799,0.0,0.0
537,134,209.838,320.413,39.6259,101.559,68.6932,0.0803404,5.48295,12.3102,877.406,3.78171,0.0,0.0
540,134.75,211.382,322.489,58.3986,101.562,75.0027,0.0798737,5.50524,12.2809,877.155,2.93208,0.0,0.0
543,135.5,212.59,324.372,57.6071,101.57,72.598,0.0793308,5.53778,12.2334,876.765,3.24804,0.0,0.0
546,136.25,214.227,327.296,74.6076,101.58,70.1353,0.0787617,5.56901,12.1987,876.435,3.58273,0.0,0.0
549,137,216.636,330.437,58.7887,101.567,76.8622,0.0782729,5.59497,12.173,876.154,2.69568,0.0,0.0
552,137.75,217.892,332.986,70.4607,101.564,69.3769,0.0778275,5.61922,12.154,875.854,3.68635,0.0,0.0
555,138.5,219.757,334.952,72.4269,101.563,73.0759,0.0773504,5.63815,12.1417,875.484,3.18389,0.0,0.0
558,139.25,221.037,337.253,60.4526,101.547,71.1385,0.0769592,5.65409,12.1331,875.304,3.44227,0.0,0.0
561,140,222.162,338.589,59.2833,101.534,69.0188,0.0766757,5.66571,12.127,874.913,3.73357,0.0,0.0
564,140.75,223.569,340.619,55.0853,101.526,71.592,0.0764697,5.67418,12.1313,874.723,3.37876,0.0,0.0
567,141.5,225.033,342.441,52.471,101.524,72.8278,0.0763196,5.68005,12.1384,874.243,3.21303,0.0,0.0
570,142.25,225.945,343.731,73.7649,101.498,67.9108,0.076203,5.68279,12.1453,874.183,3.8867,0.0,0.0
573,143,227.248,345.274,57.7155,101.487,70.1905,0.0761059,5.68303,12.1621,873.772,3.5663,0.0,0.0
576,143.75,228.624,346.758,70.5324,101.465,73.622,0.0759845,5.67956,12.1836,873.392,3.10248,0.0,0.0
579,144.5,229.166,347.725,55.2303,101.458,72.2286,0.0758543,5.67546,12.2032,873.062,3.28667,0.0,0.0
582,145.25,230.055,349.23,58.0414,101.427,66.9588,0.0756881,5.6634,12.2393,872.831,4.01648,0.0,0.0
585,146,231.654,351.18,61.841,101.398,67.3371,0.0754493,5.64858,12.2919,872.621,3.95915,0.0,0.0
588,146.75,231.836,350.855,67.5503,101.373,70.9391,0.0751945,5.62749,12.3764,872.221,3.45277,0.0,0.0
591,147.5,232.562,351.793,62.6005,101.358,66.6141,0.0749364,5.59186,12.453,871.861,4.05981,0.0,0.0
594,148.25,233.131,352.029,55.6631,101.328,69.441,0.0746833,5.54913,12.555,871.741,3.65492,0.0,0.0
597,149,233.528,351.933,66.9748,101.303,67.9656,0.0744989,5.50283,12.6535,871.48,3.86023,0.0,0.0
600,149.75,233.605,351.569,71.4438,101.267,68.0704,0.07419,5.45536,12.7452,871.09,3.84192,0.0,0.0
603,150.5,233.414,350.69,69.4035,101.244,67.7748,0.073813,5.40237,12.8285,870.82,3.8818,0.0,0.0
606,151.25,234.189,351.09,85.3652,101.222,65.157,0.0734733,5.36373,12.9022,870.529,4.2607,0.0,0.0
609,152,234.245,350.454,74.7602,101.182,69.4386,0.0728369,5.30653,12.978,870.269,3.64129,0.0,0.0
612,152.75,234.311,350.5,63.0561,101.153,61.1892,0.0721085,5.24042,13.0788,870.169,4.86183,0.0,0.0
615,153.5,234.805,349.704,53.3305,101.131,69.2474,0.0713186,5.18183,13.2101,869.909,3.66311,0.0,0.0
618,154.25,234.912,349.496,57.3827,101.104,64.7209,0.0704928,5.10869,13.3611,869.749,4.31435,0.0,0.0
621,155,234.877,347.659,63.3271,101.065,66.571,0.0695528,5.02702,13.5235,869.479,4.03805,0.0,0.0
624,155.75,234.27,346.823,71.83,101.032,66.3449,0.0687234,4.94117,13.6703,869.268,4.06781,0.0,0.0
627,156.5,234.533,345.763,75.6822,101.022,66.3656,0.0676252,4.83954,13.8257,869.018,4.06382,0.0,0.0
630,157.25,234.152,344.209,66.1436,100.996,68.0732,0.0663848,4.7514,13.9833,868.768,3.81558,0.0,0.0
633,158,233.298,342.641,75.8624,100.957,64.3052,0.0650883,4.66315,14.1439,868.578,4.36265,0.0,0.0
636,158.75,233.074,340.85,68.5334,100.944,62.49,0.0634844,4.55971,14.3071,868.368,4.63831,0.0,0.0
639,159.5,232.064,338.791,78.8399,100.925,64.0957,0.0623151,4.46763,14.426,868.217,4.3911,0.0,0.0
642,160.25,231.686,336.275,73.4214,100.899,65.5463,0.0605743,4.33796,14.6264,868.097,4.17218,0.0,0.0
645,161,230.281,333.771,64.7262,100.871,66.66,0.0589265,4.20492,14.8528,867.807,4.00655,0.0,0.0
648,161.75,229.202,330.91,83.6493,100.846,65.1748,0.0568429,4.09151,15.052,867.797,4.2221,0.0,0.0
651,162.5,227.999,327.107,81.3893,100.838,66.8305,0.0549512,3.94419,15.2866,867.547,3.97864,0.0,0.0
654,163.25,226.927,324.694,74.5953,100.815,67.1366,0.0529348,3.83679,15.5054,867.367,3.93226,0.0,0.0
657,164,225.392,321.483,75.3975,100.797,69.0813,0.0509702,3.6751,15.7469,867.237,3.65432,0.0,0.0
660,164.75,223.006,317.467,84.6156,100.777,68.5823,0.0483649,3.53145,16.0219,867.096,3.72253,0.0,0.0
663,165.5,221.264,313.792,87.4924,100.767,71.6427,0.0459059,3.38265,16.3047,866.966,3.2993,0.0,0.0
666,166.25,218.996,309.673,87.6542,100.755,70.996,0.0432466,3.22588,16.5799,866.966,3.38588,0.0,0.0
669,167,217.112,305.199,92.1827,100.743,71.6366,0.0407227,3.09101,16.8972,866.816,3.29786,0.0,0.0
672,167.75,214.754,300.611,93.5917,100.757,72.8826,0.0386333,2.92808,17.2068,866.746,3.13244,0.0,0.0
675,168.5,212.565,296.484,88.3885,100.81,73.6723,0.0362109,2.77154,17.4996,866.646,3.03328,0.0,0.0
678,169.25,209.969,291.262,98.9965,100.856,74.7551,0.0336234,2.62296,17.7705,866.616,2.89656,0.0,0.0
681,170,207.206,286.12,101.59,100.902,77.7505,0.0317372,2.48324,18.0301,866.566,2.52096,0.0,0.0
684,170.75,204.217,281.066,106.408,100.93,83.9306,0.0294776,2.32344,18.2459,866.586,1.78388,0.0,0.0
687,171.5,200.227,274.266,108.326,100.965,83.5591,0.0271696,2.16996,18.5033,866.506,1.83013,0.0,0.0
690,172.25,197.43,269.256,111.081,101.003,88.3421,0.0250017,2.04232,18.7211,866.476,1.2954,0.0,0.0
693,173,194.107,263.564,116.76,101.024,92.2133,0.0228943,1.88483,18.9315,866.456,0.882616,0.0,0.0
696,173.75,190.376,257.277,119.108,101.043,95.1328,0.0209409,1.74935,19.1505,866.466,0.582967,0.0,0.0
699,174.5,186.983,251.576,118.787,101.07,98.8034,0.0191876,1.6152,19.365,866.486,0.219402,0.0,0.0
702,175.25,183.219,245.621,121.158,101.107,99.9146,0.0174827,1.48599,19.5675,866.486,0.114728,0.0,0.0
705,176,180.281,240.701,116.556,101.144,99.9982,0.0161213,1.37839,19.7651,866.506,0.110168,0.0,0.0
708,176.75,175.958,234.049,119.051,101.151,100.23,0.0149261,1.26623,19.9213,866.496,0.0884712,0.0,0.0
711,177.5,173.249,229.626,119.523,101.175,99.8903,0.0138423,1.16381,20.0561,866.486,0.123648,0.0,0.0
714,178.25,169.903,224.275,118.613,101.203,100.231,0.0129067,1.07127,20.1723,866.476,0.0933211,0.0,0.0
717,179,166.829,218.548,124.169,101.233,99.7214,0.0121306,0.988283,20.272,866.456,0.145486,0.0,0.0
720,179.75,163.569,214.155,120.292,101.225,100.086,0.0114758,0.910307,20.3573,866.456,0.109452,0.0,0.0
723,180.5,161.516,210.319,120.324,101.241,99.6312,0.0109077,0.846013,20.4317,866.446,0.155008,0.0,0.0
726,181.25,158.751,205.933,121.009,101.255,100.069,0.0104033,0.780086,20.4955,866.446,0.11397,0.0,0.0
729,182,156.245,201.58,119.698,101.262,100.388,0.00994067,0.72242,20.5494,866.456,0.0838738,0.0,0.0
732,182.75,153.787,197.577,118.5,101.278,99.4757,0.00956298,0.676288,20.5886,866.436,0.173645,0.0,0.0
735,183.5,151.094,193.268,119.656,101.262,100.329,0.00920469,0.628616,20.6259,866.446,0.0895874,0.0,0.0
738,184.25,148.774,189.811,121.701,101.299,100.311,0.00880164,0.58642,20.6558,866.456,0.0947986,0.0,0.0
741,185,147.217,186.176,121.214,101.308,99.7948,0.00845425,0.552486,20.6819,866.426,0.145535,0.0,0.0
744,185.75,144.736,182.771,122.062,101.301,99.9049,0.0081094,0.51686,20.7045,866.456,0.134218,0.0,0.0
747,186.5,143.046,179.151,121.369,101.284,99.7311,0.00775428,0.490889,20.7248,866.446,0.149467,0.0,0.0
750,187.25,140.492,175.782,122.27,101.296,99.9966,0.00743532,0.463311,20.7435,866.456,0.124835,0.0,0.0
753,188,139.193,172.982,120.37,101.297,99.8903,0.0071522,0.43952,20.7621,866.456,0.135246,0.0,0.0
756,188.75,137.132,169.761,120.229,101.29,99.8046,0.00687941,0.414655,20.7775,866.446,0.142885,0.0,0.0
759,189.5,135.986,166.897,124.258,101.288,99.2638,0.0066401,0.392937,20.7903,866.476,0.195281,0.0,0.0
762,190.25,133.634,163.942,122.112,101.294,99.6182,0.00640697,0.373855,20.8013,866.486,0.16135,0.0,0.0
765,191,132.518,161.578,122.411,101.288,100.355,0.00628781,0.357007,20.8075,866.476,0.0895257,0.0,0.0
768,191.75,130.448,158.807,124.155,101.266,99.2321,0.00611911,0.340495,20.8157,866.506,0.196273,0.0,0.0
771,192.5,128.2,155.773,121.672,101.244,99.3482,0.00597898,0.325874,20.8227,866.466,0.182829,0.0,0.0
774,193.25,127.616,153.755,123.717,101.249,99.522,0.00587009,0.314114,20.8289,866.476,0.166392,0.0,0.0
777,194,125.734,150.768,123.079,101.237,99.8886,0.00578325,0.306369,20.8346,866.486,0.129703,0.0,0.0
780,194.75,124.474,148.98,123.606,101.22,99.3312,0.00571545,0.295194,20.8396,866.486,0.1822,0.0,0.0
783,195.5,123.26,147.096,119.296,101.197,98.9609,0.00566247,0.283142,20.8437,866.476,0.216149,0.0,0.0
786,196.25,121.381,144.539,120.825,101.193,99.2183,0.00562161,0.272396,20.8479,866.486,0.190635,0.0,0.0
789,197,120.598,142.702,124.04,101.171,99.3612,0.00558649,0.263728,20.8518,866.496,0.174541,0.0,0.0
792,197.75,118.715,140.895,124.942,101.153,99.5667,0.0055609,0.255116,20.8551,866.486,0.152855,0.0,0.0
795,198.5,118.176,138.474,120.191,101.133,99.1014,0.00554224,0.246682,20.8579,866.466,0.196257,0.0,0.0
798,199.25,117.231,136.311,122.332,101.111,99.3957,0.00552241,0.239163,20.8603,866.456,0.165475,0.0,0.0
801,200,115.554,134.65,122.037,101.082,99.563,0.00550531,0.233096,20.8625,866.466,0.146492,0.0,0.0
804,200.75,114.774,133.227,122.476,101.063,99.2934,0.00546623,0.226477,20.8645,866.486,0.170851,0.0,0.0
807,201.5,113.892,130.918,121.616,101.03,99.049,0.00540407,0.220839,20.8667,866.486,0.191501,0.0,0.0
810,202.25,112.823,129.828,124.485,101.003,98.8757,0.00533264,0.215337,20.869,866.496,0.205879,0.0,0.0
813,203,111.571,128.101,121.109,100.98,99.5159,0.00526044,0.210261,20.871,866.526,0.141273,0.0,0.0
816,203.75,110.626,126.697,118.444,100.947,98.9362,0.00519913,0.205511,20.8728,866.516,0.194596,0.0,0.0
819,204.5,109.585,124.603,121.441,100.905,98.8939,0.00515072,0.201027,20.8745,866.516,0.194717,0.0,0.0
822,205.25,108.953,123.863,123.164,100.861,98.6637,0.00511366,0.196516,20.8762,866.496,0.213014,0.0,0.0
825,206,107.841,122.253,122.66,100.831,98.3901,0.00508292,0.192777,20.8776,866.476,0.237034,0.0,0.0
828,206.75,106.828,120.716,121.589,100.799,98.246,0.00505892,0.189282,20.8786,866.466,0.248136,0.0,0.0
831,207.5,106.296,119.317,125.203,100.743,98.7522,0.00503425,0.185825,20.8794,866.476,0.193083,0.0,0.0
834,208.25,104.618,117.69,123.856,100.691,98.6723,0.00500005,0.182918,20.8791,866.476,0.19589,0.0,0.0
837,209,103.744,116.676,125.763,100.654,98.5935,0.00496843,0.179626,20.879,866.486,0.200064,0.0,0.0
840,209.75,103.585,115.831,121.245,100.619,98.4445,0.00494041,0.177226,20.8789,866.496,0.211297,0.0,0.0
843,210.5,102.34,113.303,120.332,100.562,98.2119,0.00491911,0.174187,20.879,866.496,0.228753,0.0,0.0
846,211.25,102.332,112.864,124.185,100.512,98.4948,0.00490412,0.17145,20.8795,866.486,0.196082,0.0,0.0
849,212,101.281,111.38,123.582,100.463,98.0962,0.00488461,0.168959,20.8799,866.496,0.230583,0.0,0.0
852,212.75,100.788,110.653,121.441,100.42,97.9516,0.00486673,0.166674,20.8801,866.486,0.240699,0.0,0.0
855,213.5,100.292,109.828,127.724,100.392,98.0101,0.00484309,0.164406,20.8805,866.446,0.23223,0.0,0.0
858,214.25,98.8974,108.033,119.344,100.395,98.1392,0.00482462,0.162305,20.881,866.446,0.21981,0.0,0.0
861,215,98.3668,107.413,125.096,100.395,98.1006,0.00481062,0.160581,20.8818,866.466,0.223612,0.0,0.0
864,215.75,98.2419,106.683,122.527,100.408,97.8388,0.00480042,0.158765,20.8824,866.476,0.250678,0.0,0.0
867,216.5,98.048,105.89,126.567,100.403,97.7502,0.00480005,0.156997,20.8829,866.466,0.259001,0.0,0.0
870,217.25,96.859,104.839,122.881,100.402,97.8213,0.00480971,0.155355,20.8834,866.446,0.251856,0.0,0.0
873,218,96.0994,103.241,123.461,100.406,97.7239,0.00482097,0.153725,20.8842,866.466,0.261887,0.0,0.0
876,218.75,95.2813,101.831,121.323,100.419,97.9435,0.00483291,0.152058,20.8848,866.466,0.241384,0.0,0.0
879,219.5,95.6391,102.231,125.813,100.429,97.868,0.00483536,0.150557,20.8852,866.456,0.24986,0.0,0.0
882,220.25,95.0183,101.176,122.431,100.428,98.0235,0.00482376,0.149187,20.8855,866.456,0.234349,0.0,0.0
885,221,94.0572,100.063,120.423,100.429,97.8899,0.00479762,0.147895,20.8857,866.466,0.247695,0.0,0.0
888,221.75,93.8202,99.4307,123.355,100.447,97.771,0.00476741,0.146829,20.8859,866.446,0.261176,0.0,0.0
891,222.5,93.3522,98.2277,125.794,100.452,98.0864,0.00474063,0.145555,20.8866,866.446,0.230528,0.0,0.0
894,223.25,93.1519,97.7452,121.451,100.458,97.8911,0.00472288,0.144362,20.8871,866.436,0.250311,0.0,0.0
897,224,92.517,96.7417,125.553,100.456,97.4303,0.00472233,0.143248,20.8875,866.416,0.295754,0.0,0.0
900,224.75,91.8978,96.1024,127.519,100.475,97.7125,0.00472721,0.142211,20.8878,866.416,0.269697,0.0,0.0
903,225.5,91.7418,95.8562,123.93,100.493,97.8672,0.00474121,0.141205,20.8887,866.416,0.256039,0.0,0.0
906,226.25,90.7462,94.8355,123.569,100.515,97.8018,0.00476927,0.14024,20.8893,866.416,0.26469,0.0,0.0
909,227,90.5545,94.3131,127.225,100.505,97.6954,0.00478265,0.139325,20.8897,866.406,0.274239,0.0,0.0
912,227.75,90.0221,93.0733,122.477,100.518,97.9001,0.00478016,0.138512,20.8901,866.436,0.255251,0.0,0.0
915,228.5,89.4133,93.2558,126.228,100.538,97.7478,0.00477259,0.13767,20.8903,866.416,0.27218,0.0,0.0
918,229.25,89.0148,91.9279,119.935,100.545,97.6581,0.00474951,0.136806,20.8904,866.436,0.281804,0.0,0.0
921,230,88.1765,90.8135,126.074,100.545,97.6662,0.00470814,0.135975,20.8899,866.446,0.280961,0.0,0.0
924,230.75,88.2541,90.841,125.732,100.566,97.5408,0.00466386,0.134907,20.8885,866.436,0.295462,0.0,0.0
927,231.5,88.2121,90.5032,122.371,100.59,98.0166,0.00462538,0.134392,20.888,866.426,0.250699,0.0,0.0
930,232.25,87.8232,89.4258,120.74,100.59,98.0304,0.00459469,0.133797,20.8877,866.446,0.249297,0.0,0.0
933,233,86.9255,88.7468,126.121,100.593,97.7429,0.00457297,0.133114,20.8874,866.416,0.277972,0.0,0.0
936,233.75,86.3976,88.3626,124.867,100.616,98.1579,0.00455825,0.132408,20.8873,866.456,0.239187,0.0,0.0
939,234.5,86.4916,88.1347,126.274,100.624,97.7348,0.00455816,0.131719,20.8872,866.446,0.281743,0.0,0.0
942,235.25,86.0535,87.3745,125.414,100.635,97.8595,0.00456669,0.131052,20.8873,866.436,0.270547,0.0,0.0
945,236,85.3282,86.9222,122.755,100.631,98.056,0.00457367,0.130494,20.8876,866.466,0.250717,0.0,0.0
948,236.75,84.9052,86.6239,125.289,100.666,97.6236,0.00458702,0.129867,20.888,866.436,0.296855,0.0,0.0
951,237.5,84.7253,85.9092,123.509,100.668,98.2525,0.00460295,0.12948,20.8883,866.446,0.234904,0.0,0.0
954,238.25,85.0951,85.6591,123.385,100.679,98.1197,0.00462438,0.128688,20.8885,866.436,0.249074,0.0,0.0
957,239,84.1644,85.2512,121.874,100.686,97.6902,0.00465227,0.128236,20.8887,866.426,0.292132,0.0,0.0
960,239.75,83.4102,84.5115,126.483,100.687,97.7888,0.00468996,0.127647,20.8888,866.416,0.282448,0.0,0.0
963,240.5,83.6071,83.9081,123.84,100.711,98.2415,0.00472353,0.127107,20.8889,866.416,0.240078,0.0,0.0
966,241.25,83.1909,83.3304,126.919,100.726,97.5615,0.00474577,0.126516,20.8889,866.426,0.308744,0.0,0.0
969,242,83.1431,82.8172,123.743,100.744,98.2175,0.0047443,0.126017,20.889,866.416,0.245635,0.0,0.0
972,242.75,82.6579,82.4759,126.229,100.739,97.868,0.00472836,0.125623,20.889,866.436,0.279651,0.0,0.0
975,243.5,82.4912,82.6174,124.993,100.748,98.0888,0.00471039,0.12514,20.8897,866.426,0.258706,0.0,0.0
978,244.25,82.1555,82.1335,127.158,100.767,98.1668,0.00466534,0.12465,20.8901,866.436,0.252893,0.0,0.0
981,245,81.432,80.7717,123.466,100.77,97.6086,0.00461146,0.124234,20.8903,866.436,0.308325,0.0,0.0
984,245.75,80.5917,80.5404,126.284,100.775,97.7726,0.00456321,0.123832,20.8904,866.446,0.292515,0.0,0.0
987,246.5,81.4348,81.1604,127.516,100.79,97.8274,0.00450823,0.12347,20.8904,866.456,0.288536,0.0,0.0
990,247.25,81.16,80.6127,124.801,100.801,98.0592,0.00446219,0.123139,20.8905,866.446,0.266773,0.0,0.0
993,248,80.4107,79.8576,126.559,100.814,97.9305,0.00442968,0.122837,20.8905,866.456,0.280644,0.0,0.0
996,248.75,80.3316,79.8591,127.134,100.813,97.9999,0.00441554,0.12252,20.8905,866.436,0.273751,0.0,0.0
999,249.5,80.1457,79.5618,127.196,100.819,98.0819,0.00440539,0.122247,20.8905,866.446,0.266166,0.0,0.0
1002,250.25,79.4758,78.6939,126.605,100.834,97.4332,0.00440518,0.121951,20.8905,866.466,0.331798,0.0,0.0
1005,251,79.5415,78.9401,124.326,100.844,98.2208,0.00441283,0.121652,20.8905,866.496,0.254938,0.0,0.0
1008,251.75,79.1307,78.453,124.826,100.836,98.5078,0.00441906,0.121475,20.8905,866.466,0.225895,0.0,0.0
1011,252.5,78.8858,77.9206,128.131,100.84,99.0941,0.00442471,0.121211,20.8899,866.486,0.168971,0.0,0.0
1014,253.25,79.0522,77.7746,128.01,100.86,98.2963,0.00442297,0.120923,20.8894,866.496,0.249022,0.0,0.0
1017,254,77.8213,76.9427,125.628,100.867,98.8306,0.00441168,0.120671,20.8891,866.456,0.197294,0.0,0.0
1020,254.75,77.8204,76.587,125.31,100.863,97.7251,0.00440231,0.120296,20.8888,866.436,0.305668,0.0,0.0
1023,255.5,77.779,76.4913,126.716,100.868,98.0726,0.00440738,0.11994,20.8887,866.516,0.271877,0.0,0.0
1026,256.25,77.9873,76.2993,127.4,100.87,98.4766,0.00441635,0.119563,20.8888,866.426,0.232236,0.0,0.0
1029,257,77.5702,75.7195,127.872,100.88,97.9731,0.00444761,0.11926,20.8889,866.446,0.282821,0.0,0.0
1032,257.75,77.4049,75.7771,125.627,100.873,97.6146,0.00448154,0.11899,20.8889,866.476,0.317576,0.0,0.0
1035,258.5,77.525,75.8224,128.242,100.886,97.8716,0.00451233,0.118715,20.8889,866.456,0.293353,0.0,0.0
1038,259.25,76.8192,75.6006,126.607,100.892,98.4327,0.00453701,0.118456,20.889,866.436,0.238724,0.0,0.0
1041,260,76.8315,74.8327,126.44,100.906,98.2898,0.00454913,0.118238,20.889,866.426,0.254061,0.0,0.0
1044,260.75,76.6742,74.8588,126.77,100.894,98.4417,0.00454794,0.11803,20.889,866.436,0.237962,0.0,0.0
1047,261.5,76.257,74.6454,125.423,100.897,97.639,0.00452235,0.117839,20.889,866.446,0.317498,0.0,0.0
1050,262.25,75.9427,74.5203,130.09,100.903,98.6402,0.00449255,0.117678,20.889,866.486,0.21941,0.0,0.0
1053,263,75.3453,74.5432,124.725,100.914,98.1445,0.00446088,0.117524,20.889,866.476,0.269113,0.0,0.0
1056,263.75,75.706,73.5416,125.809,100.909,98.6658,0.00442888,0.117343,20.889,866.466,0.217448,0.0,0.0
1059,264.5,75.158,73.7884,125.41,100.9,98.5537,0.0044006,0.117196,20.889,866.466,0.227542,0.0,0.0
1062,265.25,75.1352,73.6072,126.135,100.917,98.1587,0.00438108,0.117114,20.889,866.476,0.268064,0.0,0.0
1065,266,75.0436,73.017,122.799,100.919,99.252,0.00437231,0.117054,20.8888,866.476,0.161082,0.0,0.0
1068,266.75,74.6379,72.8871,124.899,100.935,98.6349,0.00437582,0.11701,20.8886,866.476,0.223002,0.0,0.0
1071,267.5,74.4894,72.4951,126.824,100.916,97.7312,0.0043826,0.116978,20.8885,866.466,0.310125,0.0,0.0
1074,268.25,74.601,72.4777,126.227,100.916,98.1725,0.00438754,0.116912,20.8884,866.466,0.266586,0.0,0.0
1077,269,74.0306,72.161,128.278,100.941,98.6962,0.00438529,0.11684,20.8883,866.476,0.217498,0.0,0.0
1080,269.75,74.0973,72.2101,129.024,100.913,98.0081,0.00437362,0.116774,20.8883,866.476,0.282487,0.0,0.0
1083,270.5,74.1585,71.8285,128.734,100.912,98.4579,0.00434924,0.116733,20.8876,866.466,0.23808,0.0,0.0
1086,271.25,73.8519,71.2388,128.403,100.921,98.4855,0.00432652,0.116716,20.8872,866.456,0.236303,0.0,0.0
1089,272,73.4339,70.7547,129.015,100.925,98.1867,0.0043098,0.116723,20.8868,866.416,0.266004,0.0,0.0
1092,272.75,73.5721,71.223,124.288,100.934,98.2395,0.00430095,0.116756,20.8865,866.426,0.261702,0.0,0.0
1095,273.5,72.5263,69.8545,124.934,100.92,99.058,0.00430563,0.116748,20.8864,866.456,0.180089,0.0,0.0
1098,274.25,72.6078,70.4874,125.729,100.927,97.4311,0.00431378,0.116668,20.8862,866.456,0.340914,0.0,0.0
1101,275,72.8474,69.9086,126.843,100.936,98.3755,0.00432624,0.11659,20.8861,866.466,0.248552,0.0,0.0
1104,275.75,72.083,69.9815,127.69,100.936,98.7108,0.00434646,0.116548,20.8861,866.446,0.215638,0.0,0.0
1107,276.5,72.5245,70.2266,125.512,100.925,97.9516,0.00437355,0.116542,20.8864,866.436,0.289266,0.0,0.0
1110,277.25,71.5632,69.0776,127.44,100.932,98.4331,0.00440196,0.116538,20.8869,866.436,0.242498,0.0,0.0
1113,278,72.4146,69.7295,132.509,100.928,97.5842,0.00442637,0.116476,20.8872,866.426,0.325848,0.0,0.0
1116,278.75,71.7584,69.7448,123.889,100.929,98.2622,0.00446536,0.116389,20.8875,866.406,0.258995,0.0,0.0
1119,279.5,71.321,69.482,126.722,100.931,99.1846,0.00450493,0.116309,20.8874,866.426,0.168857,0.0,0.0
1122,280.25,71.6254,68.7523,126.877,100.916,98.2646,0.00453853,0.11623,20.887,866.416,0.257511,0.0,0.0
1125,281,71.2354,69.0751,123.449,100.929,98.3491,0.0045593,0.116173,20.8867,866.426,0.250447,0.0,0.0
1128,281.75,71.6902,68.8714,131.562,100.933,99.0474,0.00456244,0.116132,20.8865,866.426,0.182366,0.0,0.0
1131,282.5,70.7755,68.1781,124.987,100.931,98.304,0.00454689,0.116102,20.8863,866.426,0.255037,0.0,0.0
1134,283.25,71.0356,68.6464,126.622,100.928,97.9265,0.00450025,0.116066,20.8862,866.436,0.291984,0.0,0.0
1137,284,70.7725,68.1765,129.015,100.918,97.8363,0.00445017,0.116034,20.8861,866.446,0.299919,0.0,0.0
1140,284.75,70.6273,67.6498,130.73,100.929,98.8513,0.00440615,0.115952,20.886,866.436,0.201144,0.0,0.0
1143,285.5,70.7887,67.9403,128.064,100.929,97.7896,,0.115865,,866.446,0.305663,0.0,0.0
1146,286.25,70.6244,67.8258,126.743,100.915,98.8448,,0.115789,,866.436,0.200496,0.0,0.0
1149,287,69.3875,67.6171,127.612,100.915,98.0389,,0.115734,,866.436,0.279638,0.0,0.0
1152,287.75,69.8613,67.6332,128.723,100.93,98.2581,,0.115681,,866.406,0.259474,0.0,0.0
1155,288.5,69.8104,67.2962,128.442,100.932,98.1595,,,,866.426,0.269385,0.0,0.0
1158,289.25,69.4931,67.1416,128.268,100.922,98.3004,,,,866.446,0.254578,0.0,0.0
1161,290,69.8584,67.331,125.531,100.922,98.8866,,,,866.466,0.197105,0.0,0.0
1164,290.75,69.1847,66.7378,127.276,100.926,98.1603,,,,866.446,0.26876,0.0,0.0
1167,291.5,69.1562,66.674,128.781,100.93,98.2431,,,,866.436,0.260991,0.0,0.0
1170,292.25,68.4292,66.4105,128.673,100.954,98.004,,,,866.476,0.286857,0.0,0.0
1173,293,69.1008,66.4661,130.047,100.921,98.5367,,,,866.466,0.23128,0.0,0.0
1176,293.75,68.4829,65.9771,130.082,100.929,99.2313,,,,866.436,0.164033,0.0,0.0
1179,294.5,68.5268,65.5426,126.997,100.921,99.1115,,,,866.436,0.174975,0.0,0.0
1182,295.25,68.8308,65.9274,127.114,100.924,97.7072,,,,866.416,0.313313,0.0,0.0
1185,296,68.2773,65.4161,124.459,100.916,97.7003,,,,866.436,0.313179,0.0,0.0