File: 01_Data/LDPE/Cone/LDPE_Cone_HF25Scan_220202_R2.csv
Names,Time,Stack TC,Smoke TC,Exh Press,Smoke Comp,Smoke Meas,CO Meter,CO2 Meter,O2 Meter,Sample Mass,Ext Coeff,Start Test,Flame Verif
Chan Gain,,500,500,1,1,1,1,1,1,1,1,1.0,1.0
Offset,,0,0,0.14021,0,0,0,0,0,0,0,0.0,0.0
Gain,,1,1,25.011,13.3046,13.3037,1,1,1,1.00087,1.10262,1.0,1.0
Units,sec,C,C,Pa,%,%,%,%,%,g,/m,,
Baseline,,25.888,24.8513,142.4,100.644,103.657,0.00431179,0.103298,20.9088,-0.00421201,-0.285214,,
4,0.75,22.6983,22.0234,146.155,99.9846,102.338,0.00452798,0.109891,20.9073,929.811,-0.224985,0.0,0.0
8,1.75,23.3581,23.107,144.34,99.8445,101.904,0.00451046,0.109453,20.9075,929.791,-0.197477,0.0,0.0
12,2.75,23.1164,22.195,141.263,99.7349,102.011,0.00447751,0.109161,20.9077,929.771,-0.218231,0.0,0.0
16,3.75,22.3425,22.3017,143.3,99.6395,101.612,0.00443702,0.108999,20.9079,929.761,-0.189576,0.0,0.0
20,4.75,22.848,22.7693,143.517,99.5757,101.376,0.00440137,0.10886,20.9079,929.711,-0.173325,0.0,0.0
24,5.75,23.3058,22.4617,139.744,99.5286,101.677,0.00438714,0.108617,20.908,929.731,-0.206561,0.0,0.0
28,6.75,23.1563,22.7403,140.51,99.5055,102.207,0.00439238,0.108352,20.908,929.731,-0.259117,0.0,0.0
32,7.75,23.0852,22.7797,141.429,99.5501,102.059,0.00442441,0.10809,20.908,929.731,-0.240743,0.0,0.0
36,8.75,23.0322,22.2833,143.747,99.5591,102.087,0.00446335,0.107918,20.9081,929.741,-0.242493,0.0,0.0
40,9.75,23.2352,23.0265,137.775,99.6191,101.576,0.00447321,0.107732,20.9081,929.731,-0.188145,0.0,0.0
44,10.75,23.314,22.4079,135.751,99.6971,102.206,0.00444832,0.1075,20.9081,929.731,-0.240353,0.0,0.0
48,11.75,23.1255,22.7171,141.52,99.797,102.195,0.0044096,0.107223,20.9087,929.741,-0.229709,0.0,0.0
52,12.75,23.1128,22.8557,141.98,99.9009,102.788,0.00437972,0.106927,20.9093,929.701,-0.275578,0.0,0.0
56,13.75,22.8987,22.643,143.825,100.02,102.774,0.00438362,0.106656,20.9097,929.691,-0.262768,0.0,0.0
60,14.75,23.4621,23.1869,140.707,100.128,102.879,0.00443741,0.106352,20.9099,932.964,-0.262104,0.0,0.0
64,15.75,23.2152,22.7736,141.932,100.246,102.804,0.00453224,0.106086,20.9101,943.914,-0.243712,0.0,0.0
68,16.75,22.5084,22.9623,140.445,100.365,102.472,0.00462157,0.105788,20.9102,950.84,-0.200943,0.0,0.0
72,17.75,23.2213,22.8236,144.476,100.467,102.48,0.00472731,0.105494,20.9098,954.563,-0.191894,0.0,0.0
76,18.75,23.0309,22.5181,142.799,100.571,102.72,0.00478801,0.105223,20.9097,957.015,-0.204551,0.0,0.0
80,19.75,23.0384,22.5059,144.883,100.65,102.468,0.00479972,0.104996,20.9101,959.527,-0.173133,0.0,0.0
84,20.75,22.9595,22.9066,137.802,100.716,103.057,0.00479032,0.104776,20.9104,961.449,-0.222298,0.0,0.0
88,21.75,23.3155,22.8119,146.642,100.779,102.422,0.00474827,0.104608,20.9106,962.61,-0.156439,0.0,0.0
92,22.75,23.6651,22.77,140.384,100.814,102.647,0.00470946,0.104399,20.9108,963.18,-0.17423,0.0,0.0
96,23.75,23.0785,22.3054,140.99,100.82,103.113,0.004684,0.104203,20.9109,963.06,-0.217538,0.0,0.0
100,24.75,22.9189,22.4424,146.522,100.832,103.038,0.00467851,0.104004,20.9109,962.37,-0.209324,0.0,0.0
104,25.75,22.4286,22.9081,139.51,100.81,102.679,0.00468836,0.103789,20.9109,960.918,-0.177678,0.0,0.0
108,26.75,22.7251,22.5013,142.831,100.773,102.733,0.00469931,0.103608,20.911,959.457,-0.186386,0.0,0.0
112,27.75,23.0958,22.4182,144.211,100.733,103.069,0.00470278,0.103471,20.911,957.585,-0.221726,0.0,0.0
116,28.75,23.3251,23.2707,140.922,100.666,102.805,0.00469286,0.103381,20.911,955.734,-0.203366,0.0,0.0
120,29.75,23.1689,22.4702,144.026,100.583,102.811,0.00466394,0.103322,20.911,954.022,-0.2119,0.0,0.0
124,30.75,23.2975,22.6382,145.618,100.512,103.203,0.00459567,0.103284,20.9108,952.371,-0.255523,0.0,0.0
128,31.75,22.7873,22.5739,141.228,100.453,102.768,0.00451056,0.103259,20.911,950.619,-0.220353,0.0,0.0
132,32.75,22.7959,22.3678,144.506,100.421,102.422,0.00442826,0.103214,20.9115,948.988,-0.190909,0.0,0.0
136,33.75,22.7441,22.9635,142.421,100.36,102.927,0.00435548,0.10314,20.9114,947.847,-0.244354,0.0,0.0
140,34.75,23.1933,23.0647,140.722,100.303,102.947,0.00432835,0.103025,20.911,946.626,-0.251587,0.0,0.0
144,35.75,22.9902,22.5379,146.409,100.257,102.455,0.00430932,0.102914,20.9107,945.635,-0.209825,0.0,0.0
148,36.75,23.0078,22.3876,142.595,100.302,102.471,0.00431194,0.102768,20.9105,944.384,-0.206935,0.0,0.0
152,37.75,23.4442,22.7787,142.594,100.467,102.339,0.00433959,0.102671,20.9104,943.693,-0.178512,0.0,0.0
156,38.75,22.4098,21.7107,142.795,100.652,103.582,0.00437838,0.102628,20.9103,942.362,-0.277528,0.0,0.0
160,39.75,22.5271,22.9113,140.861,100.795,103.056,0.0044197,0.102604,20.9103,940.931,-0.214544,0.0,0.0
164,40.75,22.9481,22.3837,143.317,100.922,103.199,0.0044377,0.102589,20.9102,940.06,-0.2158,0.0,0.0
168,41.75,22.8685,22.7641,142.834,101.016,103.371,0.00442726,0.102606,20.9109,939.8,-0.222897,0.0,0.0
172,42.75,22.981,22.7541,141.135,101.088,103.417,0.00438513,0.102639,20.9114,939.66,-0.220348,0.0,0.0
176,43.75,22.5527,22.9809,143.097,101.139,103.26,0.00434799,0.102643,20.9117,939.269,-0.200711,0.0,0.0
180,44.75,22.6651,22.7105,138.791,101.167,102.934,0.00434303,0.102682,20.9119,938.689,-0.167485,0.0,0.0
184,45.75,22.7135,22.4518,143.869,101.177,103.459,0.00436088,0.10274,20.9121,938.018,-0.215677,0.0,0.0
188,46.75,23.0324,22.2183,143.492,101.158,103.118,0.00438392,0.102779,20.9121,937.218,-0.185566,0.0,0.0
192,47.75,22.6736,22.3165,142.675,101.128,102.259,0.00441329,0.102804,20.9122,936.297,-0.107523,0.0,0.0
196,48.75,22.6234,22.3934,142.554,101.079,103.107,0.00444632,0.102869,20.9122,935.156,-0.192149,0.0,0.0
200,49.75,22.8573,22.6107,142.795,101.005,103.286,0.00449342,0.103011,20.9115,933.885,-0.216042,0.0,0.0
204,50.75,22.8929,22.7945,145.111,100.907,103.53,0.00455776,0.103129,20.911,932.534,-0.24824,0.0,0.0
208,51.75,22.6023,22.7067,141.889,100.792,103.283,0.00461588,0.103167,20.9105,931.222,-0.236132,0.0,0.0
212,52.75,22.8023,22.6827,143.773,100.682,103.26,0.00465653,0.103236,20.91,930.302,-0.244531,0.0,0.0
216,53.75,22.6389,22.1562,142.519,100.65,103.124,0.00466151,0.103324,20.9097,929.541,-0.234825,0.0,0.0
220,54.75,22.3069,22.7638,144.399,100.686,102.752,0.00462727,0.103382,20.9095,929.191,-0.19641,0.0,0.0
224,55.75,22.7236,22.9686,145.643,100.732,103.387,0.00456037,0.103412,20.9094,929.421,-0.251668,0.0,0.0
228,56.75,22.7598,22.5979,142.471,100.776,103.392,0.00448284,0.103437,20.9093,929.641,-0.247837,0.0,0.0
232,57.75,22.9416,22.2546,142.831,100.835,103.669,0.00442672,0.103505,20.9085,928.7,-0.268095,0.0,0.0
236,58.75,22.3415,22.5972,138.926,100.889,103.355,0.0044094,0.103525,20.9087,927.169,-0.233552,0.0,0.0
240,59.75,22.2108,22.5391,144.056,100.95,103.657,0.0044095,0.103616,20.9089,926.298,-0.256018,0.0,0.0
244,60.75,22.4746,23.0252,143.327,101.015,103.196,0.00440081,0.103755,20.909,925.537,-0.206549,0.0,0.0
248,61.75,22.4029,22.4271,143.818,101.07,103.486,0.00437619,0.103921,20.909,925.307,-0.228434,0.0,0.0
252,62.75,22.3742,22.1987,141.984,101.142,103.714,0.00432652,0.104006,20.9091,925.077,-0.242861,0.0,0.0
256,63.75,22.7694,22.5894,143.091,101.19,103.087,0.00427647,0.104014,20.9094,925.047,-0.179645,0.0,0.0
260,64.75,22.4375,22.557,145.494,101.232,103.409,0.00421585,0.104002,20.9088,925.517,-0.205769,0.0,0.0
264,65.75,22.8277,22.4313,140.786,101.273,104.155,0.00415864,0.103976,20.9085,926.178,-0.271396,0.0,0.0
268,66.75,22.8479,22.7102,144.177,101.325,104.227,0.00409204,0.104096,20.9082,927.719,-0.273144,0.0,0.0
272,67.75,22.2907,22.1425,143.183,101.361,103.191,0.00402824,0.104312,20.908,929.361,-0.173143,0.0,0.0
276,68.75,22.4992,22.643,141.781,101.388,103.995,0.00399532,0.104503,20.9073,929.591,-0.245525,0.0,0.0
280,69.75,22.0588,22.1874,146.284,101.433,103.815,0.00400894,0.104733,20.9067,929.521,-0.224522,0.0,0.0
284,70.75,22.7267,22.468,143.593,101.442,103.405,0.00404218,0.105018,20.9062,929.571,-0.185353,0.0,0.0
288,71.75,22.5316,22.518,142.202,101.45,104.15,0.0040838,0.105318,20.906,929.581,-0.254015,0.0,0.0
292,72.75,22.6184,22.8227,139.655,101.445,104.063,0.004136,0.105662,20.905,929.581,-0.246406,0.0,0.0
296,73.75,22.1767,22.6396,142.776,101.444,103.957,0.00419105,0.105905,20.9044,929.581,-0.23667,0.0,0.0
300,74.75,22.7069,22.5178,144.85,101.433,104.093,0.0042489,0.106139,20.9032,929.571,-0.250322,0.0,0.0
304,75.75,22.3829,22.572,139.774,101.43,103.178,0.00430115,0.106409,20.9024,929.601,-0.165225,0.0,0.0
308,76.75,22.6516,22.3444,140.684,101.408,103.22,0.00437576,0.106631,20.9018,929.621,-0.171274,0.0,0.0
312,77.75,22.213,22.275,144.259,101.385,104.416,0.00445385,0.106866,20.9015,929.591,-0.284989,0.0,0.0
316,78.75,22.691,22.8801,143.756,101.355,103.392,0.00453648,0.107014,20.9013,929.591,-0.192465,0.0,0.0
320,79.75,22.9671,22.7236,142.622,101.328,103.489,0.00459069,0.107117,20.9011,929.611,-0.204096,0.0,0.0
324,80.75,22.4541,22.5525,141.886,101.282,102.938,0.00461742,0.107277,20.901,929.601,-0.156809,0.0,0.0
328,81.75,22.8636,22.7577,143.111,101.244,103.169,0.00464319,0.107462,20.901,929.581,-0.182252,0.0,0.0
332,82.75,22.7103,23.028,141.246,101.194,103.192,0.00466294,0.107564,20.9009,929.591,-0.189116,0.0,0.0
336,83.75,22.8952,22.4307,144.404,101.143,102.547,0.00474548,0.107605,20.9009,929.581,-0.133428,0.0,0.0
340,84.75,22.7231,22.6187,142.489,101.089,103.107,0.00481535,0.10765,20.9009,929.551,-0.191217,0.0,0.0
344,85.75,22.8182,22.7047,143.289,101.043,102.813,0.00483514,0.107757,20.9009,929.551,-0.167957,0.0,0.0
348,86.75,22.4138,22.1126,143.501,100.986,103.236,0.00478659,0.107875,20.9003,929.561,-0.213154,0.0,0.0
352,87.75,23.0654,22.8506,141.354,100.919,102.822,0.00474331,0.108014,20.9,929.541,-0.180696,0.0,0.0
356,88.75,22.0854,22.6045,143.391,100.854,102.527,0.00469972,0.108116,20.8997,929.551,-0.159081,0.0,0.0
360,89.75,22.4162,22.3995,144.434,100.805,102.891,0.00467312,0.108283,20.8991,929.571,-0.19809,0.0,0.0
364,90.75,22.6765,22.6675,140.557,100.742,103.322,0.00465119,0.108407,20.8984,929.571,-0.244615,0.0,0.0
368,91.75,22.2427,22.8781,145.416,100.688,102.831,0.00460766,0.108572,20.8979,929.551,-0.203742,0.0,0.0
372,92.75,23.0054,23.0946,146.6,100.624,102.919,0.00456412,0.108777,20.8975,929.591,-0.218074,0.0,0.0
376,93.75,23.384,22.9,141.168,100.579,102.722,0.00448794,0.108979,20.8965,929.601,-0.203923,0.0,0.0
380,94.75,23.0369,22.63,140.326,100.517,101.914,0.00440772,0.109188,20.8951,929.591,-0.133447,0.0,0.0
384,95.75,22.8967,23.4184,142.876,100.473,102.71,0.00435209,0.10943,20.8939,929.601,-0.213049,0.0,0.0
388,96.75,21.9146,22.7091,140.817,100.435,102.029,0.0043196,0.109784,20.8926,929.601,-0.152279,0.0,0.0
392,97.75,22.7107,23.048,147.204,100.38,101.932,0.00431945,0.110206,20.8917,929.571,-0.148396,0.0,0.0
396,98.75,22.4793,22.98,144.982,100.347,102.433,0.00433848,0.110577,20.8905,929.571,-0.199025,0.0,0.0
400,99.75,23.0704,22.9903,143.114,100.317,102.783,0.00437112,0.110993,20.8896,929.591,-0.234911,0.0,0.0
404,100.75,22.6872,22.7326,142.628,100.283,102.401,0.00441943,0.111395,20.8883,929.551,-0.202104,0.0,0.0
408,101.75,23.0638,23.2105,140.54,100.233,102.56,0.00449595,0.111941,20.8873,929.521,-0.221982,0.0,0.0
412,102.75,22.8127,22.9957,144.071,100.209,102.473,0.00460804,0.112576,20.8858,929.561,-0.216058,0.0,0.0
416,103.75,22.7922,23.2612,142.146,100.174,102.248,0.00469823,0.113348,20.8837,929.561,-0.198214,0.0,0.0
420,104.75,22.3864,22.884,141.519,100.149,102.119,0.00488099,0.114197,20.8817,929.551,-0.188426,0.0,0.0
424,105.75,22.5132,23.1441,142.103,100.126,101.441,0.00501154,0.114948,20.8798,929.551,-0.12619,0.0,0.0
428,106.75,22.9647,23.7207,142.699,100.095,102.161,0.00509119,0.115891,20.8778,929.551,-0.197602,0.0,0.0
432,107.75,22.9959,23.3664,147.176,100.052,101.732,0.00514107,0.11692,20.8761,929.541,-0.161086,0.0,0.0
436,108.75,23.2354,23.5121,143.717,100.033,102.206,0.00511533,0.117995,20.8735,929.521,-0.207833,0.0,0.0
440,109.75,23.4,24.0016,140.085,99.9894,101.271,0.00506481,0.119243,20.8711,929.521,-0.123144,0.0,0.0
444,110.75,23.2722,23.969,144.694,99.9614,102.155,0.00500846,0.120398,20.869,929.531,-0.20998,0.0,0.0
448,111.75,22.8551,23.4555,141.132,99.9371,101.396,0.00498728,0.121624,20.8652,929.501,-0.140225,0.0,0.0
452,112.75,23.7406,24.3843,136.972,99.9143,100.968,0.00502118,0.123167,20.8623,929.501,-0.101482,0.0,1.0
456,113.75,23.2222,24.241,138.123,99.8969,101.512,0.00511313,0.124716,20.8593,929.471,-0.155108,0.0,1.0
460,114.75,23.9029,24.5481,138.079,99.8814,100.779,0.00522522,0.126336,20.855,929.481,-0.0865647,0.0,1.0
464,115.75,23.7491,24.6752,143.398,99.8498,101.694,0.00530586,0.128088,20.8503,929.431,-0.177061,0.0,1.0
468,116.75,23.8263,24.4276,139.654,99.836,101.083,0.00534267,0.129908,20.8464,929.481,-0.120109,0.0,1.0
472,117.75,23.6083,24.0268,141.356,99.8161,101.054,0.00535617,0.131897,20.8433,929.481,-0.1192,0.0,1.0
476,118.75,23.65,24.9881,140.361,99.7893,101.571,0.00536872,0.133972,20.8389,929.461,-0.171139,0.0,1.0
480,119.75,24.0372,25.1726,138.507,99.7872,101.502,0.00539488,0.13611,20.8347,929.421,-0.164761,0.0,0.0
484,120.75,23.8241,24.3603,137.506,99.7706,100.676,0.00541749,0.138136,20.8305,929.401,-0.0873634,0.0,0.0
488,121.75,23.9913,25.1147,142.868,99.7539,102.066,0.00543457,0.140162,20.826,929.391,-0.221654,0.0,0.0
492,122.75,23.7352,25.1471,136.404,99.7414,100.721,0.00544738,0.142551,20.8207,929.381,-0.0945266,0.0,0.0
496,123.75,24.3158,25.6499,141.499,99.7328,101.216,0.00546704,0.144836,20.8162,929.391,-0.1428,0.0,0.0
500,124.75,23.679,24.6636,138.285,99.7259,100.575,0.00546739,0.147345,20.8124,929.361,-0.0820158,0.0,0.0
504,125.75,24.353,25.6719,142.731,99.6983,101.139,0.00544371,0.149991,20.8079,929.341,-0.138813,0.0,0.0
508,126.75,24.8451,26.0355,135.495,99.6987,101.046,0.00540505,0.152483,20.8042,929.351,-0.129839,0.0,0.0
512,127.75,24.5453,26.0297,141.853,99.6784,101.417,0.00533779,0.15456,20.7995,929.291,-0.167225,0.0,0.0
516,128.75,25.0789,26.4512,137.613,99.6711,101.544,0.00525769,0.157017,20.7952,929.311,-0.180084,0.0,0.0
520,129.75,25.4624,26.6625,141.883,99.6658,100.464,0.00518267,0.159172,20.7903,929.291,-0.0771024,0.0,0.0
524,130.75,25.4333,26.8837,137.766,99.6606,100.922,0.00511996,0.161909,20.7857,929.271,-0.121682,0.0,0.0
528,131.75,25.1077,26.8048,138.464,99.661,101.179,0.00508868,0.164551,20.7821,929.261,-0.146242,0.0,0.0
532,132.75,25.3481,27.2201,141.852,99.6565,101.197,0.00509879,0.167144,20.7795,929.231,-0.148382,0.0,0.0
536,133.75,26.2971,28.1814,135.126,99.6419,100.34,0.0051436,0.169778,20.7769,929.211,-0.0675373,0.0,0.0
540,134.75,26.3199,28.1438,138.4,99.6492,100.768,0.00523396,0.171707,20.7745,929.181,-0.107989,0.0,0.0
544,135.75,26.0304,27.7348,135.997,99.639,100.233,0.00533228,0.174722,20.7705,929.161,-0.0575159,0.0,0.0
548,136.75,26.2395,28.3054,136.386,99.6374,100.844,0.00540605,0.177614,20.7651,929.171,-0.116455,0.0,0.0
552,137.75,26.7911,29.1059,135.812,99.6354,99.0515,0.00542682,0.180172,20.7591,929.121,0.056851,0.0,0.0
556,138.75,26.5228,28.8473,139.613,99.6427,100.179,0.00540095,0.183176,20.7537,929.121,-0.0519101,0.0,0.0
560,139.75,26.5115,28.9579,139.151,99.6382,100.14,0.0053578,0.186244,20.7476,929.121,-0.0485397,0.0,0.0
564,140.75,27.3256,29.9529,134.588,99.6374,99.9552,0.00530024,0.189403,20.7412,929.101,-0.0307996,0.0,0.0
568,141.75,27.5953,29.9624,136.789,99.6378,99.1729,0.00527148,0.192343,20.7347,929.081,0.0452417,0.0,0.0
572,142.75,26.9132,30.0422,135.867,99.635,100.44,0.0052616,0.195654,20.7298,929.01,-0.0778689,0.0,0.0
576,143.75,27.7237,30.616,136.632,99.635,100.625,0.00525962,0.198447,20.7252,929.01,-0.0956031,0.0,0.0
580,144.75,27.7031,30.2097,135.194,99.6289,99.1854,0.00527632,0.201347,20.72,928.99,0.0431471,0.0,0.0
584,145.75,28.2643,30.5533,136.354,99.635,98.6962,0.00533162,0.204446,20.7138,928.951,0.0915635,0.0,0.0
588,146.75,28.3401,31.31,129.898,99.6366,98.5172,0.00538966,0.208073,20.7085,928.93,0.109282,0.0,0.0
592,147.75,28.8545,31.5965,135.376,99.639,98.2975,0.00544646,0.211522,20.7029,928.89,0.131107,0.0,0.0
596,148.75,29.3226,32.419,133.439,99.6476,98.0418,0.00546636,0.214434,20.6961,928.83,0.157135,0.0,0.0
600,149.75,29.012,32.2289,134.121,99.6468,99.077,0.00547151,0.218038,20.689,928.83,0.0554582,0.0,0.0
604,150.75,29.4013,33.0203,137.653,99.6492,98.1993,0.00548287,0.221594,20.6814,928.82,0.141765,0.0,0.0
608,151.75,29.9893,32.9697,137.444,99.6553,98.9414,0.00555375,0.225381,20.6738,928.77,0.0695316,0.0,0.0
612,152.75,30.0526,33.2002,132.452,99.6537,97.6967,0.00564503,0.22922,20.667,928.77,0.191831,0.0,0.0
616,153.75,30.4472,33.9264,132.612,99.663,96.8238,0.00576183,0.233098,20.6609,928.75,0.279543,0.0,0.0
620,154.75,30.3001,34.1943,129.701,99.6675,98.814,0.00585378,0.236945,20.6556,928.71,0.0831845,0.0,0.0
624,155.75,30.9061,34.4327,133.22,99.674,97.3248,0.00590959,0.240664,20.6511,928.69,0.230689,0.0,0.0
628,156.75,31.0879,34.933,128.222,99.6805,96.7032,0.00593197,0.244336,20.6465,928.69,0.29329,0.0,0.0
632,157.75,31.3515,35.348,130.147,99.6987,97.1425,0.00595172,0.247932,20.6404,928.65,0.251225,0.0,0.0
636,158.75,31.0891,35.5941,136.822,99.7048,97.0674,0.00598454,0.250985,20.6332,928.62,0.259297,0.0,0.0
640,159.75,31.5577,35.6575,131.275,99.717,95.4072,0.00604894,0.255018,20.6246,928.57,0.427329,0.0,0.0
644,160.75,31.5896,36.2687,130.633,99.732,96.4328,0.00611446,0.258922,20.6164,928.51,0.325374,0.0,0.0
648,161.75,32.1497,36.4489,129.56,99.7414,95.4503,0.00624114,0.262526,20.6095,928.53,0.42533,0.0,0.0
652,162.75,32.6757,37.0001,129.343,99.76,95.419,0.00637407,0.266149,20.6034,928.49,0.43031,0.0,0.0
656,163.75,32.4246,37.2851,134.981,99.7864,96.229,0.00649527,0.269868,20.5978,928.44,0.351113,0.0,0.0
660,164.75,32.602,37.5272,131.484,99.7982,96.663,0.00659292,0.273499,20.5906,928.38,0.308729,0.0,0.0
664,165.75,33.1082,38.3991,131.373,99.8177,97.2728,0.00665246,0.277288,20.5836,928.34,0.249793,0.0,0.0
668,166.75,33.0182,38.2593,129.297,99.8234,94.9387,0.00667112,0.28086,20.5763,928.32,0.485257,0.0,0.0
672,167.75,34.1548,38.9253,131.623,99.8538,96.5359,0.00668073,0.284917,20.5699,928.27,0.326842,0.0,0.0
676,168.75,34.0192,39.2094,133.91,99.8782,95.8632,0.0066839,0.288939,20.5639,928.24,0.39684,0.0,0.0
680,169.75,34.3062,39.4097,132.53,99.8977,94.0967,0.00669929,0.292573,20.556,928.2,0.57862,0.0,0.0
684,170.75,34.1791,39.4191,129.882,99.9192,93.9116,0.0067262,0.296678,20.5448,928.15,0.599751,0.0,0.0
688,171.75,34.6884,40.5984,126.172,99.9379,93.8539,0.00676207,0.301603,20.5299,928.14,0.607498,0.0,0.0
692,172.75,35.2402,41.1668,127.486,99.9695,94.6355,0.00682565,0.307368,20.5135,928.09,0.530355,0.0,0.0
696,173.75,35.8383,41.3886,128.616,99.9951,94.1056,0.00691404,0.313502,20.4981,928.02,0.587132,0.0,0.0
700,174.75,35.8128,42.2238,130.317,100.024,90.6884,0.00709382,0.319992,20.4847,927.98,0.947717,0.0,0.0
704,175.75,36.5761,43.0732,130.741,100.064,91.7797,0.00737208,0.326608,20.4703,927.95,0.83583,0.0,0.0
708,176.75,37.0457,43.4228,126.468,100.074,92.0424,0.00765354,0.333752,20.457,927.88,0.809167,0.0,0.0
712,177.75,37.5532,43.5301,120.617,100.123,90.2475,0.00786481,0.340933,20.4462,927.809,1.00439,0.0,0.0
716,178.75,36.9198,44.2305,128.36,100.14,91.0485,0.00816118,0.348867,20.4321,927.769,0.920609,0.0,0.0
720,179.75,38.3577,45.2454,127.028,100.177,89.1395,0.00842603,0.35677,20.4156,927.689,1.12913,0.0,0.0
724,180.75,38.9348,45.6546,123.682,100.217,89.8175,0.00869282,0.365163,20.3986,927.689,1.05968,0.0,0.0
728,181.75,39.2212,46.4696,129.686,100.238,88.8472,0.00893257,0.374181,20.3749,927.579,1.16677,0.0,0.0
732,182.75,39.8634,47.8111,124.758,100.285,88.1115,0.00923317,0.38427,20.3481,927.569,1.25166,0.0,0.0
736,183.75,40.5292,49.006,128.676,100.311,87.7092,0.00956844,0.395652,20.3182,927.439,1.29851,0.0,0.0
740,184.75,41.2916,49.2995,121.925,100.349,85.9293,0.00988762,0.406842,20.2855,927.409,1.50041,0.0,0.0
744,185.75,41.7985,50.397,122.304,100.384,85.0921,0.0101785,0.420352,20.2534,927.309,1.5985,0.0,0.0
748,186.75,42.8259,51.4882,121.336,100.426,84.7714,0.0104313,0.434181,20.2232,927.229,1.6391,0.0,0.0
752,187.75,43.5898,52.3528,126.366,100.443,85.4734,0.010623,0.448145,20.1967,927.139,1.56094,0.0,0.0
756,188.75,44.0281,53.2747,115.59,100.468,85.3414,0.0107925,0.461958,20.1745,927.059,1.5783,0.0,0.0
760,189.75,44.6746,54.8626,118.81,100.509,84.5343,0.0109628,0.475812,20.1494,926.939,1.67416,0.0,0.0
764,190.75,45.5188,55.5322,124.621,100.548,84.6122,0.0111495,0.488846,20.1227,926.879,1.66899,0.0,0.0
768,191.75,45.9668,55.9646,120.457,100.569,83.8957,0.0113582,0.502718,20.0917,926.839,1.75329,0.0,0.0
772,192.75,47.4597,57.5724,115.001,100.604,83.9387,0.0115817,0.517005,20.0579,926.719,1.75165,0.0,0.0
776,193.75,47.8485,58.6311,120.228,100.638,84.3857,0.0117979,0.532223,20.0273,926.628,1.70355,0.0,0.0
780,194.75,49.0397,59.7098,117.443,100.665,84.8104,0.0119827,0.546803,20.004,926.548,1.65765,0.0,0.0
784,195.75,49.6014,61.0561,116.714,100.694,84.2261,0.0122723,0.561516,19.98,926.428,1.72728,0.0,0.0
788,196.75,50.236,62.4942,107.112,100.707,81.9859,0.0125209,0.575852,19.9542,926.308,1.98928,0.0,0.0
792,197.75,51.5652,64.0371,116.594,100.739,82.2554,0.0127968,0.590952,19.9324,926.238,1.96053,0.0,0.0
796,198.75,51.8235,64.6418,118.328,100.772,84.0361,0.0131794,0.604485,19.9063,926.178,1.75657,0.0,0.0
800,199.75,53.7785,66.5399,113.224,100.807,84.0849,0.0136067,0.623539,19.876,926.048,1.75436,0.0,0.0
804,200.75,54.3899,67.6264,110.125,100.823,81.7321,0.0139859,0.638543,19.8503,925.968,2.0304,0.0,0.0
808,201.75,54.8466,68.8511,117.529,100.86,80.603,0.0142348,0.65296,19.8256,925.798,2.16841,0.0,0.0
812,202.75,55.9963,69.8704,122.802,100.894,82.0585,0.0144923,0.668485,19.8021,925.758,1.99863,0.0,0.0
816,203.75,55.6367,70.5649,112.798,100.905,83.2993,0.0146645,0.682712,19.7819,925.608,1.85453,0.0,0.0
820,204.75,58.0152,72.7612,114.175,100.937,79.6546,0.0149113,0.700603,19.7472,925.517,2.29029,0.0,0.0
824,205.75,58.4712,74.2104,116.636,100.973,80.2052,0.0151514,0.718868,19.7062,925.387,2.22717,0.0,0.0
828,206.75,59.372,75.6322,117.761,100.991,78.7107,0.0154556,0.732891,19.6641,925.227,2.41077,0.0,0.0
832,207.75,60.9824,77.5718,111.071,101.012,78.042,0.0157928,0.752006,19.6229,925.127,2.49535,0.0,0.0
836,208.75,61.7059,78.9419,112.525,101.035,79.3043,0.0160819,0.771639,19.5843,924.977,2.34234,0.0,0.0
840,209.75,62.9564,80.8661,108.73,101.048,80.8227,0.0164369,0.791493,19.5539,924.857,2.16018,0.0,0.0
844,210.75,63.8408,81.5912,115.062,101.084,79.0639,0.0167605,0.80911,19.5231,924.707,2.3764,0.0,0.0
848,211.75,65.1041,84.346,101.492,101.099,76.4826,0.0170047,0.83006,19.4883,924.637,2.69889,0.0,0.0
852,212.75,66.4902,85.1737,107.064,101.126,79.0879,0.0172055,0.850115,19.4485,924.457,2.37751,0.0,0.0
856,213.75,67.3783,87.1441,101.079,101.153,79.4058,0.0173761,0.87253,19.4084,924.386,2.34123,0.0,0.0
860,214.75,68.1061,89.0039,106.455,101.164,78.025,0.017528,0.894605,19.3718,924.226,2.51203,0.0,0.0
864,215.75,69.9896,90.8397,104.542,101.182,79.1033,0.0176552,0.914533,19.3398,924.036,2.38098,0.0,0.0
868,216.75,71.0316,93.0038,114.14,101.206,78.0871,0.017808,0.934934,19.3079,923.906,2.50833,0.0,0.0
872,217.75,71.9585,93.8831,104.553,101.222,78.6831,0.0179968,0.953127,19.2715,923.776,2.43626,0.0,0.0
876,218.75,73.3612,95.9191,105.053,101.238,76.8541,0.0183091,0.975252,19.2197,923.646,2.66526,0.0,0.0
880,219.75,74.7501,98.0889,98.7721,101.251,79.2994,0.0184891,1.00077,19.1822,923.516,2.36359,0.0,0.0
884,220.75,76.4293,100.359,103.011,101.276,79.0542,0.0187807,1.02605,19.1387,923.376,2.39595,0.0,0.0
888,221.75,77.5035,102.349,95.9815,101.285,78.3128,0.0190998,1.05485,19.099,923.205,2.48793,0.0,0.0
892,222.75,79.3452,104.684,102.768,101.293,77.9413,0.0193838,1.07357,19.0634,923.015,2.5347,0.0,0.0
896,223.75,79.9291,106.686,96.6441,101.313,78.9113,0.0196307,1.09654,19.0323,922.865,2.41694,0.0,0.0
900,224.75,81.8328,108.805,99.6407,101.329,76.7501,0.0199838,1.12244,18.9996,922.685,2.68703,0.0,0.0
904,225.75,83.3255,110.827,88.0984,101.335,76.9223,0.0203925,1.14833,18.9499,922.575,2.66598,0.0,0.0
908,226.75,84.8971,112.679,98.7927,101.342,76.8147,0.0208333,1.17465,18.889,922.355,2.68022,0.0,0.0
912,227.75,86.637,115.397,91.5568,101.363,78.4066,0.0213003,1.20158,18.8227,922.195,2.48376,0.0,0.0
916,228.75,87.8991,118.181,95.7228,101.361,78.286,0.0217655,1.23307,18.7689,922.024,2.49853,0.0,0.0
920,229.75,89.5901,120.507,96.0151,101.377,74.576,0.0221952,1.26677,18.7147,921.844,2.96962,0.0,0.0
924,230.75,90.9387,122.999,98.3927,101.377,76.466,0.0226742,1.29889,18.6648,921.624,2.72752,0.0,0.0
928,231.75,92.7786,125.528,82.87,101.391,75.1611,0.0232134,1.32608,18.6183,921.454,2.89536,0.0,0.0
932,232.75,94.1215,127.507,92.9345,101.401,75.4047,0.0237824,1.35369,18.5652,921.274,2.86503,0.0,0.0
936,233.75,95.6861,129.87,85.1514,101.406,75.5257,0.0245083,1.38645,18.5054,921.094,2.84995,0.0,0.0
940,234.75,97.5621,132.481,88.1458,101.41,77.0981,0.0253719,1.42337,18.4298,920.863,2.65103,0.0,0.0
944,235.75,99.0604,134.605,86.2368,101.422,76.6868,0.0261827,1.46256,18.3444,920.673,2.70393,0.0,0.0
948,236.75,102.004,138.717,82.3868,101.424,77.4858,0.0271285,1.50198,18.2636,920.463,2.60383,0.0,0.0
952,237.75,103.15,141.36,81.3618,101.435,75.6085,0.028011,1.54427,18.1832,920.233,2.84217,0.0,0.0
956,238.75,105.342,144.246,85.904,101.437,73.8132,0.0288224,1.58737,18.1181,920.043,3.0748,0.0,0.0
960,239.75,107.364,147.274,86.0811,101.436,75.4741,0.0295566,1.627,18.0691,919.792,2.85942,0.0,0.0
964,240.75,109.052,149.726,93.6856,101.445,72.8396,0.0302648,1.66646,18.0141,919.602,3.20396,0.0,0.0
968,241.75,110.594,153.405,84.8568,101.445,73.0881,0.0309308,1.7054,17.9575,919.362,3.17098,0.0,0.0
972,242.75,111.858,155.324,76.1295,101.44,71.864,0.0314934,1.74211,17.8961,919.172,3.33391,0.0,0.0
976,243.75,114.848,158.323,74.016,101.45,71.6866,0.0321773,1.78276,17.8305,918.892,3.35875,0.0,0.0
980,244.75,116.983,161.376,77.9881,101.458,71.6529,0.0328625,1.8197,17.7601,918.702,3.36407,0.0,0.0
984,245.75,117.815,164.855,90.9332,101.456,71.6167,0.0336058,1.86345,17.704,918.461,3.3688,0.0,0.0
988,246.75,120.205,166.662,80.0589,101.458,71.2599,0.0344359,1.90836,17.6381,918.221,3.41723,0.0,0.0
992,247.75,121.616,169.364,80.6794,101.453,69.1036,0.0355536,1.95699,17.5551,917.971,3.71399,0.0,0.0
996,248.75,123.632,173.016,79.2651,101.456,72.3215,0.0368185,2.00789,17.4588,917.651,3.274,0.0,0.0
1000,249.75,125.579,175.942,84.0607,101.462,70.959,0.0378848,2.04532,17.3668,917.45,3.45858,0.0,0.0
1004,250.75,127.496,179.149,85.6277,101.466,69.5011,0.0392782,2.10153,17.274,917.2,3.65972,0.0,0.0
1008,251.75,129.927,181.835,74.7098,101.463,71.6825,0.040949,2.16196,17.1744,916.95,3.36058,0.0,0.0
1012,252.75,131.852,186.087,71.1133,101.471,73.1944,0.0426091,2.22492,17.0562,916.64,3.15947,0.0,0.0
1016,253.75,134.456,189.769,93.6978,101.47,67.258,0.0443394,2.28424,16.9036,916.37,3.97746,0.0,0.0
1020,254.75,136.619,193.299,70.827,101.468,70.0642,0.0460918,2.36331,16.723,916.009,3.5819,0.0,0.0
1024,255.75,138.787,197.77,64.3766,101.454,70.5892,0.0475749,2.44319,16.5374,915.889,3.50839,0.0,0.0
1028,256.75,142.291,202.25,73.6016,101.462,67.6396,0.0487379,2.53962,16.3776,915.439,3.922,0.0,0.0
1032,257.75,144.687,206.997,83.9462,101.453,71.3809,0.0501918,2.6327,16.2421,915.128,3.4004,0.0,0.0
1036,258.75,146.939,211.018,83.1707,101.452,70.6355,0.0514444,2.71269,16.123,914.838,3.50181,0.0,0.0
1040,259.75,149.912,216.531,80.0299,101.451,71.1665,0.0528028,2.78969,16.0078,914.728,3.42926,0.0,0.0
1044,260.75,152.452,220.3,68.9708,101.448,67.8406,0.0539357,2.87357,15.8935,914.158,3.89194,0.0,0.0
1048,261.75,154.672,224.402,75.7708,101.46,70.5916,0.0548082,2.95912,15.7615,913.997,3.50863,0.0,0.0
1052,262.75,158.103,229.16,67.9304,101.448,71.7182,0.0553841,3.04438,15.6396,913.647,3.35429,0.0,0.0
1056,263.75,160.257,235.341,75.2685,101.444,70.0589,0.0557479,3.12428,15.5348,913.187,3.58035,0.0,0.0
1060,264.75,162.976,239.347,69.0761,101.448,72.581,0.0560103,3.20712,15.4401,913.097,3.23863,0.0,0.0
1064,265.75,166.319,244.222,66.6611,101.441,71.4576,0.0563424,3.27443,15.3306,912.556,3.38884,0.0,0.0
1068,266.75,168.465,249.589,77.1088,101.424,70.2502,0.0568111,3.36237,15.1924,912.196,3.55201,0.0,0.0
1072,267.75,172.274,254.21,63.9156,101.417,70.5295,0.0574163,3.45168,15.0383,911.946,3.51304,0.0,0.0
1076,268.75,174.078,259.382,63.4256,101.402,72.6407,0.0580279,3.54403,14.9124,911.645,3.22627,0.0,0.0
1080,269.75,177.793,264.18,60.5808,101.406,73.8327,0.0588132,3.63284,14.7983,911.185,3.06926,0.0,0.0
1084,270.75,180.743,269.151,64.9323,101.396,68.3834,0.0595231,3.71641,14.7018,910.885,3.80983,0.0,0.0
1088,271.75,182.935,272.986,67.0527,101.391,67.9701,0.0602116,3.79674,14.6135,910.514,3.868,0.0,0.0
1092,272.75,184.854,276.198,69.4692,101.385,69.9103,0.0607325,3.85489,14.5241,910.174,3.59527,0.0,0.0
1096,273.75,188.024,281.18,62.6646,101.377,74.9987,0.0610652,3.94237,14.4269,909.734,2.91492,0.0,0.0
1100,274.75,191.065,286.101,49.8645,101.368,69.0841,0.061338,4.02529,14.3172,909.453,3.70863,0.0,0.0
1104,275.75,192.884,289.092,58.7482,101.37,73.371,0.0616622,4.10053,14.216,909.173,3.12644,0.0,0.0
1108,276.75,194.465,292.547,60.5358,101.36,69.1925,0.0620301,4.16889,14.1085,908.863,3.69269,0.0,0.0
1112,277.75,198.16,296.908,67.8823,101.355,66.543,0.0624398,4.23836,14.0212,908.493,4.06986,0.0,0.0
1116,278.75,200.609,300.896,68.2105,101.351,67.988,0.06292,4.30218,13.9594,907.962,3.8617,0.0,0.0
1120,279.75,201.954,303.83,58.6795,101.355,70.5283,0.0633356,4.35325,13.9188,907.802,3.50725,0.0,0.0
1124,280.75,202.977,305.248,46.2519,101.326,74.8688,0.0636083,4.39731,13.9001,907.352,2.92681,0.0,0.0
1128,281.75,205.881,309.24,83.0349,101.325,70.2047,0.0637417,4.42801,13.9035,907.021,3.5489,0.0,0.0
1132,282.75,206.855,310.516,63.0958,101.318,73.8266,0.0637215,4.44429,13.9447,906.571,3.06162,0.0,0.0
1136,283.75,208.368,312.526,54.2327,101.308,68.5568,0.0636279,4.44356,14.0103,906.341,3.77701,0.0,0.0
1140,284.75,210.175,312.79,70.798,101.302,65.0502,0.0634855,4.42535,14.1103,905.95,4.28424,0.0,0.0
1144,285.75,210.32,312.994,74.4022,101.296,66.6129,0.0632671,4.39435,14.2288,905.64,4.05402,0.0,0.0
1148,286.75,210.424,312.532,66.4344,101.281,69.551,0.0629286,4.35364,14.3563,905.33,3.63514,0.0,0.0
1152,287.75,210.227,312.69,65.1681,101.286,67.4139,0.0623759,4.30694,14.4818,905.05,3.93752,0.0,0.0
1156,288.75,210.698,312.525,63.8889,101.272,67.3416,0.0616185,4.24831,14.6352,904.749,3.94653,0.0,0.0
1160,289.75,210.905,312.137,75.1831,101.257,65.7769,0.0603624,4.17832,14.8058,904.529,4.17244,0.0,0.0
1164,290.75,210.689,311.043,70.5843,101.254,68.2693,0.0589605,4.09373,14.9915,904.229,3.81245,0.0,0.0
1168,291.75,210.663,308.342,83.3142,101.231,67.5146,0.056959,3.99265,15.1878,903.929,3.91781,0.0,0.0
1172,292.75,209.243,305.441,69.1265,101.217,67.817,0.0550487,3.87745,15.414,903.738,3.87321,0.0,0.0
1176,293.75,208.287,302.818,79.3841,101.206,70.1186,0.0530616,3.76897,15.5271,903.518,3.54936,0.0,0.0
1180,294.75,207.078,299.121,77.9125,101.196,69.4674,0.050683,3.65325,15.7278,903.348,3.63864,0.0,0.0
1184,295.75,205.68,295.81,78.5155,101.179,67.5856,0.048202,3.51084,15.9605,903.088,3.9027,0.0,0.0
1188,296.75,203.876,291.753,80.8649,101.173,68.8215,0.0454941,3.4277,16.2365,902.878,3.72686,0.0,0.0
1192,297.75,202.237,288.108,78.2774,101.169,68.8998,0.0428584,3.27486,16.566,902.637,3.71546,0.0,0.0
1196,298.75,200.152,283.447,85.5903,101.15,72.6748,0.0405988,3.12094,16.8613,902.507,3.19768,0.0,0.0
1200,299.75,198.006,279.03,91.7141,101.144,74.0645,0.0382643,2.97213,17.1238,902.347,3.01393,0.0,0.0
1204,300.75,195.565,274.252,88.1374,101.127,72.369,0.0359098,2.84078,17.3748,902.117,3.23628,0.0,0.0
1208,301.75,191.98,268.393,88.9495,101.121,72.7093,0.0334219,2.70011,17.6178,902.017,3.1903,0.0,0.0
1212,302.75,190.236,263.748,95.0091,101.102,77.4298,0.0311969,2.56094,17.8143,901.977,2.58007,0.0,0.0
1216,303.75,187.346,258.069,93.4292,101.1,77.0891,0.0294015,2.4191,18.0491,901.827,2.62252,0.0,0.0
1220,304.75,184.624,253.385,99.198,101.083,80.0367,0.0275147,2.28066,18.2641,901.707,2.25801,0.0,0.0
1224,305.75,180.268,246.289,105.659,101.073,81.2587,0.0259102,2.14728,18.4596,901.667,2.11051,0.0,0.0
1228,306.75,178.145,242.069,105.107,101.071,77.7266,0.0241205,2.02147,18.6775,901.627,2.54016,0.0,0.0
1232,307.75,174.118,235.155,113.04,101.047,75.5115,0.0223399,1.89889,18.9215,901.547,2.81751,0.0,0.0
1236,308.75,170.927,229.05,115.066,101.041,80.4057,0.0205266,1.77891,19.1761,901.506,2.20955,0.0,0.0
1240,309.75,166.398,222.115,118.977,101.034,85.5148,0.0188467,1.65074,19.4212,901.446,1.61297,0.0,0.0
1244,310.75,162.948,215.723,121.517,101.016,86.5902,0.0170081,1.5255,19.6435,901.456,1.49038,0.0,0.0
1248,311.75,158.537,208.26,119.182,101.015,91.6554,0.0154826,1.40276,19.8156,901.456,0.940411,0.0,0.0
1252,312.75,155.135,202.477,129.269,101.005,95.6992,0.0138835,1.28673,19.9814,901.456,0.521903,0.0,0.0
1256,313.75,150.53,195.469,130.271,100.996,98.6585,0.0125509,1.17798,20.1329,901.446,0.22645,0.0,0.0
1260,314.75,146.866,189.454,127.435,100.994,98.5086,0.0113847,1.07188,20.2578,901.456,0.240992,0.0,0.0
1264,315.75,142.434,183.446,124.75,100.987,98.3438,0.0104637,0.983664,20.3466,901.456,0.256529,0.0,0.0
1268,316.75,139.528,178.096,127.255,100.966,98.4051,0.00977483,0.898389,20.444,901.446,0.248479,0.0,0.0
1272,317.75,136.201,172.16,127.026,100.967,97.9366,0.0092324,0.825046,20.5186,901.477,0.294717,0.0,0.0
1276,318.75,132.549,167.526,129.652,100.941,98.0909,0.0088231,0.758845,20.5841,901.456,0.277043,0.0,0.0
1280,319.75,129.811,162.219,124.086,100.938,98.2374,0.00846564,0.695859,20.6358,901.466,0.262329,0.0,0.0
1284,320.75,127.238,157.172,131.245,100.924,97.6053,0.00814914,0.63858,20.6802,901.466,0.323366,0.0,0.0
1288,321.75,124.141,153.263,131.287,100.923,97.8404,0.00791562,0.590312,20.7079,901.487,0.300022,0.0,0.0
1292,322.75,121.149,148.766,130.883,100.913,98.0941,0.00763336,0.545164,20.7386,901.477,0.273998,0.0,0.0
1296,323.75,118.602,144.673,127.881,100.896,97.4072,0.00738566,0.504491,20.7634,901.477,0.340334,0.0,0.0
1300,324.75,115.859,140.287,130.652,100.891,97.8148,0.00717895,0.477573,20.7832,901.477,0.299516,0.0,0.0
1304,325.75,113.553,137.022,132.719,100.886,97.6086,0.00703469,0.444973,20.7996,901.487,0.319426,0.0,0.0
1308,326.75,111.144,133.11,127.651,100.866,97.924,0.00687412,0.416286,20.8123,901.487,0.286349,0.0,0.0
1312,327.75,109.764,130.289,129.499,100.855,97.6723,0.00671171,0.39275,20.8228,901.466,0.310152,0.0,0.0
1316,328.75,106.762,126.632,129.869,100.849,97.5919,0.0065221,0.369993,20.8312,901.487,0.317531,0.0,0.0
1320,329.75,105.457,123.955,129.066,100.829,97.9597,0.00632755,0.34974,20.8386,901.487,0.279237,0.0,0.0
1324,330.75,103.07,120.879,132.188,100.825,97.4868,0.00616831,0.331047,20.8453,901.487,0.325662,0.0,0.0
1328,331.75,101.394,117.213,129.537,100.824,97.451,0.00604352,0.314337,20.8503,901.466,0.329129,0.0,0.0
1332,332.75,100.516,114.713,133.007,100.823,97.2131,0.00595575,0.299527,20.8559,901.477,0.352692,0.0,0.0
1336,333.75,98.3276,113.166,127.173,100.797,97.6751,0.00588049,0.286188,20.8596,901.497,0.30434,0.0,0.0
1340,334.75,97.2912,110.383,132.323,100.775,97.4389,0.00582312,0.274763,20.8633,901.477,0.325623,0.0,0.0
1344,335.75,95.5379,108.084,133.98,100.774,97.5196,0.00578547,0.264686,20.8663,901.477,0.317529,0.0,0.0
1348,336.75,93.982,105.667,131.77,100.754,97.6483,0.00575196,0.254195,20.8691,901.497,0.302824,0.0,0.0
1352,337.75,92.6633,103.179,131.388,100.749,97.6021,0.00571043,0.244758,20.8717,901.506,0.306942,0.0,0.0
1356,338.75,91.7462,101.429,128.357,100.743,97.3089,0.0056537,0.236771,20.8741,901.497,0.335411,0.0,0.0
1360,339.75,89.7728,98.8668,130.853,100.733,97.8116,0.00555738,0.228827,20.8757,901.506,0.284645,0.0,0.0
1364,340.75,88.7544,97.2215,128.662,100.72,97.2655,0.00544631,0.221371,20.8768,901.506,0.337585,0.0,0.0
1368,341.75,87.8903,95.0848,132.32,100.704,97.5351,0.00535382,0.215483,20.8784,901.506,0.309216,0.0,0.0
1372,342.75,86.6757,94.1225,130.138,100.696,97.8038,0.00529763,0.209935,20.8802,901.527,0.281859,0.0,0.0
1376,343.75,85.2962,91.853,124.606,100.682,97.9224,0.00526077,0.203797,20.882,901.506,0.268817,0.0,0.0
1380,344.75,84.8838,89.9961,129.562,100.674,97.3187,0.00522076,0.197995,20.8831,901.506,0.327852,0.0,0.0
1384,345.75,83.4082,88.545,131.659,100.663,97.6471,0.00519129,0.192724,20.8847,901.487,0.294171,0.0,0.0
1388,346.75,82.9216,87.3856,129.685,100.645,97.2164,0.00516265,0.187668,20.8857,901.506,0.335217,0.0,0.0
1392,347.75,81.4207,85.0169,130.414,100.642,97.4056,0.00514054,0.184224,20.8866,901.497,0.316178,0.0,0.0
1396,348.75,81.4024,84.995,128.661,100.637,96.9334,0.00513726,0.1807,20.8875,901.506,0.362708,0.0,0.0
1400,349.75,79.5094,83.0904,128.185,100.674,97.8968,0.00513512,0.176567,20.8882,901.497,0.270524,0.0,0.0
1404,350.75,79.0028,82.0212,130.776,100.703,97.3114,0.00511348,0.172828,20.8895,901.506,0.331387,0.0,0.0
1408,351.75,77.8039,80.1117,129.941,100.745,97.1274,0.00509479,0.169295,20.891,901.516,0.353738,0.0,0.0
1412,352.75,77.7158,79.8737,130.537,100.777,97.3861,0.005105,0.166157,20.8919,901.506,0.331058,0.0,0.0
1416,353.75,76.6531,78.3046,135.363,100.803,97.1628,0.00512288,0.163159,20.8925,901.506,0.355755,0.0,0.0
1420,354.75,76.3835,77.2165,130.6,100.846,97.5014,0.00513994,0.160379,20.8929,901.497,0.326237,0.0,0.0
1424,355.75,75.1956,75.134,129.382,100.894,98.4676,0.00514439,0.157912,20.8938,901.497,0.235409,0.0,0.0
1428,356.75,74.8031,75.1301,133.18,100.914,98.1376,0.00514429,0.155611,20.8945,901.506,0.269871,0.0,0.0
1432,357.75,73.6948,74.2491,133.18,100.938,97.3844,0.00513748,0.15319,20.8952,901.506,0.346639,0.0,0.0
1436,358.75,73.5076,73.5106,131.322,100.972,97.4652,0.00509705,0.150996,20.8963,901.497,0.341925,0.0,0.0
1440,359.75,72.8592,72.3211,129.501,101,97.0714,0.00501439,0.148979,20.8969,901.506,0.38369,0.0,0.0
1444,360.75,72.2811,71.6579,131.694,101.026,97.7612,0.00491057,0.14707,20.8982,901.506,0.317731,0.0,0.0
1448,361.75,71.8245,70.7702,135.478,101.043,97.9942,0.0048023,0.145119,20.899,901.497,0.296374,0.0,0.0
1452,362.75,71.5065,70.0136,134.505,101.053,97.6898,0.00468889,0.143368,20.8994,901.506,0.327407,0.0,0.0
1456,363.75,70.8745,69.1484,135.369,101.083,98.1481,0.00459248,0.141755,20.9001,901.506,0.285006,0.0,0.0
1460,364.75,70.3206,68.7513,131.416,101.111,97.7454,0.00451403,0.140448,20.9009,901.506,0.327419,0.0,0.0
1464,365.75,69.2613,67.0273,132.087,101.133,97.7645,0.00445394,0.138847,20.9014,901.506,0.327628,0.0,0.0
1468,366.75,69.2193,66.8254,131.155,101.133,98.3089,0.00441928,0.137334,20.9017,901.506,0.273914,0.0,0.0
1472,367.75,68.5184,65.7457,133.327,101.162,98.196,0.00440155,0.13593,20.902,901.506,0.28782,0.0,0.0
1476,368.75,67.9819,65.3322,135.536,101.158,98.6223,0.00444592,0.134647,20.9021,901.506,0.245573,0.0,0.0
1480,369.75,67.6624,64.9334,133.208,101.169,98.2516,0.00449535,0.133575,20.9022,901.527,0.283004,0.0,0.0
1484,370.75,67.3063,64.0282,131.314,101.173,97.5915,0.00456127,0.132567,20.9023,901.527,0.348597,0.0,0.0
1488,371.75,66.7724,63.0227,136.364,101.184,98.2281,0.00460003,0.131425,20.9023,901.527,0.286796,0.0,0.0
1492,372.75,66.667,63.1094,132.884,101.164,97.9699,0.00461425,0.130568,20.9023,901.516,0.310314,0.0,0.0
1496,373.75,66.1174,62.2436,134.551,101.172,97.7852,0.0046034,0.129443,20.9024,901.527,0.329307,0.0,0.0
1500,374.75,65.9191,61.4856,130.759,101.16,97.7645,0.00456626,0.128386,20.9028,901.516,0.33019,0.0,0.0
1504,375.75,65.2272,60.9398,138.436,101.137,98.0495,0.00452021,0.127505,20.9035,901.527,0.29986,0.0,0.0
1508,376.75,64.2806,60.2714,130.108,101.12,97.5355,0.00447773,0.126613,20.9039,901.537,0.349104,0.0,0.0
1512,377.75,64.066,59.8963,133.661,101.095,97.8936,0.00445933,0.12578,20.9042,901.527,0.31129,0.0,0.0
1516,378.75,64.1496,59.7375,133.016,101.07,98.4283,0.00447282,0.124984,20.9043,901.547,0.256157,0.0,0.0
1520,379.75,63.5505,59.7238,134.019,101.033,98.8399,0.0045108,0.124288,20.9047,901.527,0.21229,0.0,0.0
1524,380.75,62.6186,58.4183,134.967,100.999,98.0925,0.00455366,0.123636,20.905,901.506,0.282406,0.0,0.0
1528,381.75,62.5964,58.6569,131.017,100.953,98.1692,0.00459062,0.123004,20.9052,901.497,0.270446,0.0,0.0
1532,382.75,62.9073,57.6931,133,100.915,98.6714,0.004616,0.122371,20.9053,901.506,0.217475,0.0,0.0
1536,383.75,62.1362,57.5399,131.824,100.874,97.9545,0.00463165,0.121805,20.9054,901.506,0.284042,0.0,0.0
1540,384.75,61.7662,57.5224,131.436,100.825,98.4542,0.00464192,0.121257,20.9054,901.487,0.230106,0.0,0.0
1544,385.75,61.7514,56.9897,129.685,100.779,97.1611,0.0046509,0.120724,20.9055,901.506,0.353618,0.0,0.0
1548,386.75,61.7889,56.2164,136.71,100.695,97.5477,0.00465679,0.120225,20.9056,901.497,0.307149,0.0,0.0
1552,387.75,60.8198,55.9947,133.516,100.62,97.4608,0.00465841,0.11976,20.9056,901.506,0.308551,0.0,0.0
1556,388.75,60.7752,55.7219,132.821,100.542,97.4352,0.00465361,0.119261,20.9056,901.497,0.303553,0.0,0.0
1560,389.75,60.1772,55.165,136.693,100.458,97.7843,0.00463419,0.118757,20.9056,901.506,0.260868,0.0,0.0
1564,390.75,59.9711,54.9953,133.195,100.383,97.8806,0.00461798,0.118337,20.9057,901.516,0.244198,0.0,0.0
1568,391.75,59.1796,54.8665,133.439,100.307,97.9735,0.00461314,0.117913,20.9057,901.516,0.227697,0.0,0.0
1572,392.75,60.1216,54.3418,134.741,100.265,97.9013,0.00461827,0.117511,20.9057,901.516,0.230722,0.0,0.0
1576,393.75,58.9032,53.7556,137.87,100.259,97.6418,0.00462772,0.117065,20.9057,901.537,0.255877,0.0,0.0
1580,394.75,58.985,53.6416,136.496,100.274,97.6418,0.0046371,0.116647,20.9057,901.516,0.257326,0.0,0.0
1584,395.75,58.6326,53.3417,137.956,100.298,97.5903,0.00465032,0.116298,20.9051,901.506,0.264667,0.0,0.0
1588,396.75,58.1375,53.0622,133.097,100.325,97.4819,0.00465736,0.115975,20.9045,901.527,0.278039,0.0,0.0
1592,397.75,57.5045,52.3952,133.125,100.335,98.3032,0.00463806,0.115701,20.9041,901.516,0.197828,0.0,0.0
1596,398.75,57.5517,51.9824,135.026,100.364,98.4774,0.00460509,0.115467,20.9039,901.516,0.183563,0.0,0.0
1600,399.75,57.5189,52.1526,135.75,100.397,97.46,0.00458708,0.115253,20.9037,901.516,0.287141,0.0,0.0
1604,400.75,57.2532,51.5958,136.894,100.427,98.0807,0.00459739,0.115094,20.9036,901.506,0.228625,0.0,0.0
1608,401.75,57.3782,51.1071,131.926,100.446,97.9082,0.0046172,0.114867,20.9035,901.527,0.247493,0.0,0.0
1612,402.75,57.1515,50.7724,134.756,100.459,98.423,0.00468853,0.114643,20.9028,901.506,0.19802,0.0,0.0
1616,403.75,56.1177,50.3511,133.792,100.501,97.7937,0.00477125,0.114422,20.9022,901.516,0.264164,0.0,0.0
1620,404.75,56.3114,50.7674,132.504,100.515,99.2886,0.00483899,0.114257,20.9018,901.527,0.118724,0.0,0.0
1624,405.75,55.4297,49.3418,132.919,100.541,97.5984,0.0048767,0.114144,20.9016,901.527,0.287327,0.0,0.0
1628,406.75,55.5052,49.7011,135.712,100.588,98.2354,0.00487675,0.114055,20.9014,901.527,0.228895,0.0,0.0
1632,407.75,55.1354,49.5011,135.744,100.616,98.8192,0.00486111,0.113965,20.9012,901.527,0.174237,0.0,0.0
1636,408.75,55.0536,49.8855,132.449,100.639,97.7234,0.00481265,0.113838,20.901,901.527,0.284351,0.0,0.0
1640,409.75,54.0051,48.3761,134.645,100.661,98.261,0.00472947,0.11372,20.9008,901.506,0.233401,0.0,0.0
1644,410.75,54.4972,48.6013,139.537,100.69,98.138,0.00463988,0.113525,20.9005,901.527,0.248327,0.0,0.0
1648,411.75,54.2978,48.8121,131.793,100.718,98.7368,0.00457416,0.113405,20.9002,901.537,0.192138,0.0,0.0
1652,412.75,54.5177,48.6652,134.332,100.75,99.2285,0.00453134,0.113337,20.9,901.516,0.147135,0.0,0.0
1656,413.75,53.5015,47.621,132.208,100.767,98.3467,0.00450272,0.113191,20.8998,901.506,0.235189,0.0,0.0
1660,414.75,54.0602,48.037,136.819,100.791,98.1611,0.00448216,0.112996,20.8998,901.516,0.255674,0.0,0.0
1664,415.75,53.7265,48.0924,133.363,100.8,99.4895,0.00446968,0.112719,20.8997,901.516,0.126595,0.0,0.0
1668,416.75,53.398,47.7089,135.382,100.818,98.0819,0.00446821,0.112421,20.9003,901.497,0.266088,0.0,0.0
1672,417.75,52.6165,47.0809,133.142,100.816,100.21,0.00446277,0.112193,20.9008,901.497,0.0582676,0.0,0.0
1676,418.75,52.75,47.3366,134.344,100.824,99.3454,0.0044476,0.112103,20.9011,901.516,0.142876,0.0,0.0
1680,419.75,52.9023,46.7824,135.035,100.837,99.1501,0.00443356,0.111963,20.9014,901.527,0.163193,0.0,0.0
1684,420.75,52.661,46.8762,135.828,100.831,99.6633,0.00441951,0.111739,20.9016,901.527,0.112637,0.0,0.0
1688,421.75,52.4719,46.9411,137.348,100.826,99.6166,0.00440513,0.111581,20.902,901.516,0.116741,0.0,0.0
1692,422.75,51.9032,46.3408,136.503,100.82,99.7149,0.0043947,0.11142,20.9023,901.527,0.106582,0.0,0.0
1696,423.75,51.5619,46.518,140.1,100.807,99.8399,0.00440577,0.111315,20.9024,901.516,0.0932548,0.0,0.0
1700,424.75,52.1852,46.2965,141.993,100.795,99.0316,0.00443767,0.111149,20.9025,901.497,0.170751,0.0,0.0
1704,425.75,51.2032,45.5282,132.994,100.783,99.3689,0.00446981,0.110956,20.9026,901.527,0.136649,0.0,0.0
1708,426.75,51.5152,45.6659,135.205,100.751,99.1051,0.00448866,0.110854,20.9027,901.516,0.15933,0.0,0.0
1712,427.75,50.8861,45.5242,137.658,100.736,98.6605,0.00449878,0.110793,20.9027,901.516,0.201371,0.0,0.0
1716,428.75,51.2905,45.8071,135.695,100.715,99.1992,0.00451215,0.110717,20.9027,901.506,0.146634,0.0,0.0
1720,429.75,50.5439,45.2805,137.042,100.676,99.628,0.00452339,0.110631,20.9027,901.516,0.101254,0.0,0.0
1724,430.75,50.7251,44.9998,136.416,100.634,100.513,0.00453278,0.110603,20.9027,901.516,0.0116913,0.0,0.0
1728,431.75,50.1716,44.3793,137.967,100.603,98.2923,0.00451759,0.110606,20.9025,901.497,0.224705,0.0,0.0
1732,432.75,50.2251,44.6037,137.679,100.562,100.088,,0.110559,,901.506,0.045656,0.0,0.0
1736,433.75,50.5724,44.1185,134.651,100.521,98.7742,,0.110527,,901.516,0.16955,0.0,0.0
1740,434.75,49.9176,44.5179,135.408,100.467,99.1046,,0.110505,,901.516,0.132085,0.0,0.0
1744,435.75,49.7419,43.9354,135.181,100.416,98.7129,,,,901.446,0.165432,0.0,0.0
1748,436.75,49.4389,43.8613,135.411,100.368,99.5581,,,,901.487,0.0783456,0.0,0.0
1752,437.75,49.2543,44.2134,132.706,100.307,98.6832,,,,901.506,0.157848,0.0,0.0
1756,438.75,48.7755,43.8367,136.679,100.256,97.8168,,,,901.497,0.238206,0.0,0.0
1760,439.75,48.6912,43.5454,138.999,100.194,98.8858,,,,901.506,0.127084,0.0,0.0
1764,440.75,48.798,43.3563,134.003,100.138,99.4652,,,,901.537,0.0652493,0.0,0.0
1768,441.75,48.8132,43.4494,138.991,100.08,98.9268,,,,901.527,0.112132,0.0,0.0
1772,442.75,47.6302,41.9616,135.099,100.023,98.5492,,,,901.537,0.143545,0.0,0.0
1775,443.5,48.3958,43.056,138.934,99.9793,98.7571,,,,901.527,0.118962,0.0,0.0