File: 01_Data/LDPE/Cone/LDPE_Cone_HF75Scan_220202_R3.csv
Names,Time,Stack TC,Smoke TC,Exh Press,Smoke Comp,Smoke Meas,CO Meter,CO2 Meter,O2 Meter,Sample Mass,Ext Coeff,Start Test,Flame Verif
Chan Gain,,500,500,1,1,1,1,1,1,1,1,1.0,1.0
Offset,,0,0,0.14021,0,0,0,0,0,0,0,0.0,0.0
Gain,,1,1,25.011,13.3046,13.3037,1,1,1,1.00087,1.10262,1.0,1.0
Units,sec,C,C,Pa,%,%,%,%,%,g,/m,,
Baseline,,44.0122,46.4499,131.506,101.104,101.094,0.00462963,0.109582,20.8866,-2.57091,0.0011653,,
3,0.5,38.9603,40.2523,133.8125,101.263,102.792,0.00437291,0.118693,20.8745,894.841,-0.144927,0.0,0.0
6,1.25,39.181,40.711,133.831,101.234,101.155,0.0044037,0.118725,20.8749,895.041,0.00762643,0.0,0.0
9,2,39.0583,40.3857,134.149,101.21,102.819,0.00442058,0.118736,20.8752,894.841,-0.152569,0.0,0.0
12,2.75,38.8897,40.3885,135.49,101.16,101.962,0.00441523,0.118703,20.8754,909.453,-0.0763813,0.0,0.0
15,3.5,38.914,40.3159,132.037,101.149,103.169,0.00440638,0.118647,20.8756,934.055,-0.191333,0.0,0.0
18,4.25,38.8131,41.0428,136.449,101.11,101.954,0.00439586,0.118581,20.8763,952.391,-0.0804264,0.0,0.0
21,5,38.7351,41.0153,130.71,101.056,101.765,0.00438486,0.118435,20.8769,964.371,-0.0675896,0.0,0.0
24,5.75,38.5163,41.056,134.964,101.043,101.324,0.00437228,0.11826,20.8773,970.006,-0.0267972,0.0,0.0
27,6.5,39.3314,40.8281,130.528,101.013,101.902,0.00435532,0.118067,20.8776,974.871,-0.0847424,0.0,0.0
30,7.25,39.3285,41.3353,131.76,100.972,102.006,0.00434295,0.117865,20.8775,975.571,-0.0985694,0.0,0.0
33,8,38.9857,41.3356,130.617,100.916,101.316,0.00429867,0.117678,20.8774,973.499,-0.0382724,0.0,0.0
36,8.75,39.369,41.1156,133.854,100.887,102.018,0.00424785,0.117542,20.8773,970.687,-0.107779,0.0,0.0
39,9.5,39.2007,41.1753,131.207,100.866,103.043,0.0042003,0.117363,20.8772,967.774,-0.206549,0.0,0.0
42,10.25,39.3187,41.2958,128.095,100.84,102.368,0.00416119,0.117097,20.8772,964.582,-0.145496,0.0,0.0
45,11,39.4354,41.836,133.851,100.784,102.073,0.00414325,0.11686,20.8772,961.379,-0.122866,0.0,0.0
48,11.75,39.3487,41.1962,130.17,100.759,102.411,0.00414747,0.116613,20.8778,957.906,-0.157314,0.0,0.0
51,12.5,39.6083,41.4986,127.727,100.72,101.915,0.00417029,0.116256,20.8782,953.051,-0.114048,0.0,0.0
54,13.25,39.6427,41.7455,129.285,100.697,101.123,0.00420806,0.115914,20.8785,947.907,-0.0408425,0.0,0.0
57,14,39.7261,41.9126,128.502,100.667,100.587,0.00425775,0.115608,20.8787,943.073,0.00770477,0.0,0.0
60,14.75,39.6878,42.2171,132.665,100.649,101.151,0.00433183,0.115334,20.8789,938.068,-0.0481255,0.0,0.0
63,15.5,39.584,42.2221,129.404,100.632,101.672,0.00443885,0.115109,20.879,934.085,-0.0994442,0.0,0.0
66,16.25,39.5059,41.8305,127.615,100.6,99.9373,0.00455159,0.11489,20.8791,930.492,0.0638921,0.0,0.0
69,17,39.8261,42.2978,133.681,100.581,101.947,0.00464857,0.114708,20.8792,927.489,-0.130397,0.0,0.0
72,17.75,40.0554,42.0818,133.466,100.615,100.899,0.00477947,0.114574,20.8792,925.027,-0.0272261,0.0,0.0
75,18.5,39.9387,42.4825,133.297,100.677,101.317,0.00490106,0.114513,20.8793,923.095,-0.0613368,0.0,0.0
78,19.25,40.4136,42.5541,132.821,100.738,101.734,0.00503445,0.11453,20.8788,921.664,-0.0951321,0.0,0.0
81,20,39.7552,42.1242,132.339,100.78,100.731,0.00521334,0.114858,20.8777,920.003,0.00473308,0.0,0.0
84,20.75,40.1598,42.6708,130.831,100.841,101.356,0.00534376,0.115232,20.8738,916.169,-0.0493109,0.0,0.0
87,21.5,40.0571,42.0327,129.322,100.898,101.467,0.00551883,0.116699,20.8674,908.763,-0.0544312,0.0,0.0
90,22.25,40.3588,42.8977,128.359,100.936,101.586,0.00566518,0.119161,20.8592,900.766,-0.0621061,0.0,1.0
93,23,40.6314,43.2954,126.629,100.956,101.038,0.00577788,0.122539,20.8496,894.19,-0.00783438,0.0,1.0
96,23.75,40.8391,43.077,127.206,100.989,101.64,0.00585666,0.126696,20.8358,890.607,-0.0621508,0.0,1.0
99,24.5,40.8728,43.5087,128.485,101.027,101.31,0.00589452,0.131357,20.8218,888.225,-0.0270348,0.0,1.0
102,25.25,41.0082,43.9615,127.467,101.058,100.805,0.00589593,0.13754,20.8073,887.144,0.0242588,0.0,1.0
105,26,40.9198,43.9025,125.883,101.063,100.996,0.00587006,0.145336,20.7924,886.213,0.00643278,0.0,1.0
108,26.75,41.4776,44.2977,123.34,101.082,100.515,0.00582428,0.153656,20.7734,886.243,0.0544826,0.0,1.0
111,27.5,41.1991,44.1123,123.423,101.096,100.527,0.00578173,0.162296,20.7596,887.284,0.0545915,0.0,1.0
114,28.25,41.9349,44.5256,124.546,101.099,100.491,0.00573502,0.171077,20.7465,888.325,0.058341,0.0,0.0
117,29,42.0758,45.1516,122.147,101.107,99.4213,0.00570097,0.182008,20.7318,889.316,0.162636,0.0,0.0
120,29.75,42.4203,45.7547,123.559,101.105,97.6516,0.00573656,0.192022,20.7163,891.598,0.33616,0.0,0.0
123,30.5,42.8711,46.2012,120.222,101.093,98.2074,0.00578745,0.202819,20.7029,894.33,0.280138,0.0,0.0
126,31.25,43.3292,47.1499,118.568,101.091,95.622,0.0058672,0.21069,20.6837,894.42,0.53798,0.0,0.0
129,32,43.8525,47.7114,118.075,101.085,95.3934,0.0060162,0.220683,20.657,894.45,0.560545,0.0,0.0
132,32.75,44.1009,48.3264,122.752,101.05,93.7666,0.00620366,0.235244,20.6245,894.42,0.723494,0.0,0.0
135,33.5,44.4194,48.7899,117.159,101.01,94.3196,0.00641815,0.251971,20.5877,894.42,0.662814,0.0,0.0
138,34.25,45.2949,49.6686,117.183,101.007,93.7987,0.00665014,0.268737,20.5472,894.37,0.716105,0.0,0.0
141,35,45.9179,50.8736,115.092,100.97,90.5434,0.00694754,0.285548,20.5121,894.34,1.05424,0.0,0.0
144,35.75,46.2397,51.4565,116.169,100.912,88.7644,0.00713789,0.302318,20.4875,894.35,1.24057,0.0,0.0
147,36.5,46.8737,52.5537,116.108,100.893,91.6457,0.00748192,0.322505,20.4472,894.23,0.929808,0.0,0.0
150,37.25,48.2107,53.9399,115.221,100.843,88.904,0.00783007,0.343851,20.4071,894.2,1.21879,0.0,0.0
153,38,49.2188,54.7754,114.587,100.779,88.6909,0.00817472,0.362239,20.3679,894.05,1.23585,0.0,0.0
156,38.75,49.8115,56.7801,120.722,100.719,88.3912,0.00851039,0.378621,20.3181,894.12,1.26277,0.0,0.0
159,39.5,50.6696,57.5003,112.706,100.657,87.5797,0.00885038,0.400924,20.2753,894.04,1.34606,0.0,0.0
162,40.25,51.3054,58.7782,113.489,100.583,85.6159,0.00919046,0.422956,20.233,893.92,1.55826,0.0,0.0
165,41,52.4666,59.7784,109.504,100.527,84.7543,0.00952665,0.44721,20.1878,893.86,1.65069,0.0,0.0
168,41.75,53.4897,61.5176,110.612,100.462,84.8778,0.00984705,0.468564,20.1484,893.83,1.63041,0.0,0.0
171,42.5,53.9813,62.722,112.61,100.369,83.4101,0.0102715,0.490412,20.1086,893.73,1.79016,0.0,0.0
174,43.25,55.2466,64.2421,107.183,100.282,82.2891,0.010687,0.513643,20.0583,893.63,1.91265,0.0,0.0
177,44,55.8613,64.9769,105.403,100.216,81.7646,0.0112009,0.538062,20.0068,893.52,1.96815,0.0,0.0
180,44.75,57.4942,67.5132,105.134,100.205,80.5186,0.0117642,0.563336,19.9503,893.5,2.11562,0.0,0.0
183,45.5,58.0472,68.4032,102.252,100.21,77.3693,0.0123802,0.592095,19.8879,893.339,2.50199,0.0,0.0
186,46.25,59.165,70.132,106.993,100.22,79.7472,0.0130432,0.622682,19.8123,893.369,2.21018,0.0,0.0
189,47,60.9412,72.0596,107.654,100.251,75.6974,0.0136343,0.653897,19.7598,893.269,2.71717,0.0,0.0
192,47.75,62.2036,74.0075,93.5391,100.272,76.5406,0.0143171,0.693431,19.6814,893.079,2.61206,0.0,0.0
195,48.5,62.7932,75.5818,97.3669,100.277,74.8237,0.0154219,0.737837,19.5935,892.969,2.83204,0.0,0.0
198,49.25,64.8092,78.9209,96.1075,100.295,73.3792,0.0164241,0.784282,19.5163,892.909,3.02228,0.0,0.0
201,50,67.2187,81.8945,86.4597,100.322,70.4235,0.0174912,0.816928,19.4306,892.729,3.42251,0.0,0.0
204,50.75,68.5527,84.373,86.4788,100.342,72.7357,0.018865,0.872291,19.3557,892.629,3.11205,0.0,0.0
207,51.5,70.3095,86.6112,106.012,100.359,70.4775,0.0198665,0.920174,19.2747,892.529,3.41866,0.0,0.0
210,52.25,71.7092,89.3985,91.3675,100.382,72.5379,0.021158,0.988524,19.1827,892.359,3.14225,0.0,0.0
213,53,74.5578,93.2733,87.1993,100.412,69.2506,0.0227195,1.05074,19.0535,892.278,3.59368,0.0,0.0
216,53.75,76.1776,96.1428,81.4839,100.441,68.1776,0.0242362,1.11729,18.9166,892.038,3.7475,0.0,0.0
219,54.5,79.093,99.5937,82.973,100.442,69.3858,0.0257114,1.18139,18.7591,891.848,3.57767,0.0,0.0
222,55.25,81.4464,103.272,91.6141,100.498,67.1293,0.0264654,1.25477,18.6786,891.708,3.90288,0.0,0.0
225,56,83.0369,106.294,81.4488,100.52,68.1057,0.0282761,1.33573,18.5417,891.528,3.76532,0.0,0.0
228,56.75,85.0447,109.833,79.7192,100.57,67.5251,0.0301329,1.41462,18.4037,891.298,3.85289,0.0,0.0
231,57.5,87.8269,114.367,75.0228,100.583,65.6344,0.0320105,1.4806,18.2699,891.218,4.12887,0.0,0.0
234,58.25,90.7161,118.238,91.895,100.605,64.1996,0.0338842,1.5426,18.1116,890.967,4.34475,0.0,0.0
237,59,92.975,121.813,81.7175,100.639,65.8679,0.036119,1.63172,17.9329,890.747,4.09991,0.0,0.0
240,59.75,95.4559,125.933,87.1932,100.67,64.6361,0.0381495,1.72662,17.7756,890.587,4.2855,0.0,0.0
243,60.5,98.5745,131.419,70.1897,100.694,67.3319,0.0403161,1.83611,17.5889,890.317,3.89255,0.0,0.0
246,61.25,101.808,136.243,74.1305,100.704,66.6129,0.0426422,1.94674,17.4253,890.157,3.99737,0.0,0.0
249,62,105.265,140.959,73.0322,100.726,63.6747,0.0446563,2.04053,17.259,889.856,4.43575,0.0,0.0
252,62.75,108.041,145.923,63.1287,100.744,67.8016,0.0474683,2.1676,17.0788,889.686,3.83015,0.0,0.0
255,63.5,111.203,151.254,73.1787,100.771,64.8435,0.0501576,2.28073,16.887,889.336,4.26418,0.0,0.0
258,64.25,114.387,156.887,79.0132,100.78,61.4543,0.0526498,2.39825,16.6866,889.216,4.78431,0.0,0.0
261,65,117.398,161.731,73.9633,100.781,63.9962,0.0549096,2.52494,16.4541,888.936,4.39237,0.0,0.0
264,65.75,120.471,166.771,60.5534,100.798,65.6486,0.056942,2.63477,16.248,888.655,4.14744,0.0,0.0
267,66.5,123.565,172.049,85.2743,100.817,63.2236,0.058764,2.77058,16.0353,888.295,4.51324,0.0,0.0
270,67.25,126.604,176.905,64.156,100.815,68.4297,0.0603936,2.90489,15.8044,888.055,3.74778,0.0,0.0
273,68,129.617,182.279,55.8592,100.819,67.9717,0.0620023,3.03652,15.5803,887.875,3.81304,0.0,0.0
276,68.75,132.779,188.079,70.0042,100.815,65.2057,0.0631751,3.16442,15.3931,887.534,4.21452,0.0,0.0
279,69.5,136.063,193.4,62.9852,100.806,66.6924,0.0645048,3.31049,15.1808,887.274,3.99564,0.0,0.0
282,70.25,139.329,199.537,61.2991,100.8,68.0164,0.0657516,3.45113,15,886.884,3.80493,0.0,0.0
285,71,142.467,205.189,61.7509,100.786,65.9539,0.0667789,3.56822,14.8234,886.834,4.1014,0.0,0.0
288,71.75,145.613,210.785,61.3037,100.788,68.4033,0.0680655,3.70346,14.6547,886.453,3.7489,0.0,0.0
291,72.5,148.841,216.445,87.7649,100.782,63.3206,0.0693951,3.80206,14.4814,886.123,4.49506,0.0,0.0
294,73.25,151.677,221.773,60.2687,100.758,72.8757,0.0707402,3.93695,14.2981,885.883,3.13344,0.0,0.0
297,74,154.823,226.791,70.9095,100.746,64.2297,0.0720778,4.08033,14.1263,885.483,4.3538,0.0,0.0
300,74.75,158.024,233.26,44.0582,100.725,65.0218,0.0732992,4.22329,13.9358,885.242,4.23319,0.0,0.0
303,75.5,160.826,238.728,85.9063,100.718,64.8378,0.0746108,4.36038,13.7105,885.052,4.25992,0.0,0.0
306,76.25,164.515,244.113,80.4298,100.69,63.617,0.0756596,4.50907,13.5462,884.552,4.44108,0.0,0.0
309,77,166.849,248.897,50.2591,100.666,70.3643,0.0765824,4.61746,13.3581,884.271,3.46379,0.0,0.0
312,77.75,170.005,254.269,49.879,100.634,67.4634,0.0772771,4.73898,13.1761,883.841,3.8679,0.0,0.0
315,78.5,172.701,259.537,70.2744,100.618,66.0298,0.0777767,4.84569,13.0066,883.551,4.07412,0.0,0.0
318,79.25,175.778,264.33,63.1912,100.586,66.8057,0.0781352,4.9612,12.853,883.271,3.95809,0.0,0.0
321,80,178.935,269.219,42.5462,100.545,73.4811,0.078392,5.07475,12.6695,882.89,3.03294,0.0,0.0
324,80.75,181.106,273.888,62.3959,100.515,69.9473,0.0785433,5.17005,12.5188,882.74,3.50675,0.0,0.0
327,81.5,184.299,280.025,62.6875,100.49,70.1885,0.0786383,5.27361,12.3801,882.21,3.47104,0.0,0.0
330,82.25,187.924,285.394,46.9816,100.465,70.8096,0.0785176,5.36585,12.2631,881.879,3.38347,0.0,0.0
333,83,189.974,288.312,48.2692,100.419,71.6017,0.0782785,5.44803,12.171,881.679,3.27142,0.0,0.0
336,83.75,192.176,291.852,72.3025,100.38,70.4889,0.0778457,5.52125,12.087,881.259,3.41913,0.0,0.0
339,84.5,193.97,294.727,46.4656,100.356,73.2545,0.0771879,5.58901,12.0158,880.939,3.04459,0.0,0.0
342,85.25,197.234,300.329,73.1237,100.339,70.78,0.0765014,5.64453,11.9468,880.688,3.3754,0.0,0.0
345,86,199.308,303.335,77.7629,100.286,66.0725,0.0758228,5.70017,11.889,880.348,4.03594,0.0,0.0
348,86.75,201.079,306.189,55.0937,100.242,69.0959,0.0751743,5.76337,11.781,880.048,3.59891,0.0,0.0
351,87.5,203.123,309.658,37.4124,100.22,77.0648,0.0744586,5.81909,11.6376,879.517,2.54103,0.0,0.0
354,88.25,205.524,313.613,42.7668,100.19,66.7416,0.0737306,5.91196,11.48,879.447,3.92916,0.0,0.0
357,89,208.493,318.939,38.3527,100.156,74.2918,0.073112,6.01351,11.3215,878.937,2.88936,0.0,0.0
360,89.75,211.215,323.515,67.6068,100.106,69.8048,0.0722512,6.1166,11.1854,878.526,3.48709,0.0,0.0
363,90.5,212.767,326.98,78.2461,100.081,74.1688,0.0712712,6.21681,11.0509,878.326,2.89809,0.0,0.0
366,91.25,215.682,331.556,56.218,100.044,72.7637,0.0702529,6.32462,10.9033,877.946,3.07952,0.0,0.0
369,92,218.079,335.45,48.5188,100.013,75.112,0.0692418,6.41539,10.7832,877.486,2.76928,0.0,0.0
372,92.75,220.101,339.388,40.6655,99.9777,75.8764,0.0683149,6.50237,10.6743,877.215,2.66796,0.0,0.0
375,93.5,223.198,343.573,55.2074,99.9468,74.2171,0.0675108,6.59305,10.5591,876.945,2.87883,0.0,0.0
378,94.25,225.493,347.212,68.4273,99.9131,71.2733,0.0668646,6.67186,10.4338,876.375,3.26704,0.0,0.0
381,95,227.17,350.78,48.15625,99.8749,79.6623,0.0664534,6.75105,10.3049,876.024,2.18707,0.0,0.0
384,95.75,229.006,352.788,29.9491,99.8518,75.4063,0.0661792,6.8353,10.1768,875.804,2.71589,0.0,0.0
387,96.5,231.381,357.627,45.6748,99.8144,73.8566,0.0662197,6.91609,10.0835,875.224,2.91312,0.0,0.0
390,97.25,233.463,360.29,58.262,99.7958,75.6475,0.0663516,6.99509,9.99656,874.863,2.67958,0.0,0.0
393,98,235.371,363.138,65.7459,99.7771,73.4685,0.0666126,7.06354,9.91851,874.633,2.96046,0.0,0.0
396,98.75,237.128,367.124,41.5432,99.7511,69.7711,0.0668395,7.12499,9.85033,874.383,3.45738,0.0,0.0
399,99.5,239.401,369.72,50.3125,99.7032,74.8984,0.0669477,7.17471,9.78744,873.712,2.76685,0.0,0.0
402,100.25,241.191,372.392,63.031,99.7081,76.7587,0.0668684,7.21095,9.70241,873.552,2.53003,0.0,0.0
405,101,242.88,375.489,46.4358,99.6715,76.6791,0.0667302,7.27791,9.62371,873.062,2.53652,0.0,0.0
408,101.75,245.627,379.595,39.0275,99.6537,73.1201,0.066492,7.33903,9.53242,872.821,2.99445,0.0,0.0
411,102.5,246.605,381.864,51.9864,99.6297,74.5931,0.0660759,7.39235,9.46246,872.381,2.79923,0.0,0.0
414,103.25,248.629,385.168,51.1651,99.6143,71.6245,0.0656693,7.43724,9.40563,872.061,3.19053,0.0,0.0
417,104,250.466,387.451,43.4148,99.6033,75.5951,0.0648979,7.47561,9.36375,871.781,2.66761,0.0,0.0
420,104.75,251.27,388.731,62.6058,99.5871,79.4594,0.0641819,7.51184,9.31844,871.35,2.18383,0.0,0.0
423,105.5,252.792,391.538,64.8781,99.568,81.8162,0.0635944,7.55239,9.26044,871,1.89927,0.0,0.0
426,106.25,255.321,395.472,77.5355,99.5558,74.6905,0.0631138,7.60915,9.16163,870.74,2.77943,0.0,0.0
429,107,257.857,400.137,44.6811,99.5554,67.3445,0.0628529,7.66212,9.06317,870.089,3.78077,0.0,0.0
432,107.75,259.62,402.284,61.7593,99.5424,71.0536,0.0628803,7.73019,8.98014,869.839,3.26094,0.0,0.0
435,108.5,260.697,404.795,51.6406,99.5294,82.2806,0.0631354,7.79116,8.9196,869.459,1.84077,0.0,0.0
438,109.25,262.528,407.551,50.2644,99.5282,71.2587,0.0635924,7.83805,8.87548,869.238,3.23169,0.0,0.0
441,110,264.572,410.431,55.7882,99.5343,66.6153,0.064238,7.86816,8.84331,868.848,3.88401,0.0,0.0
444,110.75,265.719,411.406,48.1883,99.5132,69.1073,0.0652429,7.86257,8.88518,868.558,3.52674,0.0,0.0
447,111.5,266.658,412.819,55.3723,99.5095,68.8848,0.0665544,7.82147,8.95533,868.207,3.55757,0.0,0.0
450,112.25,267.289,413.013,50.8689,99.514,62.641,0.0675105,7.77573,9.07424,867.977,4.47701,0.0,0.0
453,113,267.86,412.314,69.7203,99.5209,59.1186,0.0681269,7.63524,9.28774,867.827,5.03745,0.0,0.0
456,113.75,267.345,410.009,58.5162,99.5213,62.4831,0.0679068,7.46782,9.63852,867.507,4.50213,0.0,0.0
459,114.5,266.783,407.694,74.0443,99.5124,62.8091,0.0668033,7.23459,10.1355,867.337,4.45093,0.0,0.0
462,115.25,265.295,403.991,65.9512,99.5233,64.0932,0.0648744,6.91523,10.9336,867.277,4.25624,0.0,0.0
465,116,263.489,398.645,80.1176,99.5209,67.9827,0.0613099,6.5262,11.8378,867.147,3.68618,0.0,0.0
468,116.75,260.467,392.007,96.3846,99.5237,77.3494,0.0587113,6.0843,12.6344,867.167,2.43798,0.0,0.0
471,117.5,256.617,383.534,98.7606,99.5201,90.9222,0.0537935,5.62187,13.459,867.137,0.873923,0.0,0.0
474,118.25,251.881,374.549,104.767,99.5233,94.2128,0.0488302,5.15757,14.2629,867.096,0.530378,0.0,0.0
477,119,247.18,365.669,105.472,99.5335,95.877,0.0440569,4.7039,15.0177,867.107,0.362008,0.0,0.0
480,119.75,242.644,356.497,107.617,99.5627,96.4052,0.0396066,4.19415,15.6463,867.096,0.31171,0.0,0.0
483,120.5,237.885,348.084,107.88,99.5404,97.257,0.0363623,3.82255,16.2386,867.107,0.224458,0.0,0.0
486,121.25,232.843,339.354,107.08,99.5485,98.0836,0.0323626,3.40447,16.8149,867.076,0.14339,0.0,0.0
489,122,229.209,331.91,108.7,99.5623,98.5708,0.0279668,3.03465,17.4729,867.056,0.0968068,0.0,0.0
492,122.75,225.023,324.675,108.044,99.5765,99.0742,0.02627,2.73733,17.7741,867.036,0.0489146,0.0,0.0
495,123.5,219.959,316.28,107.715,99.5737,98.7056,0.023635,2.4459,18.1899,867.016,0.0846945,0.0,0.0
498,124.25,216.894,310.061,110.244,99.5838,98.9634,0.0217141,2.18085,18.5219,867.036,0.0604507,0.0,0.0
501,125,212.691,303.108,107.011,99.5911,99.1915,0.0197732,1.89061,18.8276,867.056,0.0388864,0.0,0.0
504,125.75,208.957,296.292,108.521,99.598,99.2232,0.0181273,1.74806,19.0986,867.016,0.0364687,0.0,0.0
507,126.5,205.725,289.977,110.73,99.6033,99.1915,0.0167218,1.58336,19.3322,866.956,0.0400691,0.0,0.0
510,127.25,201.873,283.621,109.217,99.6163,98.9224,0.0155138,1.41764,19.5477,866.976,0.067614,0.0,0.0
513,128,198.9,278.177,109.588,99.6297,99.1176,0.0144407,1.28443,19.7312,866.906,0.0498391,0.0,0.0
516,128.75,195.749,272.256,113.964,99.6382,99.1668,0.0135548,1.16614,19.8857,866.956,0.0458752,0.0,0.0
519,129.5,192.641,266.924,111.205,99.6455,99.0056,0.0128197,1.06234,20.0146,866.916,0.062317,0.0,0.0
522,130.25,189.636,261.537,112.321,99.648,99.4583,0.0122067,0.972497,20.1248,866.946,0.0184305,0.0,0.0
525,131,186.703,256.66,111.694,99.6593,99.5862,0.0117022,0.895544,20.2052,866.916,0.00710451,0.0,0.0
528,131.75,183.83,251.469,115.376,99.6756,99.4538,0.0112358,0.82377,20.2782,866.916,0.0215441,0.0,0.0
531,132.5,181.622,247.073,113.354,99.6821,99.4323,0.0108033,0.761669,20.3359,866.906,0.024268,0.0,0.0
534,133.25,178.294,241.698,115.263,99.6719,99.0356,0.010488,0.712228,20.3854,866.886,0.0619436,0.0,0.0
537,134,176.097,237.263,111.871,99.6878,99.2764,0.0101371,0.662027,20.4286,866.856,0.0399968,0.0,0.0
540,134.75,173.578,233.028,111.593,99.7028,99.1635,0.00982046,0.62086,20.4673,866.856,0.0524564,0.0,0.0
543,135.5,170.603,228.509,113.712,99.7048,99.319,0.00953111,0.583036,20.5028,866.906,0.0374979,0.0,0.0
546,136.25,169.019,225.21,113.995,99.7003,99.2561,0.00926441,0.548611,20.5362,866.846,0.0431953,0.0,0.0
549,137,167.337,221.244,111.755,99.7194,98.8107,0.00908769,0.517435,20.5558,866.816,0.0885443,0.0,0.0
552,137.75,164.625,217.617,115.877,99.7219,99.2508,0.00888352,0.489304,20.5817,866.806,0.0457971,0.0,0.0
555,138.5,162.486,214.079,112.764,99.7247,99.2719,0.00868609,0.464151,20.6037,866.836,0.044016,0.0,0.0
558,139.25,160.735,210.199,115.982,99.73,99.5289,0.00852452,0.441692,20.6225,866.796,0.0195203,0.0,0.0
561,140,158.777,207.034,109.872,99.7401,99.127,0.00839058,0.427647,20.6385,866.816,0.059644,0.0,0.0
564,140.75,156.558,203.625,114.216,99.7523,99.3974,0.0082782,0.407587,20.6533,866.786,0.0344779,0.0,0.0
567,141.5,155.326,200.549,115.717,99.7706,99.3288,0.00818729,0.389457,20.6668,866.786,0.0429278,0.0,0.0
570,142.25,153.83,197.141,114.403,99.7548,99.0953,0.00810858,0.373037,20.6777,866.766,0.0641521,0.0,0.0
573,143,151.869,194.28,114.444,99.7596,99.3507,0.00808085,0.358299,20.6866,866.786,0.0397304,0.0,0.0
576,143.75,150.406,191.079,112.311,99.7629,98.8428,0.00805876,0.345193,20.6947,866.796,0.0896182,0.0,0.0
579,144.5,148.599,188.204,113.506,99.7881,99.2386,0.00805991,0.333618,20.704,866.816,0.0534013,0.0,0.0
582,145.25,147.099,186.009,112.481,99.7803,99.209,0.00806033,0.32211,20.7077,866.716,0.0555419,0.0,0.0
585,146,145.764,183.119,114.148,99.7872,99.63,0.008068,0.313721,20.7132,866.746,0.0152526,0.0,0.0
588,146.75,144.099,181.27,113.701,99.8067,99.455,0.008061,0.303566,20.7183,866.736,0.0341436,0.0,0.0
591,147.5,142.751,178.279,114.924,99.799,99.3949,0.00804786,0.292924,20.7228,866.726,0.0392412,0.0,0.0
594,148.25,141.653,176.199,114.783,99.7986,99.6418,0.00803375,0.287386,20.7286,866.726,0.0152112,0.0,0.0
597,149,140.243,173.316,115.795,99.8181,99.3044,0.00802166,0.28009,20.7333,866.716,0.0499045,0.0,0.0
600,149.75,138.73,171.37,112.651,99.814,99.5736,0.00801537,0.273234,20.7375,866.686,0.0233306,0.0,0.0
603,150.5,137.883,169.488,117.053,99.8274,99.0389,0.00801119,0.266911,20.7414,866.706,0.0767054,0.0,0.0
606,151.25,136.607,167.181,112.275,99.8352,99.4136,0.00800702,0.260594,20.7447,866.686,0.0409257,0.0,0.0
609,152,135.58,164.886,114.011,99.8144,99.835,0.00800198,0.255097,20.7477,866.716,-0.00199433,0.0,0.0
612,152.75,134.398,163.119,112.775,99.825,98.6771,0.00799491,0.250398,20.7503,866.676,0.111862,0.0,0.0
615,153.5,133.71,161.175,116.29,99.8408,98.5679,0.00796819,0.245711,20.753,866.676,0.124107,0.0,0.0
618,154.25,132.388,159.345,114.412,99.8494,99.185,0.00793812,0.241729,20.755,866.646,0.0645667,0.0,0.0
621,155,131.295,157.9,112.63,99.8445,99.2411,0.00789806,0.237862,20.7565,866.656,0.0586332,0.0,0.0
624,155.75,130.767,155.963,115.936,99.853,99.1189,0.00786004,0.234091,20.7588,866.646,0.0713756,0.0,0.0
627,156.5,129.176,153.705,116.769,99.8676,99.0604,0.00782924,0.230514,20.7613,866.606,0.0784977,0.0,0.0
630,157.25,128.61,152.974,119.051,99.868,99.3994,0.00780792,0.227183,20.7638,866.606,0.0454942,0.0,0.0
633,158,127.447,150.816,113.854,99.8786,99.0174,0.00778734,0.224258,20.766,866.636,0.0837629,0.0,0.0
636,158.75,126.485,149.877,114.546,99.8676,98.3418,0.00777019,0.221274,20.7685,866.656,0.148918,0.0,0.0
639,159.5,125.31,147.52,111.526,99.8875,99.0547,0.00775051,0.218188,20.7707,866.666,0.0809792,0.0,0.0
642,160.25,124.594,146.666,113.57,99.9038,99.4449,0.00772987,0.215301,20.7729,866.606,0.0445302,0.0,0.0
645,161,124,144.968,118.231,99.8956,99.2147,0.00770685,0.212924,20.7745,866.606,0.0661598,0.0,0.0
648,161.75,123.071,143.747,116.769,99.9107,98.8322,0.00768101,0.210223,20.7766,866.666,0.10497,0.0,0.0
651,162.5,122.215,142.597,115.318,99.9123,99.3531,0.007655,0.207913,20.7787,866.606,0.0542831,0.0,0.0
654,163.25,121.254,140.932,114.063,99.9318,98.9199,0.00763352,0.205645,20.7806,866.626,0.0984344,0.0,0.0
657,164,121.021,139.521,116.646,99.9277,98.8018,0.00761481,0.203273,20.7833,866.586,0.1096,0.0,0.0
660,164.75,120.384,138.387,118.596,99.9354,99.0442,0.00759777,0.200929,20.7852,866.616,0.0866487,0.0,0.0
663,165.5,119.394,137.271,114.441,99.9448,98.8517,0.00758535,0.198819,20.7867,866.596,0.106363,0.0,0.0
666,166.25,118.897,136.495,119.229,99.9606,98.5777,0.00758885,0.197109,20.7877,866.606,0.134746,0.0,0.0
669,167,118.013,135.008,117.91,99.9764,99.4566,0.0075914,0.195351,20.7884,866.606,0.0504196,0.0,0.0
672,167.75,117.322,133.987,114.993,99.9712,98.4449,0.00763274,0.193807,20.7881,866.586,0.148802,0.0,0.0
675,168.5,116.523,132.91,115.158,99.9878,99.0332,0.00767546,0.19223,20.7878,866.576,0.0927866,0.0,0.0
678,169.25,116.26,131.039,117.724,100.02,98.954,0.0077113,0.19108,20.7879,866.596,0.103624,0.0,0.0
681,170,115.386,130.081,116.44,100.018,98.9029,0.0077363,0.189514,20.7887,866.596,0.108468,0.0,0.0
684,170.75,114.639,128.99,113.977,100.017,98.846,0.00773299,0.187889,20.7901,866.586,0.11395,0.0,0.0
687,171.5,114.243,128.567,114.486,100.042,98.1063,0.00771295,0.186409,20.7915,866.536,0.188999,0.0,0.0
690,172.25,113.543,127.464,115.147,100.056,99.0929,0.00769084,0.184782,20.7925,866.586,0.0935563,0.0,0.0
693,173,113.731,126.416,115.815,100.071,99.1363,0.00764455,0.183269,20.7937,866.576,0.0908085,0.0,0.0
696,173.75,112.76,126.03,115.592,100.073,98.8286,0.00759066,0.181884,20.7954,866.556,0.121037,0.0,0.0
699,174.5,112.059,124.723,117.221,100.088,98.2642,0.0075544,0.180632,20.7962,866.526,0.177877,0.0,0.0
702,175.25,111.468,124.615,115.622,100.114,98.4039,0.00750589,0.179364,20.7972,866.516,0.16669,0.0,0.0
705,176,111.505,123.297,118.123,100.113,99.4538,0.00745922,0.178288,20.798,866.536,0.0638841,0.0,0.0
708,176.75,110.263,122.181,118.149,100.125,98.4283,0.00740192,0.177079,20.7994,866.546,0.165315,0.0,0.0
711,177.5,110.117,121.197,119.568,100.135,98.4372,0.0073476,0.17629,20.8008,866.496,0.165379,0.0,0.0
714,178.25,109.197,120.573,117.721,100.17,99.1656,0.0073,0.175158,20.8018,866.486,0.0974483,0.0,0.0
717,179,108.508,119.441,118.624,100.174,98.5387,0.00726079,0.173993,20.8038,866.506,0.159176,0.0,0.0
720,179.75,108.368,119.01,116.438,100.174,98.4615,0.0072322,0.172835,20.8052,866.526,0.16679,0.0,0.0
723,180.5,107.724,118.163,119.577,100.186,98.3207,0.00720957,0.171711,20.8069,866.476,0.181815,0.0,0.0
726,181.25,107.305,117.144,117.839,100.206,98.2529,0.00718429,0.170637,20.8082,866.526,0.190407,0.0,0.0
729,182,107.118,116.536,117.13,100.222,98.3877,0.0071542,0.169746,20.8091,866.486,0.178715,0.0,0.0
732,182.75,106.469,115.568,116.862,100.221,98.3625,0.00711871,0.168694,20.8103,866.496,0.181033,0.0,0.0
735,183.5,106.243,115.374,119.318,100.218,97.447,0.00706424,0.16749,20.812,866.506,0.271244,0.0,0.0
738,184.25,105.622,114.788,115.683,100.242,96.7446,0.00701991,0.165864,20.8157,866.506,0.343483,0.0,0.0
741,185,104.81,112.89,115.415,100.258,96.9959,0.0069797,0.163355,20.8208,866.496,0.319917,0.0,0.0
744,185.75,103.892,112.495,116.913,100.257,96.2943,0.00695038,0.160588,20.8263,866.486,0.390012,0.0,0.0
747,186.5,103.986,112.792,118.244,100.276,96.4945,0.00692901,0.158171,20.8311,866.476,0.371808,0.0,0.0
750,187.25,104.209,111.817,118.784,100.29,96.7933,0.00693131,0.155094,20.8359,866.486,0.343233,0.0,0.0
753,188,103.425,111.263,116.802,100.317,96.5603,0.00693562,0.152181,20.8399,866.476,0.369134,0.0,0.0
756,188.75,103.385,110.669,119.79,100.302,96.419,0.00694328,0.149773,20.8441,866.446,0.381847,0.0,0.0
759,189.5,102.064,109.092,113.915,100.315,96.9801,0.0069292,0.146807,20.8472,866.446,0.327057,0.0,0.0
762,190.25,102.222,108.845,119.232,100.326,96.9224,0.00691893,0.144645,20.8507,866.456,0.333826,0.0,0.0
765,191,102.308,108.826,117.804,100.352,96.0743,0.00684535,0.14204,20.8531,866.456,0.4213,0.0,0.0
768,191.75,101.506,107.755,121.961,100.361,96.3532,0.00676169,0.139754,20.8551,866.466,0.394162,0.0,0.0
771,192.5,100.784,107.542,118.729,100.353,96.8303,0.0066879,0.137921,20.8569,866.466,0.34565,0.0,0.0
774,193.25,100.1,106.114,113.119,100.367,96.283,0.00658775,0.136316,20.8582,866.486,0.401841,0.0,0.0
777,194,100.6,106.174,117.971,100.383,96.3325,0.00648648,0.134685,20.8592,866.466,0.398392,0.0,0.0
780,194.75,99.7216,105.225,118.432,100.388,96.3865,0.00636434,0.133161,20.8605,866.446,0.393441,0.0,0.0
783,195.5,99.6788,105.025,115.954,100.398,97.0889,0.00624287,0.131843,20.8615,866.436,0.324156,0.0,0.0
786,196.25,99.0608,104.059,119.418,100.408,96.7385,0.00612737,0.130663,20.8622,866.446,0.360061,0.0,0.0
789,197,98.9411,104.256,119.712,100.438,96.9127,0.00602075,0.129579,20.8627,866.426,0.345635,0.0,0.0
792,197.75,98.5703,103.976,118.401,100.442,96.6175,0.00591811,0.128644,20.8635,866.436,0.37545,0.0,0.0
795,198.5,98.2931,103.103,119.263,100.444,96.6321,0.00582349,0.127714,20.8643,866.436,0.374183,0.0,0.0
798,199.25,98.2534,102.572,121.154,100.458,96.6484,0.00573883,0.126839,20.8649,866.426,0.373965,0.0,0.0
801,200,97.0355,101.701,119.214,100.493,96.5712,0.00569308,0.126105,20.8652,866.446,0.384971,0.0,0.0
804,200.75,97.0659,101.699,122.039,100.498,96.4527,0.00562599,0.125529,20.8656,866.436,0.397359,0.0,0.0
807,201.5,96.6865,101.256,117.978,100.492,97.1879,0.00561537,0.124932,20.8662,866.436,0.323362,0.0,0.0
810,202.25,96.3462,100.746,118.492,100.51,96.3021,0.00561056,0.124373,20.8669,866.426,0.413649,0.0,0.0
813,203,96.6137,100.23,116.597,100.523,96.7791,0.00561548,0.12405,20.8674,866.446,0.367144,0.0,0.0
816,203.75,96.1491,99.8684,117.705,100.531,97.0576,0.00562803,0.123341,20.8678,866.396,0.340091,0.0,0.0
819,204.5,95.5063,99.4046,117.677,100.529,96.7925,0.00565317,0.123013,20.868,866.396,0.366313,0.0,0.0
822,205.25,95.562,99.1517,117.917,100.534,96.8323,0.00568147,0.122588,20.8682,866.396,0.362846,0.0,0.0
825,206,95.3565,98.4647,117.812,100.555,96.7182,0.00570634,0.122209,20.8684,866.376,0.376317,0.0,0.0
828,206.75,94.8136,98.5098,120.958,100.565,97.2525,0.00573514,0.121881,20.8689,866.346,0.323972,0.0,0.0
831,207.5,94.7158,97.7211,121.065,100.56,96.2911,0.00575614,0.121606,20.8695,866.356,0.419554,0.0,0.0
834,208.25,94.0135,97.3869,121.115,100.565,96.6273,0.00576611,0.121346,20.8699,866.356,0.386354,0.0,0.0
837,209,93.9094,97.6322,120.464,100.578,97.2387,0.00576341,0.121058,20.8702,866.346,0.326555,0.0,0.0
840,209.75,93.6776,96.3513,120.09,100.592,96.544,0.00575905,0.120849,20.8704,866.366,0.397226,0.0,0.0
843,210.5,93.2764,96.5219,122.408,100.603,96.9224,0.00573092,0.120539,20.8706,866.386,0.360524,0.0,0.0
846,211.25,92.9532,96.1834,118.301,100.598,96.3902,0.00569174,0.120313,20.8707,866.366,0.413317,0.0,0.0
849,212,92.7543,95.4417,117.905,100.606,96.3609,0.00564473,0.12007,20.8708,866.366,0.416993,0.0,0.0
852,212.75,92.4083,95.2722,119.444,100.639,96.2558,0.00559255,0.119924,20.8709,866.376,0.430753,0.0,0.0
855,213.5,92.5179,95.146,123.409,100.636,96.978,0.0055545,0.119706,20.8709,866.366,0.358137,0.0,0.0
858,214.25,92.3472,94.7613,118.68,100.63,96.3114,0.00550903,0.11951,20.8706,866.376,0.424268,0.0,0.0
861,215,91.2486,94.3278,119.266,100.644,96.4811,0.00547588,0.119312,20.8702,866.366,0.408568,0.0,0.0
864,215.75,91.2088,94.1124,117.539,100.652,96.4458,0.00545526,0.119145,20.8699,866.396,0.412928,0.0,0.0
867,216.5,91.1438,93.8661,118.386,100.676,96.6443,0.00543152,0.118954,20.8697,866.366,0.395263,0.0,0.0
870,217.25,90.6711,92.7687,121.005,100.687,96.7336,0.00541051,0.118785,20.8695,866.366,0.38742,0.0,0.0
873,218,90.3422,92.8577,119.274,100.68,96.6622,0.00536327,0.118623,20.8694,866.346,0.393866,0.0,0.0
876,218.75,90.4708,92.6344,123.034,100.686,96.6614,0.00531021,0.118519,20.8693,866.366,0.394571,0.0,0.0
879,219.5,90.0238,92.1547,118.461,100.709,96.6869,0.00525704,0.118469,20.8693,866.386,0.394157,0.0,0.0
882,220.25,90.2198,91.6766,116.512,100.704,96.7706,0.0052071,0.118445,20.8692,866.386,0.385365,0.0,0.0
885,221,89.0789,91.0669,120.151,100.713,96.9919,0.00516822,0.118434,20.8692,866.356,0.364133,0.0,0.0
888,221.75,88.605,90.4174,119.104,100.73,96.8002,0.00513881,0.118367,20.8692,866.366,0.384859,0.0,0.0
891,222.5,89.4664,91.0906,119.107,100.74,97.2793,0.0051404,0.118319,20.8692,866.376,0.338084,0.0,0.0
894,223.25,89.1164,91.0524,120.506,100.732,96.8765,0.00514906,0.11829,20.8691,866.356,0.377431,0.0,0.0
897,224,88.9729,90.0569,117.233,100.733,96.8891,0.00516913,0.118282,20.8691,866.346,0.376292,0.0,0.0
900,224.75,88.946,90.0402,120.593,100.747,96.244,0.00519618,0.118276,20.8691,866.336,0.442272,0.0,0.0
903,225.5,87.9166,89.1019,119.181,100.773,96.3662,0.00521838,0.118271,20.8691,866.316,0.432532,0.0,0.0
906,226.25,88.323,89.8936,124.785,100.769,96.3552,0.00522973,0.118269,20.8691,866.326,0.433242,0.0,0.0
909,227,88.4999,89.5248,120.719,100.774,96.7458,0.00522794,0.11823,20.8691,866.326,0.394585,0.0,0.0
912,227.75,87.6291,89.1449,118.836,100.787,96.7304,0.00521794,0.118119,20.8693,866.326,0.397336,0.0,0.0
915,228.5,87.9569,89.4066,118.241,100.799,96.4803,0.00520695,0.118,20.8699,866.326,0.423543,0.0,0.0
918,229.25,86.9114,87.5935,122.015,100.813,96.9602,0.00519396,0.117816,20.8703,866.316,0.376917,0.0,0.0
921,230,87.7915,88.3281,123.486,100.801,96.7332,0.00518237,0.117613,20.8706,866.306,0.398453,0.0,0.0
924,230.75,87.6001,88.3792,121.467,100.818,96.5688,0.00516861,0.117436,20.8708,866.306,0.416466,0.0,0.0
927,231.5,86.8953,87.9417,122.549,100.824,96.4555,0.0051561,0.117306,20.8712,866.316,0.428403,0.0,0.0
930,232.25,86.9956,88.1714,121.606,100.847,96.3772,0.00514722,0.117212,20.8719,866.286,0.438443,0.0,0.0
933,233,86.2375,86.8298,120.658,100.83,96.9671,0.00514299,0.117061,20.8724,866.286,0.377865,0.0,0.0
936,233.75,86.1785,86.4709,120.878,100.838,96.4405,0.00514876,0.11688,20.8732,866.286,0.431233,0.0,0.0
939,234.5,86.6985,87.0306,121.947,100.863,96.4766,0.00516291,0.116686,20.874,866.276,0.430063,0.0,0.0
942,235.25,86.1836,87.1798,122.406,100.857,96.6618,0.00517746,0.116449,20.8745,866.266,0.410936,0.0,0.0
945,236,85.9906,86.3417,125.401,100.864,96.0154,0.00519179,0.116191,20.8749,866.266,0.47649,0.0,0.0
948,236.75,86.0325,86.5511,120.032,100.856,96.5887,0.00520383,0.11593,20.8752,866.266,0.418175,0.0,0.0
951,237.5,85.5857,86.3716,118.711,100.87,96.5997,0.00520738,0.115602,20.8755,866.276,0.4184,0.0,0.0
954,238.25,85.096,86.3152,119.616,100.867,96.5923,0.00520101,0.115334,20.8761,866.256,0.418859,0.0,0.0
957,239,85.2315,85.6839,119.667,100.871,96.4044,0.00520383,0.11509,20.8765,866.276,0.438051,0.0,0.0
960,239.75,84.7261,85.7058,122.315,100.879,96.9443,0.00521953,0.114912,20.8768,866.256,0.384845,0.0,0.0
963,240.5,84.6894,85.4458,123.126,100.89,97.2834,0.00524887,0.114762,20.8771,866.276,0.352054,0.0,0.0
966,241.25,84.7056,84.7188,124.146,100.896,96.2302,0.00527381,0.114675,20.8772,866.256,0.457954,0.0,0.0
969,242,85.191,84.9707,122.163,100.88,96.7259,,0.114648,,866.246,0.406739,0.0,0.0
972,242.75,84.2043,84.7579,121.205,100.888,96.4295,,0.114574,,866.246,0.437161,0.0,0.0
975,243.5,84.612,84.4226,120.084,100.896,96.0033,,0.114439,,866.246,0.480792,0.0,0.0
978,244.25,83.905,84.4248,121.707,100.892,96.4925,,0.114227,,866.266,0.4312,0.0,0.0
981,245,83.8798,83.9077,122.002,100.906,96.4206,,,,866.266,0.439807,0.0,0.0
984,245.75,83.4517,83.8114,120.051,100.903,96.3772,,,,866.236,0.443816,0.0,0.0
987,246.5,83.2198,83.3651,120.819,100.914,96.8282,,,,866.236,0.399744,0.0,0.0
990,247.25,82.6627,83.1691,122.821,100.91,96.173,,,,866.226,0.465033,0.0,0.0
993,248,83.3305,83.4259,120.361,100.909,96.3808,,,,866.216,0.444071,0.0,0.0
996,248.75,82.9488,83.1015,120.704,100.896,96.3999,,,,866.196,0.440911,0.0,0.0
999,249.5,82.5174,83.1311,122.319,100.892,96.0353,,,,866.176,0.477172,0.0,0.0
1002,250.25,82.7804,82.8685,119.806,100.914,96.404,,,,866.186,0.442217,0.0,0.0
1005,251,81.5431,82.4575,121.309,100.909,96.5363,,,,866.206,0.42848,0.0,0.0
1008,251.75,82.4666,82.4461,123.166,100.894,96.1965,,,,866.236,0.461186,0.0,0.0
1010,252.25,82.2152,82.2138,120.258,100.906,96.5664,,,,866.236,0.42516,0.0,0.0