File: 01_Data/LDPE/Cone/LDPE_Cone_HF25Scan_220202_R1.csv
Names,Time,Stack TC,Smoke TC,Exh Press,Smoke Comp,Smoke Meas,CO Meter,CO2 Meter,O2 Meter,Sample Mass,Ext Coeff,Start Test,Flame Verif
Chan Gain,,500,500,1,1,1,1,1,1,1,1,1.0,1.0
Offset,,0,0,0.14021,0,0,0,0,0,0,0,0.0,0.0
Gain,,1,1,25.011,13.3046,13.3037,1,1,1,1.00087,1.10262,1.0,1.0
Units,sec,C,C,Pa,%,%,%,%,%,g,/m,,
Baseline,,14.533,15.5524,146.82,101.01,105.057,0.00481248,0.106204,20.9013,-0.0405771,-0.379881,,
4,0.75,13.0506,14.0901,146.65,101.813,105.98,0.00487355,0.119452,20.8853,930.832,-0.387924,0.0,0.0
8,1.75,13.9365,14.5004,145.702,101.857,105.854,0.00490293,0.119415,20.8862,930.772,-0.372229,0.0,0.0
12,2.75,13.4613,13.8804,139.58,101.899,105.865,0.00492474,0.11954,20.8861,930.742,-0.369335,0.0,0.0
16,3.75,13.5308,14.1556,143.743,101.927,106.194,0.00493745,0.1197,20.8859,930.732,-0.396599,0.0,0.0
20,4.75,13.3149,14.3221,148.111,101.944,106.239,0.00492109,0.119846,20.8858,930.752,-0.399198,0.0,0.0
24,5.75,13.3434,14.3599,146.229,101.945,106.738,0.00487499,0.119967,20.8858,930.742,-0.444364,0.0,0.0
28,6.75,13.5221,14.3205,147.019,101.937,106.463,0.00482382,0.120038,20.886,930.752,-0.420161,0.0,0.0
32,7.75,13.836,14.4408,144.668,101.924,106.033,0.00475692,0.120044,20.8871,930.762,-0.382328,0.0,0.0
36,8.75,13.3366,14.6895,147.588,101.886,106.242,0.00471066,0.119977,20.8882,930.762,-0.404967,0.0,0.0
40,9.75,13.6547,14.4652,146.881,101.854,106.037,0.00467039,0.119806,20.8894,930.762,-0.389252,0.0,0.0
44,10.75,13.5695,14.051,146.049,101.792,105.849,0.00463399,0.119473,20.8912,930.792,-0.377955,0.0,0.0
48,11.75,13.5319,14.7948,146.462,101.732,106.053,0.00460534,0.119056,20.8925,930.772,-0.402384,0.0,0.0
52,12.75,14.0071,14.7611,144.5,101.66,106.064,0.00460448,0.118459,20.8939,934.285,-0.410144,0.0,0.0
56,13.75,13.528,14.4832,145.568,101.591,105.94,0.00461736,0.117819,20.895,951.04,-0.405413,0.0,0.0
60,14.75,14.1268,14.8899,146.076,101.512,105.666,0.00464172,0.117207,20.8962,965.092,-0.387979,0.0,0.0
64,15.75,14.1116,15.2767,146.337,101.456,105.761,0.0046719,0.116585,20.8973,976.432,-0.401937,0.0,0.0
68,16.75,13.7099,15.0322,144.116,101.384,105.662,0.0047015,0.116018,20.8984,981.757,-0.399763,0.0,0.0
72,17.75,13.9194,14.8318,147.893,101.298,105.422,0.00470902,0.115448,20.8996,987.812,-0.385912,0.0,0.0
76,18.75,14.2927,14.9903,142.124,101.243,105.715,0.00470084,0.1149,20.9003,992.436,-0.418118,0.0,0.0
80,19.75,13.4423,14.3257,146.942,101.184,105.867,0.00467162,0.114367,20.9008,992.596,-0.437514,0.0,0.0
84,20.75,13.9538,14.2584,143.644,101.133,104.944,0.00462595,0.113844,20.9013,991.745,-0.3578,0.0,0.0
88,21.75,14.1569,15.0113,144.646,101.146,105.422,0.00458751,0.113344,20.9017,990.774,-0.400461,0.0,0.0
92,22.75,13.5118,14.3953,145.623,101.292,105.81,0.00456492,0.112975,20.902,989.183,-0.422114,0.0,0.0
96,23.75,14.231,15.0107,150.885,101.413,105.627,0.00456028,0.112658,20.9019,988.442,-0.393702,0.0,0.0
100,24.75,14.2452,15.1362,148.332,101.499,105.607,0.00457472,0.112351,20.9011,987.732,-0.383674,0.0,0.0
104,25.75,13.9762,15.0485,145.61,101.566,106.131,0.00460885,0.11207,20.9005,987.411,-0.425214,0.0,0.0
108,26.75,13.5097,14.9215,144.883,101.621,105.973,0.00465423,0.111922,20.9002,987.442,-0.405594,0.0,0.0
112,27.75,14.2158,14.8083,145.439,101.65,105.978,0.0047008,0.111773,20.9004,986.741,-0.403218,0.0,0.0
116,28.75,13.8411,15.0902,145.314,101.654,105.906,0.00473668,0.111598,20.9009,986.07,-0.396347,0.0,0.0
120,29.75,13.915,14.628,145.448,101.644,106.219,0.00476224,0.111431,20.9012,986.351,-0.425897,0.0,0.0
124,30.75,13.7806,14.638,144.739,101.618,105.847,0.00478768,0.111197,20.9014,986.881,-0.394372,0.0,0.0
128,31.75,14.0664,15.2742,147.713,101.569,106.302,0.00481598,0.110969,20.9015,987.151,-0.440548,0.0,0.0
132,32.75,14.4219,15.0113,147.284,101.474,106.002,0.00484569,0.110721,20.9016,987.502,-0.422186,0.0,0.0
136,33.75,14.1612,15.3674,145.998,101.382,105.82,0.0048618,0.110509,20.9017,987.662,-0.414364,0.0,0.0
140,34.75,14.2319,15.0466,145.174,101.248,105.599,0.00485907,0.110311,20.9018,987.552,-0.40691,0.0,0.0
144,35.75,14.1092,14.717,151.653,101.082,105.998,0.00483164,0.110125,20.9021,987.492,-0.45927,0.0,0.0
148,36.75,14.0445,14.9371,143.395,100.906,105.356,0.00477078,0.109985,20.9023,987.482,-0.4174,0.0,0.0
152,37.75,14.3049,14.9827,142.571,100.754,105.077,0.00469963,0.109929,20.9024,987.582,-0.406363,0.0,0.0
156,38.75,13.7527,14.9241,142.083,100.769,105.176,0.00465136,0.109792,20.9025,987.582,-0.413997,0.0,0.0
160,39.75,14.1753,15.351,149.196,100.799,105.305,0.0046257,0.109629,20.9025,987.371,-0.42298,0.0,0.0
164,40.75,14.3622,14.8723,150.53,100.847,104.951,0.0046582,0.109423,20.9033,986.881,-0.385814,0.0,0.0
168,41.75,14.4801,15.8914,146.405,100.896,105.252,0.00472216,0.109114,20.9039,986.06,-0.408825,0.0,0.0
172,42.75,14.201,15.2488,146.067,100.95,104.807,0.00477828,0.108814,20.9042,984.929,-0.362673,0.0,0.0
176,43.75,14.0514,14.577,144.826,100.995,105.376,0.00481891,0.108578,20.9045,983.008,-0.410705,0.0,0.0
180,44.75,14.1584,15.2611,146.861,101.067,105.237,0.00480272,0.108411,20.9051,980.065,-0.391074,0.0,0.0
184,45.75,14.1958,15.8524,149.171,101.123,105.514,0.00474438,0.108302,20.9056,976.832,-0.411128,0.0,0.0
188,46.75,14.1266,14.9977,143.851,101.19,105.92,0.00465264,0.108257,20.9053,973.94,-0.441863,0.0,0.0
192,47.75,14.285,15.0556,147.536,101.243,105.867,0.00457177,0.108249,20.9047,970.967,-0.431926,0.0,0.0
196,48.75,14.1726,15.6054,145.765,101.284,105.435,0.00449488,0.108243,20.9044,968.305,-0.388537,0.0,0.0
200,49.75,14.4106,15.2253,148.214,101.309,105.78,0.00444833,0.10824,20.9041,965.953,-0.417663,0.0,0.0
204,50.75,14.1118,15.4641,148.884,101.323,105.802,0.00443449,0.108336,20.904,964.582,-0.418351,0.0,0.0
208,51.75,14.2839,15.085,142.643,101.334,105.858,0.0044481,0.10836,20.9031,963.631,-0.422387,0.0,0.0
212,52.75,14.2121,15.4332,148.937,101.294,105.72,0.00447169,0.108366,20.9025,961.619,-0.413678,0.0,0.0
216,53.75,14.3792,15.2792,149.531,101.269,106.123,0.00449194,0.108467,20.9021,957.415,-0.452856,0.0,0.0
220,54.75,14.1745,15.3424,145.269,101.21,105.833,0.00450038,0.10856,20.902,950.179,-0.43199,0.0,0.0
224,55.75,14.3533,15.5988,146.104,101.156,105.254,0.00448342,0.108607,20.9021,941.922,-0.384135,0.0,0.0
228,56.75,14.4254,15.534,146.4,101.07,105.653,0.00445075,0.10862,20.9021,935.726,-0.428858,0.0,0.0
232,57.75,14.4443,15.3333,147.309,100.972,105.483,0.00441799,0.108612,20.9022,931.012,-0.422756,0.0,0.0
236,58.75,14.3597,15.7133,143.258,100.878,105.353,0.00442194,0.108558,20.9022,927.609,-0.419822,0.0,0.0
240,59.75,14.4466,15.7467,147.401,100.77,105.166,0.00447383,0.108483,20.903,925.507,-0.412948,0.0,0.0
244,60.75,13.9613,16.087,147.788,100.652,104.585,0.00454286,0.108404,20.9035,924.256,-0.370676,0.0,0.0
248,61.75,13.8323,15.3565,148.181,100.542,104.397,0.00461643,0.108366,20.9039,923.416,-0.363893,0.0,0.0
252,62.75,14.6983,15.8188,146.24,100.439,105.036,0.00466524,0.108366,20.9041,921.824,-0.432843,0.0,0.0
256,63.75,14.8545,16.296,146.634,100.326,105.035,0.00468122,0.108358,20.9043,921.514,-0.443683,0.0,0.0
260,64.75,14.6015,15.6642,148.541,100.231,104.439,0.0046817,0.108341,20.9044,921.724,-0.397733,0.0,0.0
264,65.75,14.5318,15.4953,143.36,100.153,104.58,0.00467081,0.108232,20.9044,921.854,-0.418411,0.0,0.0
268,66.75,14.6176,16.0805,145.172,100.085,104.502,0.00465864,0.108209,20.9045,922.185,-0.41775,0.0,0.0
272,67.75,14.3359,15.799,149.178,100.037,104.078,0.00465437,0.108219,20.9045,922.515,-0.382957,0.0,0.0
276,68.75,14.7902,15.5713,148.988,100.006,104.094,0.00466241,0.108225,20.9045,923.035,-0.38749,0.0,0.0
280,69.75,14.1767,15.1405,144.152,100.007,104.144,0.00468677,0.10823,20.9045,923.175,-0.392049,0.0,0.0
284,70.75,14.7409,15.7777,145.249,100.027,104.666,0.0047252,0.108257,20.9038,922.985,-0.438457,0.0,0.0
288,71.75,14.4846,15.9355,149.677,100.061,104.313,0.00478857,0.108275,20.9032,923.326,-0.402538,0.0,0.0
292,72.75,14.6575,15.9819,148.295,100.114,105.002,0.0048571,0.108342,20.9029,923.536,-0.461073,0.0,0.0
296,73.75,14.7575,16.2218,145.773,100.208,104.486,0.0049088,0.10843,20.9021,923.686,-0.404366,0.0,0.0
300,74.75,14.3555,15.9115,151.258,100.312,104.685,0.00493598,0.108487,20.9014,923.876,-0.412734,0.0,0.0
304,75.75,14.9166,15.8755,146.753,100.441,104.551,0.00495009,0.108566,20.9007,924.156,-0.387945,0.0,0.0
308,76.75,15.1725,16.1055,145.823,100.573,104.966,0.00496221,0.10872,20.8996,924.427,-0.413517,0.0,0.0
312,77.75,15.0851,16.2981,142.853,100.719,105.104,0.00499235,0.108875,20.899,924.637,-0.412259,0.0,0.0
316,78.75,15.0943,16.1414,144.079,100.867,105.13,0.00503255,0.109225,20.897,924.867,-0.400352,0.0,0.0
320,79.75,14.8546,16.1225,148.37,101.02,105.737,0.00505689,0.109653,20.8956,925.057,-0.441407,0.0,0.0
324,80.75,14.9063,16.8116,146.225,101.171,105.358,0.00504397,0.110109,20.8948,925.237,-0.392204,0.0,0.0
328,81.75,14.5094,15.7486,143.457,101.318,105.774,0.00502242,0.110553,20.8942,925.367,-0.416255,0.0,0.0
332,82.75,15.2892,16.4229,143.44,101.463,105.296,0.0049746,0.110968,20.8932,925.638,-0.358595,0.0,0.0
336,83.75,14.6754,16.5717,140.217,101.589,106.337,0.00491853,0.111423,20.8924,925.978,-0.441827,0.0,0.0
340,84.75,14.877,16.4459,145.612,101.702,106.171,0.00486379,0.111803,20.8919,926.308,-0.415933,0.0,0.0
344,85.75,14.7063,15.9894,145.63,101.775,106.182,0.00482433,0.11209,20.8915,926.668,-0.409948,0.0,0.0
348,86.75,15.3233,15.9518,144.684,101.862,106.603,0.00480104,0.112315,20.8913,927.109,-0.440044,0.0,0.0
352,87.75,15.1659,16.511,143.441,101.91,106.612,0.00480792,0.112497,20.8911,927.649,-0.436307,0.0,0.0
356,88.75,15.2314,16.6998,147.798,101.938,106.584,0.00483578,0.112646,20.891,928.22,-0.431066,0.0,0.0
360,89.75,14.945,16.1001,149.273,101.947,106.412,0.00488407,0.112835,20.8905,928.59,-0.414586,0.0,0.0
364,90.75,15.3513,16.275,143.232,101.94,106.542,0.00495482,0.113013,20.8901,928.82,-0.42708,0.0,0.0
368,91.75,15.4704,16.2631,140.685,101.899,106.212,0.00501366,0.113302,20.89,928.97,-0.400923,0.0,0.0
372,92.75,14.8167,16.2746,146.664,101.866,106.273,0.00503157,0.113452,20.8894,929.091,-0.409625,0.0,0.0
376,93.75,14.8985,16.2179,147.286,101.798,105.895,0.00502481,0.113814,20.889,929.191,-0.38168,0.0,0.0
380,94.75,15.6373,16.4817,145.828,101.707,106.191,0.00502427,0.1142,20.8885,929.281,-0.417322,0.0,0.0
384,95.75,14.9552,16.2942,146.323,101.62,106.262,0.00503196,0.114553,20.8876,929.391,-0.432056,0.0,0.0
388,96.75,15.7013,17.1721,150.143,101.524,105.946,0.00507972,0.114809,20.887,929.471,-0.412352,0.0,0.0
392,97.75,15.1372,16.5326,146.931,101.434,105.903,0.00511991,0.115077,20.8862,929.541,-0.416973,0.0,0.0
396,98.75,14.7719,16.9509,147.319,101.344,105.065,0.0051398,0.115487,20.8853,929.511,-0.348772,0.0,0.0
400,99.75,15.466,16.566,143.354,101.258,105.557,0.0051487,0.115906,20.8834,929.861,-0.402147,0.0,0.0
404,100.75,15.7445,16.6496,149.519,101.195,105.048,0.00516646,0.116443,20.8811,929.901,-0.361512,0.0,0.0
408,101.75,15.5898,17.0425,146.323,101.143,105.152,0.00520982,0.116998,20.8796,929.981,-0.376008,0.0,0.0
412,102.75,15.7642,17.0601,147.779,101.303,105.216,0.00525898,0.117636,20.8787,930.051,-0.366544,0.0,0.0
416,103.75,15.4165,16.6322,143.82,101.456,105.383,0.0053271,0.118248,20.8772,930.111,-0.367344,0.0,0.0
420,104.75,15.7245,17.282,143.96,101.567,105.738,0.00538006,0.118874,20.8755,930.182,-0.389219,0.0,0.0
424,105.75,15.8244,17.4243,148.49,101.644,105.869,0.00540441,0.119608,20.8744,930.242,-0.393863,0.0,0.0
428,106.75,16.2689,17.5142,138.694,101.681,105.573,0.00540282,0.120345,20.873,930.292,-0.363232,0.0,0.0
432,107.75,15.6411,17.279,143.669,101.687,105.804,0.00537027,0.121007,20.8719,930.322,-0.383946,0.0,0.0
436,108.75,16.2538,17.7527,146.942,101.636,105.508,0.00534005,0.121727,20.8708,930.352,-0.36168,0.0,0.0
440,109.75,15.6689,17.7674,144.846,101.569,105.92,0.00532242,0.122332,20.8697,930.382,-0.405685,0.0,0.0
444,110.75,15.991,17.9339,143.246,101.453,105.391,0.00532726,0.122923,20.8682,930.402,-0.368323,0.0,0.0
448,111.75,15.9913,17.9842,146.284,101.305,105.906,0.0053432,0.12366,20.8664,930.432,-0.429628,0.0,0.0
452,112.75,16.416,17.9148,146.12,101.117,104.921,0.00537167,0.124518,20.8651,930.432,-0.35722,0.0,0.0
456,113.75,16.0479,17.9511,145.322,100.892,104.554,0.0054003,0.125475,20.8631,930.462,-0.344906,0.0,0.0
460,114.75,16.3679,18.3056,144.058,100.792,104.532,0.0054259,0.126485,20.86,930.462,-0.352343,0.0,0.0
464,115.75,16.3086,18.1129,152.79,100.82,104.244,0.00543298,0.127371,20.8562,930.462,-0.323024,0.0,0.0
468,116.75,16.4889,18.6272,139.471,100.861,105.255,0.00543057,0.128753,20.8521,930.472,-0.412396,0.0,0.0
472,117.75,16.6472,18.2291,141.975,100.925,104.157,0.00538289,0.13021,20.8485,930.462,-0.304874,0.0,0.0
476,118.75,17.0263,18.652,141.718,100.995,104.919,0.00530814,0.131681,20.845,930.452,-0.36869,0.0,1.0
480,119.75,15.8654,18.2235,142.76,101.086,104.548,0.00522732,0.133185,20.8418,930.452,-0.325755,0.0,1.0
484,120.75,16.1405,18.7345,142.463,101.121,104.953,0.00513055,0.134805,20.8372,930.442,-0.359789,0.0,1.0
488,121.75,16.7976,19.6528,140.982,101.19,104.887,0.00506521,0.136617,20.8316,930.432,-0.347011,0.0,1.0
492,122.75,17.1883,19.5164,139.226,101.258,104.536,0.00504227,0.138287,20.8255,930.432,-0.308131,0.0,1.0
496,123.75,16.5109,18.2889,138.289,101.301,105.238,0.00503928,0.140429,20.8209,930.412,-0.368829,0.0,0.0
500,124.75,17.087,19.0289,146.523,101.319,105.127,0.00508901,0.142954,20.8155,930.412,-0.356893,0.0,0.0
504,125.75,17.8023,19.3703,141.289,101.307,105.293,0.00516438,0.145394,20.8114,930.352,-0.373283,0.0,0.0
508,126.75,17.2384,19.9992,140.855,101.294,104.757,0.0052611,0.147793,20.8066,930.342,-0.325134,0.0,0.0
512,127.75,16.8263,19.3681,140.959,101.264,104.819,0.00534482,0.150184,20.8022,930.382,-0.333736,0.0,0.0
516,128.75,17.9559,20.795,144.548,101.205,104.608,0.00538201,0.152634,20.7981,930.332,-0.319897,0.0,0.0
520,129.75,17.6487,20.1081,139.863,101.151,104.673,0.00538298,0.15508,20.7936,930.342,-0.331103,0.0,0.0
524,130.75,18.1822,21.0105,142.828,101.11,104.172,0.00536785,0.157461,20.789,930.332,-0.28862,0.0,0.0
528,131.75,17.6887,20.0117,143.057,101.06,103.427,0.00535895,0.159892,20.782,930.322,-0.223978,0.0,0.0
532,132.75,18.4891,21.4817,145.858,100.987,103.65,0.00535622,0.162917,20.7735,930.292,-0.251758,0.0,0.0
536,133.75,18.8167,21.542,140.88,100.883,103.2,0.00534121,0.166052,20.7656,930.312,-0.219651,0.0,0.0
540,134.75,19.3785,22.3702,137.268,100.786,104.261,0.0053186,0.169198,20.758,930.282,-0.327837,0.0,0.0
544,135.75,19.3518,22.1727,136.858,100.682,103.927,0.00531051,0.172534,20.7526,930.232,-0.306849,0.0,0.0
548,136.75,19.9255,22.9294,141.531,100.572,103.746,0.00532759,0.176115,20.748,930.202,-0.300519,0.0,0.0
552,137.75,19.3867,22.9135,134.848,100.476,103.123,0.00535692,0.179456,20.7451,930.161,-0.251463,0.0,0.0
556,138.75,20.141,23.33,136.883,100.393,103.041,0.0054167,0.18226,20.7407,930.182,-0.251745,0.0,0.0
560,139.75,20.654,23.795,137.559,100.298,103.536,0.00545593,0.185674,20.735,930.192,-0.307248,0.0,0.0
564,140.75,20.7261,24.4197,141.093,100.21,101.821,0.00547278,0.189504,20.7278,930.131,-0.154239,0.0,0.0
568,141.75,20.7537,24.5462,137.179,100.129,101.9,0.00547648,0.192877,20.7194,930.101,-0.169559,0.0,0.0
572,142.75,21.0513,24.8977,139.319,100.06,100.47,0.0054731,0.196422,20.7105,930.071,-0.039621,0.0,0.0
576,143.75,21.6359,25.2388,140.587,100.02,100.449,0.00547928,0.200344,20.7019,930.051,-0.0413578,0.0,0.0
580,144.75,21.8879,25.5186,140.492,99.9773,101.395,0.00549423,0.204256,20.6952,930.011,-0.13622,0.0,0.0
584,145.75,21.7436,25.8751,138.265,99.9427,101.026,0.00553334,0.208295,20.6877,930.001,-0.10429,0.0,0.0
588,146.75,22.0812,26.5282,138.778,99.9444,100.9,0.00558829,0.212396,20.6796,929.971,-0.092037,0.0,0.0
592,147.75,21.9544,26.9736,139.656,99.9415,100.483,0.00565366,0.216807,20.6735,929.951,-0.0523002,0.0,0.0
596,148.75,22.151,27.0263,132.257,99.9894,99.0072,0.00571735,0.220935,20.6664,929.921,0.0954825,0.0,0.0
600,149.75,22.8044,27.8445,137.49,100.032,99.9974,0.0057975,0.22471,20.6603,929.891,0.00338924,0.0,0.0
604,150.75,23.4858,27.9285,138.494,100.104,101.302,0.00587499,0.22875,20.6549,929.851,-0.115021,0.0,0.0
608,151.75,23.9288,28.5694,136.702,100.174,101.667,0.00594627,0.232429,20.6503,929.821,-0.143139,0.0,0.0
612,152.75,23.7079,28.6684,138.704,100.259,100.451,0.00601335,0.235878,20.6456,929.791,-0.0184547,0.0,0.0
616,153.75,23.8816,29.1481,133.326,100.376,100.745,0.00610603,0.23915,20.6395,929.771,-0.0354414,0.0,0.0
620,154.75,23.6896,29.5679,134.539,100.476,100.075,0.00621435,0.242749,20.6338,929.721,0.038667,0.0,0.0
624,155.75,24.3581,30.2249,135.488,100.606,100.484,0.00632182,0.246279,20.6271,929.731,0.0117328,0.0,0.0
628,156.75,24.1554,29.7889,133.346,100.724,100.427,0.00643651,0.249847,20.6203,929.691,0.0285201,0.0,0.0
632,157.75,25.082,30.3688,137.353,100.868,99.3385,0.00652944,0.253359,20.6141,929.641,0.147832,0.0,0.0
636,158.75,25.1339,31.13,139.232,100.994,100.194,0.00655643,0.256852,20.6101,929.621,0.0768827,0.0,0.0
640,159.75,25.472,30.5795,139.673,101.117,100.227,0.00657413,0.260385,20.6051,929.591,0.0855608,0.0,0.0
644,160.75,26.0291,31.7109,137.249,101.236,98.831,0.00653594,0.263813,20.6012,929.551,0.232501,0.0,0.0
648,161.75,26.4485,32.0193,132.646,101.351,98.8931,0.00651315,0.266747,20.5959,929.491,0.237474,0.0,0.0
652,162.75,26.5124,32.3704,134.917,101.455,98.9557,0.00650498,0.270096,20.5893,929.461,0.241275,0.0,0.0
656,163.75,25.9619,32.2358,133.203,101.557,97.6877,0.00651773,0.274283,20.5806,929.411,0.375716,0.0,0.0
660,164.75,27.18,33.2576,137.1,101.645,98.2212,0.00656687,0.278502,20.5715,929.391,0.331427,0.0,0.0
664,165.75,27.2627,33.8709,134.437,101.721,99.1444,0.00663667,0.282769,20.5634,929.361,0.248122,0.0,0.0
668,166.75,27.9415,34.2553,136.585,101.795,98.0405,0.006748,0.287199,20.5536,929.291,0.363442,0.0,0.0
672,167.75,27.5948,34.1166,128.76,101.837,96.8973,0.00689841,0.291465,20.543,929.261,0.480905,0.0,0.0
676,168.75,28.5808,35.0031,125.296,101.86,97.0885,0.0070782,0.295727,20.5309,929.221,0.464034,0.0,0.0
680,169.75,28.9873,35.3214,130.363,101.889,96.6849,0.0072496,0.30099,20.5185,929.181,0.507059,0.0,0.0
684,170.75,28.6997,36.064,135.366,101.882,96.607,0.00741049,0.306328,20.5072,929.121,0.514166,0.0,0.0
688,171.75,29.8678,36.8856,130.315,101.878,97.5744,0.0075206,0.311412,20.4983,929.081,0.417438,0.0,0.0
692,172.75,30.1234,37.3793,133.694,101.847,96.3333,0.00764891,0.316625,20.4891,929.061,0.538325,0.0,0.0
696,173.75,30.6183,37.911,130.523,101.81,94.931,0.00778602,0.321917,20.4797,929,0.676645,0.0,0.0
700,174.75,30.8935,38.2348,128.251,101.769,95.6797,0.00792169,0.325597,20.4687,928.951,0.596808,0.0,0.0
704,175.75,31.1361,38.9554,132.708,101.72,95.6622,0.00803461,0.331523,20.4537,928.9,0.593863,0.0,0.0
708,176.75,31.6691,39.5159,126.42,101.636,95.7487,0.00812114,0.337841,20.4349,928.82,0.577131,0.0,0.0
712,177.75,32.1594,40.4681,131.179,101.57,94.091,0.00819033,0.345364,20.4142,928.78,0.739825,0.0,0.0
716,178.75,32.7163,41.1586,126.161,101.497,95.2465,0.00825354,0.352804,20.394,928.73,0.614811,0.0,0.0
720,179.75,33.4084,41.6883,129.301,101.413,92.4143,0.00834531,0.360927,20.3733,928.68,0.898768,0.0,0.0
724,180.75,33.8555,42.3242,127.556,101.337,92.286,0.00846321,0.369602,20.3533,928.59,0.904961,0.0,0.0
728,181.75,34.2915,43.3552,126.98,101.263,92.3623,0.0086181,0.379246,20.3367,928.54,0.889832,0.0,0.0
732,182.75,34.743,43.9398,127.331,101.199,90.4505,0.00876996,0.387782,20.3197,928.43,1.08609,0.0,0.0
736,183.75,35.8555,44.4195,124.358,101.134,90.8276,0.00904406,0.398071,20.3008,928.4,1.03963,0.0,0.0
740,184.75,36.967,46.1554,124.314,101.084,88.118,0.00933892,0.408307,20.2782,928.34,1.32771,0.0,0.0
744,185.75,37.2725,47.5192,125.958,101.056,87.1432,0.00965681,0.417212,20.2486,928.27,1.4327,0.0,0.0
748,186.75,37.6396,48.1903,122.071,101.187,86.3921,0.0099649,0.429903,20.2206,928.18,1.52893,0.0,0.0
752,187.75,39.071,48.5729,121.138,101.313,88.466,0.0103167,0.443361,20.1859,928.1,1.31148,0.0,0.0
756,188.75,39.1595,50.1259,117.333,101.422,87.9089,0.0106521,0.457506,20.1548,928,1.38303,0.0,0.0
760,189.75,40.2653,51.7409,120.053,101.503,85.7458,0.0109474,0.471161,20.1203,927.95,1.63167,0.0,0.0
764,190.75,40.7881,52.9677,118.14,101.55,84.7681,0.0111885,0.486527,20.0882,927.859,1.74711,0.0,0.0
768,191.75,42.035,54.1082,121.961,101.588,85.3154,0.0114067,0.500739,20.0577,927.759,1.68849,0.0,0.0
772,192.75,43.0391,54.6522,119.275,101.606,85.9204,0.0115875,0.515349,20.0271,927.649,1.62186,0.0,0.0
776,193.75,43.6106,57.0081,117.124,101.594,85.0755,0.0117447,0.530354,20.0014,927.569,1.71628,0.0,0.0
780,194.75,44.7032,57.9674,110.891,101.565,85.5168,0.011882,0.546252,19.9748,927.479,1.66349,0.0,0.0
784,195.75,44.9203,59.0987,118.112,101.511,84.4222,0.0120151,0.560209,19.944,927.349,1.7829,0.0,0.0
788,196.75,46.2208,60.4991,117.731,101.452,85.235,0.0121638,0.574753,19.9068,927.269,1.68458,0.0,0.0
792,197.75,47.523,62.0475,116.38,101.344,84.7653,0.0123395,0.591586,19.8686,927.139,1.72776,0.0,0.0
796,198.75,48.4689,62.9297,117.89,101.24,84.432,0.0125402,0.610713,19.8325,927.039,1.75599,0.0,0.0
800,199.75,49.559,65.6515,114.825,101.103,85.4336,0.0127613,0.629267,19.8007,926.899,1.62877,0.0,0.0
804,200.75,50.9652,66.6877,111.591,100.956,85.6439,0.0130105,0.647573,19.772,926.829,1.59095,0.0,0.0
808,201.75,52.009,68.6887,112.295,100.801,83.5688,0.0132397,0.664202,19.7437,926.719,1.81335,0.0,0.0
812,202.75,52.182,70.0318,116.605,100.714,81.8653,0.0134586,0.682256,19.7184,926.618,2.00413,0.0,0.0
816,203.75,54.2849,71.659,117.205,100.727,84.0723,0.0136773,0.699714,19.6896,926.528,1.74809,0.0,0.0
820,204.75,54.8274,73.2039,116.024,100.75,83.7048,0.0139007,0.716749,19.6631,926.368,1.79263,0.0,0.0
824,205.75,56.5429,74.7987,109.256,100.778,83.4227,0.0141305,0.735556,19.6314,926.238,1.82802,0.0,0.0
828,206.75,56.4943,76.4213,107.196,100.804,84.4186,0.0143487,0.754787,19.6042,926.168,1.71577,0.0,0.0
832,207.75,59.05,78.794,110.563,100.836,84.0118,0.0146287,0.770145,19.5801,925.988,1.76549,0.0,0.0
836,208.75,59.5573,80.7363,115.097,100.884,82.214,0.0148664,0.789347,19.5565,925.878,1.97938,0.0,0.0
840,209.75,60.7491,82.4164,103.052,100.933,82.5043,0.0150779,0.805921,19.5296,925.738,1.94992,0.0,0.0
844,210.75,62.2377,83.3943,110.819,100.969,82.238,0.0152939,0.822236,19.498,925.638,1.9847,0.0,0.0
848,211.75,63.5552,85.136,111.868,101.005,83.1105,0.0154991,0.839935,19.4706,925.517,1.88608,0.0,0.0
852,212.75,64.5942,86.8486,115.943,101.061,81.2465,0.0157443,0.856942,19.4466,925.387,2.1108,0.0,0.0
856,213.75,65.4114,88.1638,106.514,101.1,81.8766,0.0159303,0.873527,19.4247,925.257,2.0398,0.0,0.0
860,214.75,66.5324,89.6518,102.213,101.14,82.8206,0.0161949,0.888403,19.4028,925.117,1.93278,0.0,0.0
864,215.75,67.8304,91.2096,104.271,101.154,81.3314,0.0164518,0.905557,19.3741,924.977,2.10963,0.0,0.0
868,216.75,68.9433,93.2639,103.459,101.162,81.329,0.0167204,0.923238,19.342,924.887,2.11062,0.0,0.0
872,217.75,70.0644,94.657,107.643,101.174,81.614,0.0170088,0.940914,19.3096,924.677,2.07799,0.0,0.0
876,218.75,70.8157,96.1952,102.359,101.149,80.8523,0.0173092,0.959406,19.2743,924.577,2.16627,0.0,0.0
880,219.75,72.0397,98.1572,102.829,101.118,79.6839,0.0176361,0.977985,19.2381,924.386,2.30408,0.0,0.0
884,220.75,73.7401,99.4826,106.604,101.086,81.7159,0.017946,0.995569,19.2084,924.266,2.05745,0.0,0.0
888,221.75,74.6036,101.919,107.359,101.041,78.7294,0.0183721,1.01515,19.1732,924.146,2.41325,0.0,0.0
892,222.75,75.9274,103.21,99.8964,100.989,80.9469,0.018843,1.03344,19.137,923.976,2.13969,0.0,0.0
896,223.75,76.6462,105.543,94.4069,100.911,79.4216,0.0192855,1.05514,19.0955,923.826,2.31614,0.0,0.0
900,224.75,78.9788,106.931,92.3232,100.829,77.6076,0.0197259,1.0777,19.0484,923.626,2.53178,0.0,0.0
904,225.75,79.7607,109.087,92.1728,100.743,79.7557,0.0201102,1.09992,19.0013,923.526,2.25948,0.0,0.0
908,226.75,80.8435,111.549,101.586,100.656,77.0071,0.0204973,1.12403,18.9554,923.396,2.59027,0.0,0.0
912,227.75,82.0458,113.28,100.9,100.573,75.9771,0.0208064,1.14838,18.9222,923.185,2.71259,0.0,0.0
916,228.75,84.0782,114.819,90.7485,100.462,78.6713,0.0210537,1.1701,18.8917,922.985,2.3648,0.0,0.0
920,229.75,85.4091,117.632,97.8943,100.363,77.0023,0.0213061,1.19003,18.8652,922.845,2.56275,0.0,0.0
924,230.75,86.1967,119.516,105.033,100.263,79.0826,0.0215671,1.21335,18.8367,922.685,2.2952,0.0,0.0
928,231.75,88.3221,121.301,94.9175,100.177,76.6779,0.021817,1.23296,18.7973,922.465,2.58564,0.0,0.0
932,232.75,88.3111,123.24,91.034,100.085,77.5837,0.0220528,1.25853,18.7566,922.325,2.46315,0.0,0.0
936,233.75,90.6799,126.088,100.983,100.009,76.9349,0.0222602,1.28259,18.7212,922.145,2.53703,0.0,0.0
940,234.75,91.9645,127.75,99.1713,99.9298,77.58,0.0224879,1.30493,18.6957,921.924,2.44857,0.0,0.0
944,235.75,92.8379,128.946,92.1209,99.8648,76.9389,0.0228236,1.3241,18.6745,921.764,2.52254,0.0,0.0
948,236.75,94.3674,129.84,86.5536,99.8238,74.7356,0.0232354,1.34502,18.6488,921.594,2.79959,0.0,0.0
952,237.75,95.5272,132.198,86.4421,99.7848,76.7891,0.0236978,1.36496,18.608,921.404,2.53364,0.0,0.0
956,238.75,96.4171,133.814,99.4583,99.7637,75.9471,0.024164,1.38624,18.5535,921.194,2.63823,0.0,0.0
960,239.75,98.6257,135.551,95.316,99.756,75.2829,0.0245887,1.41065,18.4959,921.054,2.72245,0.0,0.0
964,240.75,99.1926,138.215,93.8841,99.7629,77.1119,0.024949,1.4359,18.4458,920.873,2.49094,0.0,0.0
968,241.75,101.07,140.137,100.909,99.7876,77.5873,0.0252265,1.46134,18.4056,920.723,2.43389,0.0,0.0
972,242.75,102.498,142.095,95.7663,99.8238,75.7912,0.0255064,1.48841,18.3706,920.473,2.66394,0.0,0.0
976,243.75,103.633,144.415,103.504,99.8766,76.1704,0.0258065,1.51264,18.3371,920.223,2.62078,0.0,0.0
980,244.75,105.019,145.925,95.1229,99.9354,76.2362,0.0261554,1.53563,18.3033,920.073,2.61813,0.0,0.0
984,245.75,106.353,147.94,90.3089,100.015,74.5829,0.0266313,1.56102,18.2648,919.883,2.83784,0.0,0.0
988,246.75,107.79,149.964,90.4203,100.098,74.7064,0.0270157,1.5863,18.2356,919.682,2.82993,0.0,0.0
992,247.75,108.846,151.673,89.0289,100.198,74.6589,0.0276122,1.60878,18.1913,919.542,2.84569,0.0,0.0
996,248.75,110.456,153.321,86.7444,100.306,75.669,0.0282654,1.63509,18.1548,919.372,2.72617,0.0,0.0
1000,249.75,111.56,155.78,86.004,100.417,75.2821,0.0289437,1.65506,18.1144,919.102,2.78643,0.0,0.0
1004,250.75,113.175,157.827,100.447,100.533,75.4461,0.0295847,1.67937,18.0795,918.922,2.77652,0.0,0.0
1008,251.75,114.207,159.767,98.5538,100.667,75.0373,0.030127,1.70304,18.0392,918.721,2.842,0.0,0.0
1012,252.75,116.029,162.468,84.927,100.774,75.8245,0.0307281,1.73222,18.0015,918.461,2.75131,0.0,0.0
1016,253.75,116.922,164.538,83.8752,100.901,76.4119,0.0312327,1.75773,17.9563,918.261,2.68881,0.0,0.0
1020,254.75,118.654,165.841,81.6778,101.01,76.282,0.0317016,1.78278,17.9136,918.081,2.71577,0.0,0.0
1024,255.75,120.303,169.345,94.0115,101.126,74.345,0.0320219,1.81039,17.874,917.801,2.97562,0.0,0.0
1028,256.75,121.38,171.241,84.089,101.22,73.9049,0.0322562,1.83607,17.8423,917.591,3.04205,0.0,0.0
1032,257.75,122.824,172.361,95.574,101.322,74.1522,0.0323936,1.85615,17.8187,917.43,3.01944,0.0,0.0
1036,258.75,124.048,174.156,108.435,101.402,72.7994,0.0325076,1.87874,17.8002,917.24,3.20515,0.0,0.0
1040,259.75,125.193,175.731,91.5187,101.487,73.4311,0.0326985,1.89938,17.7734,916.97,3.12971,0.0,0.0
1044,260.75,125.046,176.079,89.2785,101.55,72.9439,0.0330589,1.92113,17.7316,916.79,3.20009,0.0,0.0
1048,261.75,127.265,178.421,78.0598,101.627,74.0556,0.0335232,1.94478,17.6854,916.51,3.06112,0.0,0.0
1052,262.75,128.332,180.969,76.589,101.661,74.4806,0.0342351,1.97115,17.6378,916.249,3.00908,0.0,0.0
1056,263.75,129.897,182.983,77.7889,101.697,74.6276,0.0349725,1.99987,17.5821,916.039,2.99341,0.0,0.0
1060,264.75,130.657,184.348,72.0429,101.722,74.3645,0.0357117,2.02799,17.5301,915.839,3.02996,0.0,0.0
1064,265.75,132.931,187.242,71.9185,101.737,74.8391,0.0363635,2.05527,17.4874,915.589,2.96986,0.0,0.0
1068,266.75,134.6,189.621,82.3991,101.738,71.1738,0.0370061,2.08402,17.45,915.359,3.45559,0.0,0.0
1072,267.75,135.825,190.942,80.4268,101.738,73.9752,0.0376092,2.10977,17.4035,915.098,3.0822,0.0,0.0
1076,268.75,136.691,192.592,91.0874,101.726,72.1575,0.0381166,2.13854,17.3489,914.868,3.32174,0.0,0.0
1080,269.75,138.668,195.345,82.6357,101.701,74.2435,0.0386466,2.16991,17.2918,914.628,3.0437,0.0,0.0
1084,270.75,139.756,198.182,70.45,101.683,71.5652,0.0390528,2.20195,17.2484,914.388,3.3973,0.0,0.0
1088,271.75,140.837,200.055,71.614,101.631,72.3751,0.0395417,2.23255,17.1899,914.107,3.28354,0.0,0.0
1092,272.75,143.183,202.219,81.2511,101.579,72.3333,0.0399877,2.25844,17.1409,913.917,3.28415,0.0,0.0
1096,273.75,144.942,204.672,81.4869,101.536,70.5201,0.0403395,2.28563,17.0902,913.687,3.52563,0.0,0.0
1100,274.75,145.723,206.772,83.663,101.482,69.236,0.0409582,2.32043,17.0425,913.347,3.69823,0.0,0.0
1104,275.75,147.464,209.52,71.0728,101.417,72.2022,0.0417281,2.35671,16.9953,913.117,3.28626,0.0,0.0
1108,276.75,148.776,211.084,79.8787,101.352,71.9302,0.0424827,2.39007,16.9443,912.906,3.31657,0.0,0.0
1112,277.75,150.392,214.134,71.2621,101.285,72.324,0.0433475,2.43213,16.8729,912.626,3.25736,0.0,0.0
1116,278.75,152.241,216.948,67.1351,101.233,71.4543,0.0441361,2.46945,16.8168,912.296,3.36948,0.0,0.0
1120,279.75,153.934,219.002,67.9472,101.165,71.4401,0.0448267,2.5052,16.7738,912.106,3.36489,0.0,0.0
1124,280.75,155.41,221.541,80.3886,101.119,69.7138,0.0454153,2.53818,16.7332,911.856,3.59701,0.0,0.0
1128,281.75,156.924,222.71,78.8346,101.05,68.8491,0.045902,2.57075,16.6869,911.555,3.71121,0.0,0.0
1132,282.75,157.855,225.351,79.1842,101.004,72.0613,0.0463663,2.60018,16.6386,911.295,3.26569,0.0,0.0
1136,283.75,159.428,227.991,69.1318,100.966,71.5822,0.0467739,2.6319,16.5887,911.035,3.32659,0.0,0.0
1140,284.75,161.209,229.653,68.8234,100.926,73.1888,0.0472614,2.66661,16.5309,910.715,3.1081,0.0,0.0
1144,285.75,162.53,232.714,71.7575,100.921,70.2761,0.0477247,2.69981,16.4685,910.414,3.50041,0.0,0.0
1148,286.75,164.363,235.598,75.167,101.019,70.3667,0.0481044,2.73745,16.4145,910.184,3.4973,0.0,0.0
1152,287.75,165.597,237.9,64.2575,101.115,73.7141,0.0483727,2.77297,16.3675,909.904,3.05696,0.0,0.0
1156,288.75,166.857,239.963,75.1197,101.187,71.443,0.0485679,2.8043,16.3339,909.704,3.3666,0.0,0.0
1160,289.75,168.836,241.522,87.9076,101.264,70.0098,0.0487846,2.83442,16.3043,909.303,3.56993,0.0,0.0
1164,290.75,169.927,243.195,83.6279,101.331,69.2242,0.0489897,2.86149,16.2842,909.053,3.68543,0.0,0.0
1168,291.75,170.887,244.724,63.8805,101.38,69.7849,0.049392,2.88895,16.246,908.763,3.6121,0.0,0.0
1172,292.75,171.711,247.133,62.115,101.408,69.0789,0.0498163,2.91314,16.2161,908.493,3.7132,0.0,0.0
1176,293.75,172.844,249.225,92.4232,101.438,68.1897,0.0502001,2.93203,16.1934,908.262,3.84129,0.0,0.0
1180,294.75,173.951,250.321,79.7696,101.471,69.0533,0.050507,2.95298,16.1785,907.972,3.72274,0.0,0.0
1184,295.75,175.154,251.342,79.9848,101.474,67.828,0.050728,2.97165,16.1719,907.632,3.89618,0.0,0.0
1188,296.75,175.886,251.571,73.6214,101.465,67.9916,0.0508309,2.98768,16.1685,907.402,3.87202,0.0,0.0
1192,297.75,176.667,253.78,90.086,101.456,69.2441,0.0508984,2.99959,16.1684,907.181,3.69466,0.0,0.0
1196,298.75,178.461,254.066,66.4451,101.435,69.9051,0.0506299,3.00691,16.1746,906.951,3.60072,0.0,0.0
1200,299.75,179.123,255.84,78.1033,101.402,69.497,0.0501058,3.01112,16.1946,906.651,3.65421,0.0,0.0
1204,300.75,178.535,255.456,78.1888,101.361,70.6009,0.0495375,3.00684,16.2413,906.451,3.49783,0.0,0.0
1208,301.75,179.37,256.252,80.639,101.307,69.2003,0.048987,2.99942,16.3041,906.111,3.68653,0.0,0.0
1212,302.75,180.241,256.112,68.3601,101.257,70.4731,0.0484734,2.98563,16.3675,905.85,3.50544,0.0,0.0
1216,303.75,181.057,256.616,85.627,101.192,68.4715,0.0479262,2.96818,16.4362,905.61,3.77799,0.0,0.0
1220,304.75,179.998,255.429,72.7597,101.119,70.534,0.0473831,2.94662,16.4933,905.36,3.48397,0.0,0.0
1224,305.75,180.34,255.338,73.5016,101.028,69.3801,0.0465581,2.92099,16.5512,905.19,3.6348,0.0,0.0
1228,306.75,180.501,255.161,72.9581,100.95,69.8507,0.045698,2.89603,16.6141,904.919,3.56191,0.0,0.0
1232,307.75,181.114,254.726,82.6647,100.832,70.998,0.0445245,2.86521,16.6956,904.689,3.39305,0.0,0.0
1236,308.75,180.811,252.94,78.8773,100.724,70.6541,0.0432976,2.82445,16.7913,904.449,3.42964,0.0,0.0
1240,309.75,180.728,252.334,79.3963,100.605,73.8919,0.042054,2.78108,16.9103,904.229,2.98483,0.0,0.0
1244,310.75,179.329,251.801,69.4837,100.582,69.4106,0.0409225,2.73129,17.0449,904.089,3.5877,0.0,0.0
1248,311.75,178.979,249.65,80.7809,100.606,69.5397,0.0400584,2.68241,17.1542,903.789,3.57207,0.0,0.0
1252,312.75,178.423,247.827,94.7115,100.606,70.0528,0.0390159,2.62727,17.2556,903.628,3.50091,0.0,0.0
1256,313.75,177.856,245.797,82.0182,100.614,72.8944,0.0380524,2.57588,17.3639,903.448,3.11711,0.0,0.0
1260,314.75,176.296,243.746,96.1472,100.631,72.6573,0.0369606,2.51685,17.4791,903.278,3.1503,0.0,0.0
1264,315.75,175.218,241.091,83.8737,100.657,75.6194,0.0357675,2.45609,17.617,903.108,2.76623,0.0,0.0
1268,316.75,173.842,238.979,93.0574,100.689,74.5346,0.0345978,2.38814,17.7595,902.948,2.90907,0.0,0.0
1272,317.75,172.634,236.068,91.8484,100.704,74.4364,0.0332124,2.31676,17.894,902.798,2.92335,0.0,0.0
1276,318.75,171.361,233.097,83.4844,100.721,74.3787,0.0319356,2.24949,18.0061,902.688,2.93244,0.0,0.0
1280,319.75,169.893,229.759,82.3891,100.745,75.7218,0.0306536,2.17914,18.111,902.497,2.76169,0.0,0.0
1284,320.75,167.696,227.073,96.4975,100.77,78.5605,0.0294557,2.11204,18.2029,902.347,2.40807,0.0,0.0
1288,321.75,166.732,223.264,93.9161,100.788,75.2634,0.0282407,2.04496,18.3088,902.227,2.82447,0.0,0.0
1292,322.75,164.544,220.116,97.3142,100.817,74.5882,0.0270962,1.97502,18.4259,902.087,2.9144,0.0,0.0
1296,323.75,162.81,216.755,95.8922,100.833,78.0757,0.0260656,1.92217,18.5518,901.967,2.47397,0.0,0.0
1300,324.75,160.88,213.789,100.495,100.856,78.206,0.0251432,1.8449,18.6843,901.857,2.4601,0.0,0.0
1304,325.75,159.283,209.583,103.346,100.874,79.2381,0.024347,1.77879,18.8028,901.747,2.33497,0.0,0.0
1308,326.75,157.262,206.16,102.409,100.894,78.4923,0.0236486,1.7138,18.9116,901.647,2.42834,0.0,0.0
1312,327.75,155.416,202.413,107.173,100.918,79.2933,0.0231154,1.65219,19.0014,901.557,2.33248,0.0,0.0
1316,328.75,153.358,199.171,103.385,100.956,76.3876,0.0226738,1.589,19.0895,901.416,2.69723,0.0,0.0
1320,329.75,151.41,195.715,104.176,100.953,75.6499,0.0223081,1.52787,19.1962,901.376,2.79081,0.0,0.0
1324,330.75,149.635,191.006,109.146,100.975,73.7393,0.0218568,1.46653,19.2922,901.216,3.04033,0.0,0.0
1328,331.75,147.329,187.792,103.564,100.975,78.5966,0.0212992,1.40519,19.3859,901.176,2.42332,0.0,0.0
1332,332.75,144.803,183.295,112.451,100.99,74.9142,0.0206962,1.3463,19.4613,901.076,2.88887,0.0,0.0
1336,333.75,142.702,180.229,110.289,100.982,73.324,0.0199216,1.29164,19.5386,900.986,3.09558,0.0,0.0
1340,334.75,140.441,176.894,115.002,100.981,77.5776,0.0191104,1.23944,19.6202,900.946,2.55005,0.0,0.0
1344,335.75,137.335,172.437,114.793,100.973,80.6384,0.0183381,1.18953,19.7037,900.876,2.17503,0.0,0.0
1348,336.75,135.862,169.399,111.566,100.963,79.7403,0.0176186,1.13495,19.7912,900.796,2.28242,0.0,0.0
1352,337.75,133.528,165.213,119.312,100.94,78.1602,0.0168993,1.0824,19.8723,900.766,2.47379,0.0,0.0
1356,338.75,131.784,162.493,118.75,100.925,76.8058,0.0163045,1.03338,19.9427,900.726,2.64142,0.0,0.0
1360,339.75,129.157,158.325,111.702,100.895,77.1549,0.0155101,0.98761,19.9995,900.686,2.59468,0.0,0.0
1364,340.75,127.409,155.451,116.149,100.873,79.7509,0.0146682,0.943449,20.051,900.656,2.2725,0.0,0.0
1368,341.75,125.247,151.639,116.805,100.834,81.0249,0.0137976,0.905354,20.0991,900.596,2.11544,0.0,0.0
1372,342.75,123.846,148.782,118.184,100.793,81.0777,0.0131076,0.868463,20.1454,900.536,2.10528,0.0,0.0
1376,343.75,121.475,144.68,121.7,100.773,83.7069,0.0122888,0.82897,20.1957,900.486,1.79462,0.0,0.0
1380,344.75,118.924,142.264,120.698,100.713,81.9631,0.0115392,0.789071,20.2447,900.456,1.9925,0.0,0.0
1384,345.75,117.079,139.434,126.848,100.658,88.5532,0.0108265,0.754323,20.3017,900.446,1.23925,0.0,0.0
1388,346.75,115.107,135.844,124.045,100.606,91.2965,0.0101854,0.720828,20.367,900.406,0.93917,0.0,0.0
1392,347.75,113.728,132.939,129.363,100.55,93.3172,0.00957839,0.683597,20.4361,900.436,0.722046,0.0,0.0
1396,348.75,111.305,129.551,130.342,100.485,94.9014,0.0090299,0.649663,20.4949,900.416,0.552935,0.0,0.0
1400,349.75,109.573,126.218,128.1,100.423,95.4836,0.00854649,0.617233,20.5507,900.406,0.487878,0.0,0.0
1404,350.75,107.113,123.449,128.384,100.364,95.8409,0.00804401,0.582649,20.5984,900.436,0.446005,0.0,0.0
1408,351.75,105.436,120.074,131.658,100.293,96.0662,0.00776917,0.548644,20.6372,900.416,0.416442,0.0,0.0
1412,352.75,103.207,117.234,131.72,100.224,95.6716,0.00741513,0.518643,20.672,900.396,0.449597,0.0,0.0
1416,353.75,101.583,114.175,130.484,100.176,96.3849,0.00711903,0.483436,20.699,900.396,0.373124,0.0,0.0
1420,354.75,99.4824,111.943,133.964,100.117,96.3471,0.00684185,0.462483,20.7238,900.406,0.371227,0.0,0.0
1424,355.75,97.8101,109.517,128.861,100.06,97.6565,0.00660846,0.437839,20.7466,900.436,0.235217,0.0,0.0
1428,356.75,96.5945,106.981,129.143,100.004,97.2379,0.00642359,0.415499,20.7674,900.426,0.271267,0.0,0.0
1432,357.75,94.9979,104.529,129.24,99.9578,98.1554,0.00626295,0.392868,20.7866,900.426,0.175989,0.0,0.0
1436,358.75,93.0275,101.615,132.107,99.9119,97.6954,0.00612898,0.373162,20.8021,900.416,0.216983,0.0,0.0
1440,359.75,91.2405,99.6299,129.102,99.8449,97.3808,0.00602695,0.35457,20.8161,900.416,0.241696,0.0,0.0
1444,360.75,89.8563,97.622,129.08,99.8088,96.9862,0.00591365,0.337399,20.8271,900.406,0.277469,0.0,0.0
1448,361.75,88.0114,94.9536,136.951,99.7702,97.5996,0.00578576,0.321695,20.8364,900.436,0.212745,0.0,0.0
1452,362.75,87.1973,93.1928,130.393,99.7397,97.0645,0.00563626,0.30743,20.8438,900.426,0.262967,0.0,0.0
1456,363.75,85.561,91.1778,128.669,99.702,96.7929,0.00549458,0.294245,20.8516,900.426,0.286408,0.0,0.0
1460,364.75,84.1828,89.3003,131.051,99.6577,97.1242,0.0053716,0.282271,20.8578,900.436,0.249066,0.0,0.0
1464,365.75,83.1589,87.4426,137.446,99.6285,97.4145,0.00528661,0.270499,20.8631,900.436,0.217363,0.0,0.0
1468,366.75,82.182,86.0587,131.517,99.6139,97.6695,0.00521737,0.259718,20.8667,900.426,0.190661,0.0,0.0
1472,367.75,81.0283,84.628,129.615,99.5932,98.2504,0.0051932,0.250216,20.8694,900.446,0.131288,0.0,0.0
1476,368.75,79.5956,82.8478,133.436,99.5773,97.4129,0.00519051,0.241798,20.8718,900.446,0.212556,0.0,0.0
1480,369.75,78.8689,80.8394,129.489,99.5574,97.5647,0.00518236,0.233725,20.8744,900.446,0.19556,0.0,0.0
1484,370.75,78.4043,80.0253,130.303,99.5647,98.2752,0.00514957,0.226522,20.8775,900.436,0.126089,0.0,0.0
1488,371.75,76.2948,77.8187,136.602,99.5619,97.2614,0.00510614,0.219279,20.88,900.436,0.226105,0.0,0.0
1492,372.75,76.0818,77.3196,133.561,99.5534,97.2484,0.00505852,0.212463,20.8825,900.436,0.226568,0.0,0.0
1496,373.75,75.7749,76.3777,131.137,99.5619,97.6739,0.00502728,0.206066,20.8841,900.426,0.185172,0.0,0.0
1500,374.75,74.8397,74.9995,134.243,99.5826,97.9204,0.00498024,0.200581,20.8856,900.416,0.162811,0.0,0.0
1504,375.75,73.7933,73.6804,132.11,99.6126,98.6881,0.0049104,0.195679,20.8869,900.436,0.0901905,0.0,0.0
1508,376.75,73.3813,72.1525,133.626,99.6265,96.7884,0.0048295,0.191215,20.8882,900.416,0.279525,0.0,0.0
1512,377.75,72.3427,71.1271,135.833,99.6545,97.7576,0.00475692,0.187135,20.8894,900.436,0.185883,0.0,0.0
1516,378.75,71.9732,69.8453,131.075,99.6857,97.0255,0.00470244,0.182864,20.8907,900.436,0.261614,0.0,0.0
1520,379.75,70.6685,69.2679,130.661,99.7259,97.3276,0.0046707,0.178857,20.8918,900.446,0.235448,0.0,0.0
1524,380.75,70.3087,68.3816,135.152,99.7718,98.2184,0.00465389,0.174768,20.8926,900.456,0.15178,0.0,0.0
1528,381.75,69.9738,67.7546,135.275,99.7994,97.1936,0.00465427,0.171398,20.8931,900.456,0.255898,0.0,0.0
1532,382.75,68.926,66.0713,139.473,99.8579,99.2878,0.00465982,0.168217,20.8937,900.456,0.0553814,0.0,0.0
1536,383.75,68.7879,65.779,134.341,99.9245,98.6097,0.00467265,0.16521,20.8944,900.436,0.128103,0.0,0.0
1540,384.75,67.9242,64.9882,130.647,99.9728,97.6333,0.00469866,0.162399,20.8954,900.446,0.229028,0.0,0.0
1544,385.75,67.1817,64.0443,132.631,100.032,98.1822,0.00472484,0.159827,20.896,900.466,0.180536,0.0,0.0
1548,386.75,66.6225,63.379,132.953,100.096,98.8533,0.00474167,0.158015,20.8964,900.456,0.120811,0.0,0.0
1552,387.75,65.9939,62.8088,135.852,100.149,99.0352,0.00474637,0.15563,20.8967,900.436,0.108207,0.0,0.0
1556,388.75,65.1897,61.5824,134.384,100.212,98.8395,0.00473298,0.153231,20.8969,900.446,0.133415,0.0,0.0
1560,389.75,64.9269,61.0093,132.348,100.264,98.1558,0.00472068,0.151227,20.897,900.466,0.205566,0.0,0.0
1564,390.75,64.7201,60.5743,139.658,100.324,98.8919,0.004708,0.149394,20.8971,900.466,0.139061,0.0,0.0
1568,391.75,63.6879,59.8805,134.306,100.401,99.3381,0.00469402,0.147519,20.8972,900.456,0.102954,0.0,0.0
1572,392.75,63.5777,59.3603,135.407,100.463,99.3369,0.00468154,0.146215,20.8972,900.446,0.109017,0.0,0.0
1576,393.75,63.1705,58.8671,133.05,100.529,99.7985,0.00466951,0.144455,20.8973,900.436,0.0705836,0.0,0.0
1580,394.75,62.7768,57.9225,134.787,100.594,99.2967,0.00466003,0.142864,20.8973,900.436,0.12551,0.0,0.0
1584,395.75,62.3914,57.3496,134.971,100.662,98.5769,0.00463261,0.141426,20.8977,900.426,0.202477,0.0,0.0
1588,396.75,61.7673,56.8201,138.205,100.721,100.122,0.0045842,0.140116,20.8984,900.446,0.0576946,0.0,0.0
1592,397.75,60.6534,55.8777,133.62,100.797,99.5411,0.00452989,0.138743,20.8988,900.446,0.12131,0.0,0.0
1596,398.75,61.0529,55.7015,137.93,100.858,100.125,0.00448469,0.137494,20.8991,900.456,0.0705115,0.0,0.0
1600,399.75,60.4221,55.2298,134.471,100.916,100.326,0.00446067,0.136371,20.8993,900.456,0.0567616,0.0,0.0
1604,400.75,60.5466,55.2288,135.642,100.973,98.9617,0.00445564,0.135157,20.8994,900.456,0.194624,0.0,0.0
1608,401.75,59.2887,53.8149,134.846,101.043,99.9921,0.00446058,0.134112,20.8995,900.466,0.101163,0.0,0.0
1612,402.75,59.3198,54.197,133.438,101.099,99.2126,0.00447812,0.133075,20.8995,900.446,0.182143,0.0,0.0
1616,403.75,59.2218,53.1853,135.944,101.146,100.302,0.00450756,0.13207,20.8996,900.456,0.0810341,0.0,0.0
1620,404.75,58.8096,52.9231,131.588,101.19,101.435,0.00455826,0.131095,20.8996,900.456,-0.023313,0.0,0.0
1624,405.75,58.0412,51.6821,137.033,101.24,100.334,0.00462334,0.130205,20.8996,900.456,0.0869059,0.0,0.0
1628,406.75,57.8311,52.6307,132.393,101.278,101.766,0.00470821,0.129414,20.8996,900.466,-0.0464333,0.0,0.0
1632,407.75,57.1554,51.1999,137.021,101.317,100.013,0.00480479,0.128645,20.8996,900.456,0.125241,0.0,0.0
1636,408.75,57.0106,51.8687,135.634,101.348,101.012,0.00488196,0.127869,20.8996,900.446,0.0321568,0.0,0.0
1640,409.75,57.2909,51.3601,136.362,101.385,101.381,0.00494403,0.127072,20.8996,900.456,0.000409308,0.0,0.0
1644,410.75,56.4547,50.7857,134.381,101.409,100.551,0.00497895,0.126407,20.8996,900.446,0.08223,0.0,0.0
1648,411.75,56.671,50.3871,136.835,101.444,100.928,0.00499548,0.125747,20.8996,900.436,0.049308,0.0,0.0
1652,412.75,55.8914,50.2163,132.349,101.463,101.258,0.00500498,0.125058,20.8996,900.436,0.019587,0.0,0.0
1656,413.75,55.8339,49.5514,136.248,101.491,101.711,0.00500686,0.1244,20.8995,900.436,-0.0209647,0.0,0.0
1660,414.75,55.622,49.5002,133.89,101.515,100.276,0.00498399,0.123856,20.8993,900.446,0.118729,0.0,0.0
1664,415.75,55.4649,49.4934,135.352,101.523,101.2,0.00495592,0.123149,20.8991,900.446,0.0307835,0.0,0.0
1668,416.75,55.0668,49.1056,138.648,101.533,101.161,0.00485672,0.12266,20.899,900.436,0.0354372,0.0,0.0
1672,417.75,55.1298,48.5965,135.214,101.542,101.339,0.00474007,0.122261,20.8989,900.446,0.0193787,0.0,0.0
1676,418.75,54.3276,48.581,134.857,101.552,101.589,0.00464338,0.121826,20.8995,900.446,-0.00353461,0.0,0.0
1680,419.75,54.3459,48.1748,136.254,101.562,102.342,0.0045764,0.121354,20.8996,900.446,-0.0740834,0.0,0.0
1684,420.75,54.3268,47.7318,134.809,101.554,102.002,0.00453573,0.120827,20.8994,900.456,-0.0425343,0.0,0.0
1688,421.75,53.4977,47.7502,136.078,101.561,101.738,0.00448752,0.120311,20.8994,900.436,-0.0168589,0.0,0.0
1692,422.75,53.704,47.1371,135.652,101.552,101.628,0.00444522,0.119844,20.9,900.436,-0.0072055,0.0,0.0
1696,423.75,53.309,46.9107,137.705,101.551,100.886,0.00439842,0.119492,20.9003,900.436,0.0635703,0.0,0.0
1700,424.75,52.8862,46.7163,135.202,101.551,100.709,0.00436323,0.118992,20.9006,900.456,0.0804784,0.0,0.0
1704,425.75,52.8062,46.3756,136.574,101.532,101.166,0.00435358,0.118546,20.9008,900.436,0.0348547,0.0,0.0
1708,426.75,52.7067,45.6219,138.304,101.526,101.73,0.00438308,0.11814,20.9009,900.436,-0.0194517,0.0,0.0
1712,427.75,52.1053,45.6517,134.596,101.518,102.418,0.00445397,0.117765,20.9009,900.436,-0.085356,0.0,0.0
1716,428.75,51.9896,46.1533,138.677,101.494,102.133,0.00454309,0.117431,20.901,900.446,-0.0607236,0.0,0.0
1720,429.75,51.7184,45.253,138.881,101.487,101.172,0.004609,0.117071,20.901,900.436,0.0300168,0.0,0.0
1724,430.75,51.7188,45.3837,136.039,101.465,102.229,0.00464835,0.116743,20.901,900.436,-0.0725022,0.0,0.0
1728,431.75,51.2783,45.124,139.239,101.462,101.508,0.00465375,0.116457,20.901,900.436,-0.00435011,0.0,0.0
1732,432.75,51.0233,44.9177,135.073,101.428,101.854,0.00464209,0.11618,20.901,900.446,-0.0405832,0.0,0.0
1736,433.75,50.411,43.6742,138.884,101.413,101.996,0.00461209,0.115801,20.9011,900.446,-0.0554226,0.0,0.0
1740,434.75,50.649,44.8157,139.957,101.371,102.157,0.00456856,0.115477,20.9011,900.446,-0.0746847,0.0,0.0
1744,435.75,50.2547,44.1984,136.776,101.341,102.109,0.00449794,0.115169,20.9014,900.456,-0.0730145,0.0,0.0
1748,436.75,50.2337,44.3297,134.759,101.324,102.358,0.00441753,0.114872,20.9017,900.466,-0.0982654,0.0,0.0
1752,437.75,49.3044,42.6547,134.206,101.291,102.131,0.00432897,0.114621,20.9019,900.456,-0.0799358,0.0,0.0
1756,438.75,49.454,42.9379,140.612,101.256,102.29,0.00427534,0.114383,20.902,900.456,-0.0982922,0.0,0.0
1760,439.75,49.3911,43.0063,137.357,101.223,101.916,0.0042525,0.114167,20.9027,900.456,-0.0659746,0.0,0.0
1764,440.75,49.7486,42.9655,136.808,101.19,101.798,0.00426545,0.113942,20.9034,900.456,-0.0578993,0.0,0.0
1768,441.75,48.6455,42.4241,137.366,101.166,101.726,0.00430041,0.11371,20.9038,900.456,-0.0533975,0.0,0.0
1772,442.75,48.8819,42.1893,137.039,101.116,102.412,0.00436577,0.113473,20.904,900.456,-0.123192,0.0,0.0
1776,443.75,48.6546,42.3053,130.772,101.097,100.814,0.00443772,0.113253,20.9042,900.456,0.0271313,0.0,0.0
1780,444.75,48.2098,42.5067,133.103,101.057,101.698,0.00453262,0.113031,20.9043,900.456,-0.0611424,0.0,0.0
1784,445.75,47.7136,41.7424,138.307,101.027,102.011,0.00461508,0.112868,20.9038,900.436,-0.0937046,0.0,0.0
1788,446.75,48.577,42.0436,136.432,101.002,101.603,0.00466245,0.112605,20.9033,900.446,-0.0573901,0.0,0.0
1792,447.75,48.1724,41.6122,136.311,100.962,102.861,0.00466886,0.112349,20.9035,900.436,-0.1802,0.0,0.0
1796,448.75,47.8852,41.8378,139.236,100.941,102.045,0.00463494,0.112141,20.9039,900.436,-0.10526,0.0,0.0
1800,449.75,47.6136,41.1915,138.177,100.891,102.283,0.00456787,0.11198,20.9041,900.446,-0.13253,0.0,0.0
1804,450.75,47.0786,41.5847,138.178,100.876,100.794,0.00449788,0.11187,20.9043,900.446,0.00788564,0.0,0.0
1808,451.75,47.6367,40.9563,132.371,100.855,102.448,0.0044334,0.111766,20.9044,900.456,-0.151492,0.0,0.0
1812,452.75,46.414,40.7125,136.592,100.837,102.055,0.00440051,0.111592,20.9044,900.466,-0.116109,0.0,0.0
1816,453.75,46.7542,40.5815,135.826,100.8,102.191,0.00438365,0.111404,20.9045,900.476,-0.132574,0.0,0.0
1820,454.75,46.5694,40.6869,138.814,100.783,101.859,0.00436224,0.111206,20.9045,900.466,-0.102726,0.0,0.0
1824,455.75,46.4806,40.5379,136.24,100.767,102.258,0.00432618,0.111057,20.9045,900.466,-0.142068,0.0,0.0
1828,456.75,46.1894,40.7363,132.355,100.743,101.923,0.00429141,0.110953,20.9045,900.466,-0.112596,0.0,0.0
1832,457.75,46.1902,39.9902,137.014,100.731,102.722,0.0042507,0.110847,20.9045,900.466,-0.189291,0.0,0.0
1836,458.75,45.966,39.6787,136.811,100.714,102.683,0.00421814,0.110727,20.9044,900.456,-0.187221,0.0,0.0
1840,459.75,45.8824,40.1075,139.874,100.761,101.667,0.00418867,0.110652,20.9039,900.466,-0.0865397,0.0,0.0
1844,460.75,45.5986,39.5992,136.721,100.816,102.077,0.00420154,0.110614,20.903,900.466,-0.12029,0.0,0.0
1848,461.75,45.4114,40.0518,138.817,100.874,101.893,0.00426914,0.110549,20.9024,900.466,-0.0972783,0.0,0.0
1852,462.75,45.4964,39.2598,133.879,100.913,101.128,0.00435984,0.110477,20.902,900.476,-0.020584,0.0,0.0
1856,463.75,45.3141,39.4032,136.236,100.947,102.651,0.0044591,0.110386,20.9018,900.466,-0.161919,0.0,0.0
1860,464.75,44.5653,38.9408,139.631,100.998,102.801,0.00453998,0.110276,20.9016,900.456,-0.171125,0.0,0.0
1864,465.75,44.6273,38.6202,135.207,101.005,102.83,0.00458489,0.110174,20.9014,900.446,-0.173137,0.0,0.0
1868,466.75,44.2231,39.0274,135.925,101.031,102.999,0.00460184,0.110129,20.9011,900.456,-0.186637,0.0,0.0
1872,467.75,44.4827,39.3571,135.258,101.042,101.796,0.00462086,0.110122,20.9008,900.456,-0.0718436,0.0,0.0
1876,468.75,44.098,38.8878,138.72,101.071,102.388,,0.11014,,900.466,-0.125164,0.0,0.0
1880,469.75,44.6867,39.1569,141.544,101.104,102.757,,0.109979,,900.466,-0.156818,0.0,0.0
1884,470.75,43.3966,37.6406,138.718,101.123,103.046,,0.109898,,900.456,-0.182239,0.0,0.0
1888,471.75,44.009,38.6832,138.91,101.139,102.265,,,,900.466,-0.107051,0.0,0.0
1892,472.75,43.6995,38.0686,136.867,101.154,102.321,,,,900.456,-0.11091,0.0,0.0
1896,473.75,43.9525,38.4507,139.46,101.18,103.27,,,,900.476,-0.197739,0.0,0.0
1900,474.75,43.2929,38.1153,136.878,101.186,101.859,,,,900.466,-0.0641092,0.0,0.0
1904,475.75,43.4938,37.8676,135.491,101.198,103.113,,,,900.456,-0.181381,0.0,0.0
1908,476.75,42.6612,37.3118,135.602,101.216,102.502,,,,900.436,-0.122151,0.0,0.0
1912,477.75,43.5304,37.946,137.788,101.224,103.892,,,,900.436,-0.251629,0.0,0.0
1916,478.75,43.1247,38.1581,142.04,101.24,103.147,,,,900.466,-0.180468,0.0,0.0
1917,479,43.0428,37.4579,134.625,101.238,103.091,,,,900.486,-0.175447,0.0,0.0