File: 01_Data/LDPE/Cone/LDPE_Cone_HF50Scan_220202_R1.csv
Names,Time,Stack TC,Smoke TC,Exh Press,Smoke Comp,Smoke Meas,CO Meter,CO2 Meter,O2 Meter,Sample Mass,Ext Coeff,Start Test,Flame Verif
Chan Gain,,500,500,1,1,1,1,1,1,1,1,1.0,1.0
Offset,,0,0,0.14021,0,0,0,0,0,0,0,0.0,0.0
Gain,,1,1,25.011,13.3046,13.3037,1,1,1,1.00087,1.10262,1.0,1.0
Units,sec,C,C,Pa,%,%,%,%,%,g,/m,,
Baseline,,29.4136,31.6827,138.593,100.433,101.316,0.00481575,0.102945,20.9074,-0.395929,-0.0845501,,
3,0.5,25.8298,27.2999,138.111,100.462,100.984,0.00463084,0.111189,20.8985,897.403,-0.0501211,0.0,0.0
6,1.25,25.8821,27.5439,139.068,100.445,101.851,0.00455439,0.110798,20.8991,897.533,-0.134469,0.0,0.0
9,2,26.355,26.8555,135.883,100.43,101.792,0.00447573,0.110459,20.8996,897.443,-0.130323,0.0,0.0
12,2.75,26.1121,27.58,139.539,100.419,101,0.00442085,0.11016,20.8999,897.523,-0.0557427,0.0,0.0
15,3.5,26.346,27.0591,141.152,100.397,101.797,0.00438191,0.109892,20.9001,897.453,-0.133915,0.0,0.0
18,4.25,26.717,27.615,141.992,100.375,102.169,0.00438527,0.109684,20.9009,897.483,-0.171375,0.0,0.0
21,5,26.2407,27.5818,139.033,100.368,102.208,0.00441867,0.109504,20.9015,913.287,-0.17573,0.0,0.0
24,5.75,26.768,27.9763,138.713,100.354,101.982,0.00445621,0.109336,20.9019,931.012,-0.155559,0.0,0.0
27,6.5,26.4318,27.7682,140.187,100.327,101.361,0.00448358,0.109105,20.9022,938.549,-0.0992048,0.0,0.0
30,7.25,26.6635,28.1022,137.762,100.301,101.297,0.00453202,0.108861,20.9025,949.268,-0.0955856,0.0,0.0
33,8,26.5061,27.9661,139.611,100.305,101.947,0.00457297,0.108633,20.9028,954.783,-0.156983,0.0,0.0
36,8.75,26.3521,27.7338,138.203,100.333,101.809,0.00459166,0.108468,20.903,957.956,-0.141216,0.0,0.0
39,9.5,27.1608,28.0493,140.218,100.329,101.368,0.00457768,0.108279,20.9031,958.636,-0.0996679,0.0,0.0
42,10.25,27.4084,28.4639,136.063,100.32,100.707,0.00455372,0.108112,20.9032,960.258,-0.0372555,0.0,0.0
45,11,26.2576,27.6929,136.583,100.319,101.769,0.00451962,0.107854,20.9033,961.319,-0.138805,0.0,0.0
48,11.75,27.0434,28.499,141.229,100.335,101.209,0.00448919,0.107556,20.9033,961.909,-0.0838829,0.0,0.0
51,12.5,26.8701,28.5778,132.658,100.347,101.942,0.00447444,0.107372,20.9034,962.33,-0.152566,0.0,0.0
54,13.25,26.6626,28.408,137.785,100.33,102.339,0.00446685,0.107139,20.9034,963.12,-0.191732,0.0,0.0
57,14,27.2664,29.1437,137.956,100.334,101.714,0.00448154,0.106969,20.9034,963.03,-0.132108,0.0,0.0
60,14.75,26.8739,29.063,138.453,100.355,102.064,0.00450242,0.10681,20.9035,962.199,-0.163295,0.0,0.0
63,15.5,27.2769,28.4678,142.876,100.357,102.191,0.00452433,0.106632,20.9035,960.928,-0.175173,0.0,0.0
66,16.25,27.2298,28.9204,140.02,100.349,101.836,0.00453535,0.106463,20.9037,959.417,-0.142273,0.0,0.0
69,17,27.7457,29.7238,138.949,100.358,102.205,0.00453632,0.106377,20.9043,958.166,-0.1764,0.0,0.0
72,17.75,26.9864,28.7765,136.244,100.363,102.674,0.00453491,0.106219,20.9047,956.364,-0.220205,0.0,0.0
75,18.5,27.2153,29.3859,137.745,100.377,101.448,0.00452682,0.10609,20.905,954.283,-0.10264,0.0,0.0
78,19.25,26.989,28.9714,141.351,100.366,102.655,0.00452464,0.105971,20.905,951.32,-0.218094,0.0,0.0
81,20,27.5514,29.124,137.112,100.368,102.162,0.00452463,0.105845,20.9046,947.947,-0.171348,0.0,0.0
84,20.75,27.4267,29.0976,138.283,100.389,102.032,0.00453825,0.105726,20.9043,943.613,-0.156967,0.0,0.0
87,21.5,27.896,29.6097,137.334,100.403,101.219,0.00455724,0.105635,20.9041,939.43,-0.0783571,0.0,0.0
90,22.25,27.608,29.3838,138.517,100.391,101.059,0.00457666,0.105581,20.9039,934.285,-0.0641551,0.0,0.0
93,23,27.3553,29.7932,134.083,100.394,102.452,0.00458022,0.105528,20.9034,929.581,-0.19625,0.0,0.0
96,23.75,27.0647,29.5497,136.808,100.4,102.425,0.00457662,0.105483,20.9028,924.176,-0.193173,0.0,0.0
99,24.5,27.263,29.3954,139.186,100.432,101.779,0.00457331,0.105529,20.9024,919.532,-0.128931,0.0,0.0
102,25.25,27.6342,29.5888,137.891,100.423,101.92,0.00457424,0.105576,20.902,914.448,-0.143054,0.0,0.0
105,26,27.6368,29.5344,136.116,100.423,102.118,0.00458359,0.105635,20.9016,910.194,-0.161954,0.0,0.0
108,26.75,27.5988,29.8767,138.398,100.432,101.449,0.00459411,0.105737,20.9009,905.61,-0.0974745,0.0,0.0
111,27.5,27.7327,29.3398,141.914,100.449,101.867,0.00461168,0.105838,20.9003,901.837,-0.135581,0.0,0.0
114,28.25,27.6932,30.0507,137.218,100.459,102.267,0.00463328,0.105945,20.9,898.003,-0.172577,0.0,0.0
117,29,27.8,30.0517,139.742,100.454,101.662,0.00465684,0.10606,20.8994,895.271,-0.115586,0.0,0.0
120,29.75,28.3286,29.9064,141.597,100.462,102.72,0.00467401,0.106226,20.8987,892.769,-0.214944,0.0,0.0
123,30.5,27.7907,29.8277,143.113,100.485,102.225,0.00470952,0.106381,20.8977,890.917,-0.166004,0.0,0.0
126,31.25,27.6349,29.7862,136.568,100.498,102.135,0.00474904,0.106577,20.8968,889.246,-0.156299,0.0,0.0
129,32,27.7535,29.6957,140.406,100.491,101.538,0.00479477,0.106754,20.8961,888.175,-0.100201,0.0,0.0
132,32.75,28.0344,29.9673,139.937,100.499,101.728,0.00486212,0.106965,20.8956,887.704,-0.117541,0.0,0.0
135,33.5,27.871,29.9002,140.506,100.526,101.717,0.00493692,0.107183,20.8953,887.394,-0.113881,0.0,0.0
138,34.25,27.8853,29.8711,134.82,100.534,100.484,0.005015,0.107391,20.895,887.114,0.00478263,0.0,0.0
141,35,28.1994,29.6614,138.839,100.536,102.008,0.00511218,0.107659,20.8936,887.494,-0.140547,0.0,0.0
144,35.75,28.1955,30.1083,136.839,100.552,101.584,0.00523449,0.107924,20.8925,895.912,-0.0987494,0.0,0.0
147,36.5,28.3731,30.1071,139.023,100.578,101.486,0.00534529,0.108195,20.8918,897.293,-0.0868916,0.0,0.0
150,37.25,28.2446,30.4716,137.497,100.601,100.833,0.00546304,0.10848,20.8906,897.353,-0.022207,0.0,0.0
153,38,27.565,30.3865,139.054,100.601,101.744,0.00558623,0.108892,20.8889,897.363,-0.109244,0.0,0.0
156,38.75,27.732,30.4571,139.287,100.62,100.865,0.00568653,0.10928,20.8872,897.333,-0.0234881,0.0,0.0
159,39.5,27.9845,29.9909,139.247,100.637,101.147,0.00577761,0.11009,20.8836,897.333,-0.0488683,0.0,0.0
162,40.25,28.0635,30.4197,138.076,100.657,101.166,0.00584935,0.111407,20.8783,897.353,-0.0487808,0.0,1.0
165,41,28.2003,30.4545,135,100.661,101.08,0.00590165,0.112677,20.8733,897.333,-0.0401588,0.0,1.0
168,41.75,28.4377,30.5638,137.312,100.68,102.233,0.00593087,0.115131,20.8671,897.313,-0.148031,0.0,1.0
171,42.5,28.5832,30.7761,136.811,100.703,101.048,0.0059422,0.11805,20.8596,897.383,-0.0330705,0.0,1.0
174,43.25,29.0723,30.7467,139.458,100.734,101.707,0.00594621,0.12066,20.851,897.303,-0.0930137,0.0,1.0
177,44,29.1653,31.0568,141.43,100.737,100.194,0.00594023,0.124015,20.8403,897.293,0.0523154,0.0,1.0
180,44.75,29.169,31.235,135.757,100.745,101.864,0.00593837,0.127906,20.8305,897.243,-0.106775,0.0,1.0
183,45.5,28.1528,30.781,133.515,100.764,100.703,0.00594201,0.132156,20.8198,897.283,0.00582553,0.0,1.0
186,46.25,28.9708,31.6779,129.673,100.792,100.302,0.0059514,0.136551,20.8077,897.243,0.0471569,0.0,0.0
189,47,29.2133,32.164,133.093,100.801,101.123,0.00595647,0.141054,20.7975,897.243,-0.0308638,0.0,0.0
192,47.75,29.7507,32.8754,131.362,100.81,100.455,0.00596017,0.145609,20.7877,897.193,0.0340838,0.0,0.0
195,48.5,30.2218,33.4741,132.955,100.816,100.691,0.00593169,0.150978,20.7789,897.183,0.0119827,0.0,0.0
198,49.25,30.3235,32.8147,128.824,100.839,100.405,0.00588912,0.156319,20.7698,897.163,0.0416972,0.0,0.0
201,50,30.6149,34.0879,131.247,100.866,100.443,0.0058435,0.160821,20.7609,897.133,0.0407087,0.0,0.0
204,50.75,31.6075,34.665,130.641,100.853,100.058,0.00580278,0.166264,20.7517,897.103,0.0765578,0.0,0.0
207,51.5,31.5084,34.8729,130.934,100.885,99.1899,0.00577449,0.171153,20.7419,897.063,0.163906,0.0,0.0
210,52.25,31.7293,35.4129,127.682,100.893,98.9163,0.00576172,0.176922,20.7324,897.043,0.191404,0.0,0.0
213,53,31.8262,35.6004,133.455,100.891,99.0872,0.00577012,0.182894,20.7216,897.043,0.174473,0.0,0.0
216,53.75,31.4288,35.6829,132.464,100.899,98.0771,0.00580653,0.188661,20.7092,897.063,0.274356,0.0,0.0
219,54.5,32.3776,36.3695,132.903,100.901,98.965,0.00588111,0.195261,20.6971,897.023,0.187342,0.0,0.0
222,55.25,32.6934,36.988,129.97,100.908,98.4092,0.00595454,0.200073,20.687,897.033,0.242555,0.0,0.0
225,56,33.1477,37.5449,128.002,100.927,97.529,0.00604065,0.207369,20.6734,896.963,0.331207,0.0,0.0
228,56.75,33.6913,38.1543,129.295,100.931,98.0495,0.00612593,0.214673,20.6603,896.953,0.280192,0.0,0.0
231,57.5,32.8063,37.5182,129.178,100.923,95.5554,0.00619768,0.220845,20.6453,896.933,0.528621,0.0,0.0
234,58.25,34.0714,38.8365,126.755,100.93,96.0666,0.00628922,0.228896,20.6291,896.872,0.477683,0.0,0.0
237,59,35.1535,39.944,129.519,100.949,95.2757,0.0063885,0.23631,20.608,896.812,0.559468,0.0,0.0
240,59.75,35.0032,40.095,120.49,100.944,93.616,0.00650309,0.244354,20.5898,896.782,0.728896,0.0,0.0
243,60.5,35.7538,40.9532,127.503,100.936,94.9846,0.00663512,0.25288,20.5665,896.752,0.58778,0.0,0.0
246,61.25,36.1983,41.4126,129.595,100.942,95.4539,0.00678154,0.262031,20.5416,896.722,0.540651,0.0,0.0
249,62,36.9875,42.7627,127.111,100.946,92.4147,0.00690968,0.271784,20.5202,896.712,0.854051,0.0,0.0
252,62.75,36.8582,42.8789,121.415,100.942,91.5365,0.00710705,0.282376,20.498,896.672,0.94601,0.0,0.0
255,63.5,37.6079,44.1225,121.314,100.934,91.3493,0.00731892,0.293232,20.4756,896.592,0.965068,0.0,0.0
258,64.25,38.2918,44.5629,124.113,100.927,91.8779,0.00754085,0.303966,20.4534,896.582,0.908599,0.0,0.0
261,65,38.6098,45.7743,118.832,100.946,89.8337,0.00776847,0.315233,20.4285,896.542,1.12797,0.0,0.0
264,65.75,39.6732,46.5725,121.544,100.92,90.634,0.00802813,0.324913,20.4025,896.502,1.03979,0.0,0.0
267,66.5,40.4126,47.5228,124.538,100.913,89.932,0.0082693,0.337219,20.3765,896.472,1.11429,0.0,0.0
270,67.25,40.9724,48.2719,119.659,100.906,89.1281,0.00848858,0.349379,20.3513,896.362,1.20047,0.0,0.0
273,68,41.6302,49.7735,118.897,100.905,88.796,0.00868492,0.361268,20.3255,896.332,1.23642,0.0,0.0
276,68.75,42.3009,50.6304,120.657,100.895,89.1943,0.00886745,0.37278,20.3067,896.292,1.1922,0.0,0.0
279,69.5,42.9282,51.3274,122.365,100.884,89.351,0.0090679,0.385615,20.2836,896.252,1.17413,0.0,0.0
282,70.25,43.1565,51.9539,116.525,100.869,87.7453,0.00929667,0.399612,20.2631,896.192,1.34813,0.0,0.0
285,71,44.6812,53.6815,115.577,100.857,87.6296,0.00954362,0.411965,20.2419,896.142,1.35972,0.0,0.0
288,71.75,45.0504,54.285,115.711,100.849,87.131,0.00980048,0.424644,20.2171,896.092,1.41417,0.0,0.0
291,72.5,45.5727,55.221,125.719,100.822,84.987,0.0101116,0.436594,20.1877,896.002,1.65258,0.0,0.0
294,73.25,46.7082,56.6449,112.474,100.806,86.1408,0.0104229,0.449933,20.1562,895.962,1.52055,0.0,0.0
297,74,47.1474,57.3414,118.336,100.797,82.5701,0.0107256,0.466189,20.1241,895.912,1.92921,0.0,0.0
300,74.75,47.9152,59.0262,109.201,100.776,85.1108,0.0110144,0.480223,20.096,895.812,1.63402,0.0,0.0
303,75.5,49.403,60.5885,112.128,100.761,84.4405,0.011225,0.496645,20.0672,895.742,1.70913,0.0,0.0
306,76.25,49.4883,60.9216,107.244,100.737,83.9265,0.011498,0.512819,20.0425,895.671,1.76588,0.0,0.0
309,77,51.0649,62.8876,109.24,100.717,82.4812,0.0117792,0.531595,20.0181,895.621,1.93199,0.0,0.0
312,77.75,52.0234,64.0035,111.957,100.691,81.4516,0.0120376,0.545283,19.9872,895.521,2.05095,0.0,0.0
315,78.5,52.3056,65.0951,116.379,100.689,80.7167,0.0123034,0.559574,19.953,895.411,2.13838,0.0,0.0
318,79.25,54.1471,67.3502,111.436,100.649,82.2697,0.0125813,0.577369,19.923,895.371,1.95024,0.0,0.0
321,80,54.3993,68.2931,106.231,100.643,83.1799,0.0128711,0.597211,19.8731,895.281,1.84326,0.0,0.0
324,80.75,55.8339,70.0695,112.444,100.63,80.1175,0.0131966,0.617806,19.8298,895.241,2.20479,0.0,0.0
327,81.5,56.5801,70.7896,109.773,100.605,78.3067,0.0135414,0.638295,19.7865,895.051,2.42352,0.0,0.0
330,82.25,58.0542,73.0755,107.19,100.565,77.4545,0.0138935,0.662727,19.7313,894.971,2.52549,0.0,0.0
333,83,59.3118,74.825,99.4949,100.545,78.8792,0.0142415,0.684967,19.691,894.851,2.34733,0.0,0.0
336,83.75,60.4949,76.6204,99.2445,100.531,79.2746,0.0146514,0.708756,19.6374,894.801,2.29764,0.0,0.0
339,84.5,61.0206,77.898,98.1271,100.498,77.632,0.0151316,0.737807,19.583,894.741,2.49696,0.0,0.0
342,85.25,63.0366,80.3594,101.898,100.469,77.619,0.0156065,0.76324,19.5307,894.59,2.49576,0.0,0.0
345,86,64.5376,82.5742,105.377,100.445,75.7705,0.0160059,0.789056,19.4819,894.46,2.72662,0.0,0.0
348,86.75,65.8035,83.9695,106.996,100.432,76.2816,0.0165135,0.812674,19.4276,894.33,2.66034,0.0,0.0
351,87.5,66.9686,86.2164,97.9844,100.404,76.2666,0.0170343,0.838096,19.3715,894.26,2.65955,0.0,0.0
354,88.25,67.6942,87.7318,101.603,100.372,75.0295,0.0175665,0.868318,19.3161,894.16,2.81463,0.0,0.0
357,89,70.1618,90.7766,104.49,100.347,75.6901,0.0181052,0.898542,19.2558,894.01,2.72738,0.0,0.0
360,89.75,71.1011,92.715,100.792,100.33,75.5391,0.0186484,0.924068,19.2118,893.89,2.74506,0.0,0.0
363,90.5,72.904,94.7696,95.4763,100.324,74.0612,0.0193018,0.955245,19.1524,893.71,2.93561,0.0,0.0
366,91.25,74.1738,97.252,89.9379,100.298,72.9845,0.0200782,0.988061,19.0976,893.61,3.07475,0.0,0.0
369,92,75.3904,99.3263,88.9045,100.257,71.6525,0.0208904,1.02272,19.038,893.49,3.24899,0.0,0.0
372,92.75,76.6131,101.649,90.2028,100.246,70.9302,0.0216849,1.05898,18.9736,893.329,3.34592,0.0,0.0
375,93.5,79.2748,105.143,80.7756,100.235,73.2298,0.0225494,1.09389,18.8828,893.239,3.03627,0.0,0.0
378,94.25,80.9722,107.8,92.514,100.201,70.778,0.0234013,1.13386,18.7875,893.049,3.36228,0.0,0.0
381,95,82.7141,110.686,95.4373,100.183,70.7682,0.0241167,1.17645,18.6937,892.889,3.36192,0.0,0.0
384,95.75,84.7615,113.67,81.3061,100.16,70.7061,0.0250131,1.21965,18.6035,892.709,3.36814,0.0,0.0
387,96.5,86.3672,116.506,84.9705,100.145,71.3752,0.0258298,1.26211,18.5285,892.539,3.27568,0.0,0.0
390,97.25,88.4687,119.368,84.6545,100.127,71.2323,0.0267044,1.31176,18.4426,892.409,3.29334,0.0,0.0
393,98,90.3059,122.394,86.0513,100.094,70.0082,0.0277937,1.36116,18.38,892.218,3.45773,0.0,0.0
396,98.75,92.6444,125.676,78.0843,100.063,70.6026,0.0285879,1.40281,18.3113,892.078,3.37302,0.0,0.0
399,99.5,94.4233,128.427,89.6487,100.052,68.59,0.0300093,1.45493,18.2411,891.898,3.65163,0.0,0.0
402,100.25,96.9221,132.349,76.6623,100.035,69.5141,0.0312617,1.5017,18.1723,891.728,3.52059,0.0,0.0
405,101,98.6029,135.243,82.3227,100.009,70.4357,0.0325444,1.55082,18.0742,891.598,3.39069,0.0,0.0
408,101.75,100.765,138.516,81.1809,99.9728,68.5555,0.0340549,1.59983,17.9813,891.368,3.64884,0.0,0.0
411,102.5,102.904,142.634,74.8518,99.9411,68.0346,0.0356032,1.65816,17.877,891.248,3.71955,0.0,0.0
414,103.25,105.379,145.407,82.0617,99.9456,66.6871,0.037077,1.72679,17.7362,890.987,3.91347,0.0,0.0
417,104,107.325,149.139,84.7957,99.9184,68.1451,0.0384383,1.78832,17.6336,890.867,3.70166,0.0,0.0
420,104.75,110.024,153.344,84.0935,99.8912,69.1816,0.0399212,1.85281,17.4965,890.567,3.55302,0.0,0.0
423,105.5,111.497,157.042,72.4284,99.8887,67.0976,0.0415586,1.93498,17.3541,890.247,3.84861,0.0,0.0
426,106.25,115.294,161.965,73.5718,99.8806,66.7712,0.0432075,1.99487,17.2098,890.137,3.895,0.0,0.0
429,107,117.576,165.899,76.8638,99.8546,65.2556,0.0446037,2.08154,17.0661,889.876,4.11455,0.0,0.0
432,107.75,120.445,170.486,65.3467,99.8319,67.8024,0.0463253,2.16068,16.8647,889.666,3.74204,0.0,0.0
435,108.5,122.332,174.664,64.2438,99.8266,67.7314,0.0481426,2.24566,16.6876,889.416,3.75167,0.0,0.0
438,109.25,125.666,180.074,82.3189,99.8181,69.2595,0.0500066,2.34654,16.5066,889.156,3.53505,0.0,0.0
441,110,128.627,184.742,75.8967,99.8116,72.473,0.0518777,2.45303,16.2943,888.926,3.09576,0.0,0.0
444,110.75,131.811,190.218,78.4606,99.7807,68.6177,0.0539068,2.5624,16.1087,888.645,3.62148,0.0,0.0
447,111.5,134.472,194.871,59.758,99.7816,67.4171,0.0556695,2.67238,15.9207,888.445,3.79228,0.0,0.0
450,112.25,137.441,200.203,68.3075,99.7718,69.9652,0.0575939,2.80703,15.7518,888.145,3.43252,0.0,0.0
453,113,140.698,205.393,73.6741,99.7608,72.8396,0.059558,2.92866,15.5739,887.855,3.04203,0.0,0.0
456,113.75,144.382,212.033,73.5054,99.7515,71.6078,0.0614837,3.05744,15.3465,887.544,3.20609,0.0,0.0
459,114.5,147.368,217.558,77.392,99.7397,72.3808,0.0635713,3.20554,15.0947,887.234,3.1011,0.0,0.0
462,115.25,150.808,223.556,81.2488,99.7304,72.1803,0.0653437,3.33662,14.8744,886.894,3.12703,0.0,0.0
465,116,154.095,229.843,63.5362,99.728,70.6322,0.0670643,3.49489,14.6023,886.634,3.33649,0.0,0.0
468,116.75,156.967,235.898,50.7422,99.7223,70.404,0.0687607,3.65071,14.3437,886.293,3.36723,0.0,0.0
471,117.5,160.921,242.148,49.2775,99.7138,72.5038,0.0699973,3.78154,14.1295,885.973,3.08215,0.0,0.0
474,118.25,163.897,248.126,69.1646,99.7028,75.0567,0.071224,3.94393,13.8836,885.753,2.74639,0.0,0.0
477,119,166.853,253.632,60.8778,99.6922,70.6103,0.072268,4.10306,13.6724,885.392,3.33602,0.0,0.0
480,119.75,170.521,259.653,88.5663,99.6987,75.0076,0.073171,4.23643,13.4638,884.952,2.75233,0.0,0.0
483,120.5,173.045,265.005,63.7087,99.6943,78.2917,0.073963,4.40092,13.2339,884.722,2.33742,0.0,0.0
486,121.25,177.315,272.544,62.2829,99.6922,74.3613,0.0747191,4.54218,13.0663,884.332,2.8354,0.0,0.0
489,122,181.02,279.053,81.8129,99.6857,69.9043,0.0752702,4.68165,12.8781,883.961,3.43259,0.0,0.0
492,122.75,183.853,283.656,52.6031,99.676,73.8217,0.075703,4.81194,12.7229,883.731,2.90426,0.0,0.0
495,123.5,186.193,288.569,56.366,99.6894,74.354,0.0760546,4.94695,12.5792,883.271,2.83608,0.0,0.0
498,124.25,189.42,294.305,63.2073,99.6748,73.8599,0.0762818,5.05724,12.4442,883.03,2.89915,0.0,0.0
501,125,191.687,298.705,52.4947,99.6756,76.4984,0.0764395,5.15632,12.3328,882.72,2.55973,0.0,0.0
504,125.75,194.663,303.676,53.4763,99.6671,75.168,0.0765407,5.26048,12.2448,882.48,2.7286,0.0,0.0
507,126.5,197.719,308.734,76.2158,99.6719,69.8158,0.0766532,5.35545,12.1806,882.03,3.44351,0.0,0.0
510,127.25,199.981,312.173,56.2187,99.6642,74.088,0.076762,5.43279,12.1338,881.709,2.86829,0.0,0.0
513,128,201.615,315.793,54.2464,99.6707,70.5173,0.0768871,5.49254,12.0997,881.479,3.34668,0.0,0.0
516,128.75,203.613,318.854,62.5295,99.6719,72.03,0.0771141,5.53208,12.1173,881.089,3.14151,0.0,0.0
519,129.5,205.188,320.706,65.0147,99.6878,73.056,0.0774175,5.55403,12.1654,880.849,3.00625,0.0,0.0
522,130.25,206.329,322.572,59.2459,99.6756,69.0155,0.0777875,5.55518,12.2299,880.538,3.55536,0.0,0.0
525,131,208.206,324.23,64.2926,99.6788,72.108,0.0782111,5.54197,12.3306,880.198,3.13172,0.0,0.0
528,131.75,209.29,325.731,81.4221,99.6861,67.0594,0.0786283,5.52636,12.404,879.978,3.83448,0.0,0.0
531,132.5,210.317,326.014,59.1543,99.6886,69.7073,0.0791177,5.49665,12.4893,879.567,3.46015,0.0,0.0
534,133.25,211.038,326.483,59.5497,99.6801,66.6051,0.0795403,5.46173,12.5568,879.387,3.89964,0.0,0.0
537,134,212.128,327.491,57.8903,99.6979,68.7102,0.079843,5.43245,12.615,879.107,3.60041,0.0,0.0
540,134.75,212.908,328.415,57.3072,99.7089,68.6704,0.0800064,5.40458,12.662,878.787,3.60708,0.0,0.0
543,135.5,214.232,330.02,58.7482,99.706,67.249,0.0799564,5.37197,12.7291,878.506,3.8091,0.0,0.0
546,136.25,215.159,331.607,72.2162,99.7056,64.6535,0.0797522,5.34296,12.8198,878.206,4.18976,0.0,0.0
549,137,216.257,331.617,65.6146,99.7284,67.2442,0.0794133,5.30035,12.9335,877.996,3.81197,0.0,0.0
552,137.75,216.604,331.455,66.7611,99.7365,66.2328,0.0789636,5.25166,13.0526,877.606,3.95933,0.0,0.0
555,138.5,217.152,331.754,59.1375,99.7369,66.4062,0.078412,5.20167,13.1393,877.375,3.93408,0.0,0.0
558,139.25,217.461,331.734,59.1978,99.7393,68.3688,0.0776271,5.14385,13.2406,877.125,3.65261,0.0,0.0
561,140,218.675,332.649,70.9248,99.7584,66.6173,0.0765612,5.08459,13.346,876.925,3.90547,0.0,0.0
564,140.75,218.591,331.44,70.579,99.7751,66.526,0.0754205,5.0341,13.4497,876.665,3.92035,0.0,0.0
567,141.5,218.203,330.901,57.6628,99.7856,69.6956,0.0742805,4.96974,13.5486,876.415,3.4712,0.0,0.0
570,142.25,218.842,331.494,75.7097,99.7954,66.4712,0.073187,4.91219,13.6774,876.234,3.93029,0.0,0.0
573,143,219.701,331.645,69.9729,99.8084,67.4301,0.0719788,4.85208,13.7816,875.964,3.79301,0.0,0.0
576,143.75,220.175,331.613,68.9425,99.8258,66.1882,0.0710981,4.78637,13.8753,875.764,3.97451,0.0,0.0
579,144.5,220.332,331.233,59.5665,99.8421,68.0249,0.0699475,4.72406,13.9436,875.384,3.71134,0.0,0.0
582,145.25,220.564,330.915,63.0836,99.8429,66.7152,0.0691087,4.66614,14.0177,875.033,3.89946,0.0,0.0
585,146,220.446,329.94,66.7779,99.8636,67.7748,0.0683613,4.6131,14.0717,874.993,3.74905,0.0,0.0
588,146.75,221.297,329.877,61.5067,99.8802,68.3891,0.0675839,4.56057,14.1369,874.593,3.66339,0.0,0.0
591,147.5,221.248,329.678,67.1778,99.9062,66.6847,0.0669894,4.51637,14.1918,874.313,3.91001,0.0,0.0
594,148.25,220.94,329.374,68.8097,99.9074,66.8585,0.066629,4.47962,14.235,874.193,3.88496,0.0,0.0
597,149,220.803,328.759,69.0234,99.931,67.7878,0.066453,4.44507,14.2665,873.862,3.75372,0.0,0.0
600,149.75,222.254,329.794,72.981,99.9574,67.7626,0.0664196,4.41696,14.2951,873.672,3.75987,0.0,0.0
603,150.5,223.029,330.285,70.1897,99.9679,70.3614,0.0665276,4.39407,14.3159,873.532,3.39689,0.0,0.0
606,151.25,223.092,330.221,70.9599,99.9797,65.8439,0.0666389,4.37539,14.3348,873.162,4.03985,0.0,0.0
609,152,223.981,331.259,69.5325,100.001,65.9633,0.0667339,4.35524,14.3548,873.002,4.02441,0.0,0.0
612,152.75,223.973,330.682,52.1863,100.026,66.3299,0.0666584,4.33408,14.3784,872.751,3.97324,0.0,0.0
615,153.5,224.468,330.748,64.9933,100.052,66.189,0.0665415,4.31144,14.411,872.471,3.99624,0.0,0.0
618,154.25,224.569,330.439,63.8416,100.056,64.5861,0.0660335,4.2873,14.4446,872.281,4.23378,0.0,0.0
621,155,224.486,329.548,62.2112,100.077,65.2926,0.0654667,4.26342,14.486,872.031,4.1306,0.0,0.0
624,155.75,224.087,328.119,65.575,100.107,63.9203,0.0647177,4.23528,14.5399,871.781,4.33891,0.0,0.0
627,156.5,224.297,327.414,70.7667,100.115,66.0656,0.0638183,4.20504,14.5936,871.5,4.02045,0.0,0.0
630,157.25,223.257,326.013,62.3562,100.138,67.3477,0.0630068,4.17884,14.6447,871.33,3.8367,0.0,0.0
633,158,224.001,326.301,55.6257,100.159,67.7846,0.0623011,4.14703,14.6918,870.95,3.77624,0.0,0.0
636,158.75,223.601,325.699,70.1485,100.186,66.2308,0.0617053,4.11835,14.7354,870.73,4.00315,0.0,0.0
639,159.5,224.218,325.566,66.0497,100.209,65.5674,0.0611427,4.09097,14.7767,870.75,4.10268,0.0,0.0
642,160.25,224.268,324.861,60.6274,100.218,66.7761,0.060589,4.06392,14.8229,870.429,3.92691,0.0,0.0
645,161,223.69,323.651,71.5751,100.238,63.6665,0.0600334,4.02734,14.8965,870.179,4.39001,0.0,0.0
648,161.75,223.432,322.515,71.0209,100.265,66.3481,0.0593066,3.99161,14.9675,869.989,3.99359,0.0,0.0
651,162.5,223.145,320.607,72.5948,100.279,64.5528,0.0584142,3.95008,15.0487,869.719,4.26029,0.0,0.0
654,163.25,222.823,320.122,86.2986,100.312,66.7034,0.0573783,3.8962,15.1996,869.619,3.94649,0.0,0.0
657,164,222.479,318.435,73.452,100.345,68.1467,0.0558539,3.8334,15.3712,869.529,3.74265,0.0,0.0
660,164.75,221.691,316.559,73.858,100.363,67.1784,0.0547427,3.76462,15.5226,869.288,3.88279,0.0,0.0
663,165.5,220.915,313.598,83.586,100.381,67.5657,0.0527077,3.67233,15.7234,869.178,3.8289,0.0,0.0
666,166.25,219.211,310.933,81.564,100.402,66.7716,0.0507294,3.57091,15.8698,869.048,3.94533,0.0,0.0
669,167,217.688,307.994,86.1979,100.421,66.3725,0.0484411,3.48242,16.0776,868.858,4.00511,0.0,0.0
672,167.75,216.485,304.493,86.9176,100.447,68.5084,0.0457256,3.35024,16.229,868.808,3.70126,0.0,0.0
675,168.5,214.179,299.773,92.4399,100.486,72.4117,0.043746,3.25389,16.4641,868.728,3.16903,0.0,0.0
678,169.25,211.735,295.495,93.1055,100.497,74.1924,0.0411905,3.09874,16.7599,868.638,2.93516,0.0,0.0
681,170,209.396,290.675,98.6423,100.511,75.2346,0.0382103,2.95793,17.0904,868.588,2.8016,0.0,0.0
684,170.75,206.083,284.899,103.614,100.551,78.0822,0.0354379,2.80787,17.4372,868.518,2.4461,0.0,0.0
687,171.5,203.006,279.297,109.617,100.577,81.2506,0.0328602,2.66179,17.8265,868.528,2.06388,0.0,0.0
690,172.25,199.572,273.282,107.109,100.589,84.9849,0.0301692,2.49255,18.2064,868.448,1.63043,0.0,0.0
693,173,195.858,267.209,113.274,100.613,92.0273,0.0282075,2.31074,18.5243,868.488,0.86272,0.0,0.0
696,173.75,192.167,261.283,113.795,100.638,95.2688,0.0257467,2.14074,18.8129,868.418,0.530284,0.0,0.0
699,174.5,188.55,254.907,117.192,100.67,98.3621,0.0235376,1.98274,19.0475,868.468,0.224314,0.0,0.0
702,175.25,184.384,248.78,120.012,100.687,98.7072,0.0217502,1.83664,19.2834,868.488,0.192078,0.0,0.0
705,176,181.417,242.971,118.587,100.699,98.6211,0.0197644,1.68351,19.4898,868.478,0.201685,0.0,0.0
708,176.75,177.754,237.038,118.539,100.723,99.4315,0.0180447,1.55493,19.6757,868.488,0.124835,0.0,0.0
711,177.5,173.977,231.458,121.015,100.751,99.5614,0.0165538,1.4322,19.8467,868.488,0.114896,0.0,0.0
714,178.25,171.245,226.263,117.714,100.783,100.129,0.0152595,1.3172,20.0062,868.488,0.0630307,0.0,0.0
717,179,167.843,221.072,121.976,100.783,100.171,0.0140365,1.22247,20.1404,868.468,0.0589152,0.0,0.0
720,179.75,164.672,215.714,122.974,100.802,99.5443,0.013145,1.12365,20.2458,868.478,0.121462,0.0,0.0
723,180.5,162.23,211.2,122.956,100.842,99.4445,0.0121899,1.03565,20.3396,868.488,0.135028,0.0,0.0
726,181.25,159.284,206.606,118.381,100.841,99.9666,0.0113895,0.951518,20.4127,868.458,0.0842236,0.0,0.0
729,182,155.96,201.077,121.285,100.848,98.8562,0.0107198,0.88456,20.4743,868.478,0.192961,0.0,0.0
732,182.75,153.348,197.167,121.997,100.858,99.4453,0.0101598,0.816788,20.5292,868.468,0.136429,0.0,0.0
735,183.5,151.017,193.304,123.886,100.886,99.5439,0.00964709,0.761232,20.5775,868.488,0.129523,0.0,0.0
738,184.25,148.622,189.147,120.785,100.899,99.1883,0.00921029,0.710213,20.6187,868.488,0.165426,0.0,0.0
741,185,145.817,185.459,121.905,100.917,99.5102,0.00886498,0.661335,20.6532,868.498,0.135757,0.0,0.0
744,185.75,144.1,182.266,121.157,100.925,99.0571,0.00853785,0.618725,20.6818,868.488,0.180714,0.0,0.0
747,186.5,140.848,177.42,121.505,100.948,99.2086,0.00829937,0.584687,20.7041,868.498,0.168156,0.0,0.0
750,187.25,139.416,174.54,121.251,100.981,99.753,0.00804484,0.549138,20.7243,868.458,0.118372,0.0,0.0
753,188,137.798,171.478,117.604,101.001,99.2987,0.00783793,0.51752,20.7407,868.428,0.164429,0.0,0.0
756,188.75,135.423,168.447,122.077,100.988,99.6194,0.007678,0.49204,20.7564,868.458,0.131955,0.0,0.0
759,189.5,134.194,165.53,124.066,101.023,98.9731,0.0075453,0.466388,20.771,868.458,0.198258,0.0,0.0
762,190.25,131.758,161.53,126.036,101.033,99.3523,0.00742598,0.44467,20.7816,868.468,0.162203,0.0,0.0
765,191,130.831,159.632,119.363,101.043,99.956,0.00732936,0.421487,20.7924,868.448,0.10462,0.0,0.0
768,191.75,128.352,156.036,122.851,101.056,99.3235,0.00722132,0.400857,20.8021,868.448,0.167225,0.0,0.0
771,192.5,126.929,154.209,121.205,101.076,99.1562,0.00710741,0.382488,20.8101,868.448,0.18547,0.0,0.0
774,193.25,125.809,151.758,125.662,101.099,99.6791,0.00699168,0.366123,20.8177,868.458,0.136772,0.0,0.0
777,194,123.647,148.882,122.685,101.145,99.101,0.00687572,0.351768,20.8233,868.448,0.197423,0.0,0.0
780,194.75,121.243,145.593,121.369,101.115,99.3089,0.00673715,0.337158,20.8299,868.458,0.174321,0.0,0.0
783,195.5,121.471,145.178,128.02,101.14,99.1964,0.0065898,0.322905,20.8354,868.448,0.187688,0.0,0.0
786,196.25,119.267,141.449,120.911,101.155,99.2857,0.00648239,0.312514,20.8406,868.448,0.180419,0.0,0.0
789,197,118.335,140.074,121.24,101.164,99.1818,0.00636491,0.300509,20.8452,868.448,0.191364,0.0,0.0
792,197.75,117.212,138.114,121.847,101.172,98.6804,0.00627428,0.290454,20.8494,868.438,0.2412,0.0,0.0
795,198.5,116.142,136.405,124.839,101.183,98.7669,0.0062028,0.280896,20.8533,868.428,0.233737,0.0,0.0
798,199.25,115.186,134.336,122.053,101.205,99.2114,0.00614508,0.270767,20.8574,868.448,0.192394,0.0,0.0
801,200,114.209,132.332,124.828,101.231,98.9163,0.00608876,0.262325,20.8606,868.438,0.223773,0.0,0.0
804,200.75,113.014,130.77,121.797,101.238,98.9954,0.00604771,0.254364,20.8633,868.428,0.216655,0.0,0.0
807,201.5,111.459,129.037,123.652,101.244,99.2963,0.00598933,0.246383,20.8657,868.428,0.187889,0.0,0.0
810,202.25,110.162,126.913,124.3,101.285,98.9755,0.00592933,0.239163,20.8679,868.448,0.223138,0.0,0.0
813,203,109.562,125.448,123.604,101.302,98.9548,0.00587815,0.233301,20.8699,868.468,0.226751,0.0,0.0
816,203.75,108.789,123.749,121.505,101.303,99.2021,0.00580709,0.22743,20.8717,868.438,0.202691,0.0,0.0
819,204.5,107.557,121.556,123.765,101.312,99.1668,0.0057279,0.222469,20.8738,868.448,0.207027,0.0,0.0
822,205.25,106.385,120.738,119.535,101.322,99.0852,0.00564737,0.216873,20.876,868.418,0.21592,0.0,0.0
825,206,105.868,119.521,125.177,101.345,99.4339,0.00556964,0.211713,20.8777,868.448,0.184146,0.0,0.0
828,206.75,104.767,118.072,125.838,101.346,99.1083,0.00551048,0.206948,20.8789,868.428,0.215988,0.0,0.0
831,207.5,103.361,115.789,121.55,101.359,98.7608,0.00546629,0.202545,20.8804,868.428,0.251124,0.0,0.0
834,208.25,103.015,114.91,125.981,101.378,99.3637,0.00543906,0.198009,20.8819,868.448,0.194157,0.0,0.0
837,209,102.809,113.475,123.912,101.404,99.0559,0.00541674,0.193889,20.8838,868.438,0.22656,0.0,0.0
840,209.75,101.299,111.82,123.672,101.414,98.671,0.00539264,0.19054,20.8852,868.438,0.265222,0.0,0.0
843,210.5,100.912,111.321,124.572,101.413,99.0466,0.00534848,0.187477,20.8863,868.438,0.228324,0.0,0.0
846,211.25,100.002,109.605,124.182,101.444,98.7522,0.00528647,0.184182,20.8872,868.428,0.260092,0.0,0.0
849,212,98.923,108.83,123.956,101.444,99.4773,0.00521549,0.180689,20.8883,868.428,0.189371,0.0,0.0
852,212.75,98.0321,107.687,123.801,101.458,98.7336,0.00514141,0.177521,20.8898,868.438,0.263315,0.0,0.0
855,213.5,97.9409,106.253,125.687,101.457,99.2248,0.00507148,0.174656,20.8908,868.428,0.215195,0.0,0.0
858,214.25,96.8746,105.071,124.494,101.463,99.0539,0.0050205,0.172072,20.8916,868.428,0.232411,0.0,0.0
861,215,96.432,104.628,126.595,101.499,99.5736,0.00499835,0.169405,20.8921,868.448,0.185206,0.0,0.0
864,215.75,96.0362,103.034,122.368,101.516,98.3909,0.0050079,0.16694,20.8908,868.458,0.302397,0.0,0.0
867,216.5,95.7048,102.038,124.201,101.502,98.6934,0.00504673,0.164921,20.8898,868.458,0.271394,0.0,0.0
870,217.25,94.6606,101.49,123.096,101.523,98.6747,0.00508028,0.163021,20.8891,868.428,0.275198,0.0,0.0
873,218,94.1708,100.432,124.476,101.527,98.3726,0.00511368,0.160903,20.8885,868.428,0.305277,0.0,0.0
876,218.75,93.5585,99.3953,126.205,101.541,98.4368,0.0051256,0.158883,20.8884,868.438,0.300287,0.0,0.0
879,219.5,93.2848,98.5628,124.407,101.534,98.8395,0.00512181,0.157207,20.8887,868.418,0.260137,0.0,0.0
882,220.25,92.0775,97.6083,125.836,101.538,98.6321,0.00510675,0.155307,20.8889,868.448,0.280808,0.0,0.0
885,221,91.1795,95.9217,126.779,101.549,98.725,0.00509046,0.153621,20.8895,868.448,0.272818,0.0,0.0
888,221.75,90.9933,95.198,127.11,101.56,98.5797,0.00507858,0.151876,20.8901,868.448,0.288073,0.0,0.0
891,222.5,91.2305,94.8274,125.192,101.559,98.6195,0.00507524,0.150269,20.8905,868.438,0.284054,0.0,0.0
894,223.25,90.6348,94.2673,125.997,101.558,98.915,0.00507901,0.148809,20.8911,868.448,0.254994,0.0,0.0
897,224,89.3187,93.7468,124.238,101.557,98.7165,0.00508179,0.147493,20.8919,868.448,0.274388,0.0,0.0
900,224.75,89.1894,93.2735,122.037,101.578,98.5785,0.00507935,0.146018,20.8925,868.438,0.289893,0.0,0.0
903,225.5,87.5615,91.4709,122.579,101.569,98.4827,0.00505986,0.144737,20.8929,868.428,0.298487,0.0,0.0
906,226.25,88.5381,91.8718,127.048,101.547,98.4758,0.00503697,0.143453,20.8932,868.458,0.296999,0.0,0.0
909,227,88.5084,91.2931,123.753,101.556,98.5359,0.00501461,0.142295,20.8934,868.468,0.291989,0.0,0.0
912,227.75,87.9026,90.1378,126.716,101.553,98.7287,0.00499497,0.141148,20.8936,868.478,0.272846,0.0,0.0
915,228.5,87.098,89.8593,128.93,101.538,98.3601,0.00498065,0.140128,20.8937,868.468,0.307559,0.0,0.0
918,229.25,86.1451,88.5457,124.893,101.533,98.6646,0.00495782,0.139222,20.8938,868.458,0.27716,0.0,0.0
921,230,86.7375,88.3956,121.643,101.526,98.939,0.0049455,0.138304,20.8938,868.458,0.249635,0.0,0.0
924,230.75,85.9226,87.2907,126.417,101.525,98.5245,0.00493043,0.137533,20.8939,868.448,0.290165,0.0,0.0
927,231.5,85.4805,87.2672,126.112,101.507,98.3994,0.00492298,0.136796,20.8939,868.448,0.300747,0.0,0.0
930,232.25,85.2119,86.8677,125.206,101.494,98.2387,0.00490763,0.136128,20.8937,868.438,0.315286,0.0,0.0
933,233,84.3511,85.7482,125.831,101.476,98.2415,0.00488111,0.135629,20.8932,868.438,0.313304,0.0,0.0
936,233.75,83.7087,85.1085,125.905,101.478,98.4222,0.00484281,0.134914,20.8928,868.468,0.295765,0.0,0.0
939,234.5,84.1431,84.9978,122.724,101.458,98.2675,0.00478131,0.134261,20.8925,868.458,0.309081,0.0,0.0
942,235.25,84.0516,84.8622,127.391,101.435,98.22,0.00472344,0.13366,20.8923,868.448,0.311513,0.0,0.0
945,236,83.1691,84.5581,126.59,101.423,98.2155,0.00465896,0.133025,20.8921,868.448,0.31083,0.0,0.0
948,236.75,83.7504,83.6711,127.309,101.419,98.628,0.00460824,0.132451,20.892,868.418,0.269945,0.0,0.0
951,237.5,82.3014,83.2233,125.797,101.397,97.8578,0.00456969,0.131986,20.8919,868.388,0.343602,0.0,0.0
954,238.25,82.5617,82.7467,127.238,101.376,98.2813,0.00457006,0.131469,20.8913,868.398,0.299863,0.0,0.0
957,239,82.0174,81.8398,129.246,101.347,97.9792,0.00458247,0.131042,20.8899,868.428,0.326885,0.0,0.0
960,239.75,81.9861,81.446,125.856,101.341,98.0966,0.00463615,0.130643,20.8889,868.428,0.314766,0.0,0.0
963,240.5,81.4473,81.2374,125.831,101.316,97.9179,0.00470997,0.130352,20.8882,868.418,0.329992,0.0,0.0
966,241.25,81.0718,80.5699,124.955,101.293,98.1839,0.00479058,0.129766,20.8876,868.438,0.301512,0.0,0.0
969,242,80.4947,80.4581,123.309,101.259,97.79,0.00486425,0.129228,20.8877,868.438,0.337206,0.0,0.0
972,242.75,80.4875,79.9637,124.169,101.248,98.2228,0.0049243,0.128789,20.8879,868.418,0.293369,0.0,0.0
975,243.5,80.1571,80.2055,125.69,101.231,98.0032,0.00495391,0.128359,20.8881,868.408,0.313431,0.0,0.0
978,244.25,80.2569,79.1229,125.615,101.213,98.1542,0.0049544,0.127947,20.8882,868.408,0.296831,0.0,0.0
981,245,79.7227,78.4801,126.36,101.179,98.1209,0.00493793,0.12756,20.8883,868.398,0.296813,0.0,0.0
984,245.75,78.8843,78.6144,127.557,101.146,97.4332,0.00491253,0.127098,20.8883,868.408,0.361741,0.0,0.0
987,246.5,79.5106,78.0701,127.633,101.138,97.8046,0.00487809,0.126685,20.8888,868.398,0.324118,0.0,0.0
990,247.25,78.631,77.8125,129.007,101.102,97.6829,0.00484555,0.126168,20.8893,868.398,0.332791,0.0,0.0
993,248,78.4082,77.0896,129.253,101.072,97.46,0.00481604,0.125626,20.8897,868.398,0.352012,0.0,0.0
996,248.75,78.0189,76.8059,126.175,101.053,97.76,0.00479007,0.125087,20.89,868.408,0.320416,0.0,0.0
999,249.5,77.8429,76.9526,123.513,101.038,97.7925,0.00477114,0.124571,20.8902,868.418,0.315805,0.0,0.0
1002,250.25,77.6564,76.1868,124.713,101.011,97.7823,0.00474658,0.124018,20.8908,868.418,0.314205,0.0,0.0
1005,251,77.3083,75.8109,127.206,100.979,98.0746,0.00471752,0.123532,20.8913,868.408,0.282299,0.0,0.0
1008,251.75,76.7373,75.1798,123.284,100.954,97.6272,0.00468572,0.123142,20.8916,868.428,0.324073,0.0,0.0
1011,252.5,76.7604,75.8248,130.499,100.955,97.6508,0.0046525,0.122642,20.8917,868.398,0.321818,0.0,0.0
1014,253.25,76.5699,74.5608,125.005,100.922,97.2123,0.00463181,0.122278,20.8921,868.408,0.362234,0.0,0.0
1017,254,76.2367,74.433,124.767,100.892,98.2005,0.00460667,0.121795,20.8927,868.418,0.261492,0.0,0.0
1020,254.75,76.5621,74.4504,130.843,100.853,97.8465,0.00458651,0.121402,20.8932,868.388,0.292726,0.0,0.0
1023,255.5,76.3425,74.1018,124.986,100.859,97.4291,0.00456958,0.120974,20.8936,868.408,0.334614,0.0,0.0
1026,256.25,75.9629,73.4568,125.984,100.842,97.5659,0.00455529,0.120718,20.8938,868.418,0.319407,0.0,0.0
1029,257,74.5353,72.6466,124.799,100.806,97.5432,0.00454152,0.120286,20.894,868.388,0.318194,0.0,0.0
1032,257.75,74.4207,72.7417,127.965,100.79,97.2082,0.00452619,0.119874,20.8942,868.388,0.349944,0.0,0.0
1035,258.5,75.0371,73.0223,128.05,100.781,97.8363,0.00450635,0.119533,20.8943,868.378,0.286796,0.0,0.0
1038,259.25,74.4867,72.6347,128.737,100.773,97.1352,0.00448364,0.119128,20.8943,868.388,0.35566,0.0,0.0
1041,260,74.5568,72.7811,123.075,100.751,97.518,0.00445928,0.118764,20.8944,868.388,0.315469,0.0,0.0
1044,260.75,74.2052,71.9104,126.827,100.722,97.65,0.00444153,0.11844,20.8944,868.378,0.299584,0.0,0.0
1047,261.5,74.2964,71.5836,126.358,100.746,97.5314,0.00443579,0.118155,20.8952,868.378,0.313672,0.0,0.0
1050,262.25,73.4555,72.0625,128.14,100.806,97.2606,0.00445142,0.11779,20.8962,868.378,0.346254,0.0,0.0
1053,263,73.9544,71.6331,128.125,100.844,97.3122,0.00447126,0.117524,20.8971,868.378,0.344828,0.0,0.0
1056,263.75,73.7667,70.9439,125.279,100.886,97.3987,0.00451916,0.11718,20.898,868.348,0.340246,0.0,0.0
1059,264.5,73.3839,70.8778,128.48,100.918,97.4153,0.00458074,0.116866,20.899,868.358,0.341708,0.0,0.0
1062,265.25,73.6153,70.8937,130.427,100.976,97.775,0.00464683,0.1165,20.8998,868.358,0.311622,0.0,0.0
1065,266,72.652,70.7398,128.897,101.003,97.4198,0.00469425,0.11619,20.9002,868.368,0.349393,0.0,0.0
1068,266.75,72.6776,70.0248,127.726,101.026,97.2712,0.00474969,0.115889,20.9006,868.368,0.366374,0.0,0.0
1071,267.5,72.9201,70.109,126.848,101.064,97.7592,0.00477881,0.115553,20.9009,868.368,0.321585,0.0,0.0
1074,268.25,72.268,69.7061,126.959,101.102,97.6508,0.00480183,0.115265,20.9011,868.378,0.335928,0.0,0.0
1077,269,71.9273,69.2803,130.571,101.123,98.3077,0.00480746,0.115065,20.9013,868.368,0.273141,0.0,0.0
1080,269.75,71.8679,69.1754,128.696,101.149,98.1627,0.0048068,0.114737,20.9015,868.358,0.289858,0.0,0.0
1083,270.5,71.0998,68.7767,129.816,101.156,97.758,0.00479588,0.114534,20.9016,868.348,0.330483,0.0,0.0
1086,271.25,71.6133,68.5717,124.584,101.199,97.9565,0.00477007,0.114252,20.9016,868.348,0.314937,0.0,0.0
1089,272,70.8969,68.7454,127.73,101.216,98.0052,0.00473005,0.113988,20.9017,868.348,0.311757,0.0,0.0
1092,272.75,71.2717,68.3826,128.026,101.226,98.179,0.0046924,0.113755,20.9017,868.368,0.295632,0.0,0.0
1095,273.5,70.984,68.1152,128.515,101.229,98.7498,0.00464459,0.113567,20.9018,868.368,0.23987,0.0,0.0
1098,274.25,70.8244,68.4236,128.787,101.25,97.6443,0.00459972,0.113348,20.9018,868.378,0.350702,0.0,0.0
1101,275,70.3437,67.9883,128.855,101.242,97.8298,0.00456577,0.113153,20.9018,868.378,0.331603,0.0,0.0
1104,275.75,70.807,67.306,127.534,101.244,98.2086,0.00454792,0.112933,20.9018,868.368,0.29442,0.0,0.0
1107,276.5,70.7268,67.2903,130.032,101.253,98.421,0.00453807,0.112773,20.9018,868.338,0.274382,0.0,0.0
1110,277.25,70.2363,67.1576,123.866,101.257,99.1063,0.00455938,0.112641,20.9018,868.338,0.207618,0.0,0.0
1113,278,70.0043,66.9093,127.217,101.254,98.3527,0.00459945,0.112521,20.9018,868.348,0.281204,0.0,0.0
1116,278.75,70.0797,66.9481,129.376,101.24,97.935,0.00464986,0.112336,20.9018,868.338,0.321058,0.0,0.0
1119,279.5,69.8527,66.9631,127.844,101.221,98.0665,0.00470606,0.112159,20.9023,868.328,0.306174,0.0,0.0
1122,280.25,69.2476,66.7862,127.075,101.218,97.7596,0.00474638,0.112013,20.9028,868.348,0.336261,0.0,0.0
1125,281,69.1947,66.2124,127.399,101.211,98.0596,0.00477465,0.111848,20.9031,868.338,0.305924,0.0,0.0
1128,281.75,69.107,66.6206,127.886,101.194,98.7945,0.00476799,0.111699,20.9034,868.348,0.232082,0.0,0.0
1131,282.5,69.2105,65.9054,130.738,101.164,97.5038,0.00475151,0.111541,20.9036,868.378,0.356439,0.0,0.0
1134,283.25,68.6465,66.016,129.743,101.13,98.3065,0.00468649,0.111387,20.9037,868.368,0.27392,0.0,0.0
1137,284,68.681,65.4372,130.03,101.13,97.7592,0.00463909,0.111268,20.9038,868.358,0.327917,0.0,0.0
1140,284.75,68.6905,65.344,128.373,101.1,98.8095,0.00455875,0.111168,20.9035,868.338,0.221643,0.0,0.0
1143,285.5,68.3482,65.0441,131.694,101.091,98.2399,0.00447286,0.111068,20.9025,868.338,0.276706,0.0,0.0
1146,286.25,67.7052,65.205,125.913,101.055,97.5156,0.0043969,0.110984,20.9019,868.348,0.344861,0.0,0.0
1149,287,68.0805,64.8144,129.066,101.026,97.3134,0.00433799,0.110893,20.9013,868.348,0.362176,0.0,0.0
1152,287.75,67.4646,64.9189,129.662,100.99,97.7896,0.00430494,0.110778,20.901,868.358,0.311499,0.0,0.0
1155,288.5,67.2924,63.8407,133.58,100.94,97.8266,0.00429092,0.110681,20.9007,868.348,0.303021,0.0,0.0
1158,289.25,67.4004,64.0928,130.541,100.907,98.2102,0.00429071,0.110596,20.9005,868.348,0.261972,0.0,0.0
1161,290,66.6917,64.3452,128.815,100.871,97.7267,,0.110523,,868.348,0.306247,0.0,0.0
1164,290.75,67.5421,63.9409,130.7,100.832,97.8895,,0.110469,,868.348,0.286408,0.0,0.0
1167,291.5,66.7578,63.8152,127.519,100.761,97.6759,,0.11043,,868.358,0.300753,0.0,0.0
1170,292.25,67.0513,63.6084,129.272,100.713,98.2651,,0.110408,,868.338,0.237994,0.0,0.0
1173,293,66.9664,63.8977,127.596,100.666,97.1965,,,,868.328,0.339263,0.0,0.0
1176,293.75,66.4815,63.6445,126.742,100.613,97.9593,,,,868.308,0.258535,0.0,0.0
1179,294.5,66.4515,63.2564,125.969,100.553,97.8331,,,,868.338,0.265192,0.0,0.0
1182,295.25,65.6608,62.8588,129.442,100.484,97.5432,,,,868.328,0.287291,0.0,0.0
1185,296,66.3716,63.3539,130.037,100.441,97.261,,,,868.348,0.311167,0.0,0.0
1188,296.75,66.5593,62.6108,131.845,100.384,96.4174,,,,868.368,0.389994,0.0,0.0
1191,297.5,65.723,62.8092,127.194,100.327,96.6114,,,,868.338,0.364989,0.0,0.0
1194,298.25,65.7495,62.9076,127.812,100.35,96.7413,,,,868.348,0.354184,0.0,0.0
1197,299,65.6673,62.749,130.266,100.345,97.0438,,,,868.368,0.32352,0.0,0.0
1200,299.75,65.8641,62.7667,126.256,100.375,97.49,,,,868.398,0.282087,0.0,0.0
1203,300.5,65.202,62.0264,127.473,100.386,97.7092,,,,868.388,0.261377,0.0,0.0
1204,300.75,65.6727,62.3505,127.828,100.381,98.2387,,,,868.388,0.208682,0.0,0.0