File: 01_Data/Engineered_Wood_Furniture/STA/N2/30K_min/Engineered_Wood_Furniture_STA_N2_30KData_22114_R1.csv
##Temp./Â°C,Time/min,Mass loss(subtr.2)/mg,DSC(subtr.2)/(mW/mg),Sensit./(uV/mW)
48.535,10.01,0.01645,0.006308327,1.07504
49.235,10.55767,0.01809768,0.04913749,1.07473
49.935,10.6842,0.01884286,0.08329053,1.07442
50.635,10.7734,0.01835133,0.11575,1.07412
51.335,10.84682,0.01890775,0.14547,1.07381
52.035,10.91053,0.01899174,0.17108,1.0735
52.735,10.9673,0.0194724,0.19543,1.07318
53.435,11.01897,0.01871804,0.21878,1.07287
54.135,11.0665,0.0190504,0.24148,1.07256
54.835,11.11151,0.01868258,0.26362,1.07225
55.535,11.15442,0.01882163,0.28376,1.07194
56.235,11.19507,0.01954654,0.30116,1.07162
56.935,11.23427,0.02084667,0.32007,1.07131
57.635,11.27184,0.01970257,0.33782,1.07099
58.335,11.3082,0.01974856,0.35696,1.07068
59.035,11.34324,0.02016813,0.37313,1.07036
59.735,11.37764,0.01924056,0.3867,1.07004
60.435,11.41099,0.02089975,0.40032,1.06973
61.135,11.44369,0.02087436,0.41509,1.06941
61.835,11.4755,0.01986476,0.43088,1.06909
62.535,11.5068,0.01944758,0.44499,1.06877
63.235,11.53767,0.01843993,0.45575,1.06845
63.935,11.5678,0.01987405,0.46622,1.06813
64.635,11.5978,0.02020554,0.48027,1.06781
65.335,11.6272,0.01962222,0.49177,1.06749
66.035,11.65649,0.02005715,0.50181,1.06717
66.735,11.68527,0.01989412,0.51381,1.06685
67.435,11.71367,0.02000542,0.52334,1.06653
68.135,11.74184,0.01969647,0.5357,1.06621
68.835,11.76966,0.01995442,0.54492,1.06588
69.535,11.79728,0.02019688,0.55443,1.06556
70.235,11.8247,0.01948078,0.56495,1.06523
70.935,11.85185,0.01945301,0.57464,1.06491
71.635,11.87887,0.01988595,0.58211,1.06458
72.335,11.90558,0.02003731,0.5926,1.06426
73.035,11.9321,0.02003014,0.60042,1.06393
73.735,11.95862,0.01949739,0.61102,1.0636
74.435,11.9849,0.01951854,0.61796,1.06328
75.135,12.01112,0.01971717,0.62889,1.06295
75.835,12.03704,0.01852227,0.63574,1.06262
76.535,12.06298,0.01923863,0.64307,1.06229
77.235,12.08885,0.01949412,0.65248,1.06196
77.935,12.11458,0.0192658,0.6595,1.06163
78.635,12.1401,0.01876733,0.66936,1.0613
79.335,12.16555,0.01859596,0.67666,1.06097
80.035,12.19088,0.01978124,0.68446,1.06064
80.735,12.21608,0.01823978,0.69122,1.06031
81.435,12.24123,0.01716457,0.70049,1.05997
82.135,12.26628,0.016712,0.70895,1.05964
82.835,12.29122,0.01731034,0.7144,1.05931
83.535,12.31601,0.01665639,0.72178,1.05897
84.235,12.3407,0.01808967,0.72959,1.05864
84.935,12.36539,0.01707755,0.73759,1.0583
85.635,12.3901,0.01809498,0.74433,1.05797
86.335,12.41467,0.01664663,0.75362,1.05763
87.035,12.43908,0.01518582,0.75853,1.05729
87.735,12.46348,0.01441488,0.76552,1.05696
88.435,12.48776,0.01506007,0.77029,1.05662
89.135,12.51213,0.01509668,0.7804,1.05628
89.835,12.53628,0.01605852,0.78662,1.05594
90.535,12.5604,0.01514084,0.79062,1.0556
91.235,12.5845,0.0155368,0.79819,1.05526
91.935,12.60862,0.01513212,0.80374,1.05492
92.635,12.6327,0.01576888,0.80907,1.05458
93.335,12.65672,0.01527386,0.81554,1.05424
94.035,12.68069,0.01513876,0.82116,1.0539
94.735,12.7046,0.01513135,0.82735,1.05356
95.435,12.7285,0.01612559,0.83069,1.05321
96.135,12.7524,0.01515669,0.8339,1.05287
96.835,12.7762,0.01454278,0.83965,1.05253
97.535,12.79997,0.01382003,0.84398,1.05218
98.235,12.82376,0.01363924,0.8473,1.05184
98.935,12.8474,0.01247264,0.85207,1.05149
99.635,12.87087,0.01250061,0.85469,1.05115
100.335,12.8943,0.01251224,0.85974,1.0508
101.035,12.91792,0.01266494,0.86189,1.05045
101.735,12.94154,0.01022326,0.86428,1.05011
102.435,12.96534,0.01019802,0.86601,1.04976
103.135,12.98904,0.00962983,0.86804,1.04941
103.835,13.01255,0.008909521,0.86628,1.04906
104.535,13.03618,0.009234289,0.8719,1.04871
105.235,13.05977,0.01020197,0.87092,1.04836
105.935,13.08331,0.01019935,0.87171,1.04801
106.635,13.1069,0.01020718,0.87209,1.04766
107.335,13.1303,0.008872129,0.87438,1.04731
108.035,13.15376,0.008882934,0.87333,1.04696
108.735,13.17705,0.008887874,0.87241,1.04661
109.435,13.2003,0.008532428,0.87227,1.04626
110.135,13.2236,0.007595499,0.87221,1.04591
110.835,13.24712,0.007571046,0.87134,1.04555
111.535,13.2709,0.00756999,0.87179,1.0452
112.235,13.29456,0.00757023,0.86919,1.04485
112.935,13.3181,0.00757286,0.86996,1.04449
113.635,13.34154,0.007511308,0.86895,1.04414
114.335,13.36488,0.006200815,0.86617,1.04378
115.035,13.38827,0.006248769,0.86611,1.04342
115.735,13.4117,0.006250052,0.86684,1.04307
116.435,13.4351,0.006250005,0.86914,1.04271
117.135,13.4584,0.006250001,0.87273,1.04235
117.835,13.4817,0.006249976,0.87334,1.042
118.535,13.50491,0.00624908,0.87757,1.04164
119.235,13.5282,0.006239562,0.8791,1.04128
119.935,13.5514,0.00547578,0.88112,1.04092
120.635,13.5746,0.004953267,0.88324,1.04056
121.335,13.59785,0.004940423,0.88564,1.0402
122.035,13.62101,0.00493999,0.88381,1.03984
122.735,13.6441,0.00494,0.88645,1.03948
123.435,13.6672,0.00494,0.88536,1.03912
124.135,13.69036,0.00494,0.88627,1.03876
124.835,13.7135,0.004939905,0.88717,1.03839
125.535,13.73666,0.004938137,0.88292,1.03803
126.235,13.75966,0.004637766,0.88301,1.03767
126.935,13.7826,0.003643897,0.87968,1.03731
127.635,13.80555,0.003621606,0.88226,1.03694
128.335,13.8285,0.003620037,0.87841,1.03658
129.035,13.8516,0.00362,0.87866,1.03621
129.735,13.87452,0.00362,0.87767,1.03585
130.435,13.89737,0.003619995,0.87725,1.03548
131.135,13.9202,0.003620007,0.87497,1.03512
131.835,13.94294,0.003622203,0.87339,1.03475
132.535,13.9657,0.003671132,0.8717,1.03438
133.235,13.9884,0.00236102,0.87159,1.03401
133.935,14.01114,0.00229796,0.86923,1.03365
134.635,14.03386,0.002299731,0.8691,1.03328
135.335,14.0565,0.00229999,0.8682,1.03291
136.035,14.07918,0.0023,0.86467,1.03254
136.735,14.10184,0.002300001,0.86305,1.03217
137.435,14.12445,0.00230003,0.86509,1.0318
138.135,14.1471,0.002300461,0.86328,1.03143
138.835,14.16973,0.00230102,0.86313,1.03106
139.535,14.19225,0.002130824,0.8624,1.03069
140.235,14.21471,0.0009824777,0.86182,1.03032
140.935,14.2372,0.0009896839,0.86319,1.02994
141.635,14.2597,0.0009899975,0.86285,1.02957
142.335,14.28214,0.0009900223,0.86236,1.0292
143.035,14.30466,0.0009906521,0.86291,1.02883
143.735,14.3271,0.0009997408,0.86424,1.02845
144.435,14.3495,0.00131168,0.86388,1.02808
145.135,14.3719,0.001679549,0.86612,1.0277
145.835,14.3942,0.00165272,0.86567,1.02733
146.535,14.41647,0.001650142,0.86785,1.02695
147.235,14.4387,0.001650024,0.86946,1.02658
147.935,14.46103,0.00164966,0.8714,1.0262
148.635,14.4833,0.00162181,0.87093,1.02582
149.335,14.5055,0.0002449952,0.87514,1.02545
150.035,14.52777,0.0003269228,0.87764,1.02507
150.735,14.54999,0.0003299992,0.87766,1.02469
151.435,14.57226,0.0003300083,0.88206,1.02431
152.135,14.5945,0.0003300007,0.88291,1.02393
152.835,14.61669,0.00033,0.8845,1.02356
153.535,14.6389,0.00033,0.88614,1.02318
154.235,14.661,0.00033,0.88671,1.0228
154.935,14.6831,0.00033,0.89065,1.02242
155.635,14.70529,0.0003300018,0.89461,1.02204
156.335,14.72741,0.0003300246,0.89743,1.02165
157.035,14.74949,0.0003301039,0.89956,1.02127
157.735,14.77147,0.000324577,0.90268,1.02089
158.435,14.7935,0.0001086394,0.90503,1.02051
159.135,14.8155,-0.0004991216,0.90838,1.02013
159.835,14.8376,-0.0006526611,0.91238,1.01974
160.535,14.8597,-0.0006537524,0.91496,1.01936
161.235,14.88165,-0.0009734614,0.91959,1.01898
161.935,14.90368,-0.000979347,0.92266,1.01859
162.635,14.9257,-0.0009801061,0.92504,1.01821
163.335,14.94771,-0.0009817709,0.92933,1.01782
164.035,14.9697,-0.0009843248,0.93391,1.01744
164.735,14.99169,-0.002047225,0.93765,1.01705
165.435,15.0136,-0.001977699,0.94249,1.01666
166.135,15.03551,-0.001970302,0.94476,1.01628
166.835,15.05742,-0.0019677,0.94819,1.01589
167.535,15.07939,-0.001958466,0.95198,1.0155
168.235,15.1013,-0.002294262,0.95705,1.01512
168.935,15.12315,-0.00229933,0.96331,1.01473
169.635,15.14504,-0.002299954,0.96913,1.01434
170.335,15.16683,-0.0023,0.97394,1.01395
171.035,15.18873,-0.002299999,0.9814,1.01356
171.735,15.2106,-0.00230001,0.98455,1.01317
172.435,15.23236,-0.002300693,0.99245,1.01278
173.135,15.25419,-0.002341222,0.99572,1.01239
173.835,15.27599,-0.00358879,1.00264,1.012
174.535,15.29786,-0.004918441,1.00537,1.01161
175.235,15.31967,-0.00492992,1.01316,1.01122
175.935,15.3414,-0.004929973,1.01987,1.01083
176.635,15.36311,-0.004928521,1.02781,1.01043
177.335,15.3848,-0.004899901,1.03462,1.01004
178.035,15.4065,-0.005320474,1.04144,1.00965
178.735,15.42815,-0.004918138,1.04774,1.00926
179.435,15.4498,-0.00492992,1.05809,1.00886
180.135,15.47146,-0.00493006,1.06414,1.00847
180.835,15.4932,-0.004930843,1.07158,1.00807
181.535,15.51481,-0.004983568,1.07708,1.00768
182.235,15.53648,-0.00733307,1.088,1.00728
182.935,15.55807,-0.00755296,1.09651,1.00689
183.635,15.57961,-0.00755988,1.1052,1.00649
184.335,15.60115,-0.007561385,1.11475,1.0061
185.035,15.62275,-0.00760982,1.12201,1.0057
185.735,15.64435,-0.00710792,1.13187,1.0053
186.435,15.6659,-0.00754156,1.13997,1.0049
187.135,15.6875,-0.007571663,1.15008,1.00451
187.835,15.7089,-0.008130462,1.15902,1.00411
188.535,15.73039,-0.00887675,1.17021,1.00371
189.235,15.7518,-0.009399799,1.17842,1.00331
189.935,15.7733,-0.01028201,1.18927,1.00291
190.635,15.79481,-0.01061006,1.19868,1.00251
191.335,15.8163,-0.01306501,1.21052,1.00211
192.035,15.8378,-0.01342148,1.21781,1.00171
192.735,15.85931,-0.01426696,1.23045,1.00131
193.435,15.88076,-0.01464633,1.24086,1.00091
194.135,15.90218,-0.0155269,1.25387,1.00051
194.835,15.9236,-0.01655658,1.26342,1.00011
195.535,15.9451,-0.01688617,1.27372,0.99971
196.235,15.9665,-0.01846997,1.28632,0.9993
196.935,15.98794,-0.0187154,1.29725,0.9989
197.635,16.00935,-0.01986526,1.30852,0.9985
198.335,16.03069,-0.02057401,1.31953,0.9981
199.035,16.05209,-0.02134425,1.33241,0.99769
199.735,16.0734,-0.02260291,1.34446,0.99729
200.435,16.09481,-0.0233863,1.35576,0.99688
201.135,16.1162,-0.02356509,1.36817,0.99648
201.835,16.13746,-0.02496978,1.38131,0.99607
202.535,16.15886,-0.0258713,1.39436,0.99567
203.235,16.18015,-0.02677633,1.40696,0.99526
203.935,16.20146,-0.0281522,1.41976,0.99486
204.635,16.2229,-0.02993125,1.43306,0.99445
205.335,16.2442,-0.03097768,1.44567,0.99404
206.035,16.26559,-0.0327192,1.45932,0.99364
206.735,16.287,-0.03414798,1.47448,0.99323
207.435,16.30836,-0.03581732,1.4872,0.99282
208.135,16.3297,-0.03782847,1.50036,0.99241
208.835,16.3511,-0.03970671,1.51427,0.99201
209.535,16.37246,-0.04170369,1.52907,0.9916
210.235,16.39377,-0.04323794,1.54398,0.99119
210.935,16.41514,-0.04510406,1.55523,0.99078
211.635,16.4364,-0.04613347,1.57245,0.99037
212.335,16.45778,-0.04665083,1.58615,0.98996
213.035,16.4791,-0.0479268,1.60002,0.98955
213.735,16.50044,-0.04947475,1.61219,0.98914
214.435,16.52184,-0.05144391,1.62818,0.98873
215.135,16.54318,-0.05335751,1.64336,0.98831
215.835,16.56447,-0.05498925,1.65599,0.9879
216.535,16.58575,-0.05670993,1.67061,0.98749
217.235,16.60701,-0.05898559,1.68379,0.98708
217.935,16.6283,-0.06061825,1.69792,0.98667
218.635,16.64957,-0.06238649,1.71158,0.98625
219.335,16.67081,-0.0646752,1.72356,0.98584
220.035,16.69211,-0.06699344,1.7349,0.98543
220.735,16.7133,-0.06892522,1.74764,0.98501
221.435,16.73452,-0.07049579,1.75958,0.9846
222.135,16.7558,-0.07236788,1.76956,0.98418
222.835,16.77704,-0.07356369,1.77829,0.98377
223.535,16.79833,-0.07252749,1.78933,0.98335
224.235,16.8196,-0.07344866,1.79889,0.98294
224.935,16.84083,-0.07590736,1.80831,0.98252
225.635,16.86215,-0.07997716,1.81575,0.98211
226.335,16.88342,-0.08362009,1.82398,0.98169
227.035,16.90466,-0.08753446,1.83162,0.98127
227.735,16.92592,-0.09050828,1.83669,0.98086
228.435,16.9472,-0.09332083,1.8429,0.98044
229.135,16.96844,-0.09545952,1.84786,0.98002
229.835,16.9897,-0.09802728,1.85088,0.9796
230.535,17.01097,-0.10008,1.85309,0.97918
231.235,17.0322,-0.10197,1.8567,0.97877
231.935,17.05346,-0.10348,1.85872,0.97835
232.635,17.07465,-0.10546,1.85911,0.97793
233.335,17.09582,-0.10722,1.85898,0.97751
234.035,17.117,-0.10868,1.85829,0.97709
234.735,17.13815,-0.11053,1.85645,0.97667
235.435,17.15939,-0.11299,1.85286,0.97625
236.135,17.1806,-0.11567,1.85102,0.97583
236.835,17.20182,-0.11825,1.84749,0.97541
237.535,17.22304,-0.12026,1.84495,0.97498
238.235,17.24419,-0.12256,1.83829,0.97456
238.935,17.2654,-0.12508,1.83588,0.97414
239.635,17.28668,-0.128,1.8292,0.97372
240.335,17.30785,-0.13043,1.82479,0.9733
241.035,17.3292,-0.13256,1.82073,0.97287
241.735,17.35037,-0.13462,1.81563,0.97245
242.435,17.37155,-0.13691,1.80932,0.97203
243.135,17.39271,-0.13937,1.80286,0.9716
243.835,17.41381,-0.14164,1.79474,0.97118
244.535,17.43499,-0.14384,1.78828,0.97076
245.235,17.45611,-0.14603,1.78272,0.97033
245.935,17.47725,-0.1485,1.77382,0.96991
246.635,17.49844,-0.15107,1.76721,0.96948
247.335,17.51951,-0.15326,1.76052,0.96905
248.035,17.5406,-0.15596,1.75301,0.96863
248.735,17.56167,-0.15891,1.74466,0.9682
249.435,17.58268,-0.16083,1.73681,0.96778
250.135,17.60378,-0.16431,1.73037,0.96735
250.835,17.62489,-0.16691,1.72257,0.96692
251.535,17.646,-0.16896,1.71503,0.9665
252.235,17.66708,-0.17109,1.70709,0.96607
252.935,17.68819,-0.17355,1.70072,0.96564
253.635,17.70934,-0.17692,1.69437,0.96521
254.335,17.73047,-0.17997,1.68699,0.96478
255.035,17.7516,-0.18308,1.67971,0.96436
255.735,17.77272,-0.1862,1.67437,0.96393
256.435,17.7938,-0.18877,1.6658,0.9635
257.135,17.81489,-0.19135,1.65856,0.96307
257.835,17.83604,-0.19483,1.65103,0.96264
258.535,17.8572,-0.19832,1.64433,0.96221
259.235,17.87838,-0.20138,1.63826,0.96178
259.935,17.8995,-0.20471,1.63241,0.96135
260.635,17.92055,-0.20706,1.6233,0.96092
261.335,17.9416,-0.2096,1.61708,0.96049
262.035,17.96262,-0.21279,1.61177,0.96005
262.735,17.98367,-0.2163,1.60431,0.95962
263.435,18.0048,-0.21988,1.59591,0.95919
264.135,18.02608,-0.22274,1.58842,0.95876
264.835,18.04727,-0.2263,1.5815,0.95833
265.535,18.06842,-0.22915,1.57387,0.95789
266.235,18.08952,-0.23266,1.56702,0.95746
266.935,18.11062,-0.23567,1.55802,0.95703
267.635,18.13171,-0.23942,1.55021,0.95659
268.335,18.1528,-0.24348,1.54492,0.95616
269.035,18.1739,-0.24677,1.53505,0.95572
269.735,18.19504,-0.25071,1.52565,0.95529
270.435,18.21611,-0.25516,1.51734,0.95486
271.135,18.23722,-0.25917,1.51006,0.95442
271.835,18.25827,-0.26385,1.50077,0.95398
272.535,18.27935,-0.26765,1.48931,0.95355
273.235,18.30049,-0.27166,1.48168,0.95311
273.935,18.32155,-0.27505,1.47183,0.95268
274.635,18.3427,-0.27966,1.45831,0.95224
275.335,18.3638,-0.2841,1.44826,0.9518
276.035,18.38491,-0.28868,1.44019,0.95137
276.735,18.406,-0.29354,1.42823,0.95093
277.435,18.42713,-0.29822,1.418,0.95049
278.135,18.44827,-0.30305,1.4089,0.95006
278.835,18.46936,-0.30673,1.3946,0.94962
279.535,18.49053,-0.31109,1.38353,0.94918
280.235,18.51164,-0.3155,1.3725,0.94874
280.935,18.53268,-0.32044,1.36125,0.9483
281.635,18.55389,-0.32507,1.34679,0.94786
282.335,18.57508,-0.33029,1.33814,0.94742
283.035,18.59629,-0.3362,1.32479,0.94699
283.735,18.61753,-0.34093,1.31016,0.94655
284.435,18.63861,-0.3471,1.29742,0.94611
285.135,18.6597,-0.35222,1.28426,0.94567
285.835,18.68082,-0.35866,1.27127,0.94523
286.535,18.70196,-0.36327,1.25725,0.94478
287.235,18.7231,-0.36957,1.2432,0.94434
287.935,18.74427,-0.3754,1.22958,0.9439
288.635,18.7654,-0.3822,1.2154,0.94346
289.335,18.78647,-0.38831,1.20076,0.94302
290.035,18.80762,-0.39548,1.18832,0.94258
290.735,18.82874,-0.40187,1.17113,0.94213
291.435,18.84984,-0.40854,1.15696,0.94169
292.135,18.87095,-0.41496,1.13993,0.94125
292.835,18.89203,-0.42165,1.12825,0.94081
293.535,18.91294,-0.42905,1.11131,0.94036
294.235,18.93413,-0.43621,1.09417,0.93992
294.935,18.95523,-0.44459,1.07908,0.93948
295.635,18.9763,-0.45156,1.0616,0.93903
296.335,18.9976,-0.45998,1.04746,0.93859
297.035,19.0188,-0.46654,1.03038,0.93814
297.735,19.03997,-0.47448,1.01515,0.9377
298.435,19.06116,-0.48152,0.99747,0.93725
299.135,19.08237,-0.49048,0.98185,0.93681
299.835,19.1035,-0.49752,0.96676,0.93636
300.535,19.12464,-0.50603,0.94804,0.93592
301.235,19.14572,-0.51358,0.93168,0.93547
301.935,19.16681,-0.52231,0.91488,0.93503
302.635,19.1879,-0.52997,0.89859,0.93458
303.335,19.20911,-0.53902,0.883,0.93413
304.035,19.23025,-0.54745,0.86997,0.93369
304.735,19.25132,-0.55612,0.85372,0.93324
305.435,19.2725,-0.56532,0.83677,0.93279
306.135,19.2936,-0.57424,0.81987,0.93234
306.835,19.31479,-0.58389,0.80377,0.9319
307.535,19.33607,-0.5925,0.78752,0.93145
308.235,19.35729,-0.60281,0.77335,0.931
308.935,19.3785,-0.61119,0.75693,0.93055
309.635,19.39958,-0.62172,0.74402,0.9301
310.335,19.42066,-0.63034,0.73199,0.92965
311.035,19.4418,-0.64115,0.71395,0.9292
311.735,19.4629,-0.64977,0.70282,0.92875
312.435,19.48409,-0.66076,0.68576,0.9283
313.135,19.5053,-0.67049,0.6718,0.92785
313.835,19.52652,-0.68247,0.66036,0.9274
314.535,19.54772,-0.69249,0.6497,0.92695
315.235,19.56889,-0.7035,0.63818,0.9265
315.935,19.59003,-0.71407,0.62693,0.92605
316.635,19.6112,-0.72377,0.61534,0.9256
317.335,19.63239,-0.73446,0.60492,0.92515
318.035,19.65355,-0.74458,0.5952,0.9247
318.735,19.6748,-0.75627,0.58708,0.92425
319.435,19.69595,-0.76701,0.57652,0.92379
320.135,19.71709,-0.78022,0.5684,0.92334
320.835,19.7383,-0.79121,0.56089,0.92289
321.535,19.75943,-0.80444,0.55427,0.92244
322.235,19.78064,-0.81453,0.54726,0.92198
322.935,19.80189,-0.82679,0.54169,0.92153
323.635,19.82313,-0.83693,0.53599,0.92108
324.335,19.84439,-0.84957,0.53198,0.92062
325.035,19.8657,-0.85992,0.52863,0.92017
325.735,19.8869,-0.8727,0.52484,0.91972
326.435,19.90814,-0.88444,0.52375,0.91926
327.135,19.92936,-0.89747,0.51904,0.91881
327.835,19.95059,-0.90958,0.51714,0.91835
328.535,19.9719,-0.92128,0.51671,0.9179
329.235,19.9932,-0.93377,0.51924,0.91744
329.935,20.01446,-0.94545,0.51545,0.91699
330.635,20.03579,-0.95889,0.51651,0.91653
331.335,20.05708,-0.97063,0.51781,0.91608
332.035,20.07836,-0.98442,0.51993,0.91562
332.735,20.09966,-0.99575,0.5218,0.91516
333.435,20.12099,-1.01016,0.52312,0.91471
334.135,20.1422,-1.02196,0.52579,0.91425
334.835,20.1635,-1.03595,0.5294,0.91379
335.535,20.18458,-1.04734,0.53184,0.91334
336.235,20.20586,-1.06152,0.53254,0.91288
336.935,20.2272,-1.07404,0.53762,0.91242
337.635,20.24859,-1.08811,0.54091,0.91196
338.335,20.27018,-1.1015,0.54505,0.91151
339.035,20.29158,-1.11536,0.55004,0.91105
339.735,20.3129,-1.1293,0.55345,0.91059
340.435,20.33425,-1.14265,0.55667,0.91013
341.135,20.35559,-1.15805,0.55896,0.90967
341.835,20.37689,-1.17099,0.56585,0.90921
342.535,20.39834,-1.187,0.56855,0.90875
343.235,20.41975,-1.19925,0.57242,0.90829
343.935,20.44109,-1.21505,0.5774,0.90783
344.635,20.46256,-1.22855,0.5808,0.90737
345.335,20.48395,-1.24537,0.58685,0.90691
346.035,20.5053,-1.25889,0.5923,0.90645
346.735,20.52674,-1.27453,0.59888,0.90599
347.435,20.54816,-1.289,0.60224,0.90553
348.135,20.5696,-1.30554,0.60832,0.90507
348.835,20.59091,-1.32176,0.61346,0.90461
349.535,20.61235,-1.33755,0.61815,0.90415
350.235,20.63379,-1.3542,0.62399,0.90369
350.935,20.65527,-1.37007,0.62763,0.90323
351.635,20.67675,-1.38866,0.63595,0.90276
352.335,20.69821,-1.40406,0.64146,0.9023
353.035,20.71965,-1.42245,0.64467,0.90184
353.735,20.74106,-1.43774,0.65215,0.90138
354.435,20.7625,-1.45766,0.6574,0.90091
355.135,20.78395,-1.47402,0.66444,0.90045
355.835,20.8054,-1.49376,0.67173,0.89999
356.535,20.8269,-1.51045,0.67629,0.89952
357.235,20.84838,-1.52932,0.68033,0.89906
357.935,20.8699,-1.54763,0.68652,0.8986
358.635,20.8912,-1.56653,0.69149,0.89813
359.335,20.91256,-1.58627,0.69809,0.89767
360.035,20.934,-1.60525,0.70231,0.8972
360.735,20.9555,-1.62638,0.70862,0.89674
361.435,20.97707,-1.64473,0.71282,0.89628
362.135,20.9987,-1.66676,0.71667,0.89581
362.835,21.02035,-1.68477,0.72203,0.89535
363.535,21.04192,-1.70773,0.72431,0.89488
364.235,21.06342,-1.72633,0.72755,0.89441
364.935,21.0849,-1.74933,0.72936,0.89395
365.635,21.10633,-1.76899,0.73221,0.89348
366.335,21.12784,-1.79228,0.73403,0.89302
367.035,21.14941,-1.81327,0.73652,0.89255
367.735,21.17097,-1.83578,0.73596,0.89208
368.435,21.19254,-1.85851,0.73717,0.89162
369.135,21.21411,-1.87953,0.73329,0.89115
369.835,21.23563,-1.90327,0.73325,0.89068
370.535,21.2572,-1.92388,0.73247,0.89022
371.235,21.27877,-1.94894,0.72967,0.88975
371.935,21.30033,-1.96964,0.7255,0.88928
372.635,21.32196,-1.99544,0.72247,0.88881
373.335,21.34356,-2.01577,0.71721,0.88834
374.035,21.36511,-2.04,0.70965,0.88788
374.735,21.3867,-2.06081,0.70175,0.88741
375.435,21.40825,-2.08474,0.69275,0.88694
376.135,21.42984,-2.10687,0.68245,0.88647
376.835,21.4514,-2.12926,0.67138,0.886
377.535,21.473,-2.1527,0.65556,0.88553
378.235,21.49465,-2.17443,0.64645,0.88506
378.935,21.51622,-2.19806,0.63007,0.88459
379.635,21.53783,-2.21747,0.61145,0.88412
380.335,21.55949,-2.24113,0.59421,0.88365
381.035,21.58108,-2.26002,0.57352,0.88318
381.735,21.60268,-2.28284,0.55379,0.88271
382.435,21.62429,-2.30073,0.53309,0.88224
383.135,21.64591,-2.32123,0.50914,0.88177
383.835,21.66751,-2.33821,0.48441,0.8813
384.535,21.68909,-2.35709,0.46062,0.88083
385.235,21.71066,-2.37444,0.43759,0.88036
385.935,21.73225,-2.39063,0.41209,0.87988
386.635,21.7539,-2.40678,0.38572,0.87941
387.335,21.7756,-2.42076,0.36318,0.87894
388.035,21.7973,-2.43535,0.33794,0.87847
388.735,21.8189,-2.44673,0.31795,0.878
389.435,21.84058,-2.46047,0.29564,0.87752
390.135,21.86222,-2.47011,0.27585,0.87705
390.835,21.8839,-2.48102,0.25648,0.87658
391.535,21.9056,-2.48944,0.23743,0.87611
392.235,21.92724,-2.49842,0.22159,0.87563
392.935,21.94896,-2.50548,0.21033,0.87516
393.635,21.97065,-2.51263,0.19822,0.87469
394.335,21.99231,-2.51945,0.18621,0.87421
395.035,22.01401,-2.52518,0.17259,0.87374
395.735,22.03566,-2.53068,0.16316,0.87326
396.435,22.0574,-2.53456,0.15639,0.87279
397.135,22.0791,-2.53976,0.14384,0.87232
397.835,22.10077,-2.54462,0.13584,0.87184
398.535,22.12237,-2.54865,0.12939,0.87137
399.235,22.14398,-2.55134,0.12142,0.87089
399.935,22.16572,-2.55489,0.11351,0.87042
400.635,22.1875,-2.55811,0.1076,0.86994
401.335,22.2093,-2.56068,0.1008,0.86947
402.035,22.2312,-2.56338,0.09411385,0.86899
402.735,22.25291,-2.56652,0.08709963,0.86851
403.435,22.27466,-2.57022,0.08527682,0.86804
404.135,22.29645,-2.57378,0.07661156,0.86756
404.835,22.31825,-2.57638,0.07414479,0.86708
405.535,22.34007,-2.57905,0.06802086,0.86661
406.235,22.36194,-2.5817,0.06285015,0.86613
406.935,22.38371,-2.58454,0.05666776,0.86565
407.635,22.40558,-2.58732,0.05301919,0.86518
408.335,22.42737,-2.59029,0.051216,0.8647
409.035,22.44916,-2.59255,0.04421775,0.86422
409.735,22.47096,-2.59495,0.03964597,0.86375
410.435,22.49277,-2.59686,0.03623257,0.86327
411.135,22.51461,-2.59977,0.03281976,0.86279
411.835,22.53641,-2.60295,0.02768211,0.86231
412.535,22.55827,-2.60583,0.02229141,0.86183
413.235,22.58006,-2.60867,0.01922677,0.86135
413.935,22.60189,-2.61105,0.01674287,0.86088
414.635,22.62373,-2.61361,0.01476451,0.8604
415.335,22.64561,-2.61682,0.009923081,0.85992
416.035,22.66749,-2.61931,0.00691852,0.85944
416.735,22.6893,-2.62193,0.003704763,0.85896
417.435,22.71123,-2.62421,0.001157678,0.85848
418.135,22.73303,-2.62646,-0.001443656,0.858
418.835,22.7549,-2.62887,-0.006332287,0.85752
419.535,22.77684,-2.62982,-0.00794175,0.85704
420.235,22.79874,-2.63188,-0.008839599,0.85656
420.935,22.82067,-2.63342,-0.01470754,0.85608
421.635,22.84254,-2.63557,-0.0120423,0.8556
422.335,22.8644,-2.6377,-0.01574968,0.85512
423.035,22.88625,-2.64011,-0.01691754,0.85464
423.735,22.90821,-2.64236,-0.02029693,0.85416
424.435,22.93016,-2.64599,-0.02188717,0.85368
425.135,22.95209,-2.64873,-0.02145712,0.85319
425.835,22.97405,-2.65182,-0.02369264,0.85271
426.535,22.99595,-2.65441,-0.02598786,0.85223
427.235,23.01786,-2.65609,-0.0256805,0.85175
427.935,23.0398,-2.65767,-0.02785755,0.85127
428.635,23.0618,-2.65927,-0.02726396,0.85079
429.335,23.08362,-2.65955,-0.03040032,0.8503
430.035,23.10564,-2.66194,-0.02888384,0.84982
430.735,23.1277,-2.66422,-0.0286289,0.84934
431.435,23.14967,-2.66654,-0.02839699,0.84885
432.135,23.17184,-2.66906,-0.02854942,0.84837
432.835,23.1938,-2.67112,-0.03018719,0.84789
433.535,23.21579,-2.67315,-0.02844174,0.84741
434.235,23.2378,-2.67569,-0.030513,0.84692
434.935,23.25978,-2.67818,-0.02803783,0.84644
435.635,23.2818,-2.68015,-0.02551638,0.84595
436.335,23.3037,-2.68223,-0.02622505,0.84547
437.035,23.32572,-2.68415,-0.02748491,0.84499
437.735,23.3477,-2.68661,-0.02431168,0.8445
438.435,23.36978,-2.68838,-0.02569597,0.84402
439.135,23.39187,-2.69006,-0.02397062,0.84353
439.835,23.41394,-2.69169,-0.02121073,0.84305
440.535,23.436,-2.6938,-0.01988495,0.84256
441.235,23.45801,-2.69585,-0.01773587,0.84208
441.935,23.48002,-2.69849,-0.01879472,0.84159
442.635,23.50207,-2.70116,-0.0175816,0.84111
443.335,23.52415,-2.70349,-0.01295405,0.84062
444.035,23.54622,-2.70537,-0.009116343,0.84014
444.735,23.5683,-2.70703,-0.008693668,0.83965
445.435,23.59035,-2.70862,-0.004178097,0.83916
446.135,23.61241,-2.71033,-0.00372232,0.83868
446.835,23.63449,-2.71195,8.527312e-05,0.83819
447.535,23.65654,-2.71418,0.0003680369,0.83771
448.235,23.6786,-2.71672,0.00385777,0.83722
448.935,23.70071,-2.71896,0.007858858,0.83673
449.635,23.72283,-2.7204,0.009963922,0.83625
450.335,23.745,-2.72158,0.01310624,0.83576
451.035,23.76719,-2.72333,0.01707733,0.83527
451.735,23.7893,-2.72486,0.01877056,0.83478
452.435,23.8114,-2.72705,0.02136324,0.8343
453.135,23.83354,-2.72859,0.02323975,0.83381
453.835,23.85565,-2.73078,0.02918513,0.83332
454.535,23.8778,-2.73344,0.03129958,0.83283
455.235,23.8999,-2.73534,0.03214087,0.83234
455.935,23.9221,-2.73751,0.03796531,0.83186
456.635,23.94417,-2.73942,0.04026173,0.83137
457.335,23.9663,-2.74125,0.04398089,0.83088
458.035,23.98837,-2.74272,0.04467177,0.83039
458.735,24.01051,-2.74429,0.04773767,0.8299
459.435,24.03268,-2.74649,0.05318118,0.82941
460.135,24.05486,-2.74825,0.05432764,0.82892
460.835,24.07715,-2.7497,0.05889681,0.82843
461.535,24.0993,-2.75075,0.06061816,0.82794
462.235,24.12153,-2.75213,0.06679737,0.82745
462.935,24.14368,-2.75397,0.06973424,0.82696
463.635,24.1658,-2.75587,0.07351925,0.82647
464.335,24.1879,-2.75747,0.0767194,0.82598
465.035,24.2101,-2.75915,0.07897781,0.82549
465.735,24.2323,-2.76109,0.07888788,0.825
466.435,24.25461,-2.76299,0.08278464,0.82451
467.135,24.27683,-2.76466,0.08619719,0.82402
467.835,24.29906,-2.76639,0.08974709,0.82353
468.535,24.32125,-2.76817,0.09498782,0.82304
469.235,24.3434,-2.76928,0.09572314,0.82255
469.935,24.3657,-2.76954,0.09683948,0.82206
470.635,24.38794,-2.77154,0.10009,0.82157
471.335,24.41021,-2.77353,0.10374,0.82107
472.035,24.43242,-2.77509,0.10528,0.82058
472.735,24.4546,-2.77716,0.10999,0.82009
473.435,24.4768,-2.77881,0.11121,0.8196
474.135,24.49894,-2.77998,0.11426,0.81911
474.835,24.52114,-2.78165,0.11651,0.81861
475.535,24.54341,-2.78311,0.11705,0.81812
476.235,24.56568,-2.7848,0.12052,0.81763
476.935,24.58796,-2.78699,0.12174,0.81714
477.635,24.6102,-2.78847,0.1246,0.81664
478.335,24.6325,-2.78957,0.12861,0.81615
479.035,24.65474,-2.78962,0.12659,0.81566
479.735,24.677,-2.79122,0.12989,0.81516
480.435,24.69931,-2.79258,0.1297,0.81467
481.135,24.72162,-2.7942,0.13496,0.81418
481.835,24.74395,-2.79572,0.13595,0.81368
482.535,24.76623,-2.79767,0.13916,0.81319
483.235,24.78856,-2.7994,0.14249,0.81269
483.935,24.8109,-2.80058,0.1431,0.8122
484.635,24.83321,-2.80107,0.14439,0.81171
485.335,24.8556,-2.80237,0.14715,0.81121
486.035,24.87785,-2.8038,0.15048,0.81072
486.735,24.89995,-2.805,0.15065,0.81022
487.435,24.92194,-2.80599,0.15143,0.80973
488.135,24.94412,-2.8081,0.15528,0.80923
488.835,24.96643,-2.81015,0.15671,0.80874
489.535,24.98884,-2.81131,0.155,0.80824
490.235,25.01137,-2.81299,0.15679,0.80775
490.935,25.03369,-2.81439,0.15983,0.80725
491.635,25.056,-2.81522,0.16201,0.80675
492.335,25.07834,-2.8165,0.16188,0.80626
493.035,25.10071,-2.81784,0.16437,0.80576
493.735,25.12312,-2.81967,0.16414,0.80527
494.435,25.14549,-2.82142,0.17001,0.80477
495.135,25.1678,-2.82257,0.16665,0.80427
495.835,25.1902,-2.82267,0.16925,0.80378
496.535,25.21247,-2.82412,0.17191,0.80328
497.235,25.23483,-2.82519,0.16933,0.80278
497.935,25.25723,-2.82597,0.17154,0.80229
498.635,25.27962,-2.82725,0.17347,0.80179
499.335,25.30205,-2.82899,0.17159,0.80129
500.035,25.32447,-2.83058,0.1739,0.80079
500.735,25.3468,-2.83147,0.17579,0.8003
501.435,25.36919,-2.83227,0.17853,0.7998
502.135,25.39154,-2.83374,0.17717,0.7993
502.835,25.41392,-2.83482,0.17802,0.7988
503.535,25.43635,-2.83593,0.1811,0.79831
504.235,25.45874,-2.83703,0.18016,0.79781
504.935,25.48114,-2.83836,0.1811,0.79731
505.635,25.50347,-2.83987,0.18382,0.79681
506.335,25.52586,-2.84156,0.18637,0.79631
507.035,25.54834,-2.84246,0.18666,0.79581
507.735,25.5709,-2.84295,0.18403,0.79531
508.435,25.5935,-2.84362,0.18338,0.79481
509.135,25.61608,-2.84477,0.18302,0.79432
509.835,25.6386,-2.84563,0.18621,0.79382
510.535,25.66089,-2.84702,0.18599,0.79332
511.235,25.68316,-2.84733,0.18543,0.79282
511.935,25.70559,-2.84869,0.18929,0.79232
512.635,25.72799,-2.85043,0.19137,0.79182
513.335,25.7505,-2.85186,0.193,0.79132
514.035,25.77313,-2.85247,0.19089,0.79082
514.735,25.7956,-2.85302,0.19175,0.79032
515.435,25.81816,-2.85466,0.19274,0.78982
516.135,25.84071,-2.85627,0.19041,0.78932
516.835,25.86319,-2.85652,0.19153,0.78882
517.535,25.88567,-2.85773,0.19259,0.78832
518.235,25.9082,-2.8591,0.19705,0.78781
518.935,25.93064,-2.8599,0.19425,0.78731
519.635,25.9532,-2.86074,0.19169,0.78681
520.335,25.97574,-2.86197,0.19346,0.78631
521.035,25.9983,-2.86193,0.19294,0.78581
521.735,26.0208,-2.86328,0.19384,0.78531
522.435,26.04328,-2.86399,0.19322,0.78481
523.135,26.06585,-2.86536,0.19383,0.78431
523.835,26.08837,-2.86651,0.19434,0.7838
524.535,26.11082,-2.86782,0.19335,0.7833
525.235,26.13328,-2.86919,0.19548,0.7828
525.935,26.15565,-2.86933,0.19183,0.7823
526.635,26.17802,-2.87064,0.19423,0.78179
527.335,26.20056,-2.87138,0.19048,0.78129
528.035,26.2231,-2.87201,0.19113,0.78079
528.735,26.24577,-2.87266,0.19182,0.78029
529.435,26.26847,-2.87407,0.19,0.77978
530.135,26.2912,-2.8743,0.19256,0.77928
530.835,26.31385,-2.87569,0.18985,0.77878
531.535,26.3365,-2.87724,0.18948,0.77827
532.235,26.35908,-2.87785,0.19046,0.77777
532.935,26.38164,-2.87877,0.18849,0.77727
533.635,26.40427,-2.88022,0.19185,0.77676
534.335,26.4268,-2.88156,0.19023,0.77626
535.035,26.44946,-2.88217,0.19074,0.77576
535.735,26.47208,-2.88341,0.19401,0.77525
536.435,26.4947,-2.88366,0.19278,0.77475
537.135,26.5173,-2.88477,0.19426,0.77424
537.835,26.5399,-2.88474,0.19355,0.77374
538.535,26.56253,-2.88561,0.19496,0.77323
539.235,26.5852,-2.88604,0.19424,0.77273
539.935,26.60785,-2.8873,0.19616,0.77223
540.635,26.6305,-2.88753,0.19709,0.77172
541.335,26.6531,-2.88904,0.19824,0.77122
542.035,26.67577,-2.88908,0.19993,0.77071
542.735,26.69843,-2.8895,0.20038,0.77021
543.435,26.72108,-2.88942,0.20206,0.7697
544.135,26.7437,-2.89068,0.20191,0.76919
544.835,26.76636,-2.89102,0.20297,0.76869
545.535,26.78898,-2.89199,0.20383,0.76818
546.235,26.8117,-2.89248,0.20408,0.76768
546.935,26.83427,-2.89338,0.20853,0.76717
547.635,26.857,-2.89447,0.20512,0.76667
548.335,26.8796,-2.89472,0.20672,0.76616
549.035,26.90222,-2.89586,0.20513,0.76565
549.735,26.92495,-2.89595,0.20575,0.76515
550.435,26.9476,-2.89733,0.20669,0.76464
551.135,26.97036,-2.89736,0.21072,0.76413
551.835,26.9932,-2.89872,0.21144,0.76363
552.535,27.01584,-2.89867,0.21226,0.76312
553.235,27.03854,-2.89861,0.2139,0.76261
553.935,27.06128,-2.90055,0.21265,0.76211
554.635,27.084,-2.90241,0.21182,0.7616
555.335,27.1068,-2.90282,0.21204,0.76109
556.035,27.1295,-2.90413,0.21358,0.76058
556.735,27.15222,-2.90418,0.21501,0.76008
557.435,27.1749,-2.90562,0.21343,0.75957
558.135,27.1976,-2.90472,0.21636,0.75906
558.835,27.22038,-2.90547,0.21453,0.75855
559.535,27.2432,-2.90713,0.21591,0.75804
560.235,27.266,-2.90811,0.2161,0.75754
560.935,27.2887,-2.90853,0.21676,0.75703
561.635,27.31157,-2.90993,0.21653,0.75652
562.335,27.33435,-2.90987,0.21635,0.75601
563.035,27.3571,-2.91001,0.21749,0.7555
563.735,27.38,-2.91117,0.21682,0.75499
564.435,27.40268,-2.91128,0.21394,0.75448
565.135,27.42548,-2.9125,0.21557,0.75398
565.835,27.4482,-2.91283,0.21446,0.75347
566.535,27.47107,-2.91431,0.21455,0.75296
567.235,27.4939,-2.91429,0.21331,0.75245
567.935,27.51667,-2.91574,0.21686,0.75194
568.635,27.5395,-2.91596,0.21284,0.75143
569.335,27.5623,-2.91688,0.21568,0.75092
570.035,27.5851,-2.91609,0.21371,0.75041
570.735,27.60799,-2.9171,0.21194,0.7499
571.435,27.63087,-2.9175,0.2076,0.74939
572.135,27.65365,-2.91838,0.21127,0.74888
572.835,27.6765,-2.9184,0.21033,0.74837
573.535,27.6993,-2.91968,0.20752,0.74786
574.235,27.72213,-2.91982,0.2089,0.74735
574.935,27.7449,-2.92105,0.20751,0.74684
575.635,27.7677,-2.92226,0.20496,0.74633
576.335,27.7905,-2.92238,0.20536,0.74582
577.035,27.8132,-2.92373,0.20488,0.74531
577.735,27.8361,-2.92368,0.20561,0.74479
578.435,27.85898,-2.92393,0.20318,0.74428
579.135,27.8818,-2.92498,0.20238,0.74377
579.835,27.90464,-2.9258,0.19849,0.74326
580.535,27.92747,-2.9263,0.20012,0.74275
581.235,27.9503,-2.92666,0.19847,0.74224
581.935,27.97302,-2.92761,0.19781,0.74173
582.635,27.99578,-2.92772,0.19515,0.74122
583.335,28.0185,-2.92897,0.1926,0.7407
584.035,28.0412,-2.92894,0.19233,0.74019
584.735,28.0641,-2.92914,0.1919,0.73968
585.435,28.087,-2.93026,0.19057,0.73917
586.135,28.10991,-2.92927,0.19205,0.73865
586.835,28.13277,-2.93028,0.19091,0.73814
587.535,28.15561,-2.93056,0.19242,0.73763
588.235,28.1783,-2.9317,0.18964,0.73712
588.935,28.20113,-2.93211,0.18845,0.7366
589.635,28.224,-2.93297,0.18917,0.73609
590.335,28.24697,-2.93422,0.18778,0.73558
591.035,28.26995,-2.93485,0.18504,0.73507
591.735,28.293,-2.93606,0.1826,0.73455
592.435,28.31591,-2.93673,0.18503,0.73404
593.135,28.33887,-2.93873,0.18571,0.73353
593.835,28.3619,-2.93872,0.18281,0.73301
594.535,28.3848,-2.93914,0.18273,0.7325
595.235,28.4077,-2.93978,0.17921,0.73199
595.935,28.43065,-2.9394,0.18216,0.73147
596.635,28.45352,-2.94069,0.18067,0.73096
597.335,28.47643,-2.94068,0.1805,0.73044
598.035,28.4993,-2.94066,0.18246,0.72993
598.735,28.52222,-2.94204,0.17747,0.72942
599.435,28.54519,-2.94195,0.17938,0.7289
600.135,28.56805,-2.94323,0.17794,0.72839
600.835,28.59096,-2.94491,0.18022,0.72787
601.535,28.6139,-2.94483,0.18102,0.72736
602.235,28.63679,-2.94407,0.17938,0.72684
602.935,28.65977,-2.94473,0.1764,0.72633
603.635,28.6827,-2.94398,0.17642,0.72581
604.335,28.70562,-2.94479,0.17673,0.7253
605.035,28.72857,-2.94471,0.17663,0.72479
605.735,28.75153,-2.9461,0.17378,0.72427
606.435,28.77447,-2.94608,0.17558,0.72375
607.135,28.79738,-2.9465,0.1743,0.72324
607.835,28.8203,-2.94738,0.17306,0.72272
608.535,28.84318,-2.94735,0.17469,0.72221
609.235,28.8659,-2.94849,0.17236,0.72169
609.935,28.8888,-2.9487,0.17426,0.72118
610.635,28.91168,-2.94987,0.17598,0.72066
611.335,28.9346,-2.95136,0.176,0.72015
612.035,28.95764,-2.95124,0.17382,0.71963
612.735,28.9806,-2.95263,0.17586,0.71911
613.435,29.00352,-2.95256,0.17344,0.7186
614.135,29.02648,-2.95392,0.17217,0.71808
614.835,29.04944,-2.95395,0.17122,0.71756
615.535,29.07238,-2.9548,0.17054,0.71705
616.235,29.09538,-2.95496,0.16914,0.71653
616.935,29.11843,-2.95524,0.16963,0.71601
617.635,29.1415,-2.95588,0.17037,0.7155
618.335,29.1646,-2.95775,0.16594,0.71498
619.035,29.18768,-2.95956,0.16655,0.71446
619.735,29.2107,-2.95839,0.16643,0.71395
620.435,29.2337,-2.95723,0.16803,0.71343
621.135,29.2566,-2.95778,0.16668,0.71291
621.835,29.2795,-2.95769,0.16567,0.7124
622.535,29.30247,-2.95825,0.1634,0.71188
623.235,29.32545,-2.95897,0.16195,0.71136
623.935,29.34842,-2.95896,0.16439,0.71084
624.635,29.3715,-2.96035,0.1636,0.71033
625.335,29.39449,-2.96032,0.16451,0.70981
626.035,29.41746,-2.96143,0.1624,0.70929
626.735,29.4405,-2.96163,0.16324,0.70877
627.435,29.46345,-2.96159,0.16397,0.70825
628.135,29.48647,-2.96278,0.16772,0.70774
628.835,29.50948,-2.96295,0.16378,0.70722
629.535,29.53252,-2.96292,0.16239,0.7067
630.235,29.5556,-2.96405,0.16321,0.70618
630.935,29.5786,-2.96427,0.15986,0.70566
631.635,29.6018,-2.96477,0.15853,0.70514
632.335,29.6248,-2.96556,0.16071,0.70463
633.035,29.6478,-2.96558,0.15873,0.70411
633.735,29.67078,-2.96557,0.16171,0.70359
634.435,29.69375,-2.96654,0.16119,0.70307
635.135,29.71675,-2.96689,0.16093,0.70255
635.835,29.73981,-2.96721,0.16128,0.70203
636.535,29.7628,-2.96821,0.16649,0.70151
637.235,29.7858,-2.96876,0.1643,0.70099
637.935,29.80878,-2.96953,0.16124,0.70047
638.635,29.83182,-2.96953,0.1632,0.69995
639.335,29.85485,-2.96953,0.16093,0.69943
640.035,29.8779,-2.96971,0.16364,0.69891
640.735,29.90098,-2.97084,0.15987,0.69839
641.435,29.92403,-2.97105,0.16332,0.69787
642.135,29.94714,-2.97219,0.16521,0.69735
642.835,29.9702,-2.97216,0.16794,0.69683
643.535,29.99325,-2.97282,0.16506,0.69631
644.235,30.01632,-2.97346,0.1661,0.69579
644.935,30.0394,-2.97349,0.16957,0.69527
645.635,30.06245,-2.97427,0.16627,0.69475
646.335,30.0856,-2.97446,0.1702,0.69423
647.035,30.1086,-2.9744,0.16956,0.69371
647.735,30.13165,-2.97543,0.17166,0.69319
648.435,30.15472,-2.97545,0.17016,0.69267
649.135,30.1777,-2.97545,0.16909,0.69215
649.835,30.20075,-2.97585,0.17372,0.69163
650.535,30.22375,-2.97686,0.17176,0.69111
651.235,30.24676,-2.97727,0.17569,0.69059
651.935,30.2699,-2.9782,0.17666,0.69007
652.635,30.29294,-2.9782,0.17868,0.68955
653.335,30.31598,-2.9782,0.17634,0.68903
654.035,30.33904,-2.97955,0.17659,0.6885
654.735,30.362,-2.9797,0.17878,0.68798
655.435,30.38503,-2.98066,0.17897,0.68746
656.135,30.40812,-2.98029,0.18004,0.68694
656.835,30.4312,-2.98029,0.17918,0.68642
657.535,30.4543,-2.98066,0.18228,0.6859
658.235,30.47741,-2.98159,0.18326,0.68537
658.935,30.50055,-2.98159,0.18502,0.68485
659.635,30.5237,-2.9816,0.18641,0.68433
660.335,30.54676,-2.98198,0.18818,0.68381
661.035,30.56982,-2.98291,0.18716,0.68329
661.735,30.59289,-2.9829,0.18591,0.68277
662.435,30.61601,-2.98388,0.18724,0.68224
663.135,30.6392,-2.98423,0.18978,0.68172
663.835,30.66227,-2.98477,0.19185,0.6812
664.535,30.6853,-2.98553,0.18895,0.68068
665.235,30.7084,-2.98607,0.19001,0.68015
665.935,30.73143,-2.98547,0.19226,0.67963
666.635,30.75465,-2.98577,0.19,0.67911
667.335,30.7778,-2.98687,0.19258,0.67859
668.035,30.80102,-2.98683,0.19239,0.67806
668.735,30.82418,-2.9881,0.19111,0.67754
669.435,30.8473,-2.98889,0.19238,0.67702
670.135,30.8704,-2.98952,0.19251,0.67649
670.835,30.89351,-2.99082,0.19119,0.67597
671.535,30.9167,-2.99081,0.19031,0.67545
672.235,30.93978,-2.99081,0.19257,0.67492
672.935,30.9628,-2.99143,0.19305,0.6744
673.635,30.98609,-2.99112,0.19255,0.67388
674.335,31.00925,-2.9908,0.19727,0.67335
675.035,31.03248,-2.9908,0.19645,0.67283
675.735,31.0558,-2.99082,0.1963,0.67231
676.435,31.07895,-2.99168,0.19757,0.67178
677.135,31.1021,-2.99143,0.19813,0.67126
677.835,31.12538,-2.99275,0.1983,0.67074
678.535,31.1486,-2.9929,0.19715,0.67021
679.235,31.17173,-2.99397,0.19843,0.66969
679.935,31.19479,-2.99398,0.20047,0.66916
680.635,31.21787,-2.99517,0.20008,0.66864
681.335,31.24101,-2.99637,0.20198,0.66812
682.035,31.26417,-2.99663,0.2021,0.66759
682.735,31.28742,-2.99707,0.20302,0.66707
683.435,31.3106,-2.99793,0.20655,0.66654
684.135,31.33377,-2.99792,0.2061,0.66602
684.835,31.35698,-2.99754,0.20565,0.66549
685.535,31.3802,-2.9973,0.20731,0.66497
686.235,31.40342,-2.99805,0.20314,0.66445
686.935,31.42655,-2.99869,0.20289,0.66392
687.635,31.4498,-2.99937,0.2051,0.6634
688.335,31.47294,-2.99937,0.20264,0.66287
689.035,31.4962,-3.00035,0.20071,0.66235
689.735,31.5194,-3.00068,0.1966,0.66182
690.435,31.5426,-3.00156,0.19504,0.6613
691.135,31.5659,-3.00199,0.19278,0.66077
691.835,31.58905,-3.00201,0.19184,0.66025
692.535,31.6123,-3.00284,0.18652,0.65972
693.235,31.63549,-3.00327,0.18481,0.6592
693.935,31.65867,-3.00242,0.17848,0.65867
694.635,31.6819,-3.00228,0.17284,0.65814
695.335,31.7051,-3.00357,0.1653,0.65762
696.035,31.7283,-3.00357,0.16022,0.65709
696.735,31.7515,-3.00496,0.15495,0.65657
697.435,31.7747,-3.00491,0.14666,0.65604
698.135,31.79795,-3.00619,0.13682,0.65552
698.835,31.8212,-3.00627,0.13449,0.65499
699.535,31.8445,-3.00627,0.12978,0.65447
700.235,31.8677,-3.00627,0.12497,0.65394
700.935,31.8909,-3.00626,0.11707,0.65341
701.635,31.9141,-3.00726,0.11252,0.65289
702.335,31.93725,-3.00758,0.10665,0.65236
703.035,31.96048,-3.00796,0.10033,0.65184
703.735,31.98374,-3.00888,0.09762455,0.65131
704.435,32.00703,-3.00892,0.08905423,0.65078
705.135,32.03034,-3.00959,0.0844683,0.65026
705.835,32.0536,-3.01021,0.0785384,0.64973
706.535,32.07692,-3.01022,0.07431941,0.6492
707.235,32.1002,-3.01022,0.07201598,0.64868
707.935,32.1235,-3.01091,0.06638615,0.64815
708.635,32.14679,-3.01153,0.06378818,0.64763
709.335,32.17005,-3.01154,0.06084008,0.6471
710.035,32.19327,-3.01122,0.05586229,0.64657
710.735,32.21653,-3.01124,0.05507267,0.64605
711.435,32.23976,-3.01218,0.05202755,0.64552
712.135,32.26303,-3.01252,0.04539428,0.64499
712.835,32.28635,-3.01253,0.04437428,0.64447
713.535,32.30963,-3.01315,0.04074552,0.64394
714.235,32.33303,-3.01383,0.04079755,0.64341
714.935,32.35642,-3.01384,0.0367545,0.64288
715.635,32.37979,-3.01384,0.03792522,0.64236
716.335,32.40316,-3.01473,0.0370387,0.64183
717.035,32.42646,-3.01377,0.03447696,0.6413
717.735,32.44975,-3.01385,0.03439884,0.64078
718.435,32.47305,-3.01476,0.0284738,0.64025
719.135,32.49633,-3.01515,0.03143999,0.63972
719.835,32.51967,-3.01516,0.0279618,0.63919
720.535,32.543,-3.01516,0.02974304,0.63867
721.235,32.5663,-3.01516,0.02828303,0.63814
721.935,32.5897,-3.01516,0.02657239,0.63761
722.635,32.613,-3.01513,0.02575271,0.63708
723.335,32.6364,-3.01631,0.02397324,0.63656
724.035,32.65976,-3.01648,0.02070993,0.63603
724.735,32.68309,-3.01648,0.01578111,0.6355
725.435,32.70647,-3.01648,0.02168147,0.63497
726.135,32.72979,-3.01648,0.02110363,0.63445
726.835,32.75311,-3.01662,0.0142285,0.63392
727.535,32.77646,-3.01784,0.01301337,0.63339
728.235,32.7998,-3.0178,0.015173,0.63286
728.935,32.8232,-3.01777,0.01173909,0.63233
729.635,32.84659,-3.01905,0.01144679,0.63181
730.335,32.86993,-3.01779,0.01164331,0.63128
731.035,32.89335,-3.01779,0.009523325,0.63075
731.735,32.91673,-3.01779,0.01134818,0.63022
732.435,32.9401,-3.01779,0.00841148,0.62969
733.135,32.96351,-3.01916,0.0082172,0.62917
733.835,32.98683,-3.01911,0.004919583,0.62864
734.535,33.0102,-3.01911,0.00330815,0.62811
735.235,33.03358,-3.01911,-0.000704648,0.62758
735.935,33.05697,-3.01906,0.000234679,0.62705
736.635,33.0804,-3.02043,0.001961393,0.62652
737.335,33.10376,-3.02042,-0.0003208755,0.626
738.035,33.1272,-3.02042,-0.002166318,0.62547
738.735,33.1505,-3.02042,-0.001878479,0.62494
739.435,33.17385,-3.02139,-0.005845626,0.62441
740.135,33.19723,-3.02173,-0.00830384,0.62388
740.835,33.22061,-3.02174,-0.009497057,0.62335
741.535,33.24403,-3.02174,-0.009402796,0.62282
742.235,33.26744,-3.02173,-0.01313735,0.6223
742.935,33.29091,-3.02179,-0.01166677,0.62177
743.635,33.31427,-3.02269,-0.01667165,0.62124
744.335,33.3377,-3.02173,-0.01750384,0.62071
745.035,33.36114,-3.02182,-0.01813963,0.62018
745.735,33.38458,-3.02306,-0.01942115,0.61965
746.435,33.40802,-3.02304,-0.02598414,0.61912
747.135,33.4315,-3.0227,-0.02202596,0.61859
747.835,33.455,-3.02272,-0.01849244,0.61807
748.535,33.47848,-3.02272,-0.02830733,0.61754
749.235,33.50192,-3.0228,-0.03044161,0.61701
749.935,33.52536,-3.02409,-0.02741312,0.61648
750.635,33.54875,-3.02405,-0.03100657,0.61595
751.335,33.5722,-3.02488,-0.02944338,0.61542
752.035,33.59559,-3.02535,-0.03171949,0.61489
752.735,33.61902,-3.02536,-0.03046882,0.61436
753.435,33.64244,-3.02536,-0.03366963,0.61383
754.135,33.66588,-3.02536,-0.03596908,0.6133
754.835,33.68933,-3.02537,-0.0366724,0.61277
755.535,33.71275,-3.02433,-0.03303196,0.61224
756.235,33.73623,-3.02472,-0.03995094,0.61171
756.935,33.75969,-3.02569,-0.03911805,0.61119
757.635,33.78317,-3.02569,-0.04009867,0.61066
758.335,33.80666,-3.02569,-0.03832128,0.61013
759.035,33.83008,-3.02569,-0.03555242,0.6096
759.735,33.85351,-3.02664,-0.03557837,0.60907
760.435,33.8769,-3.027,-0.03997727,0.60854
761.135,33.90033,-3.02701,-0.039746,0.60801
761.835,33.92373,-3.02701,-0.04174357,0.60748
762.535,33.94719,-3.02701,-0.04480674,0.60695
763.235,33.97058,-3.02701,-0.04433766,0.60642
763.935,33.994,-3.02867,-0.04738711,0.60589
764.635,34.01745,-3.02896,-0.04519624,0.60536
765.335,34.0409,-3.02897,-0.05080413,0.60483
766.035,34.06445,-3.02896,-0.05107849,0.6043
766.735,34.08791,-3.02889,-0.05255813,0.60377
767.435,34.11141,-3.03031,-0.05259218,0.60324
768.135,34.13483,-3.02926,-0.05336605,0.60271
768.835,34.15824,-3.02899,-0.05586183,0.60218
769.535,34.18169,-3.02896,-0.05373478,0.60165
770.235,34.20508,-3.03004,-0.05567506,0.60112
770.935,34.22854,-3.0303,-0.05722404,0.60059
771.635,34.25203,-3.0303,-0.05466587,0.60006
772.335,34.2755,-3.0303,-0.05729175,0.59953
773.035,34.29903,-3.0303,-0.06030694,0.599
773.735,34.32253,-3.0303,-0.06055874,0.59847
774.435,34.34598,-3.0303,-0.06075738,0.59794
775.135,34.36949,-3.03029,-0.05901551,0.59741
775.835,34.39295,-3.03029,-0.05902883,0.59688
776.535,34.41642,-3.03029,-0.06349136,0.59635
777.235,34.4399,-3.03029,-0.06418392,0.59582
777.935,34.46334,-3.03029,-0.06186598,0.59529
778.635,34.48677,-3.03023,-0.06392905,0.59476
779.335,34.51025,-3.03128,-0.0663808,0.59423
780.035,34.53369,-3.03119,-0.06317896,0.5937
780.735,34.55715,-3.03062,-0.06984154,0.59317
781.435,34.58062,-3.03063,-0.06900841,0.59264
782.135,34.6041,-3.03138,-0.06629563,0.59211
782.835,34.62757,-3.03194,-0.06992568,0.59158
783.535,34.65103,-3.03195,-0.06808391,0.59105
784.235,34.67457,-3.03195,-0.06763656,0.59052
784.935,34.69805,-3.03195,-0.06734539,0.58999
785.635,34.72153,-3.03333,-0.07299826,0.58946
786.335,34.74497,-3.03327,-0.07112081,0.58893
787.035,34.76842,-3.03326,-0.07315129,0.5884
787.735,34.7919,-3.03326,-0.07443265,0.58787
788.435,34.81542,-3.03317,-0.08031114,0.58734
789.135,34.83892,-3.03457,-0.07185353,0.58681
789.835,34.86238,-3.03458,-0.07449812,0.58628
790.535,34.8859,-3.03458,-0.07183505,0.58575
791.235,34.90938,-3.03458,-0.07427782,0.58522
791.935,34.93294,-3.03458,-0.07272746,0.58469
792.635,34.95647,-3.03458,-0.06990081,0.58416
793.335,34.97999,-3.03458,-0.07423804,0.58363
793.835,34.99667,-3.03458,-0.07320936,0.58325