File: 01_Data/Engineered_Wood_Furniture/STA/N2/30K_min/Engineered_Wood_Furniture_STA_N2_30KData_22114_R2.csv
##Temp./Â°C,Time/min,Mass loss(subtr.2)/mg,DSC(subtr.2)/(mW/mg),Sensit./(uV/mW)
48.42,10.00917,-0.02961,0.02169874,1.07509
49.12,10.55752,-0.03133432,0.06893381,1.07478
49.82,10.68247,-0.03138622,0.11056,1.07448
50.52,10.772,-0.03019252,0.14633,1.07417
51.22,10.84517,-0.03038988,0.17905,1.07386
51.92,10.9084,-0.03122799,0.21085,1.07355
52.62,10.96539,-0.03087179,0.23801,1.07324
53.32,11.01732,-0.02978456,0.26701,1.07292
54.02,11.06521,-0.02988823,0.29181,1.07261
54.72,11.1104,-0.0308473,0.31713,1.0723
55.42,11.153,-0.03119974,0.33955,1.07199
56.12,11.19347,-0.03144143,0.36109,1.07167
56.82,11.23264,-0.03191104,0.38307,1.07136
57.52,11.27034,-0.03124086,0.40143,1.07104
58.22,11.30626,-0.0304819,0.4213,1.07073
58.92,11.34132,-0.03063533,0.43935,1.07041
59.62,11.3756,-0.03122471,0.4586,1.0701
60.32,11.40916,-0.03180932,0.47777,1.06978
61.02,11.44171,-0.0327911,0.49312,1.06946
61.72,11.47369,-0.03225655,0.50995,1.06914
62.42,11.50498,-0.0330252,0.52622,1.06883
63.12,11.53576,-0.0337603,0.54078,1.06851
63.82,11.56597,-0.03349148,0.55524,1.06819
64.52,11.5959,-0.03388296,0.56686,1.06787
65.22,11.6254,-0.03400574,0.58001,1.06755
65.92,11.65452,-0.03231535,0.59212,1.06723
66.62,11.68319,-0.03185275,0.60669,1.0669
67.32,11.71152,-0.03244739,0.61843,1.06658
68.02,11.73962,-0.03289913,0.63037,1.06626
68.72,11.76753,-0.03287756,0.641,1.06594
69.42,11.7952,-0.0334834,0.65429,1.06561
70.12,11.8226,-0.03469403,0.66511,1.06529
70.82,11.8495,-0.03522817,0.67235,1.06496
71.52,11.8764,-0.03493818,0.686,1.06464
72.22,11.90311,-0.03461316,0.69724,1.06431
72.92,11.9299,-0.03416663,0.70677,1.06398
73.62,11.9564,-0.03377743,0.71579,1.06366
74.32,11.98283,-0.03451486,0.7238,1.06333
75.02,12.00896,-0.03379215,0.7358,1.063
75.72,12.035,-0.03328068,0.74593,1.06267
76.42,12.0608,-0.03321102,0.75578,1.06234
77.12,12.08654,-0.03448482,0.76504,1.06202
77.82,12.11203,-0.03456433,0.77469,1.06169
78.52,12.13738,-0.03452776,0.78289,1.06135
79.22,12.16281,-0.03550236,0.79272,1.06102
79.92,12.18823,-0.03560016,0.8028,1.06069
80.62,12.21355,-0.03668082,0.80989,1.06036
81.32,12.23874,-0.03648734,0.81827,1.06003
82.02,12.2638,-0.03592045,0.82727,1.05969
82.72,12.2887,-0.03736616,0.83554,1.05936
83.42,12.31369,-0.03696903,0.84482,1.05903
84.12,12.33826,-0.03744284,0.85341,1.05869
84.82,12.36293,-0.03721554,0.86198,1.05836
85.52,12.38755,-0.03844875,0.87177,1.05802
86.22,12.41198,-0.03731654,0.87926,1.05768
86.92,12.4367,-0.0385375,0.88497,1.05735
87.62,12.4611,-0.03933381,0.89446,1.05701
88.32,12.4854,-0.03975926,0.9023,1.05667
89.02,12.5098,-0.03995583,0.90777,1.05633
89.72,12.53397,-0.03993515,0.91535,1.056
90.42,12.5581,-0.04122016,0.92228,1.05566
91.12,12.58228,-0.03993647,0.93062,1.05532
91.82,12.60635,-0.04063428,0.93623,1.05498
92.52,12.63049,-0.04118328,0.94279,1.05464
93.22,12.65441,-0.04035262,0.9502,1.0543
93.92,12.6783,-0.04125054,0.95784,1.05395
94.62,12.7021,-0.04113832,0.96225,1.05361
95.32,12.72588,-0.0411588,0.96873,1.05327
96.02,12.74975,-0.03979034,0.97391,1.05293
96.72,12.77356,-0.03988582,0.97797,1.05258
97.42,12.79733,-0.0419817,0.98235,1.05224
98.12,12.8211,-0.04242845,0.98883,1.05189
98.82,12.84482,-0.04363002,0.99393,1.05155
99.52,12.86865,-0.0450869,0.99819,1.0512
100.22,12.8924,-0.04513681,1.00235,1.05086
100.92,12.9162,-0.04486057,1.00389,1.05051
101.62,12.93975,-0.04508211,1.00795,1.05016
102.32,12.96332,-0.04509172,1.00978,1.04982
103.02,12.9869,-0.04554978,1.01366,1.04947
103.72,13.01038,-0.04639255,1.01685,1.04912
104.42,13.03397,-0.04642248,1.01951,1.04877
105.12,13.05743,-0.04721672,1.02023,1.04842
105.82,13.081,-0.04770857,1.02139,1.04807
106.52,13.1046,-0.04771086,1.02188,1.04772
107.22,13.1281,-0.04771714,1.02333,1.04737
107.92,13.1517,-0.04858133,1.02499,1.04702
108.62,13.17526,-0.04901906,1.02558,1.04667
109.32,13.19878,-0.04902993,1.02575,1.04632
110.02,13.2222,-0.04902999,1.02625,1.04596
110.72,13.2456,-0.04902948,1.02634,1.04561
111.42,13.2691,-0.04902953,1.02661,1.04526
112.12,13.2924,-0.0504342,1.02694,1.0449
112.82,13.31586,-0.05034431,1.02624,1.04455
113.52,13.3392,-0.0503401,1.02584,1.04419
114.22,13.36256,-0.05049789,1.0239,1.04384
114.92,13.38585,-0.05169454,1.02706,1.04348
115.62,13.4091,-0.05166004,1.02947,1.04313
116.32,13.4324,-0.05166116,1.03159,1.04277
117.02,13.45571,-0.05177861,1.03552,1.04241
117.72,13.47909,-0.05298127,1.04023,1.04206
118.42,13.5024,-0.05297814,1.04232,1.0417
119.12,13.5255,-0.05297989,1.04533,1.04134
119.82,13.5487,-0.05297998,1.04842,1.04098
120.52,13.57192,-0.05298247,1.05091,1.04062
121.22,13.59508,-0.05311017,1.05249,1.04026
121.92,13.6183,-0.05396841,1.05209,1.0399
122.62,13.6414,-0.05402092,1.05377,1.03954
123.32,13.66446,-0.05428136,1.05359,1.03918
124.02,13.6874,-0.05428957,1.05485,1.03882
124.72,13.7105,-0.05429344,1.0536,1.03845
125.42,13.73356,-0.05451214,1.05534,1.03809
126.12,13.7566,-0.0556365,1.05599,1.03773
126.82,13.7797,-0.05560936,1.05243,1.03737
127.52,13.8027,-0.0555737,1.05264,1.037
128.22,13.8255,-0.05675445,1.04998,1.03664
128.92,13.8483,-0.05692789,1.05109,1.03627
129.62,13.8711,-0.05693021,1.0498,1.03591
130.32,13.89391,-0.05693002,1.05074,1.03554
131.02,13.9168,-0.05693,1.04859,1.03518
131.72,13.93961,-0.05693,1.04971,1.03481
132.42,13.96243,-0.05693,1.04836,1.03444
133.12,13.98521,-0.05693,1.04839,1.03407
133.82,14.00792,-0.05693001,1.04937,1.03371
134.52,14.0306,-0.05692988,1.04638,1.03334
135.22,14.0532,-0.05692514,1.0469,1.03297
135.92,14.07579,-0.05795533,1.04501,1.0326
136.62,14.0984,-0.05823633,1.04658,1.03223
137.32,14.12098,-0.05824037,1.04537,1.03186
138.02,14.1437,-0.05824004,1.04691,1.03149
138.72,14.16624,-0.05824013,1.04494,1.03112
139.42,14.18878,-0.05824039,1.04588,1.03075
140.12,14.21125,-0.05877056,1.04509,1.03038
140.82,14.23366,-0.05954096,1.04785,1.03001
141.52,14.2562,-0.05849165,1.04836,1.02963
142.22,14.27865,-0.05825225,1.04859,1.02926
142.92,14.3012,-0.0582496,1.04983,1.02889
143.62,14.32355,-0.05824996,1.05167,1.02851
144.32,14.346,-0.05825,1.05287,1.02814
145.02,14.3683,-0.05825003,1.05413,1.02776
145.72,14.39065,-0.05824878,1.05402,1.02739
146.42,14.4131,-0.05820362,1.05595,1.02701
147.12,14.43546,-0.05917123,1.05631,1.02664
147.82,14.45774,-0.05947639,1.05794,1.02626
148.52,14.48,-0.06021309,1.06088,1.02589
149.22,14.50226,-0.06021885,1.06465,1.02551
149.92,14.52447,-0.06021992,1.06672,1.02513
150.62,14.5467,-0.06022,1.06755,1.02475
151.32,14.569,-0.06022,1.07275,1.02438
152.02,14.59113,-0.06022,1.0761,1.024
152.72,14.61321,-0.06021999,1.07926,1.02362
153.42,14.63534,-0.0602198,1.08311,1.02324
154.12,14.65739,-0.06021787,1.08396,1.02286
154.82,14.67959,-0.06023045,1.08725,1.02248
155.52,14.7018,-0.06001848,1.09115,1.0221
156.22,14.72395,-0.05956844,1.095,1.02172
156.92,14.7462,-0.06063461,1.09715,1.02134
157.62,14.7682,-0.06087563,1.10271,1.02095
158.32,14.7903,-0.06088032,1.1062,1.02057
159.02,14.8124,-0.06088171,1.10927,1.02019
159.72,14.8344,-0.06091426,1.11635,1.01981
160.42,14.85634,-0.06052982,1.11792,1.01942
161.12,14.87834,-0.06054962,1.12267,1.01904
161.82,14.9003,-0.06055002,1.12739,1.01865
162.52,14.92235,-0.06054989,1.13268,1.01827
163.22,14.9444,-0.06054757,1.13653,1.01789
163.92,14.96633,-0.06051618,1.14257,1.0175
164.62,14.98833,-0.06243608,1.1457,1.01711
165.32,15.01034,-0.06284956,1.15073,1.01673
166.02,15.03236,-0.06284832,1.15473,1.01634
166.72,15.05439,-0.06281639,1.16141,1.01595
167.42,15.0763,-0.06320091,1.16461,1.01557
168.12,15.09813,-0.06318083,1.16994,1.01518
168.82,15.1199,-0.06317513,1.17599,1.01479
169.52,15.1417,-0.06353848,1.18209,1.0144
170.22,15.1636,-0.06342178,1.18762,1.01401
170.92,15.18545,-0.06456926,1.19299,1.01363
171.62,15.2073,-0.06449353,1.19967,1.01324
172.32,15.22915,-0.06449014,1.20617,1.01285
173.02,15.25094,-0.06529724,1.21124,1.01246
173.72,15.2727,-0.06579625,1.21955,1.01207
174.42,15.29452,-0.06580912,1.22341,1.01167
175.12,15.31634,-0.06580996,1.22939,1.01128
175.82,15.33815,-0.06581,1.23709,1.01089
176.52,15.36,-0.06581002,1.24269,1.0105
177.22,15.3817,-0.06581093,1.24972,1.01011
177.92,15.4034,-0.06583158,1.26001,1.00971
178.62,15.4251,-0.06637846,1.26676,1.00932
179.32,15.44675,-0.06712373,1.27273,1.00893
180.02,15.46843,-0.06712531,1.27946,1.00853
180.72,15.49,-0.06784929,1.28955,1.00814
181.42,15.51162,-0.06842723,1.29841,1.00774
182.12,15.5333,-0.06843342,1.30778,1.00735
182.82,15.5549,-0.06938364,1.31436,1.00695
183.52,15.57656,-0.06974803,1.32274,1.00656
184.22,15.59818,-0.0697721,1.33173,1.00616
184.92,15.61982,-0.07079096,1.34257,1.00576
185.62,15.6414,-0.07106812,1.35451,1.00537
186.32,15.66298,-0.07106406,1.36271,1.00497
187.02,15.68455,-0.07196424,1.37283,1.00457
187.72,15.70602,-0.07343534,1.38228,1.00417
188.42,15.72747,-0.0739087,1.39154,1.00378
189.12,15.74889,-0.07503439,1.40458,1.00338
189.82,15.7703,-0.07502756,1.41348,1.00298
190.52,15.79181,-0.07498072,1.42449,1.00258
191.22,15.8133,-0.0762846,1.43498,1.00218
191.92,15.8348,-0.07634692,1.44718,1.00178
192.62,15.85627,-0.07891086,1.45522,1.00138
193.32,15.87781,-0.07915946,1.46717,1.00098
194.02,15.89921,-0.08051127,1.4784,1.00058
194.72,15.92063,-0.08048638,1.48999,1.00017
195.42,15.94205,-0.08171555,1.50343,0.99977
196.12,15.9634,-0.08198267,1.5151,0.99937
196.82,15.98489,-0.08335318,1.52881,0.99897
197.52,16.00627,-0.083668,1.54008,0.99857
198.22,16.02768,-0.08470715,1.55127,0.99816
198.92,16.04908,-0.08533209,1.56626,0.99776
199.62,16.07039,-0.08610032,1.57585,0.99735
200.32,16.09175,-0.08772071,1.59042,0.99695
201.02,16.1131,-0.08888305,1.60318,0.99655
201.72,16.13446,-0.09057209,1.61522,0.99614
202.42,16.15579,-0.09159187,1.6288,0.99574
203.12,16.17715,-0.09282786,1.64185,0.99533
203.82,16.19849,-0.09427794,1.65465,0.99492
204.52,16.21986,-0.09473521,1.66784,0.99452
205.22,16.2412,-0.09584678,1.68205,0.99411
205.92,16.26258,-0.09749776,1.69572,0.9937
206.62,16.2839,-0.09855822,1.71069,0.9933
207.32,16.30529,-0.10029,1.72302,0.99289
208.02,16.3266,-0.10168,1.73813,0.99248
208.72,16.34799,-0.10245,1.7501,0.99207
209.42,16.36934,-0.10389,1.76615,0.99166
210.12,16.3907,-0.10468,1.78027,0.99125
210.82,16.412,-0.10646,1.79537,0.99085
211.52,16.43329,-0.10843,1.80876,0.99044
212.22,16.4546,-0.11147,1.82508,0.99003
212.92,16.47588,-0.114,1.84149,0.98962
213.62,16.49726,-0.11608,1.8553,0.9892
214.32,16.51855,-0.11798,1.86909,0.98879
215.02,16.53991,-0.11959,1.88175,0.98838
215.72,16.5612,-0.12081,1.89658,0.98797
216.42,16.58253,-0.1221,1.91333,0.98756
217.12,16.60386,-0.12372,1.92638,0.98715
217.82,16.62521,-0.12523,1.9401,0.98673
218.52,16.6465,-0.12688,1.95533,0.98632
219.22,16.66781,-0.12876,1.96791,0.98591
219.92,16.68908,-0.13095,1.98292,0.98549
220.62,16.71035,-0.13353,1.99453,0.98508
221.32,16.73162,-0.13573,2.00647,0.98467
222.02,16.7529,-0.13819,2.01606,0.98425
222.72,16.77422,-0.14045,2.02819,0.98384
223.42,16.79553,-0.14245,2.0382,0.98342
224.12,16.8169,-0.14435,2.04858,0.98301
224.82,16.8382,-0.14623,2.05698,0.98259
225.52,16.85945,-0.14832,2.06687,0.98217
226.22,16.8808,-0.15075,2.07293,0.98176
226.92,16.90196,-0.1528,2.08055,0.98134
227.62,16.92318,-0.15489,2.08725,0.98092
228.32,16.9444,-0.15727,2.09353,0.98051
229.02,16.9656,-0.1593,2.09649,0.98009
229.72,16.98686,-0.16139,2.09864,0.97967
230.42,17.00812,-0.16408,2.10255,0.97925
231.12,17.0293,-0.16796,2.10703,0.97883
231.82,17.05055,-0.1709,2.10761,0.97842
232.52,17.07179,-0.17298,2.10826,0.978
233.22,17.09301,-0.17499,2.11011,0.97758
233.92,17.11421,-0.17718,2.1071,0.97716
234.62,17.13551,-0.17898,2.10954,0.97674
235.32,17.1567,-0.18059,2.10773,0.97632
236.02,17.17786,-0.18238,2.10667,0.9759
236.72,17.19908,-0.18558,2.09961,0.97548
237.42,17.2202,-0.18815,2.09785,0.97505
238.12,17.24145,-0.19061,2.09362,0.97463
238.82,17.2627,-0.19274,2.08967,0.97421
239.52,17.2838,-0.1948,2.08637,0.97379
240.22,17.3051,-0.19734,2.07995,0.97337
240.92,17.32625,-0.19964,2.07399,0.97294
241.62,17.3474,-0.20181,2.07007,0.97252
242.32,17.36854,-0.20384,2.06286,0.9721
243.02,17.38964,-0.20581,2.05496,0.97167
243.72,17.41079,-0.20787,2.0503,0.97125
244.42,17.43196,-0.21049,2.04404,0.97082
245.12,17.45315,-0.21245,2.03566,0.9704
245.82,17.47435,-0.21453,2.03102,0.96998
246.52,17.49553,-0.21632,2.02292,0.96955
247.22,17.51669,-0.21856,2.01708,0.96912
247.92,17.53785,-0.22089,2.00925,0.9687
248.62,17.55904,-0.22386,2.00385,0.96827
249.32,17.58015,-0.22707,1.99366,0.96785
250.02,17.60126,-0.22922,1.98776,0.96742
250.72,17.6222,-0.23175,1.98092,0.96699
251.42,17.6433,-0.23435,1.97444,0.96657
252.12,17.6644,-0.2372,1.96741,0.96614
252.82,17.6855,-0.24037,1.95949,0.96571
253.52,17.70668,-0.24337,1.95305,0.96528
254.22,17.72791,-0.24671,1.94792,0.96485
254.92,17.749,-0.24919,1.93927,0.96443
255.62,17.7702,-0.25203,1.93455,0.964
256.32,17.79137,-0.25504,1.92697,0.96357
257.02,17.81254,-0.2581,1.91959,0.96314
257.72,17.83364,-0.2612,1.91471,0.96271
258.42,17.85473,-0.26418,1.90909,0.96228
259.12,17.8759,-0.26811,1.90073,0.96185
259.82,17.89694,-0.27108,1.89287,0.96142
260.52,17.91805,-0.27363,1.88771,0.96099
261.22,17.93916,-0.2763,1.88116,0.96056
261.92,17.9602,-0.27941,1.87596,0.96012
262.62,17.9813,-0.28394,1.86905,0.95969
263.32,18.00233,-0.28636,1.86517,0.95926
264.02,18.02337,-0.28916,1.85391,0.95883
264.72,18.0444,-0.292,1.85091,0.9584
265.42,18.06547,-0.29518,1.84405,0.95796
266.12,18.08654,-0.29872,1.83562,0.95753
266.82,18.10762,-0.3029,1.82771,0.9571
267.52,18.1287,-0.30759,1.8203,0.95666
268.22,18.1498,-0.31078,1.81355,0.95623
268.92,18.17089,-0.3142,1.80198,0.9558
269.62,18.19196,-0.31771,1.79778,0.95536
270.32,18.21295,-0.32155,1.78818,0.95493
271.02,18.23405,-0.32547,1.78234,0.95449
271.72,18.25512,-0.32872,1.77298,0.95406
272.42,18.2762,-0.33273,1.76393,0.95362
273.12,18.29737,-0.33643,1.75313,0.95319
273.82,18.3184,-0.34011,1.74577,0.95275
274.52,18.33951,-0.34292,1.73664,0.95231
275.22,18.36059,-0.34786,1.72745,0.95188
275.92,18.38165,-0.35299,1.71561,0.95144
276.62,18.4028,-0.35706,1.70814,0.951
277.32,18.42389,-0.3625,1.69766,0.95057
278.02,18.4449,-0.36824,1.68628,0.95013
278.72,18.46594,-0.37372,1.67791,0.94969
279.42,18.4869,-0.37824,1.66572,0.94925
280.12,18.50798,-0.38322,1.65592,0.94881
280.82,18.52909,-0.38707,1.64327,0.94837
281.52,18.55029,-0.39204,1.63348,0.94794
282.22,18.57141,-0.39625,1.62003,0.9475
282.92,18.59252,-0.40181,1.60475,0.94706
283.62,18.61361,-0.40684,1.59704,0.94662
284.32,18.63465,-0.41344,1.58318,0.94618
285.02,18.65565,-0.41869,1.57215,0.94574
285.72,18.67674,-0.42477,1.55669,0.9453
286.42,18.6979,-0.4298,1.54445,0.94486
287.12,18.71893,-0.43541,1.53058,0.94442
287.82,18.74,-0.441,1.52136,0.94397
288.52,18.76114,-0.44715,1.50728,0.94353
289.22,18.78219,-0.45378,1.49231,0.94309
289.92,18.80327,-0.46005,1.47746,0.94265
290.62,18.82443,-0.46665,1.46193,0.94221
291.32,18.84551,-0.47227,1.44945,0.94177
292.02,18.8667,-0.47906,1.4343,0.94132
292.72,18.88784,-0.48475,1.42052,0.94088
293.42,18.909,-0.49199,1.40431,0.94044
294.12,18.9301,-0.49841,1.38942,0.93999
294.82,18.9512,-0.50664,1.37382,0.93955
295.52,18.97237,-0.51453,1.35956,0.93911
296.22,18.99346,-0.52245,1.34314,0.93866
296.92,19.01456,-0.52904,1.32939,0.93822
297.62,19.03576,-0.53754,1.3117,0.93777
298.32,19.0569,-0.54507,1.29747,0.93733
299.02,19.07799,-0.55263,1.28217,0.93688
299.72,19.09914,-0.55928,1.26683,0.93644
300.42,19.1202,-0.56674,1.25213,0.93599
301.12,19.1413,-0.57515,1.23595,0.93555
301.82,19.16242,-0.58356,1.2184,0.9351
302.52,19.18352,-0.59264,1.20415,0.93465
303.22,19.20467,-0.60105,1.1866,0.93421
303.92,19.2258,-0.61049,1.17161,0.93376
304.62,19.24691,-0.61828,1.15654,0.93331
305.32,19.26812,-0.62824,1.14129,0.93286
306.02,19.28923,-0.63654,1.12907,0.93242
306.72,19.3103,-0.64685,1.1141,0.93197
307.42,19.33137,-0.65458,1.10034,0.93152
308.12,19.35243,-0.66344,1.08555,0.93107
308.82,19.3735,-0.67127,1.06977,0.93062
309.52,19.39463,-0.68186,1.05546,0.93018
310.22,19.41581,-0.69152,1.04328,0.92973
310.92,19.437,-0.70236,1.02803,0.92928
311.62,19.45814,-0.71168,1.01384,0.92883
312.32,19.4793,-0.72091,1.00255,0.92838
313.02,19.50046,-0.73191,0.99263,0.92793
313.72,19.52159,-0.74188,0.97952,0.92748
314.42,19.5428,-0.75312,0.96513,0.92703
315.12,19.56401,-0.76301,0.95319,0.92658
315.82,19.58522,-0.77278,0.94342,0.92613
316.52,19.60639,-0.78244,0.93436,0.92568
317.22,19.62758,-0.79424,0.92233,0.92522
317.92,19.64871,-0.80378,0.91385,0.92477
318.62,19.66985,-0.81599,0.9004,0.92432
319.32,19.69099,-0.82567,0.89421,0.92387
320.02,19.71213,-0.83874,0.88629,0.92342
320.72,19.73324,-0.8483,0.87943,0.92296
321.42,19.75439,-0.86032,0.87342,0.92251
322.12,19.7756,-0.87117,0.86525,0.92206
322.82,19.7968,-0.88388,0.86009,0.92161
323.52,19.81802,-0.8954,0.85567,0.92115
324.22,19.83928,-0.90727,0.84982,0.9207
324.92,19.86054,-0.91874,0.84475,0.92025
325.62,19.88179,-0.9298,0.8415,0.91979
326.32,19.90306,-0.94196,0.83994,0.91934
327.02,19.92424,-0.95335,0.83732,0.91888
327.72,19.94527,-0.96683,0.83436,0.91843
328.42,19.96647,-0.9781,0.83441,0.91797
329.12,19.98766,-0.99142,0.83473,0.91752
329.82,20.00897,-1.00231,0.83344,0.91706
330.52,20.03035,-1.01593,0.83618,0.91661
331.22,20.05164,-1.02726,0.83317,0.91615
331.92,20.0729,-1.04091,0.83712,0.9157
332.62,20.09405,-1.05201,0.83791,0.91524
333.32,20.1153,-1.06513,0.83699,0.91478
334.02,20.13666,-1.07705,0.84183,0.91433
334.72,20.15805,-1.09072,0.84527,0.91387
335.42,20.17941,-1.10363,0.8478,0.91341
336.12,20.20082,-1.11655,0.85097,0.91295
336.82,20.2221,-1.12962,0.8513,0.9125
337.52,20.24328,-1.14211,0.85379,0.91204
338.22,20.2646,-1.15637,0.85754,0.91158
338.92,20.28585,-1.16847,0.86553,0.91112
339.62,20.30711,-1.18335,0.86768,0.91067
340.32,20.32846,-1.19642,0.86809,0.91021
341.02,20.34991,-1.2123,0.87494,0.90975
341.72,20.37125,-1.22466,0.88125,0.90929
342.42,20.39271,-1.2401,0.88328,0.90883
343.12,20.41408,-1.25333,0.89198,0.90837
343.82,20.43541,-1.26892,0.89479,0.90791
344.52,20.45675,-1.2823,0.89877,0.90745
345.22,20.47804,-1.29828,0.90443,0.90699
345.92,20.49944,-1.3135,0.91006,0.90653
346.62,20.52082,-1.32849,0.91444,0.90607
347.32,20.54224,-1.34357,0.92133,0.90561
348.02,20.56365,-1.35783,0.92799,0.90515
348.72,20.58509,-1.37485,0.93112,0.90469
349.42,20.6065,-1.38972,0.93755,0.90423
350.12,20.62793,-1.40719,0.94451,0.90376
350.82,20.64937,-1.42112,0.94963,0.9033
351.52,20.67078,-1.43836,0.95801,0.90284
352.22,20.6922,-1.45328,0.96252,0.90238
352.92,20.71368,-1.47177,0.96839,0.90192
353.62,20.7351,-1.48751,0.97708,0.90145
354.32,20.7566,-1.50697,0.97963,0.90099
355.02,20.7781,-1.52427,0.9894,0.90053
355.72,20.79954,-1.54223,0.99526,0.90006
356.42,20.82104,-1.56018,0.99937,0.8996
357.12,20.84245,-1.57773,1.00731,0.89914
357.82,20.86392,-1.59722,1.01092,0.89867
358.52,20.8854,-1.61437,1.01929,0.89821
359.22,20.90693,-1.63492,1.02368,0.89775
359.92,20.92845,-1.65233,1.02983,0.89728
360.62,20.9499,-1.67392,1.03466,0.89682
361.32,20.97145,-1.69107,1.04215,0.89635
362.02,20.99288,-1.71266,1.05053,0.89589
362.72,21.0144,-1.73133,1.05037,0.89542
363.42,21.03601,-1.75336,1.05794,0.89496
364.12,21.0576,-1.77285,1.06068,0.89449
364.82,21.0792,-1.79403,1.0664,0.89403
365.52,21.10077,-1.81537,1.06785,0.89356
366.22,21.12231,-1.83804,1.07106,0.89309
366.92,21.14388,-1.86106,1.07497,0.89263
367.62,21.16542,-1.88076,1.07318,0.89216
368.32,21.1869,-1.90317,1.07569,0.89169
369.02,21.20841,-1.92278,1.07716,0.89123
369.72,21.22995,-1.94808,1.07435,0.89076
370.42,21.25151,-1.96869,1.07186,0.89029
371.12,21.27311,-1.99342,1.0704,0.88982
371.82,21.29465,-2.0136,1.06801,0.88936
372.52,21.3162,-2.03743,1.06223,0.88889
373.22,21.33782,-2.05945,1.05616,0.88842
373.92,21.35947,-2.08265,1.0518,0.88795
374.62,21.38109,-2.10529,1.04196,0.88748
375.32,21.4028,-2.12714,1.03587,0.88702
376.02,21.42444,-2.15118,1.02633,0.88655
376.72,21.44608,-2.17189,1.01291,0.88608
377.42,21.46773,-2.19591,1.00165,0.88561
378.12,21.48931,-2.21548,0.98671,0.88514
378.82,21.51073,-2.24079,0.97245,0.88467
379.52,21.5323,-2.26005,0.95571,0.8842
380.22,21.5539,-2.28329,0.93839,0.88373
380.92,21.5756,-2.30236,0.9159,0.88326
381.62,21.5974,-2.32346,0.89557,0.88279
382.32,21.61905,-2.3432,0.87328,0.88232
383.02,21.6406,-2.36356,0.84993,0.88185
383.72,21.66225,-2.383,0.8274,0.88138
384.42,21.68388,-2.39965,0.80096,0.88091
385.12,21.7056,-2.41745,0.77686,0.88043
385.82,21.7272,-2.43249,0.74975,0.87996
386.52,21.74888,-2.45007,0.72516,0.87949
387.22,21.7705,-2.46313,0.70044,0.87902
387.92,21.7922,-2.47866,0.67333,0.87855
388.62,21.81396,-2.49131,0.65043,0.87807
389.32,21.83571,-2.50403,0.62525,0.8776
390.02,21.85735,-2.5146,0.60314,0.87713
390.72,21.87898,-2.52535,0.58452,0.87666
391.42,21.9006,-2.53464,0.56703,0.87618
392.12,21.92215,-2.54272,0.54933,0.87571
392.82,21.94381,-2.55088,0.53448,0.87524
393.52,21.96561,-2.55796,0.51729,0.87476
394.22,21.98733,-2.56553,0.50682,0.87429
394.92,22.00907,-2.57059,0.49546,0.87382
395.62,22.03089,-2.57594,0.48335,0.87334
396.32,22.05255,-2.58025,0.47508,0.87287
397.02,22.07425,-2.58515,0.46564,0.87239
397.72,22.096,-2.58965,0.45659,0.87192
398.42,22.1177,-2.59359,0.44946,0.87144
399.12,22.13941,-2.59707,0.44201,0.87097
399.82,22.1612,-2.60045,0.43307,0.87049
400.52,22.1828,-2.60415,0.4253,0.87002
401.22,22.2044,-2.60696,0.41863,0.86954
401.92,22.2261,-2.61031,0.41411,0.86907
402.62,22.2479,-2.61294,0.40978,0.86859
403.32,22.26971,-2.61622,0.40059,0.86812
404.02,22.29159,-2.61924,0.39721,0.86764
404.72,22.31341,-2.62234,0.38985,0.86716
405.42,22.33519,-2.62513,0.38572,0.86669
406.12,22.357,-2.62824,0.37932,0.86621
406.82,22.37878,-2.63142,0.37582,0.86573
407.52,22.4006,-2.63368,0.37197,0.86526
408.22,22.42234,-2.63642,0.36662,0.86478
408.92,22.4441,-2.63894,0.36229,0.8643
409.62,22.46585,-2.64163,0.36077,0.86382
410.32,22.48762,-2.64535,0.35368,0.86335
411.02,22.5095,-2.64798,0.35153,0.86287
411.72,22.53132,-2.65019,0.34756,0.86239
412.42,22.5532,-2.65187,0.34366,0.86191
413.12,22.57501,-2.65414,0.34163,0.86143
413.82,22.59679,-2.65646,0.33802,0.86095
414.52,22.6186,-2.65916,0.33873,0.86048
415.22,22.6404,-2.66179,0.33114,0.86
415.92,22.66212,-2.66316,0.32731,0.85952
416.62,22.68393,-2.66513,0.32645,0.85904
417.32,22.70576,-2.66743,0.32353,0.85856
418.02,22.72766,-2.6709,0.32136,0.85808
418.72,22.74962,-2.67296,0.31624,0.8576
419.42,22.77156,-2.67503,0.31503,0.85712
420.12,22.79349,-2.67744,0.31188,0.85664
420.82,22.81534,-2.67981,0.30976,0.85616
421.52,22.83721,-2.68193,0.30705,0.85568
422.22,22.85905,-2.6839,0.30656,0.8552
422.92,22.8809,-2.68648,0.30595,0.85472
423.62,22.90279,-2.68955,0.30549,0.85424
424.32,22.92465,-2.69236,0.30428,0.85375
425.02,22.94657,-2.69453,0.3028,0.85327
425.72,22.96848,-2.69767,0.29888,0.85279
426.42,22.99033,-2.69931,0.29909,0.85231
427.12,23.01225,-2.701,0.29785,0.85183
427.82,23.0341,-2.70347,0.29924,0.85135
428.52,23.05603,-2.70583,0.30027,0.85086
429.22,23.07793,-2.70781,0.2983,0.85038
429.92,23.09977,-2.71019,0.29704,0.8499
430.62,23.12173,-2.71281,0.29814,0.84942
431.32,23.1436,-2.71452,0.29676,0.84893
432.02,23.1657,-2.71644,0.29801,0.84845
432.72,23.1877,-2.71872,0.29635,0.84797
433.42,23.20973,-2.72092,0.30226,0.84748
434.12,23.2317,-2.72301,0.29911,0.847
434.82,23.25362,-2.72464,0.29863,0.84652
435.52,23.2756,-2.7264,0.30051,0.84603
436.22,23.29756,-2.72844,0.30163,0.84555
436.92,23.31954,-2.73046,0.30388,0.84507
437.62,23.34158,-2.73273,0.30419,0.84458
438.32,23.36358,-2.73507,0.30543,0.8441
439.02,23.3856,-2.73722,0.30577,0.84361
439.72,23.40764,-2.73917,0.30899,0.84313
440.42,23.42961,-2.74078,0.31266,0.84264
441.12,23.4516,-2.74245,0.31176,0.84216
441.82,23.4736,-2.74465,0.3128,0.84167
442.52,23.49556,-2.74688,0.31566,0.84119
443.22,23.5176,-2.74891,0.31954,0.8407
443.92,23.53961,-2.75085,0.32086,0.84022
444.62,23.5617,-2.75253,0.32247,0.83973
445.32,23.58381,-2.7544,0.32439,0.83924
446.02,23.60589,-2.75582,0.32764,0.83876
446.72,23.62794,-2.75752,0.33014,0.83827
447.42,23.65004,-2.759,0.33056,0.83779
448.12,23.6721,-2.76209,0.33387,0.8373
448.82,23.69422,-2.76454,0.33617,0.83681
449.52,23.7164,-2.76631,0.33822,0.83633
450.22,23.73846,-2.7679,0.34343,0.83584
450.92,23.76055,-2.76963,0.34351,0.83535
451.62,23.78262,-2.77116,0.35009,0.83486
452.32,23.8047,-2.77322,0.34951,0.83438
453.02,23.8268,-2.77532,0.35511,0.83389
453.72,23.84891,-2.77723,0.36202,0.8334
454.42,23.87105,-2.77908,0.36176,0.83291
455.12,23.8932,-2.78059,0.36486,0.83242
455.82,23.91534,-2.78206,0.36965,0.83194
456.52,23.93754,-2.78381,0.37365,0.83145
457.22,23.95966,-2.78597,0.37675,0.83096
457.92,23.98183,-2.78859,0.37848,0.83047
458.62,24.00395,-2.79084,0.38287,0.82998
459.32,24.0261,-2.79323,0.38743,0.82949
460.02,24.04831,-2.7949,0.38999,0.829
460.72,24.07041,-2.79672,0.39556,0.82851
461.42,24.0926,-2.79827,0.39791,0.82802
462.12,24.1147,-2.8001,0.39966,0.82753
462.82,24.13682,-2.80154,0.40336,0.82704
463.52,24.15896,-2.80313,0.40853,0.82655
464.22,24.18114,-2.80521,0.41252,0.82606
464.92,24.20334,-2.80676,0.41397,0.82557
465.62,24.2256,-2.80847,0.41759,0.82508
466.32,24.24778,-2.81026,0.42031,0.82459
467.02,24.26997,-2.81179,0.42675,0.8241
467.72,24.29218,-2.81339,0.42575,0.82361
468.42,24.31438,-2.81529,0.43335,0.82312
469.12,24.33665,-2.81685,0.4354,0.82263
469.82,24.35889,-2.81761,0.43627,0.82214
470.52,24.38109,-2.81903,0.44033,0.82165
471.22,24.4033,-2.82002,0.44496,0.82115
471.92,24.4255,-2.82118,0.44562,0.82066
472.62,24.44773,-2.82333,0.44713,0.82017
473.32,24.47002,-2.82551,0.44816,0.81968
474.02,24.49235,-2.82782,0.45533,0.81919
474.72,24.5146,-2.8301,0.45711,0.81869
475.42,24.53687,-2.83244,0.46008,0.8182
476.12,24.55915,-2.83462,0.46323,0.81771
476.82,24.58139,-2.83718,0.46431,0.81722
477.52,24.60365,-2.83873,0.4695,0.81672
478.22,24.62594,-2.83998,0.47106,0.81623
478.92,24.64816,-2.84153,0.47491,0.81574
479.62,24.67044,-2.84387,0.4767,0.81524
480.32,24.69272,-2.84597,0.4787,0.81475
481.02,24.71497,-2.84776,0.48138,0.81426
481.72,24.73716,-2.84858,0.48242,0.81376
482.42,24.75933,-2.84835,0.48432,0.81327
483.12,24.7815,-2.84857,0.48723,0.81278
483.82,24.80367,-2.84987,0.49064,0.81228
484.52,24.82595,-2.85136,0.49139,0.81179
485.22,24.84827,-2.85187,0.49284,0.81129
485.92,24.87065,-2.85323,0.49605,0.8108
486.62,24.893,-2.8553,0.4939,0.8103
487.32,24.9153,-2.85687,0.49853,0.80981
488.02,24.93767,-2.85991,0.49851,0.80931
488.72,24.95996,-2.86157,0.50126,0.80882
489.42,24.9823,-2.8628,0.50148,0.80832
490.12,25.0046,-2.86433,0.50302,0.80783
490.82,25.02688,-2.86585,0.50424,0.80733
491.52,25.0492,-2.86741,0.50549,0.80684
492.22,25.07157,-2.8687,0.50867,0.80634
492.92,25.09391,-2.8689,0.5103,0.80584
493.62,25.11632,-2.87023,0.51172,0.80535
494.32,25.13869,-2.87109,0.50885,0.80485
495.02,25.1611,-2.8727,0.51233,0.80435
495.72,25.18347,-2.87425,0.51407,0.80386
496.42,25.20585,-2.87533,0.51489,0.80336
497.12,25.22821,-2.87696,0.51554,0.80286
497.82,25.2506,-2.87829,0.51606,0.80237
498.52,25.27301,-2.88,0.51523,0.80187
499.22,25.29541,-2.88179,0.51704,0.80137
499.92,25.31778,-2.88242,0.51595,0.80088
500.62,25.34015,-2.88375,0.51914,0.80038
501.32,25.3625,-2.88694,0.52233,0.79988
502.02,25.38491,-2.88681,0.52237,0.79938
502.72,25.40738,-2.88821,0.52214,0.79889
503.42,25.42974,-2.88919,0.52453,0.79839
504.12,25.4522,-2.88969,0.52421,0.79789
504.82,25.4746,-2.89117,0.5272,0.79739
505.52,25.49697,-2.89368,0.52623,0.79689
506.22,25.5195,-2.89442,0.52825,0.79639
506.92,25.542,-2.89554,0.52836,0.79589
507.62,25.5645,-2.89579,0.52817,0.7954
508.32,25.5871,-2.89564,0.53051,0.7949
509.02,25.60963,-2.89687,0.52967,0.7944
509.72,25.63212,-2.89682,0.53047,0.7939
510.42,25.65457,-2.89793,0.53259,0.7934
511.12,25.67703,-2.89925,0.5353,0.7929
511.82,25.69947,-2.90067,0.53404,0.7924
512.52,25.72185,-2.90086,0.53852,0.7919
513.22,25.74429,-2.90198,0.53593,0.7914
513.92,25.76671,-2.90379,0.53872,0.7909
514.62,25.78915,-2.90569,0.53537,0.7904
515.32,25.81164,-2.90661,0.54083,0.7899
516.02,25.8341,-2.90716,0.54037,0.7894
516.72,25.85659,-2.90956,0.5393,0.7889
517.42,25.8791,-2.90987,0.54133,0.7884
518.12,25.9015,-2.91105,0.54213,0.7879
518.82,25.92397,-2.91182,0.54095,0.7874
519.52,25.9465,-2.9129,0.54099,0.78689
520.22,25.9691,-2.91447,0.53858,0.78639
520.92,25.99168,-2.91499,0.54103,0.78589
521.62,26.01426,-2.91468,0.54134,0.78539
522.32,26.03677,-2.91604,0.54055,0.78489
523.02,26.05924,-2.916,0.54093,0.78439
523.72,26.08159,-2.91688,0.54312,0.78389
524.42,26.10405,-2.91745,0.54258,0.78338
525.12,26.12651,-2.92017,0.54203,0.78288
525.82,26.149,-2.92125,0.53943,0.78238
526.52,26.1716,-2.92166,0.54171,0.78188
527.22,26.19414,-2.92301,0.54054,0.78137
527.92,26.21667,-2.92305,0.53954,0.78087
528.62,26.23919,-2.92456,0.5393,0.78037
529.32,26.2618,-2.92549,0.53817,0.77987
530.02,26.2843,-2.92613,0.53635,0.77936
530.72,26.3069,-2.92769,0.53985,0.77886
531.42,26.32947,-2.92765,0.53401,0.77836
532.12,26.35199,-2.92839,0.5382,0.77785
532.82,26.3745,-2.92861,0.53548,0.77735
533.52,26.39718,-2.92898,0.53762,0.77685
534.22,26.41977,-2.93049,0.53772,0.77634
534.92,26.4424,-2.9312,0.53722,0.77584
535.62,26.46495,-2.93207,0.53938,0.77533
536.32,26.48743,-2.93348,0.53792,0.77483
537.02,26.51,-2.93494,0.5423,0.77433
537.72,26.53255,-2.93618,0.54174,0.77382
538.42,26.55511,-2.93747,0.54428,0.77332
539.12,26.5778,-2.93751,0.55025,0.77281
539.82,26.60037,-2.93887,0.54725,0.77231
540.52,26.62293,-2.93883,0.54899,0.7718
541.22,26.6455,-2.93882,0.54899,0.7713
541.92,26.66811,-2.93906,0.5516,0.77079
542.62,26.6907,-2.94032,0.5506,0.77029
543.32,26.71335,-2.94139,0.55374,0.76978
544.02,26.73596,-2.94166,0.5582,0.76928
544.72,26.7585,-2.94249,0.55994,0.76877
545.42,26.7811,-2.94177,0.56332,0.76827
546.12,26.80367,-2.94285,0.56105,0.76776
546.82,26.8261,-2.94331,0.5598,0.76725
547.52,26.84866,-2.94475,0.56439,0.76675
548.22,26.87136,-2.94491,0.56315,0.76624
548.92,26.894,-2.94606,0.5641,0.76574
549.62,26.91692,-2.94615,0.56556,0.76523
550.32,26.9397,-2.94878,0.56546,0.76472
551.02,26.96235,-2.95014,0.56602,0.76422
551.72,26.98503,-2.95041,0.56652,0.76371
552.42,27.00771,-2.95192,0.56644,0.7632
553.12,27.03035,-2.95229,0.56916,0.7627
553.82,27.05302,-2.95284,0.56866,0.76219
554.52,27.0757,-2.95283,0.56846,0.76168
555.22,27.09835,-2.95321,0.56753,0.76117
555.92,27.121,-2.95431,0.57017,0.76067
556.62,27.1437,-2.95442,0.57001,0.76016
557.32,27.1664,-2.9558,0.56997,0.75965
558.02,27.189,-2.95582,0.57049,0.75914
558.72,27.2118,-2.95698,0.57044,0.75864
559.42,27.2345,-2.95704,0.57164,0.75813
560.12,27.2573,-2.95845,0.57217,0.75762
560.82,27.27998,-2.95846,0.57199,0.75711
561.52,27.30265,-2.95848,0.57268,0.7566
562.22,27.3253,-2.95951,0.57109,0.75609
562.92,27.348,-2.959,0.56834,0.75559
563.62,27.37077,-2.95992,0.56913,0.75508
564.32,27.39347,-2.96144,0.57146,0.75457
565.02,27.41623,-2.96368,0.57312,0.75406
565.72,27.43895,-2.96405,0.56889,0.75355
566.42,27.4617,-2.96427,0.56772,0.75304
567.12,27.4845,-2.96563,0.56773,0.75253
567.82,27.50726,-2.96639,0.56843,0.75202
568.52,27.53006,-2.96688,0.56836,0.75151
569.22,27.55286,-2.96829,0.56627,0.751
569.92,27.57562,-2.96913,0.56722,0.75049
570.62,27.5984,-2.96996,0.5644,0.74998
571.32,27.6212,-2.97143,0.56455,0.74947
572.02,27.644,-2.97067,0.56275,0.74896
572.72,27.66677,-2.97117,0.56389,0.74845
573.42,27.68955,-2.97118,0.56409,0.74794
574.12,27.7123,-2.97118,0.56,0.74743
574.82,27.73505,-2.97118,0.56225,0.74692
575.52,27.75785,-2.97116,0.55999,0.74641
576.22,27.7806,-2.97237,0.55729,0.7459
576.92,27.8035,-2.97486,0.55825,0.74539
577.62,27.82637,-2.97592,0.55712,0.74488
578.32,27.84923,-2.97754,0.55511,0.74437
579.02,27.87211,-2.97767,0.55671,0.74386
579.72,27.89498,-2.97881,0.55372,0.74335
580.42,27.9178,-2.97753,0.55675,0.74283
581.12,27.9406,-2.97864,0.55042,0.74232
581.82,27.9634,-2.97878,0.55613,0.74181
582.52,27.98627,-2.98029,0.55166,0.7413
583.22,28.0091,-2.98149,0.55316,0.74079
583.92,28.03197,-2.98171,0.55137,0.74028
584.62,28.05487,-2.98282,0.55185,0.73976
585.32,28.07763,-2.98282,0.55017,0.73925
586.02,28.10047,-2.98271,0.551,0.73874
586.72,28.12333,-2.98247,0.55016,0.73823
587.42,28.1462,-2.98278,0.54847,0.73771
588.12,28.1691,-2.98412,0.54832,0.7372
588.82,28.1921,-2.98551,0.54868,0.73669
589.52,28.215,-2.986,0.54636,0.73618
590.22,28.23798,-2.98676,0.54929,0.73566
590.92,28.26088,-2.98688,0.54507,0.73515
591.62,28.2838,-2.98822,0.54607,0.73464
592.32,28.30667,-2.98893,0.54593,0.73412
593.02,28.32955,-2.9895,0.54386,0.73361
593.72,28.3525,-2.9895,0.54397,0.7331
594.42,28.37545,-2.9895,0.54591,0.73258
595.12,28.3984,-2.98949,0.54407,0.73207
595.82,28.42134,-2.98947,0.5453,0.73156
596.52,28.4442,-2.99055,0.54385,0.73104
597.22,28.46712,-2.99083,0.54495,0.73053
597.92,28.4901,-2.99185,0.54415,0.73002
598.62,28.513,-2.99322,0.54306,0.7295
599.32,28.53599,-2.99312,0.54367,0.72899
600.02,28.5589,-2.99312,0.54332,0.72847
600.72,28.58186,-2.99313,0.54438,0.72796
601.42,28.6048,-2.99476,0.54155,0.72744
602.12,28.6277,-2.99518,0.53817,0.72693
602.82,28.6507,-2.99618,0.54059,0.72641
603.52,28.67369,-2.99629,0.53821,0.7259
604.22,28.6967,-2.99633,0.54029,0.72538
604.92,28.71967,-2.99618,0.5389,0.72487
605.62,28.74261,-2.99529,0.5384,0.72435
606.32,28.7657,-2.99652,0.53784,0.72384
607.02,28.7887,-2.99767,0.53939,0.72332
607.72,28.8117,-2.99933,0.53797,0.72281
608.42,28.8347,-3.00029,0.53541,0.72229
609.12,28.85758,-3.0016,0.53506,0.72178
609.82,28.88055,-3.00265,0.53268,0.72126
610.52,28.90353,-3.00289,0.53547,0.72075
611.22,28.9265,-3.00335,0.53444,0.72023
611.92,28.9495,-3.00387,0.536,0.71971
612.62,28.9725,-3.00387,0.53322,0.7192
613.32,28.9956,-3.00387,0.53494,0.71868
614.02,29.01867,-3.00387,0.53871,0.71817
614.72,29.04164,-3.00421,0.53229,0.71765
615.42,29.06464,-3.00561,0.53559,0.71713
616.12,29.0876,-3.00697,0.53551,0.71662
616.82,29.11069,-3.0076,0.5383,0.7161
617.52,29.13379,-3.00755,0.5361,0.71558
618.22,29.1568,-3.00881,0.53554,0.71507
618.92,29.1799,-3.00891,0.53888,0.71455
619.62,29.20291,-3.0089,0.53546,0.71403
620.32,29.22595,-3.00996,0.53732,0.71352
621.02,29.249,-3.01023,0.53554,0.713
621.72,29.272,-3.01024,0.53809,0.71248
622.42,29.2951,-3.01056,0.5405,0.71196
623.12,29.3182,-3.01155,0.53778,0.71145
623.82,29.34126,-3.01171,0.53735,0.71093
624.52,29.3643,-3.01309,0.53834,0.71041
625.22,29.38745,-3.01301,0.53803,0.70989
625.92,29.4105,-3.0144,0.53703,0.70938
626.62,29.4336,-3.0144,0.53701,0.70886
627.32,29.4566,-3.01442,0.53837,0.70834
628.02,29.47959,-3.01541,0.54174,0.70782
628.72,29.50266,-3.01554,0.53675,0.7073
629.42,29.5257,-3.01435,0.53597,0.70678
630.12,29.54885,-3.01439,0.53887,0.70627
630.82,29.57193,-3.01434,0.53845,0.70575
631.52,29.59505,-3.01567,0.54004,0.70523
632.22,29.6181,-3.01571,0.53911,0.70471
632.92,29.6412,-3.01624,0.53812,0.70419
633.62,29.66426,-3.01727,0.54341,0.70367
634.32,29.68735,-3.01836,0.54083,0.70315
635.02,29.71043,-3.01835,0.54261,0.70263
635.72,29.73361,-3.01874,0.54441,0.70212
636.42,29.7567,-3.01967,0.54624,0.7016
637.12,29.7798,-3.02122,0.54666,0.70108
637.82,29.8029,-3.01987,0.54719,0.70056
638.52,29.82589,-3.02125,0.54678,0.70004
639.22,29.84885,-3.02119,0.54814,0.69952
639.92,29.87185,-3.0214,0.55212,0.699
640.62,29.89497,-3.02252,0.55375,0.69848
641.32,29.9181,-3.02251,0.55341,0.69796
642.02,29.9414,-3.02265,0.55323,0.69744
642.72,29.9645,-3.02456,0.55832,0.69692
643.42,29.98762,-3.02449,0.55656,0.6964
644.12,30.0107,-3.0246,0.56153,0.69588
644.82,30.03358,-3.02581,0.5638,0.69536
645.52,30.0565,-3.0258,0.56315,0.69484
646.22,30.0796,-3.0258,0.56582,0.69432
646.92,30.1027,-3.02649,0.56594,0.6938
647.62,30.126,-3.0271,0.56591,0.69328
648.32,30.1492,-3.02712,0.56943,0.69276
649.02,30.1723,-3.02848,0.57168,0.69224
649.72,30.19547,-3.02843,0.57141,0.69172
650.42,30.21858,-3.02843,0.57482,0.6912
651.12,30.2417,-3.0293,0.57613,0.69067
651.82,30.2648,-3.02976,0.57524,0.69015
652.52,30.2879,-3.03062,0.57644,0.68963
653.22,30.311,-3.03107,0.57918,0.68911
653.92,30.33417,-3.03106,0.58149,0.68859
654.62,30.35728,-3.03224,0.58623,0.68807
655.32,30.3804,-3.03238,0.58493,0.68755
656.02,30.4035,-3.0323,0.58726,0.68703
656.72,30.42657,-3.03368,0.5922,0.6865
657.42,30.44967,-3.0337,0.59413,0.68598
658.12,30.4727,-3.03372,0.59697,0.68546
658.82,30.4958,-3.03436,0.59647,0.68494
659.52,30.51895,-3.03503,0.59847,0.68442
660.22,30.54209,-3.03559,0.60142,0.6839
660.92,30.5653,-3.03598,0.60273,0.68337
661.62,30.58847,-3.03727,0.60499,0.68285
662.32,30.6116,-3.03698,0.60462,0.68233
663.02,30.63475,-3.03838,0.60981,0.68181
663.72,30.65783,-3.0383,0.60627,0.68128
664.42,30.68095,-3.0383,0.61234,0.68076
665.12,30.7041,-3.03836,0.60907,0.68024
665.82,30.72725,-3.03966,0.61569,0.67972
666.52,30.75038,-3.03962,0.61596,0.67919
667.22,30.7735,-3.03967,0.61666,0.67867
667.92,30.79663,-3.04099,0.61324,0.67815
668.62,30.8198,-3.04096,0.61685,0.67763
669.32,30.843,-3.0423,0.61705,0.6771
670.02,30.8662,-3.0422,0.62159,0.67658
670.72,30.88938,-3.04358,0.62391,0.67606
671.42,30.91259,-3.04357,0.62255,0.67553
672.12,30.9357,-3.04347,0.62797,0.67501
672.82,30.9589,-3.04489,0.62733,0.67449
673.52,30.982,-3.04495,0.63011,0.67396
674.22,31.0051,-3.04556,0.63053,0.67344
674.92,31.0282,-3.04554,0.63399,0.67292
675.62,31.05133,-3.04694,0.63515,0.67239
676.32,31.07447,-3.04687,0.63737,0.67187
677.02,31.09768,-3.04707,0.64513,0.67135
677.72,31.1208,-3.04833,0.64481,0.67082
678.42,31.1439,-3.04965,0.64865,0.6703
679.12,31.16706,-3.0496,0.64916,0.66977
679.82,31.19022,-3.04916,0.65048,0.66925
680.52,31.21343,-3.04898,0.65441,0.66873
681.22,31.23658,-3.04837,0.65338,0.6682
681.92,31.25977,-3.04856,0.65565,0.66768
682.62,31.2829,-3.04948,0.66074,0.66715
683.32,31.3061,-3.04989,0.66348,0.66663
684.02,31.3292,-3.05092,0.66886,0.6661
684.72,31.3524,-3.05184,0.66652,0.66558
685.42,31.3756,-3.05226,0.66602,0.66506
686.12,31.39872,-3.05319,0.6689,0.66453
686.82,31.42189,-3.05355,0.66757,0.66401
687.52,31.44505,-3.05355,0.67054,0.66348
688.22,31.4682,-3.05491,0.67135,0.66296
688.92,31.4914,-3.05507,0.66909,0.66243
689.62,31.5146,-3.05658,0.66769,0.66191
690.32,31.5377,-3.05646,0.66831,0.66138
691.02,31.56085,-3.05782,0.66645,0.66086
691.72,31.584,-3.05871,0.664,0.66033
692.42,31.60718,-3.05881,0.66133,0.65981
693.12,31.63048,-3.0588,0.6552,0.65928
693.82,31.65372,-3.05983,0.65041,0.65876
694.52,31.6769,-3.06012,0.64927,0.65823
695.22,31.7001,-3.06013,0.64301,0.65771
695.92,31.72314,-3.06018,0.63565,0.65718
696.62,31.7463,-3.06177,0.63105,0.65665
697.32,31.76942,-3.06302,0.62009,0.65613
698.02,31.7926,-3.0649,0.61567,0.6556
698.72,31.81574,-3.06488,0.60995,0.65508
699.42,31.839,-3.0643,0.6039,0.65455
700.12,31.86223,-3.06448,0.59331,0.65403
700.82,31.8855,-3.06318,0.58436,0.6535
701.52,31.9088,-3.06463,0.57524,0.65297
702.22,31.932,-3.06463,0.56708,0.65245
702.92,31.95526,-3.06466,0.55745,0.65192
703.62,31.97847,-3.06556,0.55819,0.6514
704.32,32.00169,-3.06596,0.55148,0.65087
705.02,32.02492,-3.0665,0.53962,0.65034
705.72,32.0481,-3.06727,0.53296,0.64982
706.42,32.07137,-3.06727,0.52685,0.64929
707.12,32.09462,-3.06718,0.52271,0.64876
707.82,32.1179,-3.06857,0.51709,0.64824
708.52,32.14118,-3.06858,0.51038,0.64771
709.22,32.1644,-3.06858,0.50714,0.64719
709.92,32.18768,-3.06858,0.50456,0.64666
710.62,32.21095,-3.06859,0.50054,0.64613
711.32,32.23422,-3.06999,0.49997,0.64561
712.02,32.25752,-3.0699,0.49731,0.64508
712.72,32.2808,-3.0699,0.49611,0.64455
713.42,32.30407,-3.0699,0.49117,0.64402
714.12,32.32738,-3.0699,0.49434,0.6435
714.82,32.35069,-3.07,0.48799,0.64297
715.52,32.37399,-3.07074,0.48227,0.64244
716.22,32.3973,-3.07023,0.48311,0.64192
716.92,32.4206,-3.07022,0.48043,0.64139
717.62,32.44382,-3.07013,0.48282,0.64086
718.32,32.46714,-3.07152,0.4804,0.64034
719.02,32.49042,-3.07119,0.47854,0.63981
719.72,32.51378,-3.07202,0.47686,0.63928
720.42,32.53713,-3.07252,0.47709,0.63875
721.12,32.56044,-3.07253,0.476,0.63823
721.82,32.58374,-3.07259,0.47344,0.6377
722.52,32.60698,-3.07388,0.47471,0.63717
723.22,32.6302,-3.07384,0.4748,0.63664
723.92,32.65351,-3.07383,0.47285,0.63612
724.62,32.6768,-3.07376,0.47077,0.63559
725.32,32.70013,-3.07516,0.47182,0.63506
726.02,32.7233,-3.07516,0.47123,0.63453
726.72,32.7465,-3.07516,0.46983,0.634
727.42,32.76984,-3.07516,0.47125,0.63348
728.12,32.7932,-3.07536,0.4692,0.63295
728.82,32.81684,-3.07652,0.46756,0.63242
729.52,32.84021,-3.07546,0.46456,0.63189
730.22,32.86354,-3.07549,0.46269,0.63137
730.92,32.8869,-3.07549,0.45849,0.63084
731.62,32.91021,-3.07549,0.46325,0.63031
732.32,32.93357,-3.07541,0.45953,0.62978
733.02,32.95686,-3.07678,0.46246,0.62925
733.72,32.98016,-3.07681,0.45814,0.62872
734.42,33.00347,-3.07718,0.46262,0.6282
735.12,33.02675,-3.07812,0.45595,0.62767
735.82,33.05011,-3.07812,0.45337,0.62714
736.52,33.0735,-3.07812,0.45646,0.62661
737.22,33.09684,-3.07812,0.45527,0.62608
737.92,33.12019,-3.07812,0.45486,0.62555
738.62,33.1436,-3.07817,0.45183,0.62503
739.32,33.167,-3.07947,0.45206,0.6245
740.02,33.1903,-3.07943,0.45297,0.62397
740.72,33.21375,-3.07934,0.45058,0.62344
741.42,33.23706,-3.08074,0.45328,0.62291
742.12,33.26024,-3.08075,0.45056,0.62238
742.82,33.28352,-3.08097,0.45087,0.62185
743.52,33.30688,-3.08209,0.45186,0.62133
744.22,33.3303,-3.08207,0.45141,0.6208
744.92,33.35388,-3.08206,0.44906,0.62027
745.62,33.37735,-3.08179,0.44651,0.61974
746.32,33.40074,-3.08174,0.44855,0.61921
747.02,33.42413,-3.08259,0.44563,0.61868
747.72,33.4475,-3.08284,0.44657,0.61815
748.42,33.47087,-3.08176,0.45021,0.61762
749.12,33.4943,-3.08173,0.44423,0.61709
749.82,33.5177,-3.08296,0.44453,0.61656
750.52,33.54108,-3.08307,0.44537,0.61604
751.22,33.5645,-3.08306,0.44453,0.61551
751.92,33.58789,-3.08306,0.44002,0.61498
752.62,33.6113,-3.08306,0.43865,0.61445
753.32,33.63469,-3.08306,0.44006,0.61392
754.02,33.65811,-3.08306,0.44075,0.61339
754.72,33.6815,-3.08362,0.44355,0.61286
755.42,33.70467,-3.08436,0.43919,0.61233
756.12,33.72814,-3.08438,0.44257,0.6118
756.82,33.75157,-3.08493,0.44204,0.61127
757.52,33.775,-3.08567,0.43915,0.61074
758.22,33.7986,-3.08569,0.4377,0.61021
758.92,33.82204,-3.0857,0.43553,0.60968
759.62,33.8455,-3.08615,0.43701,0.60915
760.32,33.86894,-3.08569,0.43734,0.60863
761.02,33.8923,-3.08569,0.43936,0.6081
761.72,33.91581,-3.08569,0.4379,0.60757
762.42,33.93927,-3.08569,0.43565,0.60704
763.12,33.9627,-3.08587,0.43297,0.60651
763.82,33.98621,-3.08727,0.4372,0.60598
764.52,34.00967,-3.08733,0.43545,0.60545
765.22,34.0331,-3.08768,0.43545,0.60492
765.92,34.05658,-3.08865,0.43381,0.60439
766.62,34.08007,-3.08865,0.43605,0.60386
767.32,34.10354,-3.08865,0.43202,0.60333
768.02,34.12709,-3.08864,0.43427,0.6028
768.72,34.15056,-3.08875,0.43329,0.60227
769.42,34.17405,-3.08998,0.43467,0.60174
770.12,34.1975,-3.08997,0.43336,0.60121
770.82,34.22102,-3.09047,0.43213,0.60068
771.52,34.24451,-3.09126,0.43157,0.60015
772.22,34.26788,-3.09128,0.42946,0.59962
772.92,34.29135,-3.09128,0.42979,0.59909
773.62,34.31479,-3.09128,0.43168,0.59856
774.32,34.33832,-3.09128,0.42896,0.59803
775.02,34.3619,-3.09127,0.43106,0.5975
775.72,34.38537,-3.09093,0.42776,0.59697
776.42,34.40892,-3.08997,0.43414,0.59644
777.12,34.43237,-3.08996,0.43056,0.59591
777.82,34.4559,-3.08956,0.43268,0.59538
778.52,34.47939,-3.08966,0.42945,0.59485
779.22,34.5028,-3.09029,0.42918,0.59432
779.92,34.52628,-3.09029,0.4279,0.59379
780.62,34.54975,-3.09165,0.42901,0.59326
781.32,34.5732,-3.09163,0.42924,0.59273
782.02,34.59665,-3.09162,0.4283,0.5922
782.72,34.62012,-3.0916,0.43158,0.59167
783.42,34.64362,-3.0913,0.43059,0.59114
784.12,34.66709,-3.09129,0.43162,0.59061
784.82,34.6906,-3.09129,0.43038,0.59008
785.52,34.7141,-3.09113,0.43054,0.58955
786.22,34.7376,-3.09096,0.42976,0.58902
786.92,34.76112,-3.091,0.43002,0.58849
787.62,34.78463,-3.09165,0.42997,0.58796
788.32,34.8082,-3.09222,0.43071,0.58743
789.02,34.83167,-3.09227,0.43141,0.5869
789.72,34.85516,-3.09222,0.42764,0.58637
790.42,34.8787,-3.09357,0.43265,0.58584
791.12,34.9022,-3.09359,0.43415,0.58531
791.82,34.9257,-3.09359,0.42897,0.58478
792.52,34.9493,-3.09359,0.43003,0.58425
793.22,34.97275,-3.09359,0.42792,0.58372
793.92,34.99613,-3.09359,0.43129,0.58319