File: 01_Data/PMMA_R01/MCC/PMMA_R01_MCC_30K_min_210920_R3.txt
Sample ID:	C:\MCC\PMMA_MCC_30K_min_210920_R3.txt
Sample Weight (mg):	4.62
Heating Rate (C/s):	0.5
Combustor Temp (C):	900
N2 Flow Rate (cc/min):	80
O2 Flow Rate (cc/min):	20
Calibration File:	C:\MCC\MCC Cal\Coeff1 JN10440_30_210304.txt.txt
T Correction Coefficients:	0	1.024463	0
Time Shift (s):	14
*
Time (s)	Temperature (C)	N2 flow rate (cc/min)	O2 flow rate (cc/min)	Flow Rate (cc/min)	Oxygen (%)	HRR (W/g)	Heating rate (C/s)
0.001	108.050	79.995	19.995	100.075	20.330	-0.289	-0.027
2.000	108.082	79.994	19.995	100.081	20.329	-0.205	0.021
4.000	108.070	79.996	19.995	100.094	20.327	-0.090	-0.018
6.000	108.059	79.995	19.995	100.077	20.326	-0.017	0.012
8.001	108.044	79.996	19.995	100.081	20.332	-0.454	-0.000
10.001	108.075	79.996	19.995	100.097	20.327	-0.057	-0.011
12.001	108.041	79.996	19.995	100.099	20.325	0.048	0.003
14.001	108.060	79.996	19.994	100.106	20.324	0.142	0.003
16.000	108.034	79.996	19.995	100.135	20.322	0.262	0.007
18.000	108.082	79.993	19.994	100.169	20.322	0.286	0.028
20.000	108.115	79.994	19.995	100.194	20.316	0.686	0.021
22.000	108.204	79.993	19.996	100.207	20.310	1.076	0.044
24.000	108.317	79.993	19.996	100.208	20.307	1.237	0.040
26.000	108.414	79.995	19.996	100.216	20.306	1.342	0.087
28.000	108.559	79.994	19.996	100.205	20.308	1.195	0.097
30.000	108.663	79.994	19.996	100.171	20.306	1.353	0.075
32.000	108.842	79.996	19.996	100.162	20.304	1.492	0.080
34.000	109.031	79.998	19.996	100.290	20.297	1.930	0.075
36.001	109.256	79.996	19.994	100.262	20.300	1.741	0.104
38.001	109.475	79.998	19.995	100.255	20.299	1.806	0.111
40.000	109.730	79.998	19.994	100.254	20.295	2.072	0.135
42.000	110.008	79.996	19.994	100.259	20.292	2.277	0.123
44.000	110.344	79.997	19.995	100.273	20.292	2.299	0.164
46.001	110.667	79.997	19.996	100.272	20.293	2.224	0.171
48.001	111.039	79.997	19.994	100.271	20.292	2.285	0.196
50.002	111.407	79.998	19.994	100.270	20.289	2.475	0.182
52.000	111.777	79.998	19.994	100.280	20.291	2.376	0.204
54.000	112.238	79.997	19.995	100.278	20.292	2.316	0.225
56.000	112.649	79.998	19.995	100.298	20.291	2.388	0.232
58.000	113.103	79.998	19.995	100.306	20.291	2.378	0.256
60.000	113.612	79.999	19.994	100.307	20.292	2.318	0.263
62.000	114.053	79.998	19.994	100.308	20.291	2.331	0.227
64.001	114.604	79.999	19.994	100.308	20.287	2.651	0.285
66.000	115.118	79.998	19.993	100.307	20.288	2.551	0.249
68.001	115.721	79.998	19.992	100.314	20.286	2.725	0.317
70.000	116.240	79.998	19.994	100.315	20.284	2.832	0.282
72.000	116.864	79.996	19.995	100.310	20.284	2.842	0.290
74.001	117.465	79.995	19.996	100.311	20.288	2.566	0.300
76.000	118.060	79.996	19.995	100.313	20.288	2.576	0.312
78.000	118.710	79.996	19.994	100.315	20.284	2.831	0.336
80.000	119.361	79.995	19.995	100.324	20.282	2.951	0.350
82.000	119.977	79.996	19.993	100.329	20.279	3.165	0.333
84.000	120.661	79.995	19.994	100.324	20.281	3.066	0.329
86.000	121.315	79.996	19.994	100.344	20.277	3.273	0.337
88.000	122.066	79.996	19.995	100.343	20.275	3.426	0.350
90.000	122.832	79.995	19.996	100.333	20.281	3.051	0.365
92.000	123.518	79.996	19.994	100.335	20.277	3.289	0.349
94.000	124.267	79.996	19.995	100.341	20.278	3.226	0.395
96.001	125.057	79.995	19.995	100.344	20.280	3.102	0.386
98.000	125.793	79.997	19.994	100.341	20.270	3.810	0.384
100.000	126.566	79.996	19.994	100.330	20.270	3.762	0.355
102.000	127.355	79.996	19.995	100.340	20.266	4.042	0.416
104.000	128.170	79.994	19.995	100.343	20.269	3.827	0.396
106.000	128.991	79.995	19.995	100.343	20.265	4.141	0.443
108.000	129.798	79.995	19.995	100.334	20.263	4.256	0.413
110.000	130.614	79.996	19.997	100.339	20.265	4.139	0.425
112.000	131.457	79.998	19.995	100.348	20.259	4.505	0.412
114.000	132.275	79.997	19.996	100.347	20.261	4.420	0.409
116.000	133.161	79.996	19.996	100.342	20.262	4.329	0.420
118.000	134.044	79.997	19.995	100.342	20.257	4.636	0.438
120.000	134.926	79.997	19.995	100.340	20.254	4.851	0.428
122.000	135.776	79.996	19.996	100.345	20.251	5.068	0.468
124.001	136.703	79.997	19.996	100.347	20.254	4.860	0.466
126.000	137.618	79.997	19.995	100.344	20.248	5.297	0.496
128.001	138.530	79.995	19.994	100.342	20.247	5.311	0.472
130.000	139.463	79.996	19.993	100.340	20.245	5.507	0.464
132.001	140.377	79.995	19.994	100.342	20.239	5.897	0.459
134.000	141.294	79.997	19.994	100.331	20.236	6.056	0.471
136.000	142.206	79.997	19.993	100.346	20.237	6.019	0.456
138.000	143.201	79.999	19.994	100.353	20.236	6.088	0.495
140.000	144.147	79.999	19.993	100.351	20.230	6.500	0.479
142.000	145.109	79.998	19.993	100.352	20.233	6.258	0.477
144.000	146.084	79.998	19.994	100.356	20.233	6.305	0.468
146.000	147.046	79.998	19.993	100.352	20.233	6.254	0.462
148.000	148.025	79.998	19.993	100.352	20.227	6.712	0.512
150.000	149.022	79.997	19.994	100.352	20.225	6.841	0.532
152.000	149.966	79.994	19.994	100.354	20.221	7.098	0.476
154.000	151.005	79.994	19.995	100.350	20.220	7.160	0.502
156.000	151.961	79.996	19.993	100.350	20.209	7.912	0.496
158.000	152.965	79.995	19.994	100.350	20.203	8.321	0.535
160.000	153.981	79.995	19.993	100.349	20.200	8.531	0.517
162.000	154.914	79.995	19.994	100.348	20.195	8.885	0.472
164.001	155.910	79.996	19.994	100.342	20.191	9.122	0.484
166.000	156.879	79.996	19.994	100.341	20.184	9.626	0.468
168.000	157.917	79.998	19.994	100.335	20.180	9.869	0.525
170.000	158.889	79.998	19.993	100.322	20.176	10.130	0.484
172.000	159.860	79.997	19.994	100.333	20.175	10.184	0.507
174.000	160.872	79.998	19.994	100.333	20.172	10.440	0.500
176.000	161.853	79.997	19.994	100.334	20.164	10.926	0.465
178.000	162.847	79.996	19.996	100.327	20.159	11.284	0.536
180.000	163.827	79.996	19.996	100.318	20.158	11.378	0.486
182.001	164.895	79.995	19.995	100.327	20.157	11.439	0.524
184.000	165.873	79.995	19.995	100.339	20.152	11.782	0.485
186.000	166.902	79.994	19.996	100.332	20.155	11.600	0.476
188.000	167.916	79.996	19.996	100.321	20.151	11.848	0.498
190.000	168.903	79.997	19.994	100.317	20.149	11.970	0.503
192.000	169.875	79.997	19.995	100.317	20.152	11.773	0.495
194.000	170.884	79.998	19.995	100.315	20.148	12.013	0.504
196.000	171.916	79.996	19.994	100.319	20.146	12.199	0.464
198.000	172.893	79.997	19.995	100.314	20.144	12.347	0.509
200.001	173.913	79.999	19.995	100.308	20.148	12.009	0.511
202.000	174.906	79.997	19.993	100.309	20.148	12.011	0.492
204.000	175.917	79.997	19.994	100.310	20.150	11.900	0.510
206.000	176.910	79.996	19.996	100.309	20.152	11.741	0.524
208.000	177.916	79.996	19.994	100.307	20.152	11.753	0.511
210.001	178.894	79.995	19.995	100.306	20.154	11.640	0.468
212.000	179.902	79.996	19.995	100.310	20.157	11.428	0.490
214.000	180.901	79.997	19.996	100.308	20.156	11.472	0.496
216.000	181.901	79.997	19.994	100.309	20.157	11.403	0.516
218.000	182.875	79.998	19.994	100.302	20.162	11.088	0.480
220.000	183.866	79.998	19.994	100.296	20.165	10.888	0.497
222.000	184.865	79.998	19.993	100.291	20.163	11.003	0.498
224.001	185.914	79.998	19.994	100.297	20.164	10.968	0.511
226.000	186.961	79.999	19.994	100.299	20.169	10.609	0.517
228.000	187.890	79.998	19.993	100.286	20.167	10.764	0.500
230.000	188.885	79.998	19.993	100.296	20.169	10.628	0.492
232.001	189.899	79.996	19.994	100.297	20.170	10.547	0.476
234.001	190.929	79.996	19.994	100.298	20.175	10.186	0.513
236.001	191.892	79.996	19.994	100.301	20.174	10.292	0.508
238.001	192.856	79.996	19.993	100.294	20.177	10.057	0.486
240.000	193.870	79.996	19.995	100.298	20.177	10.071	0.525
242.000	194.839	79.997	19.994	100.299	20.179	9.943	0.470
244.000	195.815	79.996	19.994	100.299	20.175	10.186	0.500
246.000	196.844	79.997	19.994	100.286	20.175	10.198	0.501
248.000	197.799	79.997	19.994	100.290	20.177	10.085	0.466
250.000	198.776	79.997	19.994	100.300	20.174	10.294	0.479
252.001	199.734	79.998	19.994	100.304	20.174	10.295	0.494
254.001	200.711	79.998	19.994	100.296	20.174	10.250	0.504
256.000	201.693	79.996	19.994	100.295	20.171	10.494	0.485
258.001	202.693	79.995	19.994	100.284	20.171	10.477	0.485
260.001	203.611	79.997	19.993	100.285	20.173	10.325	0.464
262.001	204.605	79.995	19.995	100.282	20.171	10.464	0.499
264.001	205.586	79.996	19.995	100.288	20.171	10.503	0.519
266.001	206.558	79.996	19.995	100.289	20.170	10.523	0.476
268.000	207.539	79.994	19.995	100.284	20.168	10.712	0.481
270.000	208.526	79.995	19.995	100.299	20.166	10.839	0.508
272.000	209.475	79.995	19.994	100.294	20.169	10.632	0.459
274.000	210.502	79.996	19.995	100.288	20.167	10.746	0.517
276.000	211.466	79.996	19.996	100.299	20.167	10.785	0.479
278.000	212.418	79.998	19.994	100.298	20.166	10.818	0.478
280.000	213.410	79.997	19.994	100.288	20.170	10.546	0.474
282.000	214.382	79.998	19.994	100.283	20.166	10.798	0.524
284.000	215.325	79.997	19.995	100.295	20.164	10.985	0.468
286.000	216.284	79.996	19.994	100.305	20.165	10.870	0.481
288.000	217.332	79.998	19.994	100.294	20.160	11.210	0.500
290.000	218.334	79.998	19.996	100.284	20.163	11.011	0.479
292.000	219.272	79.996	19.995	100.303	20.160	11.209	0.466
294.001	220.271	79.996	19.996	100.281	20.157	11.405	0.506
296.000	221.293	79.997	19.994	100.279	20.156	11.476	0.467
298.000	222.250	79.997	19.996	100.288	20.154	11.651	0.519
300.000	223.263	79.999	19.995	100.283	20.150	11.876	0.480
302.000	224.272	79.998	19.995	100.281	20.151	11.834	0.502
304.000	225.261	79.998	19.994	100.269	20.153	11.701	0.503
306.000	226.273	79.998	19.996	100.274	20.152	11.775	0.538
308.000	227.212	79.997	19.995	100.271	20.151	11.849	0.502
310.000	228.218	79.998	19.994	100.286	20.149	11.993	0.515
312.000	229.222	79.997	19.993	100.275	20.151	11.842	0.524
314.000	230.194	79.996	19.994	100.267	20.156	11.482	0.479
316.000	231.209	79.995	19.993	100.270	20.156	11.512	0.500
318.000	232.192	79.996	19.994	100.270	20.160	11.225	0.497
320.000	233.194	79.995	19.993	100.273	20.159	11.302	0.509
322.000	234.187	79.997	19.994	100.271	20.167	10.724	0.490
324.000	235.186	79.996	19.994	100.272	20.168	10.688	0.521
326.000	236.201	79.995	19.994	100.271	20.172	10.436	0.500
328.000	237.173	79.995	19.994	100.274	20.182	9.754	0.502
330.000	238.183	79.996	19.994	100.271	20.186	9.469	0.490
332.000	239.169	79.996	19.996	100.266	20.190	9.190	0.490
334.000	240.135	79.996	19.993	100.270	20.194	8.937	0.480
336.000	241.144	79.996	19.996	100.270	20.201	8.426	0.507
338.000	242.150	79.995	19.994	100.259	20.203	8.330	0.484
340.000	243.130	79.995	19.995	100.270	20.209	7.936	0.500
342.000	244.145	79.997	19.995	100.274	20.214	7.556	0.490
344.001	245.138	79.995	19.994	100.263	20.213	7.626	0.469
346.001	246.128	79.995	19.993	100.273	20.217	7.368	0.496
348.000	247.133	79.995	19.995	100.268	20.222	7.026	0.489
350.000	248.114	79.995	19.996	100.269	20.223	6.980	0.512
352.000	249.108	79.996	19.994	100.270	20.219	7.225	0.493
354.000	250.144	79.996	19.995	100.272	20.218	7.288	0.488
356.000	251.150	79.998	19.995	100.271	20.216	7.406	0.504
358.000	252.144	79.998	19.995	100.270	20.217	7.379	0.483
360.001	253.180	79.997	19.994	100.268	20.210	7.866	0.521
362.000	254.122	79.997	19.994	100.268	20.207	8.054	0.501
364.000	255.129	79.996	19.995	100.268	20.200	8.538	0.500
366.000	256.122	79.998	19.995	100.269	20.196	8.819	0.483
368.000	257.142	79.998	19.995	100.269	20.187	9.419	0.507
370.000	258.102	79.996	19.996	100.268	20.179	9.926	0.492
372.000	259.095	79.997	19.996	100.269	20.175	10.206	0.502
374.000	260.104	79.997	19.995	100.271	20.165	10.919	0.490
376.001	261.075	79.997	19.995	100.271	20.155	11.589	0.479
378.000	262.111	79.998	19.994	100.270	20.150	11.915	0.521
380.000	263.045	79.999	19.995	100.278	20.132	13.132	0.488
382.000	264.057	79.997	19.995	100.276	20.123	13.748	0.504
384.000	265.052	79.999	19.996	100.277	20.111	14.544	0.500
386.000	266.084	79.998	19.995	100.275	20.094	15.683	0.507
388.000	267.111	79.997	19.994	100.273	20.083	16.460	0.518
390.002	268.070	79.998	19.994	100.284	20.070	17.294	0.480
392.001	269.092	79.997	19.996	100.275	20.058	18.124	0.520
394.000	270.062	79.997	19.995	100.282	20.047	18.900	0.470
396.000	271.067	79.995	19.995	100.296	20.033	19.802	0.496
398.000	272.094	79.997	19.995	100.287	20.021	20.662	0.491
400.000	273.104	79.997	19.993	100.283	20.002	21.920	0.499
402.000	274.127	79.996	19.994	100.296	19.993	22.514	0.484
404.000	275.074	79.996	19.995	100.304	19.976	23.696	0.494
406.000	276.106	79.996	19.994	100.306	19.957	24.970	0.508
408.000	277.093	79.996	19.994	100.302	19.949	25.539	0.471
410.000	278.086	79.997	19.994	100.290	19.931	26.734	0.493
412.000	279.101	79.997	19.994	100.296	19.923	27.277	0.489
414.001	280.117	79.997	19.993	100.305	19.906	28.414	0.514
416.000	281.083	79.997	19.993	100.309	19.889	29.578	0.498
418.000	282.146	79.997	19.996	100.313	19.867	31.085	0.549
420.000	283.091	79.996	19.995	100.310	19.853	32.044	0.483
422.000	284.059	79.997	19.994	100.309	19.840	32.872	0.488
424.000	285.117	79.997	19.993	100.301	19.822	34.107	0.503
426.000	286.084	79.996	19.995	100.308	19.805	35.280	0.510
428.001	287.081	79.996	19.994	100.304	19.796	35.861	0.531
430.000	288.102	79.998	19.994	100.304	19.783	36.729	0.493
432.000	289.065	79.997	19.994	100.305	19.771	37.580	0.473
434.000	290.058	79.997	19.993	100.304	19.753	38.774	0.478
436.000	291.028	79.998	19.995	100.309	19.741	39.644	0.497
438.000	292.081	79.999	19.994	100.312	19.727	40.540	0.485
440.000	293.087	79.998	19.993	100.300	19.727	40.534	0.537
442.000	294.240	79.997	19.994	100.285	19.726	40.611	0.436
444.000	295.060	80.000	19.995	100.288	19.720	40.999	0.541
446.000	296.267	79.996	19.994	100.309	19.714	41.403	0.743
448.000	297.098	79.997	19.995	100.316	19.716	41.309	0.515
450.000	298.136	79.996	19.996	100.305	19.716	41.268	0.578
452.000	299.110	79.995	19.995	100.279	19.726	40.644	0.490
454.000	300.074	79.996	19.994	100.275	19.725	40.664	0.523
456.000	301.124	79.997	19.994	100.289	19.732	40.209	0.529
458.000	302.032	79.998	19.994	100.278	19.744	39.360	0.490
460.000	303.035	79.998	19.994	100.270	19.758	38.466	0.485
462.000	304.066	79.998	19.995	100.274	19.764	38.019	0.454
464.000	305.056	79.998	19.993	100.274	19.780	36.977	0.489
466.000	306.056	79.997	19.993	100.272	19.800	35.592	0.499
468.000	307.023	79.997	19.994	100.262	19.817	34.454	0.487
470.000	308.048	79.997	19.994	100.258	19.833	33.374	0.514
472.000	309.061	79.997	19.993	100.265	19.848	32.327	0.491
474.000	310.025	79.995	19.995	100.269	19.871	30.787	0.513
476.000	311.033	79.995	19.996	100.261	19.887	29.717	0.479
478.000	312.067	79.995	19.995	100.265	19.900	28.807	0.492
480.000	313.030	79.995	19.996	100.263	19.905	28.510	0.498
482.000	314.063	79.996	19.995	100.268	19.904	28.593	0.517
484.000	315.050	79.995	19.995	100.281	19.904	28.573	0.465
486.000	316.067	79.996	19.995	100.272	19.903	28.633	0.519
488.000	317.031	79.996	19.996	100.272	19.908	28.297	0.484
490.000	318.052	79.997	19.995	100.269	19.906	28.401	0.537
492.000	319.031	79.997	19.994	100.268	19.905	28.463	0.531
494.000	320.039	79.996	19.995	100.271	19.898	28.939	0.485
496.000	321.033	79.997	19.994	100.295	19.889	29.562	0.457
498.000	322.024	79.997	19.994	100.299	19.882	30.074	0.501
500.000	323.062	79.997	19.994	100.293	19.874	30.595	0.524
502.000	324.018	79.996	19.994	100.286	19.865	31.231	0.480
504.000	325.026	79.995	19.994	100.270	19.863	31.336	0.511
506.000	326.029	79.996	19.995	100.280	19.847	32.435	0.486
508.001	326.985	79.995	19.994	100.311	19.818	34.409	0.456
510.000	328.027	79.995	19.995	100.339	19.791	36.251	0.506
512.000	329.015	79.996	19.996	100.342	19.771	37.617	0.493
514.000	330.031	79.996	19.994	100.303	19.760	38.334	0.509
516.000	331.044	79.998	19.993	100.276	19.751	38.919	0.490
518.001	332.022	79.997	19.995	100.283	19.730	40.344	0.497
520.000	333.025	79.997	19.995	100.319	19.693	42.898	0.492
522.000	334.033	79.997	19.994	100.360	19.654	45.556	0.509
524.000	335.024	79.997	19.994	100.364	19.622	47.682	0.500
526.000	336.050	79.997	19.994	100.331	19.600	49.214	0.493
528.000	337.036	79.997	19.994	100.305	19.581	50.477	0.473
530.000	338.034	79.996	19.994	100.311	19.547	52.783	0.526
532.000	339.058	79.997	19.996	100.340	19.498	56.124	0.524
534.000	340.026	79.997	19.993	100.399	19.453	59.184	0.459
536.000	341.009	79.996	19.994	100.388	19.415	61.727	0.467
538.001	342.022	79.996	19.994	100.362	19.389	63.532	0.488
540.000	343.013	79.998	19.994	100.328	19.347	66.358	0.501
542.000	344.000	79.997	19.993	100.312	19.283	70.722	0.463
544.000	345.003	79.997	19.996	100.435	19.243	73.425	0.502
546.000	346.022	79.999	19.994	100.388	19.199	76.302	0.518
548.000	346.995	79.999	19.995	100.381	19.127	81.308	0.500
550.000	347.986	79.998	19.995	100.417	19.050	86.628	0.475
552.000	348.975	79.997	19.995	100.442	19.009	89.275	0.462
554.000	349.966	79.995	19.994	100.428	19.000	89.849	0.495
556.000	350.945	79.997	19.995	100.318	18.948	93.350	0.478
558.000	351.943	79.995	19.994	100.366	18.840	100.882	0.490
560.000	353.005	79.995	19.994	100.548	18.777	105.122	0.508
562.001	354.000	79.996	19.995	100.519	18.772	105.308	0.482
564.000	355.020	79.994	19.994	100.311	18.739	107.570	0.501
566.000	356.022	79.994	19.995	100.318	18.673	112.149	0.514
568.000	357.021	79.995	19.996	100.420	18.621	115.672	0.523
570.000	358.003	79.995	19.996	100.524	18.599	117.099	0.480
572.000	359.040	79.995	19.997	100.419	18.591	117.694	0.534
574.001	360.043	79.995	19.994	100.293	18.533	121.630	0.497
576.000	361.078	79.996	19.994	100.461	18.492	124.415	0.510
578.000	362.127	79.995	19.996	100.463	18.467	126.088	0.528
580.000	363.123	79.996	19.996	100.454	18.413	129.759	0.490
582.000	364.173	79.995	19.995	100.454	18.369	132.761	0.524
584.000	365.172	79.994	19.994	100.458	18.344	134.466	0.510
586.000	366.210	79.995	19.995	100.440	18.305	137.080	0.522
588.000	367.242	79.994	19.994	100.453	18.266	139.746	0.525
590.000	368.258	79.995	19.994	100.423	18.224	142.598	0.527
592.000	369.263	79.995	19.995	100.491	18.187	145.138	0.490
594.000	370.339	79.995	19.993	100.481	18.150	147.634	0.513
596.000	371.329	79.996	19.995	100.456	18.113	150.113	0.522
598.000	372.356	79.998	19.995	100.472	18.082	152.217	0.507
600.001	373.391	79.998	19.994	100.468	18.056	153.963	0.514
602.000	374.402	79.998	19.994	100.466	18.032	155.571	0.525
604.000	375.431	79.997	19.994	100.465	18.004	157.463	0.528
606.000	376.467	79.996	19.994	100.464	17.987	158.620	0.524
608.000	377.474	79.998	19.995	100.467	17.965	160.116	0.513
610.000	378.481	79.997	19.995	100.463	17.949	161.193	0.511
612.000	379.467	79.997	19.994	100.449	17.938	161.948	0.512
614.000	380.486	79.998	19.995	100.450	17.935	162.106	0.527
616.000	381.497	79.998	19.994	100.429	17.932	162.269	0.485
618.000	382.497	79.997	19.993	100.429	17.938	161.853	0.518
620.000	383.514	79.998	19.994	100.425	17.951	160.952	0.493
622.000	384.512	80.000	19.994	100.407	17.970	159.702	0.521
624.000	385.522	79.999	19.995	100.416	17.992	158.183	0.528
626.000	386.492	79.999	19.995	100.392	18.020	156.242	0.487
628.000	387.512	79.999	19.996	100.387	18.054	153.941	0.505
630.000	388.498	79.998	19.995	100.389	18.082	152.052	0.471
632.000	389.490	79.997	19.995	100.378	18.130	148.771	0.479
634.000	390.508	79.995	19.995	100.362	18.174	145.789	0.495
636.001	391.535	79.996	19.995	100.359	18.229	142.029	0.518
638.000	392.530	79.995	19.994	100.345	18.278	138.695	0.491
640.000	393.631	79.994	19.995	100.338	18.346	134.090	0.536
642.000	394.624	79.994	19.995	100.325	18.408	129.867	0.533
644.000	395.563	79.996	19.994	100.314	18.474	125.356	0.500
646.000	396.572	79.997	19.995	100.309	18.538	121.019	0.496
648.000	397.593	79.996	19.995	100.292	18.622	115.341	0.512
650.001	398.588	79.996	19.994	100.282	18.700	110.056	0.525
652.000	399.626	79.995	19.994	100.277	18.771	105.264	0.492
654.000	400.635	79.996	19.996	100.267	18.849	99.986	0.516
656.000	401.606	79.993	19.995	100.253	18.923	94.929	0.502
658.000	402.661	79.995	19.995	100.258	19.004	89.434	0.517
660.000	403.640	79.995	19.995	100.249	19.083	84.127	0.453
662.000	404.681	79.995	19.996	100.233	19.159	78.959	0.519
664.000	405.703	79.995	19.996	100.232	19.230	74.154	0.509
666.000	406.682	79.996	19.996	100.231	19.307	68.936	0.505
668.000	407.706	79.995	19.996	100.229	19.377	64.206	0.476
670.000	408.753	79.995	19.994	100.227	19.452	59.137	0.498
672.000	409.742	79.995	19.994	100.227	19.513	54.961	0.479
674.000	410.763	79.997	19.995	100.223	19.580	50.485	0.522
676.000	411.791	79.998	19.995	100.219	19.635	46.744	0.524
678.000	412.817	79.997	19.993	100.205	19.695	42.679	0.511
680.000	413.810	79.998	19.995	100.213	19.748	39.089	0.511
682.000	414.786	79.998	19.994	100.194	19.799	35.624	0.503
684.001	415.841	79.998	19.994	100.204	19.844	32.594	0.505
686.000	416.773	79.996	19.994	100.212	19.885	29.827	0.524
688.000	417.850	79.998	19.995	100.202	19.926	27.083	0.523
690.000	418.820	79.996	19.993	100.196	19.959	24.820	0.508
692.000	419.823	79.997	19.995	100.191	20.001	21.974	0.491
694.000	420.834	79.997	19.995	100.193	20.028	20.151	0.517
696.000	421.870	79.996	19.992	100.196	20.062	17.844	0.509
698.000	422.903	79.998	19.994	100.210	20.085	16.325	0.504
700.000	423.849	79.998	19.995	100.208	20.100	15.256	0.483
702.000	424.910	79.998	19.993	100.214	20.125	13.576	0.544
704.000	425.892	79.998	19.994	100.215	20.147	12.077	0.526
706.000	426.901	79.998	19.994	100.202	20.158	11.334	0.486
708.000	427.926	80.000	19.993	100.207	20.172	10.384	0.501
710.000	428.921	79.999	19.993	100.206	20.188	9.346	0.506
712.000	429.908	79.999	19.994	100.208	20.198	8.636	0.490
714.000	430.907	79.996	19.993	100.200	20.212	7.700	0.486
716.000	431.961	79.998	19.994	100.202	20.222	7.051	0.524
718.001	432.946	79.997	19.995	100.207	20.229	6.531	0.493
720.000	433.995	79.995	19.994	100.203	20.243	5.571	0.516
722.001	435.036	79.996	19.994	100.205	20.253	4.938	0.523
724.000	436.034	79.996	19.995	100.205	20.251	5.045	0.529
726.000	437.071	79.994	19.995	100.198	20.260	4.436	0.510
728.000	438.085	79.996	19.994	100.202	20.266	4.059	0.542
730.000	439.066	79.998	19.994	100.201	20.270	3.796	0.492
732.000	440.083	79.997	19.995	100.199	20.283	2.893	0.495
734.000	441.091	79.996	19.995	100.205	20.280	3.098	0.504
736.000	442.114	79.996	19.995	100.197	20.292	2.308	0.502
738.000	443.132	79.996	19.996	100.196	20.295	2.055	0.504
740.000	444.143	79.995	19.994	100.193	20.301	1.673	0.513
742.000	445.136	79.996	19.995	100.197	20.302	1.613	0.505
744.000	446.141	79.994	19.994	100.192	20.304	1.441	0.488
746.000	447.143	79.996	19.997	100.195	20.304	1.441	0.504
748.000	448.131	79.994	19.995	100.194	20.309	1.118	0.518
750.000	449.156	79.995	19.994	100.192	20.308	1.234	0.484
752.000	450.185	79.994	19.996	100.191	20.312	0.941	0.481
754.000	451.208	79.996	19.996	100.198	20.318	0.530	0.527
756.000	452.199	79.996	19.996	100.195	20.317	0.592	0.500
758.000	453.218	79.997	19.996	100.196	20.317	0.620	0.537
760.000	454.251	79.998	19.996	100.192	20.320	0.373	0.531
762.000	455.249	79.998	19.993	100.191	20.319	0.491	0.525
764.000	456.250	79.997	19.994	100.198	20.318	0.535	0.527
766.000	457.264	79.997	19.994	100.196	20.321	0.301	0.503
768.000	458.266	79.996	19.994	100.200	20.319	0.478	0.503
770.001	459.308	79.998	19.996	100.204	20.323	0.203	0.510
772.000	460.341	79.996	19.993	100.196	20.321	0.321	0.492
774.000	461.352	79.997	19.994	100.198	20.321	0.334	0.529
776.000	462.378	79.998	19.995	100.203	20.319	0.480	0.509
778.000	463.381	79.997	19.994	100.197	20.324	0.101	0.506
780.000	464.358	79.996	19.994	100.204	20.321	0.334	0.495
782.000	465.406	79.996	19.994	100.204	20.325	0.028	0.537
784.000	466.446	80.000	19.995	100.195	20.324	0.137	0.523
786.001	467.422	79.998	19.994	100.197	20.328	-0.125	0.502
788.001	468.455	79.999	19.994	100.197	20.324	0.124	0.522
790.000	469.482	79.999	19.994	100.193	20.322	0.221	0.519
792.000	470.536	79.998	19.995	100.195	20.319	0.461	0.521
794.000	471.543	79.996	19.992	100.202	20.320	0.382	0.503
796.000	472.582	79.996	19.994	100.202	20.324	0.122	0.548
798.000	473.603	79.996	19.994	100.195	20.324	0.109	0.529
800.000	474.649	79.996	19.994	100.200	20.320	0.363	0.524
802.000	475.656	79.996	19.994	100.195	20.318	0.507	0.530
804.000	476.714	79.996	19.994	100.196	20.325	0.074	0.505
806.000	477.718	79.994	19.994	100.202	20.321	0.310	0.532
808.000	478.715	79.996	19.994	100.191	20.319	0.435	0.528
810.000	479.751	79.995	19.994	100.191	20.322	0.229	0.506
812.000	480.773	79.996	19.995	100.191	20.323	0.177	0.530
814.001	481.779	79.995	19.994	100.197	20.327	-0.059	0.506
816.000	482.830	79.996	19.994	100.200	20.324	0.122	0.522
818.000	483.851	79.996	19.995	100.201	20.325	0.072	0.490
820.000	484.883	79.996	19.995	100.192	20.324	0.131	0.523
822.000	485.916	79.996	19.993	100.192	20.322	0.249	0.508
824.000	486.929	79.995	19.994	100.193	20.319	0.463	0.513
826.001	487.898	79.996	19.994	100.196	20.320	0.391	0.496
828.000	488.926	79.995	19.996	100.210	20.320	0.376	0.516
830.000	489.957	79.995	19.995	100.200	20.324	0.113	0.513
832.000	490.997	79.996	19.996	100.200	20.321	0.336	0.479
834.000	492.019	79.995	19.995	100.197	20.320	0.360	0.538
836.000	493.085	79.995	19.994	100.201	20.325	0.072	0.522
838.000	494.126	79.996	19.996	100.201	20.322	0.249	0.521
840.000	495.191	79.996	19.995	100.193	20.325	0.074	0.536
842.000	496.157	79.995	19.994	100.204	20.320	0.376	0.506
844.000	497.235	79.994	19.995	100.208	20.323	0.190	0.504
846.000	498.281	79.996	19.997	100.205	20.324	0.142	0.519
848.000	499.293	79.995	19.997	100.209	20.323	0.177	0.523
850.000	500.335	79.997	19.996	100.216	20.317	0.624	0.504
852.000	501.407	79.996	19.995	100.194	20.320	0.363	0.537
854.000	502.390	79.996	19.994	100.194	20.324	0.089	0.503
856.000	503.459	79.996	19.994	100.198	20.318	0.554	0.560
858.000	504.466	79.996	19.993	100.197	20.324	0.142	0.499
860.000	505.575	79.996	19.994	100.194	20.321	0.332	0.564
862.000	506.554	79.998	19.995	100.194	20.316	0.673	0.527
864.000	507.565	79.997	19.993	100.196	20.317	0.624	0.493
866.000	508.620	79.999	19.995	100.199	20.314	0.797	0.533
868.000	509.643	79.999	19.995	100.204	20.320	0.386	0.536
870.000	510.635	79.998	19.994	100.205	20.321	0.308	0.514
872.000	511.655	79.999	19.997	100.199	20.321	0.338	0.463
874.000	512.699	79.997	19.993	100.191	20.318	0.504	0.498
876.000	513.734	79.995	19.993	100.193	20.317	0.566	0.528
878.000	514.757	79.996	19.995	100.191	20.315	0.723	0.521
880.000	515.783	79.996	19.996	100.196	20.316	0.675	0.528
882.000	516.793	79.995	19.995	100.195	20.316	0.661	0.527
884.000	517.834	79.997	19.995	100.193	20.322	0.251	0.524
886.000	518.852	79.996	19.995	100.195	20.327	-0.054	0.505
888.000	519.912	79.996	19.994	100.195	20.317	0.605	0.507
890.000	520.937	79.997	19.995	100.195	20.322	0.280	0.528
892.000	521.950	79.997	19.994	100.213	20.324	0.092	0.512
894.000	522.979	79.996	19.994	100.201	20.321	0.299	0.523
896.001	523.984	79.997	19.993	100.200	20.320	0.382	0.494
898.000	525.044	79.997	19.995	100.209	20.319	0.436	0.531
900.001	526.058	79.997	19.995	100.203	20.327	-0.085	0.513
902.000	527.050	79.995	19.993	100.207	20.321	0.341	0.521
904.000	528.085	79.995	19.996	100.212	20.320	0.386	0.502
906.000	529.071	79.995	19.996	100.196	20.318	0.517	0.490
908.000	530.109	79.995	19.995	100.213	20.318	0.522	0.521
910.000	531.096	79.995	19.995	100.217	20.319	0.432	0.491
912.000	532.090	79.995	19.993	100.210	20.317	0.568	0.509
914.000	533.141	79.996	19.996	100.209	20.319	0.482	0.488
916.000	534.167	79.997	19.994	100.210	20.320	0.423	0.523
918.000	535.174	79.997	19.995	100.211	20.315	0.733	0.505
920.000	536.181	79.998	19.996	100.211	20.319	0.478	0.486
922.000	537.208	80.000	19.995	100.201	20.322	0.229	0.494
924.000	538.215	79.998	19.995	100.197	20.322	0.225	0.495
926.000	539.205	79.999	19.995	100.199	20.317	0.605	0.478
928.001	540.219	79.997	19.995	100.199	20.320	0.423	0.517
930.000	541.216	79.997	19.996	100.197	20.319	0.450	0.510
932.000	542.254	79.997	19.995	100.193	20.323	0.209	0.507
934.000	543.215	79.997	19.996	100.201	20.319	0.428	0.499
936.000	544.258	79.998	19.997	100.196	20.317	0.611	0.527
938.000	545.275	79.998	19.996	100.203	20.320	0.360	0.530
940.000	546.293	79.997	19.994	100.199	20.320	0.423	0.527
942.000	547.300	80.000	19.994	100.194	20.319	0.428	0.489
944.000	548.334	80.000	19.994	100.214	20.322	0.240	0.513
946.000	549.364	80.000	19.995	100.211	20.322	0.264	0.487
948.000	550.369	79.999	19.995	100.218	20.325	0.050	0.513
950.000	551.347	79.997	19.994	100.217	20.319	0.480	0.506
952.000	552.363	79.998	19.994	100.224	20.322	0.255	0.497
954.000	553.372	79.998	19.995	100.224	20.316	0.631	0.492
956.000	554.424	79.996	19.996	100.226	20.321	0.316	0.526
958.000	555.445	79.995	19.995	100.228	20.323	0.209	0.485
960.000	556.460	79.995	19.994	100.202	20.319	0.469	0.524
962.000	557.458	79.995	19.994	100.179	20.319	0.474	0.498
964.001	558.537	79.995	19.995	100.268	20.323	0.157	0.536
966.000	559.542	79.997	19.994	100.223	20.321	0.312	0.510
968.001	560.539	79.995	19.993	100.232	20.318	0.556	0.526
970.001	561.602	79.995	19.995	100.226	20.321	0.345	0.513
972.001	562.618	79.996	19.996	100.230	20.324	0.126	0.505
974.000	563.651	79.997	19.994	100.225	20.321	0.338	0.555
976.000	564.656	79.995	19.994	100.228	20.324	0.131	0.500
978.000	565.704	79.998	19.994	100.233	20.322	0.247	0.525
980.001	566.743	79.996	19.993	100.218	20.323	0.172	0.528
982.000	567.755	79.998	19.994	100.230	20.318	0.505	0.492
984.000	568.753	79.997	19.994	100.232	20.320	0.410	0.490
986.000	569.824	79.996	19.994	100.224	20.322	0.227	0.544
988.000	570.849	79.997	19.994	100.222	20.321	0.293	0.539
990.000	571.824	79.997	19.996	100.224	20.320	0.421	0.496
992.001	572.860	79.997	19.995	100.159	20.319	0.456	0.505
994.000	573.982	79.997	19.997	100.239	20.321	0.345	0.556
996.000	574.997	79.997	19.994	100.277	20.318	0.511	0.530
998.000	575.988	79.997	19.995	100.217	20.317	0.615	0.489
1000.000	577.009	79.996	19.994	100.226	20.318	0.500	0.509
1002.000	578.044	79.997	19.995	100.230	20.316	0.633	0.533
1004.000	579.098	79.999	19.995	100.229	20.318	0.524	0.525
1006.000	580.042	79.997	19.995	100.225	20.318	0.502	0.493
1008.000	581.063	79.997	19.994	100.222	20.315	0.724	0.510
1010.000	582.078	79.997	19.994	100.223	20.318	0.502	0.521
1012.000	583.058	79.998	19.995	100.228	20.318	0.530	0.455
1014.000	584.059	79.996	19.995	100.221	20.315	0.753	0.480
1016.000	585.031	79.996	19.994	100.225	20.317	0.618	0.492
1018.001	586.054	79.997	19.995	100.228	20.317	0.581	0.485
1020.000	587.055	79.996	19.994	100.228	20.318	0.524	0.484
1022.000	588.079	79.998	19.994	100.227	20.316	0.688	0.512
1024.000	589.089	79.997	19.995	100.222	20.317	0.607	0.515
1026.001	590.088	79.999	19.996	100.228	20.314	0.827	0.506
1028.001	591.133	79.998	19.995	100.228	20.317	0.615	0.492
1030.000	592.110	79.999	19.995	100.228	20.314	0.812	0.482
1032.000	593.162	79.999	19.993	100.229	20.315	0.724	0.533
1034.000	594.158	79.998	19.994	100.231	20.316	0.674	0.499
1036.000	595.203	79.995	19.993	100.229	20.311	0.975	0.511
1038.000	596.233	79.995	19.993	100.228	20.314	0.781	0.503
1040.001	597.239	79.995	19.994	100.236	20.320	0.417	0.535
1042.000	598.244	79.996	19.996	100.229	20.318	0.526	0.491
1044.000	599.285	79.996	19.994	100.230	20.320	0.378	0.510
1046.001	600.288	79.997	19.994	100.234	20.319	0.430	0.498
1048.000	601.313	79.995	19.994	100.234	20.321	0.323	0.504
1050.000	602.344	79.996	19.994	100.235	20.319	0.469	0.508
1052.000	603.348	79.996	19.994	100.232	20.321	0.321	0.527
1054.001	604.341	79.996	19.994	100.235	20.320	0.401	0.502
1056.000	605.416	79.996	19.994	100.234	20.320	0.390	0.536
1058.001	606.435	79.997	19.995	100.230	20.326	0.004	0.536
1060.000	607.412	79.995	19.994	100.232	20.322	0.234	0.514
1062.001	608.416	79.996	19.994	100.234	20.320	0.362	0.491
1064.001	609.457	79.996	19.994	100.240	20.319	0.473	0.501
1066.000	610.471	79.996	19.994	100.242	20.318	0.506	0.505
1068.001	611.461	79.995	19.994	100.246	20.322	0.264	0.499
1070.001	612.477	79.996	19.994	100.237	20.319	0.473	0.505
1072.001	613.550	79.997	19.994	100.246	20.320	0.421	0.530
1074.001	614.554	79.997	19.995	100.242	20.318	0.548	0.509
1076.001	615.583	79.997	19.995	100.237	20.319	0.473	0.517
1078.001	616.593	79.997	19.994	100.251	20.316	0.637	0.506
1080.001	617.603	79.997	19.994	100.239	20.319	0.469	0.505
1082.000	618.629	79.997	19.995	100.249	20.318	0.497	0.520
1084.000	619.608	79.997	19.995	100.246	20.319	0.486	0.456
1086.000	620.623	79.997	19.995	100.244	20.315	0.726	0.492
1088.000	621.630	79.996	19.995	100.249	20.315	0.748	0.517
1090.001	622.646	79.996	19.995	100.251	20.319	0.474	0.522
1092.001	623.641	79.996	19.995	100.239	20.314	0.796	0.459
1094.000	624.650	79.997	19.995	100.244	20.318	0.556	0.507
1096.000	625.657	79.996	19.995	100.250	20.317	0.591	0.502
1098.000	626.665	79.996	19.994	100.246	20.317	0.606	0.489
1100.001	627.686	79.996	19.994	100.238	20.313	0.845	0.515
1102.000	628.725	79.997	19.996	100.248	20.318	0.539	0.501
1104.001	629.720	79.996	19.995	100.247	20.315	0.735	0.497
1106.000	630.736	79.997	19.994	100.242	20.315	0.703	0.507
1108.000	631.781	79.998	19.995	100.245	20.317	0.580	0.526
1110.000	632.823	79.997	19.995	100.241	20.319	0.449	0.539
1112.000	633.832	79.997	19.996	100.242	20.315	0.722	0.529
1114.000	634.913	79.996	19.996	100.250	20.304	1.453	0.541
1116.000	635.929	79.996	19.996	100.246	20.313	0.851	0.497
1118.000	636.980	79.996	19.996	100.253	20.314	0.783	0.533
1120.000	638.030	79.996	19.995	100.254	20.310	1.087	0.535
1122.000	639.052	79.995	19.995	100.231	20.310	1.045	0.496
1124.000	640.133	79.997	19.994	100.243	20.315	0.727	0.534
1126.000	641.108	79.996	19.995	100.241	20.312	0.905	0.521
1128.001	642.170	79.996	19.995	100.241	20.312	0.938	0.546
1130.001	643.216	79.996	19.994	100.242	20.313	0.842	0.511
1132.001	644.209	79.997	19.994	100.258	20.312	0.921	0.485
1134.001	645.230	79.996	19.994	100.254	20.311	1.032	0.485
1136.000	646.267	79.996	19.994	100.248	20.310	1.087	0.541
1138.001	647.278	79.996	19.995	100.260	20.308	1.195	0.499
1140.000	648.319	79.993	19.994	100.253	20.312	0.910	0.533
1142.001	649.367	79.996	19.994	100.256	20.311	0.971	0.512
1144.001	650.371	79.997	19.995	100.261	20.312	0.953	0.509
1146.002	651.433	79.994	19.995	100.255	20.308	1.195	0.517
1148.000	652.453	79.996	19.995	100.257	20.312	0.916	0.533
1150.000	653.413	79.997	19.995	100.255	20.314	0.825	0.495
1152.001	654.470	79.996	19.996	100.266	20.313	0.888	0.523
1154.001	655.528	79.997	19.995	100.263	20.312	0.945	0.512
1156.001	656.503	79.999	19.994	100.254	20.313	0.849	0.511
1158.001	657.522	79.998	19.995	100.271	20.313	0.866	0.466
1160.000	658.542	79.999	19.994	100.266	20.313	0.842	0.482
1162.000	659.577	80.001	19.996	100.268	20.313	0.883	0.522
1164.000	660.596	79.997	19.994	100.270	20.312	0.907	0.511
1166.001	661.581	79.998	19.993	100.273	20.312	0.949	0.501
1168.000	662.625	79.997	19.994	100.268	20.308	1.173	0.499
1170.001	663.604	79.996	19.994	100.264	20.308	1.209	0.483
1172.001	664.644	79.995	19.995	100.267	20.309	1.152	0.489
1174.001	665.542	79.997	19.995	100.272	20.307	1.263	0.402
1176.001	666.598	79.997	19.996	100.258	20.312	0.936	0.460
1178.000	667.617	79.997	19.996	100.260	20.311	0.993	0.492
1180.000	668.637	79.999	19.997	100.269	20.315	0.713	0.483
1182.000	669.612	79.999	19.995	100.268	20.312	0.945	0.466
1184.000	670.612	79.996	19.994	100.267	20.307	1.250	0.480
1186.000	671.624	79.998	19.993	100.264	20.309	1.162	0.484
1188.000	672.607	79.998	19.994	100.266	20.308	1.202	0.471
1190.000	673.653	80.000	19.996	100.265	20.311	1.008	0.522
1192.000	674.663	79.998	19.995	100.267	20.317	0.595	0.513
1194.000	675.735	79.996	19.995	100.268	20.312	0.938	0.526
1196.002	676.770	79.995	19.995	100.272	20.316	0.637	0.530
1198.000	677.722	79.997	19.996	100.273	20.317	0.580	0.479
1200.000	678.706	79.994	19.995	100.269	20.315	0.696	0.470
1202.001	679.704	79.992	19.994	100.269	20.313	0.836	0.522
1204.001	680.736	79.996	19.997	100.269	20.311	1.025	0.507
1206.000	681.737	79.995	19.997	100.268	20.313	0.870	0.486
1208.000	682.789	79.995	19.995	100.268	20.306	1.331	0.525
1210.000	683.771	79.994	19.995	100.269	20.310	1.067	0.510
1212.000	684.809	79.994	19.994	100.271	20.315	0.709	0.493
1214.001	685.791	79.998	19.995	100.273	20.307	1.272	0.489
1216.000	686.784	79.996	19.994	100.273	20.311	1.023	0.500
1218.001	687.784	79.996	19.995	100.273	20.309	1.165	0.467
1220.000	688.826	79.999	19.994	100.272	20.307	1.285	0.530
1222.000	689.839	79.999	19.995	100.273	20.304	1.463	0.490
1224.000	690.821	79.998	19.996	100.273	20.307	1.293	0.491
1226.000	691.818	79.997	19.992	100.275	20.309	1.123	0.476
1228.000	692.881	79.995	19.995	100.276	20.309	1.104	0.509
1230.000	693.882	79.996	19.996	100.274	20.312	0.899	0.512
1232.000	694.877	79.992	19.994	100.275	20.303	1.509	0.497
1234.001	695.926	79.996	19.995	100.275	20.307	1.239	0.510
1236.001	696.975	79.997	19.995	100.274	20.304	1.475	0.511
1238.000	697.998	79.995	19.994	100.272	20.306	1.346	0.518
1240.000	699.007	79.996	19.994	100.271	20.300	1.736	0.518
1242.000	700.004	79.998	19.995	100.269	20.308	1.173	0.476
1244.000	701.031	79.998	19.995	100.271	20.303	1.536	0.505
1246.001	702.012	79.999	19.993	100.272	20.298	1.900	0.505
1248.000	703.054	79.999	19.994	100.269	20.306	1.330	0.477
1250.000	704.065	79.997	19.994	100.269	20.306	1.365	0.507
1252.001	705.073	79.995	19.994	100.270	20.305	1.438	0.490
1254.000	706.101	79.995	19.995	100.273	20.308	1.224	0.515
1256.000	707.121	79.998	19.996	100.272	20.307	1.237	0.507
1258.000	708.122	79.997	19.996	100.271	20.303	1.542	0.512
1260.000	709.151	79.997	19.995	100.270	20.305	1.424	0.508
1262.002	710.194	79.997	19.994	100.271	20.307	1.272	0.509
1264.000	711.226	79.999	19.995	100.272	20.311	0.981	0.505
1266.000	712.262	79.998	19.994	100.270	20.308	1.209	0.513
1268.000	713.276	79.998	19.996	100.267	20.307	1.276	0.535
1270.001	714.296	79.996	19.995	100.267	20.303	1.527	0.502
1272.001	715.337	79.998	19.994	100.270	20.306	1.352	0.520
1274.001	716.346	79.996	19.996	100.279	20.307	1.282	0.490
1276.000	717.379	79.997	19.994	100.271	20.301	1.679	0.493
1278.000	718.385	79.994	19.995	100.271	20.300	1.764	0.502
1280.000	719.357	79.995	19.994	100.280	20.302	1.614	0.506
1282.001	720.386	79.996	19.994	100.272	20.303	1.570	0.510
1284.000	721.369	79.996	19.994	100.274	20.304	1.461	0.490
1286.001	722.382	79.996	19.995	100.276	20.305	1.426	0.521
1288.001	723.360	79.995	19.994	100.282	20.303	1.575	0.494
1290.001	724.353	79.995	19.995	100.286	20.304	1.503	0.498
1292.001	725.364	79.992	19.994	100.276	20.305	1.438	0.501
1294.000	726.375	79.995	19.996	100.276	20.304	1.483	0.500
1296.000	727.373	79.994	19.995	100.277	20.303	1.509	0.485
1298.000	728.409	79.994	19.996	100.280	20.303	1.529	0.492
1300.000	729.426	79.995	19.995	100.285	20.303	1.520	0.505
1302.001	730.393	79.995	19.995	100.283	20.302	1.610	0.485
1304.000	731.433	79.993	19.994	100.271	20.305	1.405	0.506
1306.000	732.441	79.996	19.995	100.270	20.304	1.457	0.508
1308.000	733.430	79.995	19.995	100.274	20.306	1.324	0.497
1310.000	734.431	79.995	19.995	100.280	20.302	1.586	0.489
1312.000	735.445	79.996	19.995	100.283	20.304	1.492	0.518
1314.000	736.417	79.995	19.994	100.281	20.301	1.688	0.492
1316.000	737.424	79.996	19.995	100.286	20.300	1.764	0.503
1318.000	738.453	79.996	19.995	100.219	20.303	1.553	0.494
1320.001	739.468	79.995	19.997	100.337	20.302	1.621	0.508
1322.000	740.479	79.997	19.995	100.298	20.305	1.385	0.534
1324.000	741.476	79.999	19.995	100.274	20.303	1.561	0.491
1326.000	742.489	79.997	19.994	100.294	20.305	1.378	0.511
1328.001	743.476	80.000	19.995	100.307	20.297	1.978	0.497