File: 01_Data/PMMA_R01/MCC/PMMA_MCC_30K_min_210920_R1.txt
Sample ID:	C:\MCC\PMMA_MCC_30K_min_210920_R1.txt
Sample Weight (mg):	4.57
Heating Rate (C/s):	0.5
Combustor Temp (C):	900
N2 Flow Rate (cc/min):	80
O2 Flow Rate (cc/min):	20
Calibration File:	C:\MCC\MCC Cal\Coeff1 JN10440_30_210304.txt.txt
T Correction Coefficients:	0	1.024463	0
Time Shift (s):	14
*
Time (s)	Temperature (C)	N2 flow rate (cc/min)	O2 flow rate (cc/min)	Flow Rate (cc/min)	Oxygen (%)	HRR (W/g)	Heating rate (C/s)
0.001	105.721	79.997	19.994	99.804	20.386	0.130	0.012
2.000	105.687	79.995	19.995	99.804	20.388	-0.035	0.011
4.000	105.666	79.996	19.995	99.809	20.386	0.156	-0.004
6.000	105.679	79.996	19.994	99.813	20.387	0.080	0.009
8.000	105.655	79.995	19.994	99.815	20.384	0.277	0.016
10.000	105.672	79.997	19.994	99.821	20.386	0.136	0.010
12.000	105.644	79.997	19.995	99.832	20.384	0.244	-0.028
14.000	105.674	79.996	19.994	99.841	20.377	0.732	-0.007
16.000	105.744	79.996	19.995	99.872	20.375	0.857	0.016
18.000	105.688	79.997	19.994	99.918	20.366	1.518	-0.009
20.000	105.829	79.994	19.994	99.947	20.364	1.594	0.046
22.000	105.882	79.994	19.996	99.955	20.359	1.941	0.062
24.002	106.036	79.994	19.995	99.992	20.355	2.257	0.076
26.000	106.212	79.993	19.995	100.019	20.352	2.464	0.105
28.000	106.367	79.995	19.994	100.025	20.348	2.699	0.065
30.000	106.607	79.993	19.994	100.025	20.346	2.831	0.131
32.000	106.836	79.994	19.994	100.036	20.345	2.932	0.104
34.000	107.128	79.994	19.994	100.045	20.346	2.889	0.148
36.000	107.427	79.993	19.995	100.044	20.343	3.043	0.146
38.001	107.802	79.995	19.994	100.040	20.342	3.098	0.161
40.000	108.178	79.995	19.995	100.044	20.339	3.332	0.209
42.000	108.579	79.995	19.995	100.050	20.341	3.207	0.212
44.000	108.971	79.995	19.993	100.045	20.340	3.293	0.209
46.000	109.491	79.995	19.994	100.045	20.342	3.148	0.235
48.001	109.919	79.996	19.995	100.045	20.341	3.183	0.216
50.000	110.393	79.993	19.994	100.056	20.339	3.325	0.240
52.001	110.911	79.994	19.995	100.053	20.337	3.478	0.275
54.000	111.432	79.994	19.995	100.046	20.337	3.493	0.278
56.001	111.964	79.993	19.995	100.045	20.337	3.484	0.277
58.001	112.555	79.994	19.994	100.050	20.339	3.311	0.297
60.001	113.115	79.994	19.994	100.060	20.336	3.540	0.272
62.001	113.709	79.994	19.994	100.054	20.339	3.334	0.302
64.001	114.294	79.994	19.993	100.074	20.331	3.899	0.321
66.001	114.938	79.996	19.994	100.078	20.333	3.755	0.286
68.000	115.611	79.995	19.994	100.093	20.334	3.655	0.338
70.000	116.273	79.995	19.993	100.087	20.330	3.927	0.350
72.001	116.970	79.996	19.994	100.096	20.330	3.934	0.334
74.000	117.666	79.996	19.996	100.101	20.325	4.320	0.311
76.000	118.431	79.994	19.997	100.104	20.325	4.284	0.373
78.000	119.159	79.996	19.995	100.108	20.326	4.219	0.368
80.000	119.900	79.996	19.995	100.101	20.327	4.183	0.381
82.000	120.621	79.995	19.995	100.102	20.323	4.426	0.341
84.000	121.416	79.995	19.995	100.091	20.324	4.344	0.381
86.000	122.244	79.996	19.995	100.093	20.321	4.584	0.402
88.001	123.024	79.995	19.994	100.096	20.322	4.504	0.389
90.001	123.891	79.997	19.995	100.100	20.320	4.648	0.429
92.000	124.739	79.997	19.995	100.087	20.320	4.655	0.428
94.000	125.571	79.996	19.995	100.097	20.318	4.781	0.445
96.001	126.414	79.996	19.994	100.093	20.323	4.435	0.438
98.000	127.308	79.996	19.994	100.093	20.317	4.849	0.453
100.001	128.162	79.996	19.994	100.099	20.317	4.854	0.410
102.000	129.039	79.994	19.994	100.104	20.316	4.892	0.466
104.000	129.943	79.994	19.994	100.093	20.314	5.039	0.451
106.000	130.864	79.993	19.995	100.088	20.318	4.755	0.458
108.001	131.768	79.994	19.995	100.095	20.312	5.155	0.465
110.001	132.645	79.992	19.996	100.088	20.311	5.281	0.450
112.000	133.549	79.992	19.996	100.105	20.310	5.303	0.445
114.001	134.505	79.994	19.995	100.101	20.307	5.540	0.470
116.000	135.489	79.995	19.995	100.084	20.306	5.566	0.455
118.001	136.402	79.997	19.995	100.080	20.305	5.675	0.489
120.001	137.364	79.994	19.994	100.088	20.301	5.920	0.498
122.000	138.300	79.995	19.993	100.091	20.300	5.984	0.466
124.000	139.232	79.996	19.994	100.092	20.297	6.237	0.493
126.000	140.195	79.996	19.995	100.093	20.293	6.459	0.455
128.000	141.164	79.996	19.995	100.106	20.292	6.530	0.466
130.001	142.129	79.995	19.994	100.100	20.289	6.766	0.479
132.000	143.190	79.995	19.994	100.097	20.287	6.898	0.549
134.000	144.127	79.994	19.995	100.097	20.282	7.246	0.475
136.000	145.133	79.993	19.995	100.097	20.280	7.391	0.494
138.001	146.131	79.993	19.995	100.092	20.278	7.540	0.510
140.000	147.120	79.995	19.994	100.104	20.271	7.954	0.477
142.000	148.098	79.994	19.994	100.090	20.269	8.092	0.508
144.000	149.101	79.994	19.995	100.085	20.266	8.354	0.502
146.000	150.150	79.996	19.994	100.095	20.260	8.743	0.509
148.000	151.107	79.995	19.994	100.102	20.257	8.966	0.468
150.000	152.125	79.996	19.993	100.094	20.252	9.279	0.486
152.000	153.118	79.997	19.994	100.102	20.251	9.333	0.482
154.000	154.132	79.996	19.994	100.092	20.246	9.696	0.471
156.000	155.136	79.996	19.993	100.086	20.240	10.082	0.490
158.000	156.152	79.995	19.994	100.089	20.239	10.168	0.498
160.000	157.119	79.997	19.994	100.082	20.232	10.624	0.483
162.000	158.166	79.995	19.993	100.083	20.227	11.010	0.502
164.000	159.186	79.995	19.994	100.085	20.223	11.240	0.518
166.000	160.170	79.995	19.994	100.083	20.220	11.462	0.517
168.000	161.179	79.995	19.995	100.087	20.219	11.549	0.498
170.000	162.207	79.996	19.994	100.088	20.211	12.104	0.500
172.000	163.169	79.996	19.994	100.083	20.209	12.224	0.496
174.001	164.208	79.997	19.995	100.081	20.206	12.453	0.490
176.000	165.244	79.997	19.995	100.077	20.203	12.658	0.521
178.000	166.286	79.997	19.994	100.074	20.199	12.887	0.530
180.000	167.261	79.996	19.994	100.074	20.197	13.030	0.500
182.000	168.268	79.996	19.993	100.075	20.196	13.084	0.507
184.001	169.282	79.995	19.995	100.076	20.196	13.106	0.498
186.000	170.308	79.996	19.995	100.075	20.195	13.185	0.501
188.000	171.287	79.996	19.995	100.087	20.191	13.425	0.491
190.000	172.251	79.995	19.995	100.015	20.186	13.817	0.469
192.000	173.295	79.994	19.995	100.085	20.190	13.519	0.483
194.000	174.315	79.994	19.994	100.130	20.190	13.487	0.528
196.000	175.286	79.994	19.995	100.076	20.190	13.533	0.495
198.001	176.278	79.994	19.996	100.075	20.189	13.590	0.510
200.000	177.285	79.993	19.997	100.065	20.188	13.642	0.459
202.000	178.319	79.995	19.996	100.069	20.190	13.546	0.519
204.001	179.292	79.994	19.995	100.065	20.191	13.460	0.484
206.000	180.251	79.994	19.996	100.069	20.192	13.356	0.461
208.000	181.280	79.994	19.994	100.073	20.199	12.935	0.516
210.000	182.311	79.994	19.994	100.059	20.193	13.338	0.481
212.000	183.264	79.993	19.994	100.067	20.199	12.892	0.482
214.000	184.283	79.993	19.994	100.074	20.201	12.775	0.495
216.001	185.269	79.994	19.995	100.065	20.199	12.884	0.500
218.000	186.283	79.992	19.995	100.071	20.202	12.674	0.521
220.001	187.325	79.993	19.995	100.075	20.199	12.898	0.552
222.001	188.294	79.994	19.995	100.075	20.205	12.458	0.459
224.000	189.227	79.994	19.993	100.067	20.207	12.345	0.466
226.000	190.246	79.994	19.993	100.055	20.211	12.089	0.500
228.000	191.226	79.995	19.994	100.051	20.213	11.972	0.463
230.000	192.200	79.995	19.993	100.061	20.211	12.109	0.455
232.000	193.199	79.996	19.994	100.053	20.213	11.977	0.481
234.000	194.193	79.995	19.994	100.062	20.213	11.924	0.497
236.000	195.174	79.995	19.994	100.051	20.211	12.087	0.482
238.000	196.133	79.995	19.994	100.061	20.211	12.059	0.497
240.000	197.123	79.996	19.993	100.045	20.212	12.039	0.502
242.000	198.149	79.995	19.994	100.057	20.210	12.180	0.554
244.000	199.117	79.995	19.994	100.068	20.213	11.955	0.510
246.000	200.055	79.997	19.995	100.062	20.214	11.844	0.476
248.000	201.045	79.996	19.995	100.042	20.215	11.806	0.469
250.001	202.031	79.995	19.994	100.055	20.216	11.713	0.485
252.000	203.015	79.998	19.994	100.061	20.213	11.967	0.472
254.000	203.976	79.996	19.994	100.051	20.211	12.064	0.472
256.000	204.979	79.996	19.994	100.065	20.210	12.157	0.493
258.000	205.944	79.997	19.995	100.056	20.212	12.024	0.492
260.000	206.964	79.997	19.994	100.053	20.207	12.348	0.502
262.000	207.971	79.995	19.995	100.056	20.207	12.337	0.517
264.001	208.920	79.994	19.995	100.047	20.207	12.383	0.490
266.000	209.898	79.993	19.995	100.048	20.204	12.539	0.494
268.000	210.854	79.995	19.995	100.054	20.205	12.507	0.480
270.000	211.872	79.995	19.995	100.057	20.202	12.696	0.504
272.000	212.816	79.994	19.995	100.050	20.201	12.746	0.472
274.001	213.775	79.993	19.995	100.051	20.200	12.812	0.484
276.000	214.794	79.993	19.994	100.072	20.199	12.893	0.489
278.000	215.764	79.994	19.995	100.058	20.201	12.761	0.499
280.000	216.700	79.993	19.995	100.063	20.198	12.935	0.509
282.000	217.723	79.995	19.996	100.050	20.196	13.086	0.495
284.000	218.675	79.993	19.995	100.058	20.193	13.322	0.477
286.000	219.617	79.994	19.995	100.055	20.192	13.381	0.457
288.000	220.594	79.994	19.995	100.058	20.192	13.392	0.481
290.000	221.585	79.994	19.995	100.054	20.191	13.473	0.479
292.000	222.551	79.991	19.995	100.064	20.187	13.734	0.479
294.000	223.568	79.992	19.996	100.062	20.186	13.785	0.476
296.000	224.545	79.993	19.996	100.057	20.184	13.922	0.508
298.000	225.480	79.992	19.996	100.069	20.185	13.869	0.475
300.000	226.484	79.994	19.995	100.063	20.183	13.968	0.512
302.000	227.419	79.995	19.996	100.072	20.181	14.151	0.493
304.000	228.429	79.994	19.995	100.065	20.178	14.305	0.459
306.000	229.475	79.995	19.995	100.053	20.182	14.043	0.518
308.000	230.426	79.995	19.995	100.058	20.179	14.250	0.477
310.000	231.389	79.997	19.995	100.054	20.180	14.180	0.510
312.000	232.339	79.996	19.994	100.048	20.179	14.241	0.466
314.001	233.341	79.995	19.994	100.039	20.179	14.285	0.482
316.000	234.330	79.996	19.995	100.040	20.178	14.310	0.517
318.000	235.286	79.996	19.994	100.041	20.181	14.160	0.502
320.001	236.274	79.995	19.995	100.041	20.182	14.026	0.494
322.001	237.221	79.995	19.995	100.050	20.187	13.732	0.482
324.000	238.215	79.997	19.995	100.040	20.189	13.564	0.472
326.000	239.180	79.996	19.995	100.044	20.192	13.346	0.475
328.000	240.138	79.997	19.994	100.058	20.199	12.914	0.477
330.000	241.113	79.997	19.994	100.044	20.201	12.787	0.503
332.000	242.140	79.998	19.994	100.042	20.210	12.177	0.523
334.000	243.106	79.997	19.995	100.044	20.208	12.272	0.482
336.000	244.056	79.998	19.993	100.041	20.219	11.558	0.475
338.000	245.081	79.998	19.993	100.043	20.226	11.087	0.503
340.000	246.056	79.998	19.993	100.040	20.229	10.848	0.496
342.000	247.070	79.996	19.993	100.039	20.235	10.422	0.476
344.000	248.022	79.994	19.994	100.041	20.234	10.527	0.458
346.000	249.018	79.994	19.995	100.042	20.236	10.352	0.489
348.000	250.025	79.993	19.994	100.041	20.235	10.424	0.499
350.000	251.093	79.994	19.996	100.049	20.233	10.551	0.506
352.000	252.090	79.993	19.996	100.048	20.234	10.506	0.489
354.000	253.134	79.994	19.995	100.040	20.235	10.442	0.497
356.000	254.097	79.994	19.995	100.044	20.233	10.595	0.475
358.000	255.111	79.994	19.994	100.052	20.231	10.748	0.497
360.001	256.070	79.994	19.994	100.049	20.227	11.005	0.499
362.000	257.077	79.994	19.994	100.055	20.222	11.339	0.496
364.000	258.113	79.995	19.995	100.050	20.219	11.520	0.503
366.000	259.158	79.994	19.995	100.060	20.211	12.099	0.511
368.000	260.135	79.994	19.995	100.068	20.201	12.791	0.502
370.000	261.132	79.995	19.995	100.069	20.195	13.178	0.500
372.000	262.147	79.993	19.996	100.053	20.181	14.157	0.503
374.000	263.159	79.994	19.994	100.067	20.168	15.005	0.500
376.000	264.152	79.994	19.996	100.068	20.161	15.497	0.482
378.000	265.202	79.994	19.996	100.063	20.150	16.271	0.516
380.000	266.215	79.993	19.996	100.054	20.139	17.016	0.493
382.000	267.236	79.994	19.996	100.070	20.123	18.102	0.500
384.000	268.217	79.992	19.996	100.075	20.109	19.034	0.515
386.000	269.235	79.995	19.996	100.076	20.096	19.947	0.487
388.000	270.234	79.995	19.995	100.074	20.079	21.085	0.504
390.000	271.286	79.996	19.995	100.075	20.070	21.710	0.528
392.001	272.312	79.996	19.994	100.076	20.057	22.588	0.525
394.002	273.289	79.996	19.994	100.076	20.042	23.604	0.484
396.000	274.297	79.995	19.995	100.078	20.027	24.661	0.485
398.001	275.276	79.994	19.994	100.078	20.010	25.791	0.479
400.000	276.279	79.996	19.995	100.079	19.994	26.937	0.522
402.000	277.265	79.995	19.994	100.080	19.983	27.693	0.504
404.000	278.271	79.994	19.995	100.075	19.968	28.657	0.507
406.001	279.316	79.995	19.995	100.086	19.958	29.407	0.523
408.000	280.328	79.996	19.995	100.088	19.943	30.413	0.494
410.000	281.332	79.996	19.995	100.081	19.932	31.160	0.500
412.000	282.271	79.996	19.995	100.081	19.916	32.248	0.477
414.000	283.300	79.997	19.994	100.081	19.898	33.450	0.509
416.000	284.322	79.997	19.995	100.099	19.871	35.335	0.494
418.000	285.320	79.996	19.994	100.112	19.855	36.396	0.487
420.000	286.329	79.997	19.994	100.083	19.851	36.663	0.507
422.000	287.357	79.995	19.995	100.068	19.840	37.408	0.479
424.000	288.357	79.995	19.994	100.074	19.827	38.344	0.499
426.000	289.348	79.994	19.995	100.101	19.815	39.172	0.507
428.000	290.379	79.996	19.995	100.114	19.801	40.081	0.522
430.001	291.388	79.995	19.995	100.107	19.787	41.041	0.501
432.001	292.384	79.995	19.994	100.084	19.782	41.382	0.489
434.000	293.397	79.996	19.994	100.076	19.775	41.884	0.481
436.000	294.366	79.995	19.995	100.082	19.776	41.832	0.534
438.000	295.397	79.995	19.995	100.085	19.773	42.033	0.490
440.000	296.400	79.995	19.997	100.081	19.760	42.873	0.489
442.000	297.417	79.995	19.995	100.099	19.759	42.920	0.494
444.000	298.390	79.996	19.996	100.096	19.758	42.993	0.480
446.000	299.420	79.996	19.994	100.076	19.764	42.622	0.454
448.000	300.421	79.996	19.996	100.065	19.768	42.337	0.482
450.000	301.420	79.996	19.996	100.065	19.775	41.859	0.460
452.000	302.424	79.995	19.995	100.065	19.793	40.637	0.532
454.000	303.439	79.995	19.994	100.044	19.811	39.423	0.488
456.000	304.436	79.996	19.995	100.038	19.820	38.788	0.522
458.000	305.411	79.996	19.996	100.066	19.825	38.439	0.488
460.000	306.467	79.996	19.995	100.077	19.840	37.390	0.511
462.001	307.452	79.994	19.995	100.045	19.859	36.136	0.486
464.000	308.488	79.993	19.996	100.038	19.873	35.146	0.500
466.000	309.492	79.997	19.995	100.048	19.888	34.157	0.486
468.000	310.540	79.995	19.995	100.065	19.896	33.581	0.536
470.000	311.564	79.996	19.996	100.063	19.910	32.643	0.497
472.000	312.576	79.996	19.995	100.042	19.927	31.500	0.524
474.000	313.567	79.996	19.995	100.038	19.938	30.699	0.507
476.000	314.604	79.996	19.995	100.041	19.943	30.376	0.511
478.000	315.582	79.997	19.995	100.062	19.943	30.359	0.482
480.000	316.594	79.996	19.994	100.076	19.937	30.800	0.493
482.001	317.629	79.996	19.994	100.072	19.931	31.226	0.533
484.000	318.651	79.995	19.995	100.076	19.927	31.475	0.538
486.000	319.668	79.995	19.995	100.052	19.929	31.365	0.515
488.000	320.684	79.996	19.994	100.056	19.929	31.367	0.502
490.000	321.641	79.996	19.993	100.043	19.926	31.564	0.493
492.000	322.638	79.997	19.994	100.046	19.927	31.501	0.491
494.000	323.698	79.996	19.994	100.058	19.914	32.341	0.516
496.000	324.652	79.997	19.994	100.085	19.883	34.498	0.501
498.000	325.658	79.999	19.994	100.122	19.860	36.052	0.489
500.000	326.658	79.999	19.995	100.097	19.848	36.926	0.495
502.000	327.693	79.998	19.995	100.061	19.837	37.667	0.494
504.000	328.652	79.998	19.995	100.038	19.832	37.981	0.505
506.001	329.658	79.996	19.994	100.057	19.821	38.767	0.479
508.001	330.674	79.996	19.994	100.088	19.803	39.979	0.506
510.000	331.610	79.997	19.995	100.107	19.775	41.872	0.495
512.000	332.623	79.995	19.995	100.118	19.750	43.624	0.491
514.000	333.686	79.996	19.995	100.110	19.728	45.147	0.496
516.000	334.689	79.996	19.994	100.104	19.714	46.111	0.510
518.000	335.711	79.994	19.993	100.079	19.696	47.304	0.485
520.000	336.647	79.997	19.995	100.084	19.675	48.708	0.504
522.000	337.740	79.995	19.994	100.112	19.629	51.827	0.498
524.000	338.750	79.996	19.995	100.138	19.560	56.601	0.519
526.000	339.835	79.995	19.994	100.227	19.504	60.518	0.520
528.002	340.791	79.996	19.995	100.177	19.473	62.581	0.623
530.001	341.830	79.995	19.995	100.104	19.464	63.165	0.756
532.001	342.724	79.995	19.995	100.048	19.442	64.664	0.306
534.000	343.684	79.994	19.995	100.092	19.384	68.666	0.546
536.000	344.594	79.995	19.996	100.216	19.338	71.774	0.533
538.001	345.645	79.996	19.994	100.218	19.305	73.976	0.491
540.000	346.583	79.994	19.995	100.180	19.242	78.319	0.517
542.000	347.627	79.994	19.994	100.151	19.164	83.738	0.508
544.000	348.587	79.995	19.995	100.220	19.131	86.372	0.517
546.000	349.547	79.995	19.994	100.172	19.123	86.603	0.493
548.000	350.548	79.995	19.994	100.128	19.131	85.880	0.461
550.001	351.553	79.996	19.995	100.062	19.105	87.502	0.474
552.000	352.580	79.997	19.995	100.191	18.946	98.463	0.523
554.000	353.575	79.996	19.994	100.475	18.766	111.048	0.485
556.000	354.620	79.996	19.995	100.576	18.711	114.802	0.538
558.000	355.586	79.997	19.996	100.161	18.689	116.255	0.463
560.000	356.586	79.995	19.996	99.986	18.702	115.435	0.485
562.000	357.610	79.994	19.996	99.900	18.708	115.017	0.504
564.001	358.641	79.994	19.995	100.161	18.680	116.877	0.499
566.001	359.625	79.996	19.996	100.327	18.661	118.162	0.526
568.000	360.612	79.996	19.995	100.247	18.628	120.370	0.466
570.000	361.686	79.996	19.996	100.246	18.559	125.149	0.526
572.000	362.643	79.996	19.994	100.300	18.503	129.014	0.501
574.000	363.702	79.998	19.994	100.248	18.456	132.194	0.508
576.000	364.696	79.999	19.994	100.245	18.415	135.058	0.520
578.001	365.709	79.999	19.994	100.193	18.374	137.853	0.507
580.000	366.700	79.998	19.995	100.221	18.332	140.735	0.490
582.000	367.719	79.999	19.994	100.260	18.294	143.268	0.490
584.000	368.726	79.998	19.994	100.246	18.248	146.434	0.501
586.000	369.736	79.995	19.994	100.252	18.210	149.025	0.498
588.000	370.743	79.995	19.995	100.261	18.168	151.899	0.494
590.000	371.701	79.995	19.995	100.268	18.134	154.281	0.496
592.000	372.737	79.995	19.995	100.248	18.100	156.583	0.537
594.000	373.717	79.995	19.994	100.243	18.068	158.759	0.499
596.000	374.718	79.993	19.995	100.252	18.043	160.454	0.499
598.001	375.696	79.995	19.994	100.245	18.016	162.289	0.466
600.000	376.710	79.996	19.996	100.249	17.997	163.604	0.511
602.000	377.724	79.996	19.995	100.263	17.977	164.959	0.484
604.001	378.699	79.995	19.994	100.246	17.965	165.809	0.509
606.000	379.709	79.994	19.994	100.240	17.958	166.272	0.501
608.000	380.716	79.995	19.994	100.238	17.954	166.509	0.488
610.000	381.715	79.995	19.994	100.233	17.959	166.131	0.526
612.000	382.725	79.994	19.994	100.223	17.964	165.820	0.486
614.000	383.708	79.995	19.994	100.230	17.977	164.881	0.515
616.000	384.725	79.994	19.994	100.221	17.994	163.702	0.481
618.001	385.714	79.994	19.995	100.208	18.021	161.873	0.506
620.000	386.735	79.994	19.995	100.202	18.050	159.864	0.531
622.000	387.757	79.995	19.996	100.193	18.082	157.675	0.523
624.000	388.748	79.994	19.995	100.190	18.122	154.909	0.506
626.000	389.747	79.995	19.996	100.173	18.163	152.067	0.505
628.000	390.750	79.995	19.995	100.168	18.214	148.602	0.525
630.000	391.765	79.997	19.994	100.153	18.262	145.255	0.524
632.000	392.805	79.997	19.995	100.150	18.322	141.170	0.523
634.000	393.858	79.997	19.995	100.130	18.376	137.475	0.529
636.000	394.888	79.997	19.994	100.121	18.444	132.826	0.505
638.000	395.895	79.996	19.995	100.114	18.511	128.200	0.537
640.000	396.957	79.996	19.995	100.107	18.585	123.125	0.529
642.000	397.961	79.995	19.996	100.094	18.658	118.157	0.498
644.001	398.980	79.995	19.994	100.084	18.730	113.270	0.495
646.001	400.005	79.996	19.996	100.076	18.806	108.021	0.517
648.001	400.994	79.996	19.996	100.072	18.880	102.993	0.479
650.001	402.035	79.996	19.996	100.061	18.960	97.491	0.542
652.000	403.084	79.996	19.996	100.052	19.034	92.473	0.535
654.000	404.093	79.997	19.995	100.047	19.114	87.013	0.505
656.000	405.127	79.997	19.995	100.042	19.189	81.842	0.512
658.000	406.140	79.998	19.995	100.038	19.269	76.421	0.486
660.000	407.205	79.999	19.995	100.038	19.341	71.468	0.511
662.000	408.158	79.997	19.995	100.037	19.410	66.761	0.490
664.000	409.177	79.997	19.994	100.033	19.479	62.033	0.496
666.000	410.215	79.996	19.995	100.015	19.546	57.456	0.538
668.001	411.242	79.994	19.995	100.023	19.611	53.068	0.494
670.001	412.272	79.995	19.994	100.013	19.671	48.961	0.504
672.000	413.328	79.995	19.995	100.017	19.723	45.375	0.521
674.000	414.301	79.996	19.994	100.011	19.777	41.665	0.502
676.000	415.317	79.996	19.994	100.015	19.830	38.142	0.501
678.000	416.305	79.995	19.994	100.008	19.876	34.973	0.474
680.000	417.330	79.996	19.995	100.011	19.925	31.623	0.521
682.000	418.389	79.995	19.995	100.004	19.957	29.407	0.517
684.000	419.386	79.995	19.995	99.946	19.997	26.690	0.529
686.001	420.413	79.996	19.994	100.043	20.033	24.256	0.514
688.000	421.399	79.997	19.994	100.076	20.062	22.218	0.496
690.000	422.438	79.996	19.994	100.013	20.089	20.393	0.500
692.000	423.455	79.996	19.994	100.009	20.117	18.497	0.518
694.000	424.515	79.996	19.995	100.021	20.141	16.858	0.540
696.000	425.510	79.995	19.993	100.011	20.159	15.627	0.522
698.000	426.575	79.996	19.994	100.002	20.176	14.428	0.528
700.000	427.564	79.995	19.994	100.008	20.195	13.194	0.497
702.000	428.562	79.997	19.994	100.018	20.204	12.550	0.538
704.000	429.596	79.997	19.994	100.011	20.217	11.675	0.499
706.000	430.605	79.996	19.995	100.003	20.230	10.781	0.501
708.000	431.699	79.997	19.995	100.001	20.247	9.626	0.526
710.000	432.686	79.996	19.994	100.001	20.255	9.061	0.512
712.000	433.725	79.996	19.996	99.999	20.266	8.307	0.525
714.000	434.727	79.997	19.995	99.999	20.274	7.788	0.540
716.000	435.723	79.997	19.995	99.998	20.277	7.538	0.483
718.000	436.739	79.997	19.994	100.004	20.288	6.805	0.474
720.001	437.799	79.994	19.995	100.014	20.295	6.326	0.528
722.000	438.826	79.997	19.995	100.017	20.298	6.149	0.494
724.001	439.789	79.996	19.995	100.002	20.302	5.848	0.488
726.002	440.805	79.996	19.995	100.004	20.305	5.679	0.508
728.000	441.817	79.995	19.995	100.009	20.310	5.304	0.478
730.000	442.839	79.996	19.995	100.004	20.314	5.015	0.516
732.000	443.870	79.996	19.994	100.003	20.315	4.945	0.493
734.000	444.896	79.997	19.994	100.003	20.321	4.533	0.501
736.000	445.892	79.997	19.994	100.004	20.325	4.310	0.507
738.000	446.912	79.998	19.996	100.009	20.324	4.327	0.518
740.000	447.953	79.997	19.995	99.999	20.329	3.986	0.556
742.000	448.957	79.997	19.996	99.999	20.329	4.006	0.501
744.000	449.948	79.996	19.996	100.001	20.332	3.785	0.517
746.000	450.987	79.997	19.995	100.002	20.332	3.817	0.519
748.000	452.013	79.996	19.995	100.005	20.332	3.831	0.522
750.000	453.040	79.996	19.996	100.004	20.334	3.645	0.539
752.000	454.065	79.995	19.996	99.997	20.333	3.770	0.514
754.000	455.085	79.994	19.993	100.003	20.336	3.552	0.537
756.000	456.120	79.995	19.995	100.012	20.335	3.629	0.509
758.000	457.171	79.995	19.994	100.001	20.334	3.654	0.523
760.000	458.153	79.995	19.995	100.000	20.333	3.710	0.512
762.000	459.186	79.994	19.994	100.006	20.333	3.714	0.502
764.000	460.220	79.996	19.994	99.998	20.336	3.543	0.476
766.001	461.256	79.995	19.995	100.002	20.336	3.547	0.533
768.001	462.263	79.996	19.994	100.005	20.334	3.673	0.527
770.000	463.297	79.996	19.995	99.998	20.336	3.532	0.517
772.001	464.297	79.995	19.996	100.000	20.337	3.493	0.505
774.001	465.293	79.995	19.994	100.000	20.337	3.472	0.468
776.000	466.337	79.996	19.994	100.003	20.337	3.448	0.508
778.000	467.347	79.996	19.995	100.002	20.337	3.480	0.502
780.000	468.390	79.993	19.994	100.004	20.340	3.262	0.502
782.000	469.423	79.995	19.993	100.004	20.343	3.045	0.533
784.000	470.401	79.996	19.995	100.011	20.340	3.301	0.502
786.000	471.449	79.995	19.994	100.000	20.337	3.467	0.500
788.000	472.454	79.995	19.994	100.001	20.338	3.375	0.496
790.000	473.512	79.995	19.993	99.992	20.337	3.472	0.535
792.000	474.512	79.997	19.994	99.945	20.338	3.388	0.504
794.000	475.601	79.997	19.995	100.064	20.337	3.442	0.531
796.000	476.646	79.997	19.995	100.008	20.340	3.251	0.535
798.001	477.663	79.997	19.994	100.008	20.342	3.137	0.525
800.000	478.684	79.996	19.994	100.000	20.340	3.256	0.525
802.000	479.701	79.995	19.995	100.001	20.342	3.129	0.501
804.000	480.740	79.996	19.994	100.002	20.341	3.187	0.501
806.000	481.793	79.995	19.994	100.004	20.345	2.941	0.536
808.000	482.766	79.994	19.994	100.000	20.341	3.200	0.504
810.000	483.813	79.997	19.996	100.004	20.340	3.262	0.513
812.001	484.880	79.996	19.996	100.001	20.336	3.545	0.528
814.000	485.915	79.998	19.994	99.994	20.338	3.433	0.534
816.000	486.909	79.998	19.995	99.997	20.338	3.396	0.505
818.000	487.906	79.998	19.995	99.996	20.336	3.532	0.491
820.000	488.928	79.998	19.995	99.997	20.337	3.463	0.510
822.000	489.997	79.998	19.996	99.997	20.334	3.688	0.518
824.000	490.968	79.996	19.994	99.997	20.335	3.589	0.484
826.000	491.975	79.997	19.995	99.996	20.337	3.440	0.493
828.000	493.022	79.996	19.996	99.995	20.341	3.202	0.502
830.000	494.018	79.994	19.995	99.997	20.337	3.470	0.496
832.001	495.021	79.995	19.995	99.995	20.336	3.550	0.517
834.000	496.035	79.995	19.995	99.995	20.337	3.461	0.503
836.000	497.060	79.994	19.996	99.997	20.334	3.645	0.506
838.000	498.068	79.994	19.995	99.997	20.335	3.612	0.503
840.000	499.083	79.996	19.995	99.997	20.340	3.286	0.511
842.000	500.102	79.996	19.996	99.997	20.337	3.481	0.539
844.000	501.116	79.995	19.994	99.998	20.336	3.554	0.505
846.000	502.139	79.996	19.992	99.999	20.337	3.437	0.517
848.001	503.153	79.995	19.995	100.000	20.336	3.530	0.512
850.000	504.171	79.994	19.993	100.002	20.341	3.200	0.518
852.000	505.206	79.995	19.995	100.002	20.340	3.277	0.546
854.000	506.219	79.996	19.994	100.000	20.339	3.366	0.504
856.000	507.229	79.995	19.994	100.000	20.340	3.258	0.508
858.000	508.270	79.994	19.993	100.001	20.340	3.249	0.540
860.000	509.291	79.994	19.995	100.005	20.341	3.230	0.505
862.000	510.340	79.993	19.996	100.000	20.336	3.547	0.498
864.000	511.322	79.994	19.994	100.001	20.334	3.660	0.518
866.000	512.324	79.995	19.994	100.003	20.335	3.606	0.471
868.000	513.391	79.994	19.994	100.006	20.337	3.504	0.539
870.000	514.431	79.996	19.994	100.002	20.340	3.232	0.517
872.000	515.448	79.996	19.994	100.001	20.335	3.612	0.511
874.000	516.529	79.996	19.995	100.001	20.343	3.059	0.539
876.000	517.504	79.997	19.996	100.000	20.337	3.487	0.495
878.000	518.573	79.996	19.994	99.997	20.341	3.198	0.520
880.000	519.611	79.996	19.993	99.998	20.337	3.457	0.518
882.001	520.670	79.996	19.993	99.998	20.337	3.446	0.525
884.000	521.715	79.995	19.994	99.997	20.340	3.249	0.554
886.000	522.699	79.996	19.995	99.997	20.340	3.239	0.482
888.000	523.727	79.997	19.995	99.999	20.340	3.247	0.492
890.000	524.778	79.996	19.995	99.999	20.338	3.405	0.532
892.000	525.816	79.996	19.995	100.000	20.340	3.280	0.522
894.001	526.853	79.997	19.995	99.998	20.339	3.349	0.515
896.001	527.830	79.997	19.995	99.995	20.341	3.165	0.523
898.001	528.864	79.997	19.996	99.996	20.336	3.537	0.513
900.000	529.920	79.998	19.995	99.988	20.337	3.476	0.525
902.000	530.948	79.997	19.996	99.990	20.335	3.604	0.519
904.000	531.946	79.997	19.995	99.998	20.340	3.265	0.502
906.000	532.995	79.997	19.996	99.999	20.340	3.258	0.519
908.000	534.038	79.995	19.996	99.999	20.338	3.424	0.530
910.000	535.042	79.996	19.996	100.000	20.335	3.600	0.518
912.000	536.087	79.995	19.994	100.000	20.339	3.301	0.520
914.001	537.118	79.995	19.995	99.999	20.340	3.232	0.532
916.000	538.095	79.994	19.994	100.001	20.341	3.170	0.474
918.000	539.131	79.995	19.996	100.000	20.338	3.396	0.516
920.000	540.179	79.994	19.996	99.998	20.338	3.375	0.528
922.001	541.152	79.995	19.995	99.990	20.339	3.349	0.488
924.000	542.102	79.994	19.996	99.998	20.339	3.360	0.450
926.000	543.216	79.995	19.996	99.997	20.338	3.431	0.522
928.000	544.190	79.994	19.994	99.997	20.336	3.565	0.515
930.000	545.183	79.994	19.995	99.998	20.338	3.404	0.481
932.001	546.235	79.994	19.994	100.003	20.343	3.049	0.519
934.000	547.249	79.995	19.994	100.001	20.344	2.999	0.502
936.000	548.267	79.993	19.995	100.002	20.339	3.304	0.522
938.000	549.292	79.996	19.994	100.004	20.342	3.109	0.541
940.000	550.304	79.995	19.995	100.013	20.343	3.074	0.491
942.000	551.348	79.994	19.994	100.009	20.340	3.236	0.526
944.000	552.351	79.997	19.995	100.001	20.336	3.556	0.474
946.001	553.447	79.995	19.993	99.999	20.339	3.351	0.522
948.000	554.501	79.996	19.996	100.000	20.345	2.938	0.540
950.000	555.539	79.996	19.994	100.001	20.340	3.278	0.539
952.000	556.597	79.997	19.995	100.001	20.342	3.150	0.534
954.000	557.643	79.997	19.995	100.004	20.341	3.202	0.532
956.000	558.660	79.996	19.994	100.002	20.342	3.144	0.527
958.000	559.697	79.996	19.994	99.998	20.335	3.593	0.525
960.000	560.715	79.997	19.994	99.998	20.340	3.279	0.505
962.000	561.791	79.997	19.995	99.998	20.338	3.431	0.545
964.000	562.837	79.996	19.994	99.998	20.336	3.519	0.521
966.000	563.881	79.997	19.994	99.999	20.340	3.288	0.527
968.000	564.896	79.996	19.995	100.003	20.338	3.418	0.507
970.000	565.956	79.995	19.993	100.011	20.338	3.381	0.520
972.000	566.918	79.996	19.994	100.004	20.337	3.504	0.494
974.000	567.998	79.997	19.994	100.001	20.339	3.353	0.530
976.000	569.055	79.997	19.994	100.000	20.335	3.576	0.512
978.000	570.054	79.998	19.993	100.000	20.340	3.254	0.531
980.000	571.060	79.998	19.994	100.000	20.335	3.589	0.495
982.000	572.092	79.998	19.995	99.999	20.337	3.474	0.503
984.000	573.146	79.999	19.995	100.004	20.336	3.547	0.529
986.000	574.197	79.997	19.995	99.998	20.336	3.569	0.500
988.000	575.245	79.996	19.995	99.999	20.336	3.511	0.508
990.000	576.292	79.996	19.993	99.997	20.339	3.310	0.483
992.000	577.328	79.995	19.994	100.000	20.338	3.420	0.532
994.000	578.335	79.995	19.995	99.999	20.340	3.292	0.505
996.000	579.397	79.995	19.994	100.000	20.338	3.429	0.555
998.000	580.363	79.995	19.994	100.002	20.339	3.332	0.498
1000.000	581.424	79.995	19.996	100.000	20.336	3.569	0.536
1002.000	582.441	79.995	19.995	100.008	20.335	3.606	0.522
1004.000	583.471	79.995	19.995	100.007	20.334	3.645	0.519
1006.000	584.481	79.995	19.995	100.002	20.338	3.433	0.537
1008.000	585.508	79.995	19.996	99.998	20.336	3.524	0.537
1010.000	586.533	79.994	19.994	100.003	20.341	3.200	0.530
1012.000	587.528	79.995	19.996	100.002	20.337	3.504	0.515
1014.000	588.560	79.995	19.996	100.005	20.344	3.008	0.471
1016.000	589.596	79.994	19.996	100.005	20.339	3.364	0.523
1018.000	590.580	79.995	19.997	100.002	20.339	3.347	0.455
1020.000	591.647	79.994	19.996	99.994	20.339	3.325	0.525
1022.000	592.632	79.996	19.995	99.998	20.335	3.614	0.501
1024.000	593.658	79.996	19.996	99.998	20.337	3.489	0.505
1026.001	594.673	79.996	19.995	100.000	20.335	3.614	0.498
1028.001	595.745	79.997	19.994	100.004	20.338	3.399	0.513
1030.000	596.731	79.996	19.995	100.000	20.337	3.448	0.497
1032.001	597.742	79.996	19.994	100.002	20.338	3.414	0.527
1034.000	598.752	79.998	19.995	100.000	20.336	3.562	0.515
1036.000	599.722	79.997	19.994	100.002	20.340	3.288	0.488
1038.001	600.730	79.996	19.995	100.007	20.335	3.586	0.513
1040.001	601.768	79.997	19.994	100.001	20.335	3.617	0.519
1042.001	602.765	79.997	19.996	100.002	20.337	3.504	0.483
1044.000	603.754	79.996	19.995	100.001	20.334	3.645	0.507
1046.000	604.789	79.997	19.994	100.003	20.334	3.670	0.504
1048.000	605.788	79.996	19.995	99.997	20.333	3.712	0.512
1050.000	606.786	79.997	19.994	99.999	20.335	3.603	0.509
1052.000	607.785	79.997	19.994	100.000	20.336	3.545	0.488
1054.000	608.786	79.997	19.995	100.000	20.336	3.545	0.476
1056.001	609.803	79.999	19.994	100.002	20.333	3.739	0.507
1058.001	610.813	79.998	19.993	100.004	20.335	3.635	0.504
1060.001	611.806	79.998	19.993	100.005	20.333	3.771	0.488
1062.001	612.805	79.999	19.994	100.003	20.336	3.564	0.475
1064.001	613.823	80.000	19.994	100.000	20.335	3.589	0.544
1066.001	614.811	79.998	19.994	100.012	20.334	3.664	0.496
1068.000	615.862	79.996	19.993	100.020	20.332	3.792	0.499
1070.001	616.853	79.996	19.994	100.015	20.337	3.444	0.497
1072.001	617.861	79.996	19.994	100.012	20.335	3.612	0.477
1074.001	618.898	79.997	19.995	99.999	20.334	3.666	0.552
1076.001	619.882	79.996	19.995	100.002	20.336	3.547	0.512
1078.000	620.893	79.995	19.996	100.003	20.335	3.591	0.528
1080.001	621.923	79.996	19.995	100.002	20.335	3.582	0.532
1082.001	622.886	79.996	19.995	100.009	20.329	4.001	0.506
1084.000	623.916	79.997	19.995	100.004	20.333	3.772	0.518
1086.000	624.949	79.996	19.996	100.001	20.328	4.100	0.516
1088.000	625.967	79.996	19.996	100.006	20.328	4.055	0.546
1090.000	626.956	79.997	19.995	100.011	20.332	3.794	0.510
1092.000	627.965	79.997	19.996	100.003	20.330	3.940	0.485
1094.000	628.957	79.996	19.995	100.004	20.331	3.851	0.503
1096.000	630.014	79.994	19.995	100.002	20.331	3.910	0.505
1098.000	631.001	79.996	19.997	100.012	20.328	4.061	0.503
1100.000	632.035	79.993	19.997	100.010	20.326	4.203	0.485
1102.000	633.018	79.994	19.995	100.007	20.331	3.914	0.512
1104.000	634.065	79.993	19.996	100.032	20.330	3.957	0.535
1106.000	635.053	79.996	19.996	100.017	20.327	4.184	0.482
1108.000	636.075	79.996	19.997	99.947	20.330	3.972	0.482
1110.000	637.065	79.994	19.995	100.034	20.332	3.828	0.496
1112.000	638.112	79.997	19.995	100.065	20.333	3.718	0.511
1114.000	639.116	79.997	19.995	100.029	20.326	4.225	0.547
1116.001	640.084	79.996	19.994	100.019	20.328	4.083	0.518
1118.000	641.133	79.997	19.993	100.012	20.326	4.204	0.505
1120.000	642.135	79.996	19.993	99.959	20.329	4.018	0.488
1122.000	643.161	79.996	19.994	100.024	20.332	3.795	0.524
1124.000	644.172	79.995	19.994	100.059	20.330	3.978	0.486
1126.000	645.162	79.997	19.994	100.023	20.328	4.091	0.510
1128.000	646.177	79.996	19.994	100.017	20.330	3.951	0.496
1130.000	647.204	79.995	19.994	100.009	20.323	4.422	0.536
1132.000	648.214	79.997	19.994	100.013	20.329	4.027	0.488
1134.000	649.228	79.997	19.995	100.022	20.332	3.785	0.508
1136.000	650.255	79.997	19.994	100.032	20.332	3.834	0.513
1138.000	651.287	79.997	19.994	100.028	20.333	3.776	0.515
1140.000	652.297	79.999	19.993	100.016	20.331	3.878	0.505
1142.000	653.321	79.998	19.993	100.003	20.329	4.024	0.513
1144.000	654.372	79.999	19.994	100.011	20.325	4.292	0.509
1146.000	655.360	79.997	19.995	100.005	20.330	3.949	0.517
1148.000	656.408	79.995	19.995	100.030	20.329	4.042	0.530
1150.000	657.394	79.996	19.994	100.015	20.322	4.480	0.514
1152.001	658.433	79.997	19.995	100.010	20.324	4.357	0.504
1154.001	659.405	79.996	19.996	100.011	20.327	4.177	0.491
1156.000	660.414	79.995	19.994	100.005	20.323	4.396	0.488
1158.000	661.435	79.994	19.992	100.002	20.325	4.294	0.504
1160.000	662.465	79.994	19.995	100.009	20.329	4.001	0.492
1162.000	663.449	79.997	19.995	100.007	20.321	4.597	0.479
1164.000	664.492	79.997	19.994	100.022	20.321	4.543	0.517
1166.000	665.472	79.994	19.994	100.016	20.326	4.214	0.514
1168.000	666.519	79.996	19.996	100.018	20.319	4.670	0.527
1170.000	667.502	79.996	19.994	100.005	20.327	4.132	0.492
1172.000	668.502	79.995	19.994	100.013	20.324	4.349	0.492
1174.000	669.527	79.997	19.997	100.017	20.326	4.255	0.470
1176.000	670.520	79.996	19.995	100.020	20.326	4.215	0.522
1178.000	671.511	79.996	19.994	100.025	20.324	4.330	0.514
1180.000	672.547	79.995	19.995	100.010	20.319	4.671	0.505
1182.000	673.563	79.995	19.995	100.036	20.329	4.005	0.546
1184.001	674.595	79.995	19.995	100.034	20.326	4.212	0.495
1186.000	675.629	79.993	19.995	100.015	20.332	3.806	0.515
1188.000	676.646	79.993	19.995	100.023	20.328	4.075	0.506
1190.000	677.686	79.995	19.996	100.036	20.331	3.916	0.491
1192.001	678.701	79.996	19.995	100.021	20.326	4.252	0.518
1194.000	679.659	79.997	19.997	100.014	20.322	4.494	0.526
1196.000	680.706	79.996	19.995	100.026	20.326	4.222	0.523
1198.000	681.699	79.999	19.996	99.969	20.325	4.298	0.494
1200.000	682.711	79.997	19.997	99.989	20.327	4.162	0.486
1202.001	683.728	79.996	19.995	100.079	20.325	4.260	0.528
1204.000	684.773	79.998	19.995	100.026	20.322	4.502	0.521
1206.000	685.728	79.996	19.995	100.031	20.325	4.260	0.527
1208.000	686.800	79.995	19.995	100.027	20.329	4.004	0.506
1210.000	687.809	79.996	19.994	100.017	20.325	4.294	0.508
1212.000	688.811	79.996	19.995	100.026	20.327	4.178	0.521
1214.000	689.808	79.996	19.994	100.011	20.326	4.225	0.486
1216.001	690.819	79.998	19.996	100.011	20.324	4.377	0.499
1218.000	691.830	79.999	19.995	100.019	20.325	4.318	0.514
1220.000	692.872	79.999	19.995	100.018	20.328	4.114	0.545
1222.001	693.873	80.000	19.996	100.015	20.323	4.438	0.499
1224.000	694.910	79.998	19.994	100.019	20.324	4.341	0.516
1226.000	695.915	79.999	19.995	100.019	20.327	4.170	0.492
1228.000	696.893	79.996	19.994	100.009	20.325	4.289	0.494
1230.000	697.889	79.996	19.995	100.027	20.323	4.436	0.509
1232.000	698.896	79.994	19.995	100.028	20.328	4.112	0.481
1234.000	699.880	79.995	19.995	100.029	20.323	4.416	0.469
1236.000	700.874	79.997	19.996	100.028	20.319	4.710	0.503
1238.000	701.918	79.997	19.994	100.038	20.323	4.439	0.502
1240.000	702.903	79.996	19.995	100.034	20.315	4.960	0.511
1242.000	703.882	79.995	19.993	100.031	20.320	4.639	0.527
1244.000	704.858	79.995	19.994	100.030	20.317	4.866	0.486
1246.000	705.911	79.996	19.995	100.040	20.313	5.096	0.503
1248.000	706.871	79.997	19.994	100.030	20.317	4.816	0.486
1250.000	707.891	79.994	19.994	100.013	20.321	4.562	0.547
1252.000	708.867	79.995	19.994	100.021	20.322	4.467	0.539
1254.000	709.891	79.995	19.994	100.025	20.316	4.888	0.480
1256.000	710.889	79.995	19.995	100.021	20.321	4.542	0.509
1258.000	711.875	79.998	19.995	100.017	20.326	4.196	0.485
1260.000	712.858	79.996	19.996	100.026	20.320	4.600	0.476
1262.000	713.887	79.996	19.996	100.016	20.324	4.376	0.539
1264.000	714.921	79.994	19.995	100.026	20.317	4.845	0.487
1266.001	716.005	79.999	19.996	100.014	20.315	4.941	0.560
1268.000	716.989	79.997	19.995	100.034	20.318	4.790	0.505
1270.001	717.954	79.995	19.996	100.033	20.316	4.906	0.478
1272.000	719.020	79.995	19.996	100.027	20.317	4.805	0.527
1274.000	719.996	79.995	19.996	100.026	20.317	4.864	0.517
1276.000	721.027	79.997	19.995	100.032	20.312	5.212	0.518
1278.001	722.052	79.998	19.996	100.033	20.317	4.847	0.493
1280.000	723.051	79.994	19.994	100.019	20.310	5.291	0.514
1282.000	724.103	79.998	19.995	100.020	20.318	4.778	0.509
1284.001	725.098	79.995	19.995	100.032	20.316	4.928	0.521
1286.000	726.075	79.996	19.995	100.026	20.315	4.963	0.491
1288.000	727.114	79.995	19.996	100.016	20.317	4.844	0.536
1290.001	728.103	79.996	19.994	100.022	20.317	4.868	0.501
1292.000	729.107	79.995	19.995	100.027	20.315	4.955	0.496
1294.000	730.139	79.995	19.995	100.032	20.321	4.540	0.487
1296.000	731.158	79.997	19.997	100.031	20.312	5.196	0.501
1298.000	732.186	79.997	19.996	100.030	20.315	4.999	0.508
1300.000	733.174	79.996	19.994	100.034	20.322	4.475	0.497
1302.001	734.202	79.999	19.994	100.027	20.318	4.775	0.491
1304.000	735.256	79.997	19.994	100.030	20.318	4.782	0.509
1306.000	736.243	79.997	19.994	100.037	20.317	4.846	0.494
1308.001	737.279	79.997	19.995	100.036	20.318	4.756	0.515
1310.000	738.289	79.996	19.995	100.034	20.320	4.608	0.516
1312.000	739.280	79.994	19.994	100.036	20.320	4.632	0.484
1314.000	740.346	79.995	19.996	100.035	20.322	4.494	0.504
1316.000	741.410	79.995	19.993	100.029	20.318	4.792	0.533
1318.001	742.396	79.996	19.994	100.038	20.317	4.870	0.499
1320.001	743.463	79.996	19.994	100.033	20.319	4.688	0.523