File: 01_Data/Cellulose_Insulation/MCC/Cellulose_Insulation_MCC_30K_min_220121_R2.txt
Sample ID:	C:\MCC\MCC Cal\Test\Cellulose_Insulation_MCC_30K_min_220121_R2.txt
Sample Weight (mg):	4.58
Heating Rate (C/s):	0.5
Combustor Temp (C):	900
N2 Flow Rate (cc/min):	80
O2 Flow Rate (cc/min):	20
Calibration File:	C:\MCC\MCC Cal\Coeff1 JN10440_30_210304.txt.txt
T Correction Coefficients:	0	1.024463	0
Time Shift (s):	14
*
Time (s)	Temperature (C)	N2 flow rate (cc/min)	O2 flow rate (cc/min)	Flow Rate (cc/min)	Oxygen (%)	HRR (W/g)	Heating rate (C/s)
0.000	110.659	80.002	19.997	103.626	20.211	0.000	-0.001
2.000	110.670	80.002	19.995	103.616	20.212	-0.071	0.018
3.999	110.624	80.000	19.994	103.615	20.210	0.058	-0.028
5.999	110.602	80.002	19.992	103.613	20.209	0.093	-0.038
7.999	110.650	80.001	19.994	103.614	20.208	0.212	-0.013
10.000	110.595	80.002	19.993	103.625	20.208	0.158	-0.025
12.001	110.637	80.002	19.993	103.624	20.208	0.197	-0.016
13.999	110.677	80.001	19.994	103.635	20.204	0.434	0.017
15.999	110.663	80.001	19.994	103.646	20.204	0.479	-0.002
17.999	110.674	80.000	19.993	103.648	20.205	0.394	0.011
19.999	110.707	80.002	19.994	103.662	20.200	0.716	0.017
21.999	110.782	80.001	19.993	103.714	20.198	0.881	0.026
23.999	110.819	80.002	19.994	103.721	20.193	1.234	0.007
25.999	110.873	80.001	19.994	103.741	20.189	1.497	0.016
27.999	110.974	80.002	19.994	103.767	20.180	2.152	0.019
29.999	111.138	80.003	19.993	103.807	20.181	2.083	0.052
32.000	111.338	80.004	19.994	103.815	20.176	2.409	0.088
33.999	111.497	80.003	19.993	103.817	20.173	2.668	0.084
36.000	111.761	80.002	19.995	103.828	20.173	2.685	0.112
37.999	112.009	80.002	19.994	103.846	20.167	3.083	0.129
39.999	112.365	80.002	19.995	103.861	20.167	3.078	0.180
41.999	112.650	80.002	19.995	103.865	20.163	3.331	0.169
43.999	113.044	80.002	19.994	103.870	20.163	3.356	0.190
45.999	113.438	80.002	19.995	103.874	20.165	3.199	0.172
47.999	113.882	80.001	19.996	103.869	20.163	3.379	0.216
49.999	114.350	80.002	19.995	103.870	20.162	3.440	0.242
51.999	114.853	80.002	19.995	103.868	20.161	3.525	0.250
53.999	115.378	80.004	19.994	103.870	20.161	3.487	0.243
55.999	115.914	80.003	19.996	103.868	20.164	3.297	0.272
57.999	116.483	80.002	19.995	103.869	20.161	3.481	0.281
59.999	117.065	80.000	19.997	103.890	20.160	3.544	0.282
62.000	117.679	80.002	19.993	103.885	20.159	3.677	0.309
63.999	118.289	80.000	19.994	103.903	20.159	3.624	0.271
65.999	118.938	80.001	19.995	103.905	20.158	3.744	0.329
67.999	119.612	80.002	19.995	103.898	20.158	3.742	0.339
69.999	120.300	80.000	19.994	103.897	20.160	3.552	0.355
71.999	121.009	80.002	19.994	103.903	20.154	4.007	0.375
73.999	121.725	80.002	19.994	103.898	20.157	3.815	0.342
75.999	122.469	80.001	19.994	103.910	20.158	3.697	0.363
77.999	123.213	80.001	19.995	103.910	20.157	3.806	0.383
79.999	123.976	80.000	19.994	103.910	20.157	3.809	0.388
81.999	124.775	80.001	19.994	103.910	20.157	3.780	0.397
83.999	125.554	80.001	19.995	103.910	20.157	3.765	0.420
85.999	126.365	80.001	19.994	103.911	20.159	3.674	0.391
87.999	127.180	80.000	19.994	103.911	20.158	3.691	0.402
89.999	128.032	80.001	19.994	103.911	20.159	3.637	0.400
91.999	128.911	80.001	19.994	103.909	20.155	3.927	0.434
94.000	129.741	80.002	19.993	103.909	20.156	3.842	0.419
96.000	130.651	80.001	19.992	103.907	20.159	3.672	0.452
97.999	131.519	80.001	19.993	103.903	20.158	3.720	0.446
99.999	132.426	80.001	19.993	103.907	20.159	3.633	0.426
101.999	133.308	80.003	19.994	103.902	20.162	3.434	0.442
103.999	134.192	80.002	19.993	103.897	20.158	3.722	0.433
105.999	135.166	80.003	19.994	103.903	20.160	3.598	0.464
107.999	136.072	80.002	19.994	103.899	20.160	3.546	0.477
109.999	136.992	80.002	19.994	103.905	20.158	3.698	0.468
111.999	137.932	80.001	19.995	103.902	20.159	3.639	0.450
113.999	138.880	80.002	19.995	103.896	20.161	3.513	0.445
115.999	139.848	80.001	19.994	103.899	20.160	3.577	0.470
117.999	140.846	80.000	19.994	103.899	20.161	3.536	0.508
119.999	141.793	80.003	19.995	103.895	20.160	3.592	0.476
121.999	142.757	80.002	19.995	103.895	20.160	3.604	0.508
123.999	143.753	80.002	19.995	103.897	20.162	3.414	0.474
126.000	144.753	80.003	19.994	103.894	20.156	3.884	0.477
127.999	145.735	80.001	19.993	103.897	20.157	3.800	0.485
130.000	146.768	80.003	19.993	103.891	20.158	3.723	0.531
132.000	147.689	80.003	19.993	103.893	20.158	3.735	0.509
134.000	148.704	80.001	19.994	103.895	20.160	3.605	0.483
136.000	149.727	80.000	19.994	103.885	20.161	3.494	0.519
138.000	150.718	80.000	19.996	103.878	20.160	3.574	0.500
140.000	151.697	80.001	19.994	103.874	20.161	3.497	0.484
142.000	152.687	80.000	19.994	103.875	20.159	3.656	0.486
144.000	153.721	80.000	19.994	103.882	20.160	3.547	0.485
146.000	154.712	80.000	19.995	103.887	20.160	3.578	0.472
148.000	155.707	80.001	19.993	103.877	20.160	3.563	0.493
150.000	156.780	80.002	19.994	103.874	20.158	3.736	0.539
152.000	157.747	80.001	19.994	103.883	20.160	3.574	0.490
154.000	158.747	80.001	19.993	103.878	20.159	3.659	0.459
156.000	159.768	80.002	19.993	103.871	20.159	3.674	0.495
158.000	160.757	80.000	19.993	103.871	20.158	3.740	0.492
160.000	161.813	80.000	19.994	103.870	20.156	3.883	0.535
162.000	162.768	80.001	19.994	103.870	20.158	3.723	0.495
164.000	163.804	80.001	19.993	103.868	20.159	3.680	0.522
166.000	164.817	80.000	19.993	103.869	20.158	3.740	0.494
168.000	165.833	80.001	19.993	103.862	20.159	3.620	0.538
170.000	166.814	80.001	19.994	103.869	20.155	3.922	0.511
172.000	167.815	79.997	19.994	103.868	20.155	3.945	0.472
174.000	168.817	79.999	19.996	103.867	20.158	3.705	0.496
176.000	169.833	80.001	19.994	103.867	20.157	3.774	0.479
178.000	170.836	79.999	19.993	103.863	20.155	3.900	0.495
180.000	171.823	80.002	19.995	103.867	20.156	3.885	0.475
182.000	172.847	80.003	19.994	103.861	20.158	3.725	0.490
184.000	173.842	80.001	19.994	103.869	20.156	3.844	0.481
186.000	174.820	80.002	19.993	103.862	20.152	4.138	0.493
188.000	175.853	80.002	19.993	103.849	20.156	3.843	0.535
190.000	176.843	80.003	19.993	103.851	20.154	3.987	0.499
192.000	177.840	80.002	19.992	103.866	20.154	4.031	0.484
194.000	178.797	80.002	19.993	103.857	20.154	4.020	0.475
196.000	179.813	80.002	19.993	103.849	20.155	3.937	0.515
198.000	180.800	80.001	19.994	103.866	20.155	3.920	0.520
200.000	181.771	80.003	19.994	103.860	20.155	3.915	0.488
202.000	182.786	80.001	19.994	103.842	20.154	4.024	0.485
204.000	183.817	80.001	19.993	103.863	20.154	3.969	0.481
206.000	184.822	80.003	19.994	103.851	20.152	4.122	0.518
208.000	185.825	80.003	19.993	103.857	20.151	4.205	0.502
210.000	186.834	80.003	19.993	103.856	20.151	4.245	0.493
212.000	187.822	80.004	19.993	103.855	20.151	4.208	0.490
214.000	188.816	80.003	19.993	103.853	20.153	4.084	0.474
216.000	189.796	80.001	19.994	103.838	20.154	3.988	0.484
218.000	190.781	80.000	19.994	103.842	20.150	4.247	0.481
220.000	191.757	80.002	19.994	103.849	20.149	4.380	0.507
222.000	192.717	80.001	19.993	103.836	20.148	4.431	0.508
224.000	193.726	80.001	19.994	103.845	20.147	4.466	0.496
226.000	194.714	80.001	19.994	103.849	20.150	4.304	0.436
228.000	195.677	80.000	19.995	103.837	20.148	4.454	0.498
230.000	196.666	80.000	19.996	103.837	20.150	4.277	0.491
232.000	197.633	79.999	19.994	103.839	20.149	4.373	0.464
234.000	198.648	80.000	19.995	103.845	20.147	4.489	0.529
236.000	199.601	80.000	19.995	103.852	20.147	4.518	0.468
238.000	200.551	80.000	19.995	103.848	20.147	4.508	0.491
240.000	201.585	80.001	19.996	103.859	20.145	4.659	0.499
242.000	202.553	80.001	19.996	103.854	20.144	4.696	0.477
244.000	203.586	80.001	19.993	103.841	20.140	4.978	0.506
246.000	204.583	79.999	19.994	103.850	20.143	4.794	0.504
248.000	205.544	80.001	19.994	103.849	20.143	4.800	0.502
250.000	206.558	80.000	19.993	103.842	20.141	4.898	0.523
252.000	207.554	80.000	19.994	103.852	20.141	4.924	0.510
254.000	208.544	80.001	19.994	103.863	20.139	5.079	0.465
256.000	209.529	80.002	19.993	103.858	20.138	5.151	0.474
258.000	210.504	80.001	19.994	103.846	20.135	5.344	0.513
260.000	211.509	80.004	19.993	103.846	20.133	5.496	0.480
262.000	212.461	80.000	19.994	103.857	20.133	5.518	0.489
264.000	213.452	80.002	19.995	103.862	20.128	5.834	0.495
266.000	214.516	80.003	19.994	103.867	20.127	5.913	0.526
268.000	215.505	80.003	19.992	103.874	20.119	6.513	0.507
270.000	216.501	80.003	19.992	103.880	20.115	6.787	0.518
272.000	217.499	80.000	19.993	103.908	20.104	7.513	0.499
274.000	218.467	80.002	19.993	103.919	20.091	8.460	0.478
276.000	219.508	80.003	19.992	103.941	20.080	9.221	0.520
278.000	220.462	80.002	19.994	103.956	20.064	10.420	0.478
280.000	221.490	80.003	19.993	103.979	20.044	11.834	0.536
282.000	222.453	80.002	19.993	103.993	20.021	13.471	0.502
284.000	223.500	80.004	19.993	104.018	19.991	15.592	0.497
286.000	224.489	80.003	19.994	104.047	19.967	17.254	0.476
288.000	225.453	80.002	19.995	104.064	19.933	19.666	0.501
290.000	226.461	80.003	19.995	104.085	19.901	21.934	0.492
292.000	227.481	80.002	19.995	104.100	19.867	24.326	0.500
294.000	228.480	80.002	19.995	104.104	19.833	26.727	0.504
296.000	229.474	80.001	19.995	104.113	19.801	29.050	0.496
298.000	230.439	79.999	19.993	104.115	19.768	31.362	0.468
300.000	231.444	80.002	19.995	104.106	19.739	33.366	0.511
302.000	232.427	80.002	19.995	104.088	19.715	35.091	0.517
304.000	233.450	80.001	19.994	104.069	19.693	36.619	0.530
306.000	234.392	80.001	19.994	104.033	19.678	37.682	0.478
308.000	235.391	80.001	19.994	103.995	19.672	38.132	0.472
310.000	236.381	80.001	19.995	103.967	19.673	38.037	0.488
312.000	237.376	80.002	19.995	103.933	19.677	37.724	0.475
314.000	238.401	80.001	19.995	103.910	19.692	36.682	0.498
316.000	239.351	80.000	19.996	103.889	19.705	35.761	0.461
318.000	240.373	80.000	19.996	103.864	19.724	34.399	0.527
320.000	241.387	80.001	19.993	103.843	19.747	32.770	0.483
322.000	242.392	80.000	19.995	103.840	19.768	31.320	0.515
324.000	243.404	80.000	19.995	103.831	19.794	29.483	0.502
326.000	244.408	80.000	19.995	103.827	19.817	27.802	0.477
328.000	245.435	80.001	19.993	103.823	19.842	26.097	0.520
330.000	246.440	80.001	19.994	103.830	19.862	24.615	0.506
332.000	247.493	80.001	19.993	103.818	19.880	23.344	0.525
334.000	248.449	80.000	19.994	103.816	19.905	21.633	0.485
336.000	249.477	80.002	19.993	103.815	19.917	20.790	0.497
338.000	250.540	80.002	19.993	103.822	19.930	19.808	0.481
340.000	251.593	80.001	19.992	103.820	19.944	18.843	0.515
342.000	252.635	80.003	19.992	103.813	19.957	17.949	0.510
344.000	253.629	79.998	19.999	103.817	19.965	17.343	0.508
346.000	254.681	80.002	19.995	103.818	19.977	16.552	0.505
348.000	255.706	80.001	19.994	103.825	19.985	15.967	0.495
350.000	256.724	80.001	19.993	103.816	19.993	15.390	0.500
352.000	257.741	80.002	19.994	103.829	20.000	14.861	0.518
354.000	258.788	80.002	19.994	103.826	20.007	14.428	0.531
356.000	259.740	80.003	19.995	103.825	20.011	14.087	0.486
358.000	260.760	80.001	19.991	103.830	20.018	13.652	0.492
360.000	261.754	80.002	19.994	103.830	20.019	13.528	0.509
362.000	262.757	80.004	19.993	103.828	20.028	12.918	0.506
364.000	263.811	80.005	19.993	103.828	20.028	12.897	0.513
366.000	264.811	80.004	19.994	103.830	20.029	12.866	0.512
368.000	265.803	80.004	19.994	103.832	20.036	12.347	0.489
370.000	266.764	80.004	19.994	103.828	20.040	12.037	0.480
372.000	267.804	80.002	19.993	103.828	20.042	11.902	0.510
374.000	268.803	80.001	19.994	103.829	20.040	12.063	0.501
376.000	269.781	80.001	19.993	103.832	20.041	11.988	0.498
378.000	270.784	80.001	19.993	103.834	20.044	11.782	0.469
380.000	271.852	80.001	19.993	103.844	20.044	11.768	0.494
382.000	272.821	80.000	19.995	103.843	20.046	11.658	0.496
384.000	273.866	80.001	19.994	103.827	20.045	11.729	0.553
386.000	274.867	79.999	19.997	103.838	20.046	11.654	0.498
388.000	275.840	80.003	19.994	103.840	20.046	11.671	0.494
390.000	276.848	80.001	19.994	103.836	20.046	11.629	0.492
392.000	277.805	79.999	19.993	103.842	20.047	11.591	0.518
394.000	278.792	80.002	19.993	103.835	20.045	11.678	0.470
396.000	279.799	80.001	19.993	103.834	20.042	11.911	0.510
398.000	280.772	79.999	19.994	103.834	20.045	11.728	0.490
400.000	281.738	80.001	19.994	103.840	20.045	11.735	0.485
402.000	282.757	80.002	19.995	103.844	20.040	12.067	0.488
404.000	283.761	80.000	19.994	103.851	20.041	11.986	0.491
406.000	284.768	80.001	19.994	103.846	20.040	12.039	0.526
408.000	285.733	80.002	19.995	103.843	20.039	12.112	0.514
410.000	286.749	80.001	19.994	103.842	20.037	12.281	0.500
412.000	287.774	80.001	19.995	103.847	20.035	12.421	0.501
414.000	288.763	79.999	19.996	103.851	20.033	12.592	0.494
416.000	289.737	80.002	19.995	103.839	20.031	12.723	0.472
418.000	290.768	80.002	19.994	103.856	20.033	12.586	0.521
420.000	291.767	80.002	19.995	103.856	20.030	12.763	0.485
422.000	292.790	80.002	19.995	103.860	20.031	12.671	0.497
424.000	293.784	80.002	19.995	103.856	20.028	12.904	0.489
426.000	294.786	80.002	19.993	103.855	20.029	12.844	0.518
428.000	295.808	80.001	19.995	103.857	20.027	12.957	0.489
430.000	296.810	80.003	19.993	103.864	20.024	13.211	0.470
432.000	297.806	80.001	19.995	103.858	20.024	13.198	0.514
434.000	298.817	80.004	19.995	103.863	20.023	13.279	0.495
436.000	299.817	80.002	19.995	103.840	20.020	13.513	0.506
438.000	300.849	80.004	19.994	103.847	20.020	13.482	0.509
440.000	301.833	80.003	19.994	103.850	20.015	13.808	0.482
442.000	302.828	80.005	19.994	103.858	20.017	13.715	0.494
444.000	303.872	80.004	19.993	103.859	20.016	13.757	0.529
446.000	304.872	80.005	19.994	103.838	20.017	13.687	0.509
448.000	305.899	80.005	19.994	103.856	20.014	13.873	0.516
450.000	306.909	80.002	19.994	103.859	20.017	13.676	0.500
452.000	307.929	80.002	19.993	103.845	20.017	13.723	0.502
454.000	308.908	80.003	19.993	103.852	20.018	13.610	0.500
456.000	309.928	80.001	19.994	103.866	20.015	13.821	0.516
458.000	310.964	80.002	19.994	103.859	20.014	13.912	0.522
460.000	312.005	80.001	19.993	103.863	20.012	14.067	0.504
462.000	313.036	80.001	19.993	103.868	20.013	13.994	0.507
464.000	314.074	80.001	19.993	103.868	20.012	14.023	0.503
466.000	315.112	80.001	19.995	103.859	20.015	13.826	0.525
468.000	316.098	80.001	19.994	103.856	20.014	13.897	0.496
470.000	317.116	80.000	19.994	103.847	20.013	13.957	0.524
472.000	318.147	80.003	19.995	103.845	20.012	14.023	0.536
474.000	319.135	80.001	19.995	103.868	20.013	14.006	0.502
476.000	320.158	80.002	19.993	103.855	20.011	14.121	0.515
478.000	321.179	80.002	19.992	103.856	20.012	14.013	0.525
480.000	322.211	80.000	19.996	103.859	20.012	14.060	0.506
482.000	323.237	80.000	19.997	103.854	20.016	13.781	0.487
484.000	324.231	80.003	19.994	103.845	20.014	13.934	0.496
486.000	325.259	80.001	19.993	103.856	20.012	14.045	0.473
488.000	326.234	80.000	19.994	103.842	20.016	13.787	0.498
490.000	327.286	80.003	19.993	103.856	20.015	13.836	0.531
492.000	328.320	80.002	19.995	103.849	20.014	13.873	0.511
494.000	329.333	80.002	19.995	103.858	20.017	13.686	0.510
496.000	330.343	80.002	19.997	103.847	20.015	13.805	0.522
498.000	331.348	80.003	19.995	103.847	20.015	13.816	0.495
500.000	332.387	80.003	19.995	103.860	20.015	13.821	0.517
502.000	333.413	80.003	19.996	103.838	20.017	13.718	0.542
504.000	334.455	80.003	19.995	103.849	20.019	13.572	0.500
506.000	335.465	80.002	19.994	103.849	20.018	13.600	0.526
508.000	336.488	80.001	19.994	103.858	20.018	13.599	0.510
510.000	337.505	80.003	19.992	103.852	20.017	13.667	0.529
512.000	338.508	80.004	19.995	103.846	20.017	13.707	0.464
514.000	339.555	80.003	19.994	103.859	20.020	13.506	0.547
516.000	340.553	80.003	19.994	103.861	20.017	13.657	0.490
518.000	341.576	80.004	19.995	103.844	20.019	13.560	0.489
520.000	342.605	80.005	19.993	103.859	20.018	13.624	0.507
522.000	343.618	80.006	19.993	103.855	20.019	13.552	0.491
524.000	344.597	80.004	19.993	103.855	20.020	13.493	0.475
526.000	345.669	80.004	19.993	103.843	20.022	13.348	0.539
528.000	346.682	80.004	19.992	103.836	20.019	13.525	0.502
530.000	347.681	80.003	19.994	103.845	20.021	13.434	0.511
532.000	348.655	80.001	19.995	103.852	20.022	13.330	0.485
534.000	349.711	80.003	19.993	103.841	20.021	13.415	0.539
536.000	350.718	80.004	19.994	103.851	20.021	13.408	0.492
538.000	351.784	80.001	19.994	103.847	20.022	13.352	0.529
540.000	352.838	79.998	19.994	103.856	20.023	13.247	0.547
542.000	353.850	80.000	19.995	103.861	20.022	13.349	0.533
544.000	354.867	80.001	19.994	103.851	20.022	13.329	0.512
546.000	355.892	80.000	19.994	103.853	20.020	13.493	0.513
548.000	356.904	80.002	19.993	103.850	20.022	13.347	0.521
550.000	357.929	80.003	19.992	103.857	20.019	13.517	0.486
552.000	358.954	80.002	19.996	103.849	20.020	13.455	0.524
554.000	359.938	80.003	19.994	103.844	20.023	13.239	0.493
556.000	360.926	80.002	19.994	103.851	20.020	13.478	0.468
558.000	361.983	80.003	19.995	103.849	20.022	13.312	0.513
560.000	362.972	80.000	19.994	103.846	20.020	13.505	0.510
562.000	363.969	80.001	19.995	103.848	20.021	13.410	0.492
564.000	365.000	80.002	19.996	103.846	20.022	13.355	0.529
566.000	365.990	80.001	19.995	103.849	20.020	13.467	0.522
568.000	367.004	80.002	19.995	103.838	20.024	13.212	0.490
570.000	367.994	80.003	19.995	103.847	20.021	13.374	0.477
572.000	369.012	80.002	19.994	103.837	20.019	13.581	0.506
574.000	370.038	80.002	19.995	103.856	20.020	13.464	0.504
576.000	371.049	80.004	19.994	103.859	20.021	13.374	0.546
578.000	372.079	80.002	19.995	103.848	20.024	13.161	0.523
580.000	373.085	80.005	19.993	103.850	20.023	13.281	0.505
582.000	374.122	80.004	19.994	103.852	20.023	13.298	0.510
584.000	375.112	80.003	19.994	103.850	20.023	13.271	0.541
586.000	376.130	80.002	19.993	103.852	20.024	13.211	0.511
588.000	377.080	80.001	19.992	103.843	20.026	13.022	0.466
590.000	378.155	80.000	19.994	103.840	20.026	13.078	0.529
592.000	379.149	80.004	19.993	103.852	20.028	12.905	0.491
594.000	380.164	80.001	19.995	103.845	20.029	12.852	0.478
596.000	381.195	80.002	19.993	103.838	20.031	12.701	0.500
598.000	382.233	80.003	19.992	103.838	20.030	12.743	0.531
600.000	383.226	80.005	19.995	103.842	20.027	12.948	0.526
602.000	384.252	80.004	19.994	103.835	20.032	12.654	0.529
604.000	385.246	80.004	19.992	103.840	20.030	12.791	0.508
606.000	386.304	80.003	19.996	103.836	20.034	12.520	0.546
608.000	387.303	80.002	19.995	103.832	20.032	12.603	0.524
610.000	388.350	80.002	19.993	103.829	20.036	12.313	0.541
612.000	389.359	80.001	19.996	103.837	20.038	12.184	0.499
614.000	390.326	80.001	19.995	103.831	20.038	12.190	0.505
616.000	391.322	80.002	19.994	103.828	20.038	12.192	0.507
618.000	392.391	80.001	19.995	103.831	20.043	11.826	0.498
620.000	393.396	80.002	19.995	103.828	20.040	12.077	0.517
622.000	394.462	80.002	19.994	103.829	20.045	11.738	0.491
624.000	395.471	80.001	19.994	103.829	20.044	11.748	0.504
626.000	396.486	80.003	19.995	103.832	20.046	11.611	0.500
628.000	397.508	80.002	19.992	103.833	20.045	11.702	0.495
630.000	398.509	80.003	19.996	103.838	20.045	11.727	0.493
632.000	399.530	80.003	19.994	103.834	20.045	11.709	0.499
634.000	400.586	80.001	19.994	103.832	20.053	11.145	0.541
636.000	401.552	80.002	19.992	103.832	20.050	11.352	0.510
638.000	402.546	80.001	19.994	103.831	20.052	11.234	0.485
640.000	403.581	80.000	19.993	103.819	20.058	10.804	0.508
642.000	404.583	80.000	19.995	103.823	20.054	11.103	0.472
644.000	405.562	79.999	19.993	103.820	20.060	10.668	0.515
646.000	406.600	80.001	19.995	103.810	20.058	10.812	0.529
648.000	407.580	80.001	19.995	103.816	20.063	10.453	0.496
650.000	408.643	80.002	19.994	103.815	20.062	10.505	0.546
652.000	409.602	80.001	19.994	103.825	20.065	10.304	0.487
654.000	410.609	80.002	19.995	103.822	20.068	10.095	0.498
656.000	411.633	80.002	19.996	103.806	20.069	10.009	0.503
658.000	412.657	80.001	19.994	103.800	20.072	9.782	0.516
660.000	413.662	80.002	19.995	103.809	20.074	9.676	0.485
662.000	414.614	80.002	19.994	103.813	20.073	9.695	0.463
664.000	415.627	80.002	19.993	103.796	20.075	9.615	0.497
666.000	416.609	80.002	19.994	103.792	20.075	9.593	0.507
668.000	417.656	80.001	19.994	103.803	20.076	9.481	0.519
670.000	418.672	80.003	19.995	103.792	20.078	9.370	0.527
672.000	419.705	80.001	19.997	103.810	20.079	9.278	0.511
674.000	420.685	80.002	19.996	103.804	20.080	9.240	0.512
676.000	421.738	80.002	19.994	103.795	20.083	9.034	0.492
678.000	422.737	80.002	19.996	103.791	20.083	9.034	0.527
680.000	423.756	80.004	19.994	103.795	20.082	9.066	0.519
682.000	424.763	80.002	19.995	103.806	20.086	8.782	0.489
684.000	425.782	80.002	19.995	103.790	20.086	8.782	0.477
686.000	426.799	80.000	19.997	103.801	20.088	8.639	0.514
688.000	427.777	80.001	19.995	103.804	20.089	8.583	0.483
690.000	428.851	80.001	19.995	103.796	20.091	8.465	0.531
692.000	429.888	80.000	19.995	103.793	20.091	8.460	0.495
694.000	430.873	79.999	19.994	103.793	20.093	8.336	0.502
696.000	431.896	80.003	19.993	103.793	20.094	8.259	0.496
698.000	432.921	80.003	19.994	103.792	20.095	8.135	0.501
700.000	433.978	80.000	19.994	103.793	20.095	8.189	0.510
702.000	435.007	80.001	19.995	103.792	20.095	8.141	0.507
704.000	436.012	80.000	19.994	103.789	20.093	8.319	0.486
706.000	437.039	80.003	19.993	103.790	20.097	8.002	0.502
708.000	438.069	80.000	19.994	103.791	20.096	8.064	0.509
710.000	439.091	80.001	19.995	103.789	20.101	7.741	0.529
712.000	440.094	80.003	19.994	103.790	20.099	7.896	0.458
714.000	441.128	80.001	19.994	103.793	20.102	7.687	0.494
716.000	442.116	80.000	19.996	103.792	20.102	7.692	0.500
718.000	443.141	79.999	19.995	103.794	20.100	7.782	0.480
720.000	444.151	80.003	19.996	103.791	20.103	7.609	0.512
722.000	445.193	80.002	19.995	103.788	20.103	7.624	0.498
724.000	446.210	80.001	19.994	103.792	20.104	7.559	0.532
726.000	447.236	80.002	19.995	103.782	20.101	7.729	0.538
728.000	448.213	80.005	19.993	103.786	20.103	7.583	0.513
730.000	449.254	80.002	19.994	103.785	20.105	7.453	0.485
732.000	450.260	80.002	19.994	103.780	20.103	7.580	0.495
734.000	451.230	80.004	19.993	103.782	20.106	7.388	0.488
736.000	452.319	80.002	19.997	103.782	20.109	7.206	0.526
738.000	453.267	80.004	19.994	103.785	20.107	7.292	0.472
740.000	454.293	80.002	19.995	103.784	20.109	7.204	0.517
742.000	455.326	80.002	19.994	103.782	20.109	7.158	0.530
744.000	456.338	80.002	19.996	103.772	20.108	7.236	0.506
746.000	457.340	80.003	19.994	103.775	20.108	7.242	0.502
748.000	458.349	80.002	19.994	103.779	20.111	7.066	0.498
750.000	459.432	80.002	19.995	103.771	20.108	7.265	0.507
752.000	460.427	80.005	19.993	103.777	20.108	7.264	0.521
754.000	461.481	80.001	19.995	103.758	20.109	7.185	0.537
756.000	462.449	80.003	19.994	103.781	20.110	7.077	0.515
758.000	463.481	80.004	19.995	103.766	20.110	7.128	0.492
760.000	464.484	80.001	19.997	103.774	20.114	6.823	0.511
762.000	465.496	80.002	19.994	103.777	20.114	6.806	0.516
764.000	466.553	80.003	19.994	103.780	20.115	6.731	0.526
766.000	467.556	80.002	19.994	103.782	20.116	6.671	0.507
768.000	468.564	80.003	19.991	103.778	20.114	6.836	0.519
770.000	469.589	80.003	19.995	103.769	20.113	6.868	0.505
772.000	470.618	80.000	19.995	103.768	20.115	6.779	0.493
774.000	471.623	79.999	19.995	103.778	20.116	6.716	0.526
776.000	472.677	79.999	19.994	103.776	20.116	6.715	0.474
778.000	473.660	79.998	19.993	103.771	20.118	6.553	0.501
780.000	474.708	80.002	19.995	103.778	20.118	6.539	0.515
782.000	475.760	80.001	19.995	103.774	20.118	6.575	0.515
784.000	476.723	80.000	19.995	103.777	20.119	6.448	0.489
786.000	477.773	80.003	19.994	103.773	20.119	6.473	0.532
788.000	478.803	80.002	19.994	103.776	20.121	6.353	0.539
790.000	479.833	80.001	19.995	103.759	20.122	6.274	0.510
792.000	480.862	80.001	19.994	103.761	20.121	6.318	0.506
794.000	481.877	80.004	19.994	103.757	20.124	6.100	0.478
796.000	482.939	80.000	19.994	103.759	20.120	6.400	0.541
798.000	483.950	80.001	19.995	103.754	20.123	6.210	0.508
800.000	484.938	80.000	19.994	103.753	20.124	6.151	0.490
802.000	485.955	80.004	19.992	103.757	20.126	5.968	0.491
804.000	486.970	80.000	19.996	103.755	20.125	6.076	0.505
806.000	488.025	80.003	19.994	103.761	20.128	5.823	0.502
808.000	489.034	80.003	19.994	103.757	20.128	5.823	0.520
810.000	490.036	80.003	19.993	103.760	20.126	5.975	0.470
812.000	491.121	80.003	19.995	103.767	20.128	5.819	0.530
814.000	492.145	80.004	19.994	103.769	20.125	6.028	0.488
816.000	493.178	80.002	19.994	103.768	20.126	6.008	0.517
818.000	494.224	80.004	19.994	103.767	20.122	6.234	0.542
820.000	495.291	80.002	19.994	103.762	20.127	5.888	0.506
822.000	496.306	80.003	19.993	103.765	20.128	5.860	0.510
824.000	497.326	80.003	19.995	103.764	20.128	5.819	0.519
826.000	498.354	80.003	19.995	103.762	20.128	5.809	0.489
828.000	499.361	80.002	19.994	103.765	20.129	5.732	0.516
830.000	500.373	80.002	19.995	103.763	20.129	5.786	0.510
832.000	501.432	80.002	19.994	103.764	20.127	5.887	0.524
834.000	502.456	80.002	19.995	103.765	20.130	5.701	0.553
836.000	503.430	80.005	19.994	103.781	20.127	5.932	0.504
838.000	504.455	80.001	19.994	103.779	20.132	5.586	0.509
840.000	505.492	80.003	19.996	103.762	20.130	5.658	0.530
842.000	506.522	80.001	19.996	103.771	20.127	5.915	0.500
844.000	507.500	80.002	19.995	103.766	20.128	5.819	0.505
846.000	508.538	80.001	19.995	103.756	20.131	5.590	0.511
848.000	509.564	80.004	19.993	103.755	20.131	5.654	0.525
850.000	510.585	79.999	19.994	103.768	20.130	5.672	0.506
852.000	511.601	80.002	19.994	103.754	20.132	5.531	0.506
854.000	512.643	80.004	19.994	103.764	20.128	5.855	0.534
856.000	513.673	80.004	19.994	103.777	20.130	5.668	0.521
858.000	514.675	80.001	19.995	103.767	20.131	5.616	0.502
860.000	515.689	80.000	19.996	103.765	20.128	5.823	0.509
862.000	516.708	80.000	19.995	103.756	20.129	5.772	0.500
864.000	517.730	80.002	19.995	103.751	20.128	5.822	0.480
866.000	518.782	80.003	19.994	103.765	20.129	5.776	0.527
868.000	519.824	80.004	19.994	103.759	20.131	5.642	0.535
870.000	520.828	80.000	19.993	103.769	20.128	5.859	0.516
872.000	521.856	80.002	19.994	103.757	20.130	5.711	0.550
874.000	522.843	80.004	19.992	103.751	20.130	5.709	0.504
876.000	523.863	80.001	19.994	103.754	20.132	5.560	0.498
878.000	524.904	80.000	19.993	103.772	20.133	5.493	0.500
880.000	525.921	80.001	19.993	103.763	20.131	5.624	0.491
882.000	526.944	80.002	19.994	103.774	20.129	5.755	0.518
884.000	527.927	80.000	19.993	103.764	20.127	5.919	0.511
886.000	528.941	80.002	19.993	103.751	20.130	5.674	0.497
888.000	529.975	80.002	19.994	103.759	20.131	5.618	0.497
890.000	530.989	80.001	19.994	103.763	20.128	5.862	0.508
892.000	532.042	80.005	19.994	103.753	20.130	5.694	0.517
894.000	533.055	80.003	19.994	103.753	20.132	5.520	0.513
896.000	534.049	80.003	19.994	103.762	20.127	5.886	0.517
898.000	535.118	80.001	19.992	103.761	20.129	5.738	0.522
900.000	536.110	80.003	19.995	103.763	20.133	5.504	0.525
902.000	537.179	80.003	19.993	103.771	20.130	5.675	0.500
904.000	538.183	80.004	19.992	103.765	20.135	5.326	0.481
906.000	539.175	80.001	19.993	103.754	20.131	5.627	0.503
908.000	540.217	80.002	19.994	103.760	20.129	5.743	0.534
910.000	541.207	80.003	19.995	103.766	20.129	5.729	0.494
912.000	542.253	80.002	19.995	103.745	20.130	5.707	0.520
914.000	543.227	80.003	19.995	103.753	20.129	5.752	0.523
916.000	544.276	80.004	19.993	103.750	20.130	5.664	0.505
918.000	545.246	80.003	19.994	103.748	20.132	5.556	0.516
920.000	546.276	80.004	19.993	103.772	20.133	5.496	0.499
922.000	547.300	80.003	19.995	103.766	20.130	5.670	0.535
924.000	548.297	80.000	19.994	103.771	20.133	5.516	0.504
926.000	549.331	80.003	19.995	103.768	20.130	5.677	0.487
928.000	550.375	80.000	19.995	103.759	20.128	5.816	0.514
930.000	551.351	80.003	19.994	103.760	20.133	5.493	0.482
932.000	552.424	80.001	19.995	103.756	20.132	5.575	0.515
934.000	553.445	80.001	19.996	103.756	20.127	5.873	0.507
936.000	554.480	80.004	19.993	103.774	20.130	5.676	0.519
938.000	555.515	80.004	19.995	103.763	20.131	5.610	0.531
940.000	556.518	80.003	19.994	103.767	20.134	5.413	0.495
942.000	557.564	80.003	19.995	103.762	20.130	5.709	0.547
944.000	558.548	80.001	19.995	103.758	20.131	5.593	0.475
946.000	559.623	80.000	19.995	103.759	20.132	5.574	0.523
948.000	560.670	80.003	19.994	103.754	20.129	5.787	0.485
950.000	561.689	80.002	19.995	103.763	20.132	5.522	0.514
952.000	562.726	79.999	19.995	103.755	20.134	5.421	0.537
954.000	563.743	80.000	19.995	103.774	20.132	5.535	0.501
956.000	564.800	80.002	19.993	103.773	20.130	5.705	0.524
958.000	565.845	79.999	19.993	103.754	20.128	5.850	0.536
960.000	566.833	80.001	19.995	103.780	20.132	5.563	0.517
962.000	567.858	80.001	19.995	103.759	20.126	5.946	0.499
964.000	568.897	80.001	19.994	103.758	20.128	5.821	0.502
966.000	569.941	80.000	19.995	103.756	20.129	5.755	0.520
968.000	570.907	80.002	19.993	103.757	20.131	5.591	0.486
970.000	571.933	80.004	19.994	103.772	20.128	5.838	0.507
972.000	572.942	80.003	19.994	103.765	20.129	5.782	0.495
974.000	574.022	80.004	19.993	103.765	20.131	5.597	0.545
976.000	575.055	80.005	19.993	103.758	20.131	5.643	0.521
978.000	576.050	80.002	19.993	103.759	20.129	5.734	0.509
980.000	577.108	80.002	19.994	103.753	20.129	5.775	0.500
982.000	578.146	80.003	19.993	103.752	20.128	5.849	0.506
984.000	579.125	80.001	19.994	103.752	20.126	5.946	0.490
986.000	580.146	80.001	19.993	103.761	20.129	5.768	0.519
988.000	581.145	80.004	19.993	103.743	20.128	5.820	0.509
990.000	582.149	80.003	19.993	103.778	20.130	5.695	0.488
992.000	583.102	80.003	19.994	103.760	20.130	5.705	0.470
994.000	584.162	80.005	19.994	103.759	20.132	5.531	0.493
996.000	585.178	80.006	19.993	103.752	20.129	5.743	0.513
998.000	586.155	80.006	19.993	103.753	20.124	6.141	0.497
1000.000	587.162	80.005	19.993	103.759	20.125	6.037	0.517
1002.000	588.167	80.005	19.993	103.758	20.124	6.089	0.493
1004.000	589.224	80.004	19.993	103.758	20.125	6.037	0.530
1006.000	590.239	80.002	19.994	103.753	20.124	6.144	0.528
1008.000	591.219	80.002	19.995	103.753	20.122	6.261	0.492
1010.000	592.220	80.002	19.993	103.757	20.124	6.105	0.513
1012.000	593.232	80.001	19.995	103.760	20.125	6.051	0.486
1014.000	594.244	80.001	19.996	103.762	20.125	6.047	0.528
1016.000	595.279	80.002	19.995	103.771	20.125	6.022	0.490
1018.000	596.280	80.001	19.994	103.761	20.123	6.192	0.509
1020.000	597.332	80.002	19.997	103.763	20.122	6.239	0.510
1022.000	598.310	80.001	19.993	103.767	20.124	6.103	0.489
1024.000	599.361	80.002	19.994	103.768	20.125	6.080	0.525
1025.999	600.366	80.001	19.995	103.770	20.122	6.225	0.515
1027.999	601.416	80.003	19.994	103.768	20.125	6.032	0.516
1029.999	602.433	80.002	19.994	103.758	20.122	6.248	0.501
1031.999	603.461	80.001	19.994	103.766	20.124	6.107	0.507
1033.999	604.478	80.001	19.995	103.764	20.124	6.124	0.539
1035.999	605.562	80.001	19.996	103.765	20.121	6.354	0.561
1037.999	606.555	79.999	19.995	103.771	20.118	6.518	0.488
1039.999	607.609	80.002	19.995	103.781	20.125	6.016	0.551
1041.999	608.640	80.002	19.995	103.776	20.123	6.218	0.513
1043.999	609.697	80.003	19.995	103.767	20.121	6.364	0.539
1045.999	610.728	80.003	19.995	103.784	20.120	6.413	0.487
1047.999	611.778	80.005	19.994	103.768	20.118	6.540	0.524
1049.999	612.813	80.003	19.993	103.761	20.114	6.840	0.507
1051.999	613.860	80.003	19.994	103.756	20.116	6.679	0.513
1053.999	614.928	80.004	19.993	103.767	20.118	6.560	0.541
1055.999	615.971	80.005	19.993	103.766	20.119	6.479	0.546
1057.999	616.997	80.004	19.995	103.757	20.116	6.654	0.498
1059.999	618.012	80.002	19.993	103.758	20.117	6.646	0.504
1061.999	619.038	80.003	19.993	103.768	20.118	6.518	0.507
1063.999	620.104	80.002	19.995	103.775	20.117	6.626	0.512
1065.999	621.146	80.003	19.994	103.762	20.118	6.520	0.513
1068.000	622.206	80.004	19.995	103.756	20.118	6.548	0.513
1070.000	623.266	80.003	19.994	103.772	20.116	6.714	0.550
1071.999	624.311	80.004	19.995	103.778	20.122	6.284	0.512
1073.999	625.360	80.004	19.994	103.772	20.117	6.614	0.504
1075.999	626.425	80.004	19.993	103.768	20.116	6.654	0.537
1077.999	627.458	80.003	19.994	103.784	20.117	6.639	0.533
1079.999	628.540	80.003	19.994	103.789	20.114	6.803	0.540
1081.999	629.617	80.004	19.993	103.768	20.116	6.683	0.538
1083.999	630.630	80.002	19.992	103.756	20.117	6.634	0.517
1085.999	631.703	80.003	19.993	103.755	20.115	6.782	0.516
1087.999	632.731	80.001	19.993	103.763	20.115	6.763	0.504
1089.999	633.762	80.001	19.994	103.763	20.113	6.905	0.534
1091.999	634.787	80.003	19.993	103.758	20.114	6.830	0.537
1093.999	635.850	80.002	19.994	103.765	20.116	6.716	0.520
1095.999	636.929	80.001	19.993	103.762	20.112	6.980	0.523
1097.999	637.936	80.002	19.993	103.758	20.110	7.104	0.522
1099.999	638.966	80.002	19.996	103.765	20.113	6.909	0.533
1101.999	639.987	80.002	19.994	103.752	20.111	7.065	0.507
1103.999	641.052	80.002	19.994	103.755	20.109	7.147	0.526
1105.999	642.073	80.003	19.994	103.759	20.106	7.359	0.501
1107.999	643.125	80.002	19.995	103.754	20.105	7.457	0.522
1109.999	644.167	80.002	19.994	103.752	20.107	7.298	0.495
1111.999	645.196	80.004	19.993	103.753	20.106	7.417	0.520
1113.999	646.240	80.004	19.994	103.761	20.108	7.282	0.549
1115.999	647.309	80.001	19.994	103.768	20.108	7.263	0.560
1117.999	648.352	80.002	19.993	103.763	20.106	7.364	0.526
1119.999	649.396	80.000	19.994	103.759	20.106	7.401	0.517
1121.999	650.416	80.001	19.994	103.766	20.107	7.332	0.509
1123.999	651.497	80.002	19.995	103.763	20.107	7.346	0.521
1125.999	652.533	80.002	19.995	103.774	20.105	7.450	0.529
1127.999	653.601	80.002	19.995	103.758	20.103	7.587	0.507
1129.999	654.647	80.003	19.994	103.754	20.107	7.324	0.524
1132.000	655.698	80.002	19.994	103.763	20.106	7.405	0.532
1133.999	656.725	80.004	19.994	103.766	20.108	7.240	0.548
1135.999	657.749	80.003	19.995	103.778	20.104	7.529	0.494
1137.999	658.770	80.003	19.992	103.764	20.106	7.371	0.533
1140.000	659.786	80.002	19.994	103.773	20.103	7.569	0.509
1142.000	660.754	80.001	19.994	103.757	20.104	7.507	0.504
1143.999	661.805	80.002	19.994	103.765	20.105	7.427	0.508
1145.999	662.777	80.003	19.994	103.783	20.106	7.393	0.489
1147.999	663.749	80.003	19.995	103.749	20.104	7.539	0.472
1149.999	664.784	80.004	19.994	103.786	20.102	7.648	0.521
1152.000	665.737	80.004	19.994	103.784	20.101	7.762	0.477
1153.999	666.758	80.004	19.993	103.778	20.104	7.561	0.517
1155.999	667.747	80.004	19.994	103.758	20.103	7.607	0.501
1157.999	668.794	80.004	19.993	103.767	20.102	7.654	0.514
1159.999	669.815	80.002	19.994	103.766	20.101	7.717	0.520
1161.999	670.784	80.003	19.994	103.780	20.101	7.772	0.474
1163.999	671.862	80.002	19.995	103.745	20.102	7.657	0.511
1165.999	672.836	80.002	19.994	103.778	20.100	7.807	0.494
1167.999	673.906	80.003	19.994	103.760	20.097	8.003	0.537
1169.999	674.981	80.002	19.994	103.762	20.101	7.742	0.509
1171.999	676.013	80.003	19.992	103.769	20.102	7.703	0.490
1173.999	677.051	80.001	19.994	103.764	20.097	7.993	0.499
1175.999	678.133	80.002	19.994	103.780	20.095	8.183	0.527
1177.999	679.145	80.001	19.994	103.770	20.100	7.844	0.549
1179.999	680.167	80.002	19.993	103.778	20.099	7.871	0.519
1181.999	681.188	80.001	19.995	103.762	20.098	7.962	0.518
1183.999	682.273	80.002	19.994	103.770	20.093	8.281	0.531
1185.999	683.325	80.002	19.995	103.769	20.096	8.102	0.544
1188.000	684.363	80.002	19.994	103.769	20.098	7.972	0.528
1189.999	685.341	80.002	19.995	103.779	20.096	8.133	0.510
1191.999	686.401	80.001	19.994	103.771	20.097	8.019	0.486
1193.999	687.486	80.000	19.995	103.784	20.096	8.104	0.527
1195.999	688.509	80.001	19.994	103.785	20.094	8.261	0.520
1197.999	689.574	80.000	19.994	103.786	20.093	8.304	0.552
1199.999	690.591	79.999	19.996	103.781	20.094	8.245	0.538
1201.999	691.676	80.001	19.996	103.781	20.097	8.021	0.512
1204.001	692.733	80.001	19.994	103.761	20.095	8.167	0.535
1205.999	693.795	80.000	19.994	103.771	20.094	8.265	0.521
1207.999	694.871	80.002	19.995	103.781	20.098	7.962	0.549
1209.999	695.915	80.001	19.995	103.771	20.094	8.221	0.572
1211.999	696.976	80.003	19.995	103.762	20.096	8.078	0.554
1213.999	698.058	80.003	19.994	103.752	20.096	8.107	0.530
1215.999	699.069	80.001	19.995	103.752	20.093	8.327	0.514
1217.999	700.143	80.001	19.995	103.752	20.094	8.254	0.492
1219.999	701.230	80.001	19.994	103.752	20.094	8.212	0.554
1221.999	702.230	80.001	19.995	103.757	20.095	8.180	0.507
1223.999	703.244	80.001	19.994	103.754	20.093	8.342	0.509
1225.999	704.319	80.003	19.994	103.755	20.092	8.365	0.526
1227.999	705.336	80.001	19.994	103.754	20.090	8.541	0.510
1229.999	706.345	80.002	19.994	103.760	20.093	8.274	0.509
1231.999	707.379	80.003	19.994	103.756	20.092	8.350	0.512
1234.000	708.397	80.005	19.994	103.752	20.094	8.234	0.510
1235.999	709.446	80.004	19.994	103.749	20.095	8.145	0.502
1238.000	710.457	80.005	19.994	103.745	20.091	8.448	0.520
1239.999	711.477	80.002	19.994	103.740	20.093	8.276	0.490
1241.999	712.509	80.004	19.994	103.737	20.091	8.416	0.505
1243.999	713.557	80.002	19.994	103.749	20.092	8.402	0.532
1245.999	714.570	80.002	19.993	103.747	20.091	8.466	0.480
1247.999	715.578	80.001	19.993	103.743	20.088	8.682	0.496
1249.999	716.620	80.002	19.994	103.739	20.089	8.574	0.512
1251.999	717.689	80.002	19.993	103.748	20.089	8.591	0.511
1253.999	718.824	80.003	19.995	103.748	20.091	8.448	0.521
1255.999	719.764	80.002	19.993	103.747	20.092	8.358	-0.001
1258.000	720.754	80.001	19.994	103.749	20.090	8.539	0.633
1259.999	721.728	80.002	19.994	103.748	20.087	8.713	0.512
1261.999	722.746	80.001	19.994	103.745	20.087	8.698	0.500
1263.999	723.729	80.002	19.994	103.747	20.090	8.551	0.540
1265.999	724.743	80.003	19.994	103.751	20.089	8.614	0.556
1267.999	725.753	80.002	19.993	103.744	20.089	8.624	0.514
1269.999	726.717	80.002	19.994	103.744	20.087	8.748	0.491
1272.000	727.673	80.002	19.994	103.737	20.088	8.642	0.496
1274.000	728.674	80.003	19.994	103.730	20.089	8.605	0.482
1275.999	729.655	80.002	19.993	103.742	20.086	8.783	0.504
1277.999	730.681	80.001	19.994	103.747	20.086	8.784	0.495
1279.999	731.625	80.000	19.994	103.749	20.084	8.969	0.499
1281.999	732.626	80.000	19.995	103.751	20.084	8.942	0.537
1283.999	733.601	80.002	19.994	103.755	20.085	8.907	0.477
1285.999	734.630	80.003	19.995	103.754	20.087	8.734	0.535
1287.999	735.682	80.002	19.996	103.753	20.085	8.853	0.517
1289.999	736.654	80.003	19.995	103.749	20.087	8.718	0.524
1291.999	737.650	80.003	19.994	103.747	20.084	8.936	0.475
1293.999	738.659	80.002	19.994	103.746	20.083	9.002	0.495
1295.999	739.683	80.005	19.994	103.748	20.081	9.146	0.521
1298.000	740.673	80.003	19.995	103.746	20.085	8.887	0.507
1299.999	741.698	80.003	19.994	103.746	20.081	9.126	0.509
1301.999	742.667	80.003	19.996	103.744	20.080	9.235	0.474
1303.999	743.724	80.002	19.995	103.745	20.081	9.169	0.488
1305.999	744.721	80.002	19.995	103.736	20.084	8.961	0.478
1306.500	744.993	80.003	19.996	103.730	20.081	9.183	0.509