File: 01_Data/Cellulose_Insulation/MCC/Cellulose_Insulation_MCC_30K_min_220121_R3.txt
Sample ID:	C:\MCC\MCC Cal\Test\Cellulose_Insulation_MCC_30K_min_220121_R3.txt
Sample Weight (mg):	4.85
Heating Rate (C/s):	0.5
Combustor Temp (C):	900
N2 Flow Rate (cc/min):	80
O2 Flow Rate (cc/min):	20
Calibration File:	C:\MCC\MCC Cal\Coeff1 JN10440_30_210304.txt.txt
T Correction Coefficients:	0	1.024463	0
Time Shift (s):	14
*
Time (s)	Temperature (C)	N2 flow rate (cc/min)	O2 flow rate (cc/min)	Flow Rate (cc/min)	Oxygen (%)	HRR (W/g)	Heating rate (C/s)
0.000	111.183	80.006	19.993	103.651	20.098	0.027	-0.001
2.000	111.182	80.005	19.995	103.659	20.099	-0.051	-0.018
4.000	111.181	80.005	19.994	103.663	20.098	-0.022	-0.010
6.000	111.199	80.003	19.995	103.663	20.101	-0.175	0.018
8.000	111.207	80.003	19.995	103.671	20.096	0.124	0.008
10.001	111.177	80.004	19.995	103.671	20.096	0.144	0.007
12.000	111.172	80.003	19.994	103.684	20.091	0.441	-0.009
14.001	111.229	80.003	19.994	103.724	20.090	0.545	0.013
16.000	111.224	80.001	19.995	103.759	20.084	0.933	0.013
18.000	111.300	80.002	19.994	103.758	20.087	0.764	0.021
20.000	111.377	80.002	19.995	103.757	20.084	0.921	0.020
22.000	111.481	80.005	19.992	103.756	20.083	1.017	0.071
24.000	111.585	80.004	19.994	103.776	20.080	1.176	0.061
26.000	111.737	80.004	19.994	103.787	20.079	1.254	0.076
28.000	111.846	80.005	19.994	103.797	20.076	1.494	0.051
30.000	112.041	80.004	19.993	103.812	20.077	1.432	0.089
32.001	112.190	80.004	19.993	103.784	20.075	1.512	0.054
34.000	112.410	80.005	19.993	103.761	20.071	1.797	0.086
36.000	112.643	80.003	19.997	103.888	20.072	1.718	0.118
38.000	112.925	80.003	19.994	103.896	20.065	2.215	0.116
40.000	113.233	80.003	19.992	103.862	20.066	2.167	0.146
42.000	113.519	80.004	19.993	103.859	20.062	2.403	0.165
44.000	113.884	80.004	19.994	103.865	20.061	2.449	0.187
46.001	114.227	80.004	19.993	103.862	20.062	2.406	0.180
48.000	114.627	80.006	19.993	103.865	20.063	2.330	0.215
50.000	115.000	80.005	19.994	103.868	20.065	2.223	0.188
52.000	115.389	80.006	19.993	103.874	20.061	2.484	0.181
54.000	115.885	80.007	19.993	103.878	20.058	2.675	0.226
56.000	116.318	80.006	19.993	103.873	20.059	2.595	0.188
58.000	116.849	80.007	19.993	103.881	20.057	2.752	0.248
60.000	117.356	80.006	19.992	103.901	20.057	2.750	0.269
62.000	117.880	80.004	19.993	103.904	20.058	2.696	0.277
64.000	118.437	80.004	19.993	103.901	20.056	2.807	0.282
66.000	118.973	80.004	19.994	103.893	20.058	2.659	0.271
68.000	119.560	80.005	19.995	103.893	20.058	2.694	0.274
70.000	120.150	80.004	19.993	103.907	20.059	2.595	0.310
72.000	120.764	80.004	19.993	103.904	20.059	2.606	0.311
74.001	121.417	80.005	19.994	103.903	20.058	2.674	0.327
76.000	122.034	80.006	19.993	103.900	20.056	2.798	0.295
78.000	122.728	80.005	19.993	103.894	20.055	2.862	0.338
80.000	123.371	80.005	19.993	103.899	20.056	2.780	0.320
82.000	124.042	80.004	19.994	103.901	20.057	2.722	0.328
84.000	124.747	80.006	19.994	103.907	20.056	2.785	0.346
86.000	125.459	80.003	19.993	103.907	20.060	2.552	0.370
88.000	126.149	80.003	19.993	103.904	20.058	2.674	0.377
90.000	126.854	80.004	19.994	103.908	20.054	2.926	0.324
92.000	127.572	80.002	19.994	103.919	20.057	2.716	0.328
94.000	128.388	80.003	19.994	103.915	20.053	2.999	0.371
96.000	129.114	80.004	19.996	103.909	20.055	2.844	0.382
98.000	129.885	80.002	19.994	103.915	20.056	2.777	0.371
100.000	130.682	80.003	19.994	103.912	20.057	2.727	0.407
102.000	131.472	80.003	19.995	103.921	20.054	2.909	0.397
104.000	132.288	80.003	19.995	103.931	20.056	2.831	0.411
106.000	133.100	80.003	19.994	103.911	20.057	2.771	0.403
108.001	133.907	80.003	19.994	103.918	20.055	2.878	0.417
110.000	134.728	80.003	19.993	103.933	20.054	2.940	0.403
112.000	135.554	80.005	19.995	103.921	20.054	2.920	0.424
114.000	136.451	80.003	19.994	103.916	20.054	2.921	0.428
116.000	137.274	80.003	19.994	103.913	20.054	2.953	0.408
118.000	138.167	80.004	19.994	103.907	20.052	3.043	0.429
120.000	139.030	80.003	19.993	103.915	20.052	3.081	0.438
122.000	139.939	80.003	19.992	103.913	20.052	3.094	0.476
124.000	140.846	80.003	19.994	103.928	20.053	3.025	0.467
126.000	141.727	80.004	19.995	103.925	20.052	3.058	0.453
128.000	142.632	80.005	19.994	103.910	20.049	3.306	0.443
130.000	143.550	80.005	19.993	103.925	20.050	3.176	0.439
132.000	144.491	80.006	19.993	103.930	20.046	3.506	0.456
134.000	145.422	80.005	19.993	103.924	20.048	3.355	0.422
136.000	146.369	80.005	19.993	103.939	20.047	3.388	0.500
138.000	147.294	80.004	19.994	103.939	20.050	3.189	0.473
140.000	148.236	80.005	19.993	103.930	20.049	3.300	0.470
142.000	149.224	80.005	19.994	103.931	20.048	3.331	0.510
144.000	150.196	80.005	19.993	103.919	20.047	3.397	0.494
146.000	151.134	80.006	19.993	103.928	20.051	3.134	0.454
148.000	152.140	80.005	19.993	103.927	20.047	3.395	0.519
150.000	153.080	80.004	19.993	103.924	20.051	3.165	0.468
152.000	154.060	80.003	19.994	103.915	20.046	3.506	0.486
154.000	155.000	80.004	19.992	103.913	20.045	3.528	0.478
156.000	156.024	80.004	19.994	103.912	20.041	3.776	0.494
158.000	156.957	80.005	19.993	103.914	20.044	3.634	0.476
160.000	157.979	80.005	19.994	103.908	20.043	3.645	0.494
162.000	158.970	80.003	19.995	103.907	20.043	3.643	0.502
164.000	159.927	80.004	19.994	103.911	20.038	3.997	0.463
166.000	160.932	80.004	19.993	103.906	20.041	3.825	0.506
168.000	161.912	80.004	19.994	103.908	20.041	3.820	0.482
170.000	162.913	80.004	19.993	103.912	20.041	3.807	0.509
172.000	163.910	80.004	19.993	103.904	20.040	3.860	0.500
174.000	164.935	80.003	19.994	103.904	20.043	3.685	0.474
176.000	165.954	80.004	19.993	103.905	20.042	3.736	0.537
178.000	166.938	80.003	19.992	103.904	20.042	3.756	0.497
180.000	167.931	80.002	19.993	103.905	20.043	3.661	0.512
182.000	168.968	80.004	19.994	103.904	20.044	3.593	0.531
184.000	169.954	80.004	19.995	103.904	20.045	3.564	0.499
186.000	171.012	80.003	19.993	103.903	20.042	3.717	0.518
188.000	171.972	80.003	19.993	103.904	20.044	3.591	0.505
190.000	172.994	80.002	19.994	103.903	20.046	3.506	0.518
192.000	173.994	80.002	19.996	103.902	20.043	3.699	0.495
194.000	175.014	80.002	19.994	103.897	20.043	3.680	0.486
196.000	176.038	80.003	19.994	103.894	20.041	3.796	0.516
198.000	177.092	80.003	19.994	103.900	20.042	3.746	0.513
200.000	178.073	80.003	19.993	103.898	20.044	3.593	0.507
202.000	179.043	80.002	19.994	103.903	20.042	3.741	0.520
204.000	180.072	80.004	19.993	103.888	20.040	3.864	0.497
206.000	181.083	80.004	19.993	103.890	20.041	3.837	0.482
208.000	182.124	80.004	19.992	103.897	20.044	3.602	0.501
210.000	183.107	80.003	19.993	103.896	20.040	3.862	0.499
212.000	184.106	80.005	19.992	103.890	20.039	3.943	0.507
214.000	185.123	80.006	19.993	103.885	20.044	3.633	0.534
216.000	186.111	80.004	19.995	103.880	20.046	3.463	0.480
218.000	187.179	80.004	19.993	103.886	20.040	3.842	0.550
220.000	188.173	80.006	19.994	103.874	20.040	3.844	0.472
222.000	189.173	80.005	19.994	103.869	20.042	3.707	0.498
224.000	190.209	80.004	19.993	103.887	20.042	3.733	0.500
226.000	191.162	80.002	19.994	103.874	20.045	3.527	0.488
228.000	192.181	80.004	19.993	103.873	20.041	3.835	0.494
230.000	193.190	80.003	19.994	103.880	20.045	3.553	0.537
232.000	194.194	80.005	19.993	103.879	20.042	3.740	0.493
234.000	195.180	80.005	19.992	103.871	20.042	3.720	0.486
236.000	196.154	80.007	19.993	103.867	20.043	3.699	0.514
238.000	197.191	80.007	19.993	103.878	20.038	3.985	0.507
240.000	198.154	80.006	19.994	103.870	20.044	3.638	0.478
242.000	199.146	80.006	19.993	103.878	20.041	3.780	0.519
244.000	200.152	80.005	19.994	103.855	20.039	3.921	0.497
246.000	201.157	80.003	19.993	103.878	20.045	3.543	0.499
248.000	202.126	80.003	19.995	103.887	20.041	3.837	0.522
250.000	203.113	80.004	19.993	103.883	20.041	3.825	0.492
252.000	204.127	80.003	19.993	103.867	20.042	3.770	0.500
254.000	205.097	80.004	19.993	103.870	20.043	3.706	0.520
256.000	206.108	80.004	19.994	103.877	20.041	3.777	0.516
258.000	207.096	80.003	19.994	103.877	20.036	4.146	0.501
260.000	208.122	80.003	19.994	103.886	20.038	3.998	0.512
262.000	209.107	80.003	19.994	103.889	20.039	3.971	0.496
264.000	210.127	80.004	19.993	103.878	20.039	3.933	0.484
266.000	211.102	80.003	19.994	103.883	20.037	4.105	0.489
268.000	212.104	80.005	19.995	103.882	20.032	4.396	0.483
270.000	213.077	80.004	19.995	103.890	20.029	4.587	0.480
272.000	214.075	80.002	19.993	103.896	20.027	4.754	0.491
274.000	215.083	80.003	19.993	103.908	20.020	5.237	0.481
276.000	216.067	80.003	19.995	103.909	20.016	5.489	0.483
278.000	217.090	80.003	19.995	103.939	20.008	5.989	0.502
280.000	218.063	80.003	19.994	103.947	19.995	6.923	0.463
282.000	219.077	80.003	19.994	103.964	19.976	8.201	0.495
284.000	220.058	80.003	19.996	103.986	19.959	9.304	0.478
286.000	221.040	80.004	19.996	104.020	19.936	10.833	0.470
288.000	222.029	80.003	19.995	104.036	19.911	12.545	0.507
290.000	223.022	80.004	19.994	104.060	19.882	14.486	0.478
292.000	223.988	80.005	19.994	104.090	19.853	16.390	0.484
294.000	224.969	80.006	19.994	104.115	19.821	18.536	0.480
296.000	225.968	80.006	19.992	104.137	19.785	20.979	0.476
298.000	226.917	80.005	19.993	104.157	19.748	23.443	0.457
300.000	227.926	80.005	19.994	104.181	19.711	25.905	0.509
302.000	228.907	80.004	19.994	104.183	19.674	28.405	0.479
304.000	229.908	80.003	19.993	104.181	19.636	30.898	0.502
306.000	230.884	80.003	19.994	104.171	19.605	32.991	0.498
308.000	231.886	80.004	19.993	104.143	19.577	34.832	0.524
310.000	232.872	80.005	19.993	104.108	19.558	36.067	0.485
312.000	233.847	80.006	19.993	104.073	19.541	37.193	0.493
314.000	234.863	80.005	19.993	104.034	19.539	37.320	0.491
316.000	235.832	80.005	19.992	104.001	19.542	37.143	0.459
318.000	236.839	80.007	19.993	103.965	19.551	36.561	0.503
320.000	237.859	80.007	19.994	103.928	19.560	35.912	0.546
322.000	238.796	80.006	19.994	103.903	19.584	34.354	0.472
324.000	239.809	80.005	19.994	103.890	19.604	32.973	0.486
326.000	240.790	80.003	19.993	103.872	19.628	31.393	0.494
328.000	241.819	80.003	19.993	103.861	19.655	29.570	0.526
330.000	242.847	80.004	19.994	103.845	19.684	27.653	0.561
332.000	243.897	80.004	19.993	103.844	19.714	25.644	0.580
334.000	244.905	80.004	19.993	103.835	19.738	24.031	0.502
336.000	245.940	80.003	19.995	103.831	19.762	22.454	0.536
338.000	246.948	80.002	19.995	103.834	19.786	20.844	0.490
340.000	247.973	80.003	19.993	103.835	19.803	19.723	0.501
342.000	249.015	80.004	19.993	103.842	19.817	18.757	0.557
344.000	250.089	80.004	19.994	103.844	19.841	17.186	0.544
346.000	251.125	80.003	19.994	103.834	19.851	16.503	0.508
348.000	252.104	80.004	19.993	103.840	19.862	15.762	0.514
350.000	253.157	80.003	19.994	103.856	19.876	14.812	0.511
352.001	254.192	80.004	19.993	103.841	19.888	14.040	0.474
354.000	255.252	80.004	19.994	103.846	19.894	13.646	0.571
356.000	256.291	80.003	19.994	103.863	19.903	13.008	0.518
358.000	257.298	80.004	19.995	103.865	19.909	12.617	0.503
360.000	258.267	80.004	19.994	103.865	19.918	12.040	0.491
362.000	259.374	80.003	19.994	103.868	19.922	11.734	0.513
364.000	260.337	80.004	19.994	103.866	19.925	11.559	0.496
366.000	261.377	80.005	19.995	103.865	19.931	11.189	0.526
368.000	262.359	80.005	19.994	103.865	19.935	10.886	0.496
370.000	263.397	80.004	19.995	103.864	19.941	10.472	0.514
372.000	264.422	80.005	19.995	103.865	19.941	10.493	0.526
374.000	265.383	80.004	19.995	103.865	19.946	10.129	0.470
376.000	266.444	80.003	19.995	103.863	19.945	10.209	0.507
378.000	267.457	80.003	19.995	103.866	19.950	9.862	0.519
380.000	268.485	80.003	19.993	103.865	19.948	10.009	0.498
382.000	269.479	80.003	19.994	103.873	19.953	9.717	0.537
384.000	270.524	80.003	19.994	103.870	19.950	9.854	0.527
386.000	271.583	80.003	19.994	103.869	19.954	9.621	0.497
388.000	272.555	80.003	19.993	103.875	19.954	9.593	0.489
390.000	273.558	80.005	19.992	103.881	19.955	9.546	0.492
392.000	274.577	80.005	19.992	103.870	19.955	9.530	0.501
394.000	275.569	80.005	19.993	103.876	19.954	9.621	0.503
396.000	276.578	80.006	19.995	103.876	19.956	9.482	0.489
398.000	277.550	80.007	19.995	103.876	19.958	9.327	0.496
400.000	278.592	80.004	19.995	103.871	19.957	9.440	0.541
402.000	279.574	80.005	19.993	103.873	19.957	9.403	0.505
404.000	280.593	80.003	19.994	103.891	19.954	9.635	0.512
406.000	281.590	80.004	19.993	103.873	19.951	9.847	0.497
408.000	282.583	80.003	19.994	103.870	19.954	9.630	0.502
410.000	283.615	80.004	19.993	103.873	19.951	9.846	0.492
412.000	284.625	80.004	19.993	103.870	19.952	9.751	0.504
414.000	285.596	80.003	19.993	103.870	19.949	9.983	0.501
416.000	286.604	80.005	19.993	103.872	19.953	9.705	0.518
418.000	287.636	80.004	19.992	103.876	19.949	9.930	0.524
420.000	288.609	80.004	19.993	103.889	19.947	10.099	0.509
422.000	289.644	80.004	19.995	103.882	19.952	9.762	0.519
424.000	290.650	80.004	19.993	103.886	19.940	10.547	0.536
426.000	291.633	80.004	19.993	103.888	19.942	10.419	0.454
428.000	292.655	80.003	19.992	103.874	19.938	10.659	0.489
430.000	293.668	80.005	19.994	103.875	19.943	10.369	0.519
432.000	294.672	80.003	19.993	103.882	19.943	10.329	0.496
434.000	295.668	80.004	19.995	103.890	19.941	10.497	0.495
436.000	296.638	80.005	19.995	103.881	19.938	10.717	0.484
438.000	297.652	80.002	19.993	103.869	19.937	10.762	0.520
440.000	298.657	80.002	19.995	103.892	19.938	10.701	0.478
442.000	299.665	80.003	19.993	103.884	19.936	10.795	0.498
444.000	300.657	80.004	19.994	103.875	19.938	10.709	0.496
446.000	301.665	80.004	19.995	103.889	19.934	10.938	0.510
448.000	302.660	80.004	19.993	103.886	19.936	10.820	0.536
450.000	303.671	80.005	19.993	103.892	19.934	10.942	0.516
452.000	304.671	80.005	19.992	103.882	19.933	11.023	0.501
454.000	305.695	80.005	19.993	103.886	19.931	11.158	0.526
456.000	306.676	80.005	19.995	103.876	19.932	11.075	0.491
458.000	307.675	80.005	19.993	103.873	19.934	10.967	0.480
460.000	308.684	80.003	19.994	103.890	19.934	10.968	0.490
462.000	309.681	80.002	19.994	103.883	19.936	10.846	0.507
464.000	310.694	80.002	19.993	103.882	19.931	11.188	0.503
466.000	311.728	80.004	19.994	103.887	19.932	11.108	0.499
468.000	312.724	80.005	19.994	103.882	19.928	11.381	0.493
470.000	313.757	80.004	19.994	103.876	19.930	11.193	0.527
472.000	314.783	80.005	19.995	103.891	19.930	11.219	0.521
474.000	315.769	80.007	19.994	103.882	19.929	11.294	0.488
476.000	316.797	80.007	19.994	103.881	19.931	11.148	0.501
478.000	317.823	80.006	19.993	103.872	19.931	11.173	0.527
480.000	318.817	80.004	19.993	103.877	19.928	11.352	0.526
482.000	319.806	80.005	19.993	103.871	19.930	11.204	0.489
484.000	320.820	80.004	19.994	103.877	19.929	11.261	0.498
486.000	321.846	80.004	19.993	103.872	19.933	11.046	0.523
488.000	322.862	80.004	19.995	103.886	19.928	11.352	0.516
490.000	323.890	80.003	19.994	103.887	19.931	11.179	0.493
492.000	324.883	80.003	19.994	103.873	19.927	11.444	0.501
494.000	325.881	80.003	19.993	103.877	19.929	11.316	0.483
496.000	326.903	80.004	19.994	103.882	19.932	11.096	0.503
498.000	327.954	80.004	19.994	103.870	19.928	11.377	0.498
500.000	328.959	80.004	19.995	103.875	19.933	11.040	0.533
502.000	329.991	80.005	19.994	103.866	19.932	11.069	0.522
504.000	330.960	80.004	19.994	103.873	19.934	10.949	0.496
506.000	332.025	80.004	19.993	103.870	19.932	11.070	0.553
508.000	333.008	80.003	19.993	103.868	19.935	10.863	0.506
510.000	334.052	80.005	19.993	103.875	19.937	10.752	0.521
512.000	335.077	80.004	19.992	103.874	19.932	11.080	0.524
514.000	336.123	80.004	19.992	103.869	19.937	10.779	0.530
516.000	337.127	80.004	19.995	103.873	19.939	10.655	0.495
518.000	338.166	80.004	19.994	103.879	19.934	10.932	0.491
520.000	339.191	80.002	19.994	103.874	19.942	10.441	0.513
522.000	340.237	80.003	19.994	103.876	19.937	10.739	0.517
524.000	341.226	80.004	19.993	103.870	19.938	10.709	0.505
526.000	342.215	80.005	19.994	103.873	19.939	10.624	0.477
528.000	343.246	80.004	19.994	103.874	19.938	10.721	0.522
530.000	344.226	80.004	19.993	103.869	19.939	10.608	0.502
532.000	345.233	80.004	19.993	103.872	19.943	10.331	0.498
534.000	346.264	80.006	19.994	103.872	19.942	10.405	0.521
536.000	347.230	80.005	19.994	103.866	19.941	10.494	0.489
538.000	348.261	80.005	19.994	103.877	19.941	10.517	0.517
540.000	349.287	80.006	19.993	103.869	19.940	10.541	0.511
542.000	350.292	80.004	19.993	103.864	19.946	10.142	0.502
544.000	351.303	80.005	19.994	103.867	19.947	10.107	0.497
546.000	352.322	80.004	19.995	103.872	19.949	9.976	0.509
548.000	353.393	80.004	19.993	103.867	19.942	10.399	0.515
550.000	354.385	80.005	19.993	103.866	19.942	10.444	0.505
552.000	355.410	80.005	19.993	103.866	19.948	10.019	0.491
554.000	356.406	80.005	19.994	103.870	19.943	10.364	0.507
556.000	357.445	80.006	19.993	103.868	19.945	10.224	0.527
558.000	358.498	80.004	19.993	103.874	19.944	10.266	0.536
560.000	359.464	80.006	19.994	103.865	19.943	10.355	0.510
562.000	360.469	80.004	19.994	103.864	19.945	10.217	0.503
564.000	361.484	80.003	19.993	103.865	19.946	10.157	0.518
566.000	362.501	80.004	19.993	103.865	19.948	10.005	0.489
568.000	363.503	80.003	19.994	103.867	19.947	10.091	0.506
570.000	364.475	80.003	19.992	103.869	19.947	10.089	0.500
572.000	365.507	80.003	19.993	103.869	19.951	9.801	0.495
574.001	366.536	80.004	19.993	103.873	19.946	10.160	0.492
576.000	367.541	80.004	19.994	103.871	19.946	10.124	0.483
578.000	368.558	80.003	19.995	103.868	19.949	9.956	0.505
580.000	369.573	80.004	19.993	103.869	19.949	9.958	0.515
582.000	370.653	80.003	19.993	103.868	19.949	9.930	0.562
584.000	371.606	80.003	19.993	103.871	19.950	9.857	0.516
586.000	372.643	80.003	19.995	103.868	19.951	9.806	0.521
588.000	373.683	80.004	19.992	103.868	19.952	9.735	0.516
590.000	374.713	80.003	19.993	103.868	19.955	9.578	0.531
592.000	375.712	80.004	19.992	103.869	19.954	9.610	0.514
594.000	376.710	80.003	19.992	103.872	19.957	9.431	0.511
596.000	377.739	80.002	19.995	103.867	19.960	9.208	0.495
598.000	378.738	80.004	19.994	103.867	19.960	9.234	0.516
600.000	379.765	80.004	19.993	103.863	19.957	9.432	0.500
602.000	380.780	80.004	19.993	103.860	19.959	9.288	0.493
604.000	381.795	80.005	19.993	103.862	19.962	9.093	0.503
606.000	382.772	80.004	19.992	103.856	19.961	9.146	0.476
608.000	383.820	80.003	19.993	103.851	19.963	9.045	0.523
610.000	384.821	80.005	19.993	103.842	19.965	8.861	0.502
612.000	385.817	80.006	19.994	103.857	19.969	8.637	0.522
614.000	386.802	80.006	19.993	103.854	19.964	8.970	0.493
616.000	387.795	80.006	19.994	103.853	19.970	8.548	0.486
618.000	388.824	80.004	19.995	103.851	19.973	8.370	0.508
620.000	389.875	80.005	19.994	103.848	19.970	8.526	0.504
622.000	390.832	80.005	19.994	103.845	19.975	8.210	0.484
624.000	391.886	80.004	19.994	103.856	19.974	8.249	0.519
626.000	392.909	80.005	19.994	103.841	19.978	8.023	0.506
628.000	393.923	80.003	19.993	103.849	19.977	8.047	0.504
630.000	394.947	80.007	19.993	103.835	19.977	8.072	0.509
632.000	395.977	80.006	19.993	103.830	19.982	7.765	0.509
634.000	397.011	80.004	19.994	103.832	19.987	7.431	0.484
636.000	397.978	80.006	19.996	103.836	19.988	7.333	0.492
638.000	398.981	80.005	19.995	103.839	19.987	7.395	0.510
640.000	399.990	80.006	19.994	103.838	19.991	7.149	0.492
642.000	400.992	80.004	19.993	103.830	19.988	7.313	0.523
644.000	401.986	80.003	19.993	103.827	19.990	7.189	0.485
646.000	403.012	80.003	19.994	103.827	19.992	7.078	0.505
648.000	404.017	80.003	19.995	103.829	19.992	7.080	0.507
650.000	405.055	80.003	19.994	103.828	19.995	6.850	0.525
652.000	406.045	80.002	19.994	103.828	19.996	6.826	0.476
654.000	407.061	80.002	19.992	103.830	19.995	6.848	0.518
656.000	408.103	80.004	19.993	103.831	20.001	6.467	0.511
658.000	409.081	80.003	19.994	103.830	20.002	6.399	0.515
660.000	410.133	80.003	19.994	103.830	20.006	6.138	0.516
662.000	411.097	80.005	19.993	103.829	20.005	6.185	0.503
664.000	412.088	80.005	19.994	103.825	20.011	5.775	0.498
666.000	413.119	80.004	19.993	103.826	20.010	5.843	0.496
668.000	414.078	80.005	19.994	103.825	20.015	5.527	0.465
670.000	415.126	80.005	19.992	103.827	20.013	5.643	0.507
672.000	416.111	80.004	19.994	103.823	20.015	5.516	0.471
674.000	417.159	80.003	19.994	103.817	20.016	5.496	0.516
676.000	418.191	80.003	19.993	103.819	20.017	5.391	0.537
678.000	419.213	80.003	19.995	103.818	20.017	5.376	0.520
680.000	420.245	80.002	19.993	103.812	20.020	5.214	0.521
682.000	421.286	80.003	19.993	103.811	20.025	4.850	0.534
684.000	422.306	80.003	19.994	103.815	20.025	4.905	0.522
686.000	423.294	80.004	19.993	103.819	20.026	4.815	0.515
688.000	424.329	80.005	19.994	103.813	20.028	4.685	0.524
690.000	425.334	80.006	19.993	103.818	20.028	4.672	0.480
692.000	426.385	80.006	19.994	103.816	20.029	4.624	0.531
694.000	427.359	80.004	19.993	103.807	20.027	4.728	0.518
696.000	428.388	80.005	19.994	103.799	20.031	4.469	0.512
698.000	429.404	80.005	19.994	103.821	20.035	4.183	0.526
700.000	430.448	80.005	19.994	103.815	20.035	4.181	0.504
702.000	431.447	80.004	19.993	103.820	20.035	4.203	0.526
704.000	432.439	80.003	19.994	103.808	20.036	4.153	0.487
706.000	433.462	80.005	19.995	103.810	20.038	4.036	0.493
708.000	434.539	80.004	19.994	103.815	20.039	3.940	0.523
710.000	435.575	80.004	19.995	103.797	20.041	3.829	0.498
712.000	436.583	80.005	19.993	103.812	20.041	3.789	0.508
714.000	437.600	80.004	19.994	103.811	20.044	3.626	0.498
716.000	438.612	80.005	19.993	103.802	20.042	3.704	0.518
718.000	439.629	80.005	19.993	103.791	20.041	3.821	0.519
720.000	440.670	80.005	19.993	103.797	20.044	3.624	0.506
722.000	441.665	80.006	19.994	103.807	20.045	3.527	0.504
724.000	442.688	80.005	19.993	103.790	20.046	3.469	0.523
726.000	443.692	80.002	19.994	103.795	20.046	3.436	0.500
728.000	444.772	80.004	19.993	103.788	20.049	3.238	0.551
730.000	445.760	80.003	19.993	103.788	20.047	3.424	0.534
732.000	446.751	80.003	19.995	103.787	20.050	3.172	0.535
734.000	447.781	80.002	19.994	103.790	20.052	3.039	0.515
736.000	448.808	80.003	19.995	103.790	20.054	2.933	0.514
738.000	449.841	80.002	19.994	103.787	20.056	2.800	0.515
740.000	450.845	80.003	19.995	103.787	20.055	2.888	0.481
742.000	451.874	80.003	19.995	103.786	20.052	3.043	0.499
744.000	452.877	80.004	19.996	103.789	20.060	2.556	0.522
746.000	453.874	80.005	19.993	103.785	20.056	2.822	0.528
748.000	454.942	80.004	19.994	103.785	20.053	3.013	0.534
750.000	455.924	80.003	19.994	103.786	20.057	2.717	0.520
752.000	456.918	80.004	19.994	103.791	20.058	2.667	0.497
754.000	457.915	80.003	19.993	103.793	20.062	2.403	0.502
756.000	458.953	80.002	19.996	103.794	20.062	2.419	0.536
758.000	460.019	80.003	19.995	103.791	20.060	2.550	0.523
760.000	460.993	80.003	19.994	103.796	20.060	2.519	0.481
762.000	462.020	80.003	19.994	103.802	20.061	2.445	0.490
764.000	463.061	80.004	19.993	103.789	20.063	2.361	0.528
766.000	464.076	80.003	19.993	103.793	20.068	1.971	0.504
768.000	465.049	80.003	19.993	103.792	20.065	2.191	0.509
770.000	466.096	80.005	19.993	103.791	20.067	2.080	0.519
772.000	467.093	80.005	19.992	103.790	20.069	1.965	0.503
774.000	468.092	80.004	19.994	103.789	20.071	1.828	0.504
776.000	469.156	80.002	19.993	103.789	20.072	1.723	0.524
778.000	470.166	80.004	19.993	103.790	20.071	1.777	0.518
780.000	471.175	80.004	19.993	103.786	20.069	1.945	0.485
782.000	472.206	80.004	19.992	103.786	20.069	1.943	0.521
784.000	473.235	80.004	19.993	103.790	20.070	1.836	0.517
786.000	474.280	80.004	19.992	103.784	20.075	1.538	0.551
788.000	475.299	80.005	19.995	103.775	20.073	1.648	0.500
790.000	476.340	80.005	19.994	103.783	20.078	1.354	0.505
792.000	477.366	80.005	19.994	103.785	20.078	1.363	0.487
794.000	478.378	80.006	19.993	103.784	20.075	1.508	0.520
796.000	479.402	80.006	19.994	103.783	20.079	1.294	0.521
798.000	480.421	80.005	19.992	103.778	20.079	1.236	0.528
800.000	481.475	80.005	19.995	103.778	20.081	1.156	0.532
802.000	482.476	80.005	19.994	103.776	20.082	1.068	0.515
804.000	483.469	80.003	19.994	103.779	20.079	1.251	0.508
806.000	484.545	80.003	19.993	103.778	20.078	1.327	0.495
808.000	485.563	80.002	19.994	103.775	20.082	1.059	0.536
810.000	486.548	80.004	19.994	103.780	20.081	1.147	0.487
812.000	487.608	80.002	19.994	103.781	20.084	0.908	0.527
814.000	488.630	80.003	19.995	103.784	20.083	0.993	0.494
816.000	489.644	80.005	19.996	103.782	20.084	0.928	0.516
818.000	490.659	80.003	19.995	103.775	20.088	0.691	0.520
820.000	491.698	80.003	19.994	103.778	20.084	0.950	0.532
822.000	492.719	80.002	19.995	103.774	20.086	0.826	0.498
824.000	493.746	80.002	19.993	103.773	20.086	0.820	0.528
826.000	494.823	80.002	19.994	103.769	20.087	0.716	0.526
828.000	495.848	80.003	19.994	103.772	20.085	0.855	0.529
830.000	496.857	80.002	19.994	103.776	20.090	0.529	0.518
832.000	497.891	80.003	19.995	103.783	20.088	0.678	0.529
834.000	498.884	80.002	19.993	103.780	20.091	0.478	0.511
836.000	499.912	80.003	19.993	103.775	20.090	0.541	0.474
838.000	500.960	80.003	19.994	103.784	20.090	0.538	0.517
840.000	501.992	80.002	19.993	103.791	20.091	0.494	0.537
842.000	502.997	80.002	19.994	103.786	20.092	0.366	0.479
844.000	504.009	80.004	19.993	103.776	20.093	0.343	0.498
846.000	505.051	80.002	19.993	103.783	20.096	0.157	0.507
848.000	506.071	80.005	19.993	103.785	20.091	0.468	0.531
850.000	507.050	80.005	19.993	103.787	20.095	0.221	0.478
852.000	508.111	80.004	19.994	103.782	20.096	0.139	0.498
854.000	509.174	80.007	19.993	103.779	20.096	0.164	0.549
856.000	510.156	80.004	19.994	103.785	20.095	0.208	0.469
858.000	511.231	80.003	19.994	103.767	20.095	0.173	0.568
860.000	512.224	80.004	19.994	103.774	20.097	0.080	0.490
862.000	513.247	80.003	19.993	103.780	20.096	0.118	0.515
864.000	514.277	80.005	19.993	103.769	20.099	-0.097	0.539
866.000	515.343	80.005	19.993	103.780	20.098	-0.022	0.523
868.000	516.383	80.005	19.993	103.769	20.095	0.199	0.512
870.000	517.407	80.004	19.993	103.771	20.097	0.044	0.506
872.000	518.485	80.006	19.994	103.768	20.095	0.171	0.545
874.000	519.510	80.006	19.994	103.773	20.099	-0.058	0.506
876.000	520.495	80.006	19.994	103.778	20.096	0.148	0.493
878.000	521.551	80.006	19.994	103.778	20.097	0.064	0.503
880.000	522.561	80.006	19.992	103.760	20.096	0.148	0.510
882.000	523.612	80.004	19.994	103.755	20.096	0.118	0.516
884.000	524.638	80.004	19.994	103.766	20.101	-0.219	0.503
886.000	525.646	80.003	19.994	103.772	20.096	0.140	0.499
888.000	526.673	80.003	19.995	103.769	20.097	0.058	0.516
890.000	527.693	80.003	19.993	103.773	20.097	0.075	0.493
892.000	528.735	80.003	19.994	103.767	20.101	-0.195	0.486
894.000	529.790	80.003	19.994	103.765	20.103	-0.330	0.498
896.000	530.839	80.002	19.993	103.770	20.097	0.031	0.520
898.000	531.849	80.003	19.994	103.769	20.101	-0.215	0.500
900.000	532.886	80.003	19.993	103.774	20.098	-0.002	0.510
902.000	533.935	80.003	19.993	103.776	20.101	-0.211	0.503
904.000	534.961	80.004	19.994	103.755	20.101	-0.195	0.551
906.000	536.016	80.003	19.993	103.778	20.102	-0.268	0.492
908.000	537.016	80.004	19.994	103.779	20.104	-0.399	0.494
910.000	538.069	80.003	19.994	103.776	20.101	-0.217	0.519
912.000	539.073	80.003	19.994	103.764	20.107	-0.614	0.501
914.000	540.107	80.002	19.995	103.763	20.106	-0.523	0.476
916.000	541.144	80.002	19.995	103.755	20.105	-0.456	0.529
918.000	542.224	80.003	19.995	103.765	20.107	-0.625	0.544
920.000	543.209	80.002	19.996	103.766	20.104	-0.408	0.503
922.000	544.233	80.004	19.994	103.751	20.107	-0.600	0.508
924.000	545.243	80.004	19.995	103.750	20.107	-0.616	0.480
926.000	546.291	80.003	19.993	103.751	20.108	-0.680	0.507
928.000	547.311	80.005	19.994	103.751	20.104	-0.419	0.496
930.000	548.373	80.006	19.993	103.760	20.107	-0.607	0.531
932.000	549.362	80.006	19.994	103.756	20.108	-0.678	0.506
934.000	550.396	80.006	19.993	103.760	20.109	-0.722	0.524
936.000	551.404	80.006	19.994	103.759	20.106	-0.534	0.492
938.000	552.458	80.004	19.995	103.778	20.109	-0.705	0.509
940.000	553.483	80.005	19.994	103.768	20.108	-0.665	0.522
942.000	554.511	80.004	19.994	103.764	20.108	-0.691	0.512
944.000	555.521	80.005	19.993	103.752	20.110	-0.804	0.515
946.000	556.536	80.004	19.995	103.761	20.110	-0.835	0.505
948.000	557.554	80.006	19.994	103.752	20.112	-0.948	0.491
950.000	558.598	80.006	19.994	103.765	20.109	-0.727	0.508
952.000	559.570	80.006	19.993	103.764	20.111	-0.866	0.507
954.000	560.608	80.005	19.994	103.752	20.110	-0.809	0.512
956.000	561.627	80.006	19.993	103.769	20.110	-0.802	0.487
958.000	562.639	80.006	19.994	103.765	20.110	-0.791	0.542
960.000	563.647	80.005	19.994	103.759	20.108	-0.698	0.516
962.000	564.616	80.004	19.994	103.766	20.112	-0.919	0.476
964.000	565.667	80.004	19.994	103.757	20.109	-0.714	0.522
966.000	566.663	80.004	19.993	103.762	20.109	-0.725	0.500
968.000	567.693	80.002	19.994	103.777	20.109	-0.742	0.482
970.000	568.713	80.004	19.993	103.762	20.107	-0.629	0.518
972.000	569.691	80.002	19.993	103.775	20.108	-0.652	0.501
974.000	570.714	80.003	19.994	103.774	20.106	-0.563	0.516
976.000	571.751	80.004	19.995	103.764	20.111	-0.864	0.490
978.000	572.760	80.005	19.994	103.765	20.108	-0.674	0.534
980.000	573.796	80.004	19.995	103.755	20.109	-0.756	0.501
982.000	574.841	80.005	19.994	103.756	20.107	-0.625	0.530
984.000	575.863	80.004	19.993	103.771	20.109	-0.734	0.493
986.000	576.913	80.002	19.994	103.764	20.109	-0.703	0.542
988.000	577.916	80.006	19.993	103.767	20.106	-0.530	0.533
990.000	578.929	80.003	19.993	103.754	20.109	-0.749	0.512
992.000	579.915	80.003	19.993	103.750	20.105	-0.474	0.501
994.000	580.932	80.004	19.995	103.759	20.109	-0.705	0.495
996.000	581.987	80.003	19.997	103.762	20.110	-0.780	0.531
998.000	583.027	80.003	19.995	103.757	20.109	-0.756	0.497
1000.000	584.021	80.003	19.995	103.754	20.110	-0.805	0.495
1002.000	585.053	80.004	19.994	103.758	20.110	-0.835	0.496
1004.000	586.051	80.004	19.994	103.755	20.109	-0.742	0.526
1006.000	587.086	80.002	19.994	103.749	20.109	-0.733	0.530
1008.000	588.071	80.006	19.995	103.747	20.109	-0.727	0.506
1010.000	589.126	80.004	19.995	103.748	20.109	-0.718	0.535
1012.000	590.117	80.004	19.994	103.757	20.108	-0.702	0.499
1014.000	591.125	80.002	19.994	103.753	20.110	-0.824	0.498
1016.000	592.152	80.003	19.993	103.756	20.106	-0.549	0.514
1018.000	593.151	80.002	19.993	103.754	20.108	-0.702	0.498
1020.000	594.182	80.003	19.993	103.752	20.110	-0.776	0.547
1022.000	595.214	80.004	19.992	103.757	20.110	-0.816	0.544
1024.000	596.212	80.004	19.995	103.761	20.112	-0.915	0.481
1026.000	597.233	80.003	19.994	103.769	20.109	-0.760	0.508
1028.000	598.276	80.005	19.993	103.767	20.113	-0.973	0.509
1030.000	599.258	80.006	19.993	103.770	20.111	-0.897	0.509
1032.000	600.300	80.006	19.993	103.763	20.111	-0.867	0.524
1034.000	601.301	80.004	19.993	103.755	20.110	-0.798	0.494
1036.000	602.354	80.005	19.993	103.755	20.109	-0.736	0.531
1038.000	603.382	80.006	19.994	103.756	20.110	-0.802	0.480
1040.000	604.360	80.006	19.994	103.768	20.110	-0.822	0.505
1042.000	605.418	80.003	19.993	103.751	20.115	-1.128	0.489
1044.000	606.434	80.003	19.993	103.754	20.114	-1.064	0.518
1046.000	607.465	80.005	19.993	103.753	20.111	-0.886	0.514
1048.000	608.486	80.004	19.993	103.749	20.108	-0.669	0.491
1050.000	609.505	80.002	19.993	103.759	20.114	-1.066	0.515
1052.000	610.552	80.004	19.993	103.770	20.112	-0.931	0.539
1054.000	611.572	80.005	19.994	103.770	20.112	-0.904	0.546
1056.000	612.611	80.005	19.994	103.762	20.116	-1.216	0.509
1058.000	613.598	80.004	19.994	103.760	20.115	-1.128	0.484
1060.000	614.635	80.004	19.994	103.757	20.116	-1.183	0.484
1062.000	615.679	80.005	19.995	103.769	20.116	-1.172	0.536
1064.000	616.727	80.003	19.994	103.750	20.114	-1.061	0.553
1066.000	617.759	80.004	19.994	103.754	20.114	-1.095	0.525
1068.001	618.737	80.004	19.995	103.753	20.114	-1.070	0.529
1070.000	619.767	80.002	19.994	103.749	20.116	-1.223	0.518
1072.000	620.819	80.002	19.993	103.751	20.116	-1.179	0.503
1074.000	621.811	80.002	19.993	103.763	20.114	-1.068	0.480
1076.000	622.848	80.002	19.994	103.756	20.116	-1.176	0.498
1078.000	623.873	80.002	19.995	103.766	20.116	-1.225	0.509
1080.000	624.877	80.003	19.994	103.775	20.116	-1.228	0.502
1082.000	625.920	80.004	19.994	103.778	20.117	-1.276	0.505
1084.000	626.921	80.004	19.994	103.761	20.116	-1.179	0.503
1086.000	627.960	80.004	19.994	103.765	20.117	-1.246	0.534
1088.000	629.001	80.004	19.995	103.761	20.116	-1.188	0.532
1090.000	630.026	80.005	19.995	103.754	20.116	-1.177	0.525
1092.000	631.046	80.004	19.994	103.756	20.117	-1.252	0.505
1094.000	632.062	80.003	19.996	103.754	20.115	-1.159	0.515
1096.000	633.061	80.005	19.996	103.760	20.120	-1.502	0.516
1098.001	634.098	80.004	19.996	103.759	20.118	-1.367	0.499
1100.000	635.185	80.004	19.994	103.766	20.117	-1.239	0.542
1102.000	636.195	80.004	19.994	103.750	20.119	-1.414	0.544
1104.000	637.225	80.005	19.994	103.762	20.118	-1.314	0.533
1106.000	638.266	80.004	19.993	103.748	20.119	-1.374	0.535
1108.000	639.285	80.004	19.992	103.748	20.117	-1.290	0.536
1110.000	640.296	80.006	19.995	103.752	20.120	-1.471	0.505
1112.000	641.299	80.007	19.993	103.763	20.119	-1.425	0.490
1114.001	642.337	80.007	19.993	103.754	20.115	-1.143	0.542
1116.000	643.343	80.006	19.995	103.748	20.117	-1.268	0.489
1118.000	644.375	80.005	19.995	103.760	20.118	-1.345	0.491
1120.000	645.398	80.005	19.993	103.761	20.116	-1.190	0.527
1122.000	646.428	80.004	19.995	103.749	20.119	-1.376	0.540
1124.000	647.450	80.004	19.994	103.760	20.115	-1.123	0.543
1126.000	648.476	80.005	19.994	103.757	20.115	-1.108	0.533
1128.000	649.450	80.003	19.995	103.750	20.117	-1.265	0.496
1130.000	650.538	80.005	19.993	103.749	20.119	-1.414	0.565
1132.000	651.547	80.004	19.993	103.756	20.120	-1.449	0.539
1134.000	652.554	80.005	19.994	103.753	20.118	-1.340	0.512
1136.000	653.546	80.002	19.995	103.750	20.118	-1.365	0.498
1138.000	654.569	80.002	19.992	103.754	20.118	-1.354	0.518
1140.000	655.560	80.005	19.994	103.761	20.118	-1.358	0.514
1142.000	656.584	80.002	19.993	103.756	20.117	-1.285	0.488
1144.000	657.564	80.004	19.993	103.763	20.118	-1.332	0.470
1146.000	658.583	80.004	19.993	103.769	20.116	-1.188	0.500
1148.000	659.603	80.005	19.992	103.766	20.122	-1.600	0.468
1150.000	660.603	80.003	19.995	103.753	20.117	-1.238	0.518
1152.000	661.602	80.003	19.994	103.758	20.123	-1.660	0.481
1154.000	662.586	80.001	19.994	103.754	20.118	-1.321	0.514
1156.000	663.603	80.001	19.994	103.759	20.120	-1.474	0.477
1158.000	664.651	80.002	19.995	103.761	20.119	-1.380	0.504
1160.000	665.660	80.003	19.993	103.758	20.121	-1.518	0.491
1162.000	666.694	80.005	19.994	103.769	20.118	-1.334	0.515
1164.000	667.700	80.005	19.994	103.756	20.120	-1.473	0.537
1166.000	668.719	80.005	19.994	103.758	20.123	-1.646	0.501
1168.000	669.736	80.004	19.994	103.758	20.120	-1.502	0.512
1170.000	670.750	80.003	19.995	103.749	20.118	-1.371	0.511
1172.000	671.770	80.006	19.994	103.758	20.121	-1.516	0.483
1174.000	672.726	80.004	19.994	103.761	20.119	-1.401	0.471
1176.000	673.720	80.003	19.995	103.757	20.121	-1.555	0.487
1178.000	674.739	80.004	19.994	103.768	20.119	-1.398	0.491
1180.001	675.779	80.005	19.995	103.759	20.119	-1.427	0.510
1182.001	676.768	80.003	19.994	103.765	20.121	-1.551	0.516
1184.000	677.789	80.004	19.995	103.750	20.119	-1.432	0.502
1186.000	678.780	80.005	19.995	103.766	20.118	-1.309	0.513
1188.000	679.740	80.006	19.995	103.757	20.120	-1.474	0.503
1190.000	680.757	80.005	19.995	103.756	20.123	-1.666	0.522
1192.000	681.759	80.008	19.994	103.752	20.121	-1.542	0.508
1194.000	682.730	80.007	19.992	103.753	20.121	-1.560	0.502
1196.000	683.727	80.006	19.994	103.761	20.121	-1.571	0.495
1198.000	684.720	80.004	19.992	103.761	20.124	-1.720	0.499
1200.000	685.715	80.004	19.992	103.766	20.121	-1.522	0.501
1202.000	686.719	80.004	19.994	103.754	20.123	-1.662	0.507
1204.000	687.704	80.003	19.993	103.752	20.119	-1.425	0.508
1206.000	688.681	80.004	19.994	103.752	20.121	-1.525	0.521
1208.000	689.643	80.004	19.995	103.756	20.122	-1.617	0.460
1210.000	690.669	80.004	19.993	103.776	20.124	-1.728	0.497
1212.000	691.686	80.004	19.993	103.750	20.125	-1.810	0.507
1214.000	692.662	80.003	19.993	103.753	20.125	-1.795	0.504
1216.000	693.663	80.004	19.992	103.757	20.124	-1.711	0.500
1218.000	694.717	80.005	19.993	103.757	20.124	-1.737	0.504
1220.000	695.674	80.003	19.993	103.765	20.122	-1.604	0.482
1222.001	696.703	80.003	19.993	103.757	20.121	-1.564	0.500
1224.000	697.710	80.005	19.995	103.756	20.120	-1.483	0.522
1226.000	698.759	80.005	19.993	103.755	20.124	-1.750	0.523
1228.000	699.762	80.004	19.995	103.754	20.122	-1.627	0.598
1230.000	700.728	80.004	19.993	103.751	20.121	-1.514	0.494
1232.000	701.730	80.004	19.993	103.751	20.120	-1.491	0.518
1234.000	702.779	80.003	19.992	103.750	20.122	-1.593	0.504
1236.000	703.748	80.003	19.995	103.751	20.122	-1.602	0.505
1238.000	704.755	80.006	19.994	103.761	20.121	-1.507	0.521
1240.001	705.767	80.005	19.994	103.750	20.123	-1.658	0.484
1242.000	706.779	80.005	19.996	103.749	20.125	-1.775	0.497
1244.001	707.787	80.006	19.995	103.742	20.122	-1.602	0.516
1246.000	708.802	80.005	19.994	103.747	20.122	-1.607	0.534
1248.000	709.838	80.005	19.994	103.741	20.121	-1.553	0.485
1250.000	710.818	80.005	19.995	103.743	20.121	-1.525	0.499
1252.000	711.785	80.005	19.994	103.740	20.123	-1.686	0.483
1254.000	712.771	80.005	19.993	103.747	20.121	-1.560	0.451
1256.000	713.992	80.003	19.992	103.744	20.126	-1.877	0.666
1258.000	714.877	80.004	19.994	103.746	20.121	-1.571	0.679
1260.000	715.888	80.004	19.992	103.745	20.123	-1.687	0.479
1262.000	716.818	80.004	19.994	103.746	20.123	-1.682	0.496
1264.000	717.846	80.004	19.993	103.748	20.122	-1.600	0.530
1266.001	718.874	80.006	19.994	103.745	20.120	-1.463	0.512
1268.000	719.856	80.006	19.994	103.745	20.124	-1.722	0.491
1270.000	720.861	80.006	19.993	103.746	20.122	-1.576	0.527
1272.000	721.818	80.005	19.994	103.747	20.123	-1.653	0.498
1274.000	722.839	80.004	19.994	103.747	20.123	-1.702	0.541
1276.000	723.844	80.004	19.993	103.748	20.123	-1.666	0.532
1278.000	724.818	80.004	19.995	103.746	20.122	-1.592	0.495
1280.001	725.843	80.003	19.994	103.734	20.123	-1.669	0.523
1282.000	726.809	80.003	19.995	103.740	20.123	-1.695	0.494
1284.000	727.787	80.003	19.993	103.738	20.122	-1.584	0.527
1286.000	728.820	80.001	19.992	103.749	20.120	-1.478	0.515
1288.001	729.802	80.005	19.993	103.729	20.122	-1.614	0.484
1290.000	730.826	80.005	19.993	103.737	20.126	-1.895	0.518
1292.000	731.769	80.002	19.994	103.745	20.122	-1.583	0.495
1294.000	732.762	80.004	19.994	103.747	20.125	-1.804	0.502
1296.000	733.747	80.005	19.995	103.741	20.121	-1.551	0.486
1298.000	734.745	80.006	19.994	103.738	20.120	-1.474	0.491
1300.000	735.723	80.005	19.992	103.734	20.123	-1.643	0.496
1302.000	736.735	80.004	19.995	103.743	20.125	-1.820	0.498
1304.000	737.742	80.005	19.995	103.747	20.122	-1.585	0.488
1306.000	738.763	80.004	19.994	103.740	20.121	-1.549	0.528
1308.000	739.764	80.005	19.993	103.743	20.126	-1.888	0.513
1310.000	740.784	80.006	19.993	103.730	20.122	-1.616	0.498
1312.001	741.799	80.005	19.993	103.733	20.123	-1.642	0.523
1314.000	742.844	80.004	19.993	103.726	20.122	-1.582	0.513
1314.500	743.092	80.006	19.994	103.727	20.121	-1.565	0.523