File: 01_Data/Cellulose_Insulation/MCC/Cellulose_Insulation_MCC_30K_min_220120_R1.txt
Sample ID:	C:\MCC\MCC Cal\Test\Cellulose_Insulation_MCC_30K_min_220120_R1.txt
Sample Weight (mg):	4.78
Heating Rate (C/s):	0.5
Combustor Temp (C):	900
N2 Flow Rate (cc/min):	80
O2 Flow Rate (cc/min):	20
Calibration File:	C:\MCC\MCC Cal\Coeff1 JN10440_30_210304.txt.txt
T Correction Coefficients:	0	1.024463	0
Time Shift (s):	14
*
Time (s)	Temperature (C)	N2 flow rate (cc/min)	O2 flow rate (cc/min)	Flow Rate (cc/min)	Oxygen (%)	HRR (W/g)	Heating rate (C/s)
0.000	110.810	80.012	19.995	103.723	20.107	0.098	0.012
1.500	110.787	80.005	19.994	103.737	20.108	0.072	0.004
3.000	110.803	80.008	19.995	103.745	20.107	0.097	0.013
4.500	110.818	80.008	19.997	103.747	20.107	0.108	0.014
6.000	110.774	80.007	19.994	103.740	20.105	0.221	-0.022
7.500	110.794	80.006	19.993	103.744	20.103	0.386	0.025
9.000	110.749	80.006	19.995	103.753	20.103	0.368	-0.048
10.500	110.777	80.006	19.994	103.755	20.106	0.167	0.007
12.000	110.799	80.007	19.995	103.758	20.103	0.362	-0.001
13.501	110.792	80.008	19.992	103.766	20.104	0.301	0.003
15.000	110.827	80.003	19.993	103.768	20.102	0.459	0.024
16.500	110.831	80.007	19.992	103.759	20.104	0.312	0.005
18.000	110.838	80.009	19.994	103.768	20.102	0.440	0.027
19.500	110.855	80.008	19.990	103.786	20.102	0.472	0.003
21.000	110.860	80.007	19.993	103.802	20.096	0.827	-0.009
22.500	110.891	80.006	19.993	103.798	20.095	0.956	0.010
24.000	110.957	80.007	19.992	103.817	20.094	1.019	0.022
25.500	110.990	80.008	19.994	103.855	20.088	1.423	0.022
27.000	111.087	80.012	19.993	103.873	20.084	1.666	0.051
28.500	111.141	80.011	19.996	103.890	20.080	1.960	0.045
30.000	111.240	80.008	19.992	103.918	20.076	2.251	0.057
31.500	111.384	80.001	19.998	103.939	20.075	2.262	0.103
33.000	111.514	79.998	20.000	103.948	20.072	2.461	0.083
34.501	111.647	80.006	19.993	103.950	20.067	2.845	0.068
36.000	111.854	80.007	19.993	103.969	20.069	2.688	0.132
37.501	112.068	80.005	19.993	103.979	20.065	2.980	0.133
39.000	112.272	80.003	19.994	103.985	20.068	2.791	0.134
40.500	112.527	80.001	19.993	103.991	20.061	3.261	0.193
42.000	112.764	80.004	19.995	103.990	20.062	3.180	0.157
43.500	113.010	80.005	19.993	103.996	20.059	3.407	0.155
45.000	113.344	80.005	19.994	104.009	20.056	3.608	0.205
46.500	113.624	80.004	19.993	104.013	20.056	3.591	0.186
48.000	113.968	80.007	19.992	104.012	20.055	3.619	0.242
49.500	114.338	80.005	19.994	104.027	20.055	3.654	0.246
51.000	114.701	80.009	19.992	104.022	20.054	3.738	0.240
52.500	115.077	80.005	19.994	104.021	20.054	3.714	0.241
54.000	115.430	80.006	19.996	104.028	20.052	3.846	0.217
55.500	115.834	80.018	19.996	104.030	20.050	3.982	0.243
57.001	116.257	80.005	19.995	104.028	20.050	3.966	0.291
58.500	116.746	79.999	19.995	104.029	20.050	4.003	0.322
60.000	117.200	80.010	19.995	104.033	20.049	4.025	0.300
61.500	117.634	79.999	19.995	104.034	20.052	3.860	0.300
63.000	118.161	80.000	19.995	104.037	20.048	4.102	0.367
64.500	118.666	80.007	19.995	104.033	20.048	4.112	0.357
66.001	119.206	79.998	19.997	104.034	20.048	4.146	0.357
67.500	119.733	80.009	19.990	104.043	20.048	4.144	0.351
69.000	120.248	80.006	19.993	104.047	20.045	4.354	0.355
70.500	120.819	80.018	19.995	104.048	20.048	4.103	0.380
72.000	121.382	80.006	19.993	104.041	20.044	4.417	0.377
73.500	121.948	80.011	19.993	104.044	20.044	4.423	0.359
75.000	122.580	80.007	19.994	104.036	20.046	4.276	0.415
76.500	123.166	80.010	19.992	104.031	20.049	4.082	0.394
78.000	123.806	80.007	19.997	104.037	20.048	4.153	0.414
79.500	124.389	79.999	19.998	104.032	20.046	4.282	0.384
81.000	125.035	80.003	19.994	104.039	20.045	4.336	0.411
82.500	125.669	80.009	19.995	104.037	20.046	4.232	0.444
84.000	126.299	80.004	19.993	104.031	20.048	4.112	0.406
85.500	126.957	80.007	19.994	104.033	20.048	4.139	0.436
87.000	127.601	79.999	19.997	104.035	20.047	4.185	0.438
88.500	128.298	80.013	19.993	104.033	20.048	4.133	0.470
90.000	128.999	80.009	19.990	104.033	20.046	4.224	0.469
91.500	129.654	80.004	19.993	104.041	20.050	3.953	0.446
93.000	130.375	80.001	19.998	104.046	20.048	4.094	0.449
94.500	131.066	80.000	19.991	104.034	20.047	4.159	0.458
96.000	131.758	80.009	19.995	104.043	20.048	4.147	0.456
97.500	132.489	80.008	19.990	104.051	20.046	4.250	0.499
99.000	133.239	80.009	19.991	104.036	20.049	4.021	0.511
100.500	133.986	80.012	19.987	104.033	20.045	4.351	0.495
102.000	134.635	80.005	19.992	104.044	20.049	4.038	0.440
103.500	135.404	80.005	19.992	104.038	20.045	4.345	0.518
105.000	136.104	80.002	19.999	104.033	20.044	4.390	0.457
106.500	136.877	80.001	19.993	104.033	20.044	4.406	0.507
108.000	137.647	80.005	19.995	104.035	20.046	4.276	0.524
109.500	138.369	80.011	19.992	104.038	20.044	4.371	0.484
111.000	139.100	80.005	19.995	104.041	20.046	4.255	0.498
112.500	139.872	80.008	19.993	104.031	20.047	4.175	0.508
114.000	140.666	80.006	19.991	104.032	20.048	4.123	0.509
115.500	141.451	80.009	19.988	104.033	20.051	3.888	0.511
117.000	142.178	80.004	19.999	104.033	20.047	4.175	0.486
118.500	142.964	80.011	19.992	104.030	20.052	3.848	0.544
120.000	143.777	80.013	19.990	104.028	20.049	4.036	0.569
121.500	144.518	80.004	19.996	104.030	20.048	4.099	0.508
123.000	145.307	80.006	19.993	104.030	20.049	4.032	0.520
124.500	146.127	80.007	19.987	104.026	20.051	3.933	0.544
126.000	146.879	80.009	19.997	104.020	20.050	3.975	0.522
127.500	147.703	80.001	19.993	104.008	20.048	4.096	0.556
129.000	148.454	80.002	19.992	104.022	20.050	4.011	0.502
130.500	149.269	80.012	19.991	104.029	20.050	3.992	0.525
132.000	150.031	80.007	19.997	104.024	20.050	3.956	0.505
133.501	150.829	80.015	19.996	104.019	20.048	4.135	0.553
135.000	151.577	80.006	19.992	104.016	20.049	4.040	0.497
136.500	152.366	80.008	19.995	104.012	20.051	3.930	0.554
138.000	153.162	80.005	19.995	104.008	20.050	3.990	0.529
139.500	153.925	80.004	19.996	104.016	20.054	3.705	0.495
141.000	154.707	79.995	19.990	104.010	20.049	4.042	0.521
142.500	155.456	80.003	19.996	103.992	20.053	3.755	0.514
144.000	156.230	80.006	19.997	103.998	20.052	3.815	0.550
145.500	157.021	80.011	19.992	103.997	20.052	3.869	0.514
147.000	157.827	80.002	19.995	103.991	20.051	3.906	0.546
148.500	158.565	80.007	19.996	104.005	20.045	4.310	0.508
150.000	159.328	80.004	19.997	103.996	20.048	4.120	0.515
151.500	160.070	80.006	19.993	103.986	20.049	4.038	0.504
153.000	160.864	79.997	19.996	103.988	20.048	4.150	0.515
154.500	161.655	80.003	19.995	103.987	20.047	4.203	0.508
156.000	162.418	80.002	19.996	103.990	20.048	4.110	0.509
157.500	163.169	80.003	19.995	103.991	20.047	4.166	0.491
159.000	163.927	80.003	19.995	103.991	20.051	3.949	0.497
160.500	164.708	80.006	19.989	103.990	20.048	4.116	0.500
162.000	165.466	80.007	19.995	103.993	20.047	4.220	0.492
163.500	166.208	80.004	19.997	103.991	20.047	4.176	0.511
165.000	166.959	80.003	19.995	103.987	20.046	4.272	0.483
166.500	167.750	80.010	19.992	103.985	20.047	4.164	0.499
168.000	168.517	80.008	19.993	103.989	20.049	4.083	0.512
169.500	169.243	80.006	19.995	103.992	20.049	4.075	0.476
171.000	169.989	80.006	19.993	103.990	20.049	4.066	0.499
172.500	170.761	80.007	19.995	103.990	20.046	4.242	0.501
174.000	171.490	80.003	19.995	103.992	20.043	4.434	0.462
175.500	172.214	80.006	19.994	103.990	20.047	4.175	0.482
177.000	172.999	80.005	19.992	103.983	20.048	4.102	0.539
178.500	173.758	80.006	19.993	103.984	20.044	4.385	0.519
180.000	174.460	80.006	19.995	103.985	20.044	4.400	0.468
181.500	175.220	80.006	19.997	103.979	20.048	4.129	0.498
183.000	175.997	80.008	19.996	103.986	20.043	4.445	0.498
184.500	176.699	80.005	19.995	103.981	20.045	4.307	0.456
186.000	177.441	80.011	19.993	103.974	20.047	4.193	0.480
187.500	178.158	80.005	19.993	103.969	20.047	4.158	0.452
189.000	178.914	80.008	19.994	103.966	20.045	4.296	0.501
190.500	179.687	80.006	19.995	103.974	20.045	4.337	0.503
192.000	180.441	80.008	19.993	103.977	20.044	4.421	0.516
193.500	181.106	80.007	19.993	103.979	20.043	4.474	0.439
195.000	181.881	80.009	19.993	103.972	20.044	4.374	0.522
196.500	182.552	80.008	19.993	103.961	20.043	4.443	0.456
198.000	183.287	80.007	19.994	103.969	20.045	4.350	0.507
199.500	184.024	80.006	19.994	103.973	20.042	4.494	0.506
201.000	184.766	80.006	19.993	103.972	20.044	4.392	0.498
202.500	185.472	80.003	19.995	103.982	20.045	4.308	0.472
204.000	186.253	80.008	19.993	103.976	20.043	4.457	0.526
205.500	186.984	80.006	19.994	103.972	20.045	4.353	0.465
207.000	187.697	80.004	19.994	103.969	20.043	4.451	0.477
208.500	188.439	80.006	19.993	103.974	20.043	4.462	0.474
210.000	189.148	80.007	19.992	103.961	20.044	4.408	0.494
211.500	189.885	80.007	19.994	103.957	20.038	4.793	0.479
213.000	190.649	80.003	19.994	103.961	20.040	4.637	0.499
214.500	191.320	80.007	19.992	103.959	20.041	4.595	0.467
216.000	192.042	80.007	19.995	103.955	20.039	4.753	0.479
217.500	192.790	80.006	19.993	103.954	20.040	4.668	0.487
219.000	193.537	80.007	19.994	103.954	20.038	4.800	0.489
220.500	194.221	80.005	19.992	103.953	20.041	4.605	0.458
222.000	195.010	80.004	19.996	103.952	20.039	4.733	0.533
223.500	195.759	80.008	19.993	103.954	20.036	4.963	0.472
225.000	196.445	80.004	19.994	103.959	20.038	4.820	0.475
226.500	197.155	80.003	19.994	103.964	20.040	4.646	0.476
228.000	197.935	80.004	19.995	103.973	20.038	4.821	0.512
229.500	198.595	80.003	19.994	103.979	20.038	4.784	0.434
231.000	199.360	80.004	19.995	103.973	20.039	4.756	0.518
232.500	200.090	80.006	19.994	103.975	20.037	4.875	0.487
234.000	200.808	80.002	19.992	103.960	20.036	4.916	0.482
235.500	201.488	80.000	19.997	103.970	20.035	4.977	0.461
237.000	202.270	80.003	19.993	103.986	20.032	5.174	0.516
238.500	202.990	80.004	19.994	103.981	20.033	5.133	0.500
240.000	203.747	80.003	19.994	103.985	20.033	5.116	0.501
241.500	204.482	80.005	19.997	103.987	20.031	5.243	0.517
243.000	205.216	80.004	19.995	103.989	20.027	5.552	0.490
244.500	205.932	80.003	19.993	103.986	20.031	5.243	0.501
246.000	206.715	80.004	19.996	103.983	20.030	5.340	0.510
247.500	207.497	80.005	19.995	103.989	20.030	5.349	0.514
249.000	208.234	80.006	19.994	103.989	20.027	5.572	0.483
250.500	208.937	80.007	19.996	103.982	20.028	5.501	0.477
252.000	209.683	80.007	19.995	103.978	20.027	5.543	0.492
253.500	210.459	80.006	19.994	103.983	20.028	5.454	0.510
255.000	211.175	80.007	19.994	103.987	20.019	6.057	0.481
256.500	211.920	80.006	19.994	103.988	20.018	6.185	0.516
258.000	212.706	80.005	19.994	103.991	20.014	6.463	0.526
259.500	213.407	80.006	19.992	104.006	20.008	6.853	0.476
261.000	214.213	80.007	19.993	104.016	20.006	6.983	0.526
262.500	214.912	80.006	19.994	104.019	20.001	7.338	0.478
264.000	215.695	80.009	19.994	104.026	19.993	7.846	0.522
265.500	216.415	80.008	19.993	104.035	19.984	8.475	0.456
267.000	217.213	80.006	19.993	104.057	19.971	9.393	0.541
268.500	217.947	80.007	19.994	104.067	19.959	10.171	0.474
270.000	218.698	80.008	19.992	104.083	19.944	11.228	0.507
271.500	219.433	80.009	19.994	104.104	19.926	12.422	0.501
273.000	220.192	80.008	19.993	104.118	19.911	13.423	0.537
274.500	220.942	80.007	19.994	104.139	19.890	14.907	0.495
276.000	221.713	80.008	19.993	104.157	19.873	16.054	0.525
277.500	222.472	80.008	19.992	104.178	19.848	17.723	0.479
279.000	223.191	80.009	19.993	104.182	19.825	19.312	0.480
280.500	223.920	80.006	19.993	104.198	19.801	20.959	0.496
282.000	224.667	80.008	19.994	104.218	19.774	22.742	0.496
283.500	225.399	80.005	19.993	104.228	19.751	24.337	0.485
285.000	226.166	80.006	19.993	104.247	19.725	26.121	0.513
286.500	226.903	80.005	19.994	104.248	19.698	27.958	0.511
288.000	227.645	80.005	19.994	104.258	19.672	29.652	0.482
289.500	228.377	80.006	19.993	104.255	19.650	31.159	0.502
291.000	229.175	80.007	19.992	104.241	19.626	32.771	0.542
292.500	229.928	80.007	19.994	104.230	19.607	34.078	0.493
294.000	230.669	80.007	19.993	104.212	19.592	35.099	0.502
295.500	231.429	80.008	19.993	104.192	19.578	36.022	0.520
297.000	232.148	80.005	19.993	104.185	19.567	36.796	0.470
298.500	232.922	80.006	19.994	104.156	19.561	37.170	0.505
300.000	233.656	80.005	19.993	104.124	19.557	37.432	0.468
301.500	234.401	80.005	19.995	104.095	19.560	37.246	0.516
303.000	235.144	80.005	19.995	104.066	19.564	36.964	0.519
304.500	235.893	80.006	19.993	104.042	19.569	36.611	0.507
306.000	236.677	80.005	19.994	104.022	19.580	35.850	0.512
307.500	237.425	80.005	19.995	104.000	19.592	35.046	0.497
309.000	238.187	80.006	19.996	103.997	19.610	33.831	0.499
310.500	238.942	80.005	19.995	103.987	19.627	32.671	0.480
312.000	239.682	80.005	19.995	103.967	19.646	31.415	0.488
313.500	240.450	80.005	19.995	103.954	19.661	30.384	0.502
315.000	241.216	80.004	19.995	103.951	19.681	29.040	0.508
316.500	241.922	80.005	19.995	103.939	19.700	27.739	0.486
318.000	242.708	80.005	19.993	103.932	19.716	26.617	0.516
319.500	243.515	80.003	19.995	103.924	19.734	25.389	0.516
321.000	244.271	80.005	19.996	103.924	19.751	24.289	0.530
322.500	245.009	80.004	19.996	103.933	19.770	22.974	0.499
324.000	245.793	80.006	19.995	103.931	19.783	22.078	0.534
325.500	246.556	80.007	19.994	103.923	19.795	21.253	0.491
327.000	247.332	80.007	19.994	103.916	19.811	20.226	0.524
328.500	248.100	80.005	19.994	103.920	19.821	19.498	0.519
330.000	248.872	80.005	19.995	103.922	19.835	18.566	0.534
331.500	249.696	80.008	19.993	103.919	19.843	18.015	0.540
333.000	250.493	80.016	19.996	103.922	19.852	17.413	0.531
334.500	251.257	80.027	19.999	103.943	19.861	16.817	0.494
336.000	251.993	80.021	19.998	103.948	19.868	16.305	0.521
337.500	252.778	80.007	19.997	103.949	19.877	15.686	0.506
339.001	253.531	80.007	19.996	103.945	19.885	15.162	0.506
340.500	254.291	80.006	19.996	103.938	19.890	14.822	0.521
342.000	255.090	80.006	19.996	103.943	19.895	14.497	0.523
343.500	255.843	80.007	19.996	103.943	19.904	13.902	0.503
345.000	256.601	80.006	19.996	103.949	19.906	13.783	0.489
346.500	257.386	80.006	19.995	103.950	19.909	13.572	0.510
348.000	258.143	80.006	19.995	103.949	19.914	13.242	0.496
349.500	258.917	80.007	19.994	103.947	19.914	13.184	0.513
351.000	259.670	80.007	19.994	103.948	19.919	12.871	0.509
352.500	260.425	80.008	19.993	103.951	19.925	12.470	0.514
354.000	261.178	80.008	19.994	103.954	19.925	12.448	0.506
355.500	261.894	80.007	19.993	103.954	19.929	12.182	0.488
357.000	262.701	80.008	19.993	103.951	19.931	12.043	0.512
358.500	263.425	80.008	19.993	103.951	19.934	11.868	0.505
360.000	264.183	80.007	19.993	103.952	19.936	11.744	0.495
361.500	264.953	80.008	19.994	103.947	19.938	11.596	0.493
363.000	265.689	80.006	19.994	103.949	19.939	11.524	0.511
364.500	266.403	80.005	19.996	103.951	19.938	11.560	0.475
366.000	267.189	80.007	19.994	103.951	19.942	11.314	0.537
367.500	267.920	80.004	19.993	103.959	19.940	11.433	0.488
369.000	268.699	80.005	19.994	103.960	19.940	11.478	0.502
370.500	269.451	80.005	19.993	103.960	19.941	11.362	0.496
372.000	270.210	80.006	19.993	103.965	19.943	11.262	0.495
373.500	270.939	80.004	19.994	103.958	19.942	11.287	0.488
375.000	271.715	80.006	19.993	103.955	19.940	11.478	0.503
376.500	272.499	80.005	19.994	103.958	19.941	11.385	0.522
378.000	273.230	80.006	19.993	103.957	19.945	11.136	0.484
379.501	273.972	80.004	19.993	103.957	19.943	11.212	0.495
381.000	274.709	80.006	19.994	103.955	19.945	11.107	0.496
382.500	275.456	80.007	19.994	103.957	19.946	11.015	0.509
384.000	276.250	80.007	19.994	103.960	19.945	11.114	0.516
385.500	276.945	80.006	19.994	103.967	19.947	10.996	0.477
387.000	277.697	80.008	19.993	103.973	19.948	10.924	0.517
388.500	278.450	80.004	19.993	103.961	19.943	11.219	0.501
390.000	279.238	80.005	19.994	103.953	19.943	11.258	0.527
391.500	279.922	80.005	19.994	103.966	19.945	11.092	0.475
393.000	280.712	80.005	19.994	103.964	19.941	11.356	0.508
394.500	281.411	80.006	19.994	103.955	19.942	11.282	0.480
396.000	282.173	80.005	19.993	103.972	19.944	11.205	0.495
397.500	282.933	80.003	19.995	103.977	19.943	11.267	0.526
399.000	283.663	80.006	19.994	103.965	19.941	11.378	0.491
400.500	284.451	80.004	19.995	103.966	19.942	11.280	0.523
402.000	285.161	80.006	19.994	103.968	19.941	11.366	0.500
403.500	285.919	80.005	19.994	103.965	19.940	11.452	0.486
405.000	286.665	80.006	19.994	103.968	19.937	11.683	0.509
406.500	287.418	80.006	19.994	103.973	19.937	11.676	0.500
408.000	288.158	80.006	19.993	103.977	19.938	11.598	0.512
409.500	288.915	80.007	19.994	103.962	19.936	11.688	0.513
411.000	289.673	80.008	19.995	103.975	19.933	11.934	0.520
412.500	290.394	80.007	19.993	103.985	19.931	12.047	0.492
414.000	291.173	80.004	19.993	103.980	19.931	12.050	0.524
415.500	291.905	80.007	19.993	103.979	19.932	11.997	0.486
417.000	292.640	80.006	19.992	103.973	19.928	12.247	0.487
418.500	293.394	80.005	19.993	103.969	19.927	12.299	0.519
420.000	294.139	80.007	19.994	103.973	19.929	12.209	0.479
421.500	294.891	80.007	19.994	103.964	19.926	12.413	0.495
423.000	295.650	80.007	19.993	103.976	19.925	12.448	0.487
424.500	296.408	80.006	19.995	103.976	19.925	12.470	0.514
426.000	297.129	80.006	19.994	103.963	19.924	12.506	0.457
427.500	297.873	80.006	19.994	103.967	19.924	12.556	0.492
429.000	298.666	80.007	19.993	103.982	19.925	12.435	0.514
430.500	299.398	80.006	19.995	103.977	19.926	12.377	0.529
432.000	300.149	80.008	19.994	103.977	19.925	12.477	0.483
433.500	300.907	80.007	19.994	103.965	19.925	12.494	0.517
435.000	301.672	80.008	19.994	103.973	19.922	12.657	0.503
436.500	302.440	80.008	19.993	103.986	19.923	12.579	0.519
438.000	303.126	80.007	19.994	103.986	19.920	12.779	0.472
439.500	303.920	80.008	19.994	103.986	19.925	12.456	0.523
441.000	304.643	80.008	19.993	103.983	19.923	12.593	0.482
442.500	305.403	80.008	19.994	103.981	19.923	12.609	0.503
444.000	306.160	80.007	19.993	103.983	19.925	12.442	0.497
445.500	306.951	80.005	19.993	103.989	19.923	12.570	0.518
447.000	307.690	80.005	19.995	103.990	19.926	12.415	0.479
448.500	308.429	80.006	19.994	103.988	19.922	12.653	0.495
450.000	309.215	80.006	19.994	103.979	19.924	12.506	0.516
451.500	309.973	80.007	19.993	103.967	19.924	12.545	0.510
453.000	310.736	80.006	19.993	103.975	19.922	12.638	0.495
454.500	311.475	80.007	19.993	103.978	19.925	12.468	0.503
456.000	312.265	80.007	19.994	103.982	19.923	12.588	0.510
457.500	313.041	80.006	19.993	103.980	19.923	12.596	0.512
459.000	313.813	80.007	19.994	103.979	19.921	12.739	0.507
460.500	314.582	80.008	19.995	103.971	19.925	12.465	0.522
462.000	315.348	80.006	19.994	103.981	19.921	12.746	0.520
463.500	316.090	80.007	19.994	103.988	19.923	12.615	0.497
465.000	316.849	80.006	19.994	103.987	19.924	12.559	0.499
466.500	317.616	80.007	19.994	103.973	19.922	12.654	0.520
468.000	318.386	80.006	19.994	103.979	19.922	12.656	0.506
469.500	319.137	80.007	19.995	103.980	19.922	12.671	0.513
471.000	319.890	80.006	19.993	103.985	19.921	12.714	0.486
472.500	320.658	80.005	19.994	103.977	19.922	12.647	0.505
474.000	321.417	80.007	19.994	103.981	19.923	12.596	0.517
475.500	322.165	80.005	19.994	103.978	19.922	12.684	0.489
477.000	322.967	80.006	19.993	103.981	19.922	12.655	0.523
478.500	323.711	80.005	19.993	103.986	19.922	12.694	0.503
480.000	324.438	80.004	19.993	103.984	19.919	12.887	0.498
481.500	325.192	80.006	19.994	103.983	19.921	12.736	0.506
483.000	325.963	80.006	19.993	103.989	19.920	12.837	0.508
484.500	326.719	80.007	19.994	103.981	19.920	12.835	0.501
486.000	327.487	80.006	19.993	103.982	19.923	12.573	0.509
487.500	328.237	80.007	19.994	103.986	19.921	12.740	0.507
489.000	329.037	80.006	19.994	103.988	19.923	12.613	0.519
490.500	329.790	80.006	19.995	103.977	19.925	12.461	0.502
492.000	330.568	80.008	19.994	103.971	19.925	12.474	0.514
493.500	331.285	80.007	19.993	103.986	19.925	12.439	0.471
495.000	332.057	80.007	19.994	103.990	19.926	12.408	0.537
496.500	332.839	80.006	19.993	103.987	19.924	12.519	0.525
498.000	333.628	80.006	19.993	103.985	19.922	12.646	0.536
499.500	334.410	80.006	19.995	103.982	19.924	12.527	0.531
501.000	335.161	80.006	19.994	103.982	19.927	12.356	0.475
502.500	335.906	80.006	19.993	103.990	19.929	12.222	0.524
504.000	336.682	80.006	19.994	103.985	19.926	12.382	0.523
505.500	337.428	80.006	19.994	103.978	19.927	12.330	0.496
507.000	338.207	80.005	19.993	103.971	19.928	12.248	0.535
508.500	338.936	80.007	19.994	103.977	19.930	12.118	0.491
510.000	339.684	80.006	19.994	103.975	19.929	12.191	0.480
511.500	340.461	80.008	19.994	103.972	19.931	12.036	0.540
513.000	341.220	80.008	19.994	103.964	19.931	12.064	0.524
514.500	342.016	80.008	19.992	103.961	19.926	12.365	0.539
516.000	342.761	80.008	19.994	103.959	19.929	12.221	0.490
517.500	343.504	80.009	19.994	103.963	19.926	12.364	0.509
519.000	344.249	80.007	19.995	103.959	19.926	12.381	0.499
520.500	344.998	80.006	19.995	103.964	19.927	12.306	0.501
522.000	345.764	80.007	19.993	103.975	19.930	12.099	0.498
523.500	346.491	80.006	19.994	103.980	19.931	12.086	0.484
525.000	347.271	80.004	19.995	103.974	19.931	12.027	0.514
526.500	348.032	80.005	19.995	103.969	19.931	12.048	0.522
528.000	348.766	80.006	19.995	103.966	19.931	12.068	0.469
529.500	349.513	80.004	19.995	103.968	19.932	12.007	0.502
531.000	350.253	80.006	19.995	103.968	19.929	12.200	0.492
532.500	351.033	80.004	19.996	103.962	19.932	11.979	0.504
534.000	351.796	80.007	19.994	103.967	19.932	12.012	0.502
535.500	352.593	80.005	19.994	103.970	19.930	12.101	0.528
537.000	353.363	80.006	19.994	103.952	19.930	12.091	0.512
538.500	354.098	80.005	19.994	103.951	19.930	12.139	0.497
540.000	354.855	80.006	19.992	103.958	19.932	11.985	0.505
541.500	355.604	80.005	19.995	103.972	19.933	11.933	0.489
543.000	356.382	80.005	19.994	103.971	19.929	12.209	0.514
544.500	357.157	80.007	19.993	103.961	19.935	11.795	0.510
546.000	357.853	80.006	19.993	103.962	19.932	11.964	0.453
547.500	358.623	80.006	19.993	103.956	19.931	12.053	0.500
549.000	359.354	80.006	19.992	103.960	19.932	11.974	0.479
550.500	360.097	80.005	19.993	103.969	19.930	12.097	0.500
552.000	360.899	80.005	19.993	103.970	19.931	12.045	0.519
553.500	361.647	80.005	19.995	103.964	19.931	12.090	0.513
555.000	362.380	80.006	19.994	103.964	19.931	12.075	0.498
556.500	363.176	80.005	19.994	103.969	19.932	11.995	0.497
558.000	363.923	80.004	19.993	103.965	19.932	11.971	0.517
559.500	364.653	80.004	19.994	103.967	19.932	11.984	0.468
561.000	365.456	80.005	19.995	103.974	19.933	11.898	0.533
562.500	366.192	80.004	19.994	103.975	19.931	12.080	0.510
564.000	366.907	80.005	19.993	103.963	19.932	12.004	0.497
565.500	367.683	80.006	19.994	103.956	19.933	11.948	0.504
567.000	368.461	80.007	19.994	103.969	19.933	11.953	0.511
568.500	369.221	80.007	19.993	103.967	19.930	12.130	0.532
570.000	369.961	80.007	19.993	103.953	19.930	12.098	0.512
571.500	370.741	80.006	19.994	103.961	19.931	12.044	0.502
573.000	371.453	80.008	19.992	103.958	19.930	12.097	0.476
574.500	372.243	80.007	19.993	103.959	19.932	11.956	0.517
576.000	373.044	80.006	19.993	103.959	19.932	11.957	0.529
577.500	373.798	80.008	19.992	103.951	19.934	11.831	0.500
579.000	374.522	80.006	19.992	103.956	19.934	11.857	0.491
580.500	375.272	80.006	19.994	103.955	19.935	11.754	0.510
582.000	376.049	80.006	19.993	103.952	19.934	11.859	0.514
583.500	376.795	80.007	19.994	103.954	19.935	11.764	0.494
585.000	377.568	80.005	19.994	103.957	19.939	11.519	0.513
586.500	378.337	80.007	19.993	103.956	19.938	11.587	0.511
588.000	379.078	80.004	19.993	103.950	19.939	11.495	0.502
589.500	379.822	80.006	19.994	103.956	19.941	11.386	0.488
591.000	380.614	80.007	19.994	103.954	19.942	11.291	0.513
592.500	381.357	80.008	19.994	103.955	19.943	11.222	0.500
594.000	382.102	80.006	19.993	103.956	19.945	11.131	0.508
595.500	382.876	80.008	19.993	103.954	19.946	11.050	0.518
597.000	383.640	80.008	19.993	103.953	19.947	10.975	0.505
598.500	384.445	80.007	19.993	103.950	19.948	10.873	0.537
600.000	385.183	80.008	19.993	103.950	19.947	10.942	0.492
601.500	385.943	80.007	19.994	103.950	19.948	10.910	0.493
603.000	386.680	80.006	19.995	103.949	19.949	10.825	0.476
604.500	387.444	80.007	19.993	103.949	19.947	10.995	0.500
606.000	388.220	80.004	19.994	103.947	19.951	10.727	0.517
607.500	389.021	80.005	19.993	103.935	19.951	10.709	0.536
609.000	389.736	80.005	19.993	103.945	19.951	10.670	0.485
610.500	390.519	80.005	19.994	103.952	19.953	10.541	0.520
612.000	391.307	80.004	19.994	103.952	19.955	10.452	0.524
613.500	392.060	80.006	19.995	103.952	19.958	10.218	0.506
615.000	392.798	80.004	19.994	103.944	19.955	10.452	0.509
616.500	393.565	80.004	19.995	103.944	19.960	10.122	0.533
618.000	394.307	80.005	19.994	103.939	19.956	10.367	0.504
619.500	395.134	80.004	19.996	103.933	19.961	10.008	0.539
621.000	395.874	80.006	19.994	103.944	19.959	10.182	0.492
622.500	396.638	80.004	19.994	103.947	19.960	10.060	0.512
624.000	397.367	80.005	19.993	103.948	19.963	9.867	0.485
625.500	398.122	80.008	19.993	103.946	19.962	9.955	0.509
627.000	398.925	80.006	19.995	103.950	19.964	9.849	0.543
628.500	399.663	80.006	19.994	103.952	19.965	9.776	0.497
630.000	400.409	80.005	19.993	103.953	19.968	9.531	0.512
631.500	401.154	80.004	19.993	103.941	19.964	9.829	0.519
633.000	401.887	80.006	19.993	103.927	19.967	9.596	0.484
634.500	402.649	80.005	19.992	103.933	19.968	9.568	0.513
636.000	403.470	80.004	19.994	103.934	19.970	9.439	0.535
637.500	404.172	80.005	19.992	103.936	19.975	9.080	0.447
639.000	404.923	80.007	19.993	103.928	19.971	9.322	0.507
640.500	405.704	80.009	19.993	103.934	19.974	9.105	0.525
642.000	406.480	80.004	19.994	103.924	19.975	9.074	0.506
643.500	407.235	80.006	19.993	103.913	19.978	8.859	0.515
645.000	407.963	80.005	19.995	103.912	19.978	8.893	0.503
646.500	408.726	80.005	19.993	103.925	19.977	8.921	0.521
648.000	409.483	80.005	19.995	103.925	19.981	8.663	0.483
649.500	410.184	80.006	19.993	103.921	19.982	8.592	0.478
651.000	410.975	80.005	19.993	103.931	19.984	8.477	0.524
652.500	411.772	80.007	19.993	103.917	19.989	8.137	0.531
654.000	412.527	80.008	19.994	103.914	19.989	8.113	0.516
655.500	413.274	80.006	19.992	103.927	19.990	8.037	0.522
657.000	413.995	80.011	19.994	103.915	19.991	8.013	0.472
658.500	414.752	80.007	19.993	103.908	19.991	7.977	0.500
660.000	415.515	80.008	19.993	103.912	19.993	7.815	0.514
661.500	416.259	80.009	19.995	103.909	19.998	7.525	0.514
663.000	417.036	80.008	19.995	103.911	20.000	7.386	0.514
664.500	417.822	80.008	19.994	103.915	19.997	7.558	0.525
666.000	418.588	80.007	19.992	103.918	19.998	7.529	0.529
667.501	419.386	80.008	19.994	103.920	19.998	7.491	0.507
669.000	420.127	80.007	19.994	103.919	20.001	7.280	0.476
670.500	420.896	80.007	19.993	103.916	20.001	7.296	0.503
672.000	421.661	80.008	19.994	103.914	20.002	7.229	0.518
673.500	422.409	80.008	19.993	103.914	20.004	7.081	0.499
675.000	423.187	80.009	19.994	103.910	20.001	7.302	0.517
676.500	423.932	80.008	19.994	103.907	20.006	6.993	0.516
678.000	424.729	80.008	19.993	103.907	20.002	7.239	0.545
679.500	425.498	80.008	19.994	103.910	20.006	6.969	0.518
681.000	426.262	80.008	19.995	103.908	20.007	6.889	0.529
682.500	426.998	80.007	19.994	103.906	20.011	6.594	0.501
684.000	427.786	80.007	19.994	103.910	20.009	6.730	0.516
685.500	428.546	80.006	19.993	103.910	20.012	6.536	0.524
687.000	429.308	80.008	19.993	103.909	20.009	6.782	0.518
688.500	430.080	80.007	19.995	103.908	20.012	6.570	0.528
690.000	430.806	80.006	19.994	103.907	20.012	6.571	0.478
691.500	431.617	80.005	19.993	103.906	20.012	6.539	0.554
693.000	432.396	80.006	19.993	103.909	20.013	6.465	0.524
694.500	433.149	80.005	19.993	103.913	20.013	6.493	0.484
696.000	433.915	80.005	19.994	103.911	20.013	6.487	0.513
697.500	434.723	80.006	19.994	103.909	20.011	6.654	0.529
699.000	435.459	80.005	19.996	103.906	20.015	6.385	0.492
700.500	436.234	80.006	19.996	103.904	20.015	6.364	0.522
702.000	437.021	80.005	19.996	103.897	20.016	6.253	0.533
703.500	437.735	80.005	19.994	103.894	20.014	6.420	0.483
705.000	438.522	80.007	19.994	103.897	20.015	6.344	0.525
706.500	439.266	80.007	19.994	103.892	20.017	6.223	0.477
708.000	440.068	80.005	19.994	103.890	20.016	6.305	0.507
709.500	440.783	80.005	19.994	103.893	20.021	5.965	0.478
711.000	441.541	80.005	19.994	103.894	20.021	5.917	0.506
712.500	442.295	80.005	19.995	103.893	20.022	5.876	0.502
714.000	443.096	80.004	19.994	103.898	20.022	5.848	0.535
715.500	443.803	80.002	19.995	103.897	20.023	5.827	0.479
717.000	444.582	80.004	19.993	103.891	20.022	5.864	0.526
718.500	445.316	80.004	19.994	103.896	20.023	5.788	0.501
720.000	446.075	80.003	19.994	103.890	20.019	6.063	0.510
721.500	446.866	80.003	19.994	103.892	20.022	5.868	0.531
723.000	447.642	80.005	19.993	103.892	20.025	5.658	0.524
724.500	448.373	80.007	19.993	103.891	20.024	5.768	0.497
726.000	449.198	80.003	19.994	103.896	20.026	5.634	0.536
727.500	449.926	80.006	19.993	103.884	20.028	5.476	0.491
729.000	450.701	80.006	19.993	103.890	20.029	5.391	0.501
730.500	451.493	80.005	19.994	103.896	20.028	5.458	0.531
732.000	452.219	80.006	19.993	103.881	20.031	5.280	0.488
733.500	452.984	80.008	19.993	103.880	20.030	5.336	0.514
735.000	453.766	80.007	19.994	103.893	20.030	5.344	0.535
736.500	454.533	80.006	19.994	103.891	20.029	5.435	0.503
738.000	455.308	80.007	19.994	103.884	20.030	5.348	0.523
739.500	456.075	80.007	19.993	103.888	20.031	5.259	0.523
741.000	456.828	80.005	19.993	103.895	20.032	5.200	0.518
742.500	457.612	80.006	19.993	103.888	20.031	5.255	0.537
744.000	458.356	80.004	19.994	103.879	20.030	5.352	0.510
745.500	459.161	80.005	19.994	103.893	20.030	5.329	0.517
747.000	459.920	80.008	19.992	103.900	20.032	5.175	0.518
748.500	460.686	80.004	19.993	103.896	20.033	5.158	0.527
750.000	461.456	80.005	19.994	103.900	20.033	5.106	0.513
751.500	462.228	80.005	19.994	103.901	20.039	4.751	0.513
753.000	462.991	80.007	19.994	103.895	20.039	4.714	0.516
754.500	463.738	80.006	19.993	103.899	20.033	5.141	0.504
756.000	464.498	80.006	19.993	103.891	20.038	4.780	0.498
757.500	465.245	80.007	19.992	103.881	20.039	4.691	0.505
759.000	466.035	80.006	19.992	103.881	20.038	4.784	0.506
760.500	466.787	80.006	19.993	103.879	20.039	4.715	0.512
762.000	467.534	80.008	19.993	103.881	20.039	4.708	0.519
763.500	468.320	80.007	19.994	103.878	20.043	4.477	0.538
765.000	469.113	80.007	19.991	103.875	20.044	4.379	0.523
766.500	469.892	80.006	19.994	103.872	20.041	4.580	0.514
768.000	470.641	80.007	19.994	103.874	20.045	4.288	0.504
769.500	471.379	80.006	19.994	103.878	20.043	4.481	0.494
771.000	472.214	80.006	19.993	103.877	20.044	4.383	0.537
772.500	472.949	80.006	19.994	103.877	20.043	4.459	0.501
774.000	473.742	80.006	19.995	103.875	20.047	4.216	0.529
775.500	474.553	80.005	19.995	103.876	20.044	4.396	0.547
777.000	475.326	80.004	19.994	103.880	20.041	4.594	0.530
778.500	476.080	80.005	19.993	103.873	20.043	4.453	0.509
780.000	476.875	80.006	19.994	103.872	20.044	4.383	0.534
781.500	477.630	80.007	19.995	103.874	20.043	4.481	0.500
783.000	478.403	80.005	19.994	103.882	20.046	4.279	0.509
784.500	479.182	80.006	19.994	103.879	20.044	4.399	0.518
786.000	479.960	80.006	19.992	103.873	20.046	4.230	0.502
787.500	480.706	80.008	19.992	103.874	20.044	4.373	0.496
789.000	481.485	80.005	19.994	103.874	20.046	4.232	0.522
790.500	482.260	80.004	19.994	103.873	20.047	4.214	0.522
792.000	483.035	80.006	19.994	103.872	20.045	4.310	0.521
793.500	483.807	80.006	19.994	103.871	20.045	4.327	0.503
795.000	484.542	80.004	19.995	103.871	20.046	4.251	0.496
796.500	485.336	80.005	19.993	103.875	20.045	4.344	0.514
798.000	486.139	80.006	19.995	103.875	20.041	4.572	0.546
799.500	486.872	80.004	19.995	103.871	20.043	4.448	0.508
801.000	487.668	80.005	19.994	103.872	20.047	4.199	0.518
802.500	488.453	80.005	19.995	103.872	20.050	4.009	0.533
804.000	489.177	80.004	19.995	103.870	20.048	4.113	0.482
805.500	489.994	80.005	19.995	103.870	20.049	4.052	0.554
807.000	490.740	80.005	19.994	103.873	20.049	4.078	0.523
808.500	491.531	80.005	19.996	103.873	20.048	4.089	0.518
810.000	492.296	80.004	19.995	103.873	20.050	3.987	0.519
811.500	493.049	80.004	19.995	103.875	20.049	4.045	0.500
813.000	493.798	80.007	19.993	103.874	20.045	4.308	0.488
814.500	494.642	80.007	19.992	103.874	20.053	3.759	0.553
816.000	495.403	80.006	19.992	103.874	20.052	3.827	0.513
817.500	496.195	80.008	19.993	103.871	20.051	3.918	0.510
819.000	496.997	80.007	19.993	103.874	20.052	3.846	0.534
820.500	497.724	80.008	19.993	103.874	20.053	3.779	0.494
822.000	498.471	80.007	19.992	103.875	20.054	3.703	0.513
823.500	499.260	80.007	19.993	103.875	20.054	3.686	0.541
825.000	499.988	80.006	19.992	103.877	20.054	3.732	0.503
826.500	500.734	80.006	19.994	103.877	20.057	3.476	0.496
828.000	501.545	80.005	19.994	103.873	20.053	3.757	0.531
829.500	502.347	80.006	19.994	103.872	20.056	3.539	0.536
831.000	503.097	80.007	19.994	103.873	20.056	3.559	0.504
832.500	503.845	80.008	19.993	103.875	20.054	3.684	0.484
834.000	504.630	80.007	19.994	103.877	20.054	3.732	0.528
835.500	505.399	80.007	19.992	103.873	20.052	3.833	0.508
837.000	506.171	80.008	19.993	103.874	20.051	3.939	0.514
838.500	506.961	80.008	19.994	103.873	20.056	3.565	0.513
840.000	507.683	80.010	19.993	103.870	20.056	3.543	0.510
841.500	508.484	80.009	19.994	103.865	20.055	3.638	0.530
843.000	509.248	80.009	19.993	103.868	20.061	3.259	0.525
844.500	510.040	80.008	19.994	103.873	20.058	3.461	0.510
846.000	510.766	80.008	19.994	103.871	20.057	3.502	0.493
847.500	511.544	80.007	19.993	103.872	20.060	3.294	0.496
849.000	512.273	80.006	19.993	103.870	20.058	3.456	0.494
850.500	513.045	80.006	19.993	103.867	20.060	3.303	0.491
852.000	513.843	80.008	19.994	103.871	20.064	3.017	0.531
853.500	514.622	80.005	19.994	103.870	20.061	3.216	0.506
855.000	515.405	80.007	19.994	103.870	20.061	3.216	0.514
856.500	516.203	80.006	19.994	103.872	20.060	3.318	0.529
858.000	516.936	80.006	19.994	103.870	20.060	3.277	0.520
859.500	517.743	80.005	19.994	103.872	20.062	3.142	0.546
861.000	518.527	80.005	19.994	103.870	20.063	3.129	0.519
862.500	519.295	80.004	19.994	103.868	20.066	2.917	0.502
864.000	520.046	80.003	19.995	103.859	20.061	3.244	0.494
865.500	520.816	80.005	19.994	103.871	20.062	3.177	0.523
867.000	521.614	80.005	19.994	103.872	20.061	3.205	0.519
868.500	522.397	80.006	19.993	103.872	20.062	3.166	0.502
870.000	523.144	80.005	19.995	103.873	20.063	3.078	0.498
871.500	523.917	80.005	19.995	103.873	20.061	3.262	0.528
873.000	524.716	80.005	19.995	103.872	20.061	3.203	0.534
874.500	525.486	80.006	19.993	103.871	20.061	3.259	0.519
876.000	526.273	80.005	19.994	103.873	20.061	3.231	0.488
877.500	527.033	80.006	19.994	103.875	20.064	3.038	0.520
879.000	527.731	80.005	19.994	103.873	20.064	3.036	0.487
880.500	528.611	80.004	19.994	103.864	20.065	2.982	0.566
882.000	529.335	80.005	19.994	103.863	20.059	3.370	0.486
883.500	530.108	80.006	19.994	103.862	20.065	2.954	0.500
885.000	530.872	80.004	19.995	103.873	20.064	3.019	0.492
886.500	531.683	80.005	19.994	103.877	20.062	3.134	0.525
888.000	532.422	80.004	19.994	103.876	20.062	3.191	0.489
889.500	533.214	80.005	19.994	103.875	20.065	2.987	0.533
891.000	534.025	80.006	19.994	103.875	20.063	3.089	0.549
892.501	534.776	80.007	19.995	103.875	20.061	3.221	0.507
894.000	535.531	80.006	19.995	103.873	20.062	3.186	0.482
895.500	536.303	80.006	19.994	103.867	20.061	3.203	0.519
897.000	537.080	80.006	19.995	103.865	20.059	3.383	0.518
898.500	537.865	80.007	19.995	103.863	20.063	3.095	0.531
900.000	538.623	80.006	19.994	103.859	20.064	3.049	0.511
901.500	539.428	80.006	19.996	103.863	20.067	2.818	0.531
903.000	540.202	80.007	19.994	103.868	20.065	2.931	0.506
904.500	540.963	80.006	19.995	103.866	20.067	2.814	0.502
906.000	541.731	80.007	19.993	103.868	20.064	3.037	0.511
907.500	542.482	80.007	19.993	103.869	20.062	3.161	0.506
909.000	543.262	80.005	19.994	103.874	20.063	3.075	0.515
910.500	544.047	80.007	19.994	103.875	20.065	2.945	0.511
912.000	544.826	80.006	19.993	103.872	20.066	2.902	0.503
913.500	545.598	80.007	19.994	103.868	20.065	2.969	0.505
915.000	546.358	80.008	19.994	103.860	20.066	2.904	0.494
916.500	547.189	80.008	19.993	103.854	20.065	2.932	0.525
918.000	547.942	80.008	19.993	103.850	20.065	2.976	0.499
919.500	548.707	80.008	19.993	103.860	20.064	3.049	0.503
921.000	549.474	80.009	19.993	103.869	20.066	2.870	0.504
922.500	550.224	80.009	19.993	103.868	20.066	2.863	0.509
924.000	551.024	80.007	19.993	103.870	20.065	2.932	0.525
925.500	551.810	80.008	19.993	103.867	20.069	2.707	0.519
927.000	552.570	80.008	19.993	103.869	20.069	2.677	0.504
928.500	553.344	80.007	19.993	103.871	20.067	2.800	0.502
930.000	554.139	80.006	19.993	103.872	20.067	2.841	0.542
931.500	554.925	80.005	19.993	103.872	20.068	2.785	0.528
933.000	555.675	80.005	19.995	103.873	20.070	2.651	0.502
934.500	556.501	80.006	19.993	103.871	20.072	2.515	0.527
936.000	557.225	80.006	19.993	103.872	20.071	2.584	0.507
937.500	558.023	80.006	19.993	103.869	20.066	2.909	0.513
939.000	558.796	80.006	19.993	103.866	20.069	2.660	0.514
940.500	559.569	80.005	19.995	103.871	20.068	2.753	0.525
942.000	560.354	80.005	19.993	103.873	20.067	2.854	0.510
943.500	561.100	80.006	19.993	103.873	20.067	2.833	0.496
945.000	561.835	80.005	19.993	103.867	20.065	2.948	0.500
946.500	562.649	80.004	19.992	103.864	20.066	2.861	0.538
948.000	563.368	80.006	19.993	103.870	20.069	2.706	0.474
949.500	564.163	80.006	19.992	103.865	20.068	2.732	0.509
951.000	564.919	80.005	19.993	103.871	20.070	2.616	0.505
952.500	565.680	80.006	19.993	103.877	20.069	2.698	0.521
954.000	566.446	80.006	19.993	103.876	20.064	3.006	0.518
955.500	567.182	80.005	19.995	103.867	20.068	2.759	0.489
957.000	567.963	80.005	19.994	103.861	20.073	2.452	0.515
958.500	568.726	80.005	19.995	103.861	20.071	2.556	0.494
960.000	569.510	80.006	19.994	103.853	20.070	2.651	0.506
961.500	570.283	80.004	19.994	103.866	20.069	2.699	0.505
963.000	571.035	80.006	19.994	103.871	20.071	2.562	0.520
964.500	571.824	80.006	19.994	103.871	20.074	2.372	0.512
966.000	572.617	80.005	19.994	103.864	20.071	2.564	0.533
967.500	573.378	80.006	19.993	103.859	20.073	2.411	0.522
969.000	574.177	80.005	19.995	103.866	20.073	2.389	0.540
970.500	574.997	80.006	19.994	103.866	20.073	2.411	0.542
972.000	575.749	80.005	19.995	103.865	20.072	2.504	0.497
973.500	576.534	80.006	19.994	103.871	20.070	2.614	0.534
975.000	577.299	80.006	19.994	103.864	20.071	2.562	0.524
976.500	578.047	80.007	19.994	103.865	20.071	2.525	0.487
978.000	578.827	80.007	19.994	103.863	20.073	2.439	0.552
979.500	579.635	80.007	19.994	103.867	20.071	2.523	0.539
981.000	580.387	80.008	19.994	103.864	20.075	2.289	0.507
982.500	581.125	80.008	19.995	103.858	20.076	2.246	0.490
984.000	581.906	80.006	19.995	103.864	20.071	2.549	0.526
985.500	582.670	80.008	19.995	103.869	20.073	2.451	0.511
987.000	583.394	80.007	19.996	103.862	20.073	2.432	0.491
988.500	584.155	80.006	19.996	103.862	20.071	2.575	0.486
990.000	584.964	80.004	19.995	103.869	20.073	2.402	0.522
991.500	585.683	80.008	19.995	103.861	20.074	2.326	0.469
993.000	586.459	80.007	19.997	103.859	20.073	2.426	0.521
994.500	587.207	80.007	19.995	103.868	20.070	2.649	0.491
996.000	587.989	80.007	19.994	103.874	20.072	2.501	0.505
997.500	588.710	80.008	19.994	103.867	20.071	2.582	0.486
999.000	589.465	80.008	19.994	103.855	20.072	2.495	0.484
1000.500	590.237	80.008	19.994	103.865	20.071	2.554	0.521
1002.000	591.008	80.009	19.996	103.870	20.071	2.573	0.488
1003.500	591.773	80.010	19.993	103.859	20.072	2.458	0.496
1005.000	592.525	80.009	19.993	103.856	20.072	2.473	0.490
1006.500	593.319	80.008	19.993	103.864	20.075	2.267	0.516
1008.000	594.044	80.007	19.994	103.870	20.072	2.497	0.499
1009.500	594.795	80.008	19.993	103.869	20.073	2.425	0.507
1011.000	595.572	80.006	19.994	103.868	20.073	2.449	0.514
1012.500	596.343	80.004	19.994	103.874	20.071	2.577	0.501
1014.000	597.094	80.005	19.993	103.872	20.075	2.281	0.508
1015.500	597.846	80.006	19.995	103.869	20.071	2.558	0.502
1017.000	598.602	80.006	19.993	103.869	20.071	2.580	0.509
1018.500	599.340	80.007	19.994	103.874	20.070	2.605	0.493
1020.000	600.095	80.007	19.993	103.876	20.070	2.616	0.502
1021.500	600.849	80.006	19.996	103.875	20.070	2.636	0.500
1023.000	601.599	80.005	19.994	103.873	20.069	2.671	0.518
1024.500	602.375	80.007	19.993	103.871	20.072	2.493	0.500
1026.000	603.149	80.006	19.995	103.857	20.069	2.722	0.507
1027.500	603.921	80.007	19.994	103.852	20.074	2.385	0.532
1029.000	604.636	80.007	19.993	103.864	20.074	2.318	0.472
1030.500	605.385	80.005	19.993	103.870	20.073	2.450	0.476
1032.000	606.174	80.007	19.994	103.872	20.072	2.484	0.509
1033.500	606.913	80.006	19.993	103.868	20.070	2.593	0.512
1035.000	607.680	80.007	19.995	103.870	20.067	2.833	0.504
1036.500	608.443	80.006	19.994	103.871	20.069	2.673	0.508
1038.001	609.272	80.007	19.995	103.871	20.072	2.486	0.536
1039.500	609.967	80.007	19.993	103.862	20.068	2.746	0.483
1041.000	610.804	80.006	19.993	103.859	20.071	2.569	0.541
1042.500	611.530	80.006	19.994	103.855	20.067	2.831	0.489
1044.000	612.321	80.006	19.995	103.860	20.071	2.571	0.518
1045.500	613.069	80.006	19.995	103.867	20.072	2.521	0.511
1047.000	613.817	80.007	19.995	103.870	20.068	2.725	0.519
1048.500	614.609	80.006	19.995	103.872	20.073	2.447	0.498
1050.000	615.394	80.006	19.994	103.873	20.071	2.566	0.492
1051.500	616.224	80.006	19.996	103.872	20.071	2.564	0.524
1053.000	616.986	80.005	19.995	103.872	20.074	2.341	0.533
1054.500	617.735	80.007	19.995	103.873	20.072	2.469	0.489
1056.000	618.558	80.007	19.995	103.873	20.071	2.551	0.521
1057.500	619.310	80.007	19.996	103.870	20.074	2.324	0.483
1059.000	620.072	80.006	19.995	103.866	20.076	2.246	0.507
1060.500	620.821	80.009	19.995	103.870	20.071	2.564	0.509
1062.000	621.637	80.010	19.994	103.873	20.069	2.699	0.542
1063.500	622.363	80.008	19.993	103.869	20.072	2.519	0.498
1065.000	623.188	80.007	19.994	103.871	20.074	2.332	0.555
1066.500	623.971	80.008	19.993	103.870	20.066	2.878	0.486
1068.000	624.713	80.009	19.995	103.862	20.064	3.025	0.496
1069.500	625.447	80.008	19.994	103.854	20.068	2.774	0.467
1071.000	626.234	80.005	19.994	103.863	20.070	2.640	0.493
1072.500	627.042	80.008	19.994	103.869	20.068	2.746	0.506
1074.000	627.765	80.007	19.994	103.871	20.072	2.519	0.425
1075.500	628.481	80.007	19.995	103.870	20.072	2.497	0.551
1077.001	629.220	80.006	19.995	103.871	20.073	2.443	0.526
1078.500	629.948	80.008	19.996	103.873	20.067	2.844	0.493
1080.000	630.866	80.008	19.996	103.872	20.070	2.603	0.554
1081.500	631.971	80.008	19.997	103.871	20.075	2.311	0.950
1083.000	632.497	80.008	19.996	103.872	20.069	2.666	0.333
1084.500	633.080	80.008	19.994	103.872	20.069	2.686	0.415
1086.000	633.897	80.010	19.995	103.873	20.070	2.619	0.539
1087.500	634.706	80.007	19.993	103.872	20.070	2.601	0.542
1089.000	635.511	80.008	19.994	103.869	20.069	2.694	0.553
1090.500	636.234	80.008	19.993	103.870	20.072	2.456	0.472
1092.000	637.054	80.008	19.993	103.870	20.071	2.527	0.498
1093.500	637.806	80.006	19.994	103.870	20.072	2.521	0.499
1095.000	638.612	80.006	19.995	103.865	20.071	2.562	0.545
1096.500	639.357	80.007	19.993	103.867	20.075	2.294	0.519
1098.000	640.172	80.006	19.994	103.861	20.070	2.592	0.545
1099.500	640.959	80.007	19.993	103.864	20.068	2.725	0.522
1101.000	641.725	80.006	19.993	103.872	20.069	2.692	0.546
1102.500	642.500	80.008	19.994	103.872	20.070	2.591	0.531
1104.000	643.260	80.007	19.994	103.871	20.072	2.489	0.539
1105.500	644.051	80.007	19.994	103.872	20.071	2.558	0.522
1107.000	644.796	80.008	19.994	103.872	20.069	2.662	0.514
1108.500	645.628	80.007	19.994	103.872	20.071	2.554	0.547
1110.000	646.453	80.007	19.994	103.867	20.071	2.562	0.520
1111.500	647.193	80.007	19.995	103.863	20.069	2.664	0.530
1113.000	647.970	80.008	19.995	103.857	20.070	2.653	0.513
1114.500	648.766	80.008	19.994	103.845	20.062	3.136	0.518
1116.000	649.540	80.007	19.995	103.856	20.071	2.569	0.512
1117.501	650.349	80.008	19.994	103.864	20.063	3.082	0.553
1119.000	651.124	80.008	19.994	103.862	20.075	2.259	0.508
1120.500	651.929	80.007	19.993	103.865	20.074	2.367	0.531
1122.000	652.638	80.007	19.994	103.871	20.069	2.703	0.509
1123.500	653.473	80.007	19.993	103.867	20.068	2.748	0.616
1125.000	654.252	80.008	19.993	103.858	20.070	2.594	0.493
1126.500	655.087	80.006	19.994	103.865	20.072	2.480	0.572
1128.000	656.223	80.006	19.995	103.873	20.071	2.564	0.595
1129.500	656.503	80.005	19.994	103.875	20.068	2.777	0.277
1131.000	657.403	80.007	19.994	103.873	20.071	2.580	0.583
1132.500	658.025	80.008	19.994	103.869	20.068	2.785	0.755
1134.000	658.917	80.008	19.993	103.865	20.073	2.408	0.559
1135.500	659.717	80.008	19.994	103.870	20.071	2.571	0.525
1137.000	660.459	80.008	19.994	103.875	20.070	2.595	0.488
1138.500	661.211	80.008	19.994	103.863	20.072	2.510	0.522
1140.000	662.057	80.008	19.993	103.863	20.072	2.504	0.538
1141.500	662.816	80.007	19.994	103.862	20.070	2.601	0.506
1143.000	663.568	80.007	19.993	103.871	20.068	2.751	0.507
1144.500	664.309	80.007	19.995	103.866	20.069	2.712	0.498
1146.000	665.060	80.007	19.994	103.867	20.069	2.723	0.525
1147.501	665.848	80.007	19.993	103.871	20.069	2.701	0.514
1149.000	666.577	80.007	19.994	103.871	20.068	2.770	0.509
1150.500	667.360	80.006	19.995	103.874	20.069	2.675	0.506
1152.000	668.118	80.007	19.995	103.871	20.071	2.523	0.504
1153.500	668.839	80.007	19.994	103.870	20.070	2.618	0.495
1155.000	669.609	80.008	19.994	103.870	20.071	2.563	0.503
1156.500	670.400	80.006	19.994	103.860	20.069	2.690	0.491
1158.000	671.080	80.009	19.993	103.865	20.070	2.638	0.466
1159.500	671.857	80.009	19.994	103.861	20.069	2.721	0.514
1161.000	672.626	80.009	19.994	103.858	20.068	2.762	0.504
1162.500	673.354	80.009	19.994	103.865	20.070	2.653	0.486
1164.000	674.147	80.007	19.994	103.869	20.073	2.420	0.488
1165.500	674.896	80.007	19.994	103.864	20.070	2.593	0.511
1167.000	675.709	80.009	19.994	103.860	20.067	2.811	0.523
1168.500	676.456	80.008	19.995	103.871	20.070	2.606	0.495
1170.000	677.189	80.008	19.995	103.864	20.070	2.601	0.485
1171.500	677.941	80.007	19.994	103.861	20.071	2.581	0.513
1173.000	678.709	80.006	19.995	103.857	20.072	2.521	0.508
1174.500	679.492	80.006	19.995	103.855	20.069	2.724	0.505
1176.000	680.196	80.006	19.994	103.865	20.070	2.657	0.480
1177.500	680.986	80.007	19.994	103.869	20.067	2.817	0.501
1179.000	681.773	80.007	19.995	103.870	20.069	2.707	0.530
1180.500	682.476	80.006	19.995	103.870	20.072	2.480	0.475
1182.000	683.244	80.006	19.995	103.871	20.067	2.844	0.511
1183.500	684.028	80.006	19.995	103.871	20.070	2.655	0.536
1185.001	684.765	80.008	19.993	103.870	20.066	2.868	0.512
1186.500	685.559	80.007	19.993	103.871	20.069	2.666	0.548
1188.000	686.297	80.007	19.993	103.874	20.069	2.677	0.500
1189.500	687.054	80.006	19.994	103.877	20.068	2.753	0.486
1191.000	687.854	80.007	19.994	103.874	20.068	2.740	0.520
1192.500	688.549	80.007	19.994	103.869	20.068	2.779	0.474
1194.000	689.346	80.007	19.993	103.872	20.070	2.625	0.524
1195.500	690.332	80.008	19.994	103.872	20.069	2.673	0.640
1197.000	690.810	80.008	19.993	103.866	20.073	2.417	0.342
1198.501	691.621	80.006	19.994	103.861	20.072	2.508	0.479
1200.000	692.349	80.006	19.993	103.864	20.071	2.550	0.527
1201.500	693.127	80.006	19.995	103.869	20.070	2.604	0.498
1203.000	693.859	80.006	19.994	103.870	20.072	2.502	0.508
1204.500	694.629	80.005	19.995	103.859	20.067	2.801	0.523
1206.000	695.421	80.006	19.995	103.853	20.070	2.608	0.505
1207.500	696.179	80.007	19.994	103.865	20.072	2.506	0.494
1209.000	696.917	80.006	19.993	103.868	20.073	2.432	0.505
1210.500	697.672	80.006	19.994	103.857	20.074	2.355	0.508
1212.000	698.415	80.007	19.993	103.860	20.071	2.528	0.512
1213.500	699.148	80.005	19.994	103.866	20.070	2.635	0.511
1215.000	699.891	80.007	19.994	103.865	20.070	2.604	0.505
1216.500	700.709	80.008	19.993	103.853	20.069	2.663	0.518
1218.000	701.472	80.008	19.994	103.852	20.069	2.710	0.513
1219.500	702.223	80.010	19.993	103.852	20.069	2.669	0.481
1221.000	702.951	80.009	19.993	103.858	20.072	2.502	0.502
1222.501	703.749	80.009	19.993	103.843	20.070	2.595	0.537
1224.000	704.487	80.008	19.992	103.842	20.068	2.773	0.493
1225.500	705.255	80.009	19.992	103.842	20.069	2.658	0.510
1227.000	705.990	80.010	19.994	103.848	20.068	2.752	0.483
1228.500	706.723	80.009	19.994	103.848	20.071	2.535	0.481
1230.000	707.488	80.007	19.995	103.849	20.072	2.465	0.511
1231.500	708.250	80.007	19.994	103.849	20.074	2.336	0.520
1233.000	709.014	80.008	19.994	103.838	20.073	2.411	0.519
1234.500	709.761	80.007	19.994	103.837	20.074	2.318	0.506
1236.000	710.552	80.008	19.994	103.838	20.072	2.500	0.513
1237.500	711.296	80.008	19.995	103.836	20.073	2.424	0.515
1239.000	712.035	80.008	19.994	103.836	20.074	2.324	0.486
1240.500	712.815	80.009	19.995	103.839	20.070	2.619	0.515
1242.000	713.556	80.010	19.994	103.841	20.075	2.257	0.497
1243.500	714.359	80.008	19.994	103.835	20.075	2.251	0.507
1245.000	715.145	80.010	19.994	103.839	20.072	2.463	0.532
1246.500	715.900	80.010	19.993	103.836	20.074	2.338	0.496
1248.000	716.670	80.009	19.994	103.841	20.073	2.437	0.510
1249.500	717.444	80.008	19.992	103.847	20.072	2.463	0.515
1251.000	718.195	80.008	19.994	103.850	20.072	2.502	0.496
1252.500	718.960	80.009	19.994	103.840	20.074	2.353	0.516
1254.000	719.711	80.007	19.993	103.833	20.072	2.463	0.495
1255.500	720.451	80.008	19.993	103.833	20.077	2.173	0.497
1257.000	721.280	80.007	19.994	103.836	20.072	2.504	0.527
1258.500	721.994	80.006	19.994	103.842	20.073	2.422	0.483
1260.000	722.770	80.005	19.993	103.840	20.072	2.513	0.512
1261.500	723.524	80.005	19.995	103.837	20.072	2.474	0.506
1263.000	724.273	80.005	19.995	103.839	20.071	2.567	0.499
1264.500	725.008	80.005	19.994	103.840	20.069	2.661	0.504
1266.000	725.840	80.006	19.995	103.849	20.070	2.606	0.553
1267.500	726.563	80.006	19.994	103.843	20.072	2.517	0.492
1269.000	727.365	80.006	19.995	103.835	20.071	2.537	0.536
1270.500	728.087	80.007	19.994	103.843	20.071	2.585	0.483
1272.000	728.849	80.007	19.994	103.845	20.075	2.316	0.484
1273.500	729.599	80.007	19.994	103.839	20.075	2.307	0.492
1275.000	730.358	80.005	19.993	103.839	20.074	2.325	0.508
1276.500	731.123	80.008	19.994	103.848	20.076	2.238	0.493
1278.000	731.899	80.007	19.994	103.852	20.075	2.264	0.514
1279.500	732.629	80.007	19.994	103.846	20.077	2.173	0.476
1281.000	733.424	80.007	19.993	103.836	20.077	2.147	0.522
1282.500	734.182	80.008	19.994	103.841	20.075	2.281	0.511
1284.000	734.930	80.007	19.993	103.843	20.076	2.216	0.492
1285.500	735.704	80.005	19.994	103.835	20.074	2.370	0.500
1287.000	736.432	80.007	19.992	103.839	20.075	2.305	0.518
1288.500	737.227	80.006	19.993	103.838	20.074	2.372	0.521
1290.000	737.980	80.007	19.994	103.837	20.073	2.427	0.503
1291.500	738.757	80.006	19.993	103.838	20.074	2.381	0.520
1293.000	739.521	80.006	19.993	103.836	20.073	2.409	0.505
1294.500	740.277	80.007	19.994	103.833	20.076	2.246	0.509
1296.000	741.034	80.007	19.994	103.834	20.072	2.470	0.498
1297.500	741.775	80.007	19.993	103.835	20.073	2.429	0.498
1299.000	742.502	80.008	19.994	103.842	20.069	2.677	0.488
1300.501	743.261	80.009	19.993	103.836	20.071	2.537	0.500
1301.500	743.755	80.008	19.993	103.833	20.072	2.517	0.498