File: 01_Data/Cedar_Shingle/STA/N2/30K_min/Cedar_Shingle_STA_N2_30KData_220404_R1.csv
##Temp./Â°C,Time/min,Mass loss(subtr.2)/mg,DSC(subtr.2)/(mW/mg),Sensit./(uV/mW)
48.442,10.00667,-0.03828,0.02110774,1.07508
49.142,10.55537,-0.03981049,0.06430528,1.07477
49.842,10.6827,-0.04080323,0.10634,1.07447
50.542,10.7721,-0.03859682,0.14123,1.07416
51.242,10.84551,-0.04136574,0.17404,1.07385
51.942,10.91029,-0.04036743,0.20692,1.07354
52.642,10.96699,-0.03988534,0.23567,1.07323
53.342,11.0189,-0.03987262,0.26049,1.07291
54.042,11.0666,-0.0406973,0.28431,1.0726
54.742,11.11182,-0.0411392,0.30774,1.07229
55.442,11.15507,-0.04072741,0.33032,1.07198
56.142,11.196,-0.04077385,0.35088,1.07166
56.842,11.2352,-0.04110595,0.37119,1.07135
57.542,11.2727,-0.04118786,0.39121,1.07103
58.242,11.30885,-0.04041459,0.41113,1.07072
58.942,11.3442,-0.04084749,0.42738,1.0704
59.642,11.37852,-0.04232777,0.446,1.07009
60.342,11.41206,-0.04244659,0.46167,1.06977
61.042,11.44496,-0.04261882,0.47742,1.06945
61.742,11.47712,-0.0431282,0.49315,1.06913
62.442,11.50848,-0.04290165,0.50853,1.06882
63.142,11.53941,-0.04254511,0.52345,1.0685
63.842,11.56973,-0.04275786,0.53779,1.06818
64.542,11.5997,-0.04227583,0.55103,1.06786
65.242,11.62918,-0.04196704,0.56361,1.06754
65.942,11.65818,-0.04231544,0.57731,1.06722
66.642,11.68701,-0.0406685,0.59055,1.06689
67.342,11.7154,-0.04143333,0.60291,1.06657
68.042,11.74361,-0.04235702,0.61614,1.06625
68.742,11.77144,-0.04234445,0.62899,1.06593
69.442,11.79905,-0.04193719,0.63932,1.0656
70.142,11.8264,-0.04210652,0.65068,1.06528
70.842,11.85373,-0.04281344,0.66294,1.06495
71.542,11.8805,-0.04390726,0.67393,1.06463
72.242,11.90751,-0.04431099,0.68669,1.0643
72.942,11.93411,-0.04395846,0.6979,1.06397
73.642,11.96086,-0.04416671,0.70921,1.06365
74.342,11.9872,-0.04476164,0.72107,1.06332
75.042,12.0136,-0.04474847,0.73035,1.06299
75.742,12.03962,-0.04498342,0.74069,1.06266
76.442,12.06559,-0.04644893,0.7519,1.06233
77.142,12.0912,-0.04588126,0.75877,1.062
77.842,12.11662,-0.04511186,0.76998,1.06167
78.542,12.14207,-0.04473814,0.78352,1.06134
79.242,12.16757,-0.04553919,0.79124,1.06101
79.942,12.19313,-0.04582837,0.80057,1.06068
80.642,12.21843,-0.04564991,0.80955,1.06035
81.342,12.24365,-0.04650869,0.81879,1.06002
82.042,12.26875,-0.04705954,0.82929,1.05968
82.742,12.2936,-0.04775181,0.83811,1.05935
83.442,12.3184,-0.04712893,0.84765,1.05902
84.142,12.34314,-0.0483597,0.85715,1.05868
84.842,12.36802,-0.04873748,0.86521,1.05835
85.542,12.3927,-0.04849366,0.87297,1.05801
86.242,12.41728,-0.04973848,0.88338,1.05767
86.942,12.44177,-0.04846963,0.89172,1.05734
87.642,12.4662,-0.0497767,0.90024,1.057
88.342,12.49063,-0.04906918,0.90786,1.05666
89.042,12.51495,-0.0493393,0.91939,1.05632
89.742,12.5393,-0.04979887,0.92709,1.05599
90.442,12.5634,-0.05085562,0.93256,1.05565
91.142,12.58758,-0.0511259,0.9415,1.05531
91.842,12.61162,-0.05106843,0.94969,1.05497
92.542,12.63568,-0.05123213,0.95468,1.05463
93.242,12.65974,-0.05218761,0.96263,1.05428
93.942,12.68375,-0.05254091,0.96993,1.05394
94.642,12.70779,-0.05252354,0.97658,1.0536
95.342,12.73147,-0.0538892,0.98565,1.05326
96.042,12.75516,-0.05385818,0.99352,1.05292
96.742,12.77881,-0.05437142,0.99929,1.05257
97.442,12.80262,-0.05518343,1.0027,1.05223
98.142,12.82643,-0.05518315,1.00901,1.05188
98.842,12.85003,-0.05418654,1.01469,1.05154
99.542,12.8737,-0.05550513,1.01868,1.05119
100.242,12.8972,-0.05563532,1.02288,1.05085
100.942,12.92111,-0.05681639,1.02628,1.0505
101.642,12.94488,-0.05682005,1.03406,1.05015
102.342,12.9686,-0.05681999,1.03565,1.04981
103.042,12.99221,-0.05682072,1.03784,1.04946
103.742,13.0158,-0.05699589,1.04199,1.04911
104.442,13.0395,-0.05813662,1.04384,1.04876
105.142,13.06316,-0.0591818,1.04713,1.04841
105.842,13.0868,-0.06045034,1.04788,1.04806
106.542,13.1103,-0.06077121,1.04804,1.04771
107.242,13.1339,-0.06077,1.0504,1.04736
107.942,13.1576,-0.06077007,1.05054,1.04701
108.642,13.18136,-0.06077499,1.04939,1.04666
109.342,13.20514,-0.06218741,1.05067,1.04631
110.042,13.2287,-0.06307333,1.05214,1.04595
110.742,13.2522,-0.06306998,1.05078,1.0456
111.442,13.2756,-0.06307,1.05257,1.04525
112.142,13.2991,-0.06306999,1.05017,1.04489
112.842,13.32255,-0.06306713,1.04885,1.04454
113.542,13.346,-0.06365244,1.04962,1.04418
114.242,13.3694,-0.0643834,1.04587,1.04383
114.942,13.39285,-0.06438519,1.04667,1.04347
115.642,13.4162,-0.06575934,1.04484,1.04312
116.342,13.43954,-0.06603365,1.04459,1.04276
117.042,13.46289,-0.06664322,1.04047,1.0424
117.742,13.48625,-0.06734945,1.03873,1.04204
118.442,13.5096,-0.06735114,1.03576,1.04169
119.142,13.5329,-0.0673249,1.03531,1.04133
119.842,13.55613,-0.06802089,1.03372,1.04097
120.542,13.5793,-0.06865117,1.02967,1.04061
121.242,13.6024,-0.06866949,1.02841,1.04025
121.942,13.6255,-0.06867027,1.02666,1.03989
122.642,13.6487,-0.0687224,1.0249,1.03953
123.342,13.672,-0.06998753,1.02076,1.03917
124.042,13.69519,-0.0699801,1.01962,1.0388
124.742,13.71829,-0.06998,1.01845,1.03844
125.442,13.74133,-0.06998,1.01579,1.03808
126.142,13.7644,-0.06998,1.01271,1.03772
126.842,13.78749,-0.06998,1.01309,1.03735
127.542,13.81046,-0.06998,1.01358,1.03699
128.242,13.83332,-0.06998001,1.01,1.03663
128.942,13.8562,-0.07006739,1.01073,1.03626
129.642,13.87904,-0.07130283,1.00759,1.0359
130.342,13.90175,-0.07217626,1.00702,1.03553
131.042,13.9246,-0.07262223,1.00519,1.03516
131.742,13.9474,-0.07261625,1.00627,1.0348
132.442,13.9705,-0.0738468,1.00435,1.03443
133.142,13.99334,-0.07393,1.00588,1.03406
133.842,14.0161,-0.07394114,1.00488,1.0337
134.542,14.03876,-0.0751757,1.00608,1.03333
135.242,14.0614,-0.07524918,1.00499,1.03296
135.942,14.084,-0.07525001,1.00279,1.03259
136.642,14.10665,-0.07525,1.00426,1.03222
137.342,14.12929,-0.07524972,1.00436,1.03185
138.042,14.15191,-0.07526559,1.0054,1.03148
138.742,14.1745,-0.07588586,1.00479,1.03111
139.442,14.197,-0.07590032,1.00687,1.03074
140.142,14.2196,-0.0759,1.00841,1.03037
140.842,14.242,-0.07589992,1.00803,1.02999
141.542,14.2646,-0.07590677,1.01041,1.02962
142.242,14.28692,-0.07656541,1.0104,1.02925
142.942,14.3093,-0.07655949,1.01462,1.02888
143.642,14.3315,-0.07656035,1.01653,1.0285
144.342,14.3539,-0.07657169,1.01668,1.02813
145.042,14.37636,-0.07789875,1.01957,1.02775
145.742,14.39875,-0.07788065,1.0221,1.02738
146.442,14.42102,-0.07793866,1.02724,1.027
147.142,14.44328,-0.07918789,1.02679,1.02663
147.842,14.4656,-0.07916305,1.03233,1.02625
148.542,14.4879,-0.08049964,1.03092,1.02587
149.242,14.51,-0.08051015,1.03539,1.0255
149.942,14.53217,-0.08051406,1.0369,1.02512
150.642,14.55436,-0.08160372,1.03819,1.02474
151.342,14.57654,-0.0831597,1.04107,1.02436
152.042,14.5988,-0.08313986,1.04313,1.02399
152.742,14.621,-0.08314,1.04612,1.02361
153.442,14.64315,-0.08314,1.04817,1.02323
154.142,14.6652,-0.08314001,1.05344,1.02285
154.842,14.68735,-0.08314018,1.05364,1.02247
155.542,14.7094,-0.0830983,1.05853,1.02209
156.242,14.73146,-0.08449007,1.05869,1.02171
156.942,14.75341,-0.0844602,1.06078,1.02132
157.642,14.7756,-0.0848016,1.06563,1.02094
158.342,14.7977,-0.08511306,1.0679,1.02056
159.042,14.81986,-0.08512001,1.07362,1.02018
159.742,14.8418,-0.08511999,1.07521,1.01979
160.442,14.86377,-0.08512099,1.07592,1.01941
161.142,14.88565,-0.08508455,1.08131,1.01903
161.842,14.9077,-0.08643063,1.08459,1.01864
162.542,14.9297,-0.08645259,1.08652,1.01826
163.242,14.95169,-0.08765501,1.09103,1.01787
163.942,14.97362,-0.08775967,1.09341,1.01749
164.642,14.99564,-0.08782271,1.09506,1.0171
165.342,15.0176,-0.08986281,1.09803,1.01672
166.042,15.03948,-0.09005055,1.10178,1.01633
166.742,15.0613,-0.09005028,1.10452,1.01594
167.442,15.0832,-0.09001773,1.10912,1.01556
168.142,15.1051,-0.09037554,1.11188,1.01517
168.842,15.127,-0.09038007,1.11216,1.01478
169.542,15.14892,-0.09034445,1.11473,1.01439
170.242,15.1707,-0.09174062,1.11642,1.014
170.942,15.19241,-0.09169979,1.12202,1.01361
171.642,15.2142,-0.09170328,1.12457,1.01322
172.342,15.23603,-0.09268299,1.12837,1.01283
173.042,15.2579,-0.09301231,1.13119,1.01244
173.742,15.2797,-0.09300993,1.13422,1.01205
174.442,15.30146,-0.09298769,1.1359,1.01166
175.142,15.32315,-0.0943803,1.13976,1.01127
175.842,15.34481,-0.09431167,1.14071,1.01088
176.542,15.3665,-0.09564743,1.14626,1.01049
177.242,15.38824,-0.09562555,1.14766,1.01009
177.942,15.40996,-0.09701813,1.15047,1.0097
178.642,15.43166,-0.09696984,1.15312,1.00931
179.342,15.45333,-0.09696995,1.15698,1.00891
180.042,15.47497,-0.09829714,1.15907,1.00852
180.742,15.49665,-0.09827999,1.16112,1.00813
181.442,15.51825,-0.09826237,1.16419,1.00773
182.142,15.53982,-0.09959679,1.16889,1.00734
182.842,15.56131,-0.09959985,1.17156,1.00694
183.542,15.58288,-0.09958404,1.17431,1.00654
184.242,15.60445,-0.10086,1.17898,1.00615
184.942,15.62602,-0.10153,1.17931,1.00575
185.642,15.64755,-0.1016,1.18476,1.00535
186.342,15.6691,-0.10291,1.18679,1.00496
187.042,15.6906,-0.10289,1.18819,1.00456
187.742,15.7121,-0.10289,1.19046,1.00416
188.442,15.7335,-0.10357,1.19568,1.00376
189.142,15.75495,-0.10421,1.19806,1.00336
189.842,15.7763,-0.1043,1.20011,1.00297
190.542,15.79775,-0.10553,1.2026,1.00257
191.242,15.8192,-0.10552,1.20652,1.00217
191.942,15.8406,-0.10552,1.21157,1.00177
192.642,15.862,-0.10557,1.21212,1.00137
193.342,15.8834,-0.10686,1.21709,1.00096
194.042,15.9048,-0.10679,1.21807,1.00056
194.742,15.92609,-0.10817,1.22175,1.00016
195.442,15.9475,-0.10857,1.22566,0.99976
196.142,15.9689,-0.10946,1.22809,0.99936
196.842,15.9903,-0.10959,1.23079,0.99896
197.542,16.0117,-0.11103,1.23405,0.99855
198.242,16.0331,-0.11144,1.23881,0.99815
198.942,16.05443,-0.11143,1.24147,0.99775
199.642,16.0758,-0.11264,1.24525,0.99734
200.342,16.09712,-0.11305,1.24718,0.99694
201.042,16.11845,-0.11315,1.25184,0.99653
201.742,16.13982,-0.11451,1.2551,0.99613
202.442,16.1612,-0.11451,1.25458,0.99572
203.142,16.18261,-0.11452,1.2592,0.99532
203.842,16.20391,-0.11563,1.2636,0.99491
204.542,16.22521,-0.11583,1.2669,0.9945
205.242,16.24654,-0.11583,1.27223,0.9941
205.942,16.26781,-0.1169,1.27394,0.99369
206.642,16.28914,-0.11714,1.27502,0.99328
207.342,16.31051,-0.11744,1.27917,0.99288
208.042,16.3318,-0.11868,1.28185,0.99247
208.742,16.35311,-0.11965,1.28541,0.99206
209.442,16.37441,-0.12,1.28591,0.99165
210.142,16.3957,-0.12119,1.29275,0.99124
210.842,16.417,-0.12137,1.29406,0.99083
211.542,16.43831,-0.12277,1.29793,0.99042
212.242,16.45961,-0.12273,1.30186,0.99001
212.942,16.48086,-0.12406,1.30494,0.9896
213.642,16.50214,-0.1241,1.30918,0.98919
214.342,16.52339,-0.12561,1.31176,0.98878
215.042,16.54457,-0.12599,1.31522,0.98837
215.742,16.56575,-0.12736,1.31738,0.98796
216.442,16.58686,-0.12736,1.3213,0.98755
217.142,16.60804,-0.12865,1.3242,0.98713
217.842,16.6292,-0.12865,1.33038,0.98672
218.542,16.65046,-0.12989,1.33286,0.98631
219.242,16.6717,-0.12999,1.33671,0.9859
219.942,16.69296,-0.13093,1.33914,0.98548
220.642,16.71419,-0.13193,1.34295,0.98507
221.342,16.7354,-0.13309,1.34633,0.98465
222.042,16.7566,-0.13326,1.34915,0.98424
222.742,16.77788,-0.13473,1.35404,0.98382
223.442,16.7991,-0.13534,1.35783,0.98341
224.142,16.8204,-0.13635,1.36188,0.98299
224.842,16.84177,-0.13791,1.36469,0.98258
225.542,16.863,-0.13797,1.37046,0.98216
226.242,16.88427,-0.1392,1.37455,0.98175
226.942,16.9055,-0.1397,1.37835,0.98133
227.642,16.92675,-0.14062,1.38249,0.98091
228.342,16.9481,-0.1421,1.38515,0.98049
229.042,16.96951,-0.14224,1.38925,0.98008
229.742,16.99086,-0.14351,1.39383,0.97966
230.442,17.0121,-0.14537,1.39886,0.97924
231.142,17.03323,-0.14642,1.4008,0.97882
231.842,17.05442,-0.14686,1.40416,0.9784
232.542,17.0756,-0.14849,1.40911,0.97798
233.242,17.0968,-0.14912,1.41307,0.97756
233.942,17.11796,-0.14989,1.41561,0.97714
234.642,17.13916,-0.15151,1.41968,0.97672
235.342,17.1604,-0.15304,1.42405,0.9763
236.042,17.18165,-0.15392,1.4287,0.97588
236.742,17.20286,-0.15478,1.43473,0.97546
237.442,17.22404,-0.15652,1.43606,0.97504
238.142,17.2452,-0.15814,1.43858,0.97462
238.842,17.26642,-0.16003,1.44418,0.9742
239.542,17.28762,-0.16158,1.44987,0.97378
240.242,17.3088,-0.16302,1.45294,0.97335
240.942,17.32995,-0.16406,1.4564,0.97293
241.642,17.35109,-0.1655,1.46126,0.97251
242.342,17.37228,-0.16705,1.4648,0.97208
243.042,17.3935,-0.16871,1.46916,0.97166
243.742,17.4147,-0.17046,1.47328,0.97124
244.442,17.43589,-0.17218,1.47906,0.97081
245.142,17.45711,-0.17434,1.48198,0.97039
245.842,17.4783,-0.17577,1.48364,0.96996
246.542,17.49936,-0.17686,1.48806,0.96954
247.242,17.5205,-0.1781,1.49273,0.96911
247.942,17.54159,-0.18009,1.49568,0.96869
248.642,17.56278,-0.18223,1.49783,0.96826
249.342,17.58393,-0.18436,1.49972,0.96783
250.042,17.60514,-0.1858,1.50552,0.96741
250.742,17.6263,-0.18728,1.50719,0.96698
251.442,17.6475,-0.18936,1.50923,0.96655
252.142,17.6687,-0.1908,1.51324,0.96613
252.842,17.68988,-0.19231,1.51444,0.9657
253.542,17.71105,-0.19431,1.51747,0.96527
254.242,17.73219,-0.19663,1.52127,0.96484
254.942,17.75337,-0.1992,1.52478,0.96441
255.642,17.77451,-0.20152,1.5259,0.96398
256.342,17.79567,-0.20366,1.52941,0.96355
257.042,17.81684,-0.20507,1.53212,0.96313
257.742,17.83794,-0.20711,1.53076,0.9627
258.442,17.85908,-0.20944,1.53366,0.96227
259.142,17.88021,-0.21207,1.53392,0.96183
259.842,17.90128,-0.21429,1.53603,0.9614
260.542,17.92245,-0.21636,1.53993,0.96097
261.242,17.94354,-0.21839,1.5388,0.96054
261.942,17.9646,-0.22077,1.53985,0.96011
262.642,17.98576,-0.22313,1.54058,0.95968
263.342,18.00685,-0.22554,1.54072,0.95925
264.042,18.02797,-0.22881,1.54081,0.95882
264.742,18.04898,-0.23188,1.54267,0.95838
265.442,18.0699,-0.23469,1.54264,0.95795
266.142,18.09096,-0.23706,1.54272,0.95752
266.842,18.11209,-0.23911,1.54347,0.95708
267.542,18.13346,-0.24209,1.54432,0.95665
268.242,18.15469,-0.24573,1.54176,0.95622
268.942,18.1758,-0.24892,1.54043,0.95578
269.642,18.19697,-0.25146,1.54193,0.95535
270.342,18.2181,-0.25411,1.54066,0.95491
271.042,18.23926,-0.25761,1.54143,0.95448
271.742,18.2603,-0.26098,1.54069,0.95404
272.442,18.28122,-0.26361,1.54041,0.95361
273.142,18.3022,-0.26717,1.53979,0.95317
273.842,18.32326,-0.27127,1.53773,0.95274
274.542,18.34444,-0.27407,1.53643,0.9523
275.242,18.36565,-0.27796,1.53534,0.95186
275.942,18.38691,-0.28164,1.53104,0.95143
276.642,18.4081,-0.28619,1.53297,0.95099
277.342,18.4294,-0.29082,1.53361,0.95055
278.042,18.45054,-0.29392,1.52999,0.95011
278.742,18.47166,-0.29726,1.53062,0.94968
279.442,18.4928,-0.30111,1.52814,0.94924
280.142,18.5139,-0.30355,1.52532,0.9488
280.842,18.5351,-0.30731,1.52303,0.94836
281.542,18.55624,-0.31167,1.5269,0.94792
282.242,18.57739,-0.31559,1.52261,0.94748
282.942,18.59854,-0.31851,1.51839,0.94704
283.642,18.6196,-0.32206,1.52014,0.9466
284.342,18.64072,-0.32603,1.51548,0.94616
285.042,18.6618,-0.33038,1.51549,0.94572
285.742,18.68293,-0.33446,1.51604,0.94528
286.442,18.70407,-0.33962,1.51387,0.94484
287.142,18.72525,-0.34494,1.51322,0.9444
287.842,18.74646,-0.34908,1.50812,0.94396
288.542,18.7677,-0.35406,1.50565,0.94352
289.242,18.78886,-0.35912,1.50543,0.94308
289.942,18.81006,-0.36357,1.50595,0.94264
290.642,18.83124,-0.36814,1.50216,0.94219
291.342,18.85239,-0.37339,1.49851,0.94175
292.042,18.87351,-0.37891,1.49876,0.94131
292.742,18.8947,-0.38448,1.49708,0.94087
293.442,18.9159,-0.38968,1.4939,0.94042
294.142,18.9371,-0.39457,1.49092,0.93998
294.842,18.9583,-0.39938,1.48975,0.93954
295.542,18.97942,-0.40492,1.48526,0.93909
296.242,19.00057,-0.4106,1.48441,0.93865
296.942,19.02177,-0.41567,1.48072,0.9382
297.642,19.043,-0.42046,1.47979,0.93776
298.342,19.0642,-0.42554,1.47607,0.93731
299.042,19.0854,-0.43036,1.47563,0.93687
299.742,19.10659,-0.43511,1.47092,0.93642
300.442,19.12782,-0.44059,1.47048,0.93598
301.142,19.149,-0.44597,1.47016,0.93553
301.842,19.17009,-0.45121,1.46554,0.93508
302.542,19.1912,-0.457,1.46366,0.93464
303.242,19.21237,-0.46341,1.46508,0.93419
303.942,19.2336,-0.47009,1.46145,0.93375
304.642,19.25495,-0.47654,1.46051,0.9333
305.342,19.27619,-0.48309,1.45703,0.93285
306.042,19.2974,-0.48942,1.45558,0.9324
306.742,19.31855,-0.49598,1.45338,0.93196
307.442,19.33974,-0.50251,1.4556,0.93151
308.142,19.36095,-0.50855,1.45427,0.93106
308.842,19.3822,-0.51428,1.45361,0.93061
309.542,19.40343,-0.52049,1.45117,0.93016
310.242,19.42466,-0.52706,1.45098,0.92971
310.942,19.44586,-0.5336,1.44787,0.92926
311.642,19.46702,-0.54043,1.45013,0.92881
312.342,19.48824,-0.54766,1.44635,0.92836
313.042,19.50943,-0.55453,1.44607,0.92791
313.742,19.53065,-0.56121,1.44811,0.92746
314.442,19.5519,-0.56763,1.44562,0.92701
315.142,19.57316,-0.57481,1.44538,0.92656
315.842,19.59442,-0.58217,1.44511,0.92611
316.542,19.61569,-0.59011,1.44651,0.92566
317.242,19.637,-0.59862,1.44701,0.92521
317.942,19.65827,-0.60669,1.44641,0.92476
318.642,19.6795,-0.6144,1.44433,0.92431
319.342,19.70072,-0.62198,1.4438,0.92386
320.042,19.72198,-0.63014,1.44619,0.9234
320.742,19.7433,-0.63836,1.44766,0.92295
321.442,19.76461,-0.64616,1.44744,0.9225
322.142,19.7858,-0.65458,1.45085,0.92204
322.842,19.807,-0.6632,1.45161,0.92159
323.542,19.82826,-0.672,1.45311,0.92114
324.242,19.8495,-0.68038,1.45641,0.92068
324.942,19.8708,-0.68914,1.45833,0.92023
325.642,19.8921,-0.69836,1.45864,0.91978
326.342,19.91337,-0.70726,1.45955,0.91932
327.042,19.93461,-0.71692,1.46551,0.91887
327.742,19.95581,-0.7263,1.46589,0.91841
328.442,19.9771,-0.73604,1.4706,0.91796
329.142,19.9985,-0.74602,1.47284,0.9175
329.842,20.01976,-0.75583,1.47591,0.91705
330.542,20.04109,-0.76624,1.47921,0.91659
331.242,20.06236,-0.77693,1.48233,0.91614
331.942,20.08359,-0.78802,1.48586,0.91568
332.642,20.10485,-0.7984,1.48949,0.91522
333.342,20.12615,-0.80858,1.49226,0.91477
334.042,20.14753,-0.81947,1.49794,0.91431
334.742,20.16882,-0.83085,1.49997,0.91385
335.442,20.19012,-0.84245,1.50432,0.9134
336.142,20.21143,-0.85407,1.50591,0.91294
336.842,20.2328,-0.86545,1.51148,0.91248
337.542,20.2542,-0.87764,1.51324,0.91203
338.242,20.27555,-0.8897,1.51947,0.91157
338.942,20.2969,-0.90163,1.5248,0.91111
339.642,20.31816,-0.91422,1.52918,0.91065
340.342,20.33948,-0.92687,1.53426,0.91019
341.042,20.36075,-0.93921,1.53744,0.90973
341.742,20.38213,-0.95127,1.54245,0.90927
342.442,20.40356,-0.96399,1.54693,0.90881
343.142,20.425,-0.97703,1.55036,0.90836
343.842,20.4464,-0.99039,1.55543,0.9079
344.542,20.46769,-1.00462,1.5598,0.90744
345.242,20.4891,-1.01896,1.56463,0.90698
345.942,20.51041,-1.03267,1.56983,0.90652
346.642,20.53185,-1.046,1.57271,0.90606
347.342,20.55323,-1.05983,1.58039,0.90559
348.042,20.57461,-1.07401,1.58261,0.90513
348.742,20.59597,-1.08757,1.58613,0.90467
349.442,20.6173,-1.10146,1.59421,0.90421
350.142,20.63863,-1.11639,1.59688,0.90375
350.842,20.65994,-1.13115,1.60066,0.90329
351.542,20.68151,-1.14637,1.6078,0.90283
352.242,20.70309,-1.1614,1.61197,0.90236
352.942,20.72467,-1.17657,1.61867,0.9019
353.642,20.7462,-1.19184,1.62303,0.90144
354.342,20.7677,-1.20716,1.63174,0.90098
355.042,20.78912,-1.22287,1.6372,0.90051
355.742,20.81054,-1.23868,1.64233,0.90005
356.442,20.832,-1.25399,1.65377,0.89959
357.142,20.85353,-1.26943,1.65728,0.89912
357.842,20.87505,-1.28654,1.66528,0.89866
358.542,20.89658,-1.30306,1.67569,0.8982
359.242,20.91801,-1.31969,1.68288,0.89773
359.942,20.93949,-1.33636,1.69386,0.89727
360.642,20.961,-1.35308,1.70463,0.8968
361.342,20.9825,-1.36956,1.71477,0.89634
362.042,21.00408,-1.38672,1.7251,0.89587
362.742,21.02564,-1.40423,1.73703,0.89541
363.442,21.04716,-1.4215,1.74883,0.89494
364.142,21.06869,-1.43916,1.76263,0.89448
364.842,21.09018,-1.45658,1.7764,0.89401
365.542,21.1117,-1.47387,1.79099,0.89354
366.242,21.1333,-1.49214,1.80229,0.89308
366.942,21.15491,-1.51008,1.81768,0.89261
367.642,21.17652,-1.52789,1.83409,0.89215
368.342,21.19803,-1.54675,1.85223,0.89168
369.042,21.21932,-1.56539,1.86784,0.89121
369.742,21.24086,-1.58484,1.88066,0.89074
370.442,21.26241,-1.60355,1.89765,0.89028
371.142,21.28405,-1.62241,1.91675,0.88981
371.842,21.30573,-1.6422,1.93475,0.88934
372.542,21.3274,-1.66264,1.95275,0.88887
373.242,21.34911,-1.68309,1.97171,0.88841
373.942,21.3709,-1.70286,1.98836,0.88794
374.642,21.39255,-1.72318,2.00828,0.88747
375.342,21.41424,-1.74515,2.02627,0.887
376.042,21.43586,-1.76644,2.04454,0.88653
376.742,21.4575,-1.78762,2.05926,0.88606
377.442,21.47916,-1.80897,2.0771,0.88559
378.142,21.50085,-1.83031,2.09322,0.88512
378.842,21.5226,-1.85227,2.10647,0.88465
379.542,21.54423,-1.87477,2.1225,0.88418
380.242,21.56586,-1.89809,2.13256,0.88371
380.942,21.58751,-1.92125,2.14628,0.88324
381.642,21.60926,-1.94358,2.15226,0.88277
382.342,21.631,-1.96625,2.16713,0.8823
383.042,21.65275,-1.98962,2.17037,0.88183
383.742,21.67444,-2.01275,2.17715,0.88136
384.442,21.69618,-2.03634,2.17857,0.88089
385.142,21.71792,-2.05924,2.17884,0.88042
385.842,21.73966,-2.08213,2.17964,0.87995
386.542,21.76142,-2.1062,2.17231,0.87948
387.242,21.7832,-2.1301,2.1646,0.879
387.942,21.80487,-2.15334,2.15274,0.87853
388.642,21.8266,-2.17665,2.14243,0.87806
389.342,21.8483,-2.19967,2.12647,0.87759
390.042,21.87004,-2.22256,2.1031,0.87711
390.742,21.89179,-2.24519,2.08446,0.87664
391.442,21.91356,-2.26745,2.05515,0.87617
392.142,21.93528,-2.29014,2.02652,0.8757
392.842,21.95702,-2.31229,1.99331,0.87522
393.542,21.97873,-2.33397,1.95448,0.87475
394.242,22.0005,-2.35532,1.9169,0.87428
394.942,22.02221,-2.37523,1.87073,0.8738
395.642,22.044,-2.39486,1.8236,0.87333
396.342,22.0657,-2.41442,1.77597,0.87285
397.042,22.08746,-2.43419,1.7204,0.87238
397.742,22.10921,-2.4528,1.665,0.8719
398.442,22.13093,-2.47056,1.60899,0.87143
399.142,22.15268,-2.48762,1.54408,0.87095
399.842,22.1744,-2.50418,1.47958,0.87048
400.542,22.1962,-2.5197,1.41476,0.87
401.242,22.2179,-2.53449,1.34774,0.86953
401.942,22.23967,-2.54847,1.28052,0.86905
402.642,22.2615,-2.56189,1.21406,0.86858
403.342,22.28324,-2.57511,1.14594,0.8681
404.042,22.30499,-2.58738,1.0801,0.86762
404.742,22.3267,-2.59838,1.01435,0.86715
405.442,22.34845,-2.60881,0.94832,0.86667
406.142,22.37017,-2.61856,0.88409,0.86619
406.842,22.39196,-2.62776,0.82307,0.86572
407.542,22.41372,-2.63669,0.76533,0.86524
408.242,22.4355,-2.64437,0.70793,0.86476
408.942,22.45719,-2.65128,0.65085,0.86429
409.642,22.47887,-2.6576,0.60301,0.86381
410.342,22.50061,-2.66369,0.56047,0.86333
411.042,22.52232,-2.66933,0.51781,0.86285
411.742,22.54409,-2.67444,0.48104,0.86237
412.442,22.5658,-2.67924,0.44617,0.8619
413.142,22.58762,-2.68358,0.41345,0.86142
413.842,22.6094,-2.6878,0.38298,0.86094
414.542,22.6312,-2.69131,0.35971,0.86046
415.242,22.65302,-2.69503,0.33744,0.85998
415.942,22.67482,-2.69851,0.31736,0.8595
416.642,22.6966,-2.70152,0.29988,0.85902
417.342,22.71837,-2.70461,0.28345,0.85854
418.042,22.7401,-2.70851,0.27212,0.85806
418.742,22.76197,-2.71159,0.26016,0.85758
419.442,22.7838,-2.71411,0.24576,0.8571
420.142,22.80573,-2.71709,0.23837,0.85662
420.842,22.82765,-2.72028,0.22848,0.85614
421.542,22.84954,-2.72271,0.21892,0.85566
422.242,22.87143,-2.72461,0.21093,0.85518
422.942,22.89334,-2.72702,0.2021,0.8547
423.642,22.9152,-2.72956,0.19482,0.85422
424.342,22.93706,-2.73223,0.1899,0.85374
425.042,22.95896,-2.73483,0.18307,0.85326
425.742,22.98087,-2.73717,0.17673,0.85278
426.442,23.00285,-2.73994,0.17053,0.8523
427.142,23.02478,-2.7434,0.16373,0.85181
427.842,23.04663,-2.74589,0.15742,0.85133
428.542,23.0685,-2.7482,0.15246,0.85085
429.242,23.0903,-2.74987,0.144,0.85037
429.942,23.11216,-2.7516,0.14157,0.84988
430.642,23.1341,-2.7539,0.13637,0.8494
431.342,23.15617,-2.75713,0.13112,0.84892
432.042,23.17817,-2.75999,0.1271,0.84844
432.742,23.2002,-2.76247,0.11989,0.84795
433.442,23.2222,-2.76489,0.11486,0.84747
434.142,23.24413,-2.76808,0.1093,0.84699
434.842,23.2662,-2.77003,0.10171,0.8465
435.542,23.28825,-2.77176,0.09802221,0.84602
436.242,23.31028,-2.77403,0.0906157,0.84553
436.942,23.33223,-2.77719,0.08873231,0.84505
437.642,23.35415,-2.77938,0.08498572,0.84457
438.342,23.37613,-2.78174,0.07931872,0.84408
439.042,23.39819,-2.78386,0.0736147,0.8436
439.742,23.42022,-2.7866,0.07023232,0.84311
440.442,23.44225,-2.78917,0.06656441,0.84263
441.142,23.46434,-2.7913,0.06170217,0.84214
441.842,23.4864,-2.79346,0.05700814,0.84166
442.542,23.50852,-2.7962,0.05409558,0.84117
443.242,23.53045,-2.79805,0.04697161,0.84069
443.942,23.55245,-2.79971,0.04186109,0.8402
444.642,23.5745,-2.80143,0.03943952,0.83972
445.342,23.59664,-2.80327,0.03489295,0.83923
446.042,23.6187,-2.80555,0.02921534,0.83874
446.742,23.64079,-2.80755,0.03148184,0.83826
447.442,23.66294,-2.80969,0.0248313,0.83777
448.142,23.68504,-2.81196,0.0211762,0.83728
448.842,23.70714,-2.8142,0.02224405,0.8368
449.542,23.72927,-2.81679,0.0173305,0.83631
450.242,23.7514,-2.81914,0.0155785,0.83582
450.942,23.77351,-2.82071,0.01685948,0.83534
451.642,23.79563,-2.82248,0.01284921,0.83485
452.342,23.81781,-2.82509,0.01389885,0.83436
453.042,23.83996,-2.82738,0.01244855,0.83387
453.742,23.8621,-2.82909,0.009875696,0.83338
454.442,23.8842,-2.83078,0.01034304,0.8329
455.142,23.90636,-2.83283,0.01034408,0.83241
455.842,23.92858,-2.83456,0.01152222,0.83192
456.542,23.9508,-2.83651,0.01276847,0.83143
457.242,23.97296,-2.83834,0.01425231,0.83094
457.942,23.99512,-2.84062,0.01462066,0.83045
458.642,24.0173,-2.84283,0.01574511,0.82997
459.342,24.03955,-2.84518,0.01744941,0.82948
460.042,24.06176,-2.84744,0.02269517,0.82899
460.742,24.08395,-2.84945,0.02127608,0.8285
461.442,24.10615,-2.85136,0.02598082,0.82801
462.142,24.12835,-2.85312,0.03069527,0.82752
462.842,24.15053,-2.85459,0.0325386,0.82703
463.542,24.1727,-2.8564,0.03582725,0.82654
464.242,24.19492,-2.85784,0.03591009,0.82605
464.942,24.2171,-2.85962,0.04101948,0.82556
465.642,24.23933,-2.8608,0.04768212,0.82507
466.342,24.26153,-2.86225,0.05282999,0.82458
467.042,24.28381,-2.86447,0.05754731,0.82409
467.742,24.30605,-2.86662,0.06350198,0.8236
468.442,24.3283,-2.86869,0.06728184,0.8231
469.142,24.35049,-2.8704,0.07644213,0.82261
469.842,24.37275,-2.87201,0.08017785,0.82212
470.542,24.39498,-2.87374,0.08553445,0.82163
471.242,24.4173,-2.87686,0.09318349,0.82114
471.942,24.4395,-2.8787,0.10092,0.82065
472.642,24.46172,-2.88021,0.10454,0.82016
473.342,24.48396,-2.88184,0.11092,0.81966
474.042,24.50629,-2.88239,0.11886,0.81917
474.742,24.52854,-2.88345,0.12351,0.81868
475.442,24.55084,-2.88528,0.12882,0.81819
476.142,24.5731,-2.88704,0.13481,0.81769
476.842,24.59541,-2.88903,0.14193,0.8172
477.542,24.61771,-2.89098,0.14773,0.81671
478.242,24.63995,-2.89286,0.15936,0.81622
478.942,24.66218,-2.89444,0.16291,0.81572
479.642,24.68449,-2.89556,0.16627,0.81523
480.342,24.70676,-2.89571,0.17704,0.81474
481.042,24.72908,-2.89732,0.18235,0.81424
481.742,24.75131,-2.89903,0.18533,0.81375
482.442,24.77357,-2.90067,0.19257,0.81325
483.142,24.7958,-2.90166,0.19959,0.81276
483.842,24.8181,-2.90291,0.2065,0.81227
484.542,24.84042,-2.90407,0.21373,0.81177
485.242,24.86275,-2.90585,0.21786,0.81128
485.942,24.88512,-2.90765,0.2233,0.81078
486.642,24.90744,-2.9092,0.23136,0.81029
487.342,24.92979,-2.9118,0.23722,0.80979
488.042,24.95212,-2.91338,0.24121,0.8093
488.742,24.97446,-2.91469,0.24709,0.8088
489.442,24.99684,-2.91503,0.25053,0.80831
490.142,25.01924,-2.91594,0.25583,0.80781
490.842,25.0416,-2.91644,0.26001,0.80732
491.542,25.06401,-2.91829,0.26147,0.80682
492.242,25.08633,-2.91865,0.26901,0.80632
492.942,25.1086,-2.92005,0.27016,0.80583
493.642,25.13096,-2.92082,0.27539,0.80533
494.342,25.15334,-2.92138,0.28025,0.80484
495.042,25.17568,-2.92286,0.28274,0.80434
495.742,25.19803,-2.92461,0.28976,0.80384
496.442,25.22029,-2.92569,0.29141,0.80335
497.142,25.24267,-2.92633,0.29142,0.80285
497.842,25.2651,-2.92905,0.29682,0.80235
498.542,25.28749,-2.93084,0.30212,0.80186
499.242,25.3099,-2.93197,0.30348,0.80136
499.942,25.33229,-2.93258,0.30827,0.80086
500.642,25.35475,-2.93402,0.31076,0.80036
501.342,25.3771,-2.93554,0.31349,0.79987
502.042,25.39944,-2.93727,0.31485,0.79937
502.742,25.42171,-2.93816,0.31647,0.79887
503.442,25.4441,-2.93861,0.32059,0.79837
504.142,25.4665,-2.9386,0.32113,0.79787
504.842,25.489,-2.93991,0.32661,0.79737
505.542,25.51146,-2.94081,0.32737,0.79688
506.242,25.53383,-2.94148,0.32914,0.79638
506.942,25.55633,-2.94295,0.33328,0.79588
507.642,25.57872,-2.94428,0.33328,0.79538
508.342,25.6012,-2.94433,0.33804,0.79488
509.042,25.62368,-2.94588,0.33742,0.79438
509.742,25.6461,-2.94734,0.33807,0.79388
510.442,25.66849,-2.94749,0.34022,0.79338
511.142,25.6908,-2.9489,0.34199,0.79288
511.842,25.71322,-2.94956,0.34368,0.79238
512.542,25.73562,-2.95023,0.34683,0.79188
513.242,25.758,-2.95024,0.34592,0.79138
513.942,25.78043,-2.95067,0.34866,0.79088
514.642,25.8029,-2.95177,0.34901,0.79038
515.342,25.82539,-2.95216,0.35078,0.78988
516.042,25.84789,-2.95351,0.35253,0.78938
516.742,25.87039,-2.95381,0.3524,0.78888
517.442,25.89286,-2.95495,0.3539,0.78838
518.142,25.91527,-2.95622,0.35383,0.78788
518.842,25.93778,-2.95692,0.35585,0.78738
519.542,25.96027,-2.95813,0.35704,0.78688
520.242,25.9828,-2.95949,0.35334,0.78638
520.942,26.0052,-2.95944,0.35832,0.78588
521.642,26.0276,-2.96052,0.3577,0.78538
522.342,26.05005,-2.96083,0.36059,0.78487
523.042,26.0725,-2.9623,0.35927,0.78437
523.742,26.0949,-2.96319,0.36041,0.78387
524.442,26.11736,-2.96379,0.35992,0.78337
525.142,26.1398,-2.96526,0.36331,0.78287
525.842,26.16228,-2.96656,0.36297,0.78236
526.542,26.18471,-2.96697,0.36603,0.78186
527.242,26.20711,-2.96833,0.36474,0.78136
527.942,26.22956,-2.96842,0.36504,0.78086
528.642,26.25205,-2.96964,0.36291,0.78035
529.342,26.2745,-2.97049,0.36333,0.77985
530.042,26.29699,-2.97131,0.36253,0.77935
530.742,26.31942,-2.97268,0.36496,0.77884
531.442,26.342,-2.97277,0.36456,0.77834
532.142,26.3645,-2.97421,0.36733,0.77784
532.842,26.38705,-2.97626,0.36891,0.77733
533.542,26.40952,-2.97655,0.36721,0.77683
534.242,26.43195,-2.97784,0.36614,0.77633
534.942,26.4544,-2.97787,0.36542,0.77582
535.642,26.47685,-2.97785,0.36554,0.77532
536.342,26.4994,-2.97928,0.36856,0.77481
537.042,26.5219,-2.98022,0.36561,0.77431
537.742,26.54438,-2.98068,0.36563,0.77381
538.442,26.56683,-2.98203,0.36943,0.7733
539.142,26.58936,-2.98106,0.37037,0.7728
539.842,26.6119,-2.98198,0.36962,0.77229
540.542,26.6344,-2.98262,0.36941,0.77179
541.242,26.65689,-2.98404,0.3671,0.77128
541.942,26.6794,-2.98402,0.37191,0.77078
542.642,26.7018,-2.98538,0.37122,0.77027
543.342,26.72434,-2.98548,0.37437,0.76977
544.042,26.7469,-2.98687,0.37465,0.76926
544.742,26.76943,-2.98785,0.37418,0.76876
545.442,26.792,-2.98818,0.37666,0.76825
546.142,26.81444,-2.98818,0.37655,0.76774
546.842,26.83697,-2.98848,0.37792,0.76724
547.542,26.85956,-2.9895,0.37707,0.76673
548.242,26.8821,-2.9895,0.37699,0.76623
548.942,26.9047,-2.9903,0.38339,0.76572
549.642,26.92725,-2.9908,0.38015,0.76521
550.342,26.94981,-2.99242,0.38103,0.76471
551.042,26.9724,-2.99287,0.38326,0.7642
551.742,26.99492,-2.99389,0.38253,0.76369
552.442,27.0175,-2.99513,0.384,0.76319
553.142,27.0401,-2.9952,0.38141,0.76268
553.842,27.0628,-2.99654,0.38654,0.76217
554.542,27.08543,-2.9974,0.3871,0.76167
555.242,27.10813,-2.99783,0.38444,0.76116
555.942,27.13072,-2.99857,0.38318,0.76065
556.642,27.15335,-2.99915,0.38861,0.76014
557.342,27.176,-3.00017,0.38857,0.75964
558.042,27.19867,-3.00058,0.38691,0.75913
558.742,27.22134,-3.00278,0.38651,0.75862
559.442,27.2439,-3.0031,0.39036,0.75811
560.142,27.26662,-3.00409,0.38811,0.7576
560.842,27.2893,-3.00507,0.38816,0.7571
561.542,27.31193,-3.0054,0.38522,0.75659
562.242,27.33462,-3.00541,0.38786,0.75608
562.942,27.3573,-3.00652,0.39,0.75557
563.642,27.38012,-3.00672,0.38735,0.75506
564.342,27.40281,-3.00693,0.38788,0.75455
565.042,27.42545,-3.00804,0.38826,0.75404
565.742,27.4481,-3.00807,0.38844,0.75353
566.442,27.47082,-3.00936,0.38542,0.75302
567.142,27.49353,-3.0097,0.38683,0.75252
567.842,27.5162,-3.01076,0.38722,0.75201
568.542,27.539,-3.01228,0.38663,0.7515
569.242,27.5617,-3.01235,0.3844,0.75099
569.942,27.58418,-3.01364,0.38726,0.75048
570.642,27.6069,-3.01363,0.3843,0.74997
571.342,27.62971,-3.015,0.38308,0.74946
572.042,27.6527,-3.01495,0.38503,0.74895
572.742,27.67554,-3.01417,0.3841,0.74844
573.442,27.6982,-3.01504,0.37782,0.74793
574.142,27.72083,-3.01611,0.37874,0.74742
574.842,27.74353,-3.01637,0.37915,0.74691
575.542,27.76622,-3.01636,0.37871,0.7464
576.242,27.78896,-3.0177,0.37641,0.74588
576.942,27.8117,-3.01897,0.37522,0.74537
577.642,27.8346,-3.01982,0.3768,0.74486
578.342,27.8575,-3.02034,0.37315,0.74435
579.042,27.8803,-3.02177,0.37253,0.74384
579.742,27.9032,-3.02047,0.37364,0.74333
580.442,27.92597,-3.02197,0.37268,0.74282
581.142,27.94887,-3.02197,0.36828,0.74231
581.842,27.97192,-3.02319,0.37067,0.74179
582.542,27.99499,-3.02328,0.36966,0.74128
583.242,28.018,-3.02581,0.36763,0.74077
583.942,28.0407,-3.02603,0.36952,0.74026
584.642,28.0635,-3.02709,0.36668,0.73975
585.342,28.0863,-3.02734,0.36471,0.73924
586.042,28.10923,-3.02727,0.36382,0.73872
586.742,28.13216,-3.02602,0.36323,0.73821
587.442,28.1551,-3.02714,0.36151,0.7377
588.142,28.17795,-3.02734,0.36178,0.73719
588.842,28.20076,-3.02809,0.36328,0.73667
589.542,28.2235,-3.02866,0.35897,0.73616
590.242,28.24646,-3.02962,0.35931,0.73565
590.942,28.2694,-3.02997,0.36023,0.73513
591.642,28.29236,-3.02997,0.35821,0.73462
592.342,28.31529,-3.03087,0.35989,0.73411
593.042,28.33819,-3.0313,0.35976,0.73359
593.742,28.3611,-3.03236,0.36034,0.73308
594.442,28.38403,-3.0326,0.35609,0.73257
595.142,28.407,-3.03296,0.35826,0.73205
595.842,28.43,-3.0346,0.35228,0.73154
596.542,28.45293,-3.03458,0.35541,0.73103
597.242,28.4759,-3.03465,0.35681,0.73051
597.942,28.4988,-3.03591,0.35553,0.73
598.642,28.5217,-3.036,0.35412,0.72948
599.342,28.5445,-3.0372,0.35332,0.72897
600.042,28.56747,-3.03721,0.35462,0.72846
600.742,28.59042,-3.03844,0.35183,0.72794
601.442,28.6134,-3.03853,0.35042,0.72743
602.142,28.6364,-3.03915,0.35077,0.72691
602.842,28.65932,-3.03995,0.35045,0.7264
603.542,28.6822,-3.04093,0.35126,0.72588
604.242,28.70519,-3.04028,0.35036,0.72537
604.942,28.7282,-3.04139,0.35323,0.72485
605.642,28.75123,-3.04161,0.35306,0.72434
606.342,28.77422,-3.04294,0.35106,0.72382
607.042,28.7972,-3.04291,0.35052,0.72331
607.742,28.8202,-3.04291,0.35101,0.72279
608.442,28.8432,-3.04316,0.3498,0.72228
609.142,28.8662,-3.04423,0.34694,0.72176
609.842,28.8892,-3.04423,0.34847,0.72125
610.542,28.9121,-3.04446,0.35091,0.72073
611.242,28.9349,-3.04554,0.34912,0.72021
611.942,28.95787,-3.04633,0.34597,0.7197
612.642,28.9809,-3.04686,0.34624,0.71918
613.342,29.00409,-3.04811,0.34388,0.71867
614.042,29.02712,-3.04818,0.3448,0.71815
614.742,29.0502,-3.04939,0.34731,0.71763
615.442,29.0732,-3.04949,0.34314,0.71712
616.142,29.09613,-3.04949,0.34516,0.7166
616.842,29.11911,-3.05004,0.34344,0.71608
617.542,29.14215,-3.05081,0.3426,0.71557
618.242,29.1652,-3.05077,0.33936,0.71505
618.942,29.1883,-3.05212,0.34235,0.71453
619.642,29.2113,-3.05298,0.34129,0.71402
620.342,29.23433,-3.05365,0.34179,0.7135
621.042,29.25736,-3.05514,0.34051,0.71298
621.742,29.2804,-3.05509,0.34102,0.71246
622.442,29.3033,-3.05574,0.33989,0.71195
623.142,29.3263,-3.0564,0.34079,0.71143
623.842,29.34924,-3.0564,0.33871,0.71091
624.542,29.37238,-3.0564,0.33742,0.71039
625.242,29.39547,-3.05639,0.3386,0.70988
625.942,29.41858,-3.05769,0.33713,0.70936
626.642,29.4416,-3.05736,0.33569,0.70884
627.342,29.46465,-3.0578,0.33496,0.70832
628.042,29.48772,-3.05871,0.33386,0.7078
628.742,29.5109,-3.05906,0.33583,0.70729
629.442,29.5339,-3.06002,0.33409,0.70677
630.142,29.55697,-3.06002,0.33152,0.70625
630.842,29.57998,-3.06101,0.33292,0.70573
631.542,29.60302,-3.06134,0.33156,0.70521
632.242,29.62613,-3.06133,0.33278,0.70469
632.942,29.64922,-3.06267,0.33295,0.70418
633.642,29.6723,-3.06207,0.32989,0.70366
634.342,29.69538,-3.06313,0.33086,0.70314
635.042,29.7184,-3.06331,0.33022,0.70262
635.742,29.7415,-3.06331,0.32949,0.7021
636.442,29.7646,-3.0641,0.33202,0.70158
637.142,29.7877,-3.06463,0.33175,0.70106
637.842,29.8107,-3.06464,0.32928,0.70054
638.542,29.8337,-3.06596,0.33346,0.70002
639.242,29.8568,-3.06592,0.32589,0.6995
639.942,29.8799,-3.06737,0.3272,0.69898
640.642,29.903,-3.06737,0.32948,0.69846
641.342,29.926,-3.0683,0.3257,0.69794
642.042,29.94908,-3.06869,0.32369,0.69742
642.742,29.9721,-3.06869,0.32448,0.6969
643.442,29.99529,-3.06869,0.32305,0.69638
644.142,30.0184,-3.0687,0.3222,0.69586
644.842,30.04154,-3.07017,0.32136,0.69534
645.542,30.06461,-3.07011,0.32317,0.69482
646.242,30.0876,-3.07089,0.32024,0.6943
646.942,30.1106,-3.07143,0.32137,0.69378
647.642,30.1338,-3.07143,0.3203,0.69326
648.342,30.1568,-3.07264,0.31774,0.69274
649.042,30.18015,-3.07274,0.32054,0.69222
649.742,30.2032,-3.07274,0.31725,0.6917
650.442,30.2264,-3.07274,0.31641,0.69118
651.142,30.2495,-3.07393,0.31789,0.69066
651.842,30.27266,-3.07406,0.3187,0.69014
652.542,30.2958,-3.07406,0.31366,0.68962
653.242,30.31885,-3.07457,0.31572,0.68909
653.942,30.34198,-3.0755,0.31509,0.68857
654.642,30.3651,-3.07619,0.3185,0.68805
655.342,30.3882,-3.07626,0.31431,0.68753
656.042,30.4113,-3.07626,0.31477,0.68701
656.742,30.43443,-3.07626,0.314,0.68649
657.442,30.45757,-3.07626,0.31236,0.68597
658.142,30.4807,-3.0763,0.31169,0.68544
658.842,30.50388,-3.07723,0.31432,0.68492
659.542,30.527,-3.07879,0.31188,0.6844
660.242,30.55015,-3.07873,0.31341,0.68388
660.942,30.57333,-3.0801,0.31175,0.68336
661.642,30.59647,-3.0801,0.31286,0.68283
662.342,30.6196,-3.0801,0.31229,0.68231
663.042,30.64272,-3.0803,0.30875,0.68179
663.742,30.6658,-3.08142,0.31026,0.68127
664.442,30.68895,-3.08142,0.31321,0.68075
665.142,30.7121,-3.08142,0.30806,0.68022
665.842,30.73525,-3.08231,0.313,0.6797
666.542,30.7584,-3.08273,0.31079,0.67918
667.242,30.78155,-3.08205,0.3125,0.67865
667.942,30.80462,-3.08285,0.31398,0.67813
668.642,30.8278,-3.08274,0.30962,0.67761
669.342,30.85091,-3.08273,0.31326,0.67709
670.042,30.874,-3.08378,0.31191,0.67656
670.742,30.89718,-3.08405,0.31398,0.67604
671.442,30.9203,-3.08405,0.31306,0.67552
672.142,30.9435,-3.08405,0.31595,0.67499
672.842,30.96665,-3.08437,0.31352,0.67447
673.542,30.98984,-3.08537,0.31134,0.67395
674.242,31.01295,-3.08666,0.31324,0.67342
674.942,31.03606,-3.08668,0.31498,0.6729
675.642,31.05923,-3.08668,0.31431,0.67238
676.342,31.0824,-3.08667,0.31266,0.67185
677.042,31.1057,-3.08797,0.31355,0.67133
677.742,31.1288,-3.08799,0.31289,0.67081
678.442,31.15186,-3.08797,0.31083,0.67028
679.142,31.175,-3.08933,0.31211,0.66976
679.842,31.1981,-3.08931,0.3131,0.66923
680.542,31.22121,-3.08931,0.31217,0.66871
681.242,31.24434,-3.08931,0.31109,0.66819
681.942,31.2676,-3.08972,0.31408,0.66766
682.642,31.29075,-3.09063,0.31511,0.66714
683.342,31.31395,-3.09063,0.31459,0.66661
684.042,31.33708,-3.09063,0.30993,0.66609
684.742,31.36031,-3.09063,0.31424,0.66556
685.442,31.3834,-3.09132,0.31228,0.66504
686.142,31.40666,-3.09062,0.31264,0.66451
686.842,31.42983,-3.09062,0.31253,0.66399
687.542,31.45307,-3.09061,0.3146,0.66347
688.242,31.47628,-3.09193,0.31363,0.66294
688.942,31.49946,-3.09194,0.31352,0.66242
689.642,31.52257,-3.09194,0.31709,0.66189
690.342,31.54573,-3.09194,0.31396,0.66137
691.042,31.5689,-3.09191,0.31419,0.66084
691.742,31.5921,-3.09328,0.31619,0.66032
692.442,31.6152,-3.09326,0.31651,0.65979
693.142,31.6384,-3.09326,0.31923,0.65927
693.842,31.6615,-3.09435,0.31574,0.65874
694.542,31.68467,-3.09457,0.31632,0.65821
695.242,31.70788,-3.09457,0.31752,0.65769
695.942,31.7311,-3.09457,0.31677,0.65716
696.642,31.7543,-3.09457,0.31484,0.65664
697.342,31.77755,-3.09457,0.31576,0.65611
698.042,31.80082,-3.09497,0.31975,0.65559
698.742,31.82406,-3.09589,0.32105,0.65506
699.442,31.84729,-3.09589,0.31956,0.65454
700.142,31.87055,-3.09584,0.32049,0.65401
700.842,31.89375,-3.0972,0.3215,0.65348
701.542,31.9169,-3.0972,0.32503,0.65296
702.242,31.94022,-3.09789,0.32119,0.65243
702.942,31.9634,-3.09852,0.32624,0.65191
703.642,31.9866,-3.09852,0.32254,0.65138
704.342,32.00985,-3.09852,0.32578,0.65085
705.042,32.0332,-3.09852,0.32399,0.65033
705.742,32.0565,-3.09916,0.32891,0.6498
706.442,32.07974,-3.09984,0.32782,0.64927
707.142,32.10298,-3.09984,0.33086,0.64875
707.842,32.1263,-3.09984,0.32453,0.64822
708.542,32.14947,-3.09984,0.32805,0.6477
709.242,32.17279,-3.10042,0.327,0.64717
709.942,32.1961,-3.10115,0.32874,0.64664
710.642,32.2194,-3.10116,0.33068,0.64612
711.342,32.2427,-3.10256,0.32763,0.64559
712.042,32.26598,-3.10115,0.32864,0.64506
712.742,32.2893,-3.10116,0.33124,0.64454
713.442,32.31268,-3.10116,0.33254,0.64401
714.142,32.33592,-3.10233,0.33404,0.64348
714.842,32.3592,-3.10247,0.33197,0.64295
715.542,32.3824,-3.10247,0.3322,0.64243
716.242,32.40568,-3.10247,0.3302,0.6419
716.942,32.42901,-3.10253,0.33481,0.64137
717.642,32.4523,-3.10379,0.33218,0.64085
718.342,32.4756,-3.10377,0.33374,0.64032
719.042,32.49889,-3.10508,0.33509,0.63979
719.742,32.52219,-3.1051,0.33171,0.63926
720.442,32.54544,-3.1051,0.3372,0.63874
721.142,32.56868,-3.10513,0.3367,0.63821
721.842,32.59198,-3.10377,0.33761,0.63768
722.542,32.61531,-3.10384,0.337,0.63715
723.242,32.6387,-3.10512,0.33633,0.63663
723.942,32.66207,-3.10511,0.33906,0.6361
724.642,32.68538,-3.10511,0.34264,0.63557
725.342,32.70868,-3.1051,0.34485,0.63504
726.042,32.732,-3.10639,0.34279,0.63452
726.742,32.75533,-3.10642,0.34289,0.63399
727.442,32.7787,-3.10642,0.34268,0.63346
728.142,32.80206,-3.10642,0.34332,0.63293
728.842,32.82537,-3.10642,0.3423,0.6324
729.542,32.8487,-3.10733,0.34006,0.63188
730.242,32.87209,-3.10774,0.34453,0.63135
730.942,32.89552,-3.10828,0.34244,0.63082
731.642,32.9189,-3.10906,0.34289,0.63029
732.342,32.94222,-3.10906,0.34426,0.62976
733.042,32.9655,-3.10906,0.34357,0.62924
733.742,32.9888,-3.10907,0.34308,0.62871
734.442,33.0122,-3.1103,0.34412,0.62818
735.142,33.03565,-3.10982,0.34342,0.62765
735.842,33.059,-3.10905,0.34268,0.62712
736.542,33.08208,-3.1091,0.34734,0.62659
737.242,33.1053,-3.11038,0.34842,0.62607
737.942,33.12849,-3.11037,0.35009,0.62554
738.642,33.15209,-3.11037,0.35009,0.62501
739.342,33.17544,-3.11037,0.35097,0.62448
740.042,33.19898,-3.11062,0.34769,0.62395
740.742,33.22235,-3.11168,0.34784,0.62342
741.442,33.24559,-3.11168,0.34506,0.62289
742.142,33.26899,-3.11168,0.34847,0.62237
742.842,33.29233,-3.11167,0.34829,0.62184
743.542,33.31584,-3.11302,0.34991,0.62131
744.242,33.33919,-3.113,0.34749,0.62078
744.942,33.36257,-3.113,0.34906,0.62025
745.642,33.38593,-3.113,0.34849,0.61972
746.342,33.40932,-3.113,0.35202,0.61919
747.042,33.4327,-3.11301,0.34856,0.61866
747.742,33.45609,-3.11437,0.3481,0.61814
748.442,33.4794,-3.11432,0.35171,0.61761
749.142,33.5028,-3.11432,0.35097,0.61708
749.842,33.52612,-3.11432,0.34438,0.61655
750.542,33.5494,-3.11433,0.35005,0.61602
751.242,33.57274,-3.1156,0.34668,0.61549
751.942,33.5961,-3.11563,0.34673,0.61496
752.642,33.61943,-3.11563,0.34525,0.61443
753.342,33.64275,-3.11623,0.34521,0.6139
754.042,33.6661,-3.11697,0.34594,0.61337
754.742,33.68936,-3.11565,0.34011,0.61284
755.442,33.7127,-3.11564,0.3474,0.61231
756.142,33.7361,-3.11585,0.34819,0.61179
756.842,33.75954,-3.11696,0.34329,0.61126
757.542,33.78297,-3.11696,0.34868,0.61073
758.242,33.80632,-3.11696,0.34317,0.6102
758.942,33.82972,-3.11696,0.34603,0.60967
759.642,33.85309,-3.11696,0.34429,0.60914
760.342,33.87634,-3.1175,0.34164,0.60861
761.042,33.89965,-3.11761,0.34178,0.60808
761.742,33.92302,-3.11761,0.34291,0.60755
762.442,33.94658,-3.11761,0.34096,0.60702
763.142,33.96999,-3.11756,0.34031,0.60649
763.842,33.99337,-3.11893,0.34122,0.60596
764.542,34.01677,-3.11893,0.34183,0.60543
765.242,34.04013,-3.11893,0.33891,0.6049
765.942,34.0635,-3.11893,0.33745,0.60437
766.642,34.08688,-3.11893,0.33752,0.60384
767.342,34.11032,-3.11893,0.33717,0.60331
768.042,34.13368,-3.11895,0.3366,0.60278
768.742,34.15703,-3.12132,0.33662,0.60225
769.442,34.1804,-3.12155,0.33588,0.60172
770.142,34.2039,-3.1216,0.33432,0.60119
770.842,34.22733,-3.12064,0.33765,0.60066
771.542,34.25076,-3.12156,0.33908,0.60013
772.242,34.27422,-3.12156,0.34127,0.5996
772.942,34.29764,-3.12156,0.34168,0.59907
773.642,34.3211,-3.12157,0.33906,0.59854
774.342,34.34453,-3.12088,0.33819,0.59801
775.042,34.368,-3.1209,0.33699,0.59748
775.742,34.39135,-3.1209,0.33656,0.59695
776.442,34.41476,-3.1209,0.33377,0.59642
777.142,34.43817,-3.1209,0.33694,0.59589
777.842,34.46162,-3.12204,0.33798,0.59536
778.542,34.48507,-3.12234,0.33537,0.59483
779.242,34.5086,-3.1237,0.33717,0.5943
779.942,34.53198,-3.12297,0.33035,0.59377
780.642,34.55536,-3.12303,0.33271,0.59324
781.342,34.5788,-3.12431,0.33273,0.59271
782.042,34.60229,-3.1243,0.33188,0.59218
782.742,34.62587,-3.1243,0.33105,0.59165
783.442,34.6494,-3.12426,0.33018,0.59112
784.142,34.6728,-3.12563,0.33225,0.59059
784.842,34.69618,-3.12562,0.3325,0.59006
785.542,34.7196,-3.12562,0.33277,0.58953
786.242,34.74304,-3.12562,0.33177,0.589
786.942,34.76654,-3.12562,0.33577,0.58847
787.642,34.7901,-3.12589,0.334,0.58794
788.342,34.8136,-3.12693,0.33377,0.58741
789.042,34.83698,-3.12693,0.33172,0.58688
789.742,34.86045,-3.12693,0.33472,0.58635
790.442,34.88388,-3.12693,0.33622,0.58582
791.142,34.9073,-3.12693,0.3303,0.58529
791.842,34.93079,-3.12752,0.33346,0.58476
792.542,34.95427,-3.12694,0.33222,0.58423
793.242,34.97773,-3.12694,0.33535,0.5837
793.842,34.99785,-3.12694,0.32825,0.58325