File: 01_Data/Cedar_Shingle/STA/N2/30K_min/Cedar_Shingle_STA_N2_30KData_220405_R3.csv
##Temp./Â°C,Time/min,Mass loss(subtr.2)/mg,DSC(subtr.2)/(mW/mg),Sensit./(uV/mW)
48.484,10.00667,-0.02863,0.01969332,1.07506
49.184,10.55878,-0.02920946,0.06947583,1.07476
49.884,10.68501,-0.02883012,0.10755,1.07445
50.584,10.773,-0.02820832,0.1435,1.07414
51.284,10.84816,-0.02938726,0.17673,1.07383
51.984,10.9115,-0.02927998,0.20664,1.07352
52.684,10.9681,-0.02838641,0.23117,1.07321
53.384,11.01967,-0.02885726,0.25908,1.0729
54.084,11.06789,-0.0290372,0.28421,1.07258
54.784,11.1129,-0.02974266,0.30847,1.07227
55.484,11.15577,-0.02809267,0.32966,1.07196
56.184,11.19651,-0.02849454,0.35093,1.07164
56.884,11.2354,-0.02881809,0.37122,1.07133
57.584,11.27317,-0.02927429,0.3908,1.07102
58.284,11.30975,-0.02990668,0.40886,1.0707
58.984,11.34496,-0.02908188,0.42419,1.07038
59.684,11.37925,-0.02800331,0.44,1.07007
60.384,11.4128,-0.02911595,0.45991,1.06975
61.084,11.44558,-0.03064068,0.47752,1.06943
61.784,11.47767,-0.02948477,0.4912,1.06912
62.484,11.50923,-0.03021244,0.5071,1.0688
63.184,11.54018,-0.03104167,0.51884,1.06848
63.884,11.57049,-0.03180925,0.53561,1.06816
64.584,11.60032,-0.03300181,0.54879,1.06784
65.284,11.62975,-0.03176681,0.56259,1.06752
65.984,11.65894,-0.03186514,0.57516,1.0672
66.684,11.6876,-0.03168909,0.58767,1.06687
67.384,11.7158,-0.03196541,0.60176,1.06655
68.084,11.7436,-0.03247802,0.61306,1.06623
68.784,11.77145,-0.03124061,0.62346,1.06591
69.484,11.79932,-0.03088401,0.63551,1.06558
70.184,11.8269,-0.03173505,0.64736,1.06526
70.884,11.85413,-0.03356134,0.65605,1.06493
71.584,11.88114,-0.03357023,0.67102,1.06461
72.284,11.90783,-0.03341794,0.68155,1.06428
72.984,11.93442,-0.03296591,0.68979,1.06395
73.684,11.961,-0.03335066,0.70186,1.06363
74.384,11.98739,-0.03333157,0.71287,1.0633
75.084,12.0136,-0.03305408,0.72404,1.06297
75.784,12.0398,-0.03289533,0.73392,1.06264
76.484,12.06592,-0.033514,0.74142,1.06231
77.184,12.09206,-0.03404558,0.75284,1.06199
77.884,12.11797,-0.03473318,0.76213,1.06165
78.584,12.14348,-0.03401545,0.76992,1.06132
79.284,12.16891,-0.03337963,0.78189,1.06099
79.984,12.1943,-0.03446334,0.79187,1.06066
80.684,12.2196,-0.03497223,0.79912,1.06033
81.384,12.2448,-0.03522924,0.80843,1.06
82.084,12.2699,-0.03501097,0.81859,1.05966
82.784,12.29495,-0.0361231,0.82756,1.05933
83.484,12.3199,-0.03674601,0.83622,1.059
84.184,12.3447,-0.03801754,0.84515,1.05866
84.884,12.36938,-0.03796367,0.85536,1.05833
85.584,12.394,-0.03818729,0.86409,1.05799
86.284,12.4186,-0.03822363,0.86936,1.05765
86.984,12.44311,-0.03696854,0.87884,1.05732
87.684,12.46751,-0.03828268,0.88764,1.05698
88.384,12.49185,-0.03823211,0.89319,1.05664
89.084,12.5161,-0.03829353,0.89928,1.0563
89.784,12.54031,-0.0392961,0.90835,1.05597
90.484,12.56452,-0.03960186,0.91727,1.05563
91.184,12.58882,-0.03974819,0.92029,1.05529
91.884,12.61298,-0.04091974,0.92927,1.05495
92.584,12.637,-0.03980566,0.93485,1.05461
93.284,12.661,-0.04093332,0.94234,1.05426
93.984,12.68502,-0.04093199,0.9479,1.05392
94.684,12.709,-0.04228191,0.95291,1.05358
95.384,12.73288,-0.04223023,0.95837,1.05324
96.084,12.7568,-0.04250537,0.96101,1.05289
96.784,12.78058,-0.04355163,0.9678,1.05255
97.484,12.80441,-0.04354995,0.97202,1.05221
98.184,12.82805,-0.04355003,0.97648,1.05186
98.884,12.85188,-0.04354685,0.9786,1.05152
99.584,12.87556,-0.04448039,0.98194,1.05117
100.284,12.8993,-0.04486058,0.98493,1.05083
100.984,12.92296,-0.04481828,0.98799,1.05048
101.684,12.94669,-0.04628967,0.99116,1.05013
102.384,12.97035,-0.0462555,0.99461,1.04978
103.084,12.99392,-0.04662114,0.99325,1.04944
103.784,13.0175,-0.04661996,0.99526,1.04909
104.484,13.04111,-0.04661956,0.99896,1.04874
105.184,13.06462,-0.04680016,0.99986,1.04839
105.884,13.08808,-0.0479277,0.99988,1.04804
106.584,13.11156,-0.04875285,1.00137,1.04769
107.284,13.13516,-0.04925125,1.00076,1.04734
107.984,13.15887,-0.04925001,1.00061,1.04699
108.684,13.18244,-0.04925378,1.00209,1.04664
109.384,13.2059,-0.05017399,0.99923,1.04628
110.084,13.2294,-0.05057136,0.99943,1.04593
110.784,13.25288,-0.05057,0.99878,1.04558
111.484,13.27639,-0.05057,0.99749,1.04522
112.184,13.2996,-0.05056999,0.9967,1.04487
112.884,13.323,-0.05056673,0.9937,1.04452
113.584,13.34634,-0.05118987,0.99356,1.04416
114.284,13.36984,-0.05213988,0.98995,1.04381
114.984,13.3932,-0.05320962,0.98911,1.04345
115.684,13.41664,-0.05321025,0.98713,1.04309
116.384,13.44,-0.05321015,0.98574,1.04274
117.084,13.4633,-0.05453771,0.98068,1.04238
117.784,13.48647,-0.05451998,0.97859,1.04202
118.484,13.50968,-0.05452,0.97694,1.04166
119.184,13.53295,-0.05452,0.97634,1.04131
119.884,13.55625,-0.05452031,0.9756,1.04095
120.584,13.57957,-0.05451343,0.97361,1.04059
121.284,13.6027,-0.05584617,0.97215,1.04023
121.984,13.62601,-0.05640797,0.9699,1.03987
122.684,13.64914,-0.05658762,0.96823,1.03951
123.384,13.6723,-0.05584161,0.96612,1.03914
124.084,13.69506,-0.05584004,0.96632,1.03878
124.784,13.7179,-0.05583861,0.96348,1.03842
125.484,13.7407,-0.05623373,0.96282,1.03806
126.184,13.7637,-0.05714556,0.96003,1.0377
126.884,13.78674,-0.05715,0.96036,1.03733
127.584,13.8098,-0.05715,0.96049,1.03697
128.284,13.83279,-0.05715,0.95835,1.0366
128.984,13.8558,-0.05715023,0.95696,1.03624
129.684,13.87865,-0.05713659,0.95804,1.03587
130.384,13.9015,-0.05812565,0.95882,1.03551
131.084,13.92435,-0.05814029,0.9572,1.03514
131.784,13.9472,-0.05814182,0.95648,1.03478
132.484,13.9699,-0.05918323,0.95651,1.03441
133.184,13.9926,-0.05946545,0.95862,1.03404
133.884,14.0154,-0.05977083,0.95753,1.03367
134.584,14.03771,-0.05978003,0.95666,1.0333
135.284,14.06006,-0.05977974,0.95872,1.03294
135.984,14.0826,-0.06095376,0.95815,1.03257
136.684,14.1054,-0.06133186,0.96068,1.0322
137.384,14.1284,-0.06241533,0.95975,1.03183
138.084,14.1511,-0.06242006,0.96365,1.03146
138.784,14.1738,-0.06241994,0.96237,1.03109
139.484,14.19625,-0.0624421,0.9627,1.03072
140.184,14.2187,-0.06175041,0.96491,1.03034
140.884,14.24126,-0.06175937,0.9678,1.02997
141.584,14.2638,-0.06189316,0.96715,1.0296
142.284,14.28635,-0.06307155,0.96847,1.02923
142.984,14.30899,-0.06307992,0.97199,1.02885
143.684,14.3316,-0.06427867,0.97109,1.02848
144.384,14.35416,-0.06438964,0.97533,1.02811
145.084,14.3765,-0.06434312,0.97797,1.02773
145.784,14.39877,-0.06572854,0.97968,1.02736
146.484,14.42102,-0.06571018,0.98217,1.02698
147.184,14.44328,-0.06570998,0.98327,1.0266
147.884,14.4656,-0.0657107,0.98713,1.02623
148.584,14.4879,-0.06578351,0.98926,1.02585
149.284,14.5101,-0.06700775,0.99004,1.02547
149.984,14.5324,-0.06701919,0.99283,1.0251
150.684,14.55454,-0.06746304,0.99341,1.02472
151.384,14.5767,-0.06899096,0.99854,1.02434
152.084,14.59886,-0.06964837,1.00087,1.02396
152.784,14.621,-0.06964998,1.00335,1.02358
153.484,14.6432,-0.06965001,1.00554,1.0232
154.184,14.6655,-0.0696498,1.00766,1.02282
154.884,14.6876,-0.06963626,1.01157,1.02244
155.584,14.70974,-0.07102076,1.01377,1.02206
156.284,14.7318,-0.07096945,1.01618,1.02168
156.984,14.7537,-0.07096829,1.01748,1.0213
157.684,14.77578,-0.07212392,1.02035,1.02092
158.384,14.7979,-0.07228326,1.02444,1.02054
159.084,14.82003,-0.07195899,1.02795,1.02015
159.784,14.8421,-0.07313371,1.03,1.01977
160.484,14.86409,-0.07339169,1.033,1.01939
161.184,14.88614,-0.0733904,1.03706,1.019
161.884,14.90821,-0.07348712,1.03652,1.01862
162.584,14.9303,-0.07469771,1.0391,1.01824
163.284,14.95227,-0.07471013,1.04127,1.01785
163.984,14.9743,-0.07471374,1.04271,1.01746
164.684,14.99629,-0.07571876,1.04482,1.01708
165.384,15.0182,-0.07683371,1.04755,1.01669
166.084,15.0401,-0.07733031,1.05007,1.01631
166.784,15.06201,-0.07785066,1.05148,1.01592
167.484,15.0839,-0.07869816,1.05568,1.01553
168.184,15.1058,-0.07732707,1.05854,1.01514
168.884,15.12764,-0.07733983,1.06132,1.01476
169.584,15.1495,-0.07734006,1.06212,1.01437
170.284,15.17133,-0.07733657,1.06454,1.01398
170.984,15.1933,-0.07799158,1.06809,1.01359
171.684,15.2151,-0.0787634,1.06923,1.0132
172.384,15.2369,-0.07888061,1.07208,1.01281
173.084,15.25865,-0.08008739,1.07453,1.01242
173.784,15.2804,-0.08007842,1.07767,1.01203
174.484,15.30224,-0.08112159,1.08055,1.01164
175.184,15.3241,-0.0810075,1.0821,1.01125
175.884,15.3459,-0.08239127,1.08569,1.01086
176.584,15.36761,-0.08237921,1.0875,1.01046
177.284,15.38931,-0.08256897,1.0913,1.01007
177.984,15.4109,-0.0836796,1.09346,1.00968
178.684,15.43255,-0.08369288,1.09804,1.00928
179.384,15.4543,-0.08475414,1.09941,1.00889
180.084,15.47599,-0.08501879,1.10072,1.0085
180.784,15.4977,-0.08537,1.10386,1.0081
181.484,15.5193,-0.08626491,1.10448,1.00771
182.184,15.5408,-0.08666085,1.10789,1.00731
182.884,15.5624,-0.0866472,1.11007,1.00692
183.584,15.58395,-0.08789003,1.11227,1.00652
184.284,15.6055,-0.08797048,1.11507,1.00612
184.984,15.62704,-0.08797,1.11834,1.00573
185.684,15.6486,-0.0879706,1.11839,1.00533
186.384,15.6702,-0.08792008,1.12317,1.00493
187.084,15.69174,-0.0893147,1.12347,1.00454
187.784,15.7133,-0.08929004,1.12925,1.00414
188.484,15.7348,-0.08937819,1.13148,1.00374
189.184,15.7562,-0.09058634,1.13388,1.00334
189.884,15.77772,-0.09061387,1.13645,1.00294
190.584,15.7991,-0.09187051,1.13618,1.00254
191.284,15.8205,-0.0919196,1.14085,1.00214
191.984,15.8419,-0.09191987,1.14334,1.00174
192.684,15.86329,-0.09193282,1.14583,1.00134
193.384,15.88471,-0.09310895,1.15001,1.00094
194.084,15.9062,-0.0932405,1.15274,1.00054
194.784,15.9276,-0.09324371,1.15501,1.00014
195.484,15.94905,-0.09418405,1.15738,0.99974
196.184,15.97042,-0.09526262,1.15845,0.99933
196.884,15.9918,-0.09670007,1.16308,0.99893
197.584,16.01318,-0.09729724,1.16655,0.99853
198.284,16.03456,-0.09862353,1.16624,0.99813
198.984,16.05591,-0.09860958,1.17068,0.99772
199.684,16.0774,-0.09861505,1.17437,0.99732
200.384,16.0987,-0.09948019,1.17541,0.99691
201.084,16.12,-0.09993,1.17751,0.99651
201.784,16.14132,-0.10001,1.18104,0.9961
202.484,16.16266,-0.10025,1.18172,0.9957
203.184,16.18404,-0.09993243,1.18538,0.99529
203.884,16.20541,-0.1008,1.18641,0.99489
204.584,16.2268,-0.10124,1.19126,0.99448
205.284,16.24804,-0.10141,1.19474,0.99407
205.984,16.26936,-0.10385,1.19608,0.99367
206.684,16.29062,-0.10389,1.19964,0.99326
207.384,16.31203,-0.10512,1.20213,0.99285
208.084,16.33334,-0.1052,1.20616,0.99244
208.784,16.35474,-0.10665,1.20561,0.99204
209.484,16.37601,-0.10663,1.21152,0.99163
210.184,16.39723,-0.10773,1.21182,0.99122
210.884,16.41853,-0.10795,1.21362,0.99081
211.584,16.43979,-0.10935,1.21866,0.9904
212.284,16.46112,-0.10943,1.22132,0.98999
212.984,16.48249,-0.11066,1.22463,0.98958
213.684,16.50375,-0.11099,1.22664,0.98917
214.384,16.52505,-0.11199,1.22866,0.98876
215.084,16.54637,-0.1123,1.23242,0.98835
215.784,16.56764,-0.11352,1.23623,0.98793
216.484,16.58895,-0.11474,1.23962,0.98752
217.184,16.61016,-0.11474,1.24134,0.98711
217.884,16.6314,-0.11472,1.24391,0.9867
218.584,16.65267,-0.11604,1.24903,0.98628
219.284,16.6739,-0.11605,1.25108,0.98587
219.984,16.69519,-0.11697,1.2549,0.98546
220.684,16.7165,-0.11744,1.25889,0.98504
221.384,16.73775,-0.11907,1.26241,0.98463
222.084,16.75899,-0.11899,1.26618,0.98421
222.784,16.78032,-0.12044,1.26829,0.9838
223.484,16.80161,-0.12132,1.26868,0.98338
224.184,16.82295,-0.12186,1.27311,0.98297
224.884,16.84415,-0.12318,1.27816,0.98255
225.584,16.86534,-0.12352,1.28004,0.98214
226.284,16.88658,-0.12472,1.28151,0.98172
226.984,16.90779,-0.12478,1.2864,0.9813
227.684,16.92892,-0.12611,1.2916,0.98089
228.384,16.95017,-0.12771,1.29452,0.98047
229.084,16.97126,-0.12796,1.29904,0.98005
229.784,16.99256,-0.12934,1.30195,0.97963
230.484,17.01377,-0.12934,1.30657,0.97922
231.184,17.03503,-0.13088,1.3086,0.9788
231.884,17.05634,-0.13241,1.31117,0.97838
232.584,17.07762,-0.13418,1.31661,0.97796
233.284,17.09885,-0.13545,1.3213,0.97754
233.984,17.12001,-0.13635,1.32503,0.97712
234.684,17.14112,-0.13778,1.32828,0.9767
235.384,17.16218,-0.13943,1.3294,0.97628
236.084,17.18323,-0.14079,1.33413,0.97586
236.784,17.20427,-0.14183,1.33607,0.97544
237.484,17.22545,-0.14293,1.34021,0.97502
238.184,17.2468,-0.14446,1.34469,0.97459
238.884,17.26817,-0.14602,1.34814,0.97417
239.584,17.28955,-0.14752,1.34832,0.97375
240.284,17.31079,-0.14855,1.35342,0.97333
240.984,17.332,-0.1495,1.35817,0.9729
241.684,17.3529,-0.15104,1.35982,0.97248
242.384,17.37411,-0.15283,1.36281,0.97206
243.084,17.3952,-0.15546,1.36494,0.97163
243.784,17.4165,-0.15723,1.37039,0.97121
244.484,17.4378,-0.15916,1.37332,0.97079
245.184,17.45895,-0.15967,1.37222,0.97036
245.884,17.4802,-0.16169,1.37717,0.96994
246.584,17.50142,-0.16345,1.38275,0.96951
247.284,17.52263,-0.16538,1.38518,0.96909
247.984,17.54384,-0.16689,1.38898,0.96866
248.684,17.56505,-0.16873,1.38989,0.96823
249.384,17.58619,-0.17067,1.39476,0.96781
250.084,17.60741,-0.17259,1.39753,0.96738
250.784,17.62865,-0.17412,1.40034,0.96695
251.484,17.6499,-0.17623,1.40332,0.96653
252.184,17.6711,-0.17873,1.40572,0.9661
252.884,17.69223,-0.18051,1.40835,0.96567
253.584,17.71336,-0.1823,1.4091,0.96524
254.284,17.73454,-0.18378,1.41296,0.96482
254.984,17.75575,-0.1859,1.41469,0.96439
255.684,17.77696,-0.18801,1.41832,0.96396
256.384,17.79814,-0.19062,1.41994,0.96353
257.084,17.8193,-0.19313,1.42208,0.9631
257.784,17.8404,-0.19638,1.42301,0.96267
258.484,17.86158,-0.19816,1.42337,0.96224
259.184,17.88279,-0.20021,1.42657,0.96181
259.884,17.90394,-0.20274,1.42748,0.96138
260.584,17.92501,-0.20383,1.42985,0.96095
261.284,17.9462,-0.20629,1.42853,0.96052
261.984,17.96729,-0.20838,1.43015,0.96009
262.684,17.98864,-0.21104,1.43139,0.95965
263.384,18.00981,-0.21441,1.43427,0.95922
264.084,18.031,-0.21825,1.43348,0.95879
264.784,18.0521,-0.22105,1.43446,0.95836
265.484,18.07333,-0.2241,1.43442,0.95792
266.184,18.09442,-0.227,1.43628,0.95749
266.884,18.1156,-0.22946,1.43546,0.95706
267.584,18.1368,-0.23192,1.43468,0.95662
268.284,18.15793,-0.23316,1.43365,0.95619
268.984,18.17914,-0.23638,1.43434,0.95576
269.684,18.20029,-0.24061,1.4333,0.95532
270.384,18.22145,-0.24432,1.43433,0.95489
271.084,18.24266,-0.24636,1.43577,0.95445
271.784,18.26384,-0.24931,1.43485,0.95402
272.484,18.28496,-0.25295,1.43257,0.95358
273.184,18.30611,-0.25638,1.43321,0.95315
273.884,18.32728,-0.26006,1.43274,0.95271
274.584,18.34843,-0.26443,1.43237,0.95227
275.284,18.36958,-0.26828,1.43154,0.95184
275.984,18.39072,-0.27199,1.42846,0.9514
276.684,18.4119,-0.27494,1.42737,0.95096
277.384,18.43313,-0.27867,1.42651,0.95053
278.084,18.4544,-0.28292,1.42673,0.95009
278.784,18.47561,-0.28623,1.42761,0.94965
279.484,18.49673,-0.29017,1.42363,0.94921
280.184,18.51785,-0.29465,1.42196,0.94877
280.884,18.53899,-0.2979,1.42324,0.94833
281.584,18.56018,-0.30145,1.4234,0.9479
282.284,18.5813,-0.30592,1.42151,0.94746
282.984,18.6025,-0.31054,1.41942,0.94702
283.684,18.62365,-0.31522,1.41971,0.94658
284.384,18.64479,-0.31946,1.41727,0.94614
285.084,18.666,-0.32406,1.41602,0.9457
285.784,18.68723,-0.3286,1.41278,0.94526
286.484,18.7085,-0.33204,1.41348,0.94482
287.184,18.72968,-0.33639,1.41048,0.94438
287.884,18.75085,-0.34176,1.41047,0.94393
288.584,18.772,-0.34623,1.40841,0.94349
289.284,18.7932,-0.35307,1.40585,0.94305
289.984,18.81437,-0.3574,1.4036,0.94261
290.684,18.83556,-0.36244,1.40458,0.94217
291.384,18.85673,-0.36726,1.40188,0.94172
292.084,18.87795,-0.37222,1.39753,0.94128
292.784,18.89912,-0.37807,1.39775,0.94084
293.484,18.9203,-0.38255,1.39529,0.9404
294.184,18.94145,-0.3881,1.39409,0.93995
294.884,18.96266,-0.39153,1.38916,0.93951
295.584,18.98389,-0.39702,1.38949,0.93906
296.284,19.00512,-0.40274,1.38734,0.93862
296.984,19.02636,-0.40731,1.38256,0.93818
297.684,19.04756,-0.41282,1.38272,0.93773
298.384,19.06879,-0.4176,1.38143,0.93729
299.084,19.08996,-0.42536,1.37896,0.93684
299.784,19.1112,-0.43126,1.37888,0.9364
300.484,19.13242,-0.43635,1.37455,0.93595
301.184,19.1536,-0.44266,1.37271,0.9355
301.884,19.17485,-0.44838,1.37321,0.93506
302.584,19.1961,-0.45512,1.36969,0.93461
303.284,19.2174,-0.46143,1.36919,0.93417
303.984,19.23864,-0.46562,1.36744,0.93372
304.684,19.25989,-0.47217,1.36686,0.93327
305.384,19.2809,-0.47745,1.36651,0.93282
306.084,19.30209,-0.48382,1.36676,0.93238
306.784,19.32328,-0.4899,1.36523,0.93193
307.484,19.34451,-0.49628,1.36452,0.93148
308.184,19.36595,-0.50344,1.36307,0.93103
308.884,19.38717,-0.50924,1.36238,0.93058
309.584,19.40844,-0.51786,1.36432,0.93013
310.284,19.42969,-0.52503,1.36198,0.92969
310.984,19.45091,-0.53217,1.36358,0.92924
311.684,19.4722,-0.53976,1.36437,0.92879
312.384,19.4934,-0.54594,1.36383,0.92834
313.084,19.51466,-0.55385,1.36402,0.92789
313.784,19.53585,-0.56082,1.36478,0.92744
314.484,19.55711,-0.56843,1.36498,0.92699
315.184,19.57835,-0.57477,1.36358,0.92654
315.884,19.59964,-0.58145,1.3653,0.92609
316.584,19.62097,-0.58941,1.36743,0.92563
317.284,19.6422,-0.59629,1.36644,0.92518
317.984,19.66347,-0.60455,1.3686,0.92473
318.684,19.68475,-0.61329,1.37023,0.92428
319.384,19.706,-0.62111,1.3711,0.92383
320.084,19.72727,-0.63124,1.37211,0.92338
320.784,19.7485,-0.63884,1.37537,0.92292
321.484,19.76979,-0.64761,1.37464,0.92247
322.184,19.7911,-0.65622,1.37757,0.92202
322.884,19.81239,-0.66384,1.37893,0.92156
323.584,19.8337,-0.6734,1.38323,0.92111
324.284,19.855,-0.68176,1.38527,0.92066
324.984,19.8763,-0.69178,1.38701,0.9202
325.684,19.8976,-0.70145,1.38962,0.91975
326.384,19.91883,-0.71052,1.39375,0.9193
327.084,19.94008,-0.72056,1.39641,0.91884
327.784,19.96136,-0.72927,1.4017,0.91839
328.484,19.98264,-0.73923,1.40587,0.91793
329.184,20.004,-0.74922,1.40705,0.91748
329.884,20.02541,-0.75865,1.41026,0.91702
330.584,20.0468,-0.76994,1.41508,0.91657
331.284,20.06811,-0.77918,1.41718,0.91611
331.984,20.08942,-0.79025,1.42516,0.91565
332.684,20.11076,-0.80155,1.42849,0.9152
333.384,20.13212,-0.81212,1.43108,0.91474
334.084,20.15346,-0.82492,1.43425,0.91428
334.784,20.17481,-0.83536,1.44237,0.91383
335.484,20.1962,-0.84771,1.44585,0.91337
336.184,20.21756,-0.85942,1.45061,0.91291
336.884,20.239,-0.87054,1.45372,0.91246
337.584,20.26042,-0.88352,1.46034,0.912
338.284,20.28183,-0.8947,1.4661,0.91154
338.984,20.30323,-0.90836,1.47067,0.91108
339.684,20.3246,-0.92195,1.47387,0.91062
340.384,20.346,-0.93417,1.4794,0.91016
341.084,20.3674,-0.94842,1.48651,0.90971
341.784,20.38881,-0.95991,1.49222,0.90925
342.484,20.41017,-0.97461,1.49835,0.90879
343.184,20.43156,-0.98956,1.50256,0.90833
343.884,20.45297,-1.00211,1.50587,0.90787
344.584,20.4743,-1.01546,1.51208,0.90741
345.284,20.49575,-1.02746,1.51702,0.90695
345.984,20.51717,-1.03992,1.52239,0.90649
346.684,20.5386,-1.05503,1.52595,0.90603
347.384,20.56008,-1.0683,1.53187,0.90557
348.084,20.58147,-1.08474,1.53658,0.90511
348.784,20.60296,-1.09878,1.54376,0.90464
349.484,20.62441,-1.11292,1.54988,0.90418
350.184,20.64595,-1.12804,1.55549,0.90372
350.884,20.66744,-1.14122,1.55972,0.90326
351.584,20.68896,-1.15765,1.5643,0.9028
352.284,20.71045,-1.17315,1.57033,0.90234
352.984,20.73198,-1.18904,1.57705,0.90187
353.684,20.75345,-1.20598,1.5832,0.90141
354.384,20.7749,-1.22035,1.59244,0.90095
355.084,20.79632,-1.23678,1.59788,0.90049
355.784,20.8178,-1.25158,1.60551,0.90002
356.484,20.83938,-1.26656,1.6107,0.89956
357.184,20.86092,-1.28425,1.61657,0.8991
357.884,20.8825,-1.29908,1.62737,0.89863
358.584,20.90394,-1.31582,1.6331,0.89817
359.284,20.92551,-1.33383,1.6426,0.8977
359.984,20.9471,-1.34896,1.65143,0.89724
360.684,20.96866,-1.36719,1.66134,0.89677
361.384,20.99018,-1.38353,1.671,0.89631
362.084,21.01173,-1.39978,1.6794,0.89584
362.784,21.03331,-1.419,1.69265,0.89538
363.484,21.05495,-1.43542,1.70263,0.89491
364.184,21.0765,-1.45372,1.71665,0.89445
364.884,21.09817,-1.47182,1.73065,0.89398
365.584,21.11971,-1.48799,1.74281,0.89352
366.284,21.1413,-1.50869,1.75698,0.89305
366.984,21.16265,-1.5264,1.77207,0.89258
367.684,21.18423,-1.54603,1.78886,0.89212
368.384,21.20576,-1.56568,1.80203,0.89165
369.084,21.2275,-1.58262,1.8178,0.89118
369.784,21.24918,-1.60313,1.83663,0.89072
370.484,21.27076,-1.62302,1.8538,0.89025
371.184,21.29243,-1.64162,1.87284,0.88978
371.884,21.314,-1.66365,1.89037,0.88931
372.584,21.3356,-1.68266,1.90857,0.88885
373.284,21.35725,-1.70348,1.92725,0.88838
373.984,21.37886,-1.72544,1.94695,0.88791
374.684,21.40051,-1.74365,1.9659,0.88744
375.384,21.42217,-1.76593,1.98434,0.88697
376.084,21.4438,-1.78682,2.005,0.8865
376.784,21.46545,-1.80707,2.02488,0.88603
377.484,21.48711,-1.83131,2.04361,0.88557
378.184,21.50873,-1.85166,2.06124,0.8851
378.884,21.53041,-1.87446,2.07679,0.88463
379.584,21.55215,-1.89823,2.0942,0.88416
380.284,21.5738,-1.91895,2.10935,0.88369
380.984,21.5955,-1.94378,2.12289,0.88322
381.684,21.61705,-1.96604,2.13652,0.88275
382.384,21.63869,-1.98709,2.14619,0.88227
383.084,21.66046,-2.01121,2.15677,0.8818
383.784,21.68218,-2.03236,2.16696,0.88133
384.484,21.704,-2.05607,2.17081,0.88086
385.184,21.72564,-2.08245,2.17618,0.88039
385.884,21.74737,-2.10443,2.17571,0.87992
386.584,21.76908,-2.1299,2.17606,0.87945
387.284,21.79074,-2.15334,2.17209,0.87898
387.984,21.81247,-2.17546,2.16686,0.8785
388.684,21.83419,-2.2018,2.15503,0.87803
389.384,21.85601,-2.22381,2.14246,0.87756
390.084,21.87769,-2.24696,2.12687,0.87709
390.784,21.89939,-2.27093,2.1071,0.87661
391.484,21.92106,-2.29174,2.08181,0.87614
392.184,21.94277,-2.31569,2.05448,0.87567
392.884,21.9645,-2.33849,2.02375,0.87519
393.584,21.98612,-2.35864,1.9897,0.87472
394.284,22.00779,-2.38221,1.94755,0.87425
394.984,22.0295,-2.40208,1.90785,0.87377
395.684,22.05126,-2.42269,1.85958,0.8733
396.384,22.07302,-2.44567,1.81018,0.87282
397.084,22.09468,-2.46466,1.756,0.87235
397.784,22.1164,-2.4848,1.701,0.87188
398.484,22.13804,-2.50362,1.64011,0.8714
399.184,22.15974,-2.51995,1.57532,0.87093
399.884,22.18143,-2.53942,1.51024,0.87045
400.584,22.2031,-2.55588,1.44415,0.86998
401.284,22.2248,-2.5714,1.37595,0.8695
401.984,22.24648,-2.5877,1.30082,0.86902
402.684,22.2681,-2.60041,1.23253,0.86855
403.384,22.28971,-2.61396,1.15853,0.86807
404.084,22.31139,-2.62599,1.08793,0.8676
404.784,22.3331,-2.63673,1.01342,0.86712
405.484,22.3548,-2.64861,0.94252,0.86664
406.184,22.3764,-2.65848,0.87282,0.86617
406.884,22.398,-2.66798,0.80828,0.86569
407.584,22.4196,-2.67718,0.74221,0.86521
408.284,22.44131,-2.68416,0.67765,0.86473
408.984,22.463,-2.69228,0.61974,0.86426
409.684,22.48464,-2.69935,0.56099,0.86378
410.384,22.50624,-2.70489,0.50994,0.8633
411.084,22.5278,-2.71091,0.46117,0.86282
411.784,22.5495,-2.71607,0.41751,0.86235
412.484,22.57115,-2.72163,0.37677,0.86187
413.184,22.59287,-2.72703,0.33979,0.86139
413.884,22.61461,-2.73051,0.30839,0.86091
414.584,22.63629,-2.73512,0.27749,0.86043
415.284,22.65793,-2.7391,0.25447,0.85995
415.984,22.6796,-2.74243,0.22524,0.85947
416.684,22.70131,-2.74571,0.20941,0.85899
417.384,22.7231,-2.74932,0.189,0.85851
418.084,22.745,-2.75099,0.17318,0.85804
418.784,22.76677,-2.7538,0.15849,0.85756
419.484,22.78854,-2.75709,0.1448,0.85708
420.184,22.81024,-2.7602,0.13531,0.8566
420.884,22.8319,-2.76234,0.12309,0.85611
421.584,22.85365,-2.76433,0.11398,0.85563
422.284,22.8754,-2.76683,0.1071,0.85515
422.984,22.89726,-2.77046,0.09399531,0.85467
423.684,22.91911,-2.77344,0.08642816,0.85419
424.384,22.9409,-2.77599,0.07959842,0.85371
425.084,22.96271,-2.77848,0.07406166,0.85323
425.784,22.9846,-2.781,0.06585347,0.85275
426.484,23.0064,-2.7839,0.05824367,0.85227
427.184,23.0283,-2.78573,0.05264095,0.85178
427.884,23.05019,-2.78819,0.04626409,0.8513
428.584,23.072,-2.79034,0.03838761,0.85082
429.284,23.09392,-2.79244,0.03224188,0.85034
429.984,23.11573,-2.7959,0.02510044,0.84986
430.684,23.13758,-2.79893,0.02047336,0.84937
431.384,23.15942,-2.80185,0.01174449,0.84889
432.084,23.18131,-2.80341,0.00792676,0.84841
432.784,23.20319,-2.80521,0.003632662,0.84792
433.484,23.2251,-2.80775,-0.004580154,0.84744
434.184,23.24704,-2.80985,-0.01170065,0.84696
434.884,23.26898,-2.81209,-0.01514191,0.84647
435.584,23.29092,-2.81425,-0.02060304,0.84599
436.284,23.3128,-2.81657,-0.02497421,0.84551
436.984,23.33478,-2.8186,-0.03106637,0.84502
437.684,23.35673,-2.82055,-0.04019544,0.84454
438.384,23.37865,-2.82233,-0.04477351,0.84405
439.084,23.40059,-2.82461,-0.04999481,0.84357
439.784,23.42258,-2.82736,-0.0539272,0.84308
440.484,23.44452,-2.82989,-0.06005178,0.8426
441.184,23.46644,-2.83207,-0.06565219,0.84211
441.884,23.48838,-2.83376,-0.06766976,0.84163
442.584,23.51034,-2.83609,-0.07538642,0.84114
443.284,23.5323,-2.83835,-0.07915285,0.84066
443.984,23.5544,-2.84037,-0.08486399,0.84017
444.684,23.57621,-2.84224,-0.08973095,0.83969
445.384,23.5979,-2.84417,-0.09471484,0.8392
446.084,23.61996,-2.84636,-0.09733429,0.83871
446.784,23.64201,-2.84835,-0.09989597,0.83823
447.484,23.66429,-2.85034,-0.10282,0.83774
448.184,23.6864,-2.85369,-0.10592,0.83725
448.884,23.7085,-2.85577,-0.11278,0.83677
449.584,23.73056,-2.85797,-0.11298,0.83628
450.284,23.75265,-2.86018,-0.11706,0.83579
450.984,23.77471,-2.86263,-0.11967,0.83531
451.684,23.79682,-2.86574,-0.1211,0.83482
452.384,23.81888,-2.86757,-0.1208,0.83433
453.084,23.841,-2.86891,-0.12826,0.83384
453.784,23.86307,-2.86984,-0.12897,0.83336
454.484,23.88518,-2.87169,-0.12964,0.83287
455.184,23.9072,-2.87381,-0.12908,0.83238
455.884,23.9294,-2.8749,-0.12853,0.83189
456.584,23.9515,-2.87658,-0.12619,0.8314
457.284,23.97375,-2.8783,-0.12803,0.83091
457.984,23.9959,-2.88042,-0.12671,0.83043
458.684,24.01802,-2.88246,-0.12569,0.82994
459.384,24.04015,-2.88412,-0.12302,0.82945
460.084,24.0623,-2.88574,-0.12191,0.82896
460.784,24.0845,-2.88911,-0.12091,0.82847
461.484,24.10667,-2.89133,-0.1161,0.82798
462.184,24.12881,-2.895,-0.11223,0.82749
462.884,24.15094,-2.89787,-0.10955,0.827
463.584,24.17312,-2.89973,-0.1069,0.82651
464.284,24.19533,-2.90002,-0.10282,0.82602
464.984,24.21754,-2.90065,-0.10089,0.82553
465.684,24.23977,-2.90228,-0.09645207,0.82504
466.384,24.26193,-2.90382,-0.08883214,0.82455
467.084,24.28412,-2.90545,-0.08617022,0.82406
467.784,24.30629,-2.90895,-0.08161152,0.82357
468.484,24.32844,-2.91042,-0.07836682,0.82308
469.184,24.35069,-2.91246,-0.06822521,0.82258
469.884,24.37296,-2.9135,-0.06338927,0.82209
470.584,24.3952,-2.9146,-0.05643635,0.8216
471.284,24.41744,-2.91605,-0.05206107,0.82111
471.984,24.4394,-2.91799,-0.04406578,0.82062
472.684,24.46167,-2.91954,-0.03915622,0.82013
473.384,24.48394,-2.91985,-0.03184688,0.81963
474.084,24.50649,-2.92149,-0.0272973,0.81914
474.784,24.52883,-2.92344,-0.01923947,0.81865
475.484,24.55113,-2.92512,-0.01223319,0.81816
476.184,24.57337,-2.92654,-0.006975063,0.81766
476.884,24.59561,-2.92755,-0.0006402914,0.81717
477.584,24.61789,-2.92968,0.00714365,0.81668
478.284,24.6402,-2.9316,0.01174874,0.81619
478.984,24.66256,-2.93284,0.0181941,0.81569
479.684,24.6849,-2.93453,0.02227942,0.8152
480.384,24.70719,-2.93619,0.02919408,0.81471
481.084,24.72945,-2.93798,0.03892405,0.81421
481.784,24.75169,-2.93964,0.0435402,0.81372
482.484,24.77394,-2.9416,0.05307969,0.81322
483.184,24.79625,-2.9431,0.05490285,0.81273
483.884,24.81852,-2.94449,0.06067481,0.81224
484.584,24.84081,-2.94529,0.06819524,0.81174
485.284,24.8631,-2.94691,0.07547717,0.81125
485.984,24.88545,-2.94779,0.08040055,0.81075
486.684,24.90786,-2.94882,0.0849889,0.81026
487.384,24.9302,-2.95,0.09096751,0.80976
488.084,24.95257,-2.95167,0.09948123,0.80927
488.784,24.97489,-2.9529,0.10277,0.80877
489.484,24.9972,-2.95354,0.1087,0.80828
490.184,25.01957,-2.95493,0.11432,0.80778
490.884,25.042,-2.95575,0.11761,0.80729
491.584,25.06431,-2.95698,0.11977,0.80679
492.284,25.08672,-2.95845,0.12541,0.80629
492.984,25.10911,-2.95903,0.12696,0.8058
493.684,25.1314,-2.96127,0.1297,0.8053
494.384,25.15379,-2.96276,0.13621,0.80481
495.084,25.17613,-2.96381,0.13934,0.80431
495.784,25.19851,-2.96473,0.14059,0.80381
496.484,25.22087,-2.96466,0.14562,0.80332
497.184,25.24324,-2.96589,0.14867,0.80282
497.884,25.26567,-2.96748,0.1545,0.80232
498.584,25.2881,-2.96904,0.15312,0.80183
499.284,25.3105,-2.96897,0.15777,0.80133
499.984,25.33288,-2.97169,0.16206,0.80083
500.684,25.35524,-2.97186,0.16656,0.80033
501.384,25.3776,-2.97304,0.16673,0.79984
502.084,25.40004,-2.97338,0.16776,0.79934
502.784,25.42245,-2.97464,0.16961,0.79884
503.484,25.4449,-2.97612,0.17467,0.79834
504.184,25.46726,-2.97766,0.17684,0.79784
504.884,25.48967,-2.97901,0.17895,0.79734
505.584,25.5121,-2.97942,0.18295,0.79685
506.284,25.53453,-2.98072,0.18126,0.79635
506.984,25.55697,-2.98146,0.18472,0.79585
507.684,25.57934,-2.98225,0.18614,0.79535
508.384,25.60174,-2.98383,0.1889,0.79485
509.084,25.62416,-2.98375,0.19043,0.79435
509.784,25.6465,-2.98522,0.19096,0.79385
510.484,25.66897,-2.98641,0.19115,0.79335
511.184,25.6914,-2.98705,0.19201,0.79285
511.884,25.71384,-2.98818,0.19615,0.79235
512.584,25.73629,-2.9884,0.19884,0.79185
513.284,25.75879,-2.9895,0.20076,0.79135
513.984,25.78128,-2.9911,0.19972,0.79085
514.684,25.8037,-2.99252,0.20222,0.79035
515.384,25.82615,-2.99356,0.2031,0.78985
516.084,25.8486,-2.99446,0.20489,0.78935
516.784,25.87108,-2.99487,0.20419,0.78885
517.484,25.8936,-2.99642,0.20597,0.78835
518.184,25.9162,-2.99776,0.20664,0.78785
518.884,25.9387,-2.99819,0.20621,0.78735
519.584,25.96119,-2.99828,0.20787,0.78685
520.284,25.98364,-2.99828,0.20503,0.78635
520.984,26.00611,-2.99956,0.20597,0.78585
521.684,26.0283,-2.99956,0.20771,0.78535
522.384,26.0507,-3.00098,0.20519,0.78484
523.084,26.0732,-3.0009,0.20836,0.78434
523.784,26.096,-3.002,0.2101,0.78384
524.484,26.11854,-3.00285,0.20927,0.78334
525.184,26.14105,-3.00332,0.21336,0.78284
525.884,26.16348,-3.0046,0.21174,0.78233
526.584,26.18601,-3.00502,0.20903,0.78183
527.284,26.2085,-3.00606,0.20785,0.78133
527.984,26.23103,-3.00689,0.20994,0.78083
528.684,26.25358,-3.0076,0.21139,0.78032
529.384,26.27617,-3.00908,0.20968,0.77982
530.084,26.2987,-3.00903,0.20682,0.77932
530.784,26.32118,-3.01049,0.20897,0.77881
531.484,26.34367,-3.01197,0.21054,0.77831
532.184,26.3663,-3.01319,0.20995,0.77781
532.884,26.38885,-3.01449,0.20957,0.7773
533.584,26.41149,-3.01515,0.20973,0.7768
534.284,26.4341,-3.01616,0.2074,0.7763
534.984,26.4567,-3.0171,0.2073,0.77579
535.684,26.4792,-3.01616,0.20878,0.77529
536.384,26.5018,-3.01752,0.20614,0.77478
537.084,26.5243,-3.01745,0.20739,0.77428
537.784,26.54686,-3.01878,0.20801,0.77378
538.484,26.56942,-3.01879,0.20447,0.77327
539.184,26.592,-3.02002,0.21014,0.77277
539.884,26.61463,-3.0201,0.20703,0.77226
540.584,26.63731,-3.02083,0.20682,0.77176
541.284,26.65989,-3.02142,0.20801,0.77125
541.984,26.68252,-3.02261,0.20413,0.77075
542.684,26.70508,-3.0233,0.20383,0.77024
543.384,26.72768,-3.02416,0.20533,0.76974
544.084,26.7503,-3.02445,0.20868,0.76923
544.784,26.7729,-3.02548,0.20851,0.76873
545.484,26.7955,-3.02639,0.20877,0.76822
546.184,26.81813,-3.02679,0.20855,0.76771
546.884,26.8407,-3.0268,0.20927,0.76721
547.584,26.86327,-3.02826,0.20815,0.7667
548.284,26.8859,-3.02969,0.20848,0.7662
548.984,26.90847,-3.03025,0.20832,0.76569
549.684,26.9311,-3.03105,0.20972,0.76518
550.384,26.95368,-3.03239,0.21294,0.76468
551.084,26.9763,-3.03376,0.21345,0.76417
551.784,26.999,-3.03372,0.21171,0.76366
552.484,27.02181,-3.03508,0.21497,0.76316
553.184,27.0447,-3.03375,0.20888,0.76265
553.884,27.06761,-3.03448,0.21158,0.76214
554.584,27.09042,-3.03504,0.21214,0.76164
555.284,27.1131,-3.03643,0.2135,0.76113
555.984,27.13581,-3.03651,0.21332,0.76062
556.684,27.1585,-3.03789,0.21255,0.76011
557.384,27.1812,-3.03909,0.20932,0.7596
558.084,27.20396,-3.03941,0.2113,0.7591
558.784,27.2267,-3.03974,0.21372,0.75859
559.484,27.24948,-3.04072,0.211,0.75808
560.184,27.2722,-3.04071,0.21304,0.75757
560.884,27.2949,-3.04206,0.21159,0.75706
561.584,27.31768,-3.04204,0.21051,0.75656
562.284,27.3404,-3.04435,0.20891,0.75605
562.984,27.3632,-3.04444,0.21096,0.75554
563.684,27.38601,-3.04566,0.20923,0.75503
564.384,27.4088,-3.04563,0.20619,0.75452
565.084,27.43158,-3.04701,0.20632,0.75401
565.784,27.45438,-3.04702,0.20647,0.7535
566.484,27.47705,-3.04778,0.20837,0.75299
567.184,27.49979,-3.04837,0.20547,0.75249
567.884,27.52256,-3.04906,0.20273,0.75198
568.584,27.54533,-3.04906,0.20143,0.75147
569.284,27.5681,-3.04904,0.20261,0.75096
569.984,27.59089,-3.05041,0.20223,0.75045
570.684,27.6138,-3.05109,0.20238,0.74994
571.384,27.6366,-3.05182,0.20093,0.74943
572.084,27.6595,-3.05309,0.19623,0.74892
572.784,27.68226,-3.05312,0.19729,0.74841
573.484,27.70515,-3.05359,0.19553,0.7479
574.184,27.72798,-3.05443,0.19597,0.74739
574.884,27.7507,-3.05477,0.19363,0.74688
575.584,27.77354,-3.05575,0.19553,0.74636
576.284,27.79628,-3.05576,0.19244,0.74585
576.984,27.81911,-3.05712,0.19295,0.74534
577.684,27.842,-3.05719,0.1944,0.74483
578.384,27.8649,-3.05837,0.1907,0.74432
579.084,27.88778,-3.05849,0.19029,0.74381
579.784,27.9105,-3.05849,0.19377,0.7433
580.484,27.93341,-3.05916,0.1885,0.74279
581.184,27.95624,-3.05981,0.18883,0.74228
581.884,27.9792,-3.06007,0.18798,0.74176
582.584,28.002,-3.06043,0.18329,0.74125
583.284,28.02487,-3.06127,0.18396,0.74074
583.984,28.04772,-3.06188,0.18501,0.74023
584.684,28.07044,-3.06325,0.18417,0.73972
585.384,28.09324,-3.06353,0.1829,0.7392
586.084,28.11615,-3.06451,0.17968,0.73869
586.784,28.1392,-3.06453,0.17687,0.73818
587.484,28.1622,-3.06589,0.17708,0.73767
588.184,28.18505,-3.06584,0.17359,0.73715
588.884,28.2079,-3.06592,0.17605,0.73664
589.584,28.23085,-3.06715,0.17224,0.73613
590.284,28.25375,-3.06716,0.17064,0.73562
590.984,28.2767,-3.06714,0.17059,0.7351
591.684,28.29955,-3.06846,0.16366,0.73459
592.384,28.3225,-3.06864,0.16718,0.73408
593.084,28.34533,-3.0699,0.16493,0.73356
593.784,28.3682,-3.07114,0.16535,0.73305
594.484,28.39108,-3.07143,0.16175,0.73254
595.184,28.414,-3.07217,0.1621,0.73202
595.884,28.4369,-3.07277,0.15795,0.73151
596.584,28.4599,-3.07417,0.15632,0.731
597.284,28.4828,-3.07418,0.1569,0.73048
597.984,28.50565,-3.07419,0.15756,0.72997
598.684,28.52855,-3.07554,0.15391,0.72945
599.384,28.5515,-3.07549,0.15656,0.72894
600.084,28.57442,-3.07549,0.1552,0.72843
600.784,28.59736,-3.07662,0.15585,0.72791
601.484,28.62032,-3.07681,0.15337,0.7274
602.184,28.6433,-3.07786,0.15165,0.72688
602.884,28.6662,-3.07812,0.15106,0.72637
603.584,28.6892,-3.07811,0.14952,0.72585
604.284,28.71218,-3.07941,0.14876,0.72534
604.984,28.7351,-3.07948,0.14429,0.72482
605.684,28.75804,-3.08059,0.1445,0.72431
606.384,28.78101,-3.07945,0.14618,0.72379
607.084,28.80397,-3.0795,0.14368,0.72328
607.784,28.8269,-3.07813,0.14059,0.72276
608.484,28.8499,-3.07823,0.14209,0.72225
609.184,28.87293,-3.07977,0.13997,0.72173
609.884,28.89592,-3.08147,0.14065,0.72121
610.584,28.9189,-3.08298,0.14165,0.7207
611.284,28.9419,-3.08395,0.14044,0.72018
611.984,28.9649,-3.08579,0.13659,0.71967
612.684,28.98785,-3.08725,0.13822,0.71915
613.384,29.01081,-3.08723,0.13625,0.71863
614.084,29.0338,-3.08795,0.13405,0.71812
614.784,29.0568,-3.08855,0.1338,0.7176
615.484,29.0799,-3.08952,0.13357,0.71709
616.184,29.1029,-3.08991,0.13426,0.71657
616.884,29.12595,-3.08914,0.12758,0.71605
617.584,29.14893,-3.09018,0.12609,0.71554
618.284,29.17193,-3.09019,0.12842,0.71502
618.984,29.19496,-3.09017,0.12928,0.7145
619.684,29.218,-3.09153,0.12523,0.71399
620.384,29.24093,-3.0915,0.12458,0.71347
621.084,29.26394,-3.0915,0.12217,0.71295
621.784,29.28701,-3.0922,0.12285,0.71243
622.484,29.3101,-3.09282,0.11808,0.71192
623.184,29.33323,-3.09282,0.11749,0.7114
623.884,29.35626,-3.09278,0.11993,0.71088
624.584,29.37923,-3.09415,0.11813,0.71036
625.284,29.4022,-3.09414,0.11602,0.70985
625.984,29.42525,-3.09561,0.11486,0.70933
626.684,29.44831,-3.09551,0.11596,0.70881
627.384,29.47144,-3.09688,0.11,0.70829
628.084,29.49444,-3.09692,0.11401,0.70777
628.784,29.51755,-3.09824,0.11203,0.70726
629.484,29.5405,-3.09819,0.10727,0.70674
630.184,29.56352,-3.09831,0.10988,0.70622
630.884,29.58655,-3.09951,0.10706,0.7057
631.584,29.60962,-3.0996,0.10499,0.70518
632.284,29.63277,-3.10053,0.10618,0.70466
632.984,29.65588,-3.10051,0.1045,0.70414
633.684,29.679,-3.10051,0.10136,0.70363
634.384,29.7021,-3.10051,0.10305,0.70311
635.084,29.7251,-3.10051,0.09947882,0.70259
635.784,29.748,-3.10054,0.10062,0.70207
636.484,29.7711,-3.10188,0.10145,0.70155
637.184,29.79417,-3.10091,0.09505295,0.70103
637.884,29.81727,-3.10192,0.09726678,0.70051
638.584,29.8403,-3.10194,0.09622993,0.69999
639.284,29.86334,-3.10323,0.09383261,0.69947
639.984,29.88637,-3.10324,0.09554607,0.69895
640.684,29.9094,-3.10425,0.09324211,0.69843
641.384,29.9325,-3.10423,0.09110037,0.69791
642.084,29.95562,-3.10329,0.09213114,0.69739
642.784,29.97877,-3.10291,0.08989963,0.69687
643.484,30.0019,-3.10478,0.08786056,0.69635
644.184,30.02494,-3.1067,0.08921737,0.69583
644.884,30.04802,-3.10787,0.08540038,0.69531
645.584,30.07113,-3.10818,0.08478389,0.69479
646.284,30.09426,-3.10823,0.07913973,0.69427
646.984,30.11737,-3.10949,0.08163741,0.69375
647.684,30.1404,-3.1095,0.07591013,0.69323
648.384,30.16345,-3.1095,0.07605375,0.69271
649.084,30.18654,-3.1095,0.07574072,0.69219
649.784,30.2097,-3.11083,0.0759717,0.69167
650.484,30.2328,-3.11081,0.07306087,0.69115
651.184,30.2559,-3.11082,0.07135676,0.69063
651.884,30.27908,-3.11208,0.07086298,0.69011
652.584,30.30221,-3.11213,0.07334746,0.68958
653.284,30.3253,-3.11209,0.06958097,0.68906
653.984,30.34835,-3.11344,0.06863961,0.68854
654.684,30.3714,-3.1135,0.06650486,0.68802
655.384,30.39445,-3.11214,0.06350654,0.6875
656.084,30.41762,-3.11213,0.06493093,0.68698
656.784,30.4407,-3.11214,0.06147052,0.68646
657.484,30.46392,-3.11358,0.06257801,0.68593
658.184,30.487,-3.11356,0.05960011,0.68541
658.884,30.51015,-3.11489,0.06141899,0.68489
659.584,30.53325,-3.11487,0.05962521,0.68437
660.284,30.55633,-3.11487,0.05960564,0.68385
660.984,30.5794,-3.11581,0.05702197,0.68333
661.684,30.6025,-3.11619,0.06086553,0.6828
662.384,30.62568,-3.11616,0.05680249,0.68228
663.084,30.6488,-3.11749,0.05712072,0.68176
663.784,30.67185,-3.1175,0.05605619,0.68124
664.484,30.6949,-3.11861,0.05903345,0.68071
665.184,30.71807,-3.11801,0.05667566,0.68019
665.884,30.74127,-3.1175,0.05706655,0.67967
666.584,30.7644,-3.11789,0.05713062,0.67915
667.284,30.7876,-3.11882,0.05734745,0.67862
667.984,30.8106,-3.11882,0.05563814,0.6781
668.684,30.8338,-3.11882,0.05684804,0.67758
669.384,30.8569,-3.1176,0.05781733,0.67705
670.084,30.88005,-3.1175,0.05242992,0.67653
670.784,30.9032,-3.11933,0.05816341,0.67601
671.484,30.9264,-3.12078,0.05630918,0.67549
672.184,30.94953,-3.12202,0.05366484,0.67496
672.884,30.9726,-3.12222,0.05288992,0.67444
673.584,30.99571,-3.12278,0.05393452,0.67392
674.284,31.0188,-3.12353,0.05049292,0.67339
674.984,31.04203,-3.12353,0.05457566,0.67287
675.684,31.06516,-3.12353,0.05052913,0.67235
676.384,31.0883,-3.12353,0.05277885,0.67182
677.084,31.11144,-3.12311,0.05541087,0.6713
677.784,31.1345,-3.12222,0.04808016,0.67077
678.484,31.1577,-3.12222,0.05200078,0.67025
679.184,31.1809,-3.12222,0.05194577,0.66973
679.884,31.20407,-3.12223,0.04924394,0.6692
680.584,31.2272,-3.12326,0.05041229,0.66868
681.284,31.25034,-3.12363,0.04854672,0.66815
681.984,31.27352,-3.12497,0.05315204,0.66763
682.684,31.2967,-3.12497,0.05211864,0.66711
683.384,31.31992,-3.12497,0.04809418,0.66658
684.084,31.343,-3.12633,0.0497231,0.66606
684.784,31.36607,-3.12628,0.04692631,0.66553
685.484,31.3892,-3.12628,0.04954421,0.66501
686.184,31.4124,-3.12653,0.04830614,0.66448
686.884,31.43559,-3.12759,0.04778761,0.66396
687.584,31.4588,-3.1276,0.04924997,0.66343
688.284,31.482,-3.1276,0.04946387,0.66291
688.984,31.50505,-3.1276,0.04736075,0.66238
689.684,31.5282,-3.12807,0.04880686,0.66186
690.384,31.5514,-3.12891,0.04874855,0.66133
691.084,31.57459,-3.12891,0.04828392,0.66081
691.784,31.59775,-3.12776,0.04846488,0.66028
692.484,31.6209,-3.12801,0.0510233,0.65976
693.184,31.64418,-3.13072,0.04954905,0.65923
693.884,31.66743,-3.13173,0.05150824,0.65871
694.584,31.69067,-3.13079,0.0505328,0.65818
695.284,31.7139,-3.13067,0.04798296,0.65766
695.984,31.7371,-3.13067,0.04778009,0.65713
696.684,31.7603,-3.13067,0.04974911,0.65661
697.384,31.78357,-3.13067,0.04953053,0.65608
698.084,31.8068,-3.13067,0.05146928,0.65556
698.784,31.83,-3.13093,0.05062766,0.65503
699.484,31.85325,-3.13198,0.05684864,0.6545
700.184,31.8764,-3.13199,0.04899476,0.65398
700.884,31.89958,-3.13328,0.05543666,0.65345
701.584,31.9228,-3.1333,0.0490712,0.65293
702.284,31.94598,-3.1333,0.05096454,0.6524
702.984,31.96923,-3.1333,0.04915009,0.65187
703.684,31.99245,-3.13265,0.05041978,0.65135
704.384,32.01551,-3.13328,0.05167471,0.65082
705.084,32.0388,-3.13329,0.04786431,0.6503
705.784,32.06208,-3.13329,0.04975991,0.64977
706.484,32.08553,-3.13331,0.05209825,0.64924
707.184,32.10881,-3.1353,0.05192208,0.64872
707.884,32.13208,-3.13527,0.05375282,0.64819
708.584,32.15538,-3.13527,0.05561333,0.64766
709.284,32.17863,-3.13527,0.05363132,0.64714
709.984,32.20196,-3.13527,0.05416864,0.64661
710.684,32.22531,-3.13527,0.0571141,0.64608
711.384,32.24864,-3.13617,0.05274606,0.64556
712.084,32.27198,-3.13659,0.05643672,0.64503
712.784,32.29531,-3.13659,0.05507034,0.6445
713.484,32.31861,-3.13659,0.05687977,0.64398
714.184,32.34186,-3.1366,0.05828222,0.64345
714.884,32.3651,-3.1378,0.05472101,0.64292
715.584,32.38841,-3.1379,0.05780391,0.6424
716.284,32.41172,-3.13788,0.05721405,0.64187
716.984,32.43507,-3.13912,0.05635113,0.64134
717.684,32.45838,-3.13792,0.05783819,0.64081
718.384,32.48173,-3.13791,0.05588823,0.64029
719.084,32.5051,-3.13791,0.05457711,0.63976
719.784,32.5285,-3.13803,0.05618285,0.63923
720.484,32.55186,-3.13922,0.05204751,0.63871
721.184,32.5751,-3.13923,0.05608831,0.63818
721.884,32.59841,-3.14006,0.05489702,0.63765
722.584,32.62171,-3.14054,0.05380995,0.63712
723.284,32.64508,-3.14075,0.05575626,0.6366
723.984,32.6684,-3.14185,0.05548079,0.63607
724.684,32.69174,-3.14185,0.0586423,0.63554
725.384,32.71504,-3.14186,0.05653394,0.63501
726.084,32.73829,-3.14058,0.05617449,0.63448
726.784,32.76165,-3.14054,0.05513711,0.63396
727.484,32.78501,-3.14054,0.05796019,0.63343
728.184,32.8084,-3.14141,0.05870253,0.6329
728.884,32.83175,-3.14186,0.0537629,0.63237
729.584,32.8551,-3.14186,0.05345602,0.63184
730.284,32.87846,-3.1419,0.05563967,0.63132
730.984,32.90178,-3.14105,0.04931386,0.63079
731.684,32.9251,-3.14185,0.05137622,0.63026
732.384,32.9484,-3.14185,0.05076602,0.62973
733.084,32.97183,-3.14238,0.04780383,0.6292
733.784,32.99517,-3.14251,0.0501131,0.62868
734.484,33.01853,-3.14251,0.05001775,0.62815
735.184,33.04184,-3.14251,0.04964128,0.62762
735.884,33.06521,-3.14299,0.05048383,0.62709
736.584,33.08862,-3.14383,0.04787222,0.62656
737.284,33.11204,-3.14433,0.04615685,0.62603
737.984,33.1355,-3.14515,0.04642743,0.62551
738.684,33.1588,-3.14515,0.04601834,0.62498
739.384,33.18196,-3.14518,0.04261607,0.62445
740.084,33.20533,-3.14381,0.04529035,0.62392
740.784,33.22872,-3.14496,0.04629904,0.62339
741.484,33.2523,-3.14514,0.04261227,0.62286
742.184,33.27557,-3.14514,0.04320064,0.62233
742.884,33.29898,-3.14514,0.04279412,0.62181
743.584,33.3224,-3.14514,0.04248086,0.62128
744.284,33.3459,-3.14514,0.04067531,0.62075
744.984,33.36923,-3.14514,0.04371884,0.62022
745.684,33.39262,-3.14607,0.0389815,0.61969
746.384,33.41605,-3.14646,0.03733281,0.61916
747.084,33.43946,-3.14646,0.03775983,0.61863
747.784,33.46286,-3.14646,0.03879643,0.6181
748.484,33.48623,-3.14644,0.03764697,0.61757
749.184,33.5096,-3.14777,0.03807127,0.61705
749.884,33.533,-3.14779,0.03830223,0.61652
750.584,33.55632,-3.14644,0.03730587,0.61599
751.284,33.57973,-3.14778,0.03745336,0.61546
751.984,33.60317,-3.14778,0.03605187,0.61493
752.684,33.62669,-3.14778,0.03383887,0.6144
753.384,33.65015,-3.14778,0.03367118,0.61387
754.084,33.67357,-3.14778,0.03370502,0.61334
754.784,33.6969,-3.14847,0.03090711,0.61281
755.484,33.7203,-3.1491,0.02957675,0.61228
756.184,33.74369,-3.1491,0.03030107,0.61175
756.884,33.76709,-3.1491,0.02844603,0.61122
757.584,33.79053,-3.14924,0.02699791,0.61069
758.284,33.81394,-3.15041,0.02916822,0.61017
758.984,33.83741,-3.15041,0.02171358,0.60964
759.684,33.86087,-3.1504,0.02558203,0.60911
760.384,33.8842,-3.15177,0.02373089,0.60858
761.084,33.90761,-3.15173,0.02480227,0.60805
761.784,33.93099,-3.15173,0.02295512,0.60752
762.484,33.9544,-3.15179,0.02067375,0.60699
763.184,33.9779,-3.15304,0.02205839,0.60646
763.884,34.00143,-3.15259,0.02295714,0.60593
764.584,34.02483,-3.15173,0.02613979,0.6054
765.284,34.0481,-3.15256,0.01785508,0.60487
765.984,34.07152,-3.15304,0.02109355,0.60434
766.684,34.09498,-3.15304,0.01863099,0.60381
767.384,34.1186,-3.15304,0.02003531,0.60328
768.084,34.14201,-3.15304,0.0197323,0.60275
768.784,34.16551,-3.15304,0.0147514,0.60222
769.484,34.189,-3.15398,0.01526978,0.60169
770.184,34.21248,-3.15436,0.01376957,0.60116
770.884,34.23595,-3.15436,0.01650275,0.60063
771.584,34.25933,-3.15436,0.009955238,0.6001
772.284,34.28281,-3.15436,0.00708352,0.59957
772.984,34.30601,-3.15436,0.00476108,0.59904
773.684,34.32949,-3.15434,0.01123291,0.59851
774.384,34.35286,-3.15566,0.01020889,0.59798
775.084,34.3763,-3.15567,0.01056162,0.59745
775.784,34.39991,-3.15567,0.004774888,0.59692
776.484,34.42349,-3.15569,0.00759034,0.59639
777.184,34.44722,-3.15469,0.006111774,0.59586
777.884,34.4707,-3.15581,0.00384298,0.59533
778.584,34.49415,-3.156,0.00604428,0.5948
779.284,34.51762,-3.156,0.000816939,0.59427
779.984,34.5411,-3.156,0.00486054,0.59374
780.684,34.5646,-3.15576,-0.002118424,0.59321
781.384,34.58809,-3.15567,0.0007120884,0.59268
782.084,34.61156,-3.15611,-0.0002610066,0.59215
782.784,34.63498,-3.15699,-0.001453466,0.59162
783.484,34.65848,-3.15699,0.001235999,0.59109
784.184,34.68195,-3.15699,0.004759544,0.59056
784.884,34.7054,-3.15698,0.003594457,0.59003
785.584,34.7289,-3.15832,0.002197425,0.5895
786.284,34.75243,-3.1583,0.002592849,0.58897
786.984,34.77598,-3.15948,-0.000865174,0.58844
787.684,34.79939,-3.15963,0.000466986,0.58791
788.384,34.8229,-3.15829,-0.00136221,0.58738
789.084,34.84636,-3.15831,-8.80017e-05,0.58685
789.784,34.8699,-3.15831,-0.004122886,0.58632
790.484,34.89335,-3.15831,-0.005211742,0.58579
791.184,34.91687,-3.15965,-0.002457477,0.58526
791.884,34.94042,-3.15963,-0.004608905,0.58473
792.584,34.96403,-3.15963,-0.006381935,0.5842
793.284,34.9876,-3.15963,-0.006577329,0.58367
793.584,34.99779,-3.15963,-0.006134518,0.58344