File: 01_Data/Cedar_Shingle/STA/N2/30K_min/Cedar_Shingle_STA_N2_30KData_220405_R2.csv
##Temp./Â°C,Time/min,Mass loss(subtr.2)/mg,DSC(subtr.2)/(mW/mg),Sensit./(uV/mW)
48.464,10.00667,-0.00142,0.01526909,1.07507
49.164,10.5592,-0.002867148,0.04742099,1.07476
49.864,10.6852,-0.0003723078,0.08050399,1.07446
50.564,10.77522,-0.0008732014,0.10776,1.07415
51.264,10.8485,-0.001689776,0.13287,1.07384
51.964,10.91208,-0.000865367,0.15925,1.07353
52.664,10.96834,-0.001395908,0.18035,1.07322
53.364,11.01999,0.0001104293,0.20307,1.0729
54.064,11.06815,-0.0005196918,0.22387,1.07259
54.764,11.11322,-0.00141734,0.24124,1.07228
55.464,11.15582,-0.0002754063,0.25956,1.07197
56.164,11.19668,-2.885603e-05,0.27835,1.07165
56.864,11.23595,-0.0008272963,0.29575,1.07134
57.564,11.2735,-0.000771442,0.31114,1.07102
58.264,11.3099,-0.0003718242,0.32647,1.07071
58.964,11.34516,0.0002630212,0.34147,1.07039
59.664,11.37965,0.000461387,0.35151,1.07008
60.364,11.41332,-0.0008705974,0.36705,1.06976
61.064,11.4461,-0.0003803829,0.3779,1.06944
61.764,11.47804,9.640811e-05,0.3937,1.06912
62.464,11.5095,-0.000644912,0.40516,1.06881
63.164,11.54043,0.000705866,0.41572,1.06849
63.864,11.5709,0.00209281,0.42638,1.06817
64.564,11.6008,0.0008461172,0.43859,1.06785
65.264,11.63012,-0.002729368,0.45144,1.06753
65.964,11.6593,-0.003357615,0.46294,1.06721
66.664,11.6882,-0.003316382,0.47104,1.06688
67.364,11.71678,-0.00265336,0.48151,1.06656
68.064,11.74485,-0.00264255,0.49302,1.06624
68.764,11.7728,-0.002373982,0.50192,1.06592
69.464,11.80056,-0.003329813,0.51253,1.06559
70.164,11.82794,-0.00338202,0.52111,1.06527
70.864,11.85512,-0.003510502,0.52986,1.06494
71.564,11.882,-0.003515587,0.53797,1.06462
72.264,11.90885,-0.003202598,0.54826,1.06429
72.964,11.93556,-0.00319994,0.55703,1.06396
73.664,11.96219,-0.003097192,0.56624,1.06364
74.364,11.98857,-0.0028896,0.57327,1.06331
75.064,12.01482,-0.002975271,0.5829,1.06298
75.764,12.04083,-0.002718866,0.59234,1.06265
76.464,12.0668,-0.003406433,0.59916,1.06232
77.164,12.09264,-0.003447086,0.60543,1.06199
77.864,12.11841,-0.00369093,0.61429,1.06166
78.564,12.144,-0.00345327,0.62432,1.06133
79.264,12.16951,-0.003448988,0.6306,1.061
79.964,12.19483,-0.00211881,0.63765,1.06067
80.664,12.22011,-0.001081779,0.64621,1.06034
81.364,12.24532,-0.0004269961,0.65392,1.06001
82.064,12.27035,-0.00279486,0.66163,1.05967
82.764,12.29526,-0.00406854,0.66738,1.05934
83.464,12.32015,-0.00404939,0.67556,1.05901
84.164,12.34494,-0.005529521,0.68241,1.05867
84.864,12.3696,-0.005683849,0.69133,1.05834
85.564,12.39398,-0.00619387,0.70073,1.058
86.264,12.4186,-0.005963725,0.70635,1.05766
86.964,12.44307,-0.007353824,0.71239,1.05733
87.664,12.4677,-0.007363132,0.71901,1.05699
88.364,12.49209,-0.007338737,0.72298,1.05665
89.064,12.51641,-0.007976811,0.73173,1.05631
89.764,12.54078,-0.007913843,0.73821,1.05597
90.464,12.56504,-0.007303159,0.74396,1.05564
91.164,12.58917,-0.00864566,0.7501,1.0553
91.864,12.61319,-0.008660646,0.75412,1.05496
92.564,12.6372,-0.009896406,0.7615,1.05461
93.264,12.66127,-0.009981464,0.76547,1.05427
93.964,12.68529,-0.01085841,0.77188,1.05393
94.664,12.7093,-0.009962126,0.77601,1.05359
95.364,12.73322,-0.00998,0.78121,1.05325
96.064,12.75703,-0.009962384,0.78472,1.0529
96.764,12.78078,-0.01130056,0.79051,1.05256
97.464,12.80447,-0.01127642,0.79269,1.05222
98.164,12.82822,-0.009968143,0.79584,1.05187
98.864,12.85195,-0.01096381,0.79889,1.05153
99.564,12.87575,-0.01097682,0.80244,1.05118
100.264,12.8995,-0.01130439,0.80487,1.05084
100.964,12.9232,-0.01125277,0.80854,1.05049
101.664,12.94684,-0.01260799,0.81137,1.05014
102.364,12.97034,-0.01261024,0.81347,1.04979
103.064,12.99394,-0.01261016,0.81708,1.04945
103.764,13.0175,-0.01255768,0.81803,1.0491
104.464,13.04107,-0.01392033,0.8199,1.04875
105.164,13.0646,-0.01393015,0.82064,1.0484
105.864,13.08814,-0.01392872,0.82172,1.04805
106.564,13.1116,-0.01614993,0.82059,1.0477
107.264,13.1351,-0.01622861,0.81914,1.04735
107.964,13.1586,-0.01644938,0.82033,1.047
108.664,13.18208,-0.01753488,0.81904,1.04665
109.364,13.2056,-0.01754003,0.8183,1.04629
110.064,13.229,-0.01754,0.81652,1.04594
110.764,13.2525,-0.01754004,0.8175,1.04559
111.464,13.27585,-0.01755053,0.82026,1.04524
112.164,13.2993,-0.01882337,0.81638,1.04488
112.864,13.32281,-0.01885901,0.81233,1.04453
113.564,13.34637,-0.01885998,0.81147,1.04417
114.264,13.3698,-0.01884291,0.81185,1.04382
114.964,13.3932,-0.0201783,0.81145,1.04346
115.664,13.41651,-0.02018026,0.80924,1.0431
116.364,13.43985,-0.02017556,0.8061,1.04275
117.064,13.46314,-0.02051218,0.80386,1.04239
117.764,13.48649,-0.02051202,0.80343,1.04203
118.464,13.5099,-0.02188006,0.80126,1.04167
119.164,13.53315,-0.02183001,0.79897,1.04132
119.864,13.5564,-0.02192049,0.79646,1.04096
120.564,13.5795,-0.02314252,0.79393,1.0406
121.264,13.6027,-0.0231401,0.79394,1.04024
121.964,13.62575,-0.02313998,0.78862,1.03988
122.664,13.64886,-0.02313509,0.78736,1.03952
123.364,13.67198,-0.02254261,0.78866,1.03916
124.064,13.69503,-0.02182868,0.78603,1.03879
124.764,13.7181,-0.02140024,0.78339,1.03843
125.464,13.74114,-0.02161992,0.78495,1.03807
126.164,13.7642,-0.02162169,0.78298,1.03771
126.864,13.78723,-0.02317244,0.78231,1.03734
127.564,13.81025,-0.02308811,0.78367,1.03698
128.264,13.8331,-0.02446299,0.78195,1.03661
128.964,13.856,-0.02446002,0.78127,1.03625
129.664,13.8788,-0.02447274,0.77902,1.03588
130.364,13.9016,-0.02546027,0.77982,1.03552
131.064,13.9246,-0.02660984,0.7802,1.03515
131.764,13.9475,-0.02675154,0.78111,1.03479
132.464,13.9703,-0.02711097,0.78115,1.03442
133.164,13.99306,-0.02707995,0.78404,1.03405
133.864,14.0158,-0.02708073,0.78452,1.03368
134.564,14.0385,-0.02703556,0.78464,1.03332
135.264,14.0612,-0.02838332,0.78651,1.03295
135.964,14.0839,-0.02963864,0.7879,1.03258
136.664,14.1066,-0.02972003,0.78847,1.03221
137.364,14.12916,-0.02972001,0.79117,1.03184
138.064,14.1517,-0.02972,0.79018,1.03147
138.764,14.17431,-0.02972,0.79339,1.0311
139.464,14.19691,-0.02972,0.7927,1.03073
140.164,14.21946,-0.02972,0.79326,1.03035
140.864,14.242,-0.02972,0.79687,1.02998
141.564,14.2644,-0.02972037,0.79772,1.02961
142.264,14.28686,-0.02972347,0.79855,1.02924
142.964,14.3093,-0.0310593,0.80081,1.02886
143.664,14.3317,-0.03103982,0.80315,1.02849
144.364,14.3541,-0.03104,0.80467,1.02812
145.064,14.3765,-0.03103999,0.80902,1.02774
145.764,14.39889,-0.03104026,0.80814,1.02737
146.464,14.4212,-0.03106562,0.81023,1.02699
147.164,14.44348,-0.03237691,0.81152,1.02662
147.864,14.46574,-0.03236874,0.81412,1.02624
148.564,14.488,-0.03371168,0.81646,1.02586
149.264,14.5101,-0.0336691,0.81939,1.02549
149.964,14.53232,-0.03366991,0.81999,1.02511
150.664,14.55463,-0.03365977,0.82228,1.02473
151.364,14.57691,-0.03433816,0.82393,1.02435
152.064,14.59915,-0.03487336,0.82587,1.02397
152.764,14.62134,-0.035643,0.8288,1.02359
153.464,14.64359,-0.03563994,0.8321,1.02321
154.164,14.66584,-0.03564,0.83286,1.02284
154.864,14.688,-0.03564002,0.83493,1.02245
155.564,14.71016,-0.035638,0.83788,1.02207
156.264,14.73226,-0.03591268,0.83996,1.02169
156.964,14.75435,-0.03765643,0.84215,1.02131
157.664,14.77643,-0.03761876,0.84569,1.02093
158.364,14.79841,-0.03763222,0.84737,1.02055
159.064,14.8205,-0.03894942,0.85057,1.02017
159.764,14.84254,-0.038929,0.8515,1.01978
160.464,14.86459,-0.03893,0.85265,1.0194
161.164,14.8866,-0.03893002,0.85689,1.01901
161.864,14.90865,-0.03898138,0.85735,1.01863
162.564,14.9307,-0.04026521,0.86151,1.01825
163.264,14.9527,-0.04024981,0.86405,1.01786
163.964,14.9747,-0.04022939,0.86261,1.01748
164.664,14.99663,-0.04159029,0.86507,1.01709
165.364,15.01864,-0.04284848,0.86919,1.0167
166.064,15.04052,-0.04287934,0.87116,1.01632
166.764,15.0624,-0.04305432,0.87376,1.01593
167.464,15.08435,-0.04419025,0.87616,1.01554
168.164,15.1063,-0.04420003,0.8776,1.01516
168.864,15.1283,-0.04420029,0.878,1.01477
169.564,15.15024,-0.04416981,0.88345,1.01438
170.264,15.1721,-0.04542686,0.88349,1.01399
170.964,15.194,-0.04447759,0.88538,1.0136
171.664,15.2158,-0.04419851,0.89081,1.01321
172.364,15.2376,-0.04421005,0.89113,1.01282
173.064,15.2595,-0.04608833,0.89144,1.01243
173.764,15.2813,-0.04683209,0.89532,1.01204
174.464,15.30309,-0.04682995,0.89777,1.01165
175.164,15.32494,-0.04682975,0.89994,1.01126
175.864,15.34665,-0.04683021,0.90366,1.01087
176.564,15.36842,-0.04819769,0.90426,1.01047
177.264,15.3901,-0.04814912,0.90853,1.01008
177.964,15.41189,-0.04814888,0.90981,1.00969
178.664,15.4336,-0.04850343,0.91378,1.0093
179.364,15.45531,-0.04946812,0.91469,1.0089
180.064,15.477,-0.05016222,0.91875,1.00851
180.764,15.49862,-0.05077317,0.91838,1.00811
181.464,15.5202,-0.05210347,0.92096,1.00772
182.164,15.5419,-0.05206994,0.92456,1.00732
182.864,15.5636,-0.05346651,0.92772,1.00693
183.564,15.58515,-0.05341955,0.93091,1.00653
184.264,15.60666,-0.05342,0.93312,1.00614
184.964,15.6281,-0.05341996,0.93513,1.00574
185.664,15.64971,-0.0534245,0.93829,1.00534
186.364,15.6713,-0.05421662,0.93906,1.00494
187.064,15.6928,-0.05472797,0.94264,1.00455
187.764,15.71429,-0.05552156,0.94425,1.00415
188.464,15.73582,-0.05616183,0.94875,1.00375
189.164,15.75736,-0.0564982,0.95039,1.00335
189.864,15.77886,-0.0574754,0.95381,1.00295
190.564,15.80035,-0.05747823,0.95586,1.00255
191.264,15.82175,-0.05859206,0.96062,1.00215
191.964,15.8431,-0.0587913,0.96218,1.00175
192.664,15.86454,-0.05879034,0.96492,1.00135
193.364,15.88597,-0.05878031,0.96821,1.00095
194.064,15.9073,-0.06011926,0.96888,1.00055
194.764,15.92875,-0.0601073,0.97418,1.00015
195.464,15.9501,-0.06038659,0.97719,0.99975
196.164,15.97158,-0.06142375,0.97813,0.99935
196.864,15.993,-0.06141533,0.98037,0.99894
197.564,16.01449,-0.0628201,0.98218,0.99854
198.264,16.0358,-0.06403551,0.98732,0.99814
198.964,16.05708,-0.0640316,0.98835,0.99773
199.664,16.07842,-0.06533222,0.99065,0.99733
200.364,16.09975,-0.06537011,0.9926,0.99692
201.064,16.12124,-0.06537631,0.99693,0.99652
201.764,16.14259,-0.06615129,0.9996,0.99612
202.464,16.16395,-0.06538038,1.00444,0.99571
203.164,16.1853,-0.06584996,1.00598,0.9953
203.864,16.20655,-0.06680005,1.0074,0.9949
204.564,16.2279,-0.06790615,1.01093,0.99449
205.264,16.2493,-0.0682325,1.01357,0.99409
205.964,16.27064,-0.06821164,1.01625,0.99368
206.664,16.29188,-0.06950564,1.01826,0.99327
207.364,16.3131,-0.06954003,1.02274,0.99286
208.064,16.33442,-0.06952394,1.02583,0.99246
208.764,16.35577,-0.07091074,1.02912,0.99205
209.464,16.37718,-0.07084917,1.03066,0.99164
210.164,16.3985,-0.07271887,1.03458,0.99123
210.864,16.4198,-0.07314988,1.03657,0.99082
211.564,16.44104,-0.07321041,1.0402,0.99041
212.264,16.46236,-0.07445505,1.04238,0.99
212.964,16.48367,-0.07459801,1.04712,0.98959
213.664,16.50498,-0.07591655,1.05049,0.98918
214.364,16.52628,-0.07588442,1.05229,0.98877
215.064,16.54749,-0.07720183,1.05804,0.98836
215.764,16.56871,-0.07720795,1.05974,0.98795
216.464,16.58994,-0.07746787,1.06381,0.98753
217.164,16.61121,-0.07851745,1.06563,0.98712
217.864,16.6325,-0.07908063,1.07129,0.98671
218.564,16.65374,-0.07984921,1.07301,0.9863
219.264,16.67501,-0.08098205,1.07543,0.98588
219.964,16.6963,-0.08122732,1.07912,0.98547
220.664,16.71761,-0.08262587,1.08329,0.98505
221.364,16.7389,-0.08283852,1.08737,0.98464
222.064,16.76016,-0.08280559,1.08965,0.98423
222.764,16.7814,-0.08392877,1.09499,0.98381
223.464,16.8026,-0.08420634,1.09721,0.9834
224.164,16.82381,-0.08582735,1.10058,0.98298
224.864,16.845,-0.08642338,1.1035,0.98256
225.564,16.86625,-0.08840462,1.10893,0.98215
226.264,16.8874,-0.08998362,1.11164,0.98173
226.964,16.90858,-0.09102971,1.11622,0.98132
227.664,16.92977,-0.09167809,1.11935,0.9809
228.364,16.95101,-0.09302059,1.12262,0.98048
229.064,16.9724,-0.09310953,1.12802,0.98006
229.764,16.99353,-0.09465486,1.13019,0.97965
230.464,17.01475,-0.09512573,1.13419,0.97923
231.164,17.03594,-0.09625044,1.14026,0.97881
231.864,17.05712,-0.09772894,1.14157,0.97839
232.564,17.0783,-0.09932142,1.14339,0.97797
233.264,17.09954,-0.10042,1.14675,0.97755
233.964,17.12079,-0.10132,1.15297,0.97713
234.664,17.14206,-0.10269,1.15769,0.97671
235.364,17.1633,-0.10444,1.16148,0.97629
236.064,17.18443,-0.10586,1.16673,0.97587
236.764,17.20565,-0.10656,1.16986,0.97545
237.464,17.22681,-0.10772,1.17317,0.97503
238.164,17.24805,-0.10942,1.1786,0.97461
238.864,17.26922,-0.11109,1.18129,0.97418
239.564,17.29034,-0.11238,1.18557,0.97376
240.264,17.3115,-0.11325,1.18644,0.97334
240.964,17.33269,-0.11438,1.19249,0.97292
241.664,17.3538,-0.11593,1.19666,0.97249
242.364,17.375,-0.11776,1.19787,0.97207
243.064,17.39614,-0.11944,1.20262,0.97165
243.764,17.41725,-0.12124,1.20653,0.97122
244.464,17.43844,-0.12281,1.20871,0.9708
245.164,17.4596,-0.12472,1.214,0.97037
245.864,17.48078,-0.1265,1.21701,0.96995
246.564,17.50196,-0.1279,1.22106,0.96952
247.264,17.52317,-0.12963,1.22481,0.9691
247.964,17.5443,-0.13109,1.22742,0.96867
248.664,17.56551,-0.13308,1.23031,0.96825
249.364,17.5867,-0.13524,1.23315,0.96782
250.064,17.60782,-0.13687,1.23453,0.96739
250.764,17.62892,-0.13791,1.23907,0.96697
251.464,17.65001,-0.13941,1.24203,0.96654
252.164,17.67108,-0.14155,1.24506,0.96611
252.864,17.69223,-0.14367,1.24921,0.96568
253.564,17.71344,-0.14623,1.24999,0.96526
254.264,17.7347,-0.14964,1.25186,0.96483
254.964,17.75582,-0.15108,1.25465,0.9644
255.664,17.777,-0.15317,1.25876,0.96397
256.364,17.7981,-0.15544,1.25855,0.96354
257.064,17.81921,-0.1579,1.26179,0.96311
257.764,17.84029,-0.16032,1.26352,0.96268
258.464,17.8614,-0.16301,1.26615,0.96225
259.164,17.88255,-0.16567,1.26726,0.96182
259.864,17.90369,-0.16793,1.27035,0.96139
260.564,17.9249,-0.17032,1.27183,0.96096
261.264,17.94601,-0.17268,1.27282,0.96053
261.964,17.96712,-0.17476,1.27433,0.9601
262.664,17.98808,-0.1771,1.27422,0.95967
263.364,18.00914,-0.17906,1.27596,0.95923
264.064,18.03022,-0.18184,1.27762,0.9588
264.764,18.05141,-0.18462,1.27641,0.95837
265.464,18.07274,-0.18842,1.27726,0.95794
266.164,18.09389,-0.19202,1.27942,0.9575
266.864,18.11509,-0.19407,1.2785,0.95707
267.564,18.13626,-0.19664,1.27774,0.95664
268.264,18.15737,-0.20005,1.2794,0.9562
268.964,18.17849,-0.203,1.27942,0.95577
269.664,18.19957,-0.20605,1.2811,0.95533
270.364,18.2207,-0.20992,1.27787,0.9549
271.064,18.24184,-0.21404,1.27661,0.95446
271.764,18.263,-0.21739,1.27948,0.95403
272.464,18.2842,-0.21983,1.27958,0.95359
273.164,18.30535,-0.22295,1.27908,0.95316
273.864,18.32643,-0.22668,1.27603,0.95272
274.564,18.34751,-0.22977,1.27642,0.95229
275.264,18.3686,-0.23358,1.27543,0.95185
275.964,18.3898,-0.23809,1.27607,0.95141
276.664,18.411,-0.24169,1.27403,0.95098
277.364,18.43211,-0.24525,1.27343,0.95054
278.064,18.4532,-0.24905,1.27031,0.9501
278.764,18.47437,-0.25336,1.26951,0.94966
279.464,18.49549,-0.25766,1.2705,0.94922
280.164,18.51667,-0.26081,1.26905,0.94879
280.864,18.53785,-0.26478,1.26892,0.94835
281.564,18.55898,-0.26949,1.2679,0.94791
282.264,18.5801,-0.2728,1.26433,0.94747
282.964,18.60124,-0.27639,1.26458,0.94703
283.664,18.62237,-0.28082,1.26513,0.94659
284.364,18.64355,-0.28527,1.26285,0.94615
285.064,18.66475,-0.28961,1.2627,0.94571
285.764,18.68594,-0.29385,1.26092,0.94527
286.464,18.7071,-0.29901,1.26123,0.94483
287.164,18.7283,-0.30428,1.2595,0.94439
287.864,18.74946,-0.30834,1.25811,0.94395
288.564,18.77065,-0.31338,1.2575,0.94351
289.264,18.7918,-0.31903,1.25552,0.94306
289.964,18.81298,-0.32286,1.25574,0.94262
290.664,18.83416,-0.32723,1.25102,0.94218
291.364,18.8554,-0.3327,1.25058,0.94174
292.064,18.87658,-0.33835,1.25125,0.94129
292.764,18.8978,-0.34452,1.24912,0.94085
293.464,18.9189,-0.34964,1.24812,0.94041
294.164,18.9401,-0.35496,1.24586,0.93997
294.864,18.96133,-0.3602,1.24376,0.93952
295.564,18.98255,-0.36523,1.24086,0.93908
296.264,19.0038,-0.37137,1.23805,0.93863
296.964,19.02499,-0.37717,1.23735,0.93819
297.664,19.04609,-0.38296,1.23678,0.93774
298.364,19.06727,-0.38897,1.23384,0.9373
299.064,19.08845,-0.39339,1.23283,0.93685
299.764,19.10976,-0.39874,1.23258,0.93641
300.464,19.13099,-0.40431,1.22956,0.93596
301.164,19.15222,-0.40992,1.228,0.93552
301.864,19.1734,-0.41562,1.22825,0.93507
302.564,19.19464,-0.42155,1.22689,0.93462
303.264,19.21583,-0.42747,1.22421,0.93418
303.964,19.237,-0.43375,1.22307,0.93373
304.664,19.25817,-0.44006,1.22015,0.93328
305.364,19.27935,-0.44643,1.2207,0.93284
306.064,19.3005,-0.45404,1.21837,0.93239
306.764,19.3218,-0.46077,1.22061,0.93194
307.464,19.34296,-0.4671,1.21796,0.93149
308.164,19.3641,-0.47316,1.21837,0.93105
308.864,19.38521,-0.47995,1.21673,0.9306
309.564,19.40638,-0.48712,1.21936,0.93015
310.264,19.4278,-0.49448,1.21682,0.9297
310.964,19.44908,-0.50142,1.218,0.92925
311.664,19.47036,-0.50832,1.21828,0.9288
312.364,19.49164,-0.51545,1.21913,0.92835
313.064,19.51282,-0.5227,1.21793,0.9279
313.764,19.534,-0.52999,1.21643,0.92745
314.464,19.5551,-0.53695,1.2188,0.927
315.164,19.57636,-0.54409,1.22078,0.92655
315.864,19.59761,-0.55213,1.22187,0.9261
316.564,19.6189,-0.55977,1.22425,0.92565
317.264,19.64014,-0.56701,1.2238,0.9252
317.964,19.6614,-0.57389,1.22676,0.92474
318.664,19.68259,-0.58232,1.2276,0.92429
319.364,19.70381,-0.59063,1.23095,0.92384
320.064,19.72506,-0.59862,1.23374,0.92339
320.764,19.74638,-0.6071,1.23608,0.92294
321.464,19.76765,-0.6161,1.23816,0.92248
322.164,19.78891,-0.62522,1.24,0.92203
322.864,19.81022,-0.63519,1.24207,0.92158
323.564,19.83145,-0.64408,1.24648,0.92112
324.264,19.85269,-0.65311,1.24833,0.92067
324.964,19.87395,-0.66211,1.25398,0.92022
325.664,19.89528,-0.67169,1.25668,0.91976
326.364,19.9166,-0.68101,1.26032,0.91931
327.064,19.93798,-0.69046,1.26404,0.91885
327.764,19.95928,-0.70034,1.26801,0.9184
328.464,19.9806,-0.71018,1.26983,0.91794
329.164,20.00189,-0.72064,1.2744,0.91749
329.864,20.02321,-0.73104,1.28079,0.91703
330.564,20.04448,-0.74133,1.28551,0.91658
331.264,20.0658,-0.75199,1.28786,0.91612
331.964,20.08719,-0.7628,1.29225,0.91567
332.664,20.1085,-0.77412,1.30028,0.91521
333.364,20.12988,-0.78538,1.30432,0.91475
334.064,20.15119,-0.79693,1.31078,0.9143
334.764,20.1725,-0.8086,1.31667,0.91384
335.464,20.19386,-0.82008,1.32399,0.91338
336.164,20.21519,-0.83165,1.32729,0.91293
336.864,20.23651,-0.84386,1.33333,0.91247
337.564,20.25789,-0.8565,1.33874,0.91201
338.264,20.27923,-0.86966,1.34436,0.91155
338.964,20.3006,-0.88201,1.34873,0.91109
339.664,20.32207,-0.89444,1.35574,0.91064
340.364,20.3435,-0.90705,1.3631,0.91018
341.064,20.36497,-0.92001,1.37133,0.90972
341.764,20.38637,-0.93378,1.37712,0.90926
342.464,20.40775,-0.94737,1.3819,0.9088
343.164,20.42916,-0.95954,1.38864,0.90834
343.864,20.45056,-0.97081,1.39423,0.90788
344.564,20.47204,-0.98338,1.40065,0.90742
345.264,20.49345,-0.99844,1.40829,0.90696
345.964,20.51474,-1.01472,1.4175,0.9065
346.664,20.5362,-1.03128,1.42466,0.90604
347.364,20.55762,-1.0465,1.43061,0.90558
348.064,20.5792,-1.06086,1.4389,0.90512
348.764,20.60071,-1.07594,1.44559,0.90466
349.464,20.6222,-1.09056,1.45179,0.9042
350.164,20.64376,-1.10544,1.45972,0.90374
350.864,20.66512,-1.12094,1.4684,0.90327
351.564,20.68644,-1.13618,1.47605,0.90281
352.264,20.70775,-1.15135,1.48598,0.90235
352.964,20.72922,-1.16614,1.49235,0.90189
353.664,20.75066,-1.18159,1.49799,0.90142
354.364,20.7721,-1.19804,1.50998,0.90096
355.064,20.79363,-1.21411,1.5171,0.9005
355.764,20.81519,-1.23027,1.52865,0.90004
356.464,20.8368,-1.24629,1.53746,0.89957
357.164,20.85836,-1.26267,1.54423,0.89911
357.864,20.87991,-1.27941,1.55509,0.89864
358.564,20.90148,-1.29602,1.56655,0.89818
359.264,20.923,-1.31283,1.57632,0.89772
359.964,20.9445,-1.33015,1.58918,0.89725
360.664,20.9661,-1.34712,1.5985,0.89679
361.364,20.9876,-1.36408,1.61236,0.89632
362.064,21.00917,-1.3815,1.62527,0.89586
362.764,21.03079,-1.39922,1.6386,0.89539
363.464,21.0524,-1.41704,1.65292,0.89493
364.164,21.07422,-1.4348,1.66616,0.89446
364.864,21.09591,-1.45365,1.68128,0.894
365.564,21.11768,-1.47252,1.69907,0.89353
366.264,21.1392,-1.49097,1.71359,0.89306
366.964,21.1608,-1.50986,1.72673,0.8926
367.664,21.18242,-1.52845,1.74123,0.89213
368.364,21.20405,-1.54733,1.75784,0.89166
369.064,21.2257,-1.56674,1.77694,0.8912
369.764,21.2473,-1.58767,1.79466,0.89073
370.464,21.26898,-1.60775,1.81171,0.89026
371.164,21.2906,-1.62751,1.83048,0.88979
371.864,21.31231,-1.64794,1.85253,0.88933
372.564,21.33395,-1.66937,1.87084,0.88886
373.264,21.3556,-1.68996,1.89017,0.88839
373.964,21.3773,-1.71072,1.90799,0.88792
374.664,21.399,-1.73147,1.92584,0.88745
375.364,21.42067,-1.75268,1.94264,0.88699
376.064,21.4423,-1.77423,1.96103,0.88652
376.764,21.46408,-1.79621,1.98057,0.88605
377.464,21.4858,-1.81847,1.99871,0.88558
378.164,21.50751,-1.84106,2.01438,0.88511
378.864,21.52919,-1.86378,2.03222,0.88464
379.564,21.55088,-1.88666,2.04645,0.88417
380.264,21.57261,-1.91017,2.06394,0.8837
380.964,21.59429,-1.93314,2.07654,0.88323
381.664,21.61601,-1.95581,2.09016,0.88276
382.364,21.63768,-1.97713,2.09964,0.88229
383.064,21.65943,-1.99929,2.10937,0.88182
383.764,21.68094,-2.02425,2.11829,0.88135
384.464,21.70269,-2.05042,2.12119,0.88088
385.164,21.72445,-2.07546,2.12741,0.8804
385.864,21.74628,-2.09994,2.1314,0.87993
386.564,21.76816,-2.12399,2.13236,0.87946
387.264,21.7899,-2.14841,2.12528,0.87899
387.964,21.81168,-2.17255,2.1211,0.87852
388.664,21.83345,-2.19539,2.11188,0.87804
389.364,21.85519,-2.2195,2.09925,0.87757
390.064,21.8769,-2.24306,2.08395,0.8771
390.764,21.89865,-2.26699,2.06441,0.87663
391.464,21.92045,-2.29074,2.04508,0.87615
392.164,21.9422,-2.31347,2.0189,0.87568
392.864,21.96405,-2.33626,1.98785,0.87521
393.564,21.98586,-2.35948,1.95568,0.87473
394.264,22.00764,-2.38171,1.91663,0.87426
394.964,22.02945,-2.40257,1.87637,0.87379
395.664,22.05119,-2.42325,1.83536,0.87331
396.364,22.0729,-2.44447,1.787,0.87284
397.064,22.09471,-2.466,1.73486,0.87236
397.764,22.11645,-2.48628,1.67922,0.87189
398.464,22.1382,-2.50449,1.62251,0.87141
399.164,22.15999,-2.52277,1.56032,0.87094
399.864,22.1817,-2.53996,1.49596,0.87046
400.564,22.20348,-2.55663,1.43087,0.86999
401.264,22.2252,-2.57159,1.36247,0.86951
401.964,22.24691,-2.58501,1.29672,0.86904
402.664,22.2686,-2.5999,1.22543,0.86856
403.364,22.29031,-2.61494,1.15481,0.86809
404.064,22.312,-2.6299,1.0842,0.86761
404.764,22.3336,-2.64202,1.01567,0.86713
405.464,22.3553,-2.65289,0.94484,0.86666
406.164,22.377,-2.66317,0.87586,0.86618
406.864,22.3989,-2.67343,0.80824,0.8657
407.564,22.4206,-2.68261,0.74616,0.86523
408.264,22.4423,-2.6908,0.68629,0.86475
408.964,22.46409,-2.69951,0.62342,0.86427
409.664,22.48578,-2.70655,0.57185,0.86379
410.364,22.5074,-2.7134,0.51998,0.86332
411.064,22.529,-2.71938,0.47467,0.86284
411.764,22.5507,-2.72456,0.42938,0.86236
412.464,22.5723,-2.72941,0.38741,0.86188
413.164,22.59412,-2.73421,0.35452,0.8614
413.864,22.61584,-2.73871,0.32021,0.86092
414.564,22.63766,-2.74299,0.29018,0.86045
415.264,22.65951,-2.74621,0.26326,0.85997
415.964,22.68109,-2.74959,0.24105,0.85949
416.664,22.70289,-2.75274,0.22265,0.85901
417.364,22.72468,-2.75589,0.20349,0.85853
418.064,22.74661,-2.76023,0.18808,0.85805
418.764,22.76847,-2.76358,0.17514,0.85757
419.464,22.79022,-2.76557,0.1592,0.85709
420.164,22.81194,-2.76791,0.14799,0.85661
420.864,22.83369,-2.77017,0.13642,0.85613
421.564,22.85557,-2.77292,0.12835,0.85565
422.264,22.87736,-2.77628,0.1176,0.85517
422.964,22.89913,-2.77862,0.1105,0.85469
423.664,22.92085,-2.78114,0.0999756,0.85421
424.364,22.94265,-2.78409,0.09155959,0.85372
425.064,22.96445,-2.78705,0.08591011,0.85324
425.764,22.9864,-2.79049,0.08038378,0.85276
426.464,23.0083,-2.79296,0.07233672,0.85228
427.164,23.03023,-2.79507,0.06545259,0.8518
427.864,23.0521,-2.79695,0.05857998,0.85132
428.564,23.07392,-2.79985,0.05075079,0.85083
429.264,23.0956,-2.80333,0.04562038,0.85035
429.964,23.11735,-2.80633,0.03814325,0.84987
430.664,23.13926,-2.8087,0.03118667,0.84939
431.364,23.1613,-2.81076,0.02874104,0.8489
432.064,23.1833,-2.81295,0.02041978,0.84842
432.764,23.2052,-2.81532,0.01865002,0.84794
433.464,23.2271,-2.8173,0.008786963,0.84745
434.164,23.24905,-2.81942,0.004643852,0.84697
434.864,23.27103,-2.82194,-0.004019013,0.84649
435.564,23.29299,-2.82467,-0.00626687,0.846
436.264,23.31471,-2.82587,-0.01190432,0.84552
436.964,23.3366,-2.82729,-0.02000896,0.84504
437.664,23.35853,-2.82956,-0.02466301,0.84455
438.364,23.38062,-2.83219,-0.031063,0.84407
439.064,23.40271,-2.83436,-0.03691017,0.84358
439.764,23.4247,-2.83665,-0.04338556,0.8431
440.464,23.4467,-2.8401,-0.04648325,0.84261
441.164,23.4687,-2.84236,-0.05137142,0.84213
441.864,23.49061,-2.84432,-0.05586291,0.84164
442.564,23.5125,-2.84606,-0.05931594,0.84116
443.264,23.53456,-2.84818,-0.06611902,0.84067
443.964,23.5566,-2.85071,-0.06935731,0.84019
444.664,23.5787,-2.85167,-0.07394521,0.8397
445.364,23.60067,-2.85356,-0.07790103,0.83921
446.064,23.6226,-2.85596,-0.08363238,0.83873
446.764,23.64464,-2.85853,-0.08901572,0.83824
447.464,23.6666,-2.86182,-0.08995317,0.83775
448.164,23.68863,-2.86357,-0.09301993,0.83727
448.864,23.7107,-2.86537,-0.09457062,0.83678
449.564,23.73281,-2.86738,-0.09949933,0.83629
450.264,23.7549,-2.86946,-0.10178,0.83581
450.964,23.7771,-2.87151,-0.10422,0.83532
451.664,23.79918,-2.8731,-0.10786,0.83483
452.364,23.82129,-2.87517,-0.10706,0.83435
453.064,23.8433,-2.87618,-0.10821,0.83386
453.764,23.86536,-2.87855,-0.10933,0.83337
454.464,23.8874,-2.88105,-0.10847,0.83288
455.164,23.90952,-2.88337,-0.10926,0.83239
455.864,23.93159,-2.88483,-0.10936,0.8319
456.564,23.9537,-2.88645,-0.10783,0.83142
457.264,23.97586,-2.88963,-0.10904,0.83093
457.964,23.9981,-2.89114,-0.10853,0.83044
458.664,24.02017,-2.89278,-0.10923,0.82995
459.364,24.0423,-2.8952,-0.105,0.82946
460.064,24.0643,-2.89778,-0.10556,0.82897
460.764,24.0865,-2.89997,-0.10267,0.82848
461.464,24.1086,-2.90193,-0.09813507,0.82799
462.164,24.13071,-2.9034,-0.09522564,0.8275
462.864,24.1528,-2.90475,-0.0899666,0.82701
463.564,24.175,-2.90645,-0.08791996,0.82652
464.264,24.19715,-2.90854,-0.0854166,0.82603
464.964,24.2194,-2.91068,-0.08039791,0.82554
465.664,24.24151,-2.91224,-0.07468631,0.82505
466.364,24.26373,-2.91383,-0.07157653,0.82456
467.064,24.2859,-2.91515,-0.06587034,0.82407
467.764,24.30804,-2.91707,-0.06095303,0.82358
468.464,24.3302,-2.91924,-0.05695875,0.82309
469.164,24.3524,-2.92081,-0.04833512,0.8226
469.864,24.3747,-2.92251,-0.04445221,0.82211
470.564,24.39692,-2.92418,-0.03807802,0.82162
471.264,24.41912,-2.92594,-0.03186361,0.82112
471.964,24.44138,-2.92768,-0.02404935,0.82063
472.664,24.4636,-2.92921,-0.01869335,0.82014
473.364,24.4859,-2.93073,-0.0137878,0.81965
474.064,24.50809,-2.93293,-0.00438083,0.81916
474.764,24.5304,-2.93494,0.00119885,0.81866
475.464,24.55259,-2.93612,0.00830272,0.81817
476.164,24.57484,-2.93736,0.0123436,0.81768
476.864,24.59706,-2.93886,0.02032916,0.81719
477.564,24.61934,-2.94054,0.02675119,0.81669
478.264,24.64152,-2.94223,0.03314272,0.8162
478.964,24.66378,-2.94381,0.04181276,0.81571
479.664,24.686,-2.94442,0.04609443,0.81521
480.364,24.70832,-2.94552,0.05335363,0.81472
481.064,24.7306,-2.94713,0.06013347,0.81423
481.764,24.7529,-2.9492,0.06801399,0.81373
482.464,24.77515,-2.95119,0.07448054,0.81324
483.164,24.79743,-2.95278,0.07949384,0.81274
483.864,24.8197,-2.95458,0.08733909,0.81225
484.564,24.84199,-2.95596,0.09483027,0.81176
485.264,24.86429,-2.95739,0.10238,0.81126
485.964,24.88663,-2.95911,0.10603,0.81077
486.664,24.9089,-2.9591,0.11153,0.81027
487.364,24.93121,-2.96045,0.117,0.80978
488.064,24.95346,-2.96087,0.1227,0.80928
488.764,24.97583,-2.96203,0.12822,0.80879
489.464,24.99815,-2.96365,0.13032,0.80829
490.164,25.02048,-2.96444,0.13911,0.8078
490.864,25.04276,-2.96548,0.1439,0.8073
491.564,25.0651,-2.96754,0.14961,0.8068
492.264,25.0874,-2.9691,0.15445,0.80631
492.964,25.10983,-2.97076,0.15615,0.80581
493.664,25.13225,-2.97099,0.16211,0.80532
494.364,25.15456,-2.97215,0.16524,0.80482
495.064,25.17691,-2.97369,0.16885,0.80432
495.764,25.19923,-2.97483,0.17599,0.80383
496.464,25.22156,-2.97553,0.17927,0.80333
497.164,25.2439,-2.97815,0.18321,0.80283
497.864,25.26625,-2.97983,0.18744,0.80234
498.564,25.28854,-2.98075,0.19037,0.80184
499.264,25.3108,-2.98122,0.19451,0.80134
499.964,25.33306,-2.98281,0.19809,0.80084
500.664,25.3553,-2.9844,0.20014,0.80035
501.364,25.37771,-2.98471,0.20371,0.79985
502.064,25.40021,-2.98565,0.20656,0.79935
502.764,25.4227,-2.98699,0.20958,0.79885
503.464,25.44519,-2.98764,0.21219,0.79836
504.164,25.4677,-2.98838,0.21584,0.79786
504.864,25.49002,-2.99006,0.2162,0.79736
505.564,25.51246,-2.9914,0.21876,0.79686
506.264,25.53483,-2.99144,0.22067,0.79636
506.964,25.55726,-2.99282,0.22181,0.79586
507.664,25.57966,-2.99308,0.22681,0.79536
508.364,25.6021,-2.99435,0.23,0.79487
509.064,25.62454,-2.99588,0.23023,0.79437
509.764,25.64694,-2.99728,0.23091,0.79387
510.464,25.66936,-2.99789,0.23428,0.79337
511.164,25.69174,-2.99879,0.23323,0.79287
511.864,25.71416,-3.00014,0.23504,0.79237
512.564,25.73649,-3.00022,0.23775,0.79187
513.264,25.7588,-3.00166,0.23952,0.79137
513.964,25.7812,-3.00333,0.24028,0.79087
514.664,25.8037,-3.00361,0.24054,0.79037
515.364,25.8263,-3.00462,0.24405,0.78987
516.064,25.8487,-3.00516,0.24426,0.78937
516.764,25.87114,-3.00617,0.24534,0.78887
517.464,25.8936,-3.00749,0.24849,0.78837
518.164,25.91621,-3.00748,0.2467,0.78787
518.864,25.9387,-3.00842,0.24824,0.78736
519.564,25.9611,-3.00904,0.24894,0.78686
520.264,25.9836,-3.01046,0.24999,0.78636
520.964,26.00603,-3.011,0.25388,0.78586
521.664,26.0285,-3.01197,0.2552,0.78536
522.364,26.05097,-3.01342,0.25459,0.78486
523.064,26.0734,-3.01351,0.25495,0.78436
523.764,26.096,-3.01503,0.25591,0.78385
524.464,26.11842,-3.01635,0.25409,0.78335
525.164,26.1408,-3.01687,0.25838,0.78285
525.864,26.16339,-3.01789,0.25661,0.78235
526.564,26.18592,-3.01846,0.26004,0.78185
527.264,26.2085,-3.01922,0.25955,0.78134
527.964,26.231,-3.01992,0.25624,0.78084
528.664,26.2534,-3.02185,0.25867,0.78034
529.364,26.27595,-3.02193,0.25826,0.77983
530.064,26.29849,-3.02329,0.25852,0.77933
530.764,26.3211,-3.02448,0.25759,0.77883
531.464,26.34368,-3.02477,0.25822,0.77833
532.164,26.3662,-3.02635,0.25854,0.77782
532.864,26.3887,-3.02646,0.25753,0.77732
533.564,26.41123,-3.02785,0.25835,0.77681
534.264,26.43382,-3.02943,0.2566,0.77631
534.964,26.45644,-3.03049,0.25889,0.77581
535.664,26.47901,-3.03085,0.25972,0.7753
536.364,26.5015,-3.0296,0.25795,0.7748
537.064,26.524,-3.03083,0.25855,0.77429
537.764,26.54662,-3.03084,0.25964,0.77379
538.464,26.56922,-3.03091,0.2565,0.77329
539.164,26.59187,-3.03216,0.25864,0.77278
539.864,26.6145,-3.03215,0.25755,0.77228
540.564,26.6371,-3.03285,0.25909,0.77177
541.264,26.6597,-3.03347,0.25821,0.77127
541.964,26.6823,-3.03508,0.25832,0.77076
542.664,26.70492,-3.03543,0.25543,0.77026
543.364,26.7275,-3.03642,0.2597,0.76975
544.064,26.75011,-3.0379,0.25999,0.76925
544.764,26.77266,-3.03914,0.25859,0.76874
545.464,26.7953,-3.04048,0.25792,0.76823
546.164,26.8179,-3.04066,0.25803,0.76773
546.864,26.8406,-3.04202,0.25757,0.76722
547.564,26.8633,-3.04352,0.2575,0.76672
548.264,26.88594,-3.04342,0.25844,0.76621
548.964,26.90855,-3.04375,0.25719,0.7657
549.664,26.93123,-3.04456,0.25696,0.7652
550.364,26.9538,-3.04521,0.25592,0.76469
551.064,26.97646,-3.04646,0.2574,0.76418
551.764,26.9991,-3.04663,0.25594,0.76368
552.464,27.0218,-3.0466,0.25652,0.76317
553.164,27.0445,-3.04798,0.25551,0.76266
553.864,27.0672,-3.04795,0.25544,0.76216
554.564,27.0899,-3.04795,0.25828,0.76165
555.264,27.1126,-3.04795,0.25918,0.76114
555.964,27.1352,-3.04795,0.25923,0.76063
556.664,27.1579,-3.04887,0.25973,0.76013
557.364,27.18065,-3.05046,0.26142,0.75962
558.064,27.20337,-3.05149,0.26247,0.75911
558.764,27.22608,-3.05276,0.26396,0.7586
559.464,27.24878,-3.0543,0.26359,0.7581
560.164,27.27148,-3.05551,0.26461,0.75759
560.864,27.2943,-3.05563,0.264,0.75708
561.564,27.317,-3.05671,0.26752,0.75657
562.264,27.33969,-3.05694,0.26725,0.75606
562.964,27.36228,-3.057,0.26699,0.75555
563.664,27.385,-3.05839,0.26835,0.75504
564.364,27.40772,-3.05946,0.26841,0.75454
565.064,27.4306,-3.06014,0.26865,0.75403
565.764,27.4534,-3.0621,0.26935,0.75352
566.464,27.4761,-3.06244,0.26834,0.75301
567.164,27.4989,-3.06332,0.26902,0.7525
567.864,27.52167,-3.06375,0.27051,0.75199
568.564,27.5445,-3.0637,0.2718,0.75148
569.264,27.56728,-3.06432,0.2705,0.75097
569.964,27.5901,-3.06375,0.27356,0.75046
570.664,27.6127,-3.06503,0.27343,0.74995
571.364,27.63536,-3.06503,0.27339,0.74944
572.064,27.6582,-3.06653,0.27565,0.74893
572.764,27.6811,-3.06649,0.27464,0.74842
573.464,27.704,-3.06722,0.27521,0.74791
574.164,27.7269,-3.0678,0.27563,0.7474
574.864,27.74969,-3.06781,0.27264,0.74689
575.564,27.77257,-3.06907,0.27572,0.74638
576.264,27.7954,-3.06773,0.27283,0.74587
576.964,27.8182,-3.06928,0.27525,0.74536
577.664,27.84092,-3.06929,0.27366,0.74485
578.364,27.8637,-3.07065,0.27435,0.74434
579.064,27.88653,-3.07066,0.27562,0.74382
579.764,27.9094,-3.072,0.27376,0.74331
580.464,27.93232,-3.07198,0.27524,0.7428
581.164,27.95515,-3.07309,0.27634,0.74229
581.864,27.978,-3.07329,0.27263,0.74178
582.564,28.0008,-3.07368,0.27512,0.74127
583.264,28.0237,-3.07608,0.2714,0.74076
583.964,28.0466,-3.07735,0.27215,0.74024
584.664,28.06948,-3.07733,0.2723,0.73973
585.364,28.0923,-3.07864,0.2732,0.73922
586.064,28.11515,-3.07865,0.27126,0.73871
586.764,28.138,-3.07993,0.27144,0.73819
587.464,28.16078,-3.07998,0.26885,0.73768
588.164,28.1837,-3.07993,0.2717,0.73717
588.864,28.20655,-3.08066,0.26738,0.73666
589.564,28.2295,-3.07993,0.26914,0.73614
590.264,28.2522,-3.08132,0.2671,0.73563
590.964,28.2751,-3.08182,0.26912,0.73512
591.664,28.2981,-3.08367,0.27089,0.73461
592.364,28.3211,-3.0838,0.26859,0.73409
593.064,28.34405,-3.08517,0.26986,0.73358
593.764,28.367,-3.08513,0.26852,0.73307
594.464,28.38993,-3.08511,0.26833,0.73255
595.164,28.41287,-3.08644,0.26785,0.73204
595.864,28.4358,-3.08645,0.26588,0.73152
596.564,28.4586,-3.08645,0.26568,0.73101
597.264,28.48153,-3.08756,0.26833,0.7305
597.964,28.5044,-3.08775,0.26805,0.72998
598.664,28.52733,-3.08909,0.26533,0.72947
599.364,28.5503,-3.08905,0.26599,0.72895
600.064,28.5733,-3.08909,0.26299,0.72844
600.764,28.59635,-3.08909,0.26438,0.72793
601.464,28.61928,-3.08936,0.26363,0.72741
602.164,28.6422,-3.0904,0.26086,0.7269
602.864,28.66514,-3.09162,0.26171,0.72638
603.564,28.6881,-3.09172,0.26122,0.72587
604.264,28.7112,-3.0925,0.25976,0.72535
604.964,28.73425,-3.09304,0.26002,0.72484
605.664,28.7572,-3.09318,0.25825,0.72432
606.364,28.78022,-3.09435,0.25896,0.72381
607.064,28.80319,-3.09435,0.25898,0.72329
607.764,28.8262,-3.09464,0.2571,0.72278
608.464,28.8491,-3.09566,0.25863,0.72226
609.164,28.872,-3.09567,0.26039,0.72175
609.864,28.89495,-3.09653,0.25806,0.72123
610.564,28.918,-3.097,0.25881,0.72071
611.264,28.9411,-3.09807,0.2559,0.7202
611.964,28.9641,-3.09839,0.25859,0.71968
612.664,28.98718,-3.09971,0.25831,0.71917
613.364,29.01019,-3.09842,0.25558,0.71865
614.064,29.0331,-3.09872,0.25642,0.71813
614.764,29.0561,-3.09971,0.25446,0.71762
615.464,29.0791,-3.09972,0.25847,0.7171
616.164,29.1021,-3.10064,0.25743,0.71658
616.864,29.12518,-3.10104,0.25445,0.71607
617.564,29.1482,-3.10104,0.25452,0.71555
618.264,29.17125,-3.10105,0.25478,0.71503
618.964,29.1942,-3.10239,0.25518,0.71452
619.664,29.2173,-3.10249,0.25403,0.714
620.364,29.2403,-3.10389,0.25383,0.71348
621.064,29.26333,-3.10384,0.25513,0.71297
621.764,29.2863,-3.10521,0.25683,0.71245
622.464,29.30937,-3.10522,0.25442,0.71193
623.164,29.3324,-3.10647,0.2536,0.71141
623.864,29.3555,-3.10652,0.25457,0.7109
624.564,29.37858,-3.10648,0.25494,0.71038
625.264,29.40152,-3.10793,0.25541,0.70986
625.964,29.42447,-3.10834,0.25417,0.70934
626.664,29.4474,-3.10927,0.25256,0.70882
627.364,29.47049,-3.10925,0.24939,0.70831
628.064,29.4934,-3.11058,0.24901,0.70779
628.764,29.5162,-3.11058,0.24741,0.70727
629.464,29.53915,-3.11058,0.25136,0.70675
630.164,29.56225,-3.11112,0.24923,0.70623
630.864,29.58557,-3.112,0.25061,0.70572
631.564,29.60872,-3.11292,0.25195,0.7052
632.264,29.63182,-3.11332,0.25165,0.70468
632.964,29.65488,-3.11332,0.24865,0.70416
633.664,29.678,-3.11373,0.25081,0.70364
634.364,29.701,-3.1139,0.25019,0.70312
635.064,29.724,-3.11365,0.24515,0.7026
635.764,29.7471,-3.11402,0.24803,0.70208
636.464,29.7702,-3.11497,0.24459,0.70156
637.164,29.7933,-3.11497,0.24401,0.70104
637.864,29.8164,-3.11616,0.2458,0.70053
638.564,29.8394,-3.11628,0.24397,0.70001
639.264,29.86242,-3.11629,0.24636,0.69949
639.964,29.8855,-3.11753,0.24433,0.69897
640.664,29.90858,-3.1176,0.24462,0.69845
641.364,29.93171,-3.11758,0.24115,0.69793
642.064,29.9547,-3.11894,0.24294,0.69741
642.764,29.9777,-3.11892,0.24238,0.69689
643.464,30.0007,-3.11931,0.2433,0.69637
644.164,30.02389,-3.12023,0.24125,0.69585
644.864,30.04696,-3.12023,0.24146,0.69533
645.564,30.0701,-3.12051,0.24236,0.69481
646.264,30.09317,-3.12155,0.24102,0.69429
646.964,30.1163,-3.12217,0.24064,0.69377
647.664,30.13932,-3.12286,0.23883,0.69325
648.364,30.16238,-3.12285,0.23947,0.69272
649.064,30.1854,-3.12415,0.24011,0.6922
649.764,30.20853,-3.12418,0.24074,0.69168
650.464,30.2316,-3.12392,0.23551,0.69116
651.164,30.25467,-3.1252,0.24134,0.69064
651.864,30.2777,-3.12518,0.23884,0.69012
652.564,30.30075,-3.12518,0.23648,0.6896
653.264,30.32388,-3.12516,0.23957,0.68908
653.964,30.347,-3.1265,0.23865,0.68856
654.664,30.37012,-3.12649,0.23848,0.68804
655.364,30.3932,-3.12747,0.23902,0.68751
656.064,30.41627,-3.12781,0.23748,0.68699
656.764,30.4394,-3.12779,0.23798,0.68647
657.464,30.4625,-3.12912,0.23613,0.68595
658.164,30.4856,-3.12913,0.2371,0.68543
658.864,30.50866,-3.12913,0.23641,0.68491
659.564,30.5317,-3.12913,0.23555,0.68438
660.264,30.5549,-3.12998,0.23428,0.68386
660.964,30.57805,-3.13044,0.23894,0.68334
661.664,30.60118,-3.13042,0.23349,0.68282
662.364,30.6242,-3.1318,0.23704,0.6823
663.064,30.6473,-3.13176,0.23473,0.68177
663.764,30.67039,-3.13085,0.23374,0.68125
664.464,30.69349,-3.13077,0.23568,0.68073
665.164,30.71657,-3.13142,0.23572,0.68021
665.864,30.73965,-3.13208,0.23282,0.67968
666.564,30.7627,-3.13326,0.23709,0.67916
667.264,30.7859,-3.1334,0.23523,0.67864
667.964,30.80906,-3.13347,0.23296,0.67812
668.664,30.83227,-3.13473,0.23496,0.67759
669.364,30.8554,-3.13472,0.23707,0.67707
670.064,30.8785,-3.13472,0.23669,0.67655
670.764,30.9016,-3.13472,0.23798,0.67602
671.464,30.92466,-3.13472,0.23593,0.6755
672.164,30.94787,-3.13472,0.23674,0.67498
672.864,30.9711,-3.13473,0.23746,0.67445
673.564,30.99427,-3.13606,0.23944,0.67393
674.264,31.0174,-3.13603,0.23979,0.67341
674.964,31.04052,-3.13704,0.24146,0.67288
675.664,31.06375,-3.13702,0.24142,0.67236
676.364,31.08685,-3.13702,0.2396,0.67184
677.064,31.11003,-3.13661,0.23976,0.67131
677.764,31.1331,-3.13713,0.24112,0.67079
678.464,31.15633,-3.13713,0.24223,0.67027
679.164,31.17949,-3.13711,0.23947,0.66974
679.864,31.2025,-3.13843,0.24362,0.66922
680.564,31.22563,-3.13934,0.24426,0.66869
681.264,31.24877,-3.13976,0.24569,0.66817
681.964,31.272,-3.13976,0.24181,0.66764
682.664,31.29522,-3.14065,0.24524,0.66712
683.364,31.31839,-3.14108,0.24464,0.6666
684.064,31.34163,-3.14108,0.24512,0.66607
684.764,31.36488,-3.14108,0.24338,0.66555
685.464,31.3881,-3.14111,0.2455,0.66502
686.164,31.4113,-3.1424,0.24485,0.6645
686.864,31.4345,-3.14238,0.24584,0.66397
687.564,31.4576,-3.14364,0.24784,0.66345
688.264,31.48084,-3.14371,0.24528,0.66292
688.964,31.50405,-3.14371,0.24469,0.6624
689.664,31.52727,-3.14371,0.24456,0.66187
690.364,31.5506,-3.14495,0.24491,0.66135
691.064,31.57377,-3.14503,0.24654,0.66082
691.764,31.597,-3.14503,0.2457,0.6603
692.464,31.62,-3.14503,0.24653,0.65977
693.164,31.643,-3.14369,0.24983,0.65925
693.864,31.6662,-3.14372,0.249,0.65872
694.564,31.68945,-3.14507,0.25166,0.6582
695.264,31.7129,-3.14502,0.25367,0.65767
695.964,31.73612,-3.14498,0.25255,0.65715
696.664,31.75931,-3.14635,0.25102,0.65662
697.364,31.7825,-3.14634,0.25385,0.6561
698.064,31.80568,-3.14634,0.2555,0.65557
698.764,31.8289,-3.14634,0.25406,0.65504
699.464,31.8521,-3.14633,0.25574,0.65452
700.164,31.87538,-3.14473,0.25471,0.65399
700.864,31.89865,-3.1448,0.25299,0.65347
701.564,31.9219,-3.14492,0.25562,0.65294
702.264,31.9452,-3.14634,0.25461,0.65242
702.964,31.96844,-3.14749,0.25621,0.65189
703.664,31.9916,-3.14777,0.25681,0.65136
704.364,32.01481,-3.14886,0.25815,0.65084
705.064,32.03808,-3.14909,0.25836,0.65031
705.764,32.06129,-3.15017,0.25831,0.64978
706.464,32.08457,-3.1504,0.25981,0.64926
707.164,32.10787,-3.14999,0.25716,0.64873
707.864,32.13118,-3.14943,0.26108,0.64821
708.564,32.15446,-3.14908,0.25948,0.64768
709.264,32.1777,-3.15041,0.25955,0.64715
709.964,32.20093,-3.15051,0.25981,0.64663
710.664,32.22417,-3.15165,0.26206,0.6461
711.364,32.2475,-3.15183,0.26012,0.64557
712.064,32.27078,-3.15183,0.26198,0.64505
712.764,32.29417,-3.15183,0.26106,0.64452
713.464,32.3175,-3.15183,0.26321,0.64399
714.164,32.34077,-3.15183,0.26243,0.64346
714.864,32.36403,-3.15217,0.26472,0.64294
715.564,32.38731,-3.15315,0.26701,0.64241
716.264,32.41065,-3.15315,0.26456,0.64188
716.964,32.43397,-3.15315,0.26771,0.64136
717.664,32.45729,-3.15316,0.26728,0.64083
718.364,32.48057,-3.15448,0.26554,0.6403
719.064,32.5038,-3.15445,0.26509,0.63977
719.764,32.5271,-3.15345,0.26525,0.63925
720.464,32.55046,-3.15346,0.2639,0.63872
721.164,32.57382,-3.15314,0.26799,0.63819
721.864,32.59709,-3.15327,0.26499,0.63767
722.564,32.62036,-3.15446,0.27021,0.63714
723.264,32.64359,-3.15446,0.26957,0.63661
723.964,32.66698,-3.15446,0.2697,0.63608
724.664,32.69027,-3.15446,0.27119,0.63555
725.364,32.71367,-3.15446,0.27272,0.63503
726.064,32.73695,-3.15554,0.26895,0.6345
726.764,32.76032,-3.15543,0.274,0.63397
727.464,32.7836,-3.15544,0.26945,0.63344
728.164,32.80689,-3.15544,0.27112,0.63292
728.864,32.83024,-3.15444,0.27389,0.63239
729.564,32.8536,-3.15546,0.27331,0.63186
730.264,32.877,-3.15577,0.27043,0.63133
730.964,32.90036,-3.15577,0.27419,0.6308
731.664,32.9237,-3.15577,0.27382,0.63028
732.364,32.94706,-3.15577,0.2755,0.62975
733.064,32.97039,-3.15609,0.27513,0.62922
733.764,32.99373,-3.15742,0.27809,0.62869
734.464,33.0171,-3.15742,0.27485,0.62816
735.164,33.0404,-3.15742,0.27591,0.62763
735.864,33.06373,-3.15742,0.27321,0.62711
736.564,33.08702,-3.15843,0.27654,0.62658
737.264,33.11038,-3.15873,0.27739,0.62605
737.964,33.13377,-3.15873,0.27356,0.62552
738.664,33.15712,-3.15873,0.27618,0.62499
739.364,33.18042,-3.15873,0.2772,0.62446
740.064,33.20374,-3.15868,0.27618,0.62394
740.764,33.2271,-3.16004,0.28008,0.62341
741.464,33.25059,-3.16005,0.2775,0.62288
742.164,33.274,-3.16005,0.27787,0.62235
742.864,33.29732,-3.16038,0.27835,0.62182
743.564,33.3207,-3.16034,0.27237,0.62129
744.264,33.34407,-3.16006,0.27296,0.62076
744.964,33.36748,-3.16006,0.27041,0.62023
745.664,33.39089,-3.16119,0.27185,0.61971
746.364,33.41428,-3.16137,0.27197,0.61918
747.064,33.43761,-3.16137,0.27062,0.61865
747.764,33.46092,-3.16137,0.27101,0.61812
748.464,33.48431,-3.16138,0.27118,0.61759
749.164,33.5077,-3.16244,0.26976,0.61706
749.864,33.5311,-3.16269,0.27042,0.61653
750.564,33.55447,-3.16224,0.26704,0.616
751.264,33.57779,-3.1617,0.26642,0.61547
751.964,33.60116,-3.1617,0.26681,0.61494
752.664,33.62454,-3.16165,0.26943,0.61442
753.364,33.64795,-3.163,0.26917,0.61389
754.064,33.67132,-3.16301,0.27185,0.61336
754.764,33.69474,-3.16301,0.27101,0.61283
755.464,33.7181,-3.16301,0.2686,0.6123
756.164,33.7415,-3.16301,0.26737,0.61177
756.864,33.76482,-3.16344,0.26521,0.61124
757.564,33.78824,-3.16433,0.26724,0.61071
758.264,33.8117,-3.16433,0.26822,0.61018
758.964,33.83518,-3.16433,0.26736,0.60965
759.664,33.85861,-3.16433,0.26955,0.60912
760.364,33.88199,-3.16433,0.26783,0.60859
761.064,33.90542,-3.16433,0.26675,0.60806
761.764,33.92883,-3.16448,0.26569,0.60753
762.464,33.95224,-3.16565,0.26342,0.607
763.164,33.97565,-3.16564,0.2617,0.60647
763.864,33.99905,-3.16694,0.26177,0.60594
764.564,34.0225,-3.16696,0.25975,0.60541
765.264,34.04586,-3.16696,0.26381,0.60488
765.964,34.06917,-3.16696,0.26066,0.60436
766.664,34.09254,-3.16723,0.26231,0.60383
767.364,34.11586,-3.16827,0.2612,0.6033
768.064,34.13928,-3.16828,0.2631,0.60277
768.764,34.16263,-3.16828,0.25984,0.60224
769.464,34.1861,-3.16828,0.25909,0.60171
770.164,34.2095,-3.16828,0.26016,0.60118
770.864,34.23305,-3.16828,0.25595,0.60065
771.564,34.25649,-3.16823,0.25813,0.60012
772.264,34.27985,-3.1696,0.25542,0.59959
772.964,34.3033,-3.1696,0.2556,0.59906
773.664,34.32675,-3.17059,0.2543,0.59853
774.364,34.3502,-3.17091,0.25639,0.598
775.064,34.37365,-3.17091,0.25597,0.59747
775.764,34.397,-3.17059,0.2558,0.59694
776.464,34.42044,-3.17095,0.25943,0.59641
777.164,34.4439,-3.1719,0.25378,0.59588
777.864,34.4673,-3.17191,0.25447,0.59535
778.564,34.49077,-3.17136,0.25513,0.59482
779.264,34.51427,-3.17198,0.25556,0.59429
779.964,34.53772,-3.17222,0.25184,0.59376
780.664,34.56114,-3.17222,0.25058,0.59323
781.364,34.5846,-3.17219,0.24927,0.5927
782.064,34.60807,-3.17255,0.247,0.59217
782.764,34.63153,-3.17274,0.25106,0.59164
783.464,34.65504,-3.17372,0.24955,0.59111
784.164,34.67843,-3.17321,0.24459,0.59058
784.864,34.70189,-3.17321,0.2466,0.59005
785.564,34.7254,-3.17321,0.24927,0.58952
786.264,34.74884,-3.17321,0.24745,0.58899
786.964,34.7723,-3.17321,0.24556,0.58846
787.664,34.7957,-3.17416,0.24859,0.58793
788.364,34.81908,-3.17453,0.24481,0.5874
789.064,34.84251,-3.17453,0.24491,0.58687
789.764,34.86595,-3.17453,0.2474,0.58634
790.464,34.88941,-3.17453,0.24578,0.5858
791.164,34.91291,-3.17453,0.24249,0.58527
791.864,34.93639,-3.17453,0.24141,0.58474
792.564,34.9599,-3.17453,0.2427,0.58421
793.264,34.98342,-3.17383,0.24318,0.58368
793.664,34.997,-3.17492,0.24377,0.58338