File: 01_Data/Triexta_Carpet_High_Pile/STA/N2/30K_min/Triexta_Carpet_High_Pile_STA_N2_30KData_220111_R2.csv
##Temp./Â°C,Time/min,Mass loss(subtr.2)/mg,DSC(subtr.2)/(mW/mg),Sensit./(uV/mW)
48.569,10.01,-0.01712,-0.00125767,1.06963
49.369,10.57493,-0.01824142,0.0203183,1.06956
50.169,10.7062,-0.01932176,0.04218641,1.06949
50.969,10.8009,-0.01801619,0.06208276,1.06941
51.769,10.87836,-0.0177674,0.08073004,1.06934
52.569,10.9453,-0.01800416,0.09474669,1.06926
53.369,11.0049,-0.01878543,0.11238,1.06918
54.169,11.06024,-0.01908035,0.12749,1.0691
54.969,11.11163,-0.0180209,0.14236,1.06902
55.769,11.1601,-0.01942191,0.15374,1.06893
56.569,11.20545,-0.01873827,0.1663,1.06885
57.369,11.24885,-0.02000704,0.1789,1.06876
58.169,11.29107,-0.01985805,0.19029,1.06867
58.969,11.3316,-0.02007202,0.20017,1.06858
59.769,11.37082,-0.02028781,0.20763,1.06848
60.569,11.40898,-0.01982247,0.21579,1.06839
61.369,11.44598,-0.02004986,0.22341,1.06829
62.169,11.48219,-0.02046805,0.22762,1.06819
62.969,11.51764,-0.0202144,0.23581,1.06809
63.769,11.55262,-0.0201984,0.23993,1.06799
64.569,11.58693,-0.01924494,0.24369,1.06789
65.369,11.62095,-0.01919745,0.24598,1.06778
66.169,11.65426,-0.01918868,0.25069,1.06767
66.969,11.68717,-0.01943364,0.25515,1.06756
67.769,11.71948,-0.02011503,0.25726,1.06745
68.569,11.75146,-0.01934327,0.25978,1.06734
69.369,11.78312,-0.02012323,0.26076,1.06722
70.169,11.81452,-0.02041207,0.2655,1.06711
70.969,11.84563,-0.02028723,0.26768,1.06699
71.769,11.87647,-0.01989419,0.26951,1.06687
72.569,11.9069,-0.01998255,0.27172,1.06675
73.369,11.93727,-0.0206491,0.27291,1.06662
74.169,11.96738,-0.02092374,0.27752,1.0665
74.969,11.9975,-0.01973754,0.27878,1.06637
75.769,12.0273,-0.01969912,0.28358,1.06624
76.569,12.05706,-0.02059048,0.28671,1.06611
77.369,12.08656,-0.02192693,0.28728,1.06598
78.169,12.11593,-0.02266517,0.29154,1.06585
78.969,12.14512,-0.02156901,0.29354,1.06571
79.769,12.1741,-0.02188065,0.29417,1.06558
80.569,12.20303,-0.02202098,0.29821,1.06544
81.369,12.2319,-0.02211254,0.29822,1.0653
82.169,12.2605,-0.022173,0.30223,1.06515
82.969,12.289,-0.02172292,0.30118,1.06501
83.769,12.31731,-0.02184454,0.30298,1.06486
84.569,12.34575,-0.02223182,0.30611,1.06472
85.369,12.37407,-0.02193988,0.30921,1.06457
86.169,12.40221,-0.02192197,0.31205,1.06442
86.969,12.43023,-0.02301542,0.31277,1.06426
87.769,12.4581,-0.02329189,0.31568,1.06411
88.569,12.48602,-0.02225815,0.3175,1.06395
89.369,12.5139,-0.02209136,0.3216,1.06379
90.169,12.54161,-0.02207937,0.32192,1.06364
90.969,12.5692,-0.02200697,0.32285,1.06347
91.769,12.59688,-0.02220433,0.32577,1.06331
92.569,12.6244,-0.02203801,0.3269,1.06315
93.369,12.65195,-0.02262487,0.32961,1.06298
94.169,12.67939,-0.0223305,0.3297,1.06281
94.969,12.7067,-0.02334898,0.33208,1.06264
95.769,12.7341,-0.02317729,0.33489,1.06247
96.569,12.7615,-0.02348228,0.33617,1.0623
97.369,12.78872,-0.02348407,0.33778,1.06212
98.169,12.81585,-0.02219225,0.33975,1.06195
98.969,12.84292,-0.02321698,0.34082,1.06177
99.769,12.87007,-0.02348394,0.34251,1.06159
100.569,12.89723,-0.02348221,0.34616,1.06141
101.369,12.92436,-0.02269556,0.34845,1.06122
102.169,12.95139,-0.02215374,0.34958,1.06104
102.969,12.97835,-0.02336182,0.35058,1.06085
103.769,13.00545,-0.02348615,0.35126,1.06066
104.569,13.03253,-0.02347888,0.35541,1.06048
105.369,13.05955,-0.02318597,0.35573,1.06028
106.169,13.08641,-0.02229472,0.35707,1.06009
106.969,13.1134,-0.02343069,0.36087,1.0599
107.769,13.14035,-0.02380051,0.36342,1.0597
108.569,13.16741,-0.02348464,0.36459,1.0595
109.369,13.19426,-0.02347956,0.36836,1.0593
110.169,13.2211,-0.02348348,0.36788,1.0591
110.969,13.24796,-0.02400379,0.37,1.0589
111.769,13.27481,-0.02321041,0.3714,1.05869
112.569,13.30155,-0.02348312,0.37243,1.05849
113.369,13.3284,-0.02348141,0.3776,1.05828
114.169,13.3552,-0.02338724,0.37876,1.05807
114.969,13.38205,-0.02480498,0.37953,1.05786
115.769,13.40891,-0.02455417,0.38076,1.05765
116.569,13.43571,-0.02443879,0.38124,1.05743
117.369,13.46246,-0.02480586,0.38509,1.05721
118.169,13.48906,-0.02480031,0.38475,1.057
118.969,13.51576,-0.02477408,0.38787,1.05678
119.769,13.54243,-0.02364616,0.39071,1.05656
120.569,13.569,-0.0234802,0.39085,1.05633
121.369,13.59559,-0.02349329,0.39432,1.05611
122.169,13.6221,-0.02430318,0.39647,1.05588
122.969,13.6486,-0.02478638,0.39823,1.05566
123.769,13.67506,-0.02478373,0.39896,1.05543
124.569,13.70139,-0.02616855,0.40364,1.0552
125.369,13.72785,-0.02601052,0.4033,1.05496
126.169,13.75415,-0.02620721,0.40479,1.05473
126.969,13.7806,-0.02611905,0.4054,1.0545
127.769,13.80686,-0.02479279,0.40876,1.05426
128.569,13.8331,-0.02512447,0.41179,1.05402
129.369,13.85936,-0.02543243,0.41248,1.05378
130.169,13.8856,-0.02596723,0.41526,1.05354
130.969,13.91182,-0.02611199,0.41736,1.05329
131.769,13.93796,-0.02611008,0.41755,1.05305
132.569,13.964,-0.02611004,0.41992,1.0528
133.369,13.9901,-0.02610997,0.4225,1.05256
134.169,14.0161,-0.02607449,0.4242,1.05231
134.969,14.042,-0.02823394,0.425,1.05205
135.769,14.06797,-0.02840969,0.4279,1.0518
136.569,14.09385,-0.02841002,0.42982,1.05155
137.369,14.1198,-0.02841,0.43212,1.05129
138.169,14.1456,-0.02841001,0.43689,1.05103
138.969,14.1715,-0.02840986,0.4386,1.05077
139.769,14.19728,-0.02840343,0.43982,1.05051
140.569,14.22306,-0.02982336,0.44339,1.05025
141.369,14.24886,-0.02973146,0.44775,1.04999
142.169,14.27464,-0.02972987,0.44988,1.04972
142.969,14.3003,-0.02973,0.45174,1.04946
143.769,14.32594,-0.02973,0.4554,1.04919
144.569,14.3516,-0.02973002,0.45859,1.04892
145.369,14.3772,-0.02973094,0.46143,1.04865
146.169,14.40286,-0.02969978,0.46501,1.04837
146.969,14.4284,-0.03098035,0.46764,1.0481
147.769,14.4539,-0.03104367,0.47013,1.04782
148.569,14.47936,-0.03104003,0.47622,1.04755
149.369,14.50489,-0.03104,0.47959,1.04727
150.169,14.5304,-0.03103996,0.48537,1.04699
150.969,14.5559,-0.03103286,0.48703,1.0467
151.769,14.58121,-0.03241534,0.4895,1.04642
152.569,14.6066,-0.03236477,0.49667,1.04613
153.369,14.6319,-0.03235987,0.50197,1.04585
154.169,14.65726,-0.03235907,0.50737,1.04556
154.969,14.68266,-0.03238753,0.51473,1.04527
155.769,14.708,-0.03112268,0.52058,1.04498
156.569,14.7333,-0.03103749,0.52903,1.04469
157.369,14.75855,-0.03126324,0.53757,1.04439
158.169,14.7839,-0.03233401,0.54306,1.0441
158.969,14.80918,-0.03235978,0.55317,1.0438
159.769,14.8344,-0.03235388,0.5608,1.0435
160.569,14.8597,-0.03234444,0.56859,1.0432
161.369,14.885,-0.0338516,0.57763,1.0429
162.169,14.9102,-0.03401028,0.58444,1.0426
162.969,14.9354,-0.03401015,0.59342,1.04229
163.769,14.96069,-0.03401,0.59861,1.04198
164.569,14.98589,-0.03401,0.60404,1.04168
165.369,15.0111,-0.03400999,0.60678,1.04137
166.169,15.0362,-0.0340095,0.60761,1.04106
166.969,15.06135,-0.03401743,0.60814,1.04075
167.769,15.08649,-0.03539872,0.60304,1.04043
168.569,15.1117,-0.03532865,0.60297,1.04012
169.369,15.13674,-0.03532991,0.59957,1.0398
170.169,15.16184,-0.03533,0.59829,1.03948
170.969,15.1869,-0.03533001,0.5939,1.03916
171.769,15.21195,-0.03532981,0.59393,1.03884
172.569,15.237,-0.03532308,0.59414,1.03852
173.369,15.262,-0.03672911,0.58903,1.0382
174.169,15.287,-0.03665617,0.58943,1.03787
174.969,15.31197,-0.03660945,0.59071,1.03755
175.769,15.3369,-0.03769825,0.59135,1.03722
176.569,15.36185,-0.03759382,0.59105,1.03689
177.369,15.3868,-0.03891211,0.59042,1.03656
178.169,15.4116,-0.03894035,0.59374,1.03623
178.969,15.43648,-0.03894003,0.59494,1.03589
179.769,15.4613,-0.03894,0.59863,1.03556
180.569,15.486,-0.03894,0.60063,1.03522
181.369,15.51091,-0.03894,0.60538,1.03488
182.169,15.5358,-0.03894,0.60928,1.03454
182.969,15.5607,-0.03894,0.61175,1.0342
183.769,15.58557,-0.03893999,0.61596,1.03386
184.569,15.61026,-0.03894003,0.6213,1.03352
185.369,15.6349,-0.03894878,0.62717,1.03317
186.169,15.65966,-0.0392624,0.62982,1.03283
186.969,15.6844,-0.03932166,0.63663,1.03248
187.769,15.7091,-0.04060538,0.64163,1.03213
188.569,15.73381,-0.04061298,0.64875,1.03178
189.369,15.7585,-0.04169235,0.65452,1.03143
190.169,15.7831,-0.04255255,0.66182,1.03107
190.969,15.8078,-0.04258167,0.66666,1.03072
191.769,15.8324,-0.04371397,0.67494,1.03036
192.569,15.857,-0.04387891,0.68328,1.03
193.369,15.88165,-0.04387987,0.68869,1.02965
194.169,15.9061,-0.04387299,0.6965,1.02929
194.969,15.93069,-0.0439243,0.70546,1.02892
195.769,15.9553,-0.04520633,0.71526,1.02856
196.569,15.9801,-0.0452,0.7241,1.0282
197.369,16.0047,-0.04519979,0.73341,1.02783
198.169,16.02935,-0.04519892,0.74404,1.02746
198.969,16.0539,-0.04617217,0.75288,1.0271
199.769,16.0784,-0.04715848,0.76643,1.02673
200.569,16.10298,-0.04845317,0.77797,1.02636
201.369,16.12754,-0.04987695,0.7941,1.02598
202.169,16.1521,-0.05006575,0.80426,1.02561
202.969,16.1766,-0.05120956,0.8189,1.02523
203.769,16.20107,-0.0501678,0.83624,1.02486
204.569,16.22564,-0.05084078,0.85221,1.02448
205.369,16.25027,-0.05123113,0.86976,1.0241
206.169,16.27485,-0.05129237,0.89129,1.02372
206.969,16.2994,-0.05254831,0.91337,1.02334
207.769,16.32392,-0.05272908,0.93776,1.02296
208.569,16.34841,-0.05387701,0.96374,1.02257
209.369,16.3729,-0.05380343,0.99649,1.02219
210.169,16.39738,-0.05514907,1.02984,1.0218
210.969,16.42191,-0.0551825,1.06821,1.02141
211.769,16.44639,-0.05656148,1.10376,1.02102
212.569,16.47097,-0.05647234,1.13273,1.02063
213.369,16.49548,-0.05776302,1.15783,1.02024
214.169,16.52,-0.05780865,1.17604,1.01985
214.969,16.54456,-0.05649471,1.18689,1.01945
215.769,16.56906,-0.05675872,1.19565,1.01905
216.569,16.59355,-0.0577417,1.20648,1.01866
217.369,16.61801,-0.05896221,1.21893,1.01826
218.169,16.64246,-0.06045651,1.23463,1.01786
218.969,16.6669,-0.06084966,1.25911,1.01746
219.769,16.6914,-0.06173948,1.29398,1.01706
220.569,16.716,-0.06165273,1.33962,1.01665
221.369,16.7405,-0.06307183,1.39585,1.01625
222.169,16.765,-0.0630722,1.4536,1.01584
222.969,16.7894,-0.06307835,1.50607,1.01543
223.769,16.81384,-0.06428192,1.54689,1.01502
224.569,16.8383,-0.06432116,1.56797,1.01461
225.369,16.86276,-0.0658424,1.57279,1.0142
226.169,16.88725,-0.06652883,1.5638,1.01379
226.969,16.9117,-0.06709757,1.54859,1.01338
227.769,16.9362,-0.06849234,1.52869,1.01296
228.569,16.96067,-0.06928875,1.5104,1.01255
229.369,16.98511,-0.07121831,1.4913,1.01213
230.169,17.0096,-0.07248543,1.47126,1.01171
230.969,17.034,-0.07251854,1.45343,1.01129
231.769,17.0584,-0.07272702,1.43699,1.01087
232.569,17.0828,-0.07379183,1.42124,1.01045
233.369,17.10714,-0.07372744,1.40849,1.01002
234.169,17.13146,-0.07514088,1.39949,1.0096
234.969,17.15576,-0.07488356,1.39365,1.00917
235.769,17.18011,-0.07536172,1.3909,1.00874
236.569,17.20443,-0.07691255,1.39246,1.00832
237.369,17.22889,-0.07848098,1.39925,1.00789
238.169,17.2532,-0.07879808,1.41063,1.00746
238.969,17.27755,-0.07993196,1.42579,1.00702
239.769,17.30185,-0.082023,1.44298,1.00659
240.569,17.32605,-0.08445899,1.46904,1.00616
241.369,17.35031,-0.08635218,1.49719,1.00572
242.169,17.3746,-0.08760965,1.53027,1.00528
242.969,17.39902,-0.08896007,1.56793,1.00485
243.769,17.4234,-0.08984275,1.61202,1.00441
244.569,17.44784,-0.09141909,1.66141,1.00397
245.369,17.4722,-0.09193426,1.71047,1.00352
246.169,17.49651,-0.09311263,1.76329,1.00308
246.969,17.52085,-0.09460497,1.81388,1.00264
247.769,17.5452,-0.09508421,1.85767,1.00219
248.569,17.5696,-0.09637149,1.89589,1.00175
249.369,17.594,-0.09861589,1.93229,1.0013
250.169,17.61833,-0.10216,1.96907,1.00085
250.969,17.64271,-0.10398,2.00621,1.0004
251.769,17.6671,-0.10548,2.0399,0.99995
252.569,17.69148,-0.10734,2.07717,0.9995
253.369,17.7159,-0.10944,2.11822,0.99905
254.169,17.74025,-0.10993,2.15467,0.99859
254.969,17.76463,-0.11175,2.19569,0.99814
255.769,17.789,-0.11407,2.23718,0.99768
256.569,17.81341,-0.1163,2.28166,0.99722
257.369,17.83781,-0.11861,2.32722,0.99676
258.169,17.86219,-0.12138,2.37346,0.9963
258.969,17.88655,-0.12338,2.42191,0.99584
259.769,17.91091,-0.12526,2.47066,0.99538
260.569,17.93529,-0.1284,2.52303,0.99492
261.369,17.95965,-0.13247,2.57428,0.99445
262.169,17.98387,-0.13509,2.62875,0.99399
262.969,18.0082,-0.13791,2.68203,0.99352
263.769,18.03252,-0.14043,2.73645,0.99305
264.569,18.05688,-0.14377,2.79176,0.99258
265.369,18.08128,-0.14834,2.84668,0.99211
266.169,18.10567,-0.15225,2.89816,0.99164
266.969,18.13007,-0.15599,2.95521,0.99117
267.769,18.1545,-0.15929,3.00646,0.9907
268.569,18.17897,-0.16235,3.05537,0.99022
269.369,18.20334,-0.16577,3.1053,0.98975
270.169,18.22769,-0.16913,3.15138,0.98927
270.969,18.25206,-0.17375,3.19577,0.9888
271.769,18.27636,-0.17811,3.23584,0.98832
272.569,18.3007,-0.1824,3.27533,0.98784
273.369,18.3251,-0.18685,3.31111,0.98736
274.169,18.34948,-0.19036,3.34369,0.98687
274.969,18.3739,-0.19391,3.36842,0.98639
275.769,18.3983,-0.19789,3.39056,0.98591
276.569,18.42258,-0.20313,3.40626,0.98542
277.369,18.44695,-0.2075,3.41622,0.98494
278.169,18.47136,-0.21066,3.42045,0.98445
278.969,18.4957,-0.21381,3.41641,0.98396
279.769,18.5203,-0.21734,3.40215,0.98347
280.569,18.54475,-0.22074,3.38391,0.98298
281.369,18.5691,-0.22471,3.35074,0.98249
282.169,18.5934,-0.22824,3.31164,0.982
282.969,18.61775,-0.23223,3.25651,0.98151
283.769,18.64201,-0.23484,3.19521,0.98101
284.569,18.66633,-0.23767,3.12608,0.98052
285.369,18.69063,-0.24083,3.04575,0.98002
286.169,18.71484,-0.24357,2.95731,0.97952
286.969,18.7391,-0.24605,2.85916,0.97903
287.769,18.7633,-0.24918,2.76401,0.97853
288.569,18.7875,-0.25199,2.66219,0.97803
289.369,18.81146,-0.25619,2.55869,0.97753
290.169,18.83558,-0.2581,2.46049,0.97702
290.969,18.85973,-0.25962,2.35856,0.97652
291.769,18.8839,-0.2601,2.26431,0.97602
292.569,18.90825,-0.26157,2.17071,0.97551
293.369,18.9324,-0.2638,2.08421,0.97501
294.169,18.9565,-0.26555,1.99981,0.9745
294.969,18.9806,-0.2681,1.92114,0.97399
295.769,19.00475,-0.26968,1.84684,0.97348
296.569,19.02882,-0.27085,1.7778,0.97297
297.369,19.05292,-0.27095,1.71104,0.97246
298.169,19.077,-0.27243,1.64771,0.97195
298.969,19.10107,-0.27482,1.59264,0.97144
299.769,19.12515,-0.27522,1.53962,0.97092
300.569,19.14922,-0.27663,1.488,0.97041
301.369,19.17331,-0.27694,1.43905,0.96989
302.169,19.19741,-0.2782,1.39518,0.96937
302.969,19.2215,-0.27928,1.35709,0.96886
303.769,19.2456,-0.2795,1.3179,0.96834
304.569,19.26974,-0.28102,1.28353,0.96782
305.369,19.29382,-0.28134,1.25066,0.9673
306.169,19.31794,-0.2812,1.22034,0.96678
306.969,19.34204,-0.28139,1.19217,0.96625
307.769,19.36618,-0.28253,1.16955,0.96573
308.569,19.39031,-0.2849,1.14356,0.96521
309.369,19.41441,-0.28521,1.12555,0.96468
310.169,19.4386,-0.28661,1.10397,0.96416
310.969,19.46271,-0.28727,1.08638,0.96363
311.769,19.48688,-0.28816,1.06976,0.9631
312.569,19.51101,-0.28919,1.05512,0.96257
313.369,19.5352,-0.28884,1.04072,0.96204
314.169,19.55934,-0.28843,1.02776,0.96151
314.969,19.5835,-0.28943,1.01668,0.96098
315.769,19.60773,-0.28946,1.00532,0.96045
316.569,19.6319,-0.28942,0.99686,0.95991
317.369,19.6561,-0.29073,0.9888,0.95938
318.169,19.6803,-0.29212,0.98284,0.95885
318.969,19.70457,-0.2921,0.97549,0.95831
319.769,19.7288,-0.29334,0.96744,0.95777
320.569,19.75316,-0.29344,0.96341,0.95723
321.369,19.7774,-0.29386,0.95706,0.9567
322.169,19.80162,-0.29473,0.95239,0.95616
322.969,19.8259,-0.29527,0.94962,0.95562
323.769,19.8502,-0.29538,0.94609,0.95508
324.569,19.87442,-0.29527,0.94271,0.95453
325.369,19.89869,-0.29593,0.9372,0.95399
326.169,19.92298,-0.29638,0.93741,0.95345
326.969,19.94719,-0.29637,0.93683,0.9529
327.769,19.97155,-0.29776,0.93446,0.95236
328.569,19.9959,-0.29765,0.93133,0.95181
329.369,20.02027,-0.29913,0.93009,0.95126
330.169,20.04464,-0.29955,0.92782,0.95072
330.969,20.06889,-0.30043,0.92823,0.95017
331.769,20.09319,-0.30069,0.92611,0.94962
332.569,20.11755,-0.30175,0.92469,0.94907
333.369,20.14189,-0.30366,0.92488,0.94852
334.169,20.1663,-0.30437,0.92435,0.94796
334.969,20.19067,-0.30573,0.92214,0.94741
335.769,20.21503,-0.30577,0.92227,0.94686
336.569,20.2394,-0.30703,0.92578,0.9463
337.369,20.2638,-0.30802,0.92218,0.94575
338.169,20.2882,-0.30858,0.92224,0.94519
338.969,20.31261,-0.31117,0.9206,0.94464
339.769,20.33705,-0.31132,0.92167,0.94408
340.569,20.3614,-0.31248,0.92101,0.94352
341.369,20.38581,-0.31258,0.92455,0.94296
342.169,20.41027,-0.31218,0.92359,0.9424
342.969,20.43475,-0.31249,0.92407,0.94184
343.769,20.4592,-0.31387,0.92618,0.94128
344.569,20.4837,-0.31425,0.92429,0.94072
345.369,20.50816,-0.31537,0.92545,0.94015
346.169,20.53257,-0.31538,0.92618,0.93959
346.969,20.55707,-0.31673,0.92665,0.93902
347.769,20.5816,-0.31716,0.92912,0.93846
348.569,20.60609,-0.3181,0.92902,0.93789
349.369,20.63065,-0.31913,0.9294,0.93733
350.169,20.65514,-0.31935,0.92886,0.93676
350.969,20.67955,-0.32029,0.92831,0.93619
351.769,20.70412,-0.32064,0.9304,0.93562
352.569,20.72863,-0.32173,0.93244,0.93505
353.369,20.75314,-0.32166,0.93437,0.93448
354.169,20.77773,-0.32301,0.93519,0.93391
354.969,20.80225,-0.32312,0.93689,0.93334
355.769,20.82676,-0.32504,0.94094,0.93276
356.569,20.8513,-0.32709,0.94258,0.93219
357.369,20.87581,-0.32802,0.94358,0.93161
358.169,20.90033,-0.32932,0.94267,0.93104
358.969,20.92492,-0.33052,0.94768,0.93046
359.769,20.94949,-0.3318,0.94633,0.92989
360.569,20.9741,-0.33309,0.94843,0.92931
361.369,20.99868,-0.33465,0.94946,0.92873
362.169,21.0233,-0.33501,0.95157,0.92815
362.969,21.04794,-0.33481,0.9547,0.92757
363.769,21.0726,-0.33502,0.95495,0.92699
364.569,21.0972,-0.33643,0.95982,0.92641
365.369,21.12185,-0.33823,0.96518,0.92583
366.169,21.14641,-0.33979,0.96735,0.92525
366.969,21.171,-0.34162,0.97198,0.92467
367.769,21.1956,-0.34343,0.97461,0.92408
368.569,21.22029,-0.34498,0.97829,0.9235
369.369,21.24486,-0.3469,0.98141,0.92291
370.169,21.26954,-0.34835,0.98596,0.92233
370.969,21.29423,-0.3518,0.99147,0.92174
371.769,21.3189,-0.35387,0.9977,0.92116
372.569,21.34364,-0.35651,1.00098,0.92057
373.369,21.36836,-0.35948,1.00828,0.91998
374.169,21.39303,-0.36252,1.01238,0.91939
374.969,21.41766,-0.3655,1.02037,0.9188
375.769,21.44237,-0.36766,1.027,0.91821
376.569,21.46707,-0.36998,1.0362,0.91762
377.369,21.4918,-0.37298,1.04235,0.91703
378.169,21.51654,-0.37576,1.04791,0.91644
378.969,21.54123,-0.37748,1.05924,0.91584
379.769,21.5659,-0.38053,1.06764,0.91525
380.569,21.59075,-0.38443,1.07573,0.91466
381.369,21.61553,-0.38824,1.08344,0.91406
382.169,21.64034,-0.39261,1.0915,0.91347
382.969,21.66515,-0.39635,1.10098,0.91287
383.769,21.68998,-0.3997,1.11183,0.91227
384.569,21.7148,-0.4036,1.12148,0.91168
385.369,21.7395,-0.40818,1.13257,0.91108
386.169,21.7643,-0.41288,1.14312,0.91048
386.969,21.78914,-0.4179,1.15629,0.90988
387.769,21.814,-0.4235,1.16816,0.90928
388.569,21.83892,-0.42843,1.18188,0.90868
389.369,21.86373,-0.43323,1.19138,0.90808
390.169,21.88855,-0.4395,1.20698,0.90748
390.969,21.9134,-0.44653,1.22177,0.90688
391.769,21.93835,-0.45367,1.2357,0.90627
392.569,21.96321,-0.46031,1.25016,0.90567
393.369,21.98811,-0.46765,1.26845,0.90507
394.169,22.01295,-0.4752,1.28598,0.90446
394.969,22.03783,-0.48381,1.30075,0.90386
395.769,22.06276,-0.49166,1.31965,0.90325
396.569,22.08764,-0.49898,1.33716,0.90264
397.369,22.11255,-0.50864,1.36078,0.90204
398.169,22.13746,-0.51761,1.37681,0.90143
398.969,22.16239,-0.52725,1.4012,0.90082
399.769,22.18733,-0.53815,1.42154,0.90021
400.569,22.21229,-0.54843,1.44482,0.8996
401.369,22.23722,-0.56062,1.4681,0.89899
402.169,22.26217,-0.57315,1.49655,0.89838
402.969,22.2871,-0.58588,1.51853,0.89777
403.769,22.31212,-0.60032,1.54681,0.89716
404.569,22.33718,-0.61302,1.57464,0.89655
405.369,22.36221,-0.62757,1.60451,0.89594
406.169,22.38725,-0.6442,1.63345,0.89533
406.969,22.41224,-0.65823,1.66311,0.89471
407.769,22.43721,-0.67465,1.69527,0.8941
408.569,22.46225,-0.69124,1.72703,0.89348
409.369,22.4873,-0.70801,1.76056,0.89287
410.169,22.51236,-0.7278,1.793,0.89225
410.969,22.53751,-0.74591,1.82735,0.89164
411.769,22.56264,-0.76648,1.86285,0.89102
412.569,22.58781,-0.7883,1.89971,0.8904
413.369,22.61286,-0.80791,1.93404,0.88979
414.169,22.63794,-0.83125,1.97239,0.88917
414.969,22.66292,-0.854,2.00497,0.88855
415.769,22.68798,-0.87609,2.04316,0.88793
416.569,22.71296,-0.90209,2.07585,0.88731
417.369,22.738,-0.92508,2.1088,0.88669
418.169,22.76324,-0.95129,2.14354,0.88607
418.969,22.78845,-0.98004,2.1733,0.88545
419.769,22.8138,-1.00622,2.2057,0.88483
420.569,22.83895,-1.03431,2.23422,0.8842
421.369,22.86407,-1.06258,2.25681,0.88358
422.169,22.88919,-1.08959,2.27891,0.88296
422.969,22.91432,-1.12129,2.2993,0.88233
423.769,22.93956,-1.14925,2.31948,0.88171
424.569,22.96473,-1.17873,2.33106,0.88109
425.369,22.9899,-1.21218,2.3396,0.88046
426.169,23.01509,-1.23994,2.34733,0.87984
426.969,23.04034,-1.27162,2.35066,0.87921
427.769,23.06561,-1.30464,2.34972,0.87858
428.569,23.0908,-1.33363,2.34331,0.87796
429.369,23.11589,-1.36661,2.33846,0.87733
430.169,23.14102,-1.39674,2.32611,0.8767
430.969,23.1662,-1.4288,2.30863,0.87607
431.769,23.1915,-1.46338,2.28713,0.87544
432.569,23.21671,-1.49249,2.26063,0.87482
433.369,23.242,-1.52389,2.23162,0.87419
434.169,23.26708,-1.55545,2.19486,0.87356
434.969,23.29222,-1.58329,2.15915,0.87293
435.769,23.3174,-1.61565,2.12111,0.87229
436.569,23.3427,-1.64509,2.08049,0.87166
437.369,23.3679,-1.67096,2.0401,0.87103
438.169,23.39312,-1.70172,1.99884,0.8704
438.969,23.41822,-1.72772,1.95877,0.86977
439.769,23.4432,-1.75464,1.91439,0.86913
440.569,23.4683,-1.78358,1.87499,0.8685
441.369,23.4935,-1.80708,1.83454,0.86787
442.169,23.51876,-1.8331,1.79691,0.86723
442.969,23.54395,-1.85771,1.75667,0.8666
443.769,23.569,-1.8796,1.72017,0.86596
444.569,23.5941,-1.90368,1.68122,0.86533
445.369,23.61926,-1.92426,1.64939,0.86469
446.169,23.6444,-1.94563,1.61447,0.86406
446.969,23.66957,-1.96862,1.58305,0.86342
447.769,23.69473,-1.98715,1.55093,0.86278
448.569,23.71986,-2.00881,1.52147,0.86214
449.369,23.74502,-2.0285,1.49535,0.86151
450.169,23.7702,-2.04557,1.47251,0.86087
450.969,23.79534,-2.06353,1.44775,0.86023
451.769,23.82049,-2.08014,1.42742,0.85959
452.569,23.84563,-2.09638,1.40619,0.85895
453.369,23.8708,-2.11372,1.38859,0.85831
454.169,23.89603,-2.12763,1.36996,0.85767
454.969,23.92119,-2.14195,1.35354,0.85703
455.769,23.94642,-2.15611,1.33269,0.85639
456.569,23.9716,-2.16857,1.31831,0.85575
457.369,23.9969,-2.18183,1.30362,0.85511
458.169,24.0221,-2.19353,1.28356,0.85447
458.969,24.04733,-2.20516,1.26683,0.85382
459.769,24.0726,-2.21663,1.2507,0.85318
460.569,24.09783,-2.22484,1.2327,0.85254
461.369,24.1231,-2.23403,1.21583,0.85189
462.169,24.14835,-2.24386,1.19654,0.85125
462.969,24.17366,-2.25225,1.17983,0.85061
463.769,24.19891,-2.26079,1.16006,0.84996
464.569,24.22419,-2.26863,1.14314,0.84932
465.369,24.24943,-2.27572,1.12381,0.84867
466.169,24.2747,-2.28389,1.11257,0.84803
466.969,24.29999,-2.29157,1.0997,0.84738
467.769,24.32528,-2.29866,1.08489,0.84674
468.569,24.3506,-2.30577,1.06972,0.84609
469.369,24.37593,-2.31179,1.06039,0.84544
470.169,24.40128,-2.31805,1.04821,0.8448
470.969,24.42661,-2.32469,1.04094,0.84415
471.769,24.452,-2.3308,1.02964,0.8435
472.569,24.4773,-2.33762,1.02147,0.84285
473.369,24.50271,-2.34475,1.0132,0.84221
474.169,24.528,-2.35063,1.00543,0.84156
474.969,24.55337,-2.35732,1.00002,0.84091
475.769,24.57871,-2.36254,0.99077,0.84026
476.569,24.6041,-2.3682,0.98397,0.83961
477.369,24.62949,-2.3746,0.97652,0.83896
478.169,24.65485,-2.38107,0.96601,0.83831
478.969,24.6802,-2.38704,0.95885,0.83766
479.769,24.7057,-2.39291,0.95171,0.83701
480.569,24.73113,-2.39857,0.94351,0.83636
481.369,24.75657,-2.40551,0.93139,0.83571
482.169,24.78186,-2.41048,0.92292,0.83506
482.969,24.8073,-2.41634,0.91362,0.8344
483.769,24.8326,-2.42092,0.90448,0.83375
484.569,24.85805,-2.42565,0.89332,0.8331
485.369,24.88361,-2.42979,0.88046,0.83245
486.169,24.90902,-2.43472,0.86673,0.8318
486.969,24.93454,-2.43845,0.85253,0.83114
487.769,24.96,-2.44227,0.83861,0.83049
488.569,24.98545,-2.44579,0.82161,0.82984
489.369,25.0109,-2.44941,0.80603,0.82918
490.169,25.03639,-2.45219,0.78625,0.82853
490.969,25.06184,-2.45471,0.76788,0.82787
491.769,25.08736,-2.45709,0.75018,0.82722
492.569,25.1129,-2.46039,0.73376,0.82656
493.369,25.13826,-2.4633,0.71749,0.82591
494.169,25.16372,-2.46597,0.69439,0.82525
494.969,25.1892,-2.46785,0.67676,0.8246
495.769,25.21477,-2.47016,0.66016,0.82394
496.569,25.24034,-2.47268,0.64446,0.82329
497.369,25.2658,-2.47403,0.62894,0.82263
498.169,25.29137,-2.4734,0.61257,0.82197
498.969,25.3169,-2.47435,0.59911,0.82132
499.769,25.34245,-2.47602,0.58711,0.82066
500.569,25.36804,-2.47733,0.5776,0.82
501.369,25.39359,-2.47928,0.56732,0.81935
502.169,25.4192,-2.48113,0.55653,0.81869
502.969,25.44473,-2.48157,0.54953,0.81803
503.769,25.47017,-2.48342,0.54232,0.81737
504.569,25.49573,-2.48447,0.53596,0.81672
505.369,25.5213,-2.48499,0.53412,0.81606
506.169,25.5469,-2.48619,0.52737,0.8154
506.969,25.57258,-2.48778,0.52182,0.81474
507.769,25.59822,-2.48897,0.52015,0.81408
508.569,25.62387,-2.49045,0.51318,0.81342
509.369,25.6495,-2.489,0.50822,0.81276
510.169,25.67515,-2.49041,0.50778,0.8121
510.969,25.70076,-2.49032,0.50305,0.81144
511.769,25.72634,-2.49022,0.50115,0.81078
512.569,25.75197,-2.49164,0.49858,0.81012
513.369,25.77758,-2.49164,0.49689,0.80946
514.169,25.8033,-2.49191,0.49397,0.8088
514.969,25.82897,-2.49165,0.4913,0.80814
515.769,25.85468,-2.49407,0.48831,0.80748
516.569,25.88036,-2.49463,0.48707,0.80682
517.369,25.906,-2.49582,0.48595,0.80616
518.169,25.93169,-2.49858,0.48401,0.8055
518.969,25.95737,-2.49871,0.48283,0.80484
519.769,25.98303,-2.49981,0.48112,0.80417
520.569,26.0088,-2.50123,0.47828,0.80351
521.369,26.03445,-2.50152,0.47713,0.80285
522.169,26.0602,-2.5026,0.4755,0.80219
522.969,26.08589,-2.50415,0.47281,0.80153
523.769,26.11161,-2.50527,0.47251,0.80086
524.569,26.13729,-2.50548,0.4728,0.8002
525.369,26.163,-2.50686,0.46881,0.79954
526.169,26.1887,-2.50825,0.46803,0.79888
526.969,26.21443,-2.5087,0.46992,0.79821
527.769,26.24015,-2.50973,0.46768,0.79755
528.569,26.2659,-2.51136,0.46945,0.79689
529.369,26.2918,-2.51428,0.46901,0.79622
530.169,26.3176,-2.51553,0.46664,0.79556
530.969,26.3434,-2.51652,0.46571,0.7949
531.769,26.36915,-2.51571,0.46191,0.79423
532.569,26.39493,-2.51606,0.46427,0.79357
533.369,26.42065,-2.51692,0.46745,0.7929
534.169,26.44645,-2.51741,0.46543,0.79224
534.969,26.47223,-2.51859,0.46452,0.79158
535.769,26.498,-2.51911,0.46268,0.79091
536.569,26.5238,-2.51993,0.46248,0.79025
537.369,26.54963,-2.52056,0.46291,0.78958
538.169,26.5753,-2.52124,0.46189,0.78892
538.969,26.6012,-2.52169,0.45991,0.78825
539.769,26.62695,-2.52392,0.45988,0.78759
540.569,26.6529,-2.52541,0.46039,0.78692
541.369,26.6788,-2.52531,0.4579,0.78626
542.169,26.7046,-2.52555,0.45939,0.78559
542.969,26.73057,-2.52663,0.4592,0.78493
543.769,26.7564,-2.52663,0.45829,0.78426
544.569,26.7823,-2.52663,0.45662,0.78359
545.369,26.8081,-2.52678,0.45586,0.78293
546.169,26.83367,-2.52836,0.45707,0.78226
546.969,26.8594,-2.52994,0.45762,0.7816
547.769,26.88526,-2.53122,0.45772,0.78093
548.569,26.9113,-2.53143,0.45489,0.78026
549.369,26.93742,-2.53267,0.45558,0.7796
550.169,26.96329,-2.53332,0.45422,0.77893
550.969,26.98923,-2.53395,0.45373,0.77827
551.769,27.01513,-2.53534,0.45196,0.7776
552.569,27.041,-2.53529,0.4496,0.77693
553.369,27.06692,-2.53597,0.45113,0.77627
554.169,27.0928,-2.53661,0.45081,0.7756
554.969,27.11873,-2.53822,0.45141,0.77493
555.769,27.1447,-2.54018,0.45342,0.77427
556.569,27.1707,-2.5417,0.45227,0.7736
557.369,27.19667,-2.54354,0.45207,0.77293
558.169,27.2226,-2.54482,0.44927,0.77227
558.969,27.24853,-2.54568,0.45212,0.7716
559.769,27.27451,-2.54617,0.45163,0.77093
560.569,27.30048,-2.54729,0.45234,0.77026
561.369,27.32643,-2.54778,0.44869,0.7696
562.169,27.35237,-2.54908,0.44721,0.76893
562.969,27.3783,-2.55019,0.44776,0.76826
563.769,27.4042,-2.55074,0.45138,0.7676
564.569,27.43024,-2.55155,0.45234,0.76693
565.369,27.4562,-2.55304,0.45032,0.76626
566.169,27.48227,-2.55454,0.45191,0.76559
566.969,27.5082,-2.55549,0.45737,0.76493
567.769,27.5342,-2.55831,0.45528,0.76426
568.569,27.5602,-2.55976,0.455,0.76359
569.369,27.5862,-2.56097,0.45643,0.76292
570.169,27.61218,-2.56222,0.45626,0.76226
570.969,27.63819,-2.56308,0.45829,0.76159
571.769,27.66415,-2.56434,0.46288,0.76092
572.569,27.6902,-2.56579,0.46083,0.76025
573.369,27.71622,-2.56746,0.46543,0.75959
574.169,27.74227,-2.56886,0.46872,0.75892
574.969,27.76825,-2.57023,0.46778,0.75825
575.769,27.79425,-2.57123,0.46934,0.75758
576.569,27.8203,-2.5725,0.47255,0.75691
577.369,27.84648,-2.57409,0.47267,0.75625
578.169,27.8726,-2.57579,0.47629,0.75558
578.969,27.8988,-2.57749,0.47757,0.75491
579.769,27.9248,-2.57882,0.47731,0.75424
580.569,27.9508,-2.58017,0.48143,0.75358
581.369,27.9768,-2.5817,0.48205,0.75291
582.169,28.00286,-2.58323,0.48228,0.75224
582.969,28.0289,-2.58475,0.48488,0.75157
583.769,28.055,-2.58629,0.48893,0.7509
584.569,28.08101,-2.58693,0.49109,0.75024
585.369,28.1071,-2.58773,0.49147,0.74957
586.169,28.13327,-2.58902,0.49237,0.7489
586.969,28.15949,-2.59058,0.4968,0.74823
587.769,28.1856,-2.59162,0.49735,0.74756
588.569,28.21175,-2.59213,0.49742,0.7469
589.369,28.23791,-2.59346,0.5,0.74623
590.169,28.264,-2.59356,0.50712,0.74556
590.969,28.2902,-2.59442,0.50542,0.74489
591.769,28.31632,-2.59671,0.50849,0.74423
592.569,28.3424,-2.59896,0.51289,0.74356
593.369,28.3687,-2.59948,0.51704,0.74289
594.169,28.39477,-2.60116,0.51772,0.74222
594.969,28.421,-2.60276,0.52061,0.74155
595.769,28.44714,-2.60446,0.52572,0.74089
596.569,28.4733,-2.60541,0.5322,0.74022
597.369,28.49943,-2.60669,0.5335,0.73955
598.169,28.5256,-2.60826,0.5364,0.73888
598.969,28.5518,-2.61064,0.54072,0.73822
599.769,28.57797,-2.61187,0.54505,0.73755
600.569,28.6041,-2.61242,0.54986,0.73688
601.369,28.6303,-2.61575,0.55735,0.73621
602.169,28.6566,-2.61954,0.56191,0.73555
602.969,28.6829,-2.62217,0.56509,0.73488
603.769,28.7092,-2.62359,0.57091,0.73421
604.569,28.7354,-2.62543,0.58107,0.73355
605.369,28.76168,-2.62771,0.58558,0.73288
606.169,28.78793,-2.63027,0.59429,0.73221
606.969,28.81418,-2.63227,0.60142,0.73154
607.769,28.84042,-2.63439,0.6089,0.73088
608.569,28.86672,-2.63782,0.62134,0.73021
609.369,28.89295,-2.64101,0.63071,0.72954
610.169,28.9192,-2.64358,0.64389,0.72888
610.969,28.9454,-2.64713,0.65447,0.72821
611.769,28.97157,-2.64972,0.66496,0.72754
612.569,28.9978,-2.65009,0.67741,0.72688
613.369,29.02416,-2.65174,0.68366,0.72621
614.169,29.05047,-2.65458,0.68935,0.72554
614.969,29.07674,-2.65792,0.69217,0.72488
615.769,29.103,-2.66208,0.69052,0.72421
616.569,29.12925,-2.6658,0.69372,0.72354
617.369,29.1555,-2.66951,0.69042,0.72288
618.169,29.1817,-2.67304,0.68818,0.72221
618.969,29.208,-2.67722,0.69047,0.72155
619.769,29.23428,-2.68046,0.69042,0.72088
620.569,29.2606,-2.68478,0.68573,0.72021
621.369,29.2869,-2.68908,0.68107,0.71955
622.169,29.3131,-2.69387,0.6772,0.71888
622.969,29.3394,-2.69657,0.67212,0.71822
623.769,29.3656,-2.70027,0.67071,0.71755
624.569,29.392,-2.70453,0.66344,0.71689
625.369,29.41827,-2.7096,0.65605,0.71622
626.169,29.44452,-2.71421,0.64643,0.71556
626.969,29.4708,-2.71866,0.63795,0.71489
627.769,29.49715,-2.72252,0.62884,0.71422
628.569,29.5234,-2.72677,0.61854,0.71356
629.369,29.5497,-2.73146,0.60931,0.71289
630.169,29.57599,-2.73526,0.59722,0.71223
630.969,29.60231,-2.7383,0.59042,0.71157
631.769,29.62861,-2.74286,0.57955,0.7109
632.569,29.65498,-2.74702,0.57085,0.71024
633.369,29.68137,-2.7503,0.56256,0.70957
634.169,29.7077,-2.7532,0.55462,0.70891
634.969,29.73405,-2.7558,0.5449,0.70824
635.769,29.76036,-2.7582,0.53318,0.70758
636.569,29.7867,-2.75994,0.51377,0.70691
637.369,29.8132,-2.76152,0.49776,0.70625
638.169,29.8396,-2.76307,0.48252,0.70559
638.969,29.86607,-2.76409,0.46645,0.70492
639.769,29.89248,-2.76494,0.46012,0.70426
640.569,29.9187,-2.76405,0.44807,0.7036
641.369,29.9451,-2.76553,0.4402,0.70293
642.169,29.97147,-2.76837,0.43365,0.70227
642.969,29.9979,-2.76875,0.427,0.70161
643.769,30.0243,-2.76953,0.42521,0.70094
644.569,30.05067,-2.77102,0.42062,0.70028
645.369,30.07708,-2.77224,0.41973,0.69962
646.169,30.1034,-2.77271,0.42066,0.69896
646.969,30.12981,-2.77385,0.42461,0.69829
647.769,30.1562,-2.77447,0.42487,0.69763
648.569,30.18259,-2.77411,0.43081,0.69697
649.369,30.20901,-2.77559,0.43255,0.69631
650.169,30.23537,-2.77559,0.44052,0.69564
650.969,30.26176,-2.77659,0.44471,0.69498
651.769,30.28818,-2.77779,0.44916,0.69432
652.569,30.31461,-2.77787,0.4556,0.69366
653.369,30.34088,-2.77891,0.46148,0.693
654.169,30.36727,-2.78016,0.46774,0.69234
654.969,30.3937,-2.78076,0.47628,0.69168
655.769,30.4201,-2.78176,0.48087,0.69102
656.569,30.4466,-2.78279,0.48633,0.69035
657.369,30.47304,-2.78304,0.49719,0.68969
658.169,30.49943,-2.78434,0.50101,0.68903
658.969,30.52585,-2.78582,0.50696,0.68837
659.769,30.55231,-2.78734,0.5146,0.68771
660.569,30.57876,-2.78724,0.51736,0.68705
661.369,30.60515,-2.78742,0.52395,0.68639
662.169,30.63157,-2.78747,0.53144,0.68573
662.969,30.65803,-2.78825,0.5379,0.68507
663.769,30.6845,-2.78876,0.54858,0.68441
664.569,30.7111,-2.78884,0.55311,0.68375
665.369,30.73759,-2.7902,0.56293,0.68309
666.169,30.764,-2.79161,0.57042,0.68244
666.969,30.7904,-2.79188,0.58015,0.68178
667.769,30.8169,-2.79283,0.58874,0.68112
668.569,30.8433,-2.79439,0.59798,0.68046
669.369,30.8698,-2.79589,0.60864,0.6798
670.169,30.8963,-2.79698,0.61547,0.67914
670.969,30.9228,-2.79746,0.62748,0.67849
671.769,30.9492,-2.79864,0.63768,0.67783
672.569,30.97568,-2.79923,0.64848,0.67717
673.369,31.00205,-2.80021,0.65983,0.67651
674.169,31.02852,-2.80035,0.6706,0.67585
674.969,31.05495,-2.8018,0.68132,0.6752
675.769,31.0814,-2.80329,0.69553,0.67454
676.569,31.108,-2.8048,0.71173,0.67388
677.369,31.1345,-2.80598,0.72211,0.67323
678.169,31.1611,-2.80631,0.7343,0.67257
678.969,31.1876,-2.80762,0.74908,0.67191
679.769,31.21407,-2.80847,0.76315,0.67126
680.569,31.24052,-2.80921,0.77605,0.6706
681.369,31.267,-2.81209,0.79143,0.66995
682.169,31.2935,-2.81422,0.80401,0.66929
682.969,31.3201,-2.81544,0.81571,0.66864
683.769,31.34662,-2.8166,0.8308,0.66798
684.569,31.37305,-2.81812,0.84363,0.66733
685.369,31.3995,-2.81838,0.85179,0.66667
686.169,31.426,-2.81981,0.86944,0.66602
686.969,31.45245,-2.82128,0.88144,0.66536
687.769,31.47893,-2.8217,0.89639,0.66471
688.569,31.50542,-2.82245,0.90578,0.66405
689.369,31.53193,-2.82357,0.91867,0.6634
690.169,31.5585,-2.82483,0.93806,0.66275
690.969,31.58506,-2.82639,0.95301,0.66209
691.769,31.6116,-2.82809,0.97137,0.66144
692.569,31.63813,-2.83048,0.98529,0.66079
693.369,31.66468,-2.83304,1.00288,0.66013
694.169,31.69115,-2.83439,1.02283,0.65948
694.969,31.71773,-2.8359,1.03817,0.65883
695.769,31.7443,-2.83741,1.05862,0.65818
696.569,31.77078,-2.83731,1.07797,0.65752
697.369,31.7973,-2.83897,1.09998,0.65687
698.169,31.82375,-2.83999,1.12109,0.65622
698.969,31.8503,-2.84102,1.14354,0.65557
699.769,31.8768,-2.84291,1.16389,0.65492
700.569,31.9034,-2.84504,1.19112,0.65427
701.369,31.93003,-2.84735,1.20903,0.65362
702.169,31.9565,-2.85026,1.22829,0.65296
702.969,31.98305,-2.85247,1.25588,0.65231
703.769,32.0096,-2.85436,1.28009,0.65166
704.569,32.03618,-2.85652,1.30293,0.65101
705.369,32.06282,-2.85909,1.32644,0.65036
706.169,32.08948,-2.86202,1.34891,0.64971
706.969,32.11605,-2.86379,1.37108,0.64907
707.769,32.14269,-2.86603,1.39143,0.64842
708.569,32.16921,-2.86811,1.40954,0.64777
709.369,32.1959,-2.87045,1.42417,0.64712
710.169,32.22248,-2.87315,1.44583,0.64647
710.969,32.24905,-2.87425,1.45962,0.64582
711.769,32.27562,-2.87643,1.47302,0.64517
712.569,32.3022,-2.87865,1.48213,0.64453
713.369,32.32878,-2.88134,1.48803,0.64388
714.169,32.3554,-2.88383,1.48889,0.64323
714.969,32.38201,-2.88601,1.48815,0.64258
715.769,32.40862,-2.889,1.48245,0.64194
716.569,32.43521,-2.89075,1.46572,0.64129
717.369,32.46179,-2.89172,1.45094,0.64064
718.169,32.48832,-2.89423,1.4267,0.64
718.969,32.51495,-2.89661,1.38737,0.63935
719.769,32.5416,-2.89898,1.34611,0.63871
720.569,32.5683,-2.90098,1.28676,0.63806
721.369,32.59491,-2.90298,1.22418,0.63741
722.169,32.62153,-2.90522,1.14474,0.63677
722.969,32.64816,-2.90815,1.04406,0.63612
723.769,32.67472,-2.90969,0.92207,0.63548
724.569,32.70126,-2.91077,0.78006,0.63484
725.369,32.72779,-2.9121,0.66179,0.63419
726.169,32.75431,-2.91201,0.56182,0.63355
726.969,32.78083,-2.91339,0.48038,0.6329
727.769,32.80737,-2.91334,0.41803,0.63226
728.569,32.8339,-2.91358,0.36966,0.63162
729.369,32.86058,-2.91338,0.33028,0.63097
730.169,32.88715,-2.91352,0.30359,0.63033
730.969,32.91387,-2.91492,0.27584,0.62969
731.769,32.94052,-2.91536,0.26012,0.62905
732.569,32.96719,-2.91551,0.24346,0.6284
733.369,32.99382,-2.91664,0.22842,0.62776
734.169,33.02045,-2.91667,0.21639,0.62712
734.969,33.0471,-2.91548,0.20855,0.62648
735.769,33.07375,-2.91533,0.19683,0.62584
736.569,33.10045,-2.91432,0.19065,0.6252
737.369,33.12721,-2.91403,0.18214,0.62456
738.169,33.15395,-2.91403,0.17218,0.62392
738.969,33.18065,-2.91442,0.16481,0.62328
739.769,33.20734,-2.91534,0.16555,0.62264
740.569,33.23402,-2.91535,0.15952,0.622
741.369,33.26072,-2.91538,0.15375,0.62136
742.169,33.2874,-2.91576,0.15323,0.62072
742.969,33.31414,-2.91569,0.15328,0.62008
743.769,33.34086,-2.91569,0.14778,0.61944
744.569,33.3675,-2.91569,0.14747,0.61881
745.369,33.39421,-2.91569,0.144,0.61817
746.169,33.42083,-2.91569,0.14033,0.61753
746.969,33.44745,-2.91569,0.13684,0.61689
747.769,33.4741,-2.91566,0.13348,0.61625
748.569,33.5008,-2.91601,0.12972,0.61562
749.369,33.52753,-2.9165,0.12933,0.61498
750.169,33.55423,-2.917,0.12583,0.61434
750.969,33.58095,-2.917,0.12449,0.61371
751.769,33.6077,-2.91699,0.11927,0.61307
752.569,33.63432,-2.91738,0.11831,0.61244
753.369,33.66105,-2.91831,0.11823,0.6118
754.169,33.68773,-2.91823,0.11733,0.61117
754.969,33.7145,-2.91964,0.11533,0.61053
755.769,33.7412,-2.91963,0.11061,0.6099
756.569,33.7678,-2.91962,0.11491,0.60926
757.369,33.7946,-2.92004,0.11298,0.60863
758.169,33.8213,-2.92094,0.1129,0.608
758.969,33.8483,-2.92095,0.10687,0.60736
759.769,33.875,-2.92045,0.10893,0.60673
760.569,33.90181,-2.91852,0.10547,0.6061
761.369,33.92853,-2.91832,0.10469,0.60546
762.169,33.9553,-2.91825,0.10525,0.60483
762.969,33.98205,-2.91701,0.10129,0.6042
763.769,34.00884,-2.91794,0.10076,0.60357
764.569,34.03556,-2.91799,0.09952079,0.60294
765.369,34.06225,-2.91799,0.10172,0.6023
766.169,34.089,-2.91829,0.09748751,0.60167
766.969,34.11582,-2.91834,0.09398724,0.60104
767.769,34.14269,-2.91948,0.09234423,0.60041
768.569,34.16946,-2.91964,0.09735665,0.59978
769.369,34.19625,-2.92091,0.09116092,0.59915
770.169,34.22295,-2.92095,0.08957543,0.59852
770.969,34.2498,-2.92095,0.09094394,0.59789
771.769,34.2766,-2.92234,0.09199183,0.59726
772.569,34.30342,-2.9223,0.08908415,0.59663
773.369,34.33027,-2.92094,0.08988482,0.59601
774.169,34.3571,-2.92095,0.08632599,0.59538
774.969,34.38389,-2.92095,0.08620377,0.59475
775.769,34.4107,-2.92095,0.08045183,0.59412
776.569,34.4375,-2.92095,0.08282328,0.5935
777.369,34.4643,-2.92095,0.08035547,0.59287
778.169,34.49112,-2.92094,0.07884221,0.59224
778.969,34.51789,-2.92247,0.0779703,0.59161
779.769,34.54481,-2.92402,0.07884257,0.59099
780.569,34.5716,-2.92413,0.07722251,0.59036
781.369,34.59848,-2.92533,0.07540715,0.58974
782.169,34.62545,-2.92545,0.07615852,0.58911
782.969,34.65231,-2.92404,0.074579,0.58849
783.769,34.67913,-2.92412,0.07398493,0.58786
784.569,34.7059,-2.92412,0.07605559,0.58724
785.369,34.7327,-2.92412,0.07305773,0.58661
786.169,34.75959,-2.92412,0.06922163,0.58599
786.969,34.7864,-2.92412,0.06944201,0.58537
787.769,34.8133,-2.92412,0.07067196,0.58474
788.569,34.84008,-2.92412,0.07174214,0.58412
789.369,34.8669,-2.92512,0.06655816,0.5835
790.169,34.89377,-2.92511,0.0674873,0.58287
790.969,34.9206,-2.92511,0.06692577,0.58225
791.769,34.94743,-2.92511,0.06547163,0.58163
792.569,34.97421,-2.92511,0.06419453,0.58101
793.369,35.00096,-2.92512,0.06413228,0.58039
794.169,35.0278,-2.92442,0.06039531,0.57977
794.969,35.05465,-2.92445,0.06570378,0.57914
795.769,35.08155,-2.92445,0.05783106,0.57852
796.569,35.10837,-2.92445,0.05835664,0.5779
797.369,35.1352,-2.92445,0.05849682,0.57728
798.169,35.1621,-2.92445,0.06020688,0.57666
798.969,35.189,-2.92445,0.05831638,0.57605
799.769,35.21591,-2.92445,0.05856422,0.57543
800.569,35.2427,-2.92445,0.05868245,0.57481
801.369,35.26952,-2.92445,0.05662257,0.57419
802.169,35.2963,-2.92506,0.05634029,0.57357
802.969,35.32314,-2.92577,0.05132265,0.57295
803.769,35.35,-2.92577,0.05138192,0.57234
804.569,35.37685,-2.9259,0.04895559,0.57172
805.369,35.40371,-2.92707,0.04859196,0.5711
806.169,35.4306,-2.92705,0.04727247,0.57049
806.969,35.45745,-2.92578,0.04542872,0.56987
807.769,35.48437,-2.9257,0.04549659,0.56925
808.569,35.51124,-2.92709,0.04817229,0.56864
809.369,35.5381,-2.92709,0.04750405,0.56802
810.169,35.56498,-2.92709,0.04450764,0.56741
810.969,35.5919,-2.92659,0.04286759,0.56679
811.769,35.61878,-2.92637,0.04467102,0.56618
812.569,35.64565,-2.92643,0.04424927,0.56556
813.369,35.67244,-2.92643,0.04062126,0.56495
814.169,35.69923,-2.9264,0.03764339,0.56434
814.969,35.72605,-2.92707,0.03440586,0.56372
815.769,35.75291,-2.92709,0.03177123,0.56311
816.569,35.77982,-2.9271,0.0284155,0.5625
817.369,35.80663,-2.92578,0.02614504,0.56189
818.169,35.8335,-2.92579,0.02697647,0.56127
818.969,35.86038,-2.92613,0.02572184,0.56066
819.769,35.88725,-2.92644,0.02410213,0.56005
820.569,35.91411,-2.92727,0.02250459,0.55944
821.369,35.94103,-2.92805,0.02128358,0.55883
822.169,35.96798,-2.92895,0.01991213,0.55822
822.969,35.99494,-2.92879,0.01468587,0.55761
823.769,36.02178,-2.928,0.01685721,0.557
824.569,36.0486,-2.92669,0.01623794,0.55639
825.369,36.0755,-2.92809,0.01512349,0.55578
826.169,36.10236,-2.92808,0.01338906,0.55517
826.969,36.1292,-2.92808,0.01485674,0.55456
827.769,36.1561,-2.92808,0.01553304,0.55396
828.569,36.18295,-2.92808,0.01613422,0.55335
829.369,36.20983,-2.92808,0.01596372,0.55274
830.169,36.2367,-2.92874,0.02073337,0.55213
830.969,36.26359,-2.9294,0.02089147,0.55153
831.769,36.29055,-2.9294,0.02276761,0.55092
832.569,36.3174,-2.9294,0.02161704,0.55031
833.369,36.3443,-2.92948,0.02494667,0.54971
834.169,36.3711,-2.92808,0.02872126,0.5491
834.969,36.39795,-2.92808,0.03080761,0.5485
835.769,36.42484,-2.92799,0.0303886,0.54789
836.569,36.4516,-2.92947,0.03418959,0.54729
837.369,36.47867,-2.93038,0.03381369,0.54668
838.169,36.50548,-2.93038,0.03583547,0.54608
838.969,36.53252,-2.93038,0.04031306,0.54547
839.769,36.55953,-2.93038,0.03990403,0.54487
840.569,36.58656,-2.93038,0.04334176,0.54427
841.369,36.6135,-2.93107,0.04273032,0.54366
842.169,36.64043,-2.9317,0.04406559,0.54306
842.969,36.6674,-2.9317,0.04588849,0.54246
843.769,36.69437,-2.93171,0.04777523,0.54186
844.569,36.7213,-2.93161,0.05791347,0.54126
845.369,36.74837,-2.93038,0.05496258,0.54066
846.169,36.77536,-2.93038,0.05627561,0.54005
846.969,36.80235,-2.93038,0.06076072,0.53945
847.769,36.82915,-2.93038,0.06069238,0.53885
848.569,36.85595,-2.93038,0.06304392,0.53825
849.369,36.88293,-2.93038,0.06505167,0.53765
850.169,36.91,-2.93038,0.06548278,0.53706
850.969,36.93722,-2.92968,0.06074707,0.53646
851.769,36.96413,-2.9297,0.07111797,0.53586
852.569,36.99118,-2.92906,0.06971156,0.53526
853.369,37.01811,-2.9304,0.06749152,0.53466
854.169,37.0451,-2.93038,0.07518993,0.53406
854.969,37.07203,-2.93034,0.07410283,0.53347
855.769,37.09904,-2.93169,0.07783518,0.53287
856.569,37.126,-2.93169,0.08611279,0.53227
857.369,37.153,-2.93169,0.08862045,0.53168
858.169,37.18003,-2.93202,0.09154606,0.53108
858.969,37.20706,-2.93299,0.09577203,0.53048
859.769,37.23411,-2.93301,0.09412098,0.52989
860.569,37.26112,-2.933,0.09967566,0.52929
861.369,37.2881,-2.93424,0.10071,0.5287
862.169,37.3151,-2.93432,0.10502,0.5281
862.969,37.3421,-2.93432,0.11296,0.52751
863.769,37.36909,-2.93432,0.109,0.52692
864.569,37.39602,-2.9349,0.11403,0.52632
865.369,37.42301,-2.93564,0.11709,0.52573
866.169,37.45002,-2.93564,0.11712,0.52514
866.969,37.47703,-2.93565,0.11849,0.52455
867.769,37.50404,-2.93601,0.12454,0.52395
868.569,37.5311,-2.93597,0.12931,0.52336
869.369,37.55815,-2.93597,0.12945,0.52277
870.169,37.5852,-2.93595,0.13125,0.52218
870.969,37.61221,-2.93701,0.13875,0.52159
871.769,37.63921,-2.93694,0.14072,0.521
872.569,37.6662,-2.93636,0.14516,0.52041
873.369,37.69315,-2.93628,0.14831,0.51982
874.169,37.72015,-2.93531,0.15067,0.51923
874.969,37.7472,-2.93499,0.15217,0.51864
875.769,37.7742,-2.93497,0.15738,0.51805
876.569,37.80126,-2.93567,0.16016,0.51746
877.369,37.82833,-2.93565,0.16381,0.51687
878.169,37.85536,-2.93566,0.16989,0.51629
878.969,37.88242,-2.93546,0.17202,0.5157
879.769,37.90948,-2.93433,0.17452,0.51511
880.569,37.93659,-2.9347,0.17638,0.51452
881.369,37.96367,-2.93563,0.18393,0.51394
882.169,37.99068,-2.93564,0.18717,0.51335
882.969,38.01768,-2.93564,0.1912,0.51277
883.769,38.0446,-2.93564,0.19626,0.51218
884.569,38.07156,-2.93564,0.19761,0.51159
885.369,38.09854,-2.93542,0.20334,0.51101
886.169,38.12558,-2.93435,0.20122,0.51043
886.969,38.15265,-2.93433,0.20529,0.50984
887.769,38.17971,-2.93434,0.20825,0.50926
888.569,38.20674,-2.93297,0.21021,0.50867
889.369,38.23379,-2.93319,0.21654,0.50809
890.169,38.26086,-2.93432,0.21965,0.50751
890.969,38.28785,-2.93433,0.22474,0.50693
891.769,38.316,-2.93442,0.22405,0.50634
892.269,38.33265,-2.93568,0.22972,0.50598