File: 01_Data/Triexta_Carpet_High_Pile/STA/N2/30K_min/Triexta_Carpet_High_Pile_STA_N2_30KData_220112_R3.csv
##Temp./Â°C,Time/min,Mass loss(subtr.2)/mg,DSC(subtr.2)/(mW/mg),Sensit./(uV/mW)
48.586,10.01,0.009,-0.00425837,1.06963
49.386,10.5779,0.009340066,0.03495727,1.06956
50.186,10.7079,0.008327475,0.07429938,1.06949
50.986,10.8018,0.008719815,0.10468,1.06941
51.786,10.87875,0.01064279,0.13715,1.06934
52.586,10.94562,0.00932974,0.16278,1.06926
53.386,11.0055,0.01102304,0.1893,1.06918
54.186,11.06071,0.009203147,0.2136,1.0691
54.986,11.11205,0.01024139,0.23723,1.06902
55.786,11.15969,0.009327988,0.25743,1.06893
56.586,11.20492,0.01025758,0.27793,1.06884
57.386,11.2487,0.01065716,0.29702,1.06876
58.186,11.29077,0.01106533,0.31197,1.06867
58.986,11.33106,0.01045005,0.33064,1.06857
59.786,11.37038,0.009151757,0.3457,1.06848
60.586,11.4087,0.01039224,0.36031,1.06839
61.386,11.44572,0.01030371,0.3713,1.06829
62.186,11.48189,0.01033022,0.38331,1.06819
62.986,11.5174,0.01108641,0.39475,1.06809
63.786,11.5523,0.01166691,0.40425,1.06799
64.586,11.5866,0.00996496,0.41342,1.06788
65.386,11.62025,0.008673654,0.42243,1.06778
66.186,11.6534,0.01048991,0.4323,1.06767
66.986,11.68597,0.01171776,0.43952,1.06756
67.786,11.7181,0.01111763,0.4447,1.06745
68.586,11.75004,0.01074943,0.45166,1.06734
69.386,11.78197,0.009465764,0.46027,1.06722
70.186,11.81352,0.009121195,0.46302,1.06711
70.986,11.8447,0.0102543,0.47035,1.06699
71.786,11.87544,0.009684899,0.47773,1.06687
72.586,11.906,0.008994353,0.48327,1.06675
73.386,11.93649,0.00868439,0.48872,1.06662
74.186,11.9666,0.008338718,0.49562,1.0665
74.986,11.99664,0.007702195,0.49835,1.06637
75.786,12.02646,0.008331488,0.50471,1.06624
76.586,12.05613,0.0095074,0.51064,1.06611
77.386,12.08542,0.01000138,0.51644,1.06598
78.186,12.11475,0.01145157,0.52026,1.06585
78.986,12.14398,0.01156822,0.52552,1.06571
79.786,12.1732,0.01056121,0.52919,1.06557
80.586,12.20203,0.01019097,0.53309,1.06543
81.386,12.2307,0.01012757,0.53588,1.06529
82.186,12.2596,0.01042921,0.54,1.06515
82.986,12.28813,0.01006015,0.54442,1.06501
83.786,12.31643,0.0104158,0.55032,1.06486
84.586,12.34472,0.01092811,0.55279,1.06471
85.386,12.37302,0.0117038,0.56054,1.06456
86.186,12.40152,0.01029993,0.56346,1.06441
86.986,12.42957,0.01010841,0.56824,1.06426
87.786,12.45748,0.00882231,0.5724,1.06411
88.586,12.4854,0.00994233,0.57718,1.06395
89.386,12.51314,0.01013744,0.58025,1.06379
90.186,12.541,0.009989313,0.58544,1.06363
90.986,12.5687,0.01020748,0.58987,1.06347
91.786,12.59628,0.01023661,0.59111,1.06331
92.586,12.62381,0.01140558,0.59572,1.06314
93.386,12.6513,0.01044937,0.59975,1.06298
94.186,12.6788,0.01108135,0.60137,1.06281
94.986,12.70621,0.00988503,0.60659,1.06264
95.786,12.73355,0.009317955,0.61027,1.06247
96.586,12.76097,0.00973134,0.61346,1.06229
97.386,12.78832,0.00998986,0.61654,1.06212
98.186,12.8156,0.009946164,0.62136,1.06194
98.986,12.84274,0.00994961,0.62486,1.06176
99.786,12.86988,0.00999307,0.6291,1.06159
100.586,12.89702,0.009333334,0.63265,1.0614
101.386,12.92417,0.009994381,0.63471,1.06122
102.186,12.95122,0.009912231,0.64065,1.06104
102.986,12.97837,0.00950471,0.64245,1.06085
103.786,13.00548,0.009974945,0.646,1.06066
104.586,13.03257,0.00911774,0.65063,1.06047
105.386,13.05959,0.008670966,0.65287,1.06028
106.186,13.0866,0.008670295,0.65703,1.06009
106.986,13.11355,0.00863735,0.66,1.05989
107.786,13.14047,0.00735887,0.66396,1.0597
108.586,13.1674,0.008638066,0.66744,1.0595
109.386,13.19415,0.00767457,0.67023,1.0593
110.186,13.22109,0.007348439,0.67489,1.0591
110.986,13.2481,0.007547955,0.6783,1.05889
111.786,13.27501,0.008649054,0.68028,1.05869
112.586,13.30204,0.00859912,0.68518,1.05848
113.386,13.3289,0.007181639,0.68964,1.05827
114.186,13.3557,0.005588191,0.68957,1.05806
114.986,13.38255,0.005596612,0.6949,1.05785
115.786,13.40945,0.00557067,0.69702,1.05764
116.586,13.4362,0.007273858,0.70026,1.05743
117.386,13.4629,0.008226769,0.7043,1.05721
118.186,13.48966,0.008239918,0.70883,1.05699
118.986,13.51651,0.008247156,0.71004,1.05677
119.786,13.5433,0.00682237,0.71366,1.05655
120.586,13.56991,0.006918515,0.71614,1.05633
121.386,13.5965,0.005632765,0.72046,1.05611
122.186,13.6231,0.005599495,0.7211,1.05588
122.986,13.64967,0.005599998,0.72578,1.05565
123.786,13.6763,0.005599864,0.73115,1.05542
124.586,13.7029,0.005604097,0.73361,1.05519
125.386,13.72928,0.004336001,0.73517,1.05496
126.186,13.75549,0.00428393,0.73899,1.05473
126.986,13.7818,0.004290754,0.74284,1.05449
127.786,13.80821,0.004309393,0.74292,1.05425
128.586,13.8345,0.00551883,0.74825,1.05402
129.386,13.8608,0.00560021,0.74947,1.05377
130.186,13.88708,0.005600022,0.75422,1.05353
130.986,13.9135,0.005599992,0.75728,1.05329
131.786,13.93992,0.005599993,0.75928,1.05304
132.586,13.9661,0.005607,0.76493,1.0528
133.386,13.9923,0.005422464,0.76752,1.05255
134.186,14.0183,0.004277762,0.7708,1.0523
134.986,14.04444,0.00428013,0.77211,1.05205
135.786,14.07056,0.00428,0.77669,1.0518
136.586,14.0966,0.00428023,0.77955,1.05154
137.386,14.1228,0.004273257,0.78145,1.05129
138.186,14.14875,0.003960128,0.78816,1.05103
138.986,14.1746,0.004278018,0.79085,1.05077
139.786,14.2005,0.00429006,0.79566,1.05051
140.586,14.2264,0.004290012,0.79959,1.05025
141.386,14.2522,0.00429,0.80249,1.04998
142.186,14.27806,0.004290007,0.80637,1.04972
142.986,14.3039,0.004289654,0.80974,1.04945
143.786,14.32961,0.004288667,0.81363,1.04918
144.586,14.3554,0.003717283,0.82,1.04891
145.386,14.381,0.00218623,0.82325,1.04864
146.186,14.40664,0.001655773,0.82762,1.04837
146.986,14.4322,0.00165149,0.83058,1.04809
147.786,14.45779,0.001694154,0.83775,1.04782
148.586,14.4834,0.0002784568,0.84258,1.04754
149.386,14.5091,0.000329386,0.84596,1.04726
150.186,14.53469,0.000330069,0.85333,1.04698
150.986,14.5603,0.00033,0.85952,1.0467
151.786,14.58575,0.00033,0.86349,1.04641
152.586,14.6112,0.0003300014,0.8726,1.04613
153.386,14.6367,0.0003300831,0.87938,1.04584
154.186,14.66211,0.0003281886,0.88464,1.04555
154.986,14.6876,0.0002758115,0.89191,1.04526
155.786,14.71294,0.001335767,0.90045,1.04497
156.586,14.73836,0.00132037,0.90632,1.04468
157.386,14.7638,0.00131998,0.9166,1.04439
158.186,14.7893,0.00132,0.92545,1.04409
158.986,14.81471,0.001320075,0.9364,1.04379
159.786,14.84,0.001319995,0.94703,1.04349
160.586,14.86522,0.001214501,0.95783,1.04319
161.386,14.8905,0.000334495,0.96641,1.04289
162.186,14.91584,0.000334686,0.97844,1.04259
162.986,14.94123,0.000284522,0.98763,1.04228
163.786,14.96659,-0.00101515,0.99719,1.04198
164.586,14.9918,-0.0009792479,1.00442,1.04167
165.386,15.017,-0.0009797778,1.00759,1.04136
166.186,15.04225,-0.0009842623,1.01229,1.04105
166.986,15.06759,-0.001241834,1.01216,1.04074
167.786,15.09291,-0.00131246,1.01119,1.04043
168.586,15.1182,-0.001310065,1.01089,1.04011
169.386,15.1433,-0.00131,1.00977,1.03979
170.186,15.1684,-0.00131,1.00682,1.03948
170.986,15.1934,-0.001310001,1.00648,1.03916
171.786,15.21848,-0.00131002,1.00428,1.03884
172.586,15.2436,-0.001308907,1.00276,1.03851
173.386,15.26866,-0.001296781,1.00277,1.03819
174.186,15.2935,-0.002572534,1.00092,1.03787
174.986,15.31851,-0.002946861,1.00035,1.03754
175.786,15.34346,-0.00290014,1.00149,1.03721
176.586,15.36863,-0.00362822,1.00397,1.03688
177.386,15.39366,-0.003606835,1.00583,1.03655
178.186,15.4186,-0.00358864,1.00647,1.03622
178.986,15.4436,-0.004625366,1.00958,1.03588
179.786,15.46846,-0.00525225,1.01265,1.03555
180.586,15.49337,-0.00526051,1.01658,1.03521
181.386,15.51815,-0.00526001,1.01994,1.03487
182.186,15.543,-0.00526,1.02811,1.03454
182.986,15.5677,-0.005259998,1.03103,1.03419
183.786,15.59251,-0.00526007,1.03583,1.03385
184.586,15.6173,-0.005261752,1.04204,1.03351
185.386,15.6421,-0.00579585,1.04906,1.03316
186.186,15.6669,-0.006563649,1.0548,1.03282
186.986,15.69154,-0.006580344,1.06159,1.03247
187.786,15.71621,-0.006580027,1.06755,1.03212
188.586,15.7408,-0.00658,1.07623,1.03177
189.386,15.7655,-0.006579963,1.08263,1.03142
190.186,15.7902,-0.006580065,1.09175,1.03107
190.986,15.8149,-0.006641602,1.10059,1.03071
191.786,15.83946,-0.008198723,1.10691,1.03035
192.586,15.8641,-0.009237514,1.11733,1.03
193.386,15.8887,-0.009743628,1.12488,1.02964
194.186,15.91337,-0.01064359,1.13667,1.02928
194.986,15.93798,-0.0119879,1.14604,1.02892
195.786,15.9626,-0.01194457,1.15654,1.02855
196.586,15.98719,-0.01304348,1.16588,1.02819
197.386,16.01171,-0.01327429,1.17652,1.02782
198.186,16.0363,-0.01315537,1.18803,1.02746
198.986,16.06086,-0.01331272,1.19859,1.02709
199.786,16.08548,-0.01324237,1.21216,1.02672
200.586,16.11006,-0.01226485,1.22565,1.02635
201.386,16.1346,-0.01276368,1.23875,1.02598
202.186,16.1591,-0.01326582,1.25415,1.0256
202.986,16.18357,-0.01327014,1.27019,1.02523
203.786,16.20811,-0.01326464,1.28466,1.02485
204.586,16.23262,-0.01347722,1.30356,1.02447
205.386,16.2571,-0.01459363,1.32256,1.02409
206.186,16.2816,-0.01459766,1.34202,1.02371
206.986,16.3061,-0.01517064,1.36469,1.02333
207.786,16.3306,-0.01588923,1.38679,1.02295
208.586,16.35516,-0.0171545,1.41309,1.02256
209.386,16.37966,-0.01721001,1.4454,1.02218
210.186,16.4041,-0.01858092,1.48183,1.02179
210.986,16.42867,-0.01853119,1.51953,1.0214
211.786,16.4531,-0.01851479,1.55907,1.02101
212.586,16.47759,-0.01794389,1.59435,1.02062
213.386,16.50206,-0.01851014,1.6253,1.02023
214.186,16.52647,-0.0185285,1.65048,1.01984
214.986,16.55098,-0.01853249,1.66543,1.01944
215.786,16.57546,-0.01882818,1.68089,1.01905
216.586,16.59999,-0.01985011,1.69226,1.01865
217.386,16.62444,-0.02085526,1.70589,1.01825
218.186,16.64888,-0.02110557,1.72153,1.01785
218.986,16.67331,-0.02247093,1.74198,1.01745
219.786,16.6978,-0.0232738,1.7697,1.01705
220.586,16.7223,-0.0244185,1.80724,1.01664
221.386,16.7467,-0.02570421,1.85549,1.01624
222.186,16.77112,-0.02664542,1.91078,1.01583
222.986,16.7955,-0.02729637,1.96628,1.01542
223.786,16.8199,-0.02731069,2.00943,1.01502
224.586,16.84429,-0.02858397,2.03765,1.01461
225.386,16.86877,-0.02927268,2.05404,1.01419
226.186,16.89314,-0.02927621,2.05521,1.01378
226.986,16.9176,-0.03041403,2.04412,1.01337
227.786,16.94201,-0.03060426,2.03228,1.01295
228.586,16.9664,-0.03168576,2.01506,1.01254
229.386,16.99079,-0.03203213,1.9953,1.01212
230.186,17.01526,-0.03291205,1.97194,1.0117
230.986,17.0396,-0.03333689,1.95343,1.01128
231.786,17.06401,-0.03475429,1.93304,1.01086
232.586,17.08825,-0.03462323,1.91148,1.01044
233.386,17.11249,-0.03602774,1.89414,1.01001
234.186,17.1368,-0.03662015,1.87944,1.00959
234.986,17.16102,-0.03747065,1.86721,1.00916
235.786,17.18535,-0.03884365,1.85934,1.00874
236.586,17.20966,-0.04058323,1.85606,1.00831
237.386,17.23392,-0.04210471,1.85403,1.00788
238.186,17.25818,-0.04302838,1.86126,1.00745
238.986,17.28237,-0.04365713,1.87218,1.00701
239.786,17.30663,-0.04516473,1.88599,1.00658
240.586,17.33091,-0.04583328,1.90241,1.00615
241.386,17.3552,-0.04712132,1.92917,1.00571
242.186,17.3795,-0.04843375,1.95789,1.00527
242.986,17.4037,-0.05064861,1.99051,1.00484
243.786,17.42791,-0.05192044,2.02921,1.0044
244.586,17.45216,-0.05315238,2.07319,1.00396
245.386,17.47641,-0.05371267,2.12209,1.00352
246.186,17.5007,-0.05528023,2.17157,1.00307
246.986,17.525,-0.05690357,2.21784,1.00263
247.786,17.54932,-0.05842023,2.26475,1.00218
248.586,17.57357,-0.06050514,2.30456,1.00174
249.386,17.59778,-0.06171915,2.34383,1.00129
250.186,17.622,-0.06312341,2.38008,1.00084
250.986,17.64623,-0.06534136,2.41696,1.00039
251.786,17.67051,-0.06706814,2.45298,0.99994
252.586,17.6948,-0.06866596,2.48886,0.99949
253.386,17.7191,-0.06999613,2.52725,0.99904
254.186,17.7434,-0.07186048,2.56466,0.99858
254.986,17.76771,-0.07453605,2.60417,0.99813
255.786,17.79199,-0.07731877,2.64612,0.99767
256.586,17.81624,-0.07951487,2.68896,0.99721
257.386,17.84059,-0.08174019,2.73585,0.99675
258.186,17.86485,-0.08406516,2.78119,0.99629
258.986,17.8889,-0.08651886,2.82725,0.99583
259.786,17.91313,-0.08931294,2.8777,0.99537
260.586,17.93739,-0.09165729,2.92882,0.99491
261.386,17.96165,-0.09429044,2.98462,0.99444
262.186,17.9861,-0.09750642,3.03811,0.99398
262.986,18.01037,-0.10149,3.09173,0.99351
263.786,18.03464,-0.1051,3.14567,0.99304
264.586,18.059,-0.10857,3.20276,0.99257
265.386,18.08332,-0.11211,3.25559,0.9921
266.186,18.10765,-0.11446,3.30971,0.99163
266.986,18.13195,-0.11722,3.36413,0.99116
267.786,18.15625,-0.11897,3.41684,0.99069
268.586,18.18055,-0.12292,3.46942,0.99021
269.386,18.20484,-0.12729,3.51656,0.98974
270.186,18.22918,-0.13143,3.56313,0.98926
270.986,18.25349,-0.1349,3.60624,0.98879
271.786,18.27785,-0.13855,3.64814,0.98831
272.586,18.30217,-0.14309,3.68499,0.98783
273.386,18.3265,-0.14743,3.71444,0.98735
274.186,18.35088,-0.15113,3.74486,0.98686
274.986,18.3752,-0.15536,3.77055,0.98638
275.786,18.39956,-0.15888,3.78953,0.9859
276.586,18.4239,-0.16249,3.80101,0.98541
277.386,18.44825,-0.16571,3.80496,0.98493
278.186,18.47265,-0.17007,3.80218,0.98444
278.986,18.497,-0.17418,3.78917,0.98395
279.786,18.5213,-0.17874,3.77026,0.98346
280.586,18.54563,-0.18204,3.73762,0.98297
281.386,18.56987,-0.18567,3.69792,0.98248
282.186,18.59415,-0.18904,3.64345,0.98199
282.986,18.6185,-0.19289,3.5785,0.9815
283.786,18.64273,-0.19587,3.50501,0.981
284.586,18.66694,-0.199,3.4211,0.98051
285.386,18.69118,-0.20191,3.33078,0.98001
286.186,18.7153,-0.20423,3.23107,0.97951
286.986,18.73944,-0.2068,3.12624,0.97902
287.786,18.76343,-0.2099,3.02113,0.97852
288.586,18.78753,-0.21281,2.91543,0.97802
289.386,18.81167,-0.21472,2.80873,0.97752
290.186,18.8359,-0.21655,2.70321,0.97701
290.986,18.86017,-0.21949,2.60359,0.97651
291.786,18.88431,-0.22117,2.50416,0.97601
292.586,18.90839,-0.22285,2.41082,0.9755
293.386,18.9325,-0.22464,2.32006,0.97499
294.186,18.95652,-0.22587,2.23673,0.97449
294.986,18.98051,-0.22522,2.15713,0.97398
295.786,19.00456,-0.22656,2.08101,0.97347
296.586,19.0286,-0.22788,2.01129,0.97296
297.386,19.05262,-0.22935,1.94465,0.97245
298.186,19.0766,-0.22924,1.88334,0.97194
298.986,19.10061,-0.23066,1.82637,0.97142
299.786,19.12461,-0.23173,1.7723,0.97091
300.586,19.14852,-0.23229,1.72226,0.9704
301.386,19.1725,-0.23348,1.67504,0.96988
302.186,19.19653,-0.23453,1.63301,0.96936
302.986,19.22055,-0.23483,1.5938,0.96885
303.786,19.24469,-0.23485,1.55587,0.96833
304.586,19.26877,-0.2357,1.52197,0.96781
305.386,19.2928,-0.23611,1.495,0.96729
306.186,19.31689,-0.23732,1.46302,0.96676
306.986,19.34101,-0.2375,1.4385,0.96624
307.786,19.3652,-0.23894,1.41605,0.96572
308.586,19.38928,-0.23887,1.39386,0.9652
309.386,19.41337,-0.24166,1.37392,0.96467
310.186,19.4374,-0.24144,1.35501,0.96414
310.986,19.46143,-0.24284,1.34045,0.96362
311.786,19.48551,-0.24284,1.3257,0.96309
312.586,19.5096,-0.24314,1.3106,0.96256
313.386,19.53373,-0.24412,1.30303,0.96203
314.186,19.55782,-0.24415,1.29065,0.9615
314.986,19.582,-0.24423,1.28058,0.96097
315.786,19.60624,-0.2455,1.27386,0.96044
316.586,19.63043,-0.2455,1.26468,0.9599
317.386,19.65466,-0.24691,1.25832,0.95937
318.186,19.6788,-0.24685,1.25014,0.95883
318.986,19.70296,-0.24823,1.24647,0.9583
319.786,19.72714,-0.24881,1.23831,0.95776
320.586,19.75135,-0.25108,1.23372,0.95722
321.386,19.77561,-0.25199,1.22539,0.95668
322.186,19.7999,-0.25238,1.22157,0.95615
322.986,19.82412,-0.25199,1.21749,0.95561
323.786,19.84839,-0.25239,1.21859,0.95506
324.586,19.8726,-0.2524,1.2138,0.95452
325.386,19.8968,-0.25376,1.21123,0.95398
326.186,19.92105,-0.25374,1.20639,0.95344
326.986,19.94527,-0.25506,1.20327,0.95289
327.786,19.96953,-0.25501,1.20411,0.95235
328.586,19.99382,-0.25643,1.20008,0.9518
329.386,20.01815,-0.25633,1.19945,0.95125
330.186,20.04249,-0.25635,1.19744,0.9507
330.986,20.06683,-0.25771,1.19179,0.95016
331.786,20.0911,-0.25769,1.19297,0.94961
332.586,20.1154,-0.25902,1.19103,0.94906
333.386,20.13968,-0.25959,1.18777,0.9485
334.186,20.16398,-0.26039,1.18876,0.94795
334.986,20.18829,-0.26121,1.18641,0.9474
335.786,20.2126,-0.2617,1.18696,0.94685
336.586,20.23696,-0.2617,1.18572,0.94629
337.386,20.26128,-0.26215,1.1846,0.94574
338.186,20.28568,-0.26299,1.18226,0.94518
338.986,20.3101,-0.26336,1.17993,0.94462
339.786,20.33452,-0.26566,1.18257,0.94407
340.586,20.35891,-0.26654,1.17883,0.94351
341.386,20.38329,-0.26709,1.17688,0.94295
342.186,20.4075,-0.26867,1.17668,0.94239
342.986,20.4319,-0.26876,1.17616,0.94183
343.786,20.4564,-0.26993,1.17606,0.94127
344.586,20.48087,-0.26997,1.17265,0.9407
345.386,20.50545,-0.27039,1.17231,0.94014
346.186,20.52993,-0.27026,1.17136,0.93958
346.986,20.55434,-0.27127,1.17126,0.93901
347.786,20.57883,-0.27159,1.1709,0.93845
348.586,20.6033,-0.27276,1.17228,0.93788
349.386,20.6278,-0.27285,1.17176,0.93731
350.186,20.65229,-0.27437,1.16873,0.93675
350.986,20.67676,-0.27537,1.16986,0.93618
351.786,20.70126,-0.27564,1.17008,0.93561
352.586,20.7257,-0.27703,1.1686,0.93504
353.386,20.75021,-0.27695,1.1686,0.93447
354.186,20.7747,-0.27825,1.17023,0.9339
354.986,20.79926,-0.27865,1.17084,0.93332
355.786,20.8238,-0.2797,1.17055,0.93275
356.586,20.84842,-0.28244,1.17308,0.93218
357.386,20.87293,-0.28324,1.17186,0.9316
358.186,20.89746,-0.28449,1.1721,0.93103
358.986,20.9221,-0.28577,1.173,0.93045
359.786,20.9466,-0.28726,1.17583,0.92987
360.586,20.97128,-0.28867,1.17346,0.9293
361.386,20.99587,-0.29021,1.17494,0.92872
362.186,21.02045,-0.29168,1.17516,0.92814
362.986,21.04504,-0.29284,1.17794,0.92756
363.786,21.0696,-0.29381,1.18024,0.92698
364.586,21.09421,-0.29511,1.17936,0.9264
365.386,21.11881,-0.29649,1.18198,0.92582
366.186,21.14343,-0.29776,1.18525,0.92524
366.986,21.16805,-0.29951,1.18546,0.92465
367.786,21.1927,-0.30152,1.18644,0.92407
368.586,21.21734,-0.30395,1.19242,0.92349
369.386,21.242,-0.30536,1.19568,0.9229
370.186,21.26666,-0.30622,1.19747,0.92232
370.986,21.29126,-0.30795,1.19975,0.92173
371.786,21.31596,-0.31018,1.20343,0.92114
372.586,21.34061,-0.31255,1.20751,0.92055
373.386,21.36518,-0.31493,1.21373,0.91997
374.186,21.3899,-0.31742,1.21768,0.91938
374.986,21.41453,-0.31983,1.2243,0.91879
375.786,21.4392,-0.32271,1.23006,0.9182
376.586,21.46394,-0.32531,1.23399,0.91761
377.386,21.48865,-0.32749,1.23905,0.91702
378.186,21.51331,-0.32964,1.24467,0.91642
378.986,21.5381,-0.3333,1.25366,0.91583
379.786,21.56276,-0.33616,1.25891,0.91524
380.586,21.58752,-0.3396,1.26558,0.91464
381.386,21.61233,-0.34299,1.27566,0.91405
382.186,21.63702,-0.34722,1.28191,0.91345
382.986,21.66183,-0.35045,1.28869,0.91286
383.786,21.68657,-0.35501,1.2977,0.91226
384.586,21.71128,-0.35906,1.31104,0.91166
385.386,21.73604,-0.36344,1.31539,0.91106
386.186,21.76074,-0.36694,1.32623,0.91047
386.986,21.78554,-0.37196,1.3349,0.90987
387.786,21.81032,-0.37719,1.34995,0.90927
388.586,21.83509,-0.38342,1.35984,0.90867
389.386,21.85971,-0.38843,1.37087,0.90807
390.186,21.8844,-0.3943,1.38363,0.90746
390.986,21.90928,-0.40137,1.39652,0.90686
391.786,21.93413,-0.40851,1.41041,0.90626
392.586,21.95917,-0.41492,1.4242,0.90566
393.386,21.98399,-0.42272,1.43891,0.90505
394.186,22.00879,-0.42935,1.45416,0.90445
394.986,22.03366,-0.43655,1.47099,0.90384
395.786,22.05856,-0.4452,1.48964,0.90324
396.586,22.08344,-0.45377,1.50275,0.90263
397.386,22.10837,-0.46368,1.5222,0.90202
398.186,22.13327,-0.4735,1.54066,0.90142
398.986,22.15814,-0.48367,1.56172,0.90081
399.786,22.183,-0.49545,1.58186,0.9002
400.586,22.20779,-0.50528,1.60187,0.89959
401.386,22.23263,-0.51679,1.62383,0.89898
402.186,22.25756,-0.52995,1.64647,0.89837
402.986,22.28248,-0.54169,1.67267,0.89776
403.786,22.30751,-0.5555,1.69737,0.89715
404.586,22.3325,-0.56901,1.72229,0.89654
405.386,22.35748,-0.58305,1.74825,0.89593
406.186,22.3825,-0.59957,1.77571,0.89531
406.986,22.4074,-0.6142,1.80292,0.8947
407.786,22.43244,-0.63076,1.8326,0.89409
408.586,22.4573,-0.64932,1.8635,0.89347
409.386,22.48229,-0.66588,1.89287,0.89286
410.186,22.50724,-0.685,1.92537,0.89224
410.986,22.5322,-0.70377,1.95798,0.89162
411.786,22.55734,-0.72287,1.98939,0.89101
412.586,22.58235,-0.74684,2.02395,0.89039
413.386,22.60739,-0.76693,2.05745,0.88977
414.186,22.6324,-0.78948,2.09047,0.88915
414.986,22.6575,-0.81298,2.1246,0.88854
415.786,22.6826,-0.83433,2.15791,0.88792
416.586,22.70766,-0.86053,2.19047,0.8873
417.386,22.73266,-0.88566,2.22367,0.88668
418.186,22.7577,-0.91036,2.25496,0.88606
418.986,22.7828,-0.93884,2.28225,0.88543
419.786,22.80786,-0.96395,2.30967,0.88481
420.586,22.833,-0.99282,2.33685,0.88419
421.386,22.8581,-1.02451,2.36175,0.88357
422.186,22.88318,-1.0502,2.3813,0.88295
422.986,22.90829,-1.08064,2.3984,0.88232
423.786,22.93338,-1.11085,2.41442,0.8817
424.586,22.9585,-1.14007,2.42905,0.88107
425.386,22.98359,-1.17379,2.43518,0.88045
426.186,23.0088,-1.20334,2.43909,0.87982
426.986,23.03395,-1.23333,2.43828,0.8792
427.786,23.05911,-1.26764,2.43484,0.87857
428.586,23.08438,-1.29719,2.4262,0.87794
429.386,23.10951,-1.33162,2.41732,0.87732
430.186,23.13466,-1.36453,2.40254,0.87669
430.986,23.1598,-1.3945,2.37993,0.87606
431.786,23.1849,-1.42883,2.35805,0.87543
432.586,23.21007,-1.45947,2.32904,0.8748
433.386,23.23519,-1.49072,2.29501,0.87417
434.186,23.26031,-1.52469,2.2587,0.87354
434.986,23.2855,-1.5529,2.21273,0.87291
435.786,23.31072,-1.58438,2.16925,0.87228
436.586,23.33571,-1.61569,2.12552,0.87165
437.386,23.3608,-1.64346,2.07853,0.87102
438.186,23.38587,-1.67415,2.02994,0.87039
438.986,23.41102,-1.70089,1.98132,0.86975
439.786,23.4362,-1.72764,1.93597,0.86912
440.586,23.46125,-1.75749,1.88851,0.86849
441.386,23.48634,-1.78158,1.84513,0.86785
442.186,23.5115,-1.80685,1.80292,0.86722
442.986,23.53667,-1.83239,1.76067,0.86658
443.786,23.56181,-1.85452,1.71852,0.86595
444.586,23.5869,-1.88005,1.67943,0.86531
445.386,23.612,-1.90259,1.64073,0.86468
446.186,23.63717,-1.92329,1.60482,0.86404
446.986,23.6623,-1.94634,1.57308,0.8634
447.786,23.68751,-1.96503,1.53883,0.86277
448.586,23.71254,-1.98447,1.50932,0.86213
449.386,23.7376,-2.00515,1.47863,0.86149
450.186,23.76276,-2.02229,1.45125,0.86085
450.986,23.78794,-2.04172,1.42917,0.86022
451.786,23.81318,-2.05861,1.40536,0.85958
452.586,23.83835,-2.0741,1.3802,0.85894
453.386,23.86354,-2.09129,1.3583,0.8583
454.186,23.88865,-2.10579,1.33864,0.85766
454.986,23.91379,-2.12017,1.32035,0.85702
455.786,23.939,-2.1345,1.30239,0.85638
456.586,23.96426,-2.14606,1.28114,0.85574
457.386,23.9895,-2.15842,1.26283,0.85509
458.186,24.01478,-2.1711,1.24425,0.85445
458.986,24.04005,-2.18156,1.22473,0.85381
459.786,24.06524,-2.19223,1.20491,0.85317
460.586,24.09044,-2.20195,1.18672,0.85252
461.386,24.1157,-2.21166,1.16373,0.85188
462.186,24.14089,-2.22109,1.14569,0.85124
462.986,24.16615,-2.22817,1.12634,0.85059
463.786,24.19142,-2.23779,1.10891,0.84995
464.586,24.21673,-2.24608,1.08977,0.8493
465.386,24.24202,-2.25309,1.0719,0.84866
466.186,24.26739,-2.26005,1.05522,0.84801
466.986,24.29252,-2.2658,1.04223,0.84737
467.786,24.31772,-2.272,1.02746,0.84672
468.586,24.34291,-2.27966,1.0165,0.84608
469.386,24.36818,-2.28734,1.00098,0.84543
470.186,24.39349,-2.29433,0.99064,0.84478
470.986,24.41876,-2.30152,0.98079,0.84414
471.786,24.444,-2.30723,0.9705,0.84349
472.586,24.4694,-2.31486,0.95831,0.84284
473.386,24.49474,-2.32164,0.95139,0.84219
474.186,24.52008,-2.32744,0.94219,0.84154
474.986,24.54544,-2.33371,0.93388,0.84089
475.786,24.57077,-2.3397,0.92828,0.84025
476.586,24.59614,-2.3453,0.92026,0.8396
477.386,24.6216,-2.35227,0.91119,0.83895
478.186,24.64695,-2.35808,0.90273,0.8383
478.986,24.6723,-2.3642,0.89492,0.83765
479.786,24.6977,-2.37068,0.8806,0.837
480.586,24.72308,-2.37654,0.87282,0.83634
481.386,24.74843,-2.38262,0.86002,0.83569
482.186,24.77382,-2.38865,0.85487,0.83504
482.986,24.79924,-2.39407,0.84356,0.83439
483.786,24.8249,-2.39862,0.83197,0.83374
484.586,24.85049,-2.40295,0.8169,0.83309
485.386,24.87614,-2.40818,0.80433,0.83243
486.186,24.90158,-2.41309,0.78726,0.83178
486.986,24.927,-2.41714,0.76983,0.83113
487.786,24.95243,-2.4207,0.75109,0.83048
488.586,24.97782,-2.42418,0.73051,0.82982
489.386,25.00321,-2.42775,0.71077,0.82917
490.186,25.02867,-2.43082,0.69225,0.82851
490.986,25.05414,-2.43315,0.67089,0.82786
491.786,25.0797,-2.43575,0.64955,0.82721
492.586,25.10525,-2.43856,0.62906,0.82655
493.386,25.13058,-2.44075,0.61057,0.8259
494.186,25.15595,-2.44257,0.58982,0.82524
494.986,25.18143,-2.44555,0.57162,0.82458
495.786,25.207,-2.44691,0.55478,0.82393
496.586,25.23249,-2.44681,0.53674,0.82327
497.386,25.25798,-2.44837,0.52175,0.82262
498.186,25.2835,-2.45099,0.50705,0.82196
498.986,25.30911,-2.4537,0.49463,0.8213
499.786,25.33472,-2.45486,0.48217,0.82065
500.586,25.36029,-2.4562,0.47364,0.81999
501.386,25.38587,-2.45758,0.46345,0.81933
502.186,25.41139,-2.45756,0.45352,0.81868
502.986,25.4369,-2.45894,0.44646,0.81802
503.786,25.46237,-2.46054,0.43806,0.81736
504.586,25.48786,-2.46095,0.43298,0.8167
505.386,25.51343,-2.46156,0.4251,0.81604
506.186,25.53905,-2.46187,0.42044,0.81538
506.986,25.5646,-2.46181,0.41457,0.81473
507.786,25.59028,-2.46344,0.40817,0.81407
508.586,25.61593,-2.46591,0.40553,0.81341
509.386,25.64154,-2.46607,0.39784,0.81275
510.186,25.66715,-2.46723,0.39713,0.81209
510.986,25.6928,-2.46771,0.39276,0.81143
511.786,25.7184,-2.46892,0.39007,0.81077
512.586,25.7439,-2.47033,0.3882,0.81011
513.386,25.76955,-2.47021,0.38679,0.80945
514.186,25.7952,-2.4718,0.38244,0.80879
514.986,25.821,-2.47251,0.38075,0.80813
515.786,25.8468,-2.47308,0.37544,0.80747
516.586,25.87249,-2.4732,0.37285,0.80681
517.386,25.89813,-2.47443,0.37547,0.80614
518.186,25.9238,-2.47536,0.37059,0.80548
518.986,25.94947,-2.4757,0.37,0.80482
519.786,25.97523,-2.47816,0.36508,0.80416
520.586,26.00096,-2.47908,0.36311,0.8035
521.386,26.02675,-2.47929,0.36247,0.80284
522.186,26.05245,-2.48072,0.36126,0.80217
522.986,26.0781,-2.48154,0.35465,0.80151
523.786,26.1039,-2.48251,0.35588,0.80085
524.586,26.1296,-2.48361,0.35312,0.80019
525.386,26.15533,-2.48498,0.35084,0.79952
526.186,26.1809,-2.485,0.3542,0.79886
526.986,26.20641,-2.48625,0.34872,0.7982
527.786,26.23218,-2.48642,0.34664,0.79754
528.586,26.25798,-2.48758,0.34708,0.79687
529.386,26.28394,-2.48855,0.34332,0.79621
530.186,26.30974,-2.48918,0.34072,0.79555
530.986,26.33545,-2.49045,0.34191,0.79488
531.786,26.3611,-2.49194,0.34115,0.79422
532.586,26.38685,-2.49301,0.33934,0.79355
533.386,26.4128,-2.49327,0.33765,0.79289
534.186,26.4387,-2.49324,0.33402,0.79223
534.986,26.4647,-2.49476,0.33638,0.79156
535.786,26.49049,-2.4947,0.33285,0.7909
536.586,26.51639,-2.4947,0.33229,0.79023
537.386,26.5422,-2.4947,0.33253,0.78957
538.186,26.5681,-2.49608,0.33126,0.7889
538.986,26.5939,-2.49758,0.33087,0.78824
539.786,26.6197,-2.49951,0.33054,0.78757
540.586,26.64544,-2.50125,0.33067,0.78691
541.386,26.67122,-2.50279,0.3308,0.78624
542.186,26.69705,-2.50444,0.32558,0.78558
542.986,26.72297,-2.50536,0.32753,0.78491
543.786,26.74885,-2.50575,0.32487,0.78425
544.586,26.7747,-2.50714,0.3244,0.78358
545.386,26.80065,-2.50709,0.324,0.78291
546.186,26.82657,-2.50721,0.32548,0.78225
546.986,26.85248,-2.50826,0.32326,0.78158
547.786,26.8783,-2.50859,0.32325,0.78092
548.586,26.90411,-2.50908,0.32288,0.78025
549.386,26.92998,-2.5106,0.32208,0.77958
550.186,26.9559,-2.51178,0.31862,0.77892
550.986,26.98185,-2.51204,0.3202,0.77825
551.786,27.00777,-2.51349,0.3186,0.77759
552.586,27.0337,-2.51376,0.31677,0.77692
553.386,27.05963,-2.51488,0.31605,0.77625
554.186,27.08555,-2.5164,0.31778,0.77559
554.986,27.1115,-2.51716,0.31598,0.77492
555.786,27.13731,-2.51907,0.31939,0.77425
556.586,27.16327,-2.52063,0.31653,0.77359
557.386,27.18924,-2.5224,0.31587,0.77292
558.186,27.21525,-2.5227,0.31516,0.77225
558.986,27.2412,-2.52418,0.31768,0.77158
559.786,27.26714,-2.52572,0.31849,0.77092
560.586,27.29308,-2.52707,0.31661,0.77025
561.386,27.319,-2.52874,0.32033,0.76958
562.186,27.34501,-2.52992,0.31718,0.76892
562.986,27.37101,-2.53073,0.32036,0.76825
563.786,27.39697,-2.53291,0.31905,0.76758
564.586,27.423,-2.53435,0.32018,0.76691
565.386,27.449,-2.53484,0.31813,0.76625
566.186,27.475,-2.53586,0.32057,0.76558
566.986,27.501,-2.53723,0.32323,0.76491
567.786,27.527,-2.53843,0.31932,0.76424
568.586,27.55295,-2.53859,0.32281,0.76358
569.386,27.57895,-2.53991,0.32345,0.76291
570.186,27.6049,-2.54118,0.32417,0.76224
570.986,27.6309,-2.54289,0.32481,0.76157
571.786,27.6569,-2.54422,0.32704,0.76091
572.586,27.683,-2.54583,0.3287,0.76024
573.386,27.70913,-2.5477,0.33118,0.75957
574.186,27.7352,-2.54985,0.33257,0.7589
574.986,27.7613,-2.55121,0.33196,0.75824
575.786,27.7872,-2.55251,0.33377,0.75757
576.586,27.8133,-2.55278,0.33531,0.7569
577.386,27.83928,-2.55402,0.33785,0.75623
578.186,27.86538,-2.55559,0.34006,0.75556
578.986,27.89146,-2.55735,0.34165,0.7549
579.786,27.91755,-2.55884,0.34422,0.75423
580.586,27.94363,-2.55985,0.3452,0.75356
581.386,27.96975,-2.56091,0.34733,0.75289
582.186,27.99588,-2.56211,0.34919,0.75223
582.986,28.022,-2.56341,0.35263,0.75156
583.786,28.0481,-2.56549,0.35521,0.75089
584.586,28.07419,-2.56695,0.35586,0.75022
585.386,28.10029,-2.56865,0.35932,0.74955
586.186,28.12639,-2.56991,0.36473,0.74889
586.986,28.1524,-2.57137,0.36561,0.74822
587.786,28.1785,-2.57279,0.36791,0.74755
588.586,28.20455,-2.57431,0.3686,0.74688
589.386,28.2306,-2.57644,0.37124,0.74621
590.186,28.2568,-2.57722,0.37522,0.74555
590.986,28.28302,-2.57852,0.37631,0.74488
591.786,28.3092,-2.58006,0.38129,0.74421
592.586,28.3354,-2.5815,0.38665,0.74354
593.386,28.36148,-2.58277,0.38628,0.74288
594.186,28.38765,-2.58554,0.39044,0.74221
594.986,28.41382,-2.58676,0.39278,0.74154
595.786,28.43999,-2.5887,0.39808,0.74087
596.586,28.4662,-2.59112,0.40358,0.74021
597.386,28.49243,-2.59275,0.40647,0.73954
598.186,28.5186,-2.59402,0.4089,0.73887
598.986,28.54477,-2.59604,0.41223,0.7382
599.786,28.5708,-2.59839,0.41786,0.73754
600.586,28.5969,-2.59996,0.42743,0.73687
601.386,28.62303,-2.60112,0.43244,0.7362
602.186,28.64932,-2.60262,0.44049,0.73553
602.986,28.67568,-2.6043,0.44394,0.73487
603.786,28.7019,-2.60639,0.45509,0.7342
604.586,28.72816,-2.60874,0.45948,0.73353
605.386,28.75435,-2.61085,0.47317,0.73286
606.186,28.7806,-2.61296,0.47949,0.7322
606.986,28.80684,-2.61568,0.48973,0.73153
607.786,28.83308,-2.61811,0.50274,0.73086
608.586,28.85925,-2.62118,0.51417,0.7302
609.386,28.88539,-2.62349,0.52934,0.72953
610.186,28.9116,-2.62598,0.54197,0.72886
610.986,28.9378,-2.62804,0.55674,0.7282
611.786,28.96407,-2.63079,0.57137,0.72753
612.586,28.9903,-2.63358,0.58474,0.72686
613.386,29.0166,-2.63564,0.5989,0.7262
614.186,29.043,-2.63903,0.60641,0.72553
614.986,29.06928,-2.64265,0.61405,0.72486
615.786,29.0956,-2.6463,0.6193,0.7242
616.586,29.12182,-2.64946,0.62357,0.72353
617.386,29.14813,-2.653,0.62717,0.72286
618.186,29.1744,-2.65779,0.62491,0.7222
618.986,29.2007,-2.6616,0.62674,0.72153
619.786,29.2268,-2.66569,0.62632,0.72087
620.586,29.253,-2.67024,0.62771,0.7202
621.386,29.27925,-2.67493,0.62834,0.71953
622.186,29.3055,-2.67888,0.62641,0.71887
622.986,29.33203,-2.6827,0.62005,0.7182
623.786,29.3583,-2.68677,0.61796,0.71754
624.586,29.38464,-2.69149,0.61277,0.71687
625.386,29.41098,-2.69641,0.60957,0.71621
626.186,29.43726,-2.70118,0.6011,0.71554
626.986,29.4635,-2.70606,0.58907,0.71488
627.786,29.4898,-2.71062,0.57988,0.71421
628.586,29.5161,-2.71482,0.57015,0.71355
629.386,29.5425,-2.71888,0.55896,0.71288
630.186,29.56885,-2.72393,0.54912,0.71222
630.986,29.59517,-2.72813,0.53573,0.71155
631.786,29.62145,-2.73213,0.52632,0.71089
632.586,29.6478,-2.73559,0.51887,0.71022
633.386,29.6741,-2.73952,0.5105,0.70956
634.186,29.7005,-2.74274,0.50108,0.70889
634.986,29.72692,-2.74521,0.48754,0.70823
635.786,29.7533,-2.74764,0.47024,0.70756
636.586,29.7796,-2.74904,0.45317,0.7069
637.386,29.806,-2.75051,0.43485,0.70624
638.186,29.8324,-2.75207,0.41671,0.70557
638.986,29.85885,-2.75376,0.40236,0.70491
639.786,29.8852,-2.75569,0.38924,0.70425
640.586,29.91168,-2.75678,0.37747,0.70358
641.386,29.9381,-2.75763,0.36668,0.70292
642.186,29.9646,-2.75892,0.3566,0.70226
642.986,29.991,-2.76013,0.34642,0.70159
643.786,30.01735,-2.76014,0.34103,0.70093
644.586,30.04368,-2.76084,0.33451,0.70027
645.386,30.0701,-2.76145,0.33011,0.6996
646.186,30.09655,-2.76296,0.32824,0.69894
646.986,30.12298,-2.76453,0.32723,0.69828
647.786,30.1494,-2.7647,0.33122,0.69762
648.586,30.1759,-2.7657,0.33125,0.69695
649.386,30.2023,-2.7659,0.33564,0.69629
650.186,30.2287,-2.7671,0.33949,0.69563
650.986,30.2551,-2.76873,0.34418,0.69497
651.786,30.2815,-2.76979,0.3519,0.69431
652.586,30.3079,-2.77001,0.35991,0.69365
653.386,30.3344,-2.77003,0.36242,0.69298
654.186,30.36082,-2.77106,0.37037,0.69232
654.986,30.3872,-2.77128,0.38097,0.69166
655.786,30.4136,-2.77282,0.38369,0.691
656.586,30.44,-2.77341,0.39478,0.69034
657.386,30.4665,-2.77426,0.39773,0.68968
658.186,30.4929,-2.77568,0.40711,0.68902
658.986,30.5194,-2.77699,0.41354,0.68836
659.786,30.54585,-2.77699,0.4213,0.6877
660.586,30.5722,-2.77852,0.42657,0.68704
661.386,30.59866,-2.77899,0.43391,0.68638
662.186,30.6251,-2.77992,0.44326,0.68572
662.986,30.6516,-2.78128,0.44946,0.68506
663.786,30.678,-2.78078,0.4542,0.6844
664.586,30.7045,-2.78187,0.46243,0.68374
665.386,30.73092,-2.78202,0.47083,0.68308
666.186,30.7574,-2.78336,0.47986,0.68242
666.986,30.78385,-2.78502,0.48925,0.68176
667.786,30.8104,-2.78594,0.49555,0.6811
668.586,30.8368,-2.78673,0.50714,0.68045
669.386,30.86327,-2.78778,0.51439,0.67979
670.186,30.88976,-2.78932,0.52417,0.67913
670.986,30.9162,-2.79079,0.53495,0.67847
671.786,30.94265,-2.79175,0.55168,0.67781
672.586,30.96906,-2.79222,0.55833,0.67716
673.386,30.9955,-2.79374,0.56946,0.6765
674.186,31.02197,-2.79485,0.58194,0.67584
674.986,31.04843,-2.79563,0.59794,0.67518
675.786,31.0749,-2.79687,0.61116,0.67453
676.586,31.10135,-2.79819,0.62347,0.67387
677.386,31.1278,-2.7998,0.6361,0.67321
678.186,31.15418,-2.801,0.64985,0.67256
678.986,31.1807,-2.80155,0.6645,0.6719
679.786,31.2072,-2.80242,0.67763,0.67124
680.586,31.23372,-2.80409,0.69144,0.67059
681.386,31.26023,-2.80436,0.70516,0.66993
682.186,31.2868,-2.80527,0.71518,0.66928
682.986,31.31322,-2.80674,0.73203,0.66862
683.786,31.33975,-2.80829,0.7434,0.66797
684.586,31.36625,-2.80979,0.75647,0.66731
685.386,31.39278,-2.81114,0.77052,0.66666
686.186,31.41931,-2.81285,0.78928,0.666
686.986,31.44568,-2.81415,0.7992,0.66535
687.786,31.4721,-2.81559,0.81015,0.66469
688.586,31.49853,-2.81637,0.82848,0.66404
689.386,31.5251,-2.81742,0.84212,0.66339
690.186,31.55152,-2.81897,0.85595,0.66273
690.986,31.578,-2.82086,0.87186,0.66208
691.786,31.6045,-2.82259,0.88882,0.66143
692.586,31.63107,-2.82287,0.90799,0.66077
693.386,31.65765,-2.82443,0.9279,0.66012
694.186,31.6842,-2.82592,0.94663,0.65947
694.986,31.7108,-2.82751,0.96544,0.65881
695.786,31.73733,-2.82927,0.9851,0.65816
696.586,31.7639,-2.8312,1.00497,0.65751
697.386,31.79038,-2.83278,1.02916,0.65686
698.186,31.81693,-2.83415,1.05276,0.65621
698.986,31.8435,-2.83573,1.07327,0.65555
699.786,31.87,-2.83779,1.09921,0.6549
700.586,31.89658,-2.84082,1.1223,0.65425
701.386,31.9231,-2.8437,1.1488,0.6536
702.186,31.9496,-2.84503,1.17706,0.65295
702.986,31.97622,-2.84673,1.20329,0.6523
703.786,32.00278,-2.84844,1.22179,0.65165
704.586,32.02939,-2.85067,1.2488,0.651
705.386,32.05603,-2.85207,1.26937,0.65035
706.186,32.08269,-2.85458,1.29332,0.6497
706.986,32.10929,-2.85637,1.3124,0.64905
707.786,32.13579,-2.85929,1.33152,0.6484
708.586,32.16235,-2.86138,1.34861,0.64775
709.386,32.189,-2.86347,1.36393,0.6471
710.186,32.2156,-2.86572,1.37809,0.64646
710.986,32.24218,-2.86841,1.38862,0.64581
711.786,32.26878,-2.87111,1.39276,0.64516
712.586,32.29533,-2.87306,1.39533,0.64451
713.386,32.32196,-2.87575,1.39095,0.64386
714.186,32.34847,-2.87649,1.3875,0.64322
714.986,32.37506,-2.87869,1.3723,0.64257
715.786,32.40165,-2.88086,1.34832,0.64192
716.586,32.42836,-2.88348,1.32149,0.64128
717.386,32.45503,-2.88563,1.28205,0.64063
718.186,32.48165,-2.88723,1.22966,0.63998
718.986,32.50825,-2.88895,1.16628,0.63934
719.786,32.53487,-2.89051,1.09885,0.63869
720.586,32.56149,-2.892,1.01511,0.63805
721.386,32.58811,-2.89371,0.90604,0.6374
722.186,32.6147,-2.89559,0.77049,0.63676
722.986,32.6412,-2.89705,0.63442,0.63611
723.786,32.66771,-2.89873,0.52098,0.63547
724.586,32.69429,-2.90043,0.43026,0.63482
725.386,32.72078,-2.90038,0.36366,0.63418
726.186,32.7474,-2.90008,0.30653,0.63353
726.986,32.77394,-2.9001,0.26263,0.63289
727.786,32.80042,-2.90031,0.23161,0.63225
728.586,32.827,-2.90045,0.20417,0.6316
729.386,32.8536,-2.9016,0.18302,0.63096
730.186,32.8803,-2.90163,0.16639,0.63032
730.986,32.9069,-2.90163,0.15075,0.62968
731.786,32.9335,-2.90163,0.14088,0.62903
732.586,32.9602,-2.90163,0.12919,0.62839
733.386,32.9867,-2.90163,0.12066,0.62775
734.186,33.01331,-2.90163,0.11181,0.62711
734.986,33.04,-2.90163,0.10452,0.62647
735.786,33.06674,-2.90363,0.09831616,0.62583
736.586,33.09344,-2.90393,0.09540767,0.62519
737.386,33.12014,-2.90394,0.09113594,0.62454
738.186,33.14683,-2.90417,0.08385961,0.6239
738.986,33.17349,-2.90427,0.08081109,0.62326
739.786,33.20017,-2.90427,0.07770684,0.62262
740.586,33.2268,-2.90427,0.07282627,0.62199
741.386,33.25351,-2.90443,0.06870961,0.62135
742.186,33.28022,-2.90558,0.06663174,0.62071
742.986,33.30684,-2.90598,0.06378005,0.62007
743.786,33.3335,-2.90689,0.06140112,0.61943
744.586,33.3602,-2.9069,0.06010709,0.61879
745.386,33.387,-2.90681,0.05513685,0.61815
746.186,33.41366,-2.90822,0.05455266,0.61752
746.986,33.44032,-2.90821,0.052543,0.61688
747.786,33.46702,-2.90821,0.04987057,0.61624
748.586,33.49374,-2.90748,0.04647462,0.6156
749.386,33.52046,-2.90587,0.04665897,0.61497
750.186,33.5473,-2.90487,0.04132293,0.61433
750.986,33.574,-2.90418,0.03832156,0.6137
751.786,33.6008,-2.90532,0.03432327,0.61306
752.586,33.6275,-2.90709,0.03637568,0.61242
753.386,33.65428,-2.90879,0.03153024,0.61179
754.186,33.68112,-2.90906,0.03182144,0.61115
754.986,33.7079,-2.90996,0.02964398,0.61052
755.786,33.7346,-2.90997,0.02469903,0.60988
756.586,33.76135,-2.90999,0.02409318,0.60925
757.386,33.7881,-2.90866,0.02245926,0.60862
758.186,33.8148,-2.90865,0.02172803,0.60798
758.986,33.8416,-2.90865,0.0209599,0.60735
759.786,33.86838,-2.90865,0.01716132,0.60672
760.586,33.89515,-2.90865,0.01782193,0.60608
761.386,33.92191,-2.90865,0.01396955,0.60545
762.186,33.9486,-2.90888,0.015266,0.60482
762.986,33.9754,-2.90995,0.01159301,0.60419
763.786,34.00215,-2.90997,0.0083754,0.60355
764.586,34.0289,-2.90997,0.004551768,0.60292
765.386,34.05575,-2.91071,0.00211962,0.60229
766.186,34.08255,-2.91095,-0.00120098,0.60166
766.986,34.10937,-2.91095,0.00349764,0.60103
767.786,34.13605,-2.91095,-0.00329251,0.6004
768.586,34.16282,-2.91095,-0.00177968,0.59977
769.386,34.18957,-2.91095,-0.005028721,0.59914
770.186,34.2164,-2.91016,-0.008750481,0.59851
770.986,34.24317,-2.90996,-0.01241778,0.59788
771.786,34.26999,-2.90996,-0.01270816,0.59725
772.586,34.29679,-2.90996,-0.01695509,0.59662
773.386,34.32358,-2.90996,-0.0213425,0.59599
774.186,34.35035,-2.90996,-0.01890167,0.59536
774.986,34.3772,-2.90986,-0.02397718,0.59474
775.786,34.40398,-2.90996,-0.02677466,0.59411
776.586,34.4308,-2.90996,-0.02177934,0.59348
777.386,34.45758,-2.90994,-0.02782905,0.59285
778.186,34.48434,-2.91102,-0.02920483,0.59223
778.986,34.51113,-2.91096,-0.03106755,0.5916
779.786,34.53791,-2.91096,-0.03595076,0.59098
780.586,34.56477,-2.91091,-0.03558809,0.59035
781.386,34.5916,-2.91231,-0.04001071,0.58972
782.186,34.6185,-2.91227,-0.04078921,0.5891
782.986,34.6453,-2.91227,-0.04248004,0.58847
783.786,34.67214,-2.91227,-0.03886548,0.58785
784.586,34.69887,-2.91227,-0.0478041,0.58722
785.386,34.72555,-2.91227,-0.0531707,0.5866
786.186,34.75227,-2.91227,-0.0501447,0.58598
786.986,34.7791,-2.91258,-0.05550295,0.58535
787.786,34.80597,-2.91261,-0.05816723,0.58473
788.586,34.83297,-2.91245,-0.06091957,0.58411
789.386,34.8598,-2.91161,-0.0634263,0.58348
790.186,34.88658,-2.9115,-0.06692895,0.58286
790.986,34.91344,-2.91257,-0.06528427,0.58224
791.786,34.9403,-2.9126,-0.06857676,0.58162
792.586,34.96713,-2.91136,-0.07082743,0.58099
793.386,34.99398,-2.91265,-0.07488943,0.58037
794.186,35.02085,-2.9126,-0.07579362,0.57975
794.986,35.0478,-2.9126,-0.07675443,0.57913
795.786,35.07463,-2.91259,-0.08144477,0.57851
796.586,35.1015,-2.91397,-0.08187216,0.57789
797.386,35.12835,-2.91391,-0.08741097,0.57727
798.186,35.1553,-2.91391,-0.08658014,0.57665
798.986,35.18224,-2.91391,-0.08630211,0.57603
799.786,35.20906,-2.91391,-0.09250031,0.57541
800.586,35.23592,-2.91391,-0.09354345,0.5748
801.386,35.2628,-2.91403,-0.09562243,0.57418
802.186,35.28966,-2.91523,-0.09825477,0.57356
802.986,35.31643,-2.91525,-0.10183,0.57294
803.786,35.3433,-2.91588,-0.10611,0.57232
804.586,35.37014,-2.91523,-0.10926,0.57171
805.386,35.39705,-2.91523,-0.11001,0.57109
806.186,35.42391,-2.91523,-0.11546,0.57047
806.986,35.4508,-2.91523,-0.11651,0.56986
807.786,35.47773,-2.91523,-0.11858,0.56924
808.586,35.50464,-2.91523,-0.1208,0.56863
809.386,35.53158,-2.91523,-0.1246,0.56801
810.186,35.55845,-2.91545,-0.1231,0.5674
810.986,35.58534,-2.91653,-0.13407,0.56678
811.786,35.61227,-2.91655,-0.1321,0.56617
812.586,35.63915,-2.91655,-0.13911,0.56555
813.386,35.66601,-2.91655,-0.13969,0.56494
814.186,35.6929,-2.91716,-0.14294,0.56432
814.986,35.7199,-2.91786,-0.14811,0.56371
815.786,35.74686,-2.91797,-0.15087,0.5631
816.586,35.77387,-2.91794,-0.15202,0.56249
817.386,35.80076,-2.91787,-0.16023,0.56187
818.186,35.82761,-2.91787,-0.15986,0.56126
818.986,35.85451,-2.91787,-0.16165,0.56065
819.786,35.8814,-2.91787,-0.16074,0.56004
820.586,35.90831,-2.91787,-0.16544,0.55943
821.386,35.93522,-2.9179,-0.16538,0.55882
822.186,35.96208,-2.91755,-0.16803,0.55821
822.986,35.98903,-2.91754,-0.16327,0.5576
823.786,36.01595,-2.91756,-0.17225,0.55699
824.586,36.04296,-2.91649,-0.17275,0.55638
825.386,36.06978,-2.91655,-0.17449,0.55577
826.186,36.09666,-2.91655,-0.17539,0.55516
826.986,36.1235,-2.91655,-0.17745,0.55455
827.786,36.1504,-2.91655,-0.17956,0.55394
828.586,36.17733,-2.91655,-0.18641,0.55334
829.386,36.20429,-2.91655,-0.18233,0.55273
830.186,36.23125,-2.91656,-0.18348,0.55212
830.986,36.25815,-2.91792,-0.18859,0.55151
831.786,36.28504,-2.91911,-0.19237,0.55091
832.586,36.3119,-2.91918,-0.19116,0.5503
833.386,36.3388,-2.91918,-0.19589,0.54969
834.186,36.3658,-2.92013,-0.19012,0.54909
834.986,36.39287,-2.9205,-0.19457,0.54848
835.786,36.41985,-2.91985,-0.19262,0.54788
836.586,36.44665,-2.91918,-0.19473,0.54727
837.386,36.4733,-2.92059,-0.19272,0.54667
838.186,36.5002,-2.9205,-0.1984,0.54607
838.986,36.52714,-2.9192,-0.19752,0.54546
839.786,36.55429,-2.91914,-0.19806,0.54486
840.586,36.58129,-2.92052,-0.19965,0.54425
841.386,36.60824,-2.92049,-0.19771,0.54365
842.186,36.63518,-2.92056,-0.19874,0.54305
842.986,36.6621,-2.92179,-0.1981,0.54245
843.786,36.689,-2.92181,-0.19668,0.54185
844.586,36.71605,-2.92181,-0.20052,0.54124
845.386,36.74299,-2.92181,-0.20199,0.54064
846.186,36.76997,-2.92181,-0.19961,0.54004
846.986,36.79695,-2.92181,-0.20161,0.53944
847.786,36.82393,-2.92181,-0.20394,0.53884
848.586,36.851,-2.92181,-0.19744,0.53824
849.386,36.87787,-2.92297,-0.20015,0.53764
850.186,36.90484,-2.92314,-0.19787,0.53704
850.986,36.93181,-2.92362,-0.20148,0.53644
851.786,36.9589,-2.92443,-0.20131,0.53584
852.586,36.98595,-2.92444,-0.20097,0.53525
853.386,37.01293,-2.92447,-0.20068,0.53465
854.186,37.03994,-2.92313,-0.2015,0.53405
854.986,37.06695,-2.92313,-0.20198,0.53345
855.786,37.09393,-2.92314,-0.2047,0.53286
856.586,37.121,-2.92307,-0.20498,0.53226
857.386,37.1481,-2.92182,-0.20399,0.53166
858.186,37.1751,-2.92182,-0.20674,0.53107
858.986,37.2021,-2.92182,-0.20466,0.53047
859.786,37.2291,-2.92182,-0.2041,0.52988
860.586,37.25606,-2.92183,-0.20314,0.52928
861.386,37.28308,-2.92272,-0.19992,0.52869
862.186,37.31009,-2.92313,-0.20089,0.52809
862.986,37.33712,-2.92313,-0.20067,0.5275
863.786,37.3641,-2.92309,-0.20043,0.5269
864.586,37.3911,-2.92182,-0.20121,0.52631
865.386,37.4181,-2.92201,-0.20109,0.52572
866.186,37.4451,-2.92311,-0.20345,0.52513
866.986,37.47215,-2.92313,-0.20221,0.52453
867.786,37.49917,-2.92313,-0.20467,0.52394
868.586,37.52619,-2.92313,-0.20183,0.52335
869.386,37.55319,-2.92307,-0.20168,0.52276
870.186,37.58021,-2.92444,-0.19917,0.52217
870.986,37.60727,-2.92444,-0.20174,0.52158
871.786,37.63429,-2.92444,-0.19703,0.52098
872.586,37.66126,-2.92443,-0.19696,0.52039
873.386,37.68824,-2.92309,-0.19463,0.5198
874.186,37.71529,-2.92303,-0.19449,0.51922
874.986,37.74227,-2.92445,-0.19386,0.51863
875.786,37.7693,-2.92444,-0.19124,0.51804
876.586,37.7962,-2.92444,-0.1914,0.51745
877.386,37.82331,-2.92444,-0.18866,0.51686
878.186,37.8504,-2.92444,-0.18786,0.51627
878.986,37.87746,-2.92444,-0.18588,0.51569
879.786,37.90453,-2.92467,-0.18288,0.5151
880.586,37.93153,-2.92575,-0.18387,0.51451
881.386,37.95858,-2.92576,-0.18236,0.51392
882.186,37.98568,-2.92576,-0.18173,0.51334
882.986,38.01277,-2.92576,-0.18131,0.51275
883.786,38.03983,-2.92576,-0.1793,0.51217
884.586,38.06687,-2.92576,-0.17806,0.51158
885.386,38.09387,-2.92576,-0.1781,0.511
886.186,38.12088,-2.92441,-0.17236,0.51041
886.986,38.1479,-2.92445,-0.17113,0.50983
887.786,38.17492,-2.92445,-0.16599,0.50924
888.586,38.20196,-2.92445,-0.1659,0.50866
889.386,38.22906,-2.92443,-0.16971,0.50808
890.186,38.25613,-2.9258,-0.1707,0.5075
890.986,38.28318,-2.92576,-0.16948,0.50691
891.786,38.3112,-2.92576,-0.1677,0.50633
892.386,38.33185,-2.92576,-0.16895,0.50589