File: 01_Data/Triexta_Carpet_High_Pile/STA/N2/30K_min/Triexta_Carpet_High_Pile_STA_N2_30KData_220111_R1.csv
##Temp./Â°C,Time/min,Mass loss(subtr.2)/mg,DSC(subtr.2)/(mW/mg),Sensit./(uV/mW)
48.607,10.00917,0.01217,-0.002161446,1.06963
49.407,10.57507,0.01471366,0.03443871,1.06956
50.207,10.706,0.01303765,0.06975096,1.06948
51.007,10.80038,0.01501251,0.10006,1.06941
51.807,10.87696,0.01422836,0.13099,1.06933
52.607,10.94453,0.016456,0.15782,1.06926
53.407,11.00451,0.01512606,0.18132,1.06918
54.207,11.05948,0.01437427,0.20339,1.0691
55.007,11.11074,0.0142055,0.22676,1.06901
55.807,11.15881,0.01436172,0.24877,1.06893
56.607,11.20457,0.01564132,0.26773,1.06884
57.407,11.24801,0.01496918,0.28473,1.06875
58.207,11.29002,0.01473148,0.30484,1.06866
59.007,11.3305,0.01384119,0.31824,1.06857
59.807,11.36938,0.01348552,0.33507,1.06848
60.607,11.40736,0.01479253,0.34884,1.06838
61.407,11.44437,0.01498902,0.36222,1.06829
62.207,11.48087,0.01640766,0.37231,1.06819
63.007,11.51661,0.01563627,0.38341,1.06809
63.807,11.55159,0.01516832,0.39459,1.06798
64.607,11.58574,0.01502211,0.40283,1.06788
65.407,11.61932,0.0150238,0.4125,1.06777
66.207,11.6525,0.01558662,0.42107,1.06767
67.007,11.6853,0.0161316,0.42789,1.06756
67.807,11.71771,0.01348069,0.43321,1.06745
68.607,11.7499,0.0133849,0.44019,1.06733
69.407,11.78162,0.01442287,0.44701,1.06722
70.207,11.81298,0.0151803,0.45405,1.0671
71.007,11.8439,0.01616074,0.45904,1.06698
71.807,11.87447,0.01617648,0.46525,1.06686
72.607,11.90512,0.01671428,0.47158,1.06674
73.407,11.93558,0.01642295,0.47988,1.06662
74.207,11.96583,0.01634837,0.48329,1.06649
75.007,11.99588,0.01691973,0.48986,1.06637
75.807,12.02575,0.01713773,0.49541,1.06624
76.607,12.0554,0.01692991,0.5023,1.06611
77.407,12.08479,0.01715464,0.50599,1.06598
78.207,12.11407,0.01795852,0.51014,1.06584
79.007,12.1434,0.01833917,0.5167,1.06571
79.807,12.17255,0.01743157,0.51985,1.06557
80.607,12.20155,0.01727684,0.52443,1.06543
81.407,12.2303,0.01688883,0.52748,1.06529
82.207,12.25908,0.01622909,0.53377,1.06515
83.007,12.28753,0.01555814,0.53524,1.065
83.807,12.31593,0.0144828,0.53813,1.06486
84.607,12.34414,0.01496066,0.54503,1.06471
85.407,12.3724,0.01444921,0.55003,1.06456
86.207,12.40057,0.01384859,0.55247,1.06441
87.007,12.42879,0.01382994,0.55793,1.06426
87.807,12.4568,0.01435951,0.5617,1.0641
88.607,12.48466,0.0138329,0.56665,1.06394
89.407,12.51247,0.01333444,0.57117,1.06379
90.207,12.54013,0.01381748,0.57455,1.06363
91.007,12.5679,0.0129213,0.57859,1.06347
91.807,12.5955,0.01397795,0.58125,1.0633
92.607,12.6231,0.01391905,0.58604,1.06314
93.407,12.65061,0.01397333,0.58994,1.06297
94.207,12.67796,0.01403591,0.59421,1.0628
95.007,12.70539,0.01467329,0.59598,1.06263
95.807,12.73274,0.01435838,0.59913,1.06246
96.607,12.76014,0.01538536,0.60284,1.06229
97.407,12.7875,0.01549069,0.60747,1.06211
98.207,12.8148,0.01598931,0.61039,1.06194
99.007,12.842,0.01555006,0.61238,1.06176
99.807,12.86926,0.01557002,0.61543,1.06158
100.607,12.8964,0.01556823,0.62052,1.0614
101.407,12.92351,0.01565416,0.62351,1.06122
102.207,12.95065,0.01422805,0.62971,1.06103
103.007,12.9777,0.0150833,0.63217,1.06084
103.807,13.00479,0.01437717,0.63423,1.06066
104.607,13.03192,0.01464357,0.63739,1.06047
105.407,13.0589,0.0143714,0.63994,1.06027
106.207,13.08589,0.01436925,0.64321,1.06008
107.007,13.11295,0.01438327,0.64642,1.05989
107.807,13.14,0.01505967,0.65076,1.05969
108.607,13.1668,0.01429878,0.65318,1.05949
109.407,13.1937,0.01533058,0.65877,1.05929
110.207,13.2207,0.01437257,0.66179,1.05909
111.007,13.24775,0.01314797,0.66275,1.05889
111.807,13.2749,0.01304412,0.66666,1.05868
112.607,13.3018,0.0130498,0.6709,1.05848
113.407,13.32877,0.01334074,0.67608,1.05827
114.207,13.35555,0.01467464,0.67697,1.05806
115.007,13.38239,0.01468598,0.68108,1.05785
115.807,13.40921,0.01534934,0.68349,1.05763
116.607,13.436,0.01399603,0.68808,1.05742
117.407,13.46284,0.0141018,0.69048,1.0572
118.207,13.4896,0.01271839,0.69517,1.05699
119.007,13.5163,0.0127197,0.69676,1.05677
119.807,13.543,0.01271991,0.70016,1.05655
120.607,13.5697,0.01272061,0.70324,1.05632
121.407,13.59625,0.01281245,0.70772,1.0561
122.207,13.6228,0.01139318,0.71177,1.05587
123.007,13.64925,0.01140001,0.71398,1.05565
123.807,13.67585,0.01140067,0.71769,1.05542
124.607,13.70236,0.01137797,0.72221,1.05519
125.407,13.7289,0.01173359,0.72316,1.05495
126.207,13.7553,0.01299808,0.72467,1.05472
127.007,13.7816,0.01330067,0.72849,1.05448
127.807,13.80799,0.01199333,0.73396,1.05425
128.607,13.83433,0.01194655,0.73638,1.05401
129.407,13.8607,0.01195006,0.73928,1.05377
130.207,13.8871,0.01195043,0.7395,1.05353
131.007,13.9133,0.01190414,0.74188,1.05328
131.807,13.9395,0.01064497,0.74791,1.05304
132.607,13.9657,0.01064128,0.75037,1.05279
133.407,13.99172,0.01063997,0.75493,1.05254
134.207,14.0175,0.01063999,0.75654,1.05229
135.007,14.0435,0.01064042,0.75855,1.05204
135.807,14.06945,0.01063879,0.76311,1.05179
136.607,14.0957,0.00925105,0.76611,1.05154
137.407,14.1218,0.009372986,0.76818,1.05128
138.207,14.1478,0.00801661,0.77279,1.05102
139.007,14.1737,0.008009577,0.77621,1.05076
139.807,14.1996,0.00801,0.7798,1.0505
140.607,14.2255,0.00801,0.78251,1.05024
141.407,14.25131,0.008010004,0.78636,1.04998
142.207,14.27714,0.008010108,0.79015,1.04971
143.007,14.3029,0.008004831,0.7939,1.04944
143.807,14.3287,0.007983425,0.79724,1.04917
144.607,14.35436,0.009336425,0.80181,1.04891
145.407,14.38008,0.00932994,0.80518,1.04863
146.207,14.4057,0.009329993,0.81104,1.04836
147.007,14.4314,0.00933,0.8125,1.04809
147.807,14.457,0.009329991,0.81992,1.04781
148.607,14.4826,0.00933038,0.82197,1.04753
149.407,14.50821,0.00933356,0.82916,1.04725
150.207,14.53369,0.0088947,0.83353,1.04697
151.007,14.55919,0.008339009,0.83696,1.04669
151.807,14.58475,0.007695876,0.84247,1.04641
152.607,14.61019,0.007679819,0.85013,1.04612
153.407,14.6357,0.00767988,0.85686,1.04583
154.207,14.6612,0.007681994,0.86161,1.04555
155.007,14.6866,0.007745375,0.86676,1.04526
155.807,14.7121,0.007038259,0.87433,1.04496
156.607,14.7374,0.00702047,0.8815,1.04467
157.407,14.76283,0.007019974,0.89078,1.04438
158.207,14.78822,0.00702,0.90026,1.04408
159.007,14.8136,0.00701999,0.90747,1.04378
159.807,14.83895,0.00701998,0.91695,1.04349
160.607,14.86421,0.007026646,0.9276,1.04319
161.407,14.8896,0.005678029,0.93809,1.04288
162.207,14.9147,0.005693607,0.94715,1.04258
163.007,14.93997,0.005701466,0.95802,1.04228
163.807,14.96526,0.004762843,0.96562,1.04197
164.607,14.99056,0.00406165,0.9737,1.04166
165.407,15.01604,0.00406012,0.98223,1.04135
166.207,15.04129,0.00406,0.98322,1.04104
167.007,15.0665,0.004060021,0.98545,1.04073
167.807,15.0917,0.004059391,0.9858,1.04042
168.607,15.1169,0.00404538,0.98627,1.0401
169.407,15.14206,0.005097947,0.98442,1.03979
170.207,15.1672,0.00504167,0.98027,1.03947
171.007,15.19234,0.005039912,0.98032,1.03915
171.807,15.2175,0.0050399,0.97735,1.03883
172.607,15.24261,0.005044895,0.97555,1.03851
173.407,15.26765,0.003835066,0.97335,1.03818
174.207,15.2927,0.003034497,0.97286,1.03786
175.007,15.3177,0.002417002,0.97141,1.03753
175.807,15.3428,0.002409239,0.97238,1.0372
176.607,15.3678,0.00240676,0.97247,1.03687
177.407,15.3927,0.002626385,0.97321,1.03654
178.207,15.4176,0.003064335,0.97469,1.03621
179.007,15.44259,0.003069686,0.97702,1.03588
179.807,15.46752,0.00306015,0.97946,1.03554
180.607,15.4924,0.002151185,0.98401,1.0352
181.407,15.5173,0.00176532,0.98901,1.03487
182.207,15.5421,0.001748626,0.99085,1.03453
183.007,15.56691,0.001225456,0.99651,1.03419
183.807,15.59172,0.00109535,1.00143,1.03384
184.607,15.6164,0.001099309,1.00662,1.0335
185.407,15.6411,0.001109648,1.01106,1.03316
186.207,15.66593,0.0005145429,1.01743,1.03281
187.007,15.69072,0.0004388691,1.02278,1.03246
187.807,15.7156,0.0004469482,1.03051,1.03211
188.607,15.74034,-0.000934049,1.03539,1.03176
189.407,15.76501,-0.0008857151,1.04101,1.03141
190.207,15.7896,-0.0008799836,1.04751,1.03106
191.007,15.8143,-0.0008827437,1.05486,1.0307
191.807,15.83891,-0.001190934,1.06562,1.03034
192.607,15.86355,-0.003177101,1.07399,1.02999
193.407,15.8882,-0.003507336,1.08049,1.02963
194.207,15.91281,-0.003510305,1.09041,1.02927
195.007,15.9374,-0.003509993,1.09955,1.02891
195.807,15.9619,-0.00351056,1.10985,1.02854
196.607,15.9865,-0.003523055,1.11794,1.02818
197.407,16.01114,-0.004333189,1.12984,1.02781
198.207,16.03565,-0.004813533,1.13842,1.02745
199.007,16.0602,-0.00490104,1.1499,1.02708
199.807,16.08475,-0.00610497,1.16164,1.02671
200.607,16.10923,-0.007461805,1.17345,1.02634
201.407,16.1338,-0.007462489,1.18552,1.02597
202.207,16.15837,-0.00745347,1.19996,1.02559
203.007,16.18293,-0.00742684,1.21466,1.02522
203.807,16.20748,-0.00845332,1.232,1.02484
204.607,16.23193,-0.00836925,1.24738,1.02446
205.407,16.25645,-0.008125166,1.26475,1.02408
206.207,16.28097,-0.008119856,1.28494,1.0237
207.007,16.30548,-0.0081197,1.3041,1.02332
207.807,16.33008,-0.008122705,1.32492,1.02294
208.607,16.35453,-0.009661376,1.35079,1.02255
209.407,16.3789,-0.01018461,1.37914,1.02217
210.207,16.4034,-0.01101684,1.41065,1.02178
211.007,16.4279,-0.01235133,1.44722,1.02139
211.807,16.45254,-0.01240379,1.48605,1.021
212.607,16.477,-0.01240095,1.52402,1.02061
213.407,16.50145,-0.01237653,1.55544,1.02022
214.207,16.52591,-0.01356879,1.58231,1.01983
215.007,16.55041,-0.0137339,1.60559,1.01943
215.807,16.57487,-0.01479367,1.62222,1.01904
216.607,16.59937,-0.01633782,1.6339,1.01864
217.407,16.62381,-0.01736852,1.65034,1.01824
218.207,16.64827,-0.0176429,1.66426,1.01784
219.007,16.67275,-0.01787043,1.68159,1.01744
219.807,16.69719,-0.01766355,1.70622,1.01704
220.607,16.72167,-0.01765635,1.73631,1.01663
221.407,16.7461,-0.01872785,1.77901,1.01623
222.207,16.77045,-0.01898419,1.829,1.01582
223.007,16.79487,-0.01898055,1.88457,1.01541
223.807,16.81935,-0.01897979,1.93415,1.015
224.607,16.8438,-0.01889376,1.97341,1.01459
225.407,16.86825,-0.02029389,1.9965,1.01418
226.207,16.89265,-0.02045603,2.00555,1.01377
227.007,16.91705,-0.02174582,2.00681,1.01336
227.807,16.9415,-0.02173517,1.99517,1.01294
228.607,16.96595,-0.02310254,1.97935,1.01253
229.407,16.99038,-0.02303895,1.95899,1.01211
230.207,17.01478,-0.02304073,1.93817,1.01169
231.007,17.03896,-0.02304139,1.91487,1.01127
231.807,17.06329,-0.02327428,1.89347,1.01085
232.607,17.08756,-0.02304134,1.87035,1.01043
233.407,17.1119,-0.02457609,1.84873,1.01
234.207,17.13635,-0.02523735,1.83068,1.00958
235.007,17.16065,-0.02611713,1.81475,1.00915
235.807,17.18492,-0.02766925,1.79977,1.00872
236.607,17.20913,-0.02929057,1.7904,1.0083
237.407,17.23333,-0.03167075,1.78702,1.00787
238.207,17.25759,-0.03353631,1.78353,1.00744
239.007,17.28191,-0.03428421,1.78864,1.007
239.807,17.30617,-0.03621034,1.79695,1.00657
240.607,17.3305,-0.03788742,1.8091,1.00614
241.407,17.3547,-0.03836466,1.8254,1.0057
242.207,17.3789,-0.03915932,1.84769,1.00526
243.007,17.4031,-0.03949404,1.87242,1.00482
243.807,17.4274,-0.04059665,1.90377,1.00439
244.607,17.45172,-0.04144904,1.93739,1.00395
245.407,17.47607,-0.04184665,1.97424,1.0035
246.207,17.5004,-0.0434742,2.01676,1.00306
247.007,17.52471,-0.04447505,2.05437,1.00262
247.807,17.54899,-0.04496441,2.09328,1.00217
248.607,17.57325,-0.04637022,2.12832,1.00173
249.407,17.5975,-0.04808162,2.15853,1.00128
250.207,17.62177,-0.05034174,2.19015,1.00083
251.007,17.6461,-0.05336988,2.2163,1.00038
251.807,17.6704,-0.05657823,2.24116,0.99993
252.607,17.69463,-0.05874768,2.26739,0.99948
253.407,17.71883,-0.05953188,2.29515,0.99902
254.207,17.74307,-0.05993774,2.32562,0.99857
255.007,17.76737,-0.06289466,2.35703,0.99811
255.807,17.79164,-0.06446664,2.38693,0.99766
256.607,17.81607,-0.06507371,2.42307,0.9972
257.407,17.8404,-0.06567207,2.46042,0.99674
258.207,17.86468,-0.06728036,2.49858,0.99628
259.007,17.88897,-0.06941115,2.53858,0.99582
259.807,17.9132,-0.07140257,2.58212,0.99536
260.607,17.9375,-0.07301322,2.62664,0.9949
261.407,17.96184,-0.07494948,2.67583,0.99443
262.207,17.98616,-0.0765125,2.72329,0.99397
263.007,18.0105,-0.0780686,2.77566,0.9935
263.807,18.0348,-0.07928686,2.82744,0.99303
264.607,18.05898,-0.08256992,2.88047,0.99256
265.407,18.0833,-0.0865617,2.93525,0.99209
266.207,18.10756,-0.09024688,2.99139,0.99162
267.007,18.1319,-0.09496262,3.04734,0.99115
267.807,18.15626,-0.09892062,3.10453,0.99068
268.607,18.18055,-0.10261,3.16014,0.9902
269.407,18.20488,-0.10496,3.218,0.98973
270.207,18.22912,-0.1077,3.27335,0.98925
271.007,18.2534,-0.11198,3.32957,0.98877
271.807,18.2778,-0.1148,3.38237,0.98829
272.607,18.3021,-0.11759,3.43467,0.98781
273.407,18.32648,-0.12111,3.48198,0.98733
274.207,18.35081,-0.12445,3.53073,0.98685
275.007,18.37514,-0.12779,3.57436,0.98637
275.807,18.39954,-0.13079,3.61332,0.98589
276.607,18.4239,-0.13363,3.65247,0.9854
277.407,18.44831,-0.13719,3.68852,0.98491
278.207,18.47263,-0.14189,3.71884,0.98443
279.007,18.49699,-0.14589,3.74381,0.98394
279.807,18.52139,-0.14966,3.76427,0.98345
280.607,18.54571,-0.15229,3.77656,0.98296
281.407,18.57004,-0.15488,3.78295,0.98247
282.207,18.59431,-0.15675,3.78305,0.98198
283.007,18.61862,-0.16089,3.77636,0.98148
283.807,18.64295,-0.16587,3.75974,0.98099
284.607,18.66726,-0.17021,3.73339,0.98049
285.407,18.6916,-0.17443,3.69676,0.98
286.207,18.7159,-0.17893,3.65193,0.9795
287.007,18.74019,-0.18288,3.5945,0.979
287.807,18.76438,-0.18601,3.52796,0.9785
288.607,18.7886,-0.18893,3.45492,0.978
289.407,18.8129,-0.19119,3.37352,0.9775
290.207,18.83713,-0.19302,3.28574,0.977
291.007,18.86137,-0.19564,3.19457,0.9765
291.807,18.88551,-0.19913,3.09948,0.97599
292.607,18.90971,-0.20178,3.00176,0.97549
293.407,18.9339,-0.20445,2.90833,0.97498
294.207,18.95805,-0.20795,2.81373,0.97447
295.007,18.9822,-0.21086,2.72134,0.97397
295.807,19.00629,-0.21321,2.63135,0.97346
296.607,19.0304,-0.21588,2.54055,0.97295
297.407,19.05445,-0.21726,2.45614,0.97244
298.207,19.0785,-0.21716,2.37017,0.97192
299.007,19.1026,-0.21899,2.29171,0.97141
299.807,19.12667,-0.22089,2.21373,0.9709
300.607,19.15077,-0.22275,2.13969,0.97038
301.407,19.1749,-0.22425,2.06874,0.96987
302.207,19.199,-0.22508,2.00454,0.96935
303.007,19.22306,-0.22448,1.93676,0.96883
303.807,19.2471,-0.22583,1.87549,0.96831
304.607,19.27119,-0.22593,1.81856,0.96779
305.407,19.29526,-0.22738,1.7661,0.96727
306.207,19.3193,-0.22596,1.71513,0.96675
307.007,19.3434,-0.22659,1.6707,0.96623
307.807,19.36745,-0.22687,1.62871,0.96571
308.607,19.39147,-0.22726,1.58752,0.96518
309.407,19.4155,-0.22728,1.55413,0.96466
310.207,19.43958,-0.22796,1.51779,0.96413
311.007,19.46368,-0.22859,1.49096,0.9636
311.807,19.48779,-0.22914,1.46045,0.96308
312.607,19.5119,-0.22989,1.43341,0.96255
313.407,19.53595,-0.2303,1.4148,0.96202
314.207,19.5601,-0.23122,1.39413,0.96149
315.007,19.58428,-0.23169,1.37404,0.96095
315.807,19.60847,-0.23254,1.35893,0.96042
316.607,19.63265,-0.23396,1.34298,0.95989
317.407,19.6566,-0.23386,1.33187,0.95935
318.207,19.68073,-0.23435,1.31866,0.95882
319.007,19.70484,-0.23516,1.30689,0.95828
319.807,19.729,-0.23671,1.29653,0.95775
320.607,19.75339,-0.23663,1.28792,0.95721
321.407,19.77763,-0.23802,1.27926,0.95667
322.207,19.8018,-0.23803,1.27205,0.95613
323.007,19.82599,-0.23815,1.26475,0.95559
323.807,19.8503,-0.23933,1.25859,0.95505
324.607,19.87438,-0.23929,1.25255,0.95451
325.407,19.8986,-0.24064,1.24799,0.95397
326.207,19.92289,-0.24066,1.24424,0.95342
327.007,19.9471,-0.24182,1.24155,0.95288
327.807,19.97137,-0.24197,1.23714,0.95233
328.607,19.99557,-0.24298,1.23196,0.95179
329.407,20.01984,-0.24329,1.22947,0.95124
330.207,20.04403,-0.24324,1.22635,0.95069
331.007,20.06833,-0.24458,1.22239,0.95014
331.807,20.09262,-0.24463,1.2212,0.94959
332.607,20.11691,-0.24537,1.22025,0.94904
333.407,20.1413,-0.2459,1.21644,0.94849
334.207,20.1656,-0.24707,1.21568,0.94794
335.007,20.18996,-0.24724,1.21313,0.94739
335.807,20.21426,-0.24811,1.21005,0.94683
336.607,20.23863,-0.24856,1.20962,0.94628
337.407,20.26291,-0.24997,1.2095,0.94572
338.207,20.2872,-0.24987,1.2077,0.94517
339.007,20.31154,-0.25007,1.20545,0.94461
339.807,20.33589,-0.25085,1.20454,0.94405
340.607,20.36026,-0.25121,1.20515,0.94349
341.407,20.38468,-0.25122,1.20245,0.94293
342.207,20.40904,-0.25216,1.20133,0.94237
343.007,20.43339,-0.25365,1.20284,0.94181
343.807,20.4578,-0.25486,1.19935,0.94125
344.607,20.4822,-0.25488,1.19752,0.94069
345.407,20.50662,-0.2562,1.19868,0.94013
346.207,20.53106,-0.25642,1.19706,0.93956
347.007,20.55549,-0.2568,1.19876,0.939
347.807,20.58004,-0.2565,1.19578,0.93843
348.607,20.60452,-0.25778,1.19533,0.93787
349.407,20.629,-0.25777,1.19751,0.9373
350.207,20.65342,-0.25917,1.19443,0.93673
351.007,20.6779,-0.26054,1.19409,0.93616
351.807,20.7024,-0.26166,1.19576,0.93559
352.607,20.72693,-0.26302,1.1942,0.93502
353.407,20.75142,-0.26324,1.19283,0.93445
354.207,20.77594,-0.26449,1.19022,0.93388
355.007,20.8004,-0.26444,1.19338,0.93331
355.807,20.82493,-0.26572,1.19347,0.93274
356.607,20.84949,-0.26644,1.19017,0.93216
357.407,20.874,-0.26851,1.1899,0.93159
358.207,20.89854,-0.27014,1.19325,0.93101
359.007,20.9231,-0.27144,1.19072,0.93044
359.807,20.9477,-0.27212,1.19208,0.92986
360.607,20.9723,-0.27282,1.19271,0.92928
361.407,20.99677,-0.27442,1.1929,0.9287
362.207,21.0214,-0.27532,1.19443,0.92813
363.007,21.04597,-0.27591,1.19429,0.92755
363.807,21.07056,-0.27733,1.19404,0.92697
364.607,21.0952,-0.27762,1.19362,0.92639
365.407,21.11972,-0.27873,1.19599,0.9258
366.207,21.1444,-0.28059,1.19877,0.92522
367.007,21.16899,-0.282,1.2002,0.92464
367.807,21.19366,-0.28411,1.20006,0.92406
368.607,21.2183,-0.28609,1.20409,0.92347
369.407,21.24288,-0.28811,1.20602,0.92289
370.207,21.26759,-0.29061,1.21174,0.9223
371.007,21.29224,-0.29281,1.21296,0.92171
371.807,21.31692,-0.2944,1.21593,0.92113
372.607,21.34159,-0.29472,1.21888,0.92054
373.407,21.3663,-0.2968,1.22249,0.91995
374.207,21.391,-0.29987,1.22412,0.91936
375.007,21.41563,-0.30294,1.23141,0.91877
375.807,21.4403,-0.30593,1.23516,0.91818
376.607,21.46494,-0.30844,1.2391,0.91759
377.407,21.4896,-0.31022,1.24331,0.917
378.207,21.51434,-0.31221,1.24862,0.91641
379.007,21.5391,-0.31457,1.25507,0.91581
379.807,21.5639,-0.3171,1.26045,0.91522
380.607,21.58866,-0.3201,1.267,0.91463
381.407,21.61342,-0.32344,1.27289,0.91403
382.207,21.63813,-0.3267,1.28048,0.91344
383.007,21.6629,-0.32964,1.28683,0.91284
383.807,21.68765,-0.33353,1.29565,0.91224
384.607,21.71242,-0.33693,1.30329,0.91165
385.407,21.73726,-0.34129,1.30918,0.91105
386.207,21.76202,-0.345,1.32087,0.91045
387.007,21.7868,-0.34968,1.32812,0.90985
387.807,21.8116,-0.35305,1.33849,0.90925
388.607,21.8365,-0.35841,1.34714,0.90865
389.407,21.8613,-0.363,1.36106,0.90805
390.207,21.88614,-0.36773,1.37065,0.90745
391.007,21.91093,-0.37242,1.38332,0.90685
391.807,21.9358,-0.37863,1.39348,0.90624
392.607,21.96068,-0.38581,1.40804,0.90564
393.407,21.98551,-0.39308,1.4212,0.90504
394.207,22.01033,-0.39955,1.43551,0.90443
395.007,22.03519,-0.40743,1.44922,0.90383
395.807,22.06011,-0.41409,1.46656,0.90322
396.607,22.08501,-0.42194,1.48473,0.90262
397.407,22.10988,-0.43098,1.50213,0.90201
398.207,22.1347,-0.43887,1.5194,0.9014
399.007,22.15962,-0.44788,1.53924,0.90079
399.807,22.18455,-0.45793,1.55996,0.90018
400.607,22.2095,-0.46753,1.58108,0.89958
401.407,22.23454,-0.47873,1.60223,0.89897
402.207,22.25946,-0.4887,1.62565,0.89836
403.007,22.28441,-0.4999,1.65119,0.89774
403.807,22.30932,-0.51385,1.67671,0.89713
404.607,22.33426,-0.52556,1.70363,0.89652
405.407,22.35922,-0.53891,1.72989,0.89591
406.207,22.3842,-0.55274,1.7565,0.8953
407.007,22.40921,-0.56546,1.78693,0.89468
407.807,22.43422,-0.58155,1.81745,0.89407
408.607,22.45915,-0.59702,1.84819,0.89345
409.407,22.48411,-0.6138,1.87935,0.89284
410.207,22.50914,-0.63331,1.91358,0.89222
411.007,22.53416,-0.64956,1.94818,0.89161
411.807,22.55927,-0.66761,1.98129,0.89099
412.607,22.58426,-0.68751,2.01583,0.89037
413.407,22.6094,-0.70709,2.05219,0.88976
414.207,22.6344,-0.72974,2.08854,0.88914
415.007,22.65952,-0.75041,2.12699,0.88852
415.807,22.6846,-0.77348,2.16352,0.8879
416.607,22.70972,-0.79902,2.19496,0.88728
417.407,22.73481,-0.81999,2.23403,0.88666
418.207,22.75989,-0.84385,2.26679,0.88604
419.007,22.78497,-0.87025,2.30067,0.88542
419.807,22.81002,-0.89472,2.33091,0.8848
420.607,22.83514,-0.92292,2.35881,0.88417
421.407,22.86028,-0.94905,2.38705,0.88355
422.207,22.8854,-0.9767,2.41004,0.88293
423.007,22.9104,-1.00742,2.43247,0.88231
423.807,22.9357,-1.0335,2.44742,0.88168
424.607,22.96085,-1.06349,2.46383,0.88106
425.407,22.9862,-1.09708,2.47569,0.88043
426.207,23.0113,-1.12519,2.4819,0.87981
427.007,23.03642,-1.15701,2.48308,0.87918
427.807,23.0615,-1.18723,2.48276,0.87855
428.607,23.08667,-1.21626,2.47677,0.87793
429.407,23.11186,-1.25039,2.45957,0.8773
430.207,23.13704,-1.27955,2.43712,0.87667
431.007,23.16227,-1.31152,2.40842,0.87604
431.807,23.18749,-1.34571,2.36544,0.87541
432.607,23.21264,-1.37364,2.32462,0.87479
433.407,23.23772,-1.4055,2.27611,0.87416
434.207,23.26277,-1.43705,2.23497,0.87353
435.007,23.28784,-1.46604,2.19443,0.8729
435.807,23.3129,-1.49828,2.1567,0.87226
436.607,23.33812,-1.52658,2.1191,0.87163
437.407,23.36329,-1.5542,2.08248,0.871
438.207,23.3885,-1.58342,2.04478,0.87037
439.007,23.41357,-1.60717,2.00675,0.86974
439.807,23.43874,-1.63427,1.96855,0.8691
440.607,23.46392,-1.66128,1.93336,0.86847
441.407,23.4891,-1.68482,1.89155,0.86784
442.207,23.51428,-1.71138,1.85262,0.8672
443.007,23.53935,-1.73423,1.81569,0.86657
443.807,23.5643,-1.75655,1.77748,0.86593
444.607,23.58951,-1.78017,1.737,0.8653
445.407,23.61465,-1.79928,1.69885,0.86466
446.207,23.63989,-1.82073,1.66327,0.86402
447.007,23.665,-1.84165,1.62724,0.86339
447.807,23.6901,-1.86118,1.59125,0.86275
448.607,23.7152,-1.88367,1.5609,0.86211
449.407,23.7402,-1.90281,1.53175,0.86148
450.207,23.76527,-1.921,1.50258,0.86084
451.007,23.7905,-1.93999,1.47643,0.8602
451.807,23.81575,-1.95514,1.45199,0.85956
452.607,23.8412,-1.97266,1.4278,0.85892
453.407,23.8664,-1.99047,1.40558,0.85828
454.207,23.89162,-2.00618,1.38617,0.85764
455.007,23.91679,-2.02215,1.36944,0.857
455.807,23.94194,-2.03697,1.35024,0.85636
456.607,23.96712,-2.05009,1.33617,0.85572
457.407,23.99223,-2.06421,1.31694,0.85508
458.207,24.01741,-2.07602,1.30763,0.85443
459.007,24.04271,-2.08878,1.29334,0.85379
459.807,24.068,-2.10207,1.2781,0.85315
460.607,24.0933,-2.11232,1.26153,0.85251
461.407,24.11864,-2.12347,1.24574,0.85186
462.207,24.14385,-2.13416,1.2289,0.85122
463.007,24.16911,-2.14369,1.21435,0.85058
463.807,24.1943,-2.154,1.1976,0.84993
464.607,24.2196,-2.16286,1.18115,0.84929
465.407,24.2449,-2.17101,1.16541,0.84864
466.207,24.27024,-2.17982,1.14919,0.848
467.007,24.2956,-2.18799,1.13064,0.84735
467.807,24.32088,-2.19683,1.1161,0.84671
468.607,24.34616,-2.20497,1.09935,0.84606
469.407,24.37148,-2.2111,1.08441,0.84541
470.207,24.39684,-2.21824,1.07362,0.84477
471.007,24.42217,-2.22557,1.06235,0.84412
471.807,24.44754,-2.23174,1.05106,0.84347
472.607,24.4729,-2.2388,1.04269,0.84282
473.407,24.49835,-2.24513,1.02704,0.84217
474.207,24.5238,-2.25214,1.02036,0.84153
475.007,24.54919,-2.25966,1.00973,0.84088
475.807,24.57455,-2.26511,0.99784,0.84023
476.607,24.59995,-2.27144,0.98448,0.83958
477.407,24.62529,-2.27842,0.97658,0.83893
478.207,24.6507,-2.28523,0.96325,0.83828
479.007,24.67602,-2.29134,0.95282,0.83763
479.807,24.70145,-2.29723,0.94234,0.83698
480.607,24.7269,-2.30352,0.929,0.83633
481.407,24.75235,-2.30974,0.91678,0.83568
482.207,24.77788,-2.31503,0.90464,0.83503
483.007,24.8034,-2.32082,0.89291,0.83437
483.807,24.82881,-2.32595,0.87923,0.83372
484.607,24.85422,-2.33033,0.86398,0.83307
485.407,24.8797,-2.3334,0.84717,0.83242
486.207,24.90513,-2.33738,0.83018,0.83176
487.007,24.9307,-2.342,0.81298,0.83111
487.807,24.9562,-2.34727,0.79117,0.83046
488.607,24.98171,-2.35084,0.77051,0.8298
489.407,25.00714,-2.3543,0.75162,0.82915
490.207,25.0326,-2.35761,0.73061,0.8285
491.007,25.05808,-2.36282,0.70787,0.82784
491.807,25.08359,-2.36648,0.68552,0.82719
492.607,25.10915,-2.36911,0.66388,0.82653
493.407,25.13467,-2.37108,0.64454,0.82588
494.207,25.16027,-2.37281,0.62579,0.82522
495.007,25.1858,-2.3756,0.60607,0.82457
495.807,25.2114,-2.37786,0.58457,0.82391
496.607,25.23689,-2.37962,0.5687,0.82326
497.407,25.26251,-2.38064,0.55281,0.8226
498.207,25.2881,-2.38172,0.5377,0.82194
499.007,25.31364,-2.38335,0.52526,0.82129
499.807,25.33922,-2.3849,0.51296,0.82063
500.607,25.36478,-2.38506,0.50051,0.81997
501.407,25.3903,-2.38679,0.48742,0.81932
502.207,25.4159,-2.38797,0.47944,0.81866
503.007,25.44156,-2.38841,0.47358,0.818
503.807,25.46719,-2.38989,0.4672,0.81734
504.607,25.4928,-2.3908,0.45819,0.81668
505.407,25.5184,-2.39175,0.45015,0.81603
506.207,25.54405,-2.39417,0.44631,0.81537
507.007,25.56975,-2.39543,0.4396,0.81471
507.807,25.59545,-2.39604,0.43758,0.81405
508.607,25.62104,-2.39675,0.43326,0.81339
509.407,25.6467,-2.39675,0.42658,0.81273
510.207,25.67224,-2.39675,0.42255,0.81207
511.007,25.6979,-2.39698,0.42233,0.81141
511.807,25.72353,-2.39806,0.4152,0.81075
512.607,25.74918,-2.40059,0.4143,0.81009
513.407,25.7749,-2.40176,0.41049,0.80943
514.207,25.80053,-2.40212,0.40616,0.80877
515.007,25.82617,-2.40347,0.40411,0.80811
515.807,25.85183,-2.40497,0.40097,0.80745
516.607,25.87752,-2.40624,0.39825,0.80679
517.407,25.90324,-2.40623,0.39676,0.80613
518.207,25.9289,-2.4073,0.39174,0.80547
519.007,25.95459,-2.40739,0.39296,0.8048
519.807,25.98029,-2.40768,0.3918,0.80414
520.607,26.00601,-2.40894,0.38818,0.80348
521.407,26.03177,-2.41059,0.38882,0.80282
522.207,26.05753,-2.41131,0.38632,0.80216
523.007,26.08332,-2.41318,0.38498,0.80149
523.807,26.10908,-2.41385,0.3823,0.80083
524.607,26.13488,-2.4145,0.38095,0.80017
525.407,26.16058,-2.41462,0.37961,0.79951
526.207,26.18627,-2.41586,0.37743,0.79884
527.007,26.21199,-2.41673,0.37689,0.79818
527.807,26.2377,-2.41721,0.37562,0.79752
528.607,26.26343,-2.41604,0.374,0.79685
529.407,26.2892,-2.41715,0.37047,0.79619
530.207,26.31492,-2.41831,0.36689,0.79553
531.007,26.34075,-2.4187,0.37072,0.79486
531.807,26.3665,-2.42008,0.36774,0.7942
532.607,26.39242,-2.42172,0.36454,0.79354
533.407,26.4183,-2.42327,0.36433,0.79287
534.207,26.4441,-2.42428,0.36233,0.79221
535.007,26.46988,-2.42572,0.36197,0.79154
535.807,26.4956,-2.42632,0.3596,0.79088
536.607,26.5214,-2.42709,0.35942,0.79021
537.407,26.54715,-2.42865,0.36004,0.78955
538.207,26.573,-2.42972,0.36057,0.78889
539.007,26.5989,-2.43021,0.35759,0.78822
539.807,26.6247,-2.43113,0.35641,0.78756
540.607,26.6506,-2.4315,0.35709,0.78689
541.407,26.67646,-2.4328,0.35436,0.78622
542.207,26.7023,-2.43211,0.35223,0.78556
543.007,26.72818,-2.43218,0.35361,0.78489
543.807,26.7541,-2.43314,0.35362,0.78423
544.607,26.78006,-2.43375,0.34939,0.78356
545.407,26.80589,-2.43531,0.35031,0.7829
546.207,26.8318,-2.43615,0.3472,0.78223
547.007,26.8576,-2.43667,0.34806,0.78157
547.807,26.88359,-2.43807,0.34729,0.7809
548.607,26.90949,-2.43802,0.34598,0.78023
549.407,26.93539,-2.4407,0.3486,0.77957
550.207,26.96123,-2.44191,0.34469,0.7789
551.007,26.9871,-2.44303,0.34545,0.77823
551.807,27.01277,-2.44448,0.34452,0.77757
552.607,27.0385,-2.44583,0.34557,0.7769
553.407,27.06445,-2.44675,0.34475,0.77624
554.207,27.09041,-2.44677,0.34694,0.77557
555.007,27.1167,-2.44672,0.34419,0.7749
555.807,27.1425,-2.44812,0.34343,0.77423
556.607,27.1684,-2.44804,0.34299,0.77357
557.407,27.1944,-2.45,0.34574,0.7729
558.207,27.22032,-2.45221,0.34656,0.77223
559.007,27.2463,-2.45291,0.34917,0.77157
559.807,27.27222,-2.45398,0.34471,0.7709
560.607,27.2981,-2.45533,0.34619,0.77023
561.407,27.32406,-2.45587,0.34834,0.76957
562.207,27.34995,-2.45744,0.35172,0.7689
563.007,27.37588,-2.45845,0.35013,0.76823
563.807,27.40178,-2.45868,0.35244,0.76756
564.607,27.42768,-2.46078,0.35241,0.7669
565.407,27.45365,-2.46338,0.35345,0.76623
566.207,27.4796,-2.46487,0.35532,0.76556
567.007,27.50558,-2.46652,0.35707,0.76489
567.807,27.5316,-2.46758,0.35761,0.76423
568.607,27.5576,-2.46836,0.36059,0.76356
569.407,27.5836,-2.46905,0.35932,0.76289
570.207,27.6096,-2.47046,0.36259,0.76222
571.007,27.6356,-2.47081,0.36308,0.76156
571.807,27.6616,-2.47208,0.36795,0.76089
572.607,27.6877,-2.47368,0.36925,0.76022
573.407,27.71374,-2.47432,0.37175,0.75955
574.207,27.73975,-2.47645,0.37224,0.75889
575.007,27.76577,-2.47889,0.37603,0.75822
575.807,27.79177,-2.48027,0.3781,0.75755
576.607,27.8178,-2.48088,0.38014,0.75688
577.407,27.84388,-2.48249,0.38094,0.75621
578.207,27.86999,-2.48419,0.38518,0.75555
579.007,27.89596,-2.48632,0.38362,0.75488
579.807,27.922,-2.48823,0.3898,0.75421
580.607,27.948,-2.49011,0.38851,0.75354
581.407,27.97399,-2.49177,0.39169,0.75288
582.207,28,-2.49352,0.39313,0.75221
583.007,28.02597,-2.49499,0.39473,0.75154
583.807,28.052,-2.4969,0.39678,0.75087
584.607,28.0782,-2.4986,0.40156,0.7502
585.407,28.10432,-2.50022,0.40179,0.74954
586.207,28.1305,-2.50201,0.40233,0.74887
587.007,28.1566,-2.50332,0.40725,0.7482
587.807,28.1826,-2.50377,0.40571,0.74753
588.607,28.20866,-2.50491,0.41231,0.74687
589.407,28.2347,-2.50645,0.41382,0.7462
590.207,28.2609,-2.50758,0.41393,0.74553
591.007,28.28701,-2.50949,0.41772,0.74486
591.807,28.3132,-2.51109,0.41983,0.74419
592.607,28.33945,-2.51303,0.4244,0.74353
593.407,28.3656,-2.51468,0.42775,0.74286
594.207,28.39175,-2.5156,0.42569,0.74219
595.007,28.41781,-2.51681,0.42998,0.74152
595.807,28.44398,-2.51846,0.43206,0.74086
596.607,28.47014,-2.52043,0.43617,0.74019
597.407,28.49635,-2.52193,0.43927,0.73952
598.207,28.5225,-2.52537,0.4436,0.73885
599.007,28.5487,-2.52673,0.44849,0.73819
599.807,28.5749,-2.52823,0.45295,0.73752
600.607,28.60112,-2.53038,0.45451,0.73685
601.407,28.62725,-2.53223,0.45923,0.73618
602.207,28.6535,-2.53555,0.46459,0.73552
603.007,28.67973,-2.5382,0.46646,0.73485
603.807,28.70595,-2.5412,0.47564,0.73418
604.607,28.73218,-2.54367,0.47614,0.73351
605.407,28.7583,-2.54513,0.48364,0.73285
606.207,28.7846,-2.54731,0.48906,0.73218
607.007,28.8108,-2.54996,0.49229,0.73151
607.807,28.83707,-2.55322,0.50127,0.73085
608.607,28.8633,-2.55637,0.5063,0.73018
609.407,28.88966,-2.5596,0.5167,0.72951
610.207,28.91592,-2.56169,0.52473,0.72885
611.007,28.9422,-2.56229,0.53432,0.72818
611.807,28.96848,-2.56367,0.54728,0.72751
612.607,28.99475,-2.56556,0.55524,0.72685
613.407,29.021,-2.56764,0.56748,0.72618
614.207,29.04717,-2.56958,0.57575,0.72551
615.007,29.07348,-2.57167,0.58934,0.72485
615.807,29.09975,-2.57483,0.59669,0.72418
616.607,29.12606,-2.5784,0.60226,0.72351
617.407,29.1524,-2.58124,0.6068,0.72285
618.207,29.17861,-2.58393,0.61147,0.72218
619.007,29.2049,-2.58639,0.6137,0.72151
619.807,29.2311,-2.58942,0.61792,0.72085
620.607,29.2573,-2.59446,0.62288,0.72018
621.407,29.2837,-2.59766,0.62349,0.71952
622.207,29.30997,-2.60142,0.62311,0.71885
623.007,29.3364,-2.60539,0.62351,0.71819
623.807,29.3626,-2.60784,0.62646,0.71752
624.607,29.3889,-2.61172,0.62644,0.71685
625.407,29.4153,-2.61499,0.62687,0.71619
626.207,29.4417,-2.61877,0.62493,0.71552
627.007,29.46815,-2.62256,0.62352,0.71486
627.807,29.4944,-2.62618,0.62305,0.71419
628.607,29.52063,-2.63111,0.61854,0.71353
629.407,29.54689,-2.6366,0.61455,0.71286
630.207,29.57323,-2.64207,0.60778,0.7122
631.007,29.59955,-2.64614,0.59629,0.71153
631.807,29.6259,-2.65045,0.59037,0.71087
632.607,29.65205,-2.65415,0.58199,0.7102
633.407,29.67815,-2.65787,0.57093,0.70954
634.207,29.70427,-2.66162,0.55838,0.70888
635.007,29.7307,-2.66741,0.54726,0.70821
635.807,29.7573,-2.67191,0.53922,0.70755
636.607,29.78391,-2.67851,0.53046,0.70688
637.407,29.8103,-2.68247,0.5269,0.70622
638.207,29.83662,-2.6852,0.51667,0.70556
639.007,29.86303,-2.68643,0.51167,0.70489
639.807,29.8894,-2.6893,0.50223,0.70423
640.607,29.9158,-2.69209,0.4887,0.70357
641.407,29.9422,-2.69472,0.47171,0.7029
642.207,29.96852,-2.69657,0.45307,0.70224
643.007,29.9949,-2.69946,0.43614,0.70158
643.807,30.0212,-2.70201,0.42165,0.70091
644.607,30.04755,-2.70316,0.40751,0.70025
645.407,30.07384,-2.70325,0.39254,0.69959
646.207,30.10019,-2.70473,0.38074,0.69892
647.007,30.1265,-2.70586,0.37251,0.69826
647.807,30.15294,-2.70611,0.36106,0.6976
648.607,30.17943,-2.70776,0.34961,0.69694
649.407,30.20577,-2.70868,0.34734,0.69628
650.207,30.23214,-2.71011,0.34141,0.69561
651.007,30.2585,-2.71002,0.33536,0.69495
651.807,30.28493,-2.70956,0.33669,0.69429
652.607,30.3113,-2.71004,0.33328,0.69363
653.407,30.3377,-2.71085,0.33387,0.69297
654.207,30.364,-2.7106,0.33636,0.69231
655.007,30.39047,-2.71067,0.34167,0.69164
655.807,30.4168,-2.71189,0.34809,0.69098
656.607,30.44326,-2.7123,0.35525,0.69032
657.407,30.4697,-2.71389,0.35861,0.68966
658.207,30.4961,-2.716,0.36686,0.689
659.007,30.5225,-2.71631,0.37681,0.68834
659.807,30.54887,-2.71759,0.38134,0.68768
660.607,30.5753,-2.71921,0.39149,0.68702
661.407,30.60169,-2.72073,0.39803,0.68636
662.207,30.6281,-2.72136,0.40767,0.6857
663.007,30.6545,-2.72188,0.41494,0.68504
663.807,30.68083,-2.7223,0.42226,0.68438
664.607,30.70717,-2.7223,0.43109,0.68372
665.407,30.73348,-2.72223,0.43587,0.68306
666.207,30.75988,-2.72261,0.44731,0.6824
667.007,30.7863,-2.72263,0.45158,0.68175
667.807,30.81271,-2.72263,0.46177,0.68109
668.607,30.8392,-2.72263,0.46748,0.68043
669.407,30.8656,-2.72545,0.47565,0.67977
670.207,30.89208,-2.72702,0.4836,0.67911
671.007,30.91853,-2.72719,0.49566,0.67845
671.807,30.9448,-2.72821,0.50212,0.6778
672.607,30.9712,-2.72905,0.50926,0.67714
673.407,30.99755,-2.72954,0.51635,0.67648
674.207,31.02402,-2.72959,0.52808,0.67582
675.007,31.0506,-2.73013,0.5384,0.67517
675.807,31.077,-2.73134,0.54376,0.67451
676.607,31.10349,-2.73261,0.55423,0.67385
677.407,31.12987,-2.73425,0.56203,0.6732
678.207,31.15633,-2.73576,0.5711,0.67254
679.007,31.18276,-2.73768,0.58052,0.67188
679.807,31.20921,-2.74008,0.58784,0.67123
680.607,31.23562,-2.74196,0.60286,0.67057
681.407,31.26212,-2.74366,0.61362,0.66992
682.207,31.28862,-2.7442,0.61936,0.66926
683.007,31.3152,-2.74488,0.63731,0.6686
683.807,31.34164,-2.745,0.64995,0.66795
684.607,31.36815,-2.74622,0.65935,0.66729
685.407,31.3946,-2.74711,0.67184,0.66664
686.207,31.42114,-2.74762,0.68476,0.66598
687.007,31.44765,-2.74886,0.70315,0.66533
687.807,31.47418,-2.7502,0.71242,0.66468
688.607,31.5008,-2.75076,0.72488,0.66402
689.407,31.52726,-2.7509,0.74166,0.66337
690.207,31.5538,-2.75204,0.75294,0.66271
691.007,31.5802,-2.75464,0.76615,0.66206
691.807,31.6067,-2.75591,0.78201,0.66141
692.607,31.6333,-2.75705,0.79327,0.66075
693.407,31.6598,-2.75708,0.80479,0.6601
694.207,31.68637,-2.75699,0.81661,0.65945
695.007,31.71283,-2.7584,0.83308,0.6588
695.807,31.7393,-2.75994,0.84696,0.65814
696.607,31.7659,-2.76113,0.86035,0.65749
697.407,31.79249,-2.7618,0.87674,0.65684
698.207,31.81907,-2.76343,0.89456,0.65619
699.007,31.8456,-2.7651,0.90949,0.65554
699.807,31.87208,-2.76825,0.92641,0.65489
700.607,31.89868,-2.76955,0.94553,0.65424
701.407,31.9252,-2.77108,0.96525,0.65358
702.207,31.9519,-2.77328,0.98654,0.65293
703.007,31.97842,-2.77514,1.00408,0.65228
703.807,32.00504,-2.77775,1.02948,0.65163
704.607,32.03163,-2.78008,1.05117,0.65098
705.407,32.05823,-2.78204,1.0735,0.65033
706.207,32.08485,-2.78295,1.09757,0.64968
707.007,32.11149,-2.7821,1.12128,0.64903
707.807,32.13811,-2.78362,1.1455,0.64839
708.607,32.16473,-2.78525,1.16921,0.64774
709.407,32.1914,-2.787,1.19315,0.64709
710.207,32.21796,-2.79024,1.21618,0.64644
711.007,32.24453,-2.79373,1.23745,0.64579
711.807,32.27113,-2.79624,1.25778,0.64514
712.607,32.29777,-2.79814,1.28203,0.64449
713.407,32.32443,-2.7999,1.30003,0.64385
714.207,32.3511,-2.80175,1.32048,0.6432
715.007,32.3777,-2.80377,1.33381,0.64255
715.807,32.40443,-2.80635,1.35075,0.64191
716.607,32.43107,-2.81017,1.36038,0.64126
717.407,32.45767,-2.81317,1.37336,0.64061
718.207,32.4843,-2.81626,1.38043,0.63997
719.007,32.5109,-2.81913,1.38022,0.63932
719.807,32.53757,-2.82132,1.38326,0.63867
720.607,32.5642,-2.8215,1.37673,0.63803
721.407,32.59088,-2.82251,1.36275,0.63738
722.207,32.61748,-2.82146,1.34803,0.63674
723.007,32.64413,-2.82288,1.32379,0.63609
723.807,32.67085,-2.82486,1.28756,0.63545
724.607,32.69753,-2.82754,1.24844,0.6348
725.407,32.72422,-2.83086,1.19226,0.63416
726.207,32.75077,-2.83279,1.13317,0.63352
727.007,32.7774,-2.83495,1.06386,0.63287
727.807,32.804,-2.83698,0.98217,0.63223
728.607,32.8307,-2.83969,0.88315,0.63159
729.407,32.85737,-2.8416,0.74676,0.63094
730.207,32.884,-2.8415,0.59747,0.6303
731.007,32.9107,-2.84232,0.46245,0.62966
731.807,32.93731,-2.84281,0.36495,0.62902
732.607,32.96393,-2.8439,0.28178,0.62837
733.407,32.99057,-2.84341,0.2235,0.62773
734.207,33.01717,-2.84426,0.17698,0.62709
735.007,33.04379,-2.84429,0.14021,0.62645
735.807,33.07046,-2.84536,0.10974,0.62581
736.607,33.09709,-2.84559,0.08524788,0.62517
737.407,33.12373,-2.84639,0.06280544,0.62453
738.207,33.15036,-2.8469,0.04552715,0.62389
739.007,33.17689,-2.8469,0.03203875,0.62325
739.807,33.20355,-2.84682,0.019156,0.62261
740.607,33.2302,-2.84822,0.00863139,0.62197
741.407,33.2569,-2.84822,0.001196708,0.62133
742.207,33.2836,-2.84822,-0.007577184,0.62069
743.007,33.31029,-2.84822,-0.01873482,0.62005
743.807,33.33705,-2.84768,-0.02499029,0.61941
744.607,33.36379,-2.84793,-0.02933669,0.61877
745.407,33.39047,-2.8479,-0.03336174,0.61814
746.207,33.41717,-2.8479,-0.04232373,0.6175
747.007,33.44382,-2.84784,-0.0440824,0.61686
747.807,33.47052,-2.8466,-0.04850751,0.61622
748.607,33.49727,-2.84658,-0.05285231,0.61559
749.407,33.52398,-2.84669,-0.05461611,0.61495
750.207,33.55068,-2.84828,-0.05661562,0.61431
751.007,33.57743,-2.84957,-0.06165416,0.61368
751.807,33.60416,-2.84949,-0.06436186,0.61304
752.607,33.6308,-2.85094,-0.06543331,0.61241
753.407,33.65741,-2.85118,-0.070036,0.61177
754.207,33.68408,-2.85118,-0.07732672,0.61114
755.007,33.71085,-2.85118,-0.07907895,0.6105
755.807,33.73764,-2.84998,-0.08320692,0.60987
756.607,33.76442,-2.84986,-0.08532061,0.60923
757.407,33.79112,-2.84987,-0.08418467,0.6086
758.207,33.8179,-2.84963,-0.08852255,0.60797
759.007,33.8446,-2.84857,-0.09572977,0.60733
759.807,33.87138,-2.84853,-0.09547403,0.6067
760.607,33.8981,-2.8498,-0.09569848,0.60607
761.407,33.92483,-2.85123,-0.10016,0.60543
762.207,33.95159,-2.85117,-0.1045,0.6048
763.007,33.97834,-2.8506,-0.10614,0.60417
763.807,34.00505,-2.84988,-0.10912,0.60354
764.607,34.03185,-2.84987,-0.11158,0.60291
765.407,34.05865,-2.84987,-0.11839,0.60227
766.207,34.08543,-2.84987,-0.11627,0.60164
767.007,34.11226,-2.85001,-0.11641,0.60101
767.807,34.13902,-2.85248,-0.12485,0.60038
768.607,34.16577,-2.85249,-0.12432,0.59975
769.407,34.19252,-2.85248,-0.12423,0.59912
770.207,34.21931,-2.85183,-0.13011,0.59849
771.007,34.2461,-2.85108,-0.13611,0.59786
771.807,34.27292,-2.85154,-0.13439,0.59723
772.607,34.2996,-2.85117,-0.13654,0.59661
773.407,34.3264,-2.85238,-0.1386,0.59598
774.207,34.35324,-2.8525,-0.14194,0.59535
775.007,34.38006,-2.85256,-0.14256,0.59472
775.807,34.4069,-2.85382,-0.14668,0.59409
776.607,34.4337,-2.85382,-0.1513,0.59347
777.407,34.46055,-2.8538,-0.15298,0.59284
778.207,34.4874,-2.85516,-0.15654,0.59221
779.007,34.51421,-2.85376,-0.15746,0.59158
779.807,34.5411,-2.85381,-0.1605,0.59096
780.607,34.56793,-2.85381,-0.16589,0.59033
781.407,34.5948,-2.85381,-0.16764,0.58971
782.207,34.62153,-2.85383,-0.16877,0.58908
783.007,34.64836,-2.85514,-0.16892,0.58846
783.807,34.67518,-2.85512,-0.17265,0.58783
784.607,34.702,-2.85526,-0.17535,0.58721
785.407,34.72886,-2.85645,-0.17443,0.58658
786.207,34.75571,-2.85581,-0.1776,0.58596
787.007,34.78255,-2.85514,-0.17977,0.58534
787.807,34.80936,-2.85513,-0.18419,0.58471
788.607,34.83618,-2.85379,-0.18364,0.58409
789.407,34.86299,-2.85382,-0.19143,0.58347
790.207,34.88985,-2.85382,-0.18581,0.58284
791.007,34.9167,-2.85639,-0.18795,0.58222
791.807,34.9435,-2.85645,-0.19406,0.5816
792.607,34.9703,-2.85646,-0.19382,0.58098
793.407,34.9971,-2.85522,-0.19681,0.58036
794.207,35.02391,-2.85515,-0.19814,0.57974
795.007,35.0508,-2.85592,-0.19783,0.57912
795.807,35.07762,-2.85645,-0.1987,0.5785
796.607,35.1044,-2.85645,-0.20251,0.57787
797.407,35.1313,-2.85645,-0.20748,0.57726
798.207,35.1582,-2.85645,-0.21017,0.57664
799.007,35.1851,-2.85645,-0.21075,0.57602
799.807,35.212,-2.85645,-0.21795,0.5754
800.607,35.23873,-2.85645,-0.2177,0.57478
801.407,35.2656,-2.85645,-0.21616,0.57416
802.207,35.29241,-2.85645,-0.22082,0.57354
803.007,35.31929,-2.85512,-0.229,0.57292
803.807,35.34612,-2.85554,-0.22904,0.57231
804.607,35.37301,-2.85643,-0.23107,0.57169
805.407,35.3999,-2.85647,-0.23509,0.57107
806.207,35.42669,-2.8578,-0.23356,0.57046
807.007,35.4535,-2.85777,-0.23751,0.56984
807.807,35.48038,-2.85778,-0.24084,0.56922
808.607,35.5073,-2.85912,-0.23924,0.56861
809.407,35.53415,-2.85908,-0.24397,0.56799
810.207,35.561,-2.85909,-0.24675,0.56738
811.007,35.58786,-2.85995,-0.24988,0.56676
811.807,35.6147,-2.8604,-0.24605,0.56615
812.607,35.64155,-2.86045,-0.2525,0.56554
813.407,35.66847,-2.85908,-0.25549,0.56492
814.207,35.69535,-2.85908,-0.25452,0.56431
815.007,35.7222,-2.85908,-0.25934,0.5637
815.807,35.74907,-2.85908,-0.2604,0.56308
816.607,35.77598,-2.86008,-0.26332,0.56247
817.407,35.8029,-2.86007,-0.26186,0.56186
818.207,35.82969,-2.86007,-0.26793,0.56125
819.007,35.85657,-2.86004,-0.2686,0.56063
819.807,35.8834,-2.86039,-0.27483,0.56002
820.607,35.9103,-2.8604,-0.2758,0.55941
821.407,35.93716,-2.8604,-0.27755,0.5588
822.207,35.96407,-2.86059,-0.28167,0.55819
823.007,35.991,-2.8604,-0.28651,0.55758
823.807,36.01798,-2.86039,-0.28321,0.55697
824.607,36.04493,-2.8604,-0.28749,0.55636
825.407,36.07186,-2.86127,-0.28977,0.55575
826.207,36.09875,-2.86171,-0.2943,0.55514
827.007,36.1256,-2.86172,-0.29909,0.55454
827.807,36.15256,-2.86143,-0.3002,0.55393
828.607,36.17947,-2.86029,-0.29846,0.55332
829.407,36.20644,-2.85899,-0.30225,0.55271
830.207,36.23346,-2.85897,-0.30259,0.5521
831.007,36.26044,-2.85897,-0.30441,0.5515
831.807,36.28737,-2.85987,-0.30405,0.55089
832.607,36.31431,-2.8599,-0.30298,0.55028
833.407,36.34127,-2.86131,-0.30473,0.54968
834.207,36.36821,-2.86127,-0.30689,0.54907
835.007,36.39517,-2.86127,-0.30822,0.54847
835.807,36.4221,-2.86127,-0.30158,0.54786
836.607,36.44908,-2.86127,-0.30698,0.54726
837.407,36.47611,-2.85978,-0.30451,0.54665
838.207,36.50312,-2.85985,-0.30483,0.54605
839.007,36.53004,-2.85984,-0.30555,0.54545
839.807,36.557,-2.86099,-0.3051,0.54484
840.607,36.58406,-2.86274,-0.30506,0.54424
841.407,36.6111,-2.86443,-0.30707,0.54364
842.207,36.6382,-2.86444,-0.30766,0.54303
843.007,36.6652,-2.86441,-0.31192,0.54243
843.807,36.6922,-2.86244,-0.30455,0.54183
844.607,36.71911,-2.86094,-0.31501,0.54123
845.407,36.74609,-2.86095,-0.3075,0.54063
846.207,36.7731,-2.86057,-0.3047,0.54003
847.007,36.80017,-2.85941,-0.30745,0.53943
847.807,36.82718,-2.85943,-0.31257,0.53883
848.607,36.85417,-2.86109,-0.30808,0.53823
849.407,36.88113,-2.86226,-0.30609,0.53763
850.207,36.90811,-2.8636,-0.30411,0.53703
851.007,36.9352,-2.86358,-0.30618,0.53643
851.807,36.96219,-2.86358,-0.30614,0.53583
852.607,36.98922,-2.86358,-0.30596,0.53523
853.407,37.01617,-2.86367,-0.30603,0.53463
854.207,37.04313,-2.86225,-0.30643,0.53404
855.007,37.07018,-2.86225,-0.30411,0.53344
855.807,37.09718,-2.86295,-0.30313,0.53284
856.607,37.12421,-2.86285,-0.30414,0.53224
857.407,37.1512,-2.86371,-0.30338,0.53165
858.207,37.17822,-2.86489,-0.30242,0.53105
859.007,37.20519,-2.86489,-0.30144,0.53046
859.807,37.23229,-2.86488,-0.3019,0.52986
860.607,37.25933,-2.86336,-0.29923,0.52927
861.407,37.28642,-2.86258,-0.3036,0.52867
862.207,37.31343,-2.86236,-0.30367,0.52808
863.007,37.34049,-2.86237,-0.29892,0.52748
863.807,37.36752,-2.86237,-0.29984,0.52689
864.607,37.39452,-2.86232,-0.29837,0.5263
865.407,37.42152,-2.86408,-0.29349,0.5257
866.207,37.44852,-2.8652,-0.29283,0.52511
867.007,37.4755,-2.86554,-0.29418,0.52452
867.807,37.50257,-2.86554,-0.29551,0.52392
868.607,37.52966,-2.86403,-0.28826,0.52333
869.407,37.5568,-2.86326,-0.28986,0.52274
870.207,37.5839,-2.8627,-0.28557,0.52215
871.007,37.6111,-2.86271,-0.28901,0.52156
871.807,37.6381,-2.86383,-0.28686,0.52097
872.607,37.66513,-2.86552,-0.28565,0.52038
873.407,37.69212,-2.86555,-0.28797,0.51979
874.207,37.7192,-2.86555,-0.28499,0.5192
875.007,37.74625,-2.86692,-0.28245,0.51861
875.807,37.77333,-2.86666,-0.27807,0.51802
876.607,37.80042,-2.86556,-0.27984,0.51743
877.407,37.82748,-2.86524,-0.28051,0.51685
878.207,37.85448,-2.86553,-0.28201,0.51626
879.007,37.88146,-2.86513,-0.27934,0.51567
879.807,37.90848,-2.86489,-0.28406,0.51508
880.607,37.9356,-2.86488,-0.28129,0.5145
881.407,37.96264,-2.8651,-0.28223,0.51391
882.207,37.98973,-2.86554,-0.27642,0.51332
883.007,38.01682,-2.86685,-0.27808,0.51274
883.807,38.0439,-2.86687,-0.27444,0.51215
884.607,38.07103,-2.86687,-0.27046,0.51157
885.407,38.09811,-2.86687,-0.26943,0.51098
886.207,38.1252,-2.86687,-0.27377,0.5104
887.007,38.15215,-2.86687,-0.26966,0.50981
887.807,38.1792,-2.86687,-0.27166,0.50923
888.607,38.20622,-2.86824,-0.2684,0.50865
889.407,38.23325,-2.8699,-0.26755,0.50806
890.207,38.2603,-2.87016,-0.26849,0.50748
891.007,38.2873,-2.87017,-0.26659,0.5069
891.807,38.31541,-2.86877,-0.26218,0.50632
892.307,38.3319,-2.86884,-0.25703,0.50595