File: 01_Data/Feather_Pillow_Cover/STA/N2/10K_min/Feather_Pillow_Cover_STA_N2_10KData_2216_R3.csv
##Temp./Â°C,Time/min,Mass loss(subtr.2)/mg,DSC(subtr.2)/(mW/mg),Sensit./(uV/mW)
49.737,10.00917,-0.03042,0.02226751,1.07017
50.437,10.77267,-0.03081506,0.05528273,1.06998
51.137,10.97822,-0.03100998,0.08301611,1.06978
51.837,11.1297,-0.02987733,0.1022,1.06959
52.537,11.25956,-0.03129115,0.12336,1.0694
53.237,11.3749,-0.03047776,0.13862,1.0692
53.937,11.48055,-0.03165417,0.1509,1.06901
54.637,11.58034,-0.03131975,0.16208,1.06881
55.337,11.6753,-0.03182133,0.17394,1.06862
56.037,11.7667,-0.03180385,0.18343,1.06842
56.737,11.85563,-0.03051275,0.19136,1.06822
57.437,11.94173,-0.03057018,0.19914,1.06803
58.137,12.0257,-0.03208696,0.20759,1.06783
58.837,12.10792,-0.03173197,0.21173,1.06763
59.537,12.1891,-0.03183415,0.22017,1.06743
60.237,12.2692,-0.03316,0.22581,1.06723
60.937,12.3485,-0.033156,0.23049,1.06703
61.637,12.42716,-0.03315776,0.23706,1.06683
62.337,12.50566,-0.03315274,0.23988,1.06663
63.037,12.5838,-0.03315233,0.24416,1.06643
63.737,12.66124,-0.03313452,0.24691,1.06623
64.437,12.73829,-0.03316892,0.25087,1.06602
65.137,12.8146,-0.03316773,0.25341,1.06582
65.837,12.89086,-0.03453971,0.2581,1.06562
66.537,12.96674,-0.03439533,0.26387,1.06541
67.237,13.04223,-0.03448145,0.26552,1.06521
67.937,13.1173,-0.03447684,0.26973,1.065
68.637,13.19254,-0.03382756,0.27107,1.0648
69.337,13.26715,-0.0344715,0.27659,1.06459
70.037,13.34185,-0.03579048,0.27876,1.06439
70.737,13.416,-0.03579184,0.28294,1.06418
71.437,13.4906,-0.03580812,0.28498,1.06397
72.137,13.56505,-0.03710856,0.28951,1.06376
72.837,13.63911,-0.03711001,0.29091,1.06355
73.537,13.71305,-0.03653925,0.29602,1.06334
74.237,13.7866,-0.03710956,0.2993,1.06313
74.937,13.86019,-0.03842902,0.30044,1.06292
75.637,13.93334,-0.03980232,0.30525,1.06271
76.337,14.0066,-0.03974325,0.30705,1.0625
77.037,14.07947,-0.04104991,0.30938,1.06229
77.737,14.1523,-0.03873074,0.31277,1.06208
78.437,14.2249,-0.04145146,0.31576,1.06187
79.137,14.29729,-0.04149999,0.3192,1.06165
79.837,14.36953,-0.04185323,0.31973,1.06144
80.537,14.44181,-0.04249509,0.3209,1.06123
81.237,14.51366,-0.04249949,0.32228,1.06101
81.937,14.5854,-0.04248313,0.32574,1.0608
82.637,14.65688,-0.04328316,0.32709,1.06058
83.337,14.7288,-0.04380894,0.32553,1.06036
84.037,14.80013,-0.04447018,0.32843,1.06015
84.737,14.87129,-0.04482978,0.33148,1.05993
85.437,14.9413,-0.0448039,0.3312,1.05971
86.137,15.0123,-0.04512141,0.33189,1.05949
86.837,15.0832,-0.046417,0.33356,1.05927
87.537,15.1545,-0.04507135,0.33534,1.05905
88.237,15.22521,-0.04738903,0.33568,1.05883
88.937,15.29571,-0.04743,0.33494,1.05861
89.637,15.36609,-0.04742701,0.33407,1.05839
90.337,15.4361,-0.04908399,0.33636,1.05817
91.037,15.5061,-0.0478656,0.33351,1.05795
91.737,15.57595,-0.0490809,0.33556,1.05773
92.437,15.6458,-0.05038056,0.3326,1.0575
93.137,15.71544,-0.05038626,0.33415,1.05728
93.837,15.78505,-0.05171299,0.33354,1.05706
94.537,15.8544,-0.05171,0.33259,1.05683
95.237,15.92354,-0.05171,0.33189,1.05661
95.937,15.99284,-0.05170494,0.33041,1.05638
96.637,16.06203,-0.05303046,0.3301,1.05615
97.337,16.13107,-0.0531062,0.33001,1.05593
98.037,16.20001,-0.05434997,0.32753,1.0557
98.737,16.2689,-0.05434906,0.32629,1.05547
99.437,16.33784,-0.05439881,0.32628,1.05524
100.137,16.40673,-0.05434999,0.32424,1.05502
100.837,16.47555,-0.05435003,0.32461,1.05479
101.537,16.54464,-0.05488368,0.32345,1.05456
102.237,16.61318,-0.05500001,0.32135,1.05433
102.937,16.6817,-0.05501837,0.32024,1.0541
103.637,16.7498,-0.0556694,0.31949,1.05386
104.337,16.81831,-0.05632575,0.31589,1.05363
105.037,16.88676,-0.05511245,0.31855,1.0534
105.737,16.95525,-0.05604785,0.31586,1.05317
106.437,17.0237,-0.05600383,0.31521,1.05293
107.137,17.09211,-0.05698885,0.31348,1.0527
107.837,17.16059,-0.05702523,0.3129,1.05246
108.537,17.22912,-0.05731063,0.31067,1.05223
109.237,17.29759,-0.05731916,0.3104,1.05199
109.937,17.36591,-0.05731013,0.3084,1.05176
110.637,17.4342,-0.0585643,0.3072,1.05152
111.337,17.50251,-0.05866544,0.30648,1.05128
112.037,17.5711,-0.05730691,0.30456,1.05105
112.737,17.63932,-0.05863134,0.30415,1.05081
113.437,17.70757,-0.05731004,0.30347,1.05057
114.137,17.77555,-0.05731124,0.30231,1.05033
114.837,17.8441,-0.05866081,0.30004,1.05009
115.537,17.91235,-0.05929498,0.30105,1.04985
116.237,17.98072,-0.05929,0.3009,1.04961
116.937,18.04875,-0.0592976,0.29835,1.04937
117.637,18.11688,-0.05928986,0.29985,1.04913
118.337,18.18494,-0.05893443,0.29743,1.04888
119.037,18.25325,-0.05796294,0.29723,1.04864
119.737,18.3215,-0.05797,0.29687,1.0484
120.437,18.39003,-0.05796746,0.2961,1.04815
121.137,18.4579,-0.05893765,0.29825,1.04791
121.837,18.52605,-0.0579711,0.29918,1.04766
122.537,18.59383,-0.05990098,0.29893,1.04742
123.237,18.66186,-0.05995,0.29783,1.04717
123.937,18.72984,-0.05995,0.29869,1.04692
124.637,18.79778,-0.0599488,0.29849,1.04668
125.337,18.8655,-0.05863256,0.29991,1.04643
126.037,18.9335,-0.05961642,0.29787,1.04618
126.737,19.00129,-0.06093197,0.29875,1.04593
127.437,19.06949,-0.05961991,0.29793,1.04568
128.137,19.13724,-0.0596204,0.29957,1.04543
128.837,19.20524,-0.05829447,0.2985,1.04518
129.537,19.2731,-0.05829957,0.29956,1.04493
130.237,19.34106,-0.05960593,0.29999,1.04468
130.937,19.40877,-0.05829996,0.29974,1.04443
131.637,19.47606,-0.0583,0.30024,1.04417
132.337,19.5437,-0.0583,0.30258,1.04392
133.037,19.6113,-0.05828204,0.30208,1.04367
133.737,19.6793,-0.05995004,0.30133,1.04341
134.437,19.7472,-0.05995,0.30369,1.04316
135.137,19.8147,-0.06000045,0.30408,1.0429
135.837,19.882,-0.05862979,0.30141,1.04265
136.537,19.9493,-0.05929963,0.30273,1.04239
137.237,20.01705,-0.05994997,0.30554,1.04213
137.937,20.0848,-0.05995,0.30651,1.04188
138.637,20.15231,-0.05995,0.30619,1.04162
139.337,20.21954,-0.05995,0.30873,1.04136
140.037,20.28699,-0.05995,0.30904,1.0411
140.737,20.3546,-0.05995,0.30975,1.04084
141.437,20.4223,-0.05994985,0.31161,1.04058
142.137,20.48975,-0.05993597,0.31174,1.04032
142.837,20.55704,-0.05994999,0.31151,1.04006
143.537,20.62448,-0.05995,0.31025,1.0398
144.237,20.69197,-0.05995001,0.31206,1.03953
144.937,20.75945,-0.06030375,0.31324,1.03927
145.637,20.8267,-0.06127525,0.31469,1.03901
146.337,20.89343,-0.06026969,0.31409,1.03874
147.037,20.96058,-0.06027,0.31472,1.03848
147.737,21.0277,-0.06027,0.31436,1.03821
148.437,21.09515,-0.06027,0.3148,1.03795
149.137,21.16236,-0.06027,0.31739,1.03768
149.837,21.22932,-0.06027005,0.31695,1.03742
150.537,21.29641,-0.0616267,0.31893,1.03715
151.237,21.36375,-0.06126005,0.31857,1.03688
151.937,21.43096,-0.06176143,0.31926,1.03661
152.637,21.49845,-0.06256941,0.31796,1.03634
153.337,21.56544,-0.06030686,0.31927,1.03607
154.037,21.6328,-0.06027,0.31893,1.0358
154.737,21.7,-0.06027257,0.32277,1.03553
155.437,21.76737,-0.06122705,0.32165,1.03526
156.137,21.8344,-0.06126979,0.32281,1.03499
156.837,21.90134,-0.06128485,0.32257,1.03472
157.537,21.96845,-0.06259002,0.32437,1.03445
158.237,22.03545,-0.06130598,0.32365,1.03417
158.937,22.1025,-0.06127,0.3251,1.0339
159.637,22.16951,-0.06127,0.32553,1.03362
160.337,22.23622,-0.06112946,0.32584,1.03335
161.037,22.30334,-0.06071074,0.32687,1.03307
161.737,22.37009,-0.06128246,0.32817,1.0328
162.437,22.43764,-0.06225876,0.33018,1.03252
163.137,22.5045,-0.06155396,0.33037,1.03224
163.837,22.57114,-0.06191996,0.33098,1.03197
164.537,22.63767,-0.0619247,0.33266,1.03169
165.237,22.70459,-0.06257953,0.33366,1.03141
165.937,22.77204,-0.06274884,0.3342,1.03113
166.637,22.83912,-0.06224915,0.33407,1.03085
167.337,22.90602,-0.06189729,0.33508,1.03057
168.037,22.97261,-0.06192,0.33559,1.03029
168.737,23.03954,-0.06192164,0.33694,1.03001
169.437,23.10644,-0.06328944,0.33727,1.02973
170.137,23.17371,-0.06191974,0.33844,1.02944
170.837,23.2408,-0.06191995,0.33766,1.02916
171.537,23.30785,-0.06253219,0.3384,1.02888
172.237,23.37484,-0.06324308,0.33849,1.02859
172.937,23.44171,-0.06191655,0.34046,1.02831
173.637,23.50804,-0.06192064,0.34135,1.02802
174.337,23.57449,-0.06290494,0.34278,1.02774
175.037,23.6414,-0.06390686,0.34395,1.02745
175.737,23.70834,-0.06258026,0.34462,1.02716
176.437,23.77542,-0.06258007,0.34418,1.02687
177.137,23.84202,-0.06347566,0.345,1.02659
177.837,23.90888,-0.06423076,0.34697,1.0263
178.537,23.97574,-0.06290966,0.34819,1.02601
179.237,24.04252,-0.06290505,0.34631,1.02572
179.937,24.10889,-0.06421991,0.34762,1.02543
180.637,24.17553,-0.06422,0.35008,1.02514
181.337,24.24214,-0.06422073,0.34923,1.02484
182.037,24.30911,-0.06324015,0.3487,1.02455
182.737,24.37554,-0.06323879,0.35175,1.02426
183.437,24.4421,-0.06423417,0.35097,1.02397
184.137,24.50864,-0.06423,0.35183,1.02367
184.837,24.5753,-0.06423,0.3532,1.02338
185.537,24.642,-0.06422608,0.35157,1.02308
186.237,24.70857,-0.06553982,0.35431,1.02279
186.937,24.77509,-0.06415302,0.3541,1.02249
187.637,24.8416,-0.06422878,0.35501,1.0222
188.337,24.90834,-0.06456038,0.3543,1.0219
189.037,24.97494,-0.06446274,0.35539,1.0216
189.737,25.04186,-0.06588003,0.35558,1.0213
190.437,25.1086,-0.06588,0.35562,1.021
191.137,25.17531,-0.06588,0.357,1.0207
191.837,25.24205,-0.06588,0.35681,1.0204
192.537,25.3087,-0.06588,0.3564,1.0201
193.237,25.3754,-0.06588,0.35598,1.0198
193.937,25.44171,-0.06588,0.35814,1.0195
194.637,25.50818,-0.06588,0.35868,1.0192
195.337,25.57432,-0.06597207,0.35849,1.0189
196.037,25.64094,-0.06480057,0.35893,1.01859
196.737,25.70748,-0.06632509,0.36036,1.01829
197.437,25.77411,-0.06657976,0.3618,1.01798
198.137,25.84064,-0.06763995,0.36253,1.01768
198.837,25.90708,-0.06764366,0.36208,1.01737
199.537,25.97379,-0.06664886,0.36214,1.01707
200.237,26.0404,-0.06665,0.36509,1.01676
200.937,26.1071,-0.06666132,0.36448,1.01645
201.637,26.17365,-0.06797225,0.36546,1.01614
202.337,26.24015,-0.06664818,0.36571,1.01584
203.037,26.30665,-0.06665,0.36596,1.01553
203.737,26.37312,-0.06665,0.36754,1.01522
204.437,26.4394,-0.06664973,0.36754,1.01491
205.137,26.5058,-0.06763508,0.36794,1.0146
205.837,26.57224,-0.06763,0.36769,1.01428
206.537,26.63897,-0.06763015,0.36958,1.01397
207.237,26.70542,-0.0682938,0.37026,1.01366
207.937,26.77192,-0.06828982,0.37074,1.01335
208.637,26.8383,-0.06718746,0.36836,1.01303
209.337,26.9049,-0.06719,0.37256,1.01272
210.037,26.97144,-0.06719,0.37258,1.0124
210.737,27.03805,-0.06719063,0.37243,1.01209
211.437,27.1046,-0.06817609,0.37271,1.01177
212.137,27.17135,-0.06818,0.37284,1.01146
212.837,27.23808,-0.06817805,0.37307,1.01114
213.537,27.30475,-0.06950319,0.37609,1.01082
214.237,27.3713,-0.0695,0.37474,1.0105
214.937,27.43767,-0.0695,0.37749,1.01019
215.637,27.50361,-0.0695,0.37636,1.00987
216.337,27.56983,-0.06949999,0.37534,1.00955
217.037,27.6364,-0.06940172,0.37595,1.00923
217.737,27.703,-0.07179792,0.3765,1.0089
218.437,27.76973,-0.0718092,0.37404,1.00858
219.137,27.83592,-0.07049009,0.3739,1.00826
219.837,27.9024,-0.07049,0.37542,1.00794
220.537,27.96888,-0.07049,0.37588,1.00761
221.237,28.03551,-0.07049,0.37755,1.00729
221.937,28.10203,-0.07049,0.37655,1.00697
222.637,28.16834,-0.07049,0.37748,1.00664
223.337,28.2347,-0.07046466,0.37726,1.00632
224.037,28.3011,-0.0711501,0.3784,1.00599
224.737,28.36785,-0.07115,0.38103,1.00566
225.437,28.43461,-0.07115929,0.38019,1.00533
226.137,28.50116,-0.07148276,0.38095,1.00501
226.837,28.56767,-0.07213054,0.38175,1.00468
227.537,28.634,-0.07213169,0.38103,1.00435
228.237,28.70048,-0.07344888,0.38297,1.00402
228.937,28.7671,-0.07345,0.38184,1.00369
229.637,28.8337,-0.07345,0.38305,1.00336
230.337,28.9001,-0.07344918,0.38304,1.00303
231.037,28.96663,-0.07411259,0.38571,1.00269
231.737,29.03322,-0.07411,0.38381,1.00236
232.437,29.10036,-0.07410435,0.38508,1.00203
233.137,29.1669,-0.07476976,0.38409,1.0017
233.837,29.23354,-0.07505132,0.38512,1.00136
234.537,29.30006,-0.07424818,0.38595,1.00103
235.237,29.3667,-0.07519323,0.38647,1.00069
235.937,29.43348,-0.07666842,0.38737,1.00035
236.637,29.5003,-0.07794899,0.3874,1.00002
237.337,29.567,-0.07696811,0.3884,0.99968
238.037,29.63359,-0.07697012,0.38915,0.99934
238.737,29.7003,-0.07804288,0.3868,0.999
239.437,29.7669,-0.07831197,0.38933,0.99866
240.137,29.83365,-0.07959986,0.3906,0.99833
240.837,29.8997,-0.07960212,0.38921,0.99799
241.537,29.96629,-0.08091029,0.38946,0.99764
242.237,30.0329,-0.08091,0.3933,0.9973
242.937,30.09993,-0.08091379,0.39329,0.99696
243.637,30.16655,-0.08223026,0.39337,0.99662
244.337,30.23297,-0.08223,0.39361,0.99628
245.037,30.29963,-0.08223,0.39466,0.99593
245.737,30.3662,-0.08223001,0.39421,0.99559
246.437,30.4328,-0.08293219,0.39333,0.99524
247.137,30.49933,-0.08354999,0.39503,0.9949
247.837,30.5659,-0.08483491,0.39457,0.99455
248.537,30.63263,-0.08486094,0.39457,0.9942
249.237,30.6992,-0.0875,0.39601,0.99386
249.937,30.76568,-0.08763224,0.39781,0.99351
250.637,30.832,-0.08749999,0.3966,0.99316
251.337,30.89855,-0.0875046,0.39648,0.99281
252.037,30.96535,-0.08881924,0.39719,0.99246
252.737,31.03197,-0.08882015,0.39963,0.99211
253.437,31.09865,-0.08751528,0.39997,0.99176
254.137,31.1654,-0.08882051,0.40113,0.99141
254.837,31.23215,-0.08993378,0.40222,0.99106
255.537,31.29903,-0.09244221,0.40252,0.99071
256.237,31.3658,-0.09243996,0.40253,0.99035
256.937,31.4324,-0.0912386,0.40271,0.99
257.637,31.499,-0.08980299,0.40411,0.98965
258.337,31.5654,-0.09107425,0.40351,0.98929
259.037,31.6319,-0.09625517,0.40436,0.98894
259.737,31.69828,-0.09946532,0.40729,0.98858
260.437,31.76486,-0.09947,0.40734,0.98822
261.137,31.8314,-0.09947,0.40804,0.98787
261.837,31.8982,-0.09947,0.40683,0.98751
262.537,31.96472,-0.09947183,0.40904,0.98715
263.237,32.03131,-0.10079,0.40846,0.98679
263.937,32.09749,-0.10079,0.4097,0.98643
264.637,32.16415,-0.09950209,0.40993,0.98607
265.337,32.2309,-0.10315,0.40981,0.98571
266.037,32.29803,-0.10705,0.41474,0.98535
266.737,32.36472,-0.10821,0.41325,0.98499
267.437,32.43152,-0.10703,0.41329,0.98462
268.137,32.4984,-0.10836,0.41395,0.98426
268.837,32.56519,-0.10837,0.41461,0.9839
269.537,32.63191,-0.10968,0.41596,0.98353
270.237,32.6985,-0.1084,0.4144,0.98317
270.937,32.76536,-0.11101,0.41545,0.9828
271.637,32.83209,-0.11285,0.41517,0.98244
272.337,32.8989,-0.11669,0.41742,0.98207
273.037,32.96563,-0.1167,0.41525,0.9817
273.737,33.03239,-0.11802,0.4137,0.98134
274.437,33.09921,-0.11934,0.41179,0.98097
275.137,33.1661,-0.11934,0.41207,0.9806
275.837,33.23328,-0.11933,0.41314,0.98023
276.537,33.29995,-0.12066,0.41224,0.97986
277.237,33.3669,-0.12331,0.41198,0.97949
277.937,33.43333,-0.12461,0.41296,0.97912
278.637,33.5004,-0.12594,0.41414,0.97874
279.337,33.56743,-0.12725,0.41444,0.97837
280.037,33.63442,-0.12726,0.41516,0.978
280.737,33.70147,-0.12849,0.41595,0.97762
281.437,33.7682,-0.1312,0.41686,0.97725
282.137,33.83548,-0.13262,0.41693,0.97688
282.837,33.9028,-0.13478,0.4181,0.9765
283.537,33.96982,-0.13587,0.41953,0.97612
284.237,34.0368,-0.13785,0.42077,0.97575
284.937,34.10348,-0.14022,0.42323,0.97537
285.637,34.1704,-0.14186,0.42575,0.97499
286.337,34.2372,-0.14404,0.42477,0.97461
287.037,34.30395,-0.14472,0.42765,0.97423
287.737,34.37064,-0.14733,0.42761,0.97385
288.437,34.43734,-0.14984,0.42935,0.97347
289.137,34.50419,-0.15127,0.4323,0.97309
289.837,34.57111,-0.15334,0.43517,0.97271
290.537,34.63787,-0.15546,0.4354,0.97233
291.237,34.70466,-0.15809,0.43763,0.97195
291.937,34.7714,-0.16115,0.43986,0.97156
292.637,34.83854,-0.16238,0.44249,0.97118
293.337,34.90552,-0.16364,0.44362,0.9708
294.037,34.97252,-0.16605,0.44609,0.97041
294.737,35.0396,-0.16786,0.44696,0.97002
295.437,35.10667,-0.17084,0.45153,0.96964
296.137,35.17357,-0.17383,0.45218,0.96925
296.837,35.24031,-0.17803,0.45273,0.96886
297.537,35.3071,-0.18085,0.45549,0.96848
298.237,35.37396,-0.18411,0.45657,0.96809
298.937,35.44095,-0.18558,0.45833,0.9677
299.637,35.508,-0.18874,0.46269,0.96731
300.337,35.5753,-0.19011,0.4634,0.96692
301.037,35.64236,-0.19426,0.46488,0.96653
301.737,35.70926,-0.19828,0.46785,0.96614
302.437,35.77608,-0.20134,0.46907,0.96574
303.137,35.84321,-0.20579,0.47174,0.96535
303.837,35.9105,-0.20809,0.47305,0.96496
304.537,35.9777,-0.21162,0.47873,0.96456
305.237,36.04464,-0.21619,0.4798,0.96417
305.937,36.11156,-0.21991,0.48097,0.96377
306.637,36.17857,-0.22364,0.48366,0.96338
307.337,36.2457,-0.22866,0.48797,0.96298
308.037,36.31292,-0.23196,0.48897,0.96258
308.737,36.38002,-0.23547,0.49383,0.96219
309.437,36.4473,-0.2397,0.49667,0.96179
310.137,36.5146,-0.24395,0.50191,0.96139
310.837,36.58164,-0.24944,0.50438,0.96099
311.537,36.64861,-0.25432,0.50873,0.96059
312.237,36.7157,-0.25921,0.5161,0.96019
312.937,36.78286,-0.26526,0.5174,0.95979
313.637,36.85,-0.27083,0.52234,0.95939
314.337,36.91704,-0.27604,0.52778,0.95898
315.037,36.98423,-0.28165,0.53281,0.95858
315.737,37.05141,-0.28753,0.53856,0.95818
316.437,37.11848,-0.2931,0.5413,0.95777
317.137,37.18551,-0.29921,0.55047,0.95737
317.837,37.2525,-0.30552,0.55292,0.95696
318.537,37.31944,-0.31214,0.55932,0.95656
319.237,37.38648,-0.31855,0.56509,0.95615
319.937,37.45349,-0.32546,0.57141,0.95574
320.637,37.52083,-0.33371,0.57681,0.95534
321.337,37.58805,-0.3425,0.5816,0.95493
322.037,37.65515,-0.34961,0.58863,0.95452
322.737,37.72215,-0.35732,0.59871,0.95411
323.437,37.78915,-0.36559,0.60593,0.9537
324.137,37.85641,-0.37517,0.61416,0.95329
324.837,37.92378,-0.38344,0.62263,0.95288
325.537,37.9912,-0.39288,0.63307,0.95247
326.237,38.05832,-0.40265,0.63898,0.95205
326.937,38.1256,-0.41288,0.64842,0.95164
327.637,38.19297,-0.4237,0.65899,0.95123
328.337,38.26061,-0.43491,0.6689,0.95081
329.037,38.3279,-0.44413,0.68135,0.9504
329.737,38.39539,-0.45526,0.69155,0.94998
330.437,38.46269,-0.4678,0.70697,0.94956
331.137,38.53014,-0.48183,0.72085,0.94915
331.837,38.5976,-0.49411,0.73316,0.94873
332.537,38.66496,-0.50546,0.7483,0.94831
333.237,38.73225,-0.51974,0.76217,0.94789
333.937,38.79979,-0.5346,0.7813,0.94747
334.637,38.86757,-0.5497,0.79498,0.94706
335.337,38.9353,-0.56566,0.81344,0.94663
336.037,39.00291,-0.58317,0.83442,0.94621
336.737,39.07043,-0.60036,0.856,0.94579
337.437,39.13816,-0.61922,0.87582,0.94537
338.137,39.20575,-0.63624,0.89508,0.94495
338.837,39.27332,-0.65761,0.91979,0.94452
339.537,39.34086,-0.67838,0.94579,0.9441
340.237,39.40854,-0.69789,0.96976,0.94368
340.937,39.4763,-0.7207,0.99746,0.94325
341.637,39.54398,-0.74527,1.02553,0.94282
342.337,39.61185,-0.76795,1.05614,0.9424
343.037,39.67969,-0.79251,1.08536,0.94197
343.737,39.7474,-0.81858,1.11808,0.94154
344.437,39.8148,-0.84557,1.15192,0.94112
345.137,39.88236,-0.87382,1.1884,0.94069
345.837,39.94995,-0.90462,1.22356,0.94026
346.537,40.018,-0.9374,1.26597,0.93983
347.237,40.08618,-0.96751,1.30681,0.9394
347.937,40.1544,-1.00107,1.34649,0.93897
348.637,40.22262,-1.03839,1.38831,0.93853
349.337,40.29053,-1.07562,1.43487,0.9381
350.037,40.35788,-1.11333,1.48014,0.93767
350.737,40.42568,-1.15641,1.52803,0.93724
351.437,40.49361,-1.19729,1.57492,0.9368
352.137,40.56237,-1.23864,1.62295,0.93637
352.837,40.63069,-1.28542,1.67256,0.93593
353.537,40.6989,-1.33321,1.72367,0.9355
354.237,40.76677,-1.38239,1.77264,0.93506
354.937,40.83493,-1.43308,1.82035,0.93462
355.637,40.90338,-1.48744,1.86923,0.93418
356.337,40.97183,-1.53955,1.9163,0.93375
357.037,41.04014,-1.59507,1.95884,0.93331
357.737,41.1083,-1.65308,2.00439,0.93287
358.437,41.17661,-1.7136,2.04286,0.93243
359.137,41.245,-1.7718,2.07854,0.93199
359.837,41.31328,-1.83398,2.11264,0.93155
360.537,41.38134,-1.89817,2.13762,0.9311
361.237,41.44908,-1.96042,2.15866,0.93066
361.937,41.5171,-2.02288,2.17337,0.93022
362.637,41.585,-2.0881,2.17969,0.92978
363.337,41.65313,-2.15276,2.18143,0.92933
364.037,41.7211,-2.21637,2.17322,0.92889
364.737,41.78884,-2.28377,2.15624,0.92844
365.437,41.85646,-2.34662,2.13551,0.92799
366.137,41.92399,-2.40694,2.10442,0.92755
366.837,41.99179,-2.46897,2.06628,0.9271
367.537,42.05961,-2.52944,2.02069,0.92665
368.237,42.12733,-2.58554,1.96962,0.9262
368.937,42.195,-2.64263,1.91168,0.92576
369.637,42.26233,-2.69932,1.84444,0.92531
370.337,42.32972,-2.75135,1.77497,0.92486
371.037,42.397,-2.80059,1.69553,0.9244
371.737,42.46425,-2.8498,1.60976,0.92395
372.437,42.53133,-2.89382,1.52193,0.9235
373.137,42.59794,-2.93564,1.4263,0.92305
373.837,42.6647,-2.97644,1.32773,0.9226
374.537,42.7315,-3.01488,1.2255,0.92214
375.237,42.79867,-3.04814,1.11927,0.92169
375.937,42.8657,-3.07927,1.01295,0.92123
376.637,42.93245,-3.10574,0.90708,0.92078
377.337,42.99906,-3.12946,0.80265,0.92032
378.037,43.06583,-3.15102,0.70412,0.91986
378.737,43.13239,-3.1681,0.61077,0.91941
379.437,43.19934,-3.18331,0.52451,0.91895
380.137,43.26619,-3.19645,0.44654,0.91849
380.837,43.33303,-3.20703,0.37801,0.91803
381.537,43.39975,-3.21648,0.31975,0.91757
382.237,43.46647,-3.22223,0.26913,0.91711
382.937,43.53321,-3.2278,0.22632,0.91665
383.637,43.60045,-3.23237,0.19323,0.91619
384.337,43.6675,-3.23635,0.16476,0.91573
385.037,43.73468,-3.23934,0.14565,0.91526
385.737,43.8018,-3.24182,0.131,0.9148
386.437,43.86929,-3.24466,0.11453,0.91434
387.137,43.93696,-3.24593,0.10406,0.91387
387.837,44.0047,-3.24867,0.09866298,0.91341
388.537,44.07221,-3.2514,0.09353301,0.91294
389.237,44.13985,-3.25267,0.0863426,0.91248
389.937,44.20747,-3.25343,0.08496559,0.91201
390.637,44.27523,-3.25464,0.08217849,0.91154
391.337,44.34281,-3.25596,0.08049475,0.91107
392.037,44.41039,-3.25596,0.07811564,0.91061
392.737,44.4779,-3.25729,0.07693185,0.91014
393.437,44.54564,-3.25871,0.07720363,0.90967
394.137,44.61345,-3.25991,0.07546532,0.9092
394.837,44.68127,-3.26122,0.07408246,0.90872
395.537,44.7491,-3.26222,0.07363094,0.90825
396.237,44.817,-3.26255,0.07401806,0.90778
396.937,44.88477,-3.26381,0.07307071,0.90731
397.637,44.9524,-3.26515,0.0717301,0.90684
398.337,45.0198,-3.26518,0.07250912,0.90636
399.037,45.08757,-3.2665,0.07237412,0.90589
399.737,45.15547,-3.26711,0.07242554,0.90541
400.437,45.22327,-3.26802,0.0712334,0.90494
401.137,45.29124,-3.26913,0.072475,0.90446
401.837,45.35904,-3.26978,0.07079412,0.90398
402.537,45.4272,-3.27047,0.0728666,0.90351
403.237,45.49514,-3.27177,0.07223227,0.90303
403.937,45.56315,-3.27179,0.06975725,0.90255
404.637,45.6308,-3.27275,0.07287763,0.90207
405.337,45.6989,-3.27405,0.07225121,0.90159
406.037,45.76704,-3.2744,0.07089181,0.90111
406.737,45.83555,-3.2744,0.07224643,0.90063
407.437,45.9036,-3.27542,0.0718166,0.90015
408.137,45.97149,-3.27707,0.07152957,0.89967
408.837,46.03949,-3.27703,0.07180748,0.89918
409.537,46.10759,-3.27702,0.07147994,0.8987
410.237,46.1757,-3.27711,0.07070554,0.89822
410.937,46.2438,-3.27847,0.07168578,0.89773
411.637,46.31158,-3.27988,0.07132215,0.89725
412.337,46.3798,-3.28044,0.07007307,0.89676
413.037,46.4481,-3.28039,0.07141935,0.89628
413.737,46.51658,-3.28176,0.06976485,0.89579
414.437,46.58469,-3.28302,0.07197687,0.8953
415.137,46.65265,-3.28439,0.07226633,0.89481
415.837,46.72064,-3.28439,0.07111458,0.89433
416.537,46.78901,-3.28571,0.06923588,0.89384
417.237,46.85738,-3.2852,0.07075777,0.89335
417.937,46.92592,-3.28571,0.07302331,0.89286
418.637,46.99419,-3.28677,0.07202866,0.89237
419.337,47.06248,-3.28915,0.07059163,0.89187
420.037,47.13061,-3.28968,0.07039999,0.89138
420.737,47.19877,-3.28967,0.06820968,0.89089
421.437,47.26706,-3.29045,0.06935559,0.8904
422.137,47.33558,-3.29099,0.07027521,0.8899
422.837,47.40404,-3.29246,0.06653183,0.88941
423.537,47.4724,-3.294,0.06844153,0.88891
424.237,47.54063,-3.29395,0.06702031,0.88842
424.937,47.60895,-3.29396,0.06816469,0.88792
425.637,47.67715,-3.29461,0.06891065,0.88743
426.337,47.74537,-3.29496,0.06731736,0.88693
427.037,47.81374,-3.29591,0.06623854,0.88643
427.737,47.88218,-3.29724,0.06775517,0.88593
428.437,47.95063,-3.29724,0.0657914,0.88543
429.137,48.019,-3.29856,0.06514851,0.88494
429.837,48.0875,-3.29908,0.06546839,0.88444
430.537,48.15602,-3.29988,0.06591034,0.88394
431.237,48.22419,-3.30119,0.0675371,0.88343
431.937,48.29228,-3.3026,0.06490411,0.88293
432.637,48.3601,-3.30404,0.06438485,0.88243
433.337,48.42845,-3.30383,0.06536046,0.88193
434.037,48.49694,-3.30506,0.06709397,0.88142
434.737,48.56585,-3.304,0.06450331,0.88092
435.437,48.63436,-3.3036,0.06350707,0.88042
436.137,48.7029,-3.3037,0.06470562,0.87991
436.837,48.7712,-3.30492,0.06497563,0.8794
437.537,48.83978,-3.30625,0.06564231,0.8789
438.237,48.90825,-3.30814,0.06282823,0.87839
438.937,48.97687,-3.30855,0.06497336,0.87788
439.637,49.04525,-3.30908,0.06510208,0.87738
440.337,49.1134,-3.30887,0.06389423,0.87687
441.037,49.18168,-3.30887,0.06399871,0.87636
441.737,49.25013,-3.31024,0.06392339,0.87585
442.437,49.31876,-3.31019,0.06455772,0.87534
443.137,49.38749,-3.31118,0.06412365,0.87483
443.837,49.4561,-3.31251,0.06401771,0.87432
444.537,49.52424,-3.31391,0.06334777,0.87381
445.237,49.59254,-3.3125,0.0614802,0.87329
445.937,49.6607,-3.31392,0.06070443,0.87278
446.637,49.7294,-3.31647,0.06455883,0.87227
447.337,49.79787,-3.3169,0.0640324,0.87175
448.037,49.86652,-3.31645,0.06312542,0.87124
448.737,49.93513,-3.31635,0.06256538,0.87072
449.437,50.00355,-3.31777,0.0615834,0.87021
450.137,50.07215,-3.31827,0.06101575,0.86969
450.837,50.14078,-3.31825,0.06011516,0.86917
451.537,50.2097,-3.3204,0.06105519,0.86866
452.237,50.27841,-3.3204,0.06110478,0.86814
452.937,50.3471,-3.32041,0.06113601,0.86762
453.637,50.41567,-3.32175,0.06059017,0.8671
454.337,50.48426,-3.32304,0.06134789,0.86658
455.037,50.55296,-3.32424,0.06003097,0.86606
455.737,50.62154,-3.32435,0.06077824,0.86554
456.437,50.6903,-3.32442,0.06232766,0.86502
457.137,50.7585,-3.32435,0.064212,0.8645
457.837,50.82697,-3.32502,0.06665928,0.86397
458.537,50.89557,-3.32633,0.0666005,0.86345
459.237,50.96445,-3.32661,0.0689193,0.86293
459.937,51.0334,-3.32765,0.06981188,0.8624
460.637,51.10212,-3.32864,0.07046391,0.86188
461.337,51.17099,-3.32946,0.06875136,0.86135
462.037,51.23977,-3.33028,0.06793237,0.86083
462.737,51.30847,-3.32929,0.0669576,0.8603
463.437,51.37702,-3.33061,0.06862924,0.85977
464.137,51.44573,-3.33125,0.07013602,0.85925
464.837,51.5147,-3.33329,0.06903031,0.85872
465.537,51.58365,-3.33188,0.06908097,0.85819
466.237,51.6524,-3.33178,0.06854347,0.85766
466.937,51.72116,-3.33147,0.06920459,0.85713
467.637,51.79,-3.33554,0.07090193,0.8566
468.337,51.8588,-3.33687,0.07095088,0.85607
469.037,51.9276,-3.33687,0.07105047,0.85554
469.737,51.99638,-3.33687,0.06867844,0.85501
470.437,52.06511,-3.33818,0.0696536,0.85447
471.137,52.1338,-3.33803,0.06968919,0.85394
471.837,52.20261,-3.33896,0.0701369,0.85341
472.537,52.2715,-3.33917,0.06944536,0.85287
473.237,52.34042,-3.33917,0.07102524,0.85234
473.937,52.40898,-3.34049,0.06860869,0.8518
474.637,52.47779,-3.34045,0.07273121,0.85127
475.337,52.54654,-3.34049,0.07112802,0.85073
476.037,52.6156,-3.3405,0.07143442,0.8502
476.737,52.6844,-3.34181,0.07059494,0.84966
477.437,52.7535,-3.34181,0.07021895,0.84912
478.137,52.82251,-3.34323,0.07031088,0.84858
478.837,52.89153,-3.34326,0.07170255,0.84804
479.537,52.9602,-3.34379,0.06996867,0.8475
480.237,53.029,-3.34379,0.07170666,0.84696
480.937,53.0979,-3.3451,0.07076992,0.84642
481.637,53.1668,-3.34519,0.07206873,0.84588
482.337,53.2356,-3.34501,0.07036284,0.84534
483.037,53.30445,-3.34642,0.07155654,0.8448
483.737,53.37345,-3.34647,0.06943921,0.84426
484.437,53.44225,-3.3487,0.07139557,0.84371
485.137,53.51095,-3.34873,0.0694917,0.84317
485.837,53.57983,-3.34873,0.0719,0.84263
486.537,53.6489,-3.35004,0.07095669,0.84208
487.237,53.7181,-3.35008,0.07193661,0.84154
487.937,53.78716,-3.34873,0.07090242,0.84099
488.637,53.85615,-3.3501,0.07448763,0.84044
489.337,53.92513,-3.35137,0.07195294,0.8399
490.037,53.99406,-3.35137,0.07163929,0.83935
490.737,54.063,-3.35268,0.07015326,0.8388
491.437,54.1321,-3.35268,0.07069536,0.83825
492.137,54.20143,-3.35262,0.0702159,0.8377
492.837,54.2706,-3.35237,0.0708268,0.83716
493.537,54.33974,-3.35273,0.07080026,0.83661
494.237,54.4088,-3.35301,0.07065384,0.83605
494.937,54.47784,-3.35324,0.06950014,0.8355
495.637,54.5467,-3.35432,0.06927737,0.83495
496.337,54.6155,-3.35432,0.06824107,0.8344
497.037,54.6846,-3.35572,0.06900642,0.83385
497.737,54.75376,-3.35564,0.06775223,0.83329
498.437,54.8232,-3.35634,0.06736608,0.83274
499.137,54.89225,-3.35696,0.0686227,0.83219
499.837,54.9613,-3.35696,0.06925298,0.83163
500.537,55.03035,-3.35727,0.06722193,0.83108
501.237,55.0996,-3.35762,0.06549291,0.83052
501.937,55.1688,-3.35893,0.06621935,0.82996
502.637,55.2377,-3.35893,0.06618875,0.82941
503.337,55.30664,-3.35988,0.06745404,0.82885
504.037,55.37551,-3.36124,0.06799431,0.82829
504.737,55.44475,-3.35987,0.06649769,0.82773
505.437,55.51373,-3.35894,0.06534081,0.82718
506.137,55.58283,-3.35893,0.06741732,0.82662
506.837,55.6518,-3.35952,0.06794191,0.82606
507.537,55.72093,-3.36025,0.06721553,0.8255
508.237,55.79019,-3.36025,0.0677479,0.82494
508.937,55.85941,-3.36159,0.06970592,0.82437
509.637,55.92856,-3.36256,0.07301397,0.82381
510.337,55.9974,-3.36223,0.0726189,0.82325
511.037,56.0664,-3.36352,0.07205253,0.82269
511.737,56.13559,-3.36289,0.07311249,0.82212
512.437,56.2049,-3.364,0.07361952,0.82156
513.137,56.27426,-3.36421,0.07403885,0.821
513.837,56.34338,-3.36421,0.07500473,0.82043
514.537,56.4123,-3.36553,0.07441923,0.81986
515.237,56.4813,-3.36553,0.07605108,0.8193
515.937,56.55059,-3.36685,0.07203613,0.81873
516.637,56.6202,-3.36619,0.07217586,0.81817
517.337,56.68948,-3.36619,0.07237555,0.8176
518.037,56.7586,-3.36619,0.07339183,0.81703
518.737,56.82785,-3.36722,0.06933561,0.81646
519.437,56.89679,-3.3676,0.06739724,0.81589
520.137,56.9661,-3.36816,0.06720356,0.81532
520.837,57.0351,-3.3675,0.06480527,0.81475
521.537,57.1047,-3.3675,0.06289526,0.81418
522.237,57.1741,-3.36855,0.06126164,0.81361
522.937,57.2437,-3.36947,0.05830957,0.81304
523.637,57.3131,-3.37112,0.05635295,0.81247
524.337,57.38222,-3.37022,0.05545776,0.8119
525.037,57.4515,-3.36981,0.053852,0.81132
525.737,57.52085,-3.36981,0.05377887,0.81075
526.437,57.5901,-3.37022,0.05175621,0.81018
527.137,57.65948,-3.37112,0.05172157,0.8096
527.837,57.7288,-3.37112,0.04945484,0.80903
528.537,57.79831,-3.37112,0.05021016,0.80845
529.237,57.86779,-3.37245,0.04758777,0.80788
529.937,57.93725,-3.37147,0.04667976,0.8073
530.637,58.0067,-3.37277,0.04659204,0.80672
531.337,58.0759,-3.37277,0.04739688,0.80615
532.037,58.1454,-3.37275,0.04561668,0.80557
532.737,58.2148,-3.37376,0.04624621,0.80499
533.437,58.28455,-3.37394,0.04425608,0.80441
534.137,58.3541,-3.37409,0.0438559,0.80383
534.837,58.42326,-3.37507,0.04017768,0.80325
535.537,58.49264,-3.37507,0.04330851,0.80267
536.237,58.56205,-3.37507,0.0431426,0.80209
536.937,58.6318,-3.37509,0.04034261,0.80151
537.637,58.7013,-3.37639,0.03913333,0.80093
538.337,58.77072,-3.37639,0.04066277,0.80035
539.037,58.8403,-3.37639,0.03813011,0.79977
539.737,58.9098,-3.37507,0.04023674,0.79918
540.437,58.9795,-3.37506,0.04119553,0.7986
541.137,59.04894,-3.37639,0.03949613,0.79801
541.837,59.1184,-3.3787,0.03699156,0.79743
542.537,59.18765,-3.3787,0.03825208,0.79685
543.237,59.2573,-3.37746,0.03666075,0.79626
543.937,59.32696,-3.37738,0.04027112,0.79567
544.637,59.39659,-3.37803,0.03690844,0.79509
545.337,59.46624,-3.37804,0.03450627,0.7945
546.037,59.5358,-3.37869,0.03524133,0.79391
546.737,59.6053,-3.37869,0.03346982,0.79333
547.437,59.67459,-3.38002,0.03243866,0.79274
548.137,59.7437,-3.37921,0.03203756,0.79215
548.837,59.8133,-3.37871,0.0318075,0.79156
549.537,59.8832,-3.38075,0.03131013,0.79097
550.237,59.9531,-3.38165,0.02958832,0.79038
550.937,60.0227,-3.38199,0.03147369,0.78979
551.637,60.0922,-3.38199,0.02882177,0.7892
552.337,60.16144,-3.38062,0.02721005,0.78861
553.037,60.23085,-3.38067,0.02811049,0.78802
553.737,60.3003,-3.38232,0.02846959,0.78742
554.437,60.37025,-3.38331,0.02616804,0.78683
555.137,60.43988,-3.3843,0.02661156,0.78624
555.837,60.50954,-3.38298,0.02691461,0.78565
556.537,60.579,-3.38298,0.02520154,0.78505
557.237,60.64836,-3.38302,0.02526632,0.78446
557.937,60.71795,-3.38196,0.02465338,0.78386
558.637,60.7875,-3.38414,0.0247645,0.78327
559.337,60.85697,-3.38463,0.02500402,0.78267
560.037,60.92651,-3.38464,0.02384718,0.78207
560.737,60.99618,-3.38373,0.02227419,0.78148
561.437,61.0663,-3.38455,0.02598974,0.78088
562.137,61.1359,-3.38561,0.02386016,0.78028
562.837,61.2056,-3.38693,0.02302284,0.77968
563.537,61.27536,-3.38753,0.02513784,0.77909
564.237,61.3453,-3.38692,0.02406614,0.77849
564.937,61.41528,-3.38693,0.02530261,0.77789
565.637,61.4851,-3.38695,0.02470273,0.77729
566.337,61.555,-3.38759,0.02318083,0.77669
567.037,61.6247,-3.38759,0.02129902,0.77609
567.737,61.6946,-3.38896,0.02135993,0.77549
568.437,61.76465,-3.38759,0.02233174,0.77488
569.137,61.8349,-3.38759,0.02182401,0.77428
569.837,61.90512,-3.38759,0.01815117,0.77368
570.537,61.97514,-3.38829,0.02135485,0.77308
571.237,62.04525,-3.38989,0.02191872,0.77247
571.937,62.11538,-3.38989,0.02203295,0.77187
572.637,62.18535,-3.38994,0.01797499,0.77126
573.337,62.2552,-3.38997,0.02101539,0.77066
574.037,62.3251,-3.38989,0.02324034,0.77006
574.737,62.39507,-3.39122,0.02079485,0.76945
575.437,62.46516,-3.38986,0.02368206,0.76884
576.137,62.53504,-3.3886,0.02278228,0.76824
576.837,62.60495,-3.3909,0.02170456,0.76763
577.537,62.6747,-3.39121,0.02309524,0.76702
578.237,62.7446,-3.39253,0.02246983,0.76642
578.937,62.8145,-3.39252,0.02570827,0.76581
579.637,62.8842,-3.39393,0.02315162,0.7652
580.337,62.954,-3.39253,0.0248674,0.76459
581.037,63.0236,-3.39253,0.02562947,0.76398
581.737,63.09346,-3.39394,0.02631657,0.76337
582.437,63.1631,-3.39384,0.0279583,0.76276
583.137,63.23279,-3.39318,0.02737381,0.76215
583.837,63.3025,-3.39272,0.02656599,0.76154
584.537,63.37222,-3.39352,0.02685848,0.76093
585.237,63.44194,-3.39352,0.02774239,0.76032
585.937,63.51166,-3.39385,0.02635527,0.7597
586.637,63.5815,-3.39399,0.02799149,0.75909
587.337,63.6513,-3.39319,0.0293057,0.75848
588.037,63.7211,-3.39384,0.02873875,0.75787
588.737,63.79079,-3.39385,0.02831157,0.75725
589.437,63.8605,-3.39386,0.02847385,0.75664
590.137,63.9303,-3.39616,0.03027575,0.75602
590.837,64.00026,-3.39479,0.02946631,0.75541
591.537,64.07,-3.39484,0.02921651,0.75479
592.237,64.13975,-3.39484,0.02691133,0.75418
592.937,64.20963,-3.39615,0.02833251,0.75356
593.637,64.27939,-3.39615,0.02860473,0.75294
594.337,64.3494,-3.39615,0.02834605,0.75233
595.037,64.41924,-3.39682,0.03170109,0.75171
595.737,64.48956,-3.39747,0.02990404,0.75109
596.437,64.5596,-3.39747,0.03175546,0.75047
597.137,64.6296,-3.39615,0.03077216,0.74986
597.837,64.6995,-3.39615,0.03053055,0.74924
598.537,64.76945,-3.39747,0.03078695,0.74862
599.237,64.8394,-3.39747,0.03159724,0.748
599.937,64.90929,-3.39747,0.03342659,0.74738
600.637,64.97927,-3.3988,0.03551421,0.74676
601.337,65.0493,-3.39648,0.03373748,0.74614
602.037,65.11944,-3.39648,0.03579246,0.74551
602.737,65.1893,-3.3978,0.03508613,0.74489
603.437,65.25915,-3.3978,0.03434103,0.74427
604.137,65.32924,-3.3978,0.03488592,0.74365
604.837,65.3994,-3.39814,0.03490207,0.74303
605.537,65.46959,-3.39911,0.03652901,0.7424
606.237,65.53954,-3.39911,0.03703768,0.74178
606.937,65.60959,-3.39911,0.03750287,0.74115
607.637,65.67947,-3.39747,0.03660716,0.74053
608.337,65.74938,-3.39782,0.03844227,0.73991
609.037,65.81919,-3.39813,0.03847376,0.73928
609.737,65.88939,-3.39813,0.0374586,0.73865
610.437,65.95958,-3.39813,0.0382538,0.73803
611.137,66.02968,-3.39948,0.03852473,0.7374
611.837,66.09975,-3.39945,0.04046786,0.73678
612.537,66.1699,-3.40015,0.03965042,0.73615
613.237,66.23999,-3.40044,0.04139122,0.73552
613.937,66.31019,-3.4011,0.04504723,0.73489
614.637,66.3802,-3.4011,0.04536694,0.73427
615.337,66.45028,-3.4011,0.04508262,0.73364
616.037,66.5202,-3.40111,0.04722079,0.73301
616.737,66.59022,-3.40109,0.04595891,0.73238
617.437,66.66034,-3.40141,0.04728093,0.73175
618.137,66.73052,-3.40275,0.04832526,0.73112
618.837,66.80066,-3.40175,0.04892928,0.73049
619.537,66.87082,-3.40175,0.05033885,0.72986
620.237,66.94083,-3.40224,0.04875987,0.72923
620.937,67.01103,-3.40306,0.04613882,0.7286
621.637,67.08126,-3.40175,0.04677408,0.72797
622.337,67.1515,-3.40175,0.04868262,0.72733
623.037,67.2217,-3.40175,0.04787717,0.7267
623.737,67.29191,-3.40048,0.04872209,0.72607
624.437,67.36193,-3.40142,0.05028565,0.72544
625.137,67.432,-3.40306,0.04903898,0.7248
625.837,67.50203,-3.40307,0.04832587,0.72417
626.537,67.57231,-3.40406,0.05018261,0.72353
627.237,67.6424,-3.40277,0.04856805,0.7229
627.937,67.7127,-3.40305,0.04856341,0.72227
628.637,67.78275,-3.40306,0.04958108,0.72163
629.337,67.8528,-3.40405,0.04845454,0.72099
630.037,67.92269,-3.40405,0.04831592,0.72036
630.737,67.99276,-3.40405,0.04824447,0.71972
631.437,68.0629,-3.40417,0.04564076,0.71909
632.137,68.13294,-3.40486,0.04824501,0.71845
632.837,68.20302,-3.40505,0.04932868,0.71781
633.537,68.273,-3.40537,0.04652267,0.71717
634.237,68.34319,-3.40439,0.04780984,0.71654
634.937,68.41336,-3.40463,0.04672227,0.7159
635.637,68.48345,-3.40538,0.04827227,0.71526
636.337,68.55357,-3.40538,0.04831739,0.71462
637.037,68.6237,-3.40536,0.05229355,0.71398
637.737,68.69375,-3.40472,0.05072229,0.71334
638.437,68.76394,-3.40472,0.05209379,0.7127
639.137,68.83386,-3.40703,0.05059116,0.71206
639.837,68.90397,-3.40702,0.05156299,0.71142
640.537,68.974,-3.40702,0.05209189,0.71078
641.237,69.04424,-3.40707,0.0535565,0.71014
641.937,69.11446,-3.40735,0.05387515,0.7095
642.637,69.18465,-3.40735,0.05329689,0.70886
643.337,69.25479,-3.40735,0.0529042,0.70822
644.037,69.32491,-3.40735,0.05270575,0.70757
644.737,69.39494,-3.40735,0.05372479,0.70693
645.437,69.46526,-3.4066,0.05315592,0.70629
646.137,69.53566,-3.40799,0.05190917,0.70565
646.837,69.60614,-3.40802,0.05433271,0.705
647.537,69.67645,-3.40669,0.05351611,0.70436
648.237,69.7467,-3.40669,0.05260015,0.70371
648.937,69.8169,-3.40669,0.05371211,0.70307
649.637,69.88701,-3.40669,0.05032675,0.70242
650.337,69.95739,-3.40669,0.05384274,0.70178
651.037,70.0279,-3.40697,0.05413675,0.70113
651.737,70.09777,-3.40792,0.05227328,0.70049
652.437,70.16797,-3.40834,0.04998629,0.69984
653.137,70.238,-3.40834,0.05214481,0.6992
653.837,70.3087,-3.40834,0.05319349,0.69855
654.537,70.37884,-3.40834,0.053149,0.6979
655.237,70.449,-3.40691,0.05236523,0.69726
655.937,70.5191,-3.4091,0.05324667,0.69661
656.637,70.58935,-3.40998,0.05797526,0.69596
657.337,70.65981,-3.40998,0.05548261,0.69531
658.037,70.73006,-3.40998,0.05557276,0.69466
658.737,70.8003,-3.40933,0.05768027,0.69401
659.437,70.8704,-3.40932,0.05885,0.69337
660.137,70.9406,-3.40932,0.05854469,0.69272
660.837,71.0106,-3.40932,0.05767561,0.69207
661.537,71.0808,-3.40932,0.05842027,0.69142
662.237,71.15109,-3.41065,0.05880357,0.69077
662.937,71.22146,-3.41148,0.05680376,0.69012
663.637,71.2916,-3.41065,0.05648802,0.68947
664.337,71.36191,-3.40964,0.05107633,0.68882
665.037,71.43222,-3.41097,0.05150898,0.68816
665.737,71.50269,-3.40967,0.04907516,0.68751
666.437,71.57311,-3.41032,0.04959478,0.68686
667.137,71.64349,-3.41032,0.0465375,0.68621
667.837,71.7141,-3.41032,0.04788224,0.68556
668.537,71.78457,-3.41086,0.05055126,0.6849
669.237,71.8552,-3.41099,0.04844226,0.68425
669.937,71.9256,-3.41104,0.04882224,0.6836
670.637,71.99603,-3.41229,0.04825359,0.68295
671.337,72.0663,-3.41229,0.0487621,0.68229
672.037,72.13688,-3.41097,0.05031368,0.68164
672.737,72.20742,-3.41097,0.04834156,0.68098
673.437,72.2782,-3.41097,0.04716995,0.68033
674.137,72.3485,-3.41097,0.05064984,0.67967
674.837,72.41866,-3.41229,0.04838853,0.67902
675.537,72.4889,-3.41228,0.0498273,0.67836
676.237,72.55921,-3.41328,0.05019319,0.67771
676.937,72.62951,-3.41262,0.05275061,0.67705
677.637,72.69973,-3.41163,0.05095348,0.6764
678.337,72.7701,-3.41162,0.05117702,0.67574
679.037,72.84066,-3.41295,0.04869061,0.67509
679.737,72.91108,-3.41295,0.05022022,0.67443
680.437,72.98119,-3.41295,0.0498495,0.67377
681.137,73.05144,-3.41291,0.0506133,0.67311
681.837,73.12177,-3.41431,0.05197886,0.67246
682.537,73.19241,-3.41361,0.05577701,0.6718
683.237,73.26284,-3.41361,0.05153284,0.67114
683.937,73.33322,-3.41381,0.0491992,0.67048
684.637,73.40365,-3.41492,0.0520288,0.66983
685.337,73.47417,-3.41366,0.05056001,0.66917
686.037,73.54478,-3.4136,0.04855752,0.66851
686.737,73.6153,-3.4136,0.04972086,0.66785
687.437,73.68581,-3.4136,0.04713925,0.66719
688.137,73.7561,-3.41295,0.04774788,0.66653
688.837,73.82633,-3.41427,0.04423168,0.66587
689.537,73.89654,-3.41138,0.0440089,0.66521
690.237,73.96688,-3.41324,0.04359937,0.66455
690.937,74.03737,-3.41407,0.04424554,0.66389
691.637,74.10786,-3.41395,0.04367692,0.66323
692.337,74.1785,-3.41458,0.04149434,0.66257
693.037,74.24893,-3.41559,0.04209389,0.66191
693.737,74.3193,-3.41427,0.04097522,0.66125
694.437,74.38968,-3.4146,0.0424857,0.66058
695.137,74.4601,-3.41591,0.04128002,0.65992
695.837,74.53059,-3.41456,0.04383478,0.65926
696.537,74.60083,-3.41559,0.04642494,0.6586
697.237,74.67102,-3.4169,0.04177187,0.65794
697.937,74.74126,-3.41559,0.04120931,0.65727
698.637,74.81145,-3.41559,0.04050292,0.65661
699.337,74.88184,-3.41559,0.04284244,0.65595
700.037,74.95219,-3.41427,0.04167074,0.65528
700.737,75.02242,-3.41424,0.04127002,0.65462
701.437,75.09259,-3.41295,0.04419706,0.65396
702.137,75.16277,-3.41297,0.04285719,0.65329
702.837,75.23335,-3.41429,0.04327987,0.65263
703.537,75.3039,-3.41492,0.04247713,0.65196
704.237,75.37455,-3.41492,0.0427155,0.6513
704.937,75.4451,-3.41361,0.03746896,0.65064
705.637,75.51558,-3.41361,0.03749292,0.64997
706.337,75.58601,-3.4136,0.03809776,0.64931
707.037,75.65643,-3.4163,0.03645769,0.64864
707.737,75.7269,-3.4169,0.03791729,0.64797
708.437,75.7974,-3.4167,0.0369654,0.64731
709.137,75.8677,-3.41558,0.0347587,0.64664
709.837,75.93774,-3.41558,0.03801373,0.64598
710.537,76.00815,-3.41492,0.04205745,0.64531
711.237,76.07863,-3.41492,0.03520213,0.64464
711.937,76.14939,-3.41657,0.03582226,0.64398
712.637,76.21993,-3.41657,0.03293374,0.64331
713.337,76.29051,-3.41702,0.03689058,0.64264
714.037,76.36107,-3.41789,0.0366032,0.64198
714.737,76.43146,-3.41788,0.03677581,0.64131
715.437,76.50192,-3.41658,0.03718194,0.64064
716.137,76.5723,-3.41658,0.03784529,0.63997
716.837,76.64295,-3.41658,0.03844375,0.63931
717.537,76.71325,-3.41559,0.03667234,0.63864
718.237,76.78387,-3.41559,0.04041505,0.63797
718.937,76.8545,-3.41559,0.03683889,0.6373
719.637,76.9256,-3.41558,0.03663513,0.63663
720.337,76.99642,-3.41645,0.03826797,0.63596
721.037,77.0671,-3.41657,0.0342744,0.6353
721.737,77.13789,-3.41656,0.03005127,0.63463
722.437,77.20871,-3.41405,0.03084497,0.63396
723.137,77.27948,-3.41549,0.03460767,0.63329
723.837,77.35024,-3.41678,0.03558703,0.63262
724.537,77.42096,-3.41811,0.03384016,0.63195
725.237,77.49171,-3.4167,0.03441101,0.63128
725.937,77.56231,-3.41811,0.03376976,0.63061
726.637,77.63301,-3.41811,0.03451423,0.62994
727.337,77.7038,-3.41811,0.03395439,0.62927
728.037,77.77462,-3.41811,0.03113675,0.6286
728.737,77.84546,-3.41811,0.03258818,0.62793
729.437,77.9162,-3.41942,0.03455918,0.62726
730.137,77.98689,-3.41948,0.03429982,0.62659
730.837,78.0574,-3.41811,0.03601048,0.62591
731.537,78.12819,-3.41811,0.03867669,0.62524
732.237,78.19877,-3.41943,0.04034426,0.62457
732.937,78.26951,-3.41943,0.03972844,0.6239
733.637,78.34018,-3.41845,0.04038286,0.62323
734.337,78.41102,-3.41807,0.04062211,0.62256
735.037,78.48137,-3.41842,0.03873143,0.62188
735.737,78.55216,-3.41876,0.03965018,0.62121
736.437,78.62292,-3.41876,0.0409799,0.62054
737.137,78.69434,-3.42006,0.04207551,0.61987
737.837,78.76512,-3.42008,0.03968821,0.6192
738.537,78.83599,-3.42008,0.0385611,0.61852
739.237,78.9066,-3.42008,0.03885972,0.61785
739.937,78.9773,-3.42008,0.0353283,0.61718
740.637,79.04795,-3.42075,0.03653182,0.6165
741.337,79.1186,-3.42075,0.03768779,0.61583
742.037,79.18911,-3.42075,0.03405125,0.61516
742.737,79.25959,-3.42075,0.03378506,0.61449
743.437,79.33006,-3.42075,0.0346216,0.61381
744.137,79.40066,-3.42201,0.03533213,0.61314
744.837,79.47129,-3.42076,0.03464063,0.61246
745.537,79.5418,-3.42042,0.03349603,0.61179
746.237,79.61232,-3.4204,0.03455204,0.61112
746.937,79.68296,-3.42271,0.03478604,0.61044
747.637,79.7534,-3.42272,0.03429083,0.60977
748.337,79.82388,-3.42149,0.03395583,0.60909
749.037,79.89449,-3.42009,0.03152104,0.60842
749.737,79.96562,-3.4214,0.03223146,0.60775
750.037,79.99654,-3.4214,0.03442931,0.60746