File: 01_Data/PlasticC/STA/N2/10K_min/PlasticC_STA_N2_10KData_211026_R3.csv
##Temp./Â°C,Time/min,Mass loss(subtr.2)/mg,DSC(subtr.2)/(mW/mg),Sensit./(uV/mW)
49.991,10.00833,-0.0091,-0.003114747,1.03583
50.591,11.464,-0.01275882,0.009297722,1.03581
51.191,11.82393,-0.01155859,0.01980417,1.03577
51.791,12.0859,-0.01993355,0.02419672,1.03574
52.391,12.30362,-0.01402772,0.03149094,1.03571
52.991,12.49194,-0.007133797,0.03487698,1.03567
53.591,12.6641,-0.004739006,0.04023677,1.03564
54.191,12.82268,-0.01750687,0.04387853,1.0356
54.791,12.97229,-0.01771057,0.04444698,1.03556
55.391,13.113,-0.0119349,0.04752746,1.03552
55.991,13.2463,-0.0105595,0.04919342,1.03547
56.591,13.3754,-0.01776669,0.05100194,1.03543
57.191,13.50079,-0.0169379,0.05473753,1.03538
57.791,13.6218,-0.02370202,0.05340313,1.03533
58.391,13.7385,-0.009331825,0.05587665,1.03528
58.991,13.8527,-0.02406225,0.0570982,1.03523
59.591,13.9639,-0.01693007,0.06087717,1.03518
60.191,14.07252,-0.01804896,0.06361053,1.03513
60.791,14.17811,-0.009795971,0.06506887,1.03507
61.391,14.28145,-0.00597026,0.06658962,1.03501
61.991,14.38291,-0.02547305,0.06716969,1.03495
62.591,14.48228,-0.01450455,0.0693911,1.03489
63.191,14.58097,-0.00369983,0.07336706,1.03483
63.791,14.6784,-0.02599664,0.07373591,1.03477
64.391,14.7728,-0.01725881,0.07465021,1.0347
64.991,14.86595,-0.01795867,0.07828904,1.03464
65.591,14.95759,-0.02653329,0.08168442,1.03457
66.191,15.0481,-0.02446654,0.08359234,1.0345
66.791,15.1378,-0.006555271,0.08497082,1.03443
67.391,15.22606,0.001906011,0.08764738,1.03436
67.991,15.31383,-0.003918567,0.08897246,1.03428
68.591,15.4002,-0.02818956,0.08954151,1.03421
69.191,15.4853,-0.01904809,0.08924139,1.03413
69.791,15.56905,-9.21357e-05,0.0931487,1.03405
70.391,15.6525,-0.02738505,0.09421052,1.03397
70.991,15.7348,-0.02166928,0.09424071,1.03389
71.591,15.8162,-0.003961295,0.09663782,1.03381
72.191,15.8968,-0.01356188,0.09646956,1.03372
72.791,15.97691,0.0007971163,0.10113,1.03364
73.391,16.05584,-0.009475876,0.10112,1.03355
73.991,16.134,-0.02721685,0.10132,1.03346
74.591,16.21153,-0.03074312,0.10347,1.03337
75.191,16.2886,-0.01353728,0.10652,1.03328
75.791,16.36528,-0.006802285,0.10955,1.03318
76.391,16.4417,-0.0236671,0.10919,1.03309
76.991,16.51725,-0.01780163,0.11148,1.03299
77.591,16.5921,0.003765885,0.11519,1.03289
78.191,16.66655,-0.01159849,0.11155,1.03279
78.791,16.74025,-0.01821092,0.11589,1.03269
79.391,16.81345,-0.01442062,0.11565,1.03259
79.991,16.8861,-0.01446645,0.11337,1.03249
80.591,16.95841,-0.01995871,0.11343,1.03238
81.191,17.03005,-0.01601541,0.11445,1.03227
81.791,17.10158,-0.009254677,0.11168,1.03217
82.391,17.1724,-0.01719841,0.10874,1.03206
82.991,17.24286,-0.01578173,0.10785,1.03195
83.591,17.31261,-0.01490376,0.10829,1.03183
84.191,17.38266,-0.02215849,0.10592,1.03172
84.791,17.4524,-0.02375546,0.1065,1.0316
85.391,17.52146,-0.02197764,0.10684,1.03149
85.991,17.58974,-0.006989266,0.10776,1.03137
86.591,17.65758,-0.001443015,0.11066,1.03125
87.191,17.72522,-0.00283016,0.10977,1.03113
87.791,17.79261,-0.02308674,0.11259,1.031
88.391,17.8597,-0.005900744,0.11537,1.03088
88.991,17.92663,-0.009364026,0.11651,1.03075
89.591,17.99321,-0.02988089,0.11639,1.03063
90.191,18.05937,-0.01125409,0.11425,1.0305
90.791,18.1253,0.0008404581,0.11849,1.03037
91.391,18.19097,-0.01257258,0.12192,1.03024
91.991,18.25636,-0.004254132,0.12503,1.0301
92.591,18.32132,-0.00652114,0.12786,1.02997
93.191,18.38585,-0.01033352,0.12733,1.02983
93.791,18.45046,-0.01441896,0.12816,1.0297
94.391,18.5151,-0.01683192,0.13241,1.02956
94.991,18.5796,-0.000738993,0.13738,1.02942
95.591,18.64374,-0.03522048,0.13436,1.02928
96.191,18.70766,-0.03585963,0.13425,1.02913
96.791,18.77125,-0.02286372,0.14009,1.02899
97.391,18.83429,0.0018262,0.14527,1.02884
97.991,18.89715,-0.01012239,0.1473,1.0287
98.591,18.96001,-0.03034134,0.15069,1.02855
99.191,19.0227,-0.02574455,0.15411,1.0284
99.791,19.08517,-0.01190158,0.15991,1.02825
100.391,19.14733,0.009670489,0.16553,1.02809
100.991,19.20949,-0.0132937,0.16781,1.02794
101.591,19.27159,5.526685e-05,0.17094,1.02779
102.191,19.3335,-0.0158253,0.17366,1.02763
102.791,19.39535,-0.01594457,0.1745,1.02747
103.391,19.45701,-0.01122926,0.1756,1.02731
103.991,19.518,-0.01786101,0.17879,1.02715
104.591,19.57921,-0.0321032,0.17597,1.02699
105.191,19.64038,-0.00668277,0.17682,1.02682
105.791,19.70191,-0.02107269,0.1793,1.02666
106.391,19.76325,-0.01846164,0.17969,1.02649
106.991,19.82413,-0.01075088,0.18171,1.02632
107.591,19.88499,-0.008495419,0.183,1.02616
108.191,19.94564,-0.0095498,0.18397,1.02599
108.791,20.00614,-0.01358543,0.18532,1.02581
109.391,20.0665,-0.005860992,0.18719,1.02564
109.991,20.1268,-0.01514122,0.18676,1.02547
110.591,20.1871,-0.01728414,0.18708,1.02529
111.191,20.2474,-0.01237142,0.18723,1.02511
111.791,20.3076,-0.01674323,0.18833,1.02493
112.391,20.36761,-0.0193191,0.18613,1.02475
112.991,20.42738,-0.02630593,0.18799,1.02457
113.591,20.487,-0.004274366,0.18964,1.02439
114.191,20.54636,-0.007070879,0.18893,1.0242
114.791,20.60569,-0.02312226,0.18941,1.02402
115.391,20.66483,-0.01412004,0.18906,1.02383
115.991,20.72433,-0.01807834,0.19054,1.02364
116.591,20.78346,-0.01497286,0.18934,1.02346
117.191,20.8427,-0.01976633,0.19076,1.02326
117.791,20.9016,-0.01143531,0.19014,1.02307
118.391,20.9605,-0.01096327,0.193,1.02288
118.991,21.01944,-0.01096643,0.19443,1.02268
119.591,21.07836,-0.01305298,0.19452,1.02249
120.191,21.13711,-0.01622913,0.19266,1.02229
120.791,21.19539,-0.01479862,0.19413,1.02209
121.391,21.25355,-0.01176001,0.19403,1.02189
121.991,21.31188,-0.0100114,0.19711,1.02169
122.591,21.36993,-0.01150415,0.19721,1.02149
123.191,21.428,-0.01210309,0.19734,1.02128
123.791,21.4861,-0.0115941,0.19778,1.02108
124.391,21.5437,-0.02117457,0.19619,1.02087
124.991,21.6011,-0.01654453,0.20016,1.02067
125.591,21.65839,-0.01108972,0.20068,1.02046
126.191,21.71588,-0.0284604,0.20056,1.02025
126.791,21.77393,-0.02007461,0.19936,1.02003
127.391,21.83174,-0.02178129,0.19952,1.01982
127.991,21.88935,-0.02126452,0.20135,1.01961
128.591,21.94685,-0.01627554,0.20322,1.01939
129.191,22.00385,-0.01910092,0.20256,1.01917
129.791,22.06099,-0.01796781,0.20346,1.01896
130.391,22.1181,-0.01517636,0.20383,1.01874
130.991,22.175,-0.01359795,0.20539,1.01852
131.591,22.23188,-0.01086451,0.20869,1.01829
132.191,22.28849,-0.005156282,0.20855,1.01807
132.791,22.34508,-0.00553639,0.2097,1.01785
133.391,22.40168,-0.01427478,0.21071,1.01762
133.991,22.45813,-0.02720242,0.21099,1.01739
134.591,22.51464,-0.01996331,0.20989,1.01717
135.191,22.57094,-0.01300414,0.20957,1.01694
135.791,22.62728,-0.01232808,0.21299,1.01671
136.391,22.6833,-0.009604639,0.21421,1.01647
136.991,22.73935,-0.003461268,0.21363,1.01624
137.591,22.79542,-0.0017685,0.21625,1.01601
138.191,22.8512,-0.007101778,0.21598,1.01577
138.791,22.90716,-0.009002375,0.21839,1.01553
139.391,22.9631,-0.007129505,0.21924,1.0153
139.991,23.0187,-0.00415981,0.22013,1.01506
140.591,23.07456,-0.00748987,0.22015,1.01482
141.191,23.13015,-0.01733593,0.22094,1.01457
141.791,23.18589,-0.01445485,0.21978,1.01433
142.391,23.24135,-0.01650155,0.21853,1.01409
142.991,23.29678,-0.01902804,0.22092,1.01384
143.591,23.35224,-0.0221177,0.2203,1.01359
144.191,23.40756,-0.02115034,0.22028,1.01335
144.791,23.4631,-0.01913097,0.22197,1.0131
145.391,23.51847,-0.01578803,0.22187,1.01285
145.991,23.57359,-0.0207603,0.22065,1.0126
146.591,23.62891,-0.03090815,0.2192,1.01234
147.191,23.68417,-0.02579379,0.2229,1.01209
147.791,23.73909,-0.02438169,0.22418,1.01183
148.391,23.7941,-0.006216027,0.2243,1.01158
148.991,23.84921,0.00139314,0.2268,1.01132
149.591,23.9042,-0.00538169,0.22806,1.01106
150.191,23.95961,-0.01335005,0.22746,1.0108
150.791,24.0147,-0.01500671,0.22857,1.01054
151.391,24.0696,-0.01959652,0.23114,1.01028
151.991,24.12441,-0.01270069,0.23065,1.01001
152.591,24.17916,-0.01325919,0.23073,1.00975
153.191,24.234,-0.01583317,0.2302,1.00948
153.791,24.28891,-0.01760571,0.2301,1.00922
154.391,24.34381,-0.02241154,0.23095,1.00895
154.991,24.39862,-0.02409777,0.23199,1.00868
155.591,24.45318,-0.03990329,0.23194,1.00841
156.191,24.50776,-0.02593179,0.23252,1.00814
156.791,24.56237,-0.00797286,0.23184,1.00786
157.391,24.61696,-0.00380278,0.23494,1.00759
157.991,24.67158,-0.00684674,0.23569,1.00731
158.591,24.72608,-0.008058522,0.23525,1.00704
159.191,24.78069,-0.0252374,0.23636,1.00676
159.791,24.83537,-0.02366033,0.2369,1.00648
160.391,24.89016,-0.01469942,0.23653,1.0062
160.991,24.94502,-0.01882278,0.23849,1.00592
161.591,24.99984,0.001799655,0.23806,1.00564
162.191,25.05438,-0.004915396,0.24011,1.00536
162.791,25.10894,-0.0096185,0.24149,1.00507
163.391,25.16336,-0.001133991,0.24027,1.00479
163.991,25.21763,-0.01206522,0.24096,1.0045
164.591,25.2716,-0.02721377,0.24329,1.00421
165.191,25.3258,-0.02961109,0.24153,1.00392
165.791,25.38009,-0.03093453,0.2423,1.00363
166.391,25.43461,-0.01708652,0.24248,1.00334
166.991,25.48955,-0.008975169,0.24408,1.00305
167.591,25.54424,-0.01424928,0.24602,1.00276
168.191,25.59891,-0.01293807,0.24537,1.00246
168.791,25.6534,-0.008261411,0.24583,1.00217
169.391,25.70785,-0.01206258,0.2476,1.00187
169.991,25.7622,-0.01853271,0.24395,1.00157
170.591,25.8164,-0.01390702,0.24543,1.00127
171.191,25.8707,-0.01806287,0.24941,1.00098
171.791,25.92505,-0.02082664,0.24839,1.00067
172.391,25.9792,-0.02795602,0.2489,1.00037
172.991,26.03346,-0.02398383,0.2505,1.00007
173.591,26.08768,-0.005670044,0.25021,0.99976
174.191,26.14165,-0.002625836,0.24943,0.99946
174.791,26.19596,-0.004454245,0.24814,0.99915
175.391,26.25007,-0.00765479,0.25111,0.99885
175.991,26.30418,-0.0173408,0.25196,0.99854
176.591,26.35835,-0.02182017,0.25096,0.99823
177.191,26.4126,-0.0228259,0.25324,0.99792
177.791,26.4668,-0.02362408,0.25307,0.99761
178.391,26.5207,-0.0308035,0.25388,0.99729
178.991,26.57447,-0.01878249,0.2554,0.99698
179.591,26.62837,-0.01306396,0.25402,0.99666
180.191,26.6823,-0.01667929,0.25364,0.99635
180.791,26.7361,-0.01274658,0.25643,0.99603
181.391,26.7902,-0.01074995,0.25545,0.99571
181.991,26.84395,-0.01356152,0.25663,0.99539
182.591,26.8978,-0.01480812,0.25819,0.99507
183.191,26.9517,-0.01598085,0.26006,0.99475
183.791,27.0054,-0.01476106,0.26253,0.99443
184.391,27.0591,-0.01988114,0.26098,0.99411
184.991,27.1128,-0.02242133,0.26196,0.99378
185.591,27.16648,-0.02162187,0.26141,0.99346
186.191,27.22022,-0.007256347,0.2638,0.99313
186.791,27.27395,-0.01149656,0.2653,0.9928
187.391,27.32763,-0.03150603,0.26485,0.99248
187.991,27.3813,-0.02311404,0.26673,0.99215
188.591,27.4349,-0.01707627,0.26604,0.99182
189.191,27.48845,-0.02642886,0.26437,0.99148
189.791,27.542,-0.0222706,0.26721,0.99115
190.391,27.5955,-0.01855599,0.26762,0.99082
190.991,27.649,-0.02053484,0.26907,0.99048
191.591,27.70249,-0.01463276,0.26975,0.99015
192.191,27.756,-0.01266717,0.26829,0.98981
192.791,27.80957,-0.02586759,0.26948,0.98948
193.391,27.8632,-0.01664109,0.27147,0.98914
193.991,27.9168,-0.01225976,0.27289,0.9888
194.591,27.97033,-0.01328772,0.27165,0.98846
195.191,28.02372,-0.009173447,0.27083,0.98812
195.791,28.077,-0.01204708,0.26907,0.98777
196.391,28.1302,-0.02839529,0.27252,0.98743
196.991,28.1835,-0.02253954,0.2741,0.98709
197.591,28.23715,-0.00542298,0.27321,0.98674
198.191,28.2907,-0.004889277,0.27329,0.98639
198.791,28.34435,-0.02133332,0.27612,0.98605
199.391,28.3979,-0.02434824,0.27337,0.9857
199.991,28.4513,-0.0124295,0.27622,0.98535
200.591,28.50471,-0.01354957,0.27629,0.985
201.191,28.55807,-0.02371969,0.27795,0.98465
201.791,28.61122,-0.03240007,0.27833,0.9843
202.391,28.66426,-0.01365634,0.27978,0.98394
202.991,28.71725,-0.008612269,0.27993,0.98359
203.591,28.7702,-0.01972398,0.28242,0.98324
204.191,28.82327,-0.03217814,0.28194,0.98288
204.791,28.8767,-0.02417684,0.28157,0.98252
205.391,28.9303,-0.0145059,0.28261,0.98217
205.991,28.98423,-0.0112569,0.28143,0.98181
206.591,29.0384,-0.006113252,0.27978,0.98145
207.191,29.0922,-0.01140071,0.28131,0.98109
207.791,29.146,-0.02098829,0.28209,0.98073
208.391,29.1996,-0.01541059,0.28387,0.98036
208.991,29.253,-0.01995446,0.28549,0.98
209.591,29.3064,-0.0164571,0.28548,0.97964
210.191,29.35967,-0.01725191,0.28712,0.97927
210.791,29.413,-0.02968056,0.28793,0.97891
211.391,29.4664,-0.03365411,0.29035,0.97854
211.991,29.52001,-0.03425986,0.28987,0.97817
212.591,29.5734,-0.02862886,0.291,0.9778
213.191,29.62673,-0.01912751,0.28929,0.97743
213.791,29.6802,-0.02015676,0.28936,0.97706
214.391,29.73375,-0.01853508,0.29072,0.97669
214.991,29.78727,-0.02095489,0.29221,0.97632
215.591,29.84092,-0.02537476,0.29433,0.97595
216.191,29.8944,-0.02318665,0.29276,0.97557
216.791,29.94802,-0.01687973,0.29151,0.9752
217.391,30.00153,-0.02703509,0.29224,0.97482
217.991,30.05507,-0.0286239,0.29512,0.97444
218.591,30.1086,-0.0227475,0.29356,0.97407
219.191,30.16205,-0.00920648,0.29064,0.97369
219.791,30.2157,-0.01096911,0.29086,0.97331
220.391,30.26916,-0.02859069,0.29564,0.97293
220.991,30.3226,-0.02900555,0.29595,0.97255
221.591,30.37613,-0.03167201,0.29464,0.97217
222.191,30.42977,-0.02967427,0.29797,0.97178
222.791,30.48344,-0.02384434,0.29599,0.9714
223.391,30.53717,-0.0290826,0.29678,0.97102
223.991,30.59105,-0.01937365,0.29478,0.97063
224.591,30.6445,-0.003176886,0.29253,0.97024
225.191,30.69802,-0.01258641,0.29462,0.96986
225.791,30.7512,-0.01471392,0.29204,0.96947
226.391,30.80435,-0.0085126,0.29503,0.96908
226.991,30.85792,-0.03192209,0.29605,0.96869
227.591,30.9112,-0.02644865,0.29874,0.9683
228.191,30.9649,-0.02032436,0.29777,0.96791
228.791,31.01887,-0.0231576,0.30135,0.96752
229.391,31.07283,-0.02448976,0.30071,0.96713
229.991,31.1268,-0.02827726,0.30257,0.96673
230.591,31.1808,-0.03407058,0.30277,0.96634
231.191,31.2344,-0.03814062,0.30619,0.96594
231.791,31.28797,-0.0362934,0.30504,0.96555
232.391,31.3417,-0.01302892,0.30277,0.96515
232.991,31.39537,-0.00561223,0.29992,0.96475
233.591,31.44909,-0.02483478,0.3006,0.96435
234.191,31.50287,-0.03344098,0.30335,0.96396
234.791,31.5565,-0.02895607,0.30361,0.96356
235.391,31.61,-0.01958877,0.30469,0.96315
235.991,31.66372,-0.02465657,0.30347,0.96275
236.591,31.71725,-0.03212791,0.30887,0.96235
237.191,31.77099,-0.03101585,0.30659,0.96195
237.791,31.8248,-0.02309894,0.3057,0.96154
238.391,31.8784,-0.02841611,0.30705,0.96114
238.991,31.9321,-0.02886957,0.30748,0.96073
239.591,31.98568,-0.02363083,0.30475,0.96033
240.191,32.03937,-0.02338982,0.30748,0.95992
240.791,32.09304,-0.03105302,0.30529,0.95951
241.391,32.14674,-0.02924229,0.30972,0.9591
241.991,32.20063,-0.03358192,0.31031,0.9587
242.591,32.25434,-0.03745354,0.31134,0.95829
243.191,32.30818,-0.03193298,0.31285,0.95787
243.791,32.362,-0.02546216,0.31141,0.95746
244.391,32.41564,-0.02134168,0.31028,0.95705
244.991,32.4694,-0.0249375,0.30984,0.95664
245.591,32.52317,-0.03493313,0.31046,0.95622
246.191,32.577,-0.03057443,0.31116,0.95581
246.791,32.6307,-0.03172959,0.31365,0.95539
247.391,32.68445,-0.03647062,0.31498,0.95498
247.991,32.73796,-0.04441783,0.3187,0.95456
248.591,32.79155,-0.03855112,0.31676,0.95414
249.191,32.84532,-0.03541559,0.31767,0.95373
249.791,32.89914,-0.03589027,0.31696,0.95331
250.391,32.95327,-0.03484917,0.31446,0.95289
250.991,33.00728,-0.02549852,0.3121,0.95247
251.591,33.0612,-0.02754099,0.31426,0.95205
252.191,33.1152,-0.03031479,0.31459,0.95162
252.791,33.1689,-0.02614544,0.31533,0.9512
253.391,33.22268,-0.02645675,0.3155,0.95078
253.991,33.2766,-0.03799339,0.31473,0.95035
254.591,33.3303,-0.03790568,0.31743,0.94993
255.191,33.38407,-0.03421134,0.31663,0.94951
255.791,33.43783,-0.03760468,0.31849,0.94908
256.391,33.49152,-0.04769338,0.32075,0.94865
256.991,33.54508,-0.04607726,0.32195,0.94822
257.591,33.59885,-0.04286606,0.32646,0.9478
258.191,33.65271,-0.04838005,0.32518,0.94737
258.791,33.70667,-0.02651668,0.32124,0.94694
259.391,33.76075,-0.02412468,0.31542,0.94651
259.991,33.8147,-0.03249354,0.31903,0.94608
260.591,33.86828,-0.03532857,0.31931,0.94565
261.191,33.92199,-0.03036238,0.31807,0.94521
261.791,33.97586,-0.03469807,0.31805,0.94478
262.391,34.02962,-0.0359781,0.32018,0.94435
262.991,34.08374,-0.04180523,0.32276,0.94391
263.591,34.1377,-0.04366074,0.32522,0.94348
264.191,34.19154,-0.04579099,0.3254,0.94304
264.791,34.2454,-0.04531603,0.32644,0.94261
265.391,34.29934,-0.04530003,0.3304,0.94217
265.991,34.3532,-0.0452105,0.3283,0.94173
266.591,34.40717,-0.0464032,0.32602,0.9413
267.191,34.46098,-0.04541535,0.32517,0.94086
267.791,34.51482,-0.03661938,0.32128,0.94042
268.391,34.56876,-0.02928026,0.3217,0.93998
268.991,34.6226,-0.03351928,0.31969,0.93954
269.591,34.6767,-0.0418882,0.32554,0.9391
270.191,34.73064,-0.05559612,0.32807,0.93866
270.791,34.78448,-0.05402755,0.32747,0.93821
271.391,34.8384,-0.04396185,0.32603,0.93777
271.991,34.89242,-0.04285048,0.32459,0.93733
272.591,34.94642,-0.04612759,0.32654,0.93688
273.191,35.00047,-0.04539356,0.32582,0.93644
273.791,35.05453,-0.0490737,0.32542,0.93599
274.391,35.10853,-0.04594273,0.32534,0.93555
274.991,35.16279,-0.04092911,0.32278,0.9351
275.591,35.2168,-0.04204935,0.32173,0.93465
276.191,35.2708,-0.04479601,0.32507,0.9342
276.791,35.3247,-0.04962644,0.32323,0.93376
277.391,35.37847,-0.04465095,0.32577,0.93331
277.991,35.4324,-0.05441019,0.32552,0.93286
278.591,35.48649,-0.05263022,0.32649,0.93241
279.191,35.5406,-0.05342616,0.32758,0.93196
279.791,35.59483,-0.05718303,0.32762,0.9315
280.391,35.64908,-0.05552629,0.32736,0.93105
280.991,35.70327,-0.06088059,0.32793,0.9306
281.591,35.7575,-0.05568973,0.32414,0.93015
282.191,35.8119,-0.04906602,0.32026,0.92969
282.791,35.86626,-0.0425979,0.31925,0.92924
283.391,35.92067,-0.04256044,0.31758,0.92878
283.991,35.97495,-0.0472375,0.31968,0.92833
284.591,36.02903,-0.05218506,0.31925,0.92787
285.191,36.08297,-0.05370842,0.32337,0.92742
285.791,36.13677,-0.06385204,0.32427,0.92696
286.391,36.1907,-0.07232887,0.32831,0.9265
286.991,36.24493,-0.06730539,0.32904,0.92604
287.591,36.29913,-0.05249581,0.32244,0.92558
288.191,36.35355,-0.05025688,0.31892,0.92513
288.791,36.4079,-0.06047671,0.31934,0.92467
289.391,36.46218,-0.06437735,0.32363,0.92421
289.991,36.5163,-0.05860574,0.31913,0.92374
290.591,36.57056,-0.05385832,0.31854,0.92328
291.191,36.6248,-0.0560958,0.32097,0.92282
291.791,36.67926,-0.06389246,0.32175,0.92236
292.391,36.73395,-0.06314264,0.31989,0.9219
292.991,36.78849,-0.05393104,0.31654,0.92143
293.591,36.8431,-0.04895911,0.31331,0.92097
294.191,36.89727,-0.06448735,0.31808,0.9205
294.791,36.9512,-0.07293672,0.32074,0.92004
295.391,37.00549,-0.06897715,0.32297,0.91957
295.991,37.05981,-0.06886267,0.32109,0.91911
296.591,37.11436,-0.07095623,0.32079,0.91864
297.191,37.16877,-0.06464865,0.31946,0.91817
297.791,37.2232,-0.06933622,0.32342,0.91771
298.391,37.27766,-0.07883844,0.32274,0.91724
298.991,37.3322,-0.06402863,0.32225,0.91677
299.591,37.38705,-0.07354971,0.32452,0.9163
300.191,37.44165,-0.07110384,0.32028,0.91583
300.791,37.49643,-0.07017315,0.32084,0.91536
301.391,37.55095,-0.07115906,0.31925,0.91489
301.991,37.60544,-0.06800185,0.32086,0.91442
302.591,37.65997,-0.0721294,0.32306,0.91395
303.191,37.7145,-0.07118612,0.32284,0.91348
303.791,37.76917,-0.07247521,0.32313,0.91301
304.391,37.82374,-0.07548203,0.32306,0.91253
304.991,37.87843,-0.07600848,0.32213,0.91206
305.591,37.93302,-0.07642998,0.32439,0.91159
306.191,37.98753,-0.07595747,0.32237,0.91111
306.791,38.0421,-0.07786385,0.32491,0.91064
307.391,38.09684,-0.08217056,0.32626,0.91016
307.991,38.15166,-0.08463945,0.32506,0.90969
308.591,38.20645,-0.07622255,0.32429,0.90921
309.191,38.2611,-0.07566033,0.32286,0.90873
309.791,38.31585,-0.08206663,0.32492,0.90826
310.391,38.3705,-0.08554377,0.32655,0.90778
310.991,38.42515,-0.0824575,0.32394,0.9073
311.591,38.4801,-0.08115844,0.32306,0.90682
312.191,38.5349,-0.08070715,0.32115,0.90635
312.791,38.5897,-0.07676167,0.31693,0.90587
313.391,38.64459,-0.0845372,0.32041,0.90539
313.991,38.6993,-0.0964149,0.32385,0.90491
314.591,38.75412,-0.09237392,0.31912,0.90443
315.191,38.8089,-0.08310423,0.31969,0.90395
315.791,38.8636,-0.09749018,0.31995,0.90347
316.391,38.91835,-0.09442195,0.31736,0.90298
316.991,38.97306,-0.07281052,0.3137,0.9025
317.591,39.02772,-0.08256844,0.31001,0.90202
318.191,39.0824,-0.07078063,0.30379,0.90154
318.791,39.1372,-0.07859151,0.30214,0.90106
319.391,39.19191,-0.10091,0.31246,0.90057
319.991,39.2468,-0.11004,0.31614,0.90009
320.591,39.30173,-0.09636378,0.31085,0.8996
321.191,39.35657,-0.09412466,0.31262,0.89912
321.791,39.41148,-0.10072,0.31312,0.89863
322.391,39.4662,-0.10219,0.31341,0.89815
322.991,39.52098,-0.09504095,0.30768,0.89766
323.591,39.5758,-0.08887275,0.30764,0.89718
324.191,39.63069,-0.09323947,0.30312,0.89669
324.791,39.68548,-0.09475384,0.30383,0.8962
325.391,39.74027,-0.09494039,0.30394,0.89572
325.991,39.79495,-0.09383805,0.30536,0.89523
326.591,39.84973,-0.1015,0.30318,0.89474
327.191,39.90455,-0.10027,0.30211,0.89425
327.791,39.95933,-0.10222,0.30164,0.89376
328.391,40.0143,-0.0981492,0.29991,0.89327
328.991,40.06927,-0.10342,0.30196,0.89278
329.591,40.12425,-0.10421,0.29707,0.8923
330.191,40.17934,-0.10255,0.29706,0.89181
330.791,40.23426,-0.10416,0.29765,0.89131
331.391,40.2894,-0.10267,0.29428,0.89082
331.991,40.3445,-0.10111,0.29149,0.89033
332.591,40.39953,-0.10119,0.29057,0.88984
333.191,40.45475,-0.10488,0.28861,0.88935
333.791,40.50987,-0.10529,0.28715,0.88886
334.391,40.56496,-0.10856,0.28731,0.88836
334.991,40.62011,-0.11077,0.28992,0.88787
335.591,40.6751,-0.11054,0.28993,0.88738
336.191,40.73008,-0.10828,0.28604,0.88689
336.791,40.7851,-0.11282,0.28873,0.88639
337.391,40.8404,-0.12243,0.28821,0.8859
337.991,40.89568,-0.12403,0.29431,0.8854
338.591,40.95094,-0.12405,0.2925,0.88491
339.191,41.00618,-0.12237,0.29108,0.88441
339.791,41.06145,-0.11562,0.28655,0.88392
340.391,41.11677,-0.11176,0.28281,0.88342
340.991,41.17217,-0.1174,0.28062,0.88293
341.591,41.22768,-0.11368,0.27918,0.88243
342.191,41.2829,-0.11645,0.27703,0.88193
342.791,41.33832,-0.11704,0.27754,0.88144
343.391,41.3936,-0.11519,0.27604,0.88094
343.991,41.44879,-0.11584,0.27344,0.88044
344.591,41.5043,-0.11297,0.27483,0.87995
345.191,41.5593,-0.1179,0.27527,0.87945
345.791,41.61469,-0.12149,0.27576,0.87895
346.391,41.67017,-0.12881,0.27329,0.87845
346.991,41.72588,-0.1249,0.27107,0.87795
347.591,41.7816,-0.12115,0.27073,0.87745
348.191,41.83709,-0.12831,0.27015,0.87695
348.791,41.8925,-0.13,0.26868,0.87645
349.391,41.94785,-0.12971,0.26888,0.87595
349.991,42.0034,-0.12724,0.26476,0.87545
350.591,42.0588,-0.1245,0.26286,0.87495
351.191,42.1143,-0.13046,0.26451,0.87445
351.791,42.16961,-0.13445,0.26695,0.87395
352.391,42.22508,-0.13947,0.26642,0.87345
352.991,42.28078,-0.13767,0.26441,0.87295
353.591,42.3364,-0.13019,0.26109,0.87245
354.191,42.3921,-0.11841,0.2542,0.87195
354.791,42.44755,-0.11794,0.25382,0.87145
355.391,42.50293,-0.13241,0.2538,0.87094
355.991,42.55798,-0.13902,0.25335,0.87044
356.591,42.61372,-0.13567,0.25267,0.86994
357.191,42.6695,-0.13569,0.24949,0.86943
357.791,42.72534,-0.13122,0.24597,0.86893
358.391,42.78119,-0.1344,0.24587,0.86843
358.991,42.83676,-0.14052,0.24867,0.86792
359.591,42.89242,-0.14855,0.25274,0.86742
360.191,42.9481,-0.15377,0.25007,0.86692
360.791,43.00387,-0.12044,0.24525,0.86641
361.391,43.05959,-0.15431,0.24585,0.86591
361.991,43.1151,-0.13662,0.24043,0.8654
362.591,43.1708,-0.13574,0.24073,0.8649
363.191,43.22627,-0.1462,0.24376,0.86439
363.791,43.2819,-0.14486,0.24609,0.86389
364.391,43.33753,-0.15195,0.2426,0.86338
364.991,43.3931,-0.14949,0.24493,0.86288
365.591,43.44877,-0.14834,0.24407,0.86237
366.191,43.5045,-0.14989,0.2455,0.86187
366.791,43.5599,-0.1514,0.24075,0.86136
367.391,43.61538,-0.14692,0.24069,0.86085
367.991,43.67111,-0.14707,0.241,0.86035
368.591,43.7269,-0.1502,0.23856,0.85984
369.191,43.783,-0.15054,0.24057,0.85933
369.791,43.8388,-0.15736,0.2418,0.85882
370.391,43.89477,-0.16114,0.24459,0.85832
370.991,43.95053,-0.16869,0.24577,0.85781
371.591,44.00642,-0.15379,0.24292,0.8573
372.191,44.06231,-0.15696,0.24608,0.85679
372.791,44.11804,-0.16321,0.2495,0.85629
373.391,44.174,-0.16702,0.24966,0.85578
373.991,44.22996,-0.16031,0.25088,0.85527
374.591,44.2858,-0.16413,0.25201,0.85476
375.191,44.34173,-0.16678,0.25448,0.85425
375.791,44.39779,-0.17905,0.26017,0.85374
376.391,44.45386,-0.16421,0.2602,0.85324
376.991,44.51018,-0.15825,0.25602,0.85273
377.591,44.5663,-0.1637,0.26099,0.85222
378.191,44.62231,-0.16048,0.26376,0.85171
378.791,44.6783,-0.16837,0.27046,0.8512
379.391,44.73422,-0.18686,0.27946,0.85069
379.991,44.79025,-0.18393,0.27973,0.85018
380.591,44.84612,-0.17371,0.28329,0.84967
381.191,44.9019,-0.16384,0.28067,0.84916
381.791,44.9578,-0.16513,0.28329,0.84865
382.391,45.01364,-0.17402,0.29112,0.84814
382.991,45.0694,-0.19081,0.30057,0.84763
383.591,45.12523,-0.21411,0.31562,0.84712
384.191,45.18115,-0.2127,0.32712,0.84661
384.791,45.23724,-0.21169,0.32888,0.8461
385.391,45.2935,-0.18809,0.32684,0.84559
385.991,45.34965,-0.19704,0.33681,0.84507
386.591,45.406,-0.20506,0.34033,0.84456
387.191,45.4623,-0.19551,0.34618,0.84405
387.791,45.51903,-0.1968,0.34845,0.84354
388.391,45.5757,-0.19324,0.35532,0.84303
388.991,45.63228,-0.20019,0.36681,0.84252
389.591,45.68864,-0.20765,0.37688,0.84201
390.191,45.7447,-0.21325,0.38718,0.8415
390.791,45.80076,-0.22316,0.39831,0.84098
391.391,45.85693,-0.22755,0.41267,0.84047
391.991,45.91348,-0.229,0.41993,0.83996
392.591,45.97013,-0.22218,0.42965,0.83945
393.191,46.0268,-0.22524,0.43959,0.83894
393.791,46.08338,-0.23151,0.45105,0.83842
394.391,46.1399,-0.2348,0.46281,0.83791
394.991,46.1965,-0.23087,0.4738,0.8374
395.591,46.25295,-0.22872,0.48177,0.83689
396.191,46.30955,-0.23024,0.4972,0.83637
396.791,46.366,-0.23925,0.51396,0.83586
397.391,46.4223,-0.25952,0.53349,0.83535
397.991,46.47852,-0.25286,0.54358,0.83484
398.591,46.5347,-0.24964,0.56551,0.83432
399.191,46.5909,-0.28025,0.58558,0.83381
399.791,46.64712,-0.28703,0.60678,0.8333
400.391,46.7034,-0.28827,0.63017,0.83279
400.991,46.76025,-0.2933,0.64991,0.83227
401.591,46.81725,-0.29216,0.66689,0.83176
402.191,46.87421,-0.28333,0.68482,0.83125
402.791,46.9311,-0.2817,0.70404,0.83073
403.391,46.9877,-0.301,0.73363,0.83022
403.991,47.04436,-0.30716,0.76107,0.82971
404.591,47.10096,-0.32225,0.79217,0.8292
405.191,47.15759,-0.33522,0.82584,0.82868
405.791,47.21418,-0.34301,0.85538,0.82817
406.391,47.27086,-0.33049,0.88505,0.82766
406.991,47.3279,-0.36511,0.92533,0.82714
407.591,47.38479,-0.36355,0.95716,0.82663
408.191,47.44192,-0.35797,0.99258,0.82612
408.791,47.49869,-0.36127,1.03244,0.8256
409.391,47.55529,-0.38407,1.08007,0.82509
409.991,47.61186,-0.41633,1.12742,0.82458
410.591,47.66851,-0.42153,1.17863,0.82406
411.191,47.72541,-0.41785,1.22573,0.82355
411.791,47.78252,-0.4365,1.28123,0.82304
412.391,47.83954,-0.45809,1.33696,0.82252
412.991,47.89653,-0.47244,1.39657,0.82201
413.591,47.9537,-0.48695,1.45725,0.8215
414.191,48.01073,-0.4955,1.52219,0.82098
414.791,48.06799,-0.52135,1.59396,0.82047
415.391,48.12525,-0.5369,1.66714,0.81996
415.991,48.18248,-0.56087,1.74259,0.81944
416.591,48.23979,-0.58511,1.82265,0.81893
417.191,48.29695,-0.60708,1.90775,0.81842
417.791,48.3542,-0.6307,1.98886,0.8179
418.391,48.4115,-0.65587,2.08193,0.81739
418.991,48.4688,-0.68402,2.16795,0.81688
419.591,48.52624,-0.71487,2.26273,0.81636
420.191,48.58359,-0.73888,2.35647,0.81585
420.791,48.64107,-0.76376,2.46434,0.81534
421.391,48.69874,-0.79879,2.56833,0.81482
421.991,48.75636,-0.82761,2.66475,0.81431
422.591,48.814,-0.86628,2.77157,0.8138
423.191,48.87153,-0.91735,2.87356,0.81328
423.791,48.92893,-0.95942,2.97302,0.81277
424.391,48.98652,-0.99789,3.06474,0.81226
424.991,49.04415,-1.03577,3.16114,0.81174
425.591,49.1017,-1.08243,3.25915,0.81123
426.191,49.15951,-1.12695,3.35486,0.81072
426.791,49.21736,-1.1807,3.45126,0.81021
427.391,49.27513,-1.21963,3.54592,0.80969
427.991,49.3331,-1.26699,3.64298,0.80918
428.591,49.3907,-1.32855,3.72753,0.80867
429.191,49.4486,-1.37601,3.80448,0.80815
429.791,49.50639,-1.42848,3.87148,0.80764
430.391,49.56416,-1.48968,3.93914,0.80713
430.991,49.6218,-1.56195,4.00017,0.80662
431.591,49.6793,-1.62704,4.06108,0.8061
432.191,49.73661,-1.67858,4.10192,0.80559
432.791,49.79419,-1.72545,4.11838,0.80508
433.391,49.85181,-1.77266,4.13094,0.80457
433.991,49.90947,-1.861,4.14225,0.80406
434.591,49.96754,-1.93125,4.14636,0.80354
435.191,50.02515,-1.96999,4.12559,0.80303
435.791,50.0825,-2.02715,4.10513,0.80252
436.391,50.13988,-2.09917,4.08596,0.80201
436.991,50.19701,-2.161,4.05199,0.8015
437.591,50.25418,-2.22042,4.01264,0.80098
438.191,50.31165,-2.26874,3.96137,0.80047
438.791,50.3688,-2.3376,3.90785,0.79996
439.391,50.42608,-2.40435,3.84278,0.79945
439.991,50.48307,-2.46007,3.76794,0.79894
440.591,50.54017,-2.51371,3.68637,0.79843
441.191,50.59726,-2.56372,3.60152,0.79792
441.791,50.65429,-2.61894,3.51032,0.79741
442.391,50.71111,-2.67243,3.41304,0.79689
442.991,50.76788,-2.71813,3.31351,0.79638
443.591,50.8247,-2.77143,3.21547,0.79587
444.191,50.88165,-2.81787,3.11241,0.79536
444.791,50.9387,-2.8564,3.00326,0.79485
445.391,50.9953,-2.8954,2.89719,0.79434
445.991,51.05186,-2.94501,2.79242,0.79383
446.591,51.10832,-2.9931,2.68825,0.79332
447.191,51.16479,-3.0286,2.58081,0.79281
447.791,51.22161,-3.06422,2.47318,0.7923
448.391,51.27845,-3.09077,2.36386,0.79179
448.991,51.33502,-3.11316,2.26008,0.79128
449.591,51.39163,-3.17646,2.16152,0.79077
450.191,51.44815,-3.21609,2.06261,0.79026
450.791,51.50497,-3.21569,1.96676,0.78975
451.391,51.5619,-3.26665,1.87098,0.78924
451.991,51.6188,-3.28569,1.77746,0.78874
452.591,51.67572,-3.31106,1.68548,0.78823
453.191,51.73257,-3.33616,1.59748,0.78772
453.791,51.78935,-3.37179,1.51437,0.78721
454.391,51.84617,-3.40168,1.43979,0.7867
454.991,51.90286,-3.418,1.35939,0.78619
455.591,51.95957,-3.42156,1.28449,0.78568
456.191,52.01656,-3.44999,1.22057,0.78518
456.791,52.07372,-3.47035,1.15096,0.78467
457.391,52.131,-3.45888,1.08594,0.78416
457.991,52.18822,-3.49878,1.03156,0.78365
458.591,52.24497,-3.51194,0.97839,0.78315
459.191,52.30172,-3.53626,0.93379,0.78264
459.791,52.3584,-3.56319,0.89413,0.78213
460.391,52.41522,-3.58715,0.85621,0.78162
460.991,52.4724,-3.5923,0.81847,0.78112
461.591,52.52984,-3.59283,0.77673,0.78061
462.191,52.58732,-3.60037,0.74277,0.7801
462.791,52.6448,-3.60664,0.70919,0.7796
463.391,52.70215,-3.62279,0.67993,0.77909
463.991,52.7596,-3.63198,0.65457,0.77859
464.591,52.817,-3.64558,0.62572,0.77808
465.191,52.87421,-3.64407,0.59854,0.77757
465.791,52.93147,-3.66093,0.57957,0.77707
466.391,52.9887,-3.67975,0.55739,0.77656
466.991,53.0459,-3.69398,0.53826,0.77606
467.591,53.10326,-3.70448,0.51758,0.77555
468.191,53.1604,-3.70807,0.49668,0.77505
468.791,53.2178,-3.72527,0.47937,0.77454
469.391,53.27544,-3.72892,0.46045,0.77404
469.991,53.3333,-3.72326,0.43467,0.77354
470.591,53.391,-3.72736,0.41991,0.77303
471.191,53.44863,-3.74104,0.4006,0.77253
471.791,53.50617,-3.75301,0.38176,0.77202
472.391,53.5637,-3.76586,0.36265,0.77152
472.991,53.62137,-3.76456,0.34525,0.77102
473.591,53.67889,-3.76899,0.32528,0.77051
474.191,53.73655,-3.78125,0.31209,0.77001
474.791,53.79388,-3.78902,0.29474,0.76951
475.391,53.85156,-3.79032,0.27928,0.76901
475.991,53.9091,-3.79561,0.26054,0.7685
476.591,53.9667,-3.80374,0.24851,0.768
477.191,54.02466,-3.81113,0.23211,0.7675
477.791,54.0822,-3.80898,0.21528,0.767
478.391,54.1397,-3.81202,0.20144,0.7665
478.991,54.19713,-3.81694,0.18488,0.766
479.591,54.2547,-3.82163,0.17244,0.7655
480.191,54.3125,-3.82293,0.15287,0.76499
480.791,54.37016,-3.8238,0.13968,0.76449
481.391,54.42779,-3.83154,0.13203,0.76399
481.991,54.4855,-3.84073,0.12282,0.76349
482.591,54.54355,-3.84231,0.10939,0.76299
483.191,54.60145,-3.84266,0.09627383,0.76249
483.791,54.65979,-3.831,0.08089261,0.762
484.391,54.7177,-3.82355,0.06791972,0.7615
484.991,54.77561,-3.82298,0.05545822,0.761
485.591,54.8335,-3.81755,0.04248442,0.7605
486.191,54.89124,-3.82722,0.04074474,0.76
486.791,54.94905,-3.84317,0.03926588,0.7595
487.391,55.0067,-3.84886,0.03600385,0.759
487.991,55.06442,-3.84762,0.02960206,0.75851
488.591,55.1222,-3.85193,0.02842592,0.75801
489.191,55.1801,-3.85296,0.02245213,0.75751
489.791,55.238,-3.85667,0.01838677,0.75701
490.391,55.296,-3.84444,0.01174581,0.75652
490.991,55.35419,-3.83964,0.01118894,0.75602
491.591,55.4121,-3.84188,0.00497476,0.75552
492.191,55.47011,-3.83803,0.004875242,0.75503
492.791,55.5283,-3.84165,0.002517926,0.75453
493.391,55.5863,-3.8423,0.000491545,0.75404
493.991,55.6444,-3.84484,-0.001278623,0.75354
494.591,55.70221,-3.84549,-0.0001775189,0.75305
495.191,55.7602,-3.84025,-0.002197416,0.75255
495.791,55.818,-3.84775,-0.0008701898,0.75206
496.391,55.8759,-3.84829,-0.001191937,0.75156
496.991,55.9339,-3.84942,-0.000844951,0.75107
497.591,55.99205,-3.85373,0.003057578,0.75058
498.191,56.05019,-3.84841,-0.005264724,0.75008
498.791,56.1084,-3.82881,-0.01011764,0.74959
499.391,56.1662,-3.83563,-0.01245741,0.7491
499.991,56.2241,-3.85442,-0.01157991,0.7486
500.591,56.28199,-3.84794,-0.01620058,0.74811
501.191,56.34,-3.85636,-0.01818143,0.74762
501.791,56.39813,-3.85306,-0.01824127,0.74713
502.391,56.4562,-3.85104,-0.02106647,0.74664
502.991,56.51425,-3.84804,-0.0217246,0.74615
503.591,56.57249,-3.84546,-0.02622223,0.74566
504.191,56.63081,-3.84036,-0.02903618,0.74516
504.791,56.6893,-3.84042,-0.03306713,0.74467
505.391,56.7474,-3.84428,-0.03070012,0.74418
505.991,56.80517,-3.84926,-0.02933894,0.74369
506.591,56.86302,-3.85009,-0.03044426,0.7432
507.191,56.9208,-3.84684,-0.0376627,0.74272
507.791,56.97908,-3.83931,-0.03684748,0.74223
508.391,57.03734,-3.83959,-0.03793099,0.74174
508.991,57.0957,-3.84912,-0.03121539,0.74125
509.591,57.154,-3.85865,-0.02662564,0.74076
510.191,57.2122,-3.85719,-0.02916958,0.74027
510.791,57.2706,-3.84593,-0.0304438,0.73979
511.391,57.3289,-3.85521,-0.03097991,0.7393
511.991,57.3873,-3.84537,-0.03010524,0.73881
512.591,57.4459,-3.8499,-0.02948231,0.73833
513.191,57.5044,-3.85273,-0.02352271,0.73784
513.791,57.5627,-3.86281,-0.02012948,0.73735
514.391,57.6213,-3.86139,-0.01715354,0.73687
514.991,57.68,-3.85576,-0.01653508,0.73638
515.591,57.73882,-3.8527,-0.01511883,0.7359
516.191,57.7977,-3.84276,-0.0228494,0.73541
516.791,57.85643,-3.83397,-0.02243084,0.73493
517.391,57.91497,-3.83686,-0.01943733,0.73445
517.991,57.9732,-3.84662,-0.01532061,0.73396
518.591,58.0316,-3.84732,-0.01669033,0.73348
519.191,58.0901,-3.84998,-0.01177675,0.73299
519.791,58.1487,-3.85324,-0.00743382,0.73251
520.391,58.20726,-3.85353,-0.009054161,0.73203
520.991,58.2657,-3.84976,-0.01066417,0.73155
521.591,58.3244,-3.84969,-0.007980747,0.73107
522.191,58.38312,-3.84871,-0.01179945,0.73058
522.791,58.442,-3.84602,-0.01014629,0.7301
523.391,58.50076,-3.84828,-0.009351461,0.72962
523.991,58.55928,-3.84657,-0.01259448,0.72914
524.591,58.6176,-3.83812,-0.01343338,0.72866
525.191,58.6761,-3.84829,-0.008501501,0.72818
525.791,58.7348,-3.85366,-0.00620264,0.7277
526.391,58.79311,-3.84831,-0.00874789,0.72722
526.991,58.8515,-3.83982,-0.01181301,0.72674
527.591,58.9101,-3.84637,-0.007054927,0.72627
528.191,58.96853,-3.85373,-0.00186021,0.72579
528.791,59.02769,-3.85206,-0.005484936,0.72531
529.391,59.0863,-3.83976,-0.006694006,0.72483
529.991,59.14493,-3.84564,-0.004574339,0.72436
530.591,59.20355,-3.8516,-0.002704307,0.72388
531.191,59.26217,-3.85189,0.002910561,0.7234
531.791,59.32071,-3.85225,0.003433962,0.72293
532.391,59.37934,-3.85634,0.00591099,0.72245
532.991,59.43775,-3.8576,0.006756118,0.72198
533.591,59.4965,-3.84899,0.002506483,0.7215
534.191,59.55536,-3.84098,-0.000451428,0.72103
534.791,59.6142,-3.83604,-0.001973323,0.72055
535.391,59.6733,-3.84265,-0.000872931,0.72008
535.991,59.73189,-3.8534,0.00320998,0.7196
536.591,59.79056,-3.84924,0.002282477,0.71913
537.191,59.8492,-3.84681,0.00280973,0.71866
537.791,59.9078,-3.85124,0.0006866,0.71819
538.391,59.9665,-3.85066,0.002198035,0.71771
538.991,60.0248,-3.84957,0.002922193,0.71724
539.591,60.08361,-3.85035,0.00361101,0.71677
540.191,60.14241,-3.85294,0.00585933,0.7163
540.791,60.20149,-3.85327,0.002225478,0.71583
541.391,60.26036,-3.85323,0.00375334,0.71536
541.991,60.3192,-3.85176,0.00247469,0.71489
542.591,60.3783,-3.84121,-0.004771514,0.71442
543.191,60.43713,-3.82706,-0.009760254,0.71395
543.791,60.49579,-3.83096,-0.00540346,0.71348
544.391,60.5543,-3.85733,0.007776693,0.71301
544.991,60.61297,-3.85639,0.005020365,0.71254
545.591,60.67207,-3.85112,0.002384749,0.71208
546.191,60.7311,-3.84578,0.00182966,0.71161
546.791,60.78989,-3.84713,0.003436208,0.71114
547.391,60.84861,-3.84592,0.005096051,0.71067
547.991,60.9072,-3.85346,0.005805364,0.71021
548.591,60.9663,-3.8545,0.008215331,0.70974
549.191,61.02528,-3.85116,0.00945307,0.70928
549.791,61.08429,-3.84928,0.006939429,0.70881
550.391,61.1432,-3.85547,0.002180589,0.70835
550.991,61.202,-3.85414,0.001559772,0.70788
551.591,61.2611,-3.84722,-0.0022172,0.70742
552.191,61.3203,-3.83642,-0.004330502,0.70696
552.791,61.3792,-3.83668,-0.002078675,0.70649
553.391,61.438,-3.84838,0.004275557,0.70603
553.991,61.49697,-3.85679,0.009240166,0.70557
554.591,61.55584,-3.85565,0.007032137,0.7051
555.191,61.6149,-3.85539,0.005868755,0.70464
555.791,61.67383,-3.85533,0.007937991,0.70418
556.391,61.7328,-3.85919,0.0062949,0.70372
556.991,61.792,-3.85511,-0.001515466,0.70326
557.591,61.85096,-3.83281,-0.00557795,0.7028
558.191,61.9099,-3.85838,0.0016942,0.70234
558.791,61.96881,-3.87382,0.007463912,0.70188
559.391,62.02771,-3.85273,-0.00102746,0.70142
559.991,62.0869,-3.82917,-0.00505432,0.70096
560.591,62.1459,-3.8467,-0.001478944,0.70051
561.191,62.205,-3.85294,-0.0008849185,0.70005
561.791,62.26406,-3.85314,0.00119881,0.69959
562.391,62.32306,-3.84614,-0.00394834,0.69914
562.991,62.3819,-3.84343,0.002003911,0.69868
563.591,62.4411,-3.85127,0.00265087,0.69822
564.191,62.50051,-3.86382,0.00396825,0.69777
564.791,62.5601,-3.85419,0.002297894,0.69731
565.391,62.61943,-3.83995,-0.001653357,0.69686
565.991,62.6786,-3.8376,-0.004969456,0.6964
566.591,62.7376,-3.84907,0.0006210797,0.69595
567.191,62.79679,-3.86391,0.006246946,0.6955
567.791,62.856,-3.86453,0.004460153,0.69504
568.391,62.9153,-3.85786,0.005372815,0.69459
568.991,62.9747,-3.84574,0.004235548,0.69414
569.591,63.03396,-3.85255,0.004548583,0.69369
570.191,63.09313,-3.85973,0.005524768,0.69323
570.791,63.1525,-3.85412,0.003468771,0.69278
571.391,63.21175,-3.84562,-0.000361474,0.69233
571.991,63.2714,-3.83897,-0.002534031,0.69188
572.591,63.3307,-3.84225,-0.00140089,0.69143
573.191,63.39017,-3.85508,0.002159298,0.69098
573.791,63.4496,-3.84192,-0.0007994281,0.69053
574.391,63.50885,-3.84178,0.00257462,0.69009
574.991,63.5678,-3.85306,0.004127321,0.68964
575.591,63.62724,-3.85163,0.00527067,0.68919
576.191,63.6869,-3.85099,0.005162941,0.68874
576.791,63.74641,-3.85594,0.006177944,0.6883
577.391,63.80627,-3.85531,0.003308068,0.68785
577.991,63.86574,-3.85426,0.00467579,0.6874
578.591,63.9251,-3.85118,-0.000428593,0.68696
579.191,63.9845,-3.84905,0.006519926,0.68651
579.791,64.04392,-3.86738,0.007713544,0.68607
580.391,64.10308,-3.85449,0.00551309,0.68562
580.991,64.16224,-3.84416,0.0008058189,0.68518
581.591,64.2214,-3.84433,0.001316959,0.68474
582.191,64.28058,-3.85312,4.50598e-05,0.68429
582.791,64.3405,-3.85762,0.00327021,0.68385
583.391,64.40018,-3.85798,0.001287801,0.68341
583.991,64.46013,-3.8557,0.001898191,0.68297
584.591,64.5196,-3.85107,-0.002588783,0.68253
585.191,64.5791,-3.8498,-0.003984402,0.68209
585.791,64.63832,-3.84812,-0.00195147,0.68165
586.391,64.69768,-3.85109,-0.00687081,0.68121
586.991,64.757,-3.84464,-0.01188471,0.68077
587.591,64.8164,-3.83732,-0.01288529,0.68033
588.191,64.87559,-3.84324,-0.01234905,0.67989
588.791,64.93481,-3.8482,-0.007413207,0.67945
589.391,64.99401,-3.85114,-0.00648609,0.67901
589.991,65.05319,-3.85229,0.0006084311,0.67858
590.591,65.11259,-3.86496,0.003056825,0.67814
591.191,65.17215,-3.85827,0.001586924,0.6777
591.791,65.2316,-3.85365,-0.0005230863,0.67727
592.391,65.29091,-3.85185,-0.004879542,0.67683
592.991,65.3502,-3.8493,-0.004563284,0.6764
593.591,65.4096,-3.85351,-0.001819527,0.67596
594.191,65.469,-3.85682,0.0026021,0.67553
594.791,65.52842,-3.86128,-1.02898e-06,0.67509
595.391,65.58785,-3.85323,-0.00344114,0.67466
595.991,65.64737,-3.85066,-0.00497418,0.67423
596.591,65.70704,-3.85326,-0.0009501767,0.6738
597.191,65.7665,-3.85831,0.002254367,0.67336
597.791,65.82611,-3.85377,0.001036904,0.67293
598.391,65.88579,-3.85205,-0.001133191,0.6725
598.991,65.9453,-3.84958,0.003075595,0.67207
599.591,66.00486,-3.85207,0.00474691,0.67164
600.191,66.06444,-3.85383,0.005294185,0.67121
600.791,66.12429,-3.85545,0.00635011,0.67078
601.391,66.1841,-3.85514,0.003088173,0.67035
601.991,66.24383,-3.85641,0.005097515,0.66993
602.591,66.30356,-3.85411,0.002340095,0.6695
603.191,66.36309,-3.84867,0.000160256,0.66907
603.791,66.42265,-3.8419,-0.003861377,0.66865
604.391,66.48227,-3.83939,-0.00475114,0.66822
604.991,66.54165,-3.8458,0.00107872,0.66779
605.591,66.60119,-3.85765,0.002717325,0.66737
606.191,66.66032,-3.86162,0.006649,0.66694
606.791,66.71985,-3.86363,0.01012837,0.66652
607.391,66.77965,-3.86411,0.01097925,0.66609
607.991,66.83955,-3.86069,0.009810145,0.66567
608.591,66.89996,-3.85555,0.00572264,0.66525
609.191,66.9597,-3.84671,-0.001794737,0.66483
609.791,67.01932,-3.84701,0.003804032,0.6644
610.391,67.07893,-3.85912,0.01031283,0.66398
610.991,67.13851,-3.85806,0.002290665,0.66356
611.591,67.1981,-3.84737,0.0009107106,0.66314
612.191,67.25771,-3.83546,-0.00672603,0.66272
612.791,67.3174,-3.84426,0.001946773,0.6623
613.391,67.37715,-3.87223,0.01054949,0.66188
613.991,67.4369,-3.86367,0.004819606,0.66146
614.591,67.49675,-3.8417,0.00300372,0.66104
615.191,67.55668,-3.85564,0.00939341,0.66063
615.791,67.61662,-3.85971,0.005982798,0.66021
616.391,67.67657,-3.84995,0.00141525,0.65979
616.991,67.73639,-3.85383,0.001471359,0.65937
617.591,67.79606,-3.85802,0.00703184,0.65896
618.191,67.8556,-3.8622,0.00683226,0.65854
618.791,67.91532,-3.85969,0.004602907,0.65813
619.391,67.97515,-3.85829,0.007888002,0.65771
619.991,68.03495,-3.86323,0.01340744,0.6573
620.591,68.095,-3.8538,-0.0005630175,0.65689
621.191,68.15459,-3.83168,-0.001641354,0.65647
621.791,68.21446,-3.85126,-0.001305255,0.65606
622.391,68.27405,-3.85002,0.001175014,0.65565
622.991,68.33362,-3.84592,0.0004581825,0.65524
623.591,68.39344,-3.8549,0.00732616,0.65483
624.191,68.453,-3.85659,0.008966865,0.65441
624.791,68.5128,-3.86684,0.01619081,0.654
625.391,68.57253,-3.85715,0.009347034,0.65359
625.991,68.63226,-3.8438,0.006483661,0.65319
626.591,68.69197,-3.85839,0.009149328,0.65278
627.191,68.75165,-3.8531,0.006395325,0.65237
627.791,68.8114,-3.85237,0.006146269,0.65196
628.391,68.87124,-3.85477,0.00764106,0.65155
628.991,68.93103,-3.85677,0.008017203,0.65115
629.591,68.99095,-3.85272,0.006886132,0.65074
630.191,69.05081,-3.84932,0.009649112,0.65033
630.791,69.1105,-3.8525,0.007739495,0.64993
631.391,69.1704,-3.85462,0.004631873,0.64952
631.991,69.23005,-3.8543,0.01512443,0.64912
632.591,69.28989,-3.85843,0.009718127,0.64872
633.191,69.3498,-3.8548,0.01023922,0.64831
633.791,69.40956,-3.84999,0.00662264,0.64791
634.391,69.4695,-3.84459,0.01369414,0.64751
634.991,69.52954,-3.85441,0.01398802,0.6471
635.591,69.58945,-3.85656,0.01668491,0.6467
636.191,69.6497,-3.85875,0.01507443,0.6463
636.791,69.70975,-3.85365,0.01621689,0.6459
637.391,69.76993,-3.85567,0.01350021,0.6455
637.991,69.82987,-3.85591,0.01214865,0.6451
638.591,69.88962,-3.85184,0.01298791,0.6447
639.191,69.94946,-3.85232,0.009442666,0.6443
639.591,69.9893,-3.85097,0.007492331,0.64404