File: 01_Data/PlasticC/STA/N2/10K_min/PlasticC_STA_N2_10KData_211026_R1.csv
##Temp./Â°C,Time/min,Mass loss(subtr.2)/mg,DSC(subtr.2)/(mW/mg),Sensit./(uV/mW)
49.81,10.00917,0.03477,-0.06240915,1.03584
50.41,11.462,0.04031313,-0.04734504,1.03581
51.01,11.82734,0.04351621,-0.03510737,1.03578
51.61,12.08812,0.04148771,-0.02745625,1.03575
52.21,12.30538,0.04216029,-0.02150993,1.03572
52.81,12.49615,0.0437878,-0.01724238,1.03568
53.41,12.66692,0.04403715,-0.01393503,1.03565
54.01,12.8255,0.04295165,-0.008227803,1.03561
54.61,12.97461,0.04459412,-0.004938853,1.03557
55.21,13.11625,0.04600635,0.000308352,1.03553
55.81,13.2509,0.04391038,0.0002334741,1.03549
56.41,13.38078,0.04432131,0.005532896,1.03544
57.01,13.50642,0.04442339,0.006695,1.03539
57.61,13.62655,0.04610253,0.008922371,1.03535
58.21,13.742,0.04792408,0.009701626,1.0353
58.81,13.8558,0.04544256,0.0141771,1.03525
59.41,13.9682,0.04493638,0.01756884,1.0352
60.01,14.0771,0.04560087,0.0198432,1.03514
60.61,14.1837,0.04683774,0.02249306,1.03509
61.21,14.28709,0.04703955,0.02402932,1.03503
61.81,14.3888,0.04585291,0.02418106,1.03497
62.41,14.48911,0.0482621,0.0283191,1.03491
63.01,14.58734,0.04793968,0.03163952,1.03485
63.61,14.68392,0.04797648,0.03339546,1.03479
64.21,14.7789,0.04660234,0.03522856,1.03472
64.81,14.87227,0.04563811,0.03663678,1.03466
65.41,14.96415,0.04586194,0.03783242,1.03459
66.01,15.0549,0.04825287,0.03857747,1.03452
66.61,15.1448,0.04581253,0.04237215,1.03445
67.21,15.23354,0.04895062,0.04330447,1.03438
67.81,15.32032,0.04793236,0.04412829,1.0343
68.41,15.40608,0.04517699,0.04634972,1.03423
69.01,15.4914,0.0487303,0.04805496,1.03415
69.61,15.57519,0.04861594,0.05144689,1.03407
70.21,15.65819,0.04987002,0.05253712,1.034
70.81,15.74055,0.04881002,0.05401003,1.03391
71.41,15.82206,0.04751567,0.05437152,1.03383
72.01,15.9028,0.04851366,0.05699428,1.03375
72.61,15.98293,0.05001176,0.05610712,1.03366
73.21,16.06214,0.05092022,0.05725657,1.03357
73.81,16.13973,0.05000505,0.05942124,1.03349
74.41,16.21738,0.05008495,0.05813487,1.0334
75.01,16.2946,0.04999153,0.06102587,1.0333
75.61,16.37257,0.05010681,0.0608568,1.03321
76.21,16.44851,0.0504925,0.06353996,1.03312
76.81,16.52392,0.05166326,0.0651471,1.03302
77.41,16.5981,0.05076605,0.06733467,1.03292
78.01,16.67267,0.05019802,0.06735208,1.03282
78.61,16.7467,0.05186089,0.06800286,1.03272
79.21,16.82098,0.05175707,0.06828728,1.03262
79.81,16.89353,0.05045536,0.0665972,1.03252
80.41,16.96578,0.04904744,0.06703898,1.03241
81.01,17.0377,0.05639998,0.06531242,1.03231
81.61,17.1095,0.04807893,0.06352425,1.0322
82.21,17.18038,0.05258203,0.062461,1.03209
82.81,17.25056,0.0493845,0.05916833,1.03198
83.41,17.32058,0.05244273,0.06099829,1.03187
84.01,17.3908,0.05406519,0.06030452,1.03175
84.61,17.46088,0.05276673,0.05773506,1.03164
85.21,17.52998,0.05665825,0.05905693,1.03152
85.81,17.59812,0.04837115,0.05946712,1.0314
86.41,17.66609,0.0504941,0.05987698,1.03128
87.01,17.73366,0.05088727,0.05804485,1.03116
87.61,17.8016,0.05276022,0.06051574,1.03104
88.21,17.86876,0.05392928,0.06326962,1.03092
88.81,17.93561,0.05264009,0.06581925,1.03079
89.41,18.00181,0.05155579,0.06269448,1.03067
90.01,18.0683,0.05170607,0.06702701,1.03054
90.61,18.13433,0.05140859,0.06677599,1.03041
91.21,18.2002,0.05290621,0.06966412,1.03028
91.81,18.26536,0.05301915,0.07036031,1.03014
92.41,18.33026,0.05432305,0.07402045,1.03001
93.01,18.39517,0.05254045,0.07401081,1.02987
93.61,18.45947,0.05319135,0.07470979,1.02974
94.21,18.52392,0.05426974,0.07972358,1.0296
94.81,18.58813,0.05319995,0.08001987,1.02946
95.41,18.65222,0.05318152,0.08345435,1.02932
96.01,18.71603,0.05285705,0.08563667,1.02918
96.61,18.77881,0.05285965,0.08790406,1.02903
97.21,18.8418,0.05188022,0.09149513,1.02889
97.81,18.90495,0.05279326,0.09204419,1.02874
98.41,18.96849,0.05341999,0.09509341,1.02859
99.01,19.03106,0.05219003,0.09989356,1.02844
99.61,19.09357,0.05357198,0.10219,1.02829
100.21,19.15569,0.05483948,0.10479,1.02814
100.81,19.21783,0.05437561,0.10931,1.02799
101.41,19.28002,0.05485453,0.11168,1.02783
102.01,19.34149,0.0535183,0.11179,1.02768
102.61,19.4033,0.05446322,0.11829,1.02752
103.21,19.46494,0.05342119,0.11916,1.02736
103.81,19.52619,0.05519777,0.11912,1.0272
104.41,19.58781,0.05648237,0.11881,1.02704
105.01,19.649,0.05747828,0.1206,1.02687
105.61,19.71017,0.05716792,0.12098,1.02671
106.21,19.7711,0.05583011,0.12094,1.02654
106.81,19.83173,0.05582904,0.11928,1.02638
107.41,19.8923,0.05451399,0.12086,1.02621
108.01,19.95281,0.05452006,0.1222,1.02604
108.61,20.0134,0.05389683,0.1228,1.02587
109.21,20.07395,0.05506262,0.12079,1.02569
109.81,20.13433,0.05490571,0.12114,1.02552
110.41,20.1944,0.05490201,0.12274,1.02534
111.01,20.25429,0.05469826,0.12192,1.02517
111.61,20.3144,0.0536637,0.12211,1.02499
112.21,20.37432,0.05533461,0.1229,1.02481
112.81,20.4342,0.05500517,0.12328,1.02463
113.41,20.49411,0.05637905,0.12342,1.02444
114.01,20.5537,0.05643109,0.12342,1.02426
114.61,20.61318,0.05768696,0.12284,1.02408
115.21,20.67258,0.05665498,0.12294,1.02389
115.81,20.73152,0.05625527,0.12307,1.0237
116.41,20.7907,0.05594311,0.12297,1.02351
117.01,20.84984,0.05607143,0.12286,1.02332
117.61,20.90914,0.05736,0.12163,1.02313
118.21,20.96813,0.05735902,0.12198,1.02294
118.81,21.02703,0.05603712,0.12219,1.02274
119.41,21.08558,0.05604,0.12223,1.02255
120.01,21.144,0.05604181,0.12146,1.02235
120.61,21.2025,0.05748661,0.12237,1.02215
121.21,21.2609,0.05759005,0.12094,1.02195
121.81,21.31949,0.05890057,0.12127,1.02175
122.41,21.37708,0.05756678,0.11947,1.02155
123.01,21.4349,0.05660222,0.12133,1.02135
123.61,21.49284,0.05530042,0.11892,1.02114
124.21,21.55099,0.05687937,0.11969,1.02094
124.81,21.60952,0.05547862,0.11749,1.02073
125.41,21.66704,0.05516955,0.12006,1.02052
126.01,21.72454,0.05643422,0.11876,1.02031
126.61,21.7822,0.05649846,0.11981,1.0201
127.21,21.8398,0.05780131,0.11804,1.01989
127.81,21.8976,0.05790526,0.11938,1.01967
128.41,21.955,0.0578001,0.11868,1.01946
129.01,22.0122,0.05779939,0.12227,1.01924
129.61,22.06924,0.05647784,0.12097,1.01902
130.21,22.12627,0.05648004,0.11956,1.0188
130.81,22.18325,0.05647232,0.11691,1.01858
131.41,22.2403,0.05616488,0.1175,1.01836
132.01,22.29715,0.05546494,0.11831,1.01814
132.61,22.35383,0.05803463,0.1183,1.01792
133.21,22.4105,0.05760639,0.11685,1.01769
133.81,22.46711,0.05800327,0.11632,1.01746
134.41,22.52355,0.05657117,0.11782,1.01724
135.01,22.58004,0.05811547,0.11667,1.01701
135.61,22.63619,0.05814004,0.12041,1.01678
136.21,22.6924,0.05813999,0.12054,1.01654
136.81,22.74865,0.05814196,0.12071,1.01631
137.41,22.8049,0.05687987,0.12217,1.01608
138.01,22.86114,0.0583505,0.12129,1.01584
138.61,22.91702,0.05835,0.12112,1.01561
139.21,22.97287,0.05835019,0.12332,1.01537
139.81,23.02855,0.05690955,0.12492,1.01513
140.41,23.0843,0.05673692,0.12332,1.01489
141.01,23.14013,0.05702879,0.12227,1.01465
141.61,23.19575,0.05847141,0.12243,1.0144
142.21,23.25125,0.05781566,0.12237,1.01416
142.81,23.3067,0.05720303,0.12485,1.01392
143.41,23.36224,0.0571506,0.12124,1.01367
144.01,23.4175,0.05848981,0.12287,1.01342
144.61,23.47289,0.05874752,0.1207,1.01317
145.21,23.52804,0.05861086,0.1216,1.01292
145.81,23.58333,0.05856678,0.12104,1.01267
146.41,23.63887,0.05593257,0.12213,1.01242
147.01,23.69408,0.05638113,0.12291,1.01217
147.61,23.74939,0.05725095,0.12091,1.01191
148.21,23.8044,0.05855849,0.12093,1.01165
148.81,23.85951,0.05891859,0.12396,1.0114
149.41,23.9146,0.0585721,0.12302,1.01114
150.01,23.96956,0.05857,0.12504,1.01088
150.61,24.0244,0.05857004,0.12445,1.01062
151.21,24.0793,0.05823081,0.12699,1.01036
151.81,24.134,0.05724952,0.12676,1.01009
152.41,24.1886,0.05725,0.12447,1.00983
153.01,24.24341,0.05720262,0.12564,1.00956
153.61,24.2983,0.05593651,0.12556,1.0093
154.21,24.35316,0.05718506,0.12493,1.00903
154.81,24.40802,0.05757479,0.12622,1.00876
155.41,24.46261,0.05758069,0.12742,1.00849
156.01,24.51737,0.05882011,0.12622,1.00822
156.61,24.57188,0.05890418,0.12402,1.00795
157.21,24.62659,0.06020896,0.125,1.00767
157.81,24.68113,0.06015855,0.12345,1.0074
158.41,24.73541,0.06009383,0.1261,1.00712
159.01,24.79028,0.05989034,0.12485,1.00684
159.61,24.8448,0.05988879,0.12851,1.00657
160.21,24.8998,0.0588936,0.12688,1.00629
160.81,24.95448,0.05985278,0.12801,1.00601
161.41,25.00884,0.0585711,0.12674,1.00573
162.01,25.06326,0.05724444,0.12642,1.00544
162.61,25.1178,0.05856344,0.12679,1.00516
163.21,25.17224,0.05854346,0.12722,1.00487
163.81,25.22672,0.0572609,0.12756,1.00459
164.41,25.28114,0.05726,0.12668,1.0043
165.01,25.33553,0.05725634,0.12744,1.00401
165.61,25.3899,0.05856492,0.12934,1.00372
166.21,25.44415,0.05924559,0.1255,1.00343
166.81,25.49855,0.05868058,0.12411,1.00314
167.41,25.5529,0.05999721,0.12645,1.00285
168.01,25.6073,0.06204715,0.12998,1.00255
168.61,25.66166,0.0625556,0.12944,1.00226
169.21,25.71603,0.05987841,0.1314,1.00196
169.81,25.77038,0.05987791,0.12978,1.00166
170.41,25.82477,0.05958088,0.12707,1.00137
171.01,25.87915,0.05724994,0.12954,1.00107
171.61,25.93337,0.06000726,0.12897,1.00077
172.21,25.98763,0.06009908,0.13019,1.00046
172.81,26.04174,0.05945753,0.12976,1.00016
173.41,26.09581,0.0594418,0.12955,0.99986
174.01,26.14988,0.06076259,0.12892,0.99955
174.61,26.2039,0.06075911,0.13049,0.99925
175.21,26.258,0.05949447,0.12911,0.99894
175.81,26.3121,0.05944926,0.12764,0.99863
176.41,26.3661,0.05874614,0.13029,0.99832
177.01,26.4202,0.05878998,0.12923,0.99801
177.61,26.4743,0.05879001,0.13086,0.9977
178.21,26.5283,0.05878696,0.12929,0.99739
178.81,26.58233,0.06009902,0.13054,0.99707
179.41,26.63621,0.06136835,0.13096,0.99676
180.01,26.6901,0.06083677,0.13018,0.99644
180.61,26.7441,0.06087011,0.1311,0.99613
181.21,26.79805,0.06086255,0.13237,0.99581
181.81,26.85195,0.05955665,0.13043,0.99549
182.41,26.90591,0.06060924,0.13071,0.99517
183.01,26.9596,0.05985825,0.13252,0.99485
183.61,27.0132,0.05955997,0.13172,0.99453
184.21,27.06692,0.05956,0.13153,0.9942
184.81,27.12057,0.05955768,0.13155,0.99388
185.41,27.17442,0.05962288,0.13153,0.99356
186.01,27.22815,0.0582455,0.13332,0.99323
186.61,27.2818,0.05960802,0.13168,0.9929
187.21,27.33565,0.05955995,0.13282,0.99257
187.81,27.3894,0.05956,0.13497,0.99225
188.41,27.4429,0.05955999,0.1345,0.99192
189.01,27.4965,0.05956619,0.13483,0.99158
189.61,27.55007,0.06020812,0.13455,0.99125
190.21,27.60377,0.06120428,0.13613,0.99092
190.81,27.65748,0.0612,0.13623,0.99059
191.41,27.7111,0.06120001,0.13755,0.99025
192.01,27.76466,0.06118158,0.13704,0.98991
192.61,27.81803,0.0605389,0.13778,0.98958
193.21,27.87149,0.05901483,0.13598,0.98924
193.81,27.92482,0.05916066,0.13889,0.9889
194.41,27.9781,0.05779935,0.14256,0.98856
195.01,28.03169,0.05799736,0.1392,0.98822
195.61,28.0851,0.0591199,0.14005,0.98788
196.21,28.1387,0.05940585,0.13914,0.98753
196.81,28.1922,0.06640805,0.13798,0.98719
197.41,28.24573,0.05567143,0.14139,0.98684
198.01,28.2992,0.05780339,0.14031,0.9865
198.61,28.35251,0.06107522,0.1424,0.98615
199.21,28.40597,0.06042967,0.13901,0.9858
199.81,28.4593,0.05888885,0.1426,0.98546
200.41,28.51287,0.05960693,0.14011,0.98511
201.01,28.5665,0.06879309,0.14096,0.98475
201.61,28.62,0.05685277,0.14297,0.9844
202.21,28.67326,0.05618001,0.14078,0.98405
202.81,28.7262,0.06064896,0.14187,0.9837
203.41,28.7791,0.05768907,0.14392,0.98334
204.01,28.8322,0.05735078,0.14204,0.98299
204.61,28.88526,0.05888717,0.14159,0.98263
205.21,28.9386,0.05889,0.14235,0.98227
205.81,28.9921,0.05889011,0.14331,0.98191
206.41,29.04587,0.05866632,0.14339,0.98156
207.01,29.0998,0.05927998,0.14327,0.9812
207.61,29.15359,0.0599126,0.14488,0.98083
208.21,29.20706,0.05922923,0.14395,0.98047
208.81,29.26035,0.05922978,0.14428,0.98011
209.41,29.31377,0.05820191,0.14581,0.97975
210.01,29.36719,0.05810133,0.14394,0.97938
210.61,29.42063,0.05933366,0.14544,0.97902
211.21,29.4741,0.060316,0.1468,0.97865
211.81,29.52755,0.05879496,0.14844,0.97828
212.41,29.5811,0.05779391,0.14564,0.97791
213.01,29.63454,0.05787721,0.14693,0.97754
213.61,29.6879,0.05911956,0.14612,0.97717
214.21,29.7413,0.05910773,0.14749,0.9768
214.81,29.7945,0.05642996,0.14954,0.97643
215.41,29.84777,0.05494044,0.14889,0.97606
216.01,29.90115,0.05658865,0.14787,0.97568
216.61,29.95453,0.05779392,0.14783,0.97531
217.21,30.008,0.0587858,0.14769,0.97493
217.81,30.0615,0.05746674,0.14827,0.97456
218.41,30.11494,0.0574675,0.14823,0.97418
219.01,30.16838,0.05779857,0.1476,0.9738
219.61,30.2218,0.05866591,0.1464,0.97342
220.21,30.2753,0.05901651,0.14833,0.97304
220.81,30.3288,0.05769011,0.14988,0.97266
221.41,30.38232,0.05769017,0.14858,0.97228
222.01,30.43587,0.05730048,0.14991,0.9719
222.61,30.4893,0.05637202,0.15005,0.97152
223.21,30.54267,0.05502281,0.14973,0.97113
223.81,30.596,0.0564867,0.15056,0.97075
224.41,30.6494,0.05484004,0.15184,0.97036
225.01,30.7029,0.05484,0.14929,0.96997
225.61,30.7565,0.05484,0.15199,0.96959
226.21,30.81005,0.05484002,0.1491,0.9692
226.81,30.8636,0.05563838,0.15194,0.96881
227.41,30.91718,0.05615855,0.15006,0.96842
228.01,30.97069,0.05443957,0.15314,0.96803
228.61,31.0242,0.0535358,0.15022,0.96764
229.21,31.0777,0.05488852,0.15107,0.96724
229.81,31.1312,0.05483698,0.15104,0.96685
230.41,31.1846,0.05646232,0.15121,0.96646
231.01,31.23821,0.05528054,0.15046,0.96606
231.61,31.29175,0.05491768,0.14993,0.96567
232.21,31.3454,0.05395677,0.15176,0.96527
232.81,31.399,0.05362999,0.15107,0.96487
233.41,31.4527,0.05363,0.15136,0.96447
234.01,31.50635,0.05363047,0.15205,0.96408
234.61,31.5599,0.0525935,0.15083,0.96368
235.21,31.6136,0.05126917,0.15155,0.96328
235.81,31.66687,0.05133091,0.15225,0.96287
236.41,31.7202,0.05267141,0.15192,0.96247
237.01,31.77358,0.05330316,0.15344,0.96207
237.61,31.8269,0.05239703,0.15218,0.96167
238.21,31.88012,0.05198993,0.15271,0.96126
238.81,31.93331,0.05199084,0.15238,0.96086
239.41,31.98698,0.05319718,0.15248,0.96045
240.01,32.0406,0.0519891,0.1498,0.96004
240.61,32.09472,0.05072152,0.14988,0.95964
241.21,32.1488,0.05067,0.15194,0.95923
241.81,32.2024,0.05066095,0.15091,0.95882
242.41,32.25623,0.04935726,0.15102,0.95841
243.01,32.30995,0.04801949,0.14982,0.958
243.61,32.36373,0.04944398,0.1516,0.95759
244.21,32.41746,0.04934719,0.15175,0.95718
244.81,32.47125,0.05065785,0.15402,0.95676
245.41,32.52495,0.04939618,0.15232,0.95635
246.01,32.57887,0.04935,0.15065,0.95593
246.61,32.63272,0.04934999,0.15224,0.95552
247.21,32.68679,0.04935595,0.15226,0.9551
247.81,32.74091,0.04793233,0.15223,0.95469
248.41,32.79475,0.04928497,0.14991,0.95427
249.01,32.8482,0.04923999,0.15099,0.95385
249.61,32.9017,0.0492485,0.15347,0.95343
250.21,32.9557,0.04825437,0.14942,0.95301
250.81,33.00967,0.04662053,0.15262,0.95259
251.41,33.06402,0.04537022,0.15298,0.95217
252.01,33.11802,0.04530903,0.15079,0.95175
252.61,33.17173,0.04636428,0.15123,0.95133
253.21,33.2256,0.04662013,0.15147,0.95091
253.81,33.27928,0.04662002,0.15175,0.95048
254.41,33.33297,0.04756543,0.15124,0.95006
255.01,33.38684,0.04511895,0.15294,0.94963
255.61,33.4407,0.04505192,0.15174,0.94921
256.21,33.49454,0.04640046,0.15006,0.94878
256.81,33.54837,0.04639924,0.14998,0.94835
257.41,33.60221,0.04507309,0.15231,0.94793
258.01,33.65596,0.04508323,0.1513,0.9475
258.61,33.70984,0.04354709,0.15271,0.94707
259.21,33.76376,0.04212495,0.15253,0.94664
259.81,33.8174,0.04222005,0.15256,0.94621
260.41,33.87129,0.0422229,0.15263,0.94578
261.01,33.9251,0.04089742,0.15353,0.94535
261.61,33.97887,0.04264286,0.15085,0.94491
262.21,34.0328,0.04330755,0.15049,0.94448
262.81,34.08672,0.04176721,0.15333,0.94405
263.41,34.14067,0.0418163,0.15053,0.94361
264.01,34.19458,0.04347657,0.15046,0.94318
264.61,34.24837,0.04251033,0.14985,0.94274
265.21,34.3021,0.04064832,0.14978,0.9423
265.81,34.35577,0.03869177,0.1519,0.94187
266.41,34.4095,0.03838027,0.15051,0.94143
267.01,34.46325,0.03969203,0.14827,0.94099
267.61,34.51719,0.03837732,0.14668,0.94055
268.21,34.57131,0.03838213,0.14849,0.94011
268.81,34.62542,0.03773516,0.14739,0.93967
269.41,34.67947,0.04007997,0.14579,0.93923
270.01,34.7335,0.03723734,0.1476,0.93879
270.61,34.7874,0.03454129,0.14818,0.93835
271.21,34.84148,0.03432685,0.14675,0.9379
271.81,34.89546,0.03302943,0.14547,0.93746
272.41,34.94951,0.03434849,0.14549,0.93702
273.01,35.00329,0.03432986,0.14651,0.93657
273.61,35.05729,0.03433,0.14865,0.93613
274.21,35.11136,0.0343302,0.14743,0.93568
274.81,35.1653,0.03383946,0.14638,0.93523
275.41,35.21966,0.0343344,0.14423,0.93479
276.01,35.2736,0.03300574,0.14447,0.93434
276.61,35.32757,0.03267816,0.14588,0.93389
277.21,35.38153,0.03136473,0.146,0.93344
277.81,35.43574,0.0326585,0.14257,0.93299
278.41,35.49,0.03133102,0.14217,0.93254
279.01,35.54422,0.03361422,0.14044,0.93209
279.61,35.5984,0.03360584,0.13979,0.93164
280.21,35.65245,0.02508103,0.14149,0.93119
280.81,35.7065,0.02768893,0.14047,0.93074
281.41,35.76056,0.02632064,0.14354,0.93028
282.01,35.81471,0.02631992,0.14115,0.92983
282.61,35.86869,0.02492432,0.14228,0.92938
283.21,35.92292,0.02358228,0.14477,0.92892
283.81,35.97719,0.023276,0.1405,0.92847
284.41,36.03156,0.02497684,0.13924,0.92801
285.01,36.08586,0.02449315,0.13748,0.92755
285.61,36.1402,0.02488893,0.13609,0.9271
286.21,36.1944,0.02484062,0.13526,0.92664
286.81,36.2485,0.0222604,0.13508,0.92618
287.41,36.3029,0.02224965,0.13345,0.92572
288.01,36.3572,0.02094002,0.1337,0.92526
288.61,36.4116,0.02225904,0.13472,0.9248
289.21,36.46597,0.02205302,0.13156,0.92434
289.81,36.5203,0.0225097,0.13258,0.92388
290.41,36.57476,0.02116291,0.13014,0.92342
291.01,36.62915,0.02094,0.12935,0.92296
291.61,36.6837,0.01987324,0.13336,0.9225
292.21,36.73815,0.01951994,0.1313,0.92204
292.81,36.7924,0.01952008,0.1307,0.92157
293.41,36.84655,0.01930564,0.13049,0.92111
294.01,36.9009,0.01886765,0.12971,0.92064
294.61,36.95521,0.01675099,0.12872,0.92018
295.21,37.00966,0.01600998,0.12894,0.91971
295.81,37.06428,0.01514948,0.12774,0.91925
296.41,37.11862,0.01564234,0.12908,0.91878
297.01,37.17302,0.01599667,0.12712,0.91832
297.61,37.22746,0.01269328,0.12737,0.91785
298.21,37.28188,0.01277208,0.12849,0.91738
298.81,37.33658,0.01141002,0.128,0.91691
299.41,37.39112,0.01244908,0.12813,0.91644
300.01,37.44566,0.01202598,0.12473,0.91597
300.61,37.50013,0.01104581,0.12896,0.9155
301.21,37.55461,0.009735119,0.12606,0.91503
301.81,37.6089,0.01008852,0.12696,0.91456
302.41,37.66332,0.01006085,0.12527,0.91409
303.01,37.71782,0.01048383,0.12415,0.91362
303.61,37.7723,0.00740171,0.12463,0.91315
304.21,37.8268,0.00636096,0.1219,0.91268
304.81,37.88128,0.006360001,0.12164,0.9122
305.41,37.93567,0.00636,0.12369,0.91173
306.01,37.99005,0.00636,0.12092,0.91125
306.61,38.0445,0.00635995,0.12058,0.91078
307.21,38.09897,0.006364396,0.119,0.91031
307.81,38.1534,0.00187272,0.11892,0.90983
308.41,38.2079,0.0005576357,0.11875,0.90935
309.01,38.26238,0.00427708,0.11754,0.90888
309.61,38.31694,0.004236671,0.11684,0.9084
310.21,38.3715,0.0009372678,0.11623,0.90792
310.81,38.42608,-0.00187679,0.11708,0.90745
311.41,38.48068,-0.000559329,0.11477,0.90697
312.01,38.53525,-0.001937851,0.11212,0.90649
312.61,38.58977,-0.003066632,0.11303,0.90601
313.21,38.64428,-0.00361739,0.11152,0.90553
313.81,38.69869,-0.002306033,0.11335,0.90505
314.41,38.75318,-0.00451834,0.11038,0.90457
315.01,38.8078,-0.004940115,0.11041,0.90409
315.61,38.86242,-0.004973694,0.10964,0.90361
316.21,38.91722,-0.00327526,0.10746,0.90313
316.81,38.97189,-0.005380975,0.10637,0.90265
317.41,39.0267,-0.00802908,0.10668,0.90217
318.01,39.08175,-0.00672451,0.10575,0.90168
318.61,39.13664,-0.007995311,0.10318,0.9012
319.21,39.19154,-0.008306825,0.10632,0.90072
319.81,39.24625,-0.00965258,0.10257,0.90023
320.41,39.30109,-0.009650002,0.10132,0.89975
321.01,39.3559,-0.00965,0.10233,0.89927
321.61,39.41063,-0.009650037,0.09980762,0.89878
322.21,39.46546,-0.009552696,0.09900613,0.8983
322.81,39.52016,-0.01096864,0.09784827,0.89781
323.41,39.57492,-0.01228882,0.09721693,0.89732
324.01,39.62977,-0.01360862,0.09466133,0.89684
324.61,39.68466,-0.01456302,0.09236176,0.89635
325.21,39.73952,-0.01492201,0.09017958,0.89586
325.81,39.79452,-0.01631479,0.08929261,0.89538
326.41,39.84937,-0.01754421,0.08939356,0.89489
327.01,39.90429,-0.01559879,0.08870078,0.8944
327.61,39.95924,-0.01547029,0.08383511,0.89391
328.21,40.01424,-0.01705812,0.08436654,0.89342
328.81,40.06924,-0.01809999,0.08110043,0.89293
329.41,40.12415,-0.01702146,0.07996339,0.89244
330.01,40.1789,-0.01865553,0.08017995,0.89195
330.61,40.23385,-0.02005181,0.07783065,0.89146
331.21,40.28877,-0.02237963,0.07622982,0.89097
331.81,40.34383,-0.02238781,0.07413442,0.89048
332.41,40.39912,-0.0237953,0.07349955,0.88999
333.01,40.45414,-0.02424009,0.07380083,0.8895
333.61,40.5092,-0.02424014,0.07445662,0.88901
334.21,40.56415,-0.02555789,0.06992388,0.88851
334.81,40.61903,-0.0268721,0.06907346,0.88802
335.41,40.67407,-0.02687017,0.06587296,0.88753
336.01,40.729,-0.02686203,0.06649055,0.88703
336.61,40.784,-0.02840948,0.06556323,0.88654
337.21,40.83907,-0.02906169,0.06614991,0.88605
337.81,40.89425,-0.03017958,0.06170437,0.88555
338.41,40.94952,-0.03114991,0.05811339,0.88506
339.01,41.0048,-0.02988014,0.05806953,0.88456
339.61,41.06004,-0.03115756,0.05654296,0.88407
340.21,41.11525,-0.03247035,0.05341007,0.88357
340.81,41.17031,-0.0324812,0.05227365,0.88308
341.41,41.22526,-0.03258067,0.04986868,0.88258
342.01,41.28042,-0.0338782,0.04967544,0.88208
342.61,41.33582,-0.03521147,0.04672722,0.88159
343.21,41.39134,-0.03377307,0.04642472,0.88109
343.81,41.44692,-0.03229666,0.04438767,0.88059
344.41,41.50243,-0.03198967,0.04227994,0.8801
345.01,41.55793,-0.03082132,0.03792936,0.8796
345.61,41.6133,-0.03214683,0.0378468,0.8791
346.21,41.66898,-0.0321401,0.0357979,0.8786
346.81,41.72466,-0.03361835,0.03385051,0.8781
347.41,41.78033,-0.03514016,0.03357832,0.8776
348.01,41.83594,-0.03641931,0.03206938,0.8771
348.61,41.89167,-0.03637146,0.03139705,0.87661
349.21,41.94728,-0.03773873,0.02763522,0.87611
349.81,42.00306,-0.0364124,0.025689,0.87561
350.41,42.05873,-0.03642012,0.02303368,0.87511
351.01,42.11432,-0.03512478,0.01860843,0.8746
351.61,42.16964,-0.03689687,0.02004321,0.8741
352.21,42.225,-0.04385317,0.01884659,0.8736
352.81,42.28025,-0.04692762,0.01662724,0.8731
353.41,42.33582,-0.05111445,0.01467643,0.8726
354.01,42.3919,-0.05024424,0.01206043,0.8721
354.61,42.4482,-0.04407921,0.01182374,0.8716
355.21,42.50423,-0.04462299,0.008288181,0.87109
355.81,42.5601,-0.04761459,0.007147818,0.87059
356.41,42.61575,-0.04725337,0.004204788,0.87009
357.01,42.67123,-0.05150462,0.005343517,0.86959
357.61,42.7268,-0.05628838,0.004338381,0.86908
358.21,42.78239,-0.05673041,0.00130098,0.86858
358.81,42.83808,-0.05306998,-0.00270745,0.86808
359.41,42.89375,-0.05388218,-0.003492261,0.86757
360.01,42.94941,-0.05308995,-0.004977494,0.86707
360.61,43.00512,-0.05308702,-0.00941335,0.86656
361.21,43.06087,-0.05485323,-0.00905529,0.86606
361.81,43.1167,-0.05826204,-0.0115615,0.86556
362.41,43.1723,-0.05659497,-0.01499943,0.86505
363.01,43.228,-0.05660781,-0.01564893,0.86455
363.61,43.28348,-0.05814134,-0.01845058,0.86404
364.21,43.3388,-0.0592327,-0.01771582,0.86354
364.81,43.39455,-0.0605088,-0.02015406,0.86303
365.41,43.45029,-0.06245557,-0.01866423,0.86252
366.01,43.50618,-0.06294738,-0.02017052,0.86202
366.61,43.56227,-0.06340013,-0.0217209,0.86151
367.21,43.6182,-0.06339999,-0.02171201,0.86101
367.81,43.67393,-0.06336363,-0.023056,0.8605
368.41,43.7296,-0.06636133,-0.0232165,0.85999
369.01,43.7853,-0.06635994,-0.02395245,0.85949
369.61,43.84097,-0.06787585,-0.02561532,0.85898
370.21,43.89675,-0.06790007,-0.02423008,0.85847
370.81,43.9525,-0.06962107,-0.02418904,0.85796
371.41,44.00833,-0.07162521,-0.02519077,0.85746
372.01,44.06413,-0.07090968,-0.02301352,0.85695
372.61,44.11998,-0.07415297,-0.01892011,0.85644
373.21,44.1757,-0.07414247,-0.02211261,0.85593
373.81,44.2316,-0.07478537,-0.02127885,0.85542
374.41,44.2876,-0.07482765,-0.01824086,0.85492
375.01,44.34356,-0.07615107,-0.01873783,0.85441
375.61,44.39954,-0.0789716,-0.01699681,0.8539
376.21,44.45535,-0.0805564,-0.01301181,0.85339
376.81,44.51119,-0.08177577,-0.01069542,0.85288
377.41,44.56738,-0.08377732,-0.0057988,0.85237
378.01,44.6233,-0.08487989,-0.007678255,0.85186
378.61,44.67947,-0.08359965,-0.00587635,0.85135
379.21,44.73551,-0.08643455,-0.001125337,0.85084
379.81,44.7915,-0.0876549,0.001280554,0.85033
380.41,44.84755,-0.09191204,0.005430287,0.84982
381.01,44.90355,-0.09197984,0.009185049,0.84931
381.61,44.9595,-0.09403365,0.0135527,0.8488
382.21,45.01567,-0.09536597,0.01966685,0.84829
382.81,45.0717,-0.09629844,0.02234805,0.84778
383.41,45.12794,-0.09775947,0.02508298,0.84727
384.01,45.18416,-0.09904417,0.02932502,0.84676
384.61,45.24018,-0.10154,0.03552027,0.84625
385.21,45.2962,-0.1034,0.04041303,0.84574
385.81,45.35237,-0.10643,0.04486551,0.84523
386.41,45.40832,-0.10826,0.05094903,0.84472
387.01,45.46438,-0.1096,0.05714706,0.84421
387.61,45.52033,-0.11088,0.0665928,0.8437
388.21,45.5764,-0.11385,0.0741496,0.84318
388.81,45.6325,-0.1157,0.08116243,0.84267
389.41,45.68868,-0.11832,0.08916618,0.84216
390.01,45.74491,-0.12136,0.09994411,0.84165
390.61,45.8011,-0.12724,0.11103,0.84114
391.21,45.8573,-0.13172,0.11849,0.84063
391.81,45.91339,-0.13177,0.12826,0.84011
392.41,45.9696,-0.13492,0.13627,0.8396
393.01,46.0257,-0.14001,0.14747,0.83909
393.61,46.08194,-0.14147,0.15753,0.83858
394.21,46.13815,-0.14414,0.17091,0.83807
394.81,46.19447,-0.15034,0.18329,0.83755
395.41,46.2507,-0.14952,0.19479,0.83704
396.01,46.30686,-0.14951,0.20854,0.83653
396.61,46.36287,-0.15461,0.22294,0.83602
397.21,46.41923,-0.16213,0.23981,0.8355
397.81,46.47558,-0.17007,0.25779,0.83499
398.41,46.5321,-0.17377,0.27291,0.83448
399.01,46.58874,-0.1755,0.28966,0.83397
399.61,46.64535,-0.17752,0.30659,0.83345
400.21,46.70196,-0.18268,0.32666,0.83294
400.81,46.75828,-0.19056,0.34483,0.83243
401.41,46.81475,-0.19294,0.36813,0.83192
402.01,46.87127,-0.19957,0.38967,0.8314
402.61,46.92785,-0.20336,0.41279,0.83089
403.21,46.98453,-0.21171,0.43698,0.83038
403.81,47.04119,-0.22172,0.46529,0.82986
404.41,47.09769,-0.22973,0.49569,0.82935
405.01,47.15416,-0.23607,0.5255,0.82884
405.61,47.21063,-0.24299,0.55534,0.82832
406.21,47.2671,-0.2491,0.59119,0.82781
406.81,47.32363,-0.25677,0.62602,0.8273
407.41,47.38029,-0.26716,0.65969,0.82678
408.01,47.43697,-0.27694,0.69916,0.82627
408.61,47.49387,-0.28725,0.74255,0.82576
409.21,47.55063,-0.2973,0.78412,0.82524
409.81,47.60733,-0.31086,0.82838,0.82473
410.41,47.66406,-0.32171,0.87681,0.82422
411.01,47.7207,-0.33449,0.92657,0.8237
411.61,47.77783,-0.34325,0.98335,0.82319
412.21,47.83483,-0.35965,1.03765,0.82268
412.81,47.89188,-0.3727,1.09969,0.82216
413.41,47.94899,-0.39428,1.16106,0.82165
414.01,48.006,-0.40747,1.22823,0.82114
414.61,48.06306,-0.42602,1.29703,0.82062
415.21,48.12005,-0.44156,1.36535,0.82011
415.81,48.1772,-0.46224,1.44296,0.8196
416.41,48.23434,-0.48286,1.51989,0.81908
417.01,48.29144,-0.50576,1.59976,0.81857
417.61,48.34854,-0.52634,1.68324,0.81806
418.21,48.40555,-0.55367,1.7743,0.81754
418.81,48.46282,-0.58122,1.86549,0.81703
419.41,48.5199,-0.60642,1.96055,0.81652
420.01,48.5772,-0.63387,2.05942,0.816
420.61,48.6345,-0.66441,2.15784,0.81549
421.21,48.69206,-0.69827,2.26134,0.81498
421.81,48.74978,-0.72918,2.36293,0.81446
422.41,48.80741,-0.76245,2.46595,0.81395
423.01,48.86479,-0.80091,2.57633,0.81344
423.61,48.92228,-0.83922,2.68401,0.81292
424.21,48.9798,-0.87948,2.78821,0.81241
424.81,49.03739,-0.92058,2.88798,0.8119
425.41,49.09502,-0.96469,2.98967,0.81139
426.01,49.15269,-1.00802,3.09006,0.81087
426.61,49.2104,-1.05458,3.18451,0.81036
427.21,49.26828,-1.10118,3.28219,0.80985
427.81,49.326,-1.15191,3.37295,0.80933
428.41,49.3837,-1.20012,3.45669,0.80882
429.01,49.44128,-1.25147,3.53901,0.80831
429.61,49.49855,-1.3084,3.61441,0.8078
430.21,49.55592,-1.36287,3.6791,0.80728
430.81,49.61331,-1.41766,3.73644,0.80677
431.41,49.6708,-1.47558,3.78885,0.80626
432.01,49.72869,-1.53688,3.83041,0.80575
432.61,49.7859,-1.59852,3.86687,0.80523
433.21,49.84336,-1.65001,3.88751,0.80472
433.81,49.90072,-1.71142,3.90285,0.80421
434.41,49.95791,-1.77007,3.90833,0.8037
435.01,50.01554,-1.83103,3.9071,0.80319
435.61,50.07286,-1.89219,3.89706,0.80267
436.21,50.1301,-1.95027,3.87417,0.80216
436.81,50.18744,-2.01309,3.84468,0.80165
437.41,50.24473,-2.0704,3.80015,0.80114
438.01,50.30191,-2.12906,3.75015,0.80063
438.61,50.35942,-2.18943,3.69424,0.80012
439.21,50.41669,-2.24541,3.62623,0.7996
439.81,50.4741,-2.3032,3.55284,0.79909
440.41,50.53139,-2.35787,3.47435,0.79858
441.01,50.5886,-2.41067,3.38604,0.79807
441.61,50.64578,-2.46196,3.29704,0.79756
442.21,50.70282,-2.51515,3.20094,0.79705
442.81,50.75975,-2.56756,3.10302,0.79654
443.41,50.8168,-2.61516,2.9984,0.79603
444.01,50.87383,-2.66384,2.89474,0.79552
444.61,50.93075,-2.70762,2.78504,0.79501
445.21,50.98752,-2.75284,2.67821,0.7945
445.81,51.04444,-2.79557,2.57048,0.79399
446.41,51.1014,-2.83795,2.46316,0.79348
447.01,51.1584,-2.87345,2.35072,0.79297
447.61,51.21547,-2.91035,2.2413,0.79246
448.21,51.27227,-2.94974,2.13217,0.79195
448.81,51.32918,-2.9815,2.02339,0.79144
449.41,51.3861,-3.01723,1.91717,0.79093
450.01,51.44295,-3.05266,1.81351,0.79042
450.61,51.4998,-3.08281,1.71182,0.78991
451.21,51.55636,-3.11255,1.61023,0.7894
451.81,51.61322,-3.13862,1.51113,0.78889
452.41,51.67,-3.17,1.41613,0.78838
453.01,51.72675,-3.19186,1.32463,0.78787
453.61,51.78363,-3.21601,1.23458,0.78736
454.21,51.84043,-3.23605,1.14526,0.78685
454.81,51.897,-3.2619,1.06498,0.78635
455.41,51.9535,-3.2844,0.98352,0.78584
456.01,52.01003,-3.30086,0.90859,0.78533
456.61,52.0666,-3.32093,0.83778,0.78482
457.21,52.12343,-3.33395,0.77159,0.78431
457.81,52.1802,-3.35167,0.71009,0.78381
458.41,52.23723,-3.37151,0.65544,0.7833
459.01,52.29424,-3.39119,0.6042,0.78279
459.61,52.35156,-3.40556,0.55036,0.78228
460.21,52.40894,-3.41558,0.50256,0.78178
460.81,52.4659,-3.43064,0.4625,0.78127
461.41,52.523,-3.44561,0.42087,0.78076
462.01,52.5801,-3.457,0.3856,0.78026
462.61,52.6372,-3.4647,0.34991,0.77975
463.21,52.69446,-3.47372,0.31634,0.77924
463.81,52.7516,-3.49259,0.2911,0.77874
464.41,52.8086,-3.50152,0.25938,0.77823
465.01,52.86575,-3.51044,0.23704,0.77773
465.61,52.92306,-3.51779,0.20897,0.77722
466.21,52.9803,-3.52625,0.18427,0.77672
466.81,53.0376,-3.53501,0.16335,0.77621
467.41,53.09499,-3.55247,0.13971,0.77571
468.01,53.15234,-3.56031,0.12192,0.7752
468.61,53.2098,-3.56563,0.0957639,0.7747
469.21,53.2669,-3.57294,0.07501657,0.77419
469.81,53.32433,-3.58065,0.05454453,0.77369
470.41,53.38174,-3.58884,0.03076837,0.77318
471.01,53.4391,-3.59376,0.01030819,0.77268
471.61,53.4967,-3.60278,-0.002463584,0.77218
472.21,53.5541,-3.60875,-0.02503261,0.77167
472.81,53.61156,-3.61449,-0.04659135,0.77117
473.41,53.6691,-3.6226,-0.06195076,0.77067
474.01,53.7264,-3.629,-0.08058137,0.77016
474.61,53.78385,-3.635,-0.0992442,0.76966
475.21,53.8413,-3.63879,-0.11815,0.76916
475.81,53.89892,-3.64178,-0.13508,0.76866
476.41,53.9566,-3.64854,-0.15289,0.76815
477.01,54.01426,-3.65215,-0.16756,0.76765
477.61,54.0722,-3.65774,-0.18457,0.76715
478.21,54.13,-3.66042,-0.20138,0.76665
478.81,54.18761,-3.66429,-0.21815,0.76615
479.41,54.2453,-3.66767,-0.23691,0.76565
480.01,54.30293,-3.67064,-0.25182,0.76515
480.61,54.3606,-3.67183,-0.265,0.76465
481.21,54.41839,-3.6744,-0.27989,0.76414
481.81,54.4762,-3.67739,-0.30008,0.76364
482.41,54.5341,-3.67815,-0.3106,0.76314
483.01,54.59206,-3.68035,-0.32228,0.76265
483.61,54.6499,-3.683,-0.33407,0.76215
484.21,54.7078,-3.68591,-0.34386,0.76165
484.81,54.7657,-3.68752,-0.35428,0.76115
485.41,54.8237,-3.68622,-0.36711,0.76065
486.01,54.8819,-3.68773,-0.37398,0.76015
486.61,54.94002,-3.68849,-0.38549,0.75965
487.21,54.99808,-3.69053,-0.39113,0.75915
487.81,55.05613,-3.69205,-0.3988,0.75866
488.41,55.11396,-3.69192,-0.40334,0.75816
489.01,55.17187,-3.69193,-0.41195,0.75766
489.61,55.22975,-3.69197,-0.41706,0.75716
490.21,55.2878,-3.69469,-0.42094,0.75667
490.81,55.34594,-3.69478,-0.4246,0.75617
491.41,55.4039,-3.69479,-0.4282,0.75567
492.01,55.46179,-3.69633,-0.42945,0.75518
492.61,55.51959,-3.69906,-0.43375,0.75468
493.21,55.5776,-3.69805,-0.43318,0.75419
493.81,55.63567,-3.69675,-0.43961,0.75369
494.41,55.6937,-3.69573,-0.44021,0.7532
495.01,55.7518,-3.69543,-0.44371,0.7527
495.61,55.80989,-3.69508,-0.44335,0.75221
496.21,55.868,-3.69379,-0.44924,0.75171
496.81,55.9261,-3.69379,-0.4523,0.75122
497.41,55.98405,-3.69378,-0.45363,0.75073
498.01,56.0421,-3.69511,-0.46064,0.75023
498.61,56.10017,-3.69642,-0.46425,0.74974
499.21,56.1581,-3.69642,-0.47235,0.74925
499.81,56.2163,-3.69642,-0.47967,0.74875
500.41,56.2744,-3.69642,-0.48701,0.74826
501.01,56.3326,-3.69501,-0.48886,0.74777
501.61,56.39071,-3.69613,-0.48384,0.74728
502.21,56.4485,-3.6961,-0.48602,0.74679
502.81,56.50629,-3.69613,-0.48939,0.74629
503.41,56.56434,-3.69562,-0.48661,0.7458
504.01,56.62237,-3.69394,-0.48613,0.74531
504.61,56.68084,-3.69137,-0.48924,0.74482
505.21,56.73902,-3.69399,-0.48639,0.74433
505.81,56.79727,-3.69949,-0.48898,0.74384
506.41,56.856,-3.69496,-0.49574,0.74335
507.01,56.91457,-3.69727,-0.48952,0.74286
507.61,56.9734,-3.70117,-0.48875,0.74237
508.21,57.032,-3.69588,-0.49044,0.74189
508.81,57.09059,-3.69465,-0.49124,0.7414
509.41,57.149,-3.69467,-0.49311,0.74091
510.01,57.2075,-3.6949,-0.49335,0.74042
510.61,57.266,-3.69489,-0.4947,0.73993
511.21,57.3248,-3.69615,-0.49196,0.73945
511.81,57.38357,-3.69462,-0.49436,0.73896
512.41,57.4424,-3.69467,-0.49266,0.73847
513.01,57.50099,-3.69467,-0.49444,0.73799
513.61,57.5593,-3.69501,-0.49358,0.7375
514.21,57.6177,-3.69435,-0.49525,0.73701
514.81,57.6761,-3.69596,-0.49523,0.73653
515.41,57.73431,-3.69445,-0.49722,0.73604
516.01,57.7926,-3.69545,-0.49562,0.73556
516.61,57.851,-3.70229,-0.4934,0.73508
517.21,57.90942,-3.70374,-0.49207,0.73459
517.81,57.96826,-3.69697,-0.4978,0.73411
518.41,58.02686,-3.69124,-0.49972,0.73362
519.01,58.08514,-3.68656,-0.50338,0.73314
519.61,58.1436,-3.69291,-0.50093,0.73266
520.21,58.20169,-3.70117,-0.49871,0.73218
520.81,58.26024,-3.70328,-0.49928,0.73169
521.41,58.31835,-3.7034,-0.4959,0.73121
522.01,58.37675,-3.69844,-0.49952,0.73073
522.61,58.4352,-3.69058,-0.50261,0.73025
523.21,58.4936,-3.69632,-0.5005,0.72977
523.81,58.5521,-3.69626,-0.50346,0.72929
524.41,58.61025,-3.69816,-0.49747,0.72881
525.01,58.6687,-3.70099,-0.50299,0.72833
525.61,58.72699,-3.69731,-0.50357,0.72785
526.21,58.786,-3.69745,-0.5066,0.72737
526.81,58.8446,-3.69837,-0.50651,0.72689
527.41,58.9032,-3.69205,-0.50515,0.72641
528.01,58.96224,-3.69545,-0.50449,0.72593
528.61,59.02109,-3.69644,-0.50623,0.72545
529.21,59.0798,-3.69642,-0.50988,0.72498
529.81,59.13856,-3.69885,-0.50818,0.7245
530.41,59.1974,-3.69629,-0.51142,0.72402
531.01,59.25585,-3.69516,-0.51113,0.72355
531.61,59.3147,-3.6947,-0.51285,0.72307
532.21,59.3736,-3.69465,-0.50958,0.72259
532.81,59.43258,-3.69465,-0.51217,0.72212
533.41,59.4915,-3.69465,-0.51177,0.72164
534.01,59.55013,-3.69467,-0.51214,0.72117
534.61,59.6088,-3.69803,-0.50987,0.72069
535.21,59.6675,-3.6994,-0.51529,0.72022
535.81,59.72648,-3.69818,-0.51467,0.71975
536.41,59.78539,-3.69329,-0.51504,0.71927
537.01,59.84418,-3.69341,-0.51514,0.7188
537.61,59.90288,-3.69961,-0.51595,0.71833
538.21,59.9614,-3.70331,-0.51396,0.71786
538.81,60.02018,-3.70105,-0.51616,0.71738
539.41,60.0788,-3.69556,-0.51446,0.71691
540.01,60.1376,-3.69443,-0.51905,0.71644
540.61,60.1965,-3.69577,-0.52368,0.71597
541.21,60.25551,-3.69583,-0.52465,0.7155
541.81,60.3146,-3.69264,-0.52904,0.71503
542.41,60.37345,-3.69145,-0.52929,0.71456
543.01,60.4322,-3.694,-0.52881,0.71409
543.61,60.49085,-3.69548,-0.53175,0.71362
544.21,60.5494,-3.69831,-0.52895,0.71315
544.81,60.6079,-3.70254,-0.52855,0.71268
545.41,60.6667,-3.70475,-0.52432,0.71222
546.01,60.7256,-3.70004,-0.53051,0.71175
546.61,60.7847,-3.69197,-0.53689,0.71128
547.21,60.84385,-3.69617,-0.53139,0.71082
547.81,60.9028,-3.70024,-0.53104,0.71035
548.41,60.96179,-3.701,-0.53173,0.70988
549.01,61.02098,-3.69803,-0.533,0.70942
549.61,61.08008,-3.69392,-0.53048,0.70895
550.21,61.13913,-3.69467,-0.53569,0.70849
550.81,61.19805,-3.69642,-0.53841,0.70802
551.41,61.25671,-3.69493,-0.54068,0.70756
552.01,61.3156,-3.69227,-0.54125,0.70709
552.61,61.37424,-3.69368,-0.53976,0.70663
553.21,61.43303,-3.695,-0.54065,0.70617
553.81,61.49193,-3.69847,-0.54357,0.70571
554.41,61.55078,-3.69839,-0.54158,0.70524
555.01,61.60974,-3.69839,-0.54142,0.70478
555.61,61.6688,-3.69577,-0.54046,0.70432
556.21,61.72772,-3.69441,-0.54362,0.70386
556.81,61.7865,-3.69525,-0.53646,0.7034
557.41,61.8452,-3.69649,-0.54035,0.70294
558.01,61.90404,-3.69634,-0.53916,0.70248
558.61,61.963,-3.69869,-0.53935,0.70202
559.21,62.022,-3.69994,-0.54521,0.70156
559.81,62.0811,-3.69979,-0.54613,0.7011
560.41,62.14014,-3.69987,-0.54501,0.70064
561.01,62.19922,-3.69522,-0.54979,0.70019
561.61,62.25824,-3.69836,-0.54856,0.69973
562.21,62.3173,-3.69655,-0.55318,0.69927
562.81,62.37644,-3.69573,-0.54977,0.69882
563.41,62.4356,-3.69847,-0.55238,0.69836
564.01,62.49448,-3.69515,-0.55663,0.6979
564.61,62.5536,-3.69332,-0.5545,0.69745
565.21,62.6128,-3.69631,-0.55659,0.69699
565.81,62.67216,-3.69301,-0.5574,0.69654
566.41,62.7313,-3.69145,-0.56094,0.69609
567.01,62.7903,-3.6923,-0.55461,0.69563
567.61,62.84947,-3.69896,-0.55263,0.69518
568.21,62.90854,-3.69896,-0.5559,0.69473
568.81,62.96776,-3.69763,-0.55828,0.69427
569.41,63.0268,-3.69764,-0.5592,0.69382
570.01,63.08608,-3.69448,-0.56293,0.69337
570.61,63.1453,-3.70089,-0.55762,0.69292
571.21,63.20462,-3.70528,-0.56161,0.69247
571.81,63.26412,-3.69488,-0.56383,0.69202
572.41,63.32345,-3.69048,-0.56613,0.69157
573.01,63.38293,-3.69168,-0.56578,0.69112
573.61,63.442,-3.70074,-0.56326,0.69067
574.21,63.50127,-3.70477,-0.5669,0.69022
574.81,63.56055,-3.69721,-0.56878,0.68977
575.41,63.61981,-3.69109,-0.57101,0.68932
576.01,63.6791,-3.69116,-0.57037,0.68888
576.61,63.73834,-3.69912,-0.57341,0.68843
577.21,63.79756,-3.6958,-0.573,0.68798
577.81,63.8566,-3.694,-0.57729,0.68754
578.41,63.91585,-3.69645,-0.57539,0.68709
579.01,63.9751,-3.6947,-0.57759,0.68665
579.61,64.03418,-3.69372,-0.57642,0.6862
580.21,64.0933,-3.69372,-0.57957,0.68576
580.81,64.1524,-3.69878,-0.57498,0.68531
581.41,64.21152,-3.7058,-0.57391,0.68487
582.01,64.27067,-3.70038,-0.58021,0.68443
582.61,64.33009,-3.69707,-0.58008,0.68398
583.21,64.38946,-3.69575,-0.58572,0.68354
583.81,64.4487,-3.69313,-0.58571,0.6831
584.41,64.5081,-3.69313,-0.58728,0.68266
585.01,64.56732,-3.69314,-0.58656,0.68222
585.61,64.62658,-3.69177,-0.59019,0.68178
586.21,64.6861,-3.69381,-0.58777,0.68134
586.81,64.74524,-3.69852,-0.59042,0.6809
587.41,64.80457,-3.69175,-0.58868,0.68046
588.01,64.86381,-3.70204,-0.588,0.68002
588.61,64.92334,-3.69079,-0.59661,0.67958
589.21,64.9829,-3.69005,-0.59579,0.67914
589.81,65.04226,-3.69605,-0.59318,0.67871
590.41,65.10168,-3.69296,-0.59364,0.67827
591.01,65.16094,-3.6964,-0.59514,0.67783
591.61,65.22019,-3.69978,-0.59169,0.6774
592.21,65.27956,-3.70103,-0.59474,0.67696
592.81,65.33881,-3.69855,-0.59476,0.67653
593.41,65.3981,-3.69634,-0.5959,0.67609
594.01,65.45746,-3.69599,-0.59761,0.67566
594.61,65.51688,-3.6962,-0.59803,0.67523
595.21,65.57647,-3.69472,-0.60043,0.67479
595.81,65.6362,-3.69369,-0.59528,0.67436
596.41,65.69575,-3.69676,-0.59764,0.67393
597.01,65.7551,-3.69674,-0.59641,0.67349
597.61,65.81448,-3.69832,-0.59648,0.67306
598.21,65.8738,-3.69991,-0.5988,0.67263
598.81,65.9333,-3.69506,-0.59892,0.6722
599.41,65.99286,-3.69385,-0.60308,0.67177
600.01,66.05227,-3.69676,-0.60176,0.67134
600.61,66.11166,-3.6971,-0.6012,0.67091
601.21,66.17093,-3.69671,-0.6019,0.67048
601.81,66.23008,-3.69665,-0.60732,0.67006
602.41,66.28959,-3.69533,-0.60413,0.66963
603.01,66.3493,-3.69534,-0.60195,0.6692
603.61,66.40884,-3.69687,-0.60288,0.66877
604.21,66.4688,-3.69686,-0.6028,0.66835
604.81,66.5284,-3.6982,-0.60453,0.66792
605.41,66.58802,-3.69675,-0.60466,0.6675
606.01,66.6477,-3.69676,-0.60745,0.66707
606.61,66.70735,-3.69389,-0.61019,0.66665
607.21,66.76694,-3.69253,-0.60935,0.66622
607.81,66.82656,-3.69401,-0.60851,0.6658
608.41,66.88625,-3.69664,-0.60829,0.66538
609.01,66.94581,-3.69499,-0.61056,0.66495
609.61,67.00542,-3.69928,-0.60953,0.66453
610.21,67.06506,-3.69697,-0.61255,0.66411
610.81,67.1249,-3.69539,-0.61417,0.66369
611.41,67.18474,-3.69741,-0.61374,0.66327
612.01,67.2443,-3.69424,-0.61415,0.66285
612.61,67.3038,-3.69509,-0.6171,0.66243
613.21,67.36315,-3.69707,-0.61557,0.66201
613.81,67.4226,-3.69708,-0.62343,0.66159
614.41,67.48192,-3.69607,-0.61955,0.66117
615.01,67.54119,-3.69677,-0.62332,0.66075
615.61,67.6005,-3.69686,-0.62923,0.66033
616.21,67.65998,-3.69756,-0.62716,0.65992
616.81,67.71951,-3.69621,-0.62763,0.6595
617.41,67.779,-3.6949,-0.62883,0.65908
618.01,67.83839,-3.69359,-0.62963,0.65867
618.61,67.8978,-3.69691,-0.62995,0.65825
619.21,67.95721,-3.69687,-0.628,0.65784
619.81,68.0167,-3.69816,-0.62921,0.65742
620.41,68.0763,-3.69821,-0.63028,0.65701
621.01,68.13606,-3.69827,-0.63557,0.6566
621.61,68.19584,-3.69837,-0.63464,0.65618
622.21,68.25564,-3.6984,-0.63227,0.65577
622.81,68.31546,-3.69677,-0.63256,0.65536
623.41,68.37518,-3.69542,-0.63306,0.65495
624.01,68.4351,-3.69817,-0.62774,0.65454
624.61,68.49497,-3.69981,-0.63069,0.65413
625.21,68.55509,-3.70114,-0.63042,0.65372
625.81,68.615,-3.69899,-0.63385,0.65331
626.41,68.67504,-3.6964,-0.63329,0.6529
627.01,68.73501,-3.69427,-0.63712,0.65249
627.61,68.79502,-3.69212,-0.63806,0.65208
628.21,68.8545,-3.69241,-0.63653,0.65168
628.81,68.91371,-3.69605,-0.63524,0.65127
629.41,68.97351,-3.69711,-0.63362,0.65086
630.01,69.03369,-3.694,-0.64647,0.65046
630.61,69.09407,-3.6839,-0.64253,0.65005
631.21,69.1544,-3.70019,-0.64102,0.64965
631.81,69.21414,-3.69895,-0.63908,0.64924
632.41,69.2739,-3.69874,-0.64185,0.64884
633.01,69.33372,-3.69579,-0.64019,0.64843
633.61,69.3934,-3.69804,-0.63721,0.64803
634.21,69.4529,-3.69934,-0.63636,0.64763
634.81,69.5125,-3.70013,-0.63658,0.64723
635.41,69.57222,-3.70248,-0.64066,0.64682
636.01,69.63215,-3.69801,-0.64161,0.64642
636.61,69.6922,-3.69632,-0.64369,0.64602
637.21,69.75209,-3.69334,-0.64857,0.64562
637.81,69.81184,-3.69401,-0.64933,0.64522
638.41,69.87175,-3.69401,-0.64348,0.64482
639.01,69.93151,-3.69533,-0.64776,0.64442
639.61,69.99132,-3.69533,-0.64307,0.64403