File: 01_Data/PlasticC/STA/N2/10K_min/PlasticC_STA_N2_10KData_211026_R2.csv
##Temp./Â°C,Time/min,Mass loss(subtr.2)/mg,DSC(subtr.2)/(mW/mg),Sensit./(uV/mW)
49.845,10.01,-0.025,0.02263429,1.03584
50.445,11.45135,-0.0203035,0.04947639,1.03581
51.045,11.8263,-0.02899096,0.07197411,1.03578
51.645,12.08881,-0.02398151,0.08831281,1.03575
52.245,12.3073,-0.02518329,0.09798424,1.03572
52.845,12.49922,-0.02125842,0.11086,1.03568
53.445,12.6715,-0.02469999,0.11987,1.03565
54.045,12.8299,-0.02026953,0.13133,1.03561
54.645,12.97869,-0.02188304,0.13806,1.03557
55.245,13.11861,-0.02594278,0.14492,1.03553
55.845,13.2537,-0.02323616,0.15102,1.03548
56.445,13.3836,-0.01980705,0.15651,1.03544
57.045,13.5081,-0.02482256,0.16388,1.03539
57.645,13.6287,-0.02400997,0.16765,1.03534
58.245,13.74525,-0.02532909,0.17516,1.0353
58.845,13.85958,-0.02327885,0.17758,1.03524
59.445,13.9716,-0.02886201,0.18385,1.03519
60.045,14.0808,-0.02641885,0.18839,1.03514
60.645,14.1867,-0.02489431,0.19008,1.03508
61.245,14.2898,-0.01884406,0.19662,1.03503
61.845,14.3909,-0.0224184,0.20083,1.03497
62.445,14.49071,-0.01972975,0.20489,1.03491
63.045,14.58964,-0.02049443,0.20796,1.03485
63.645,14.6863,-0.01300675,0.21439,1.03478
64.245,14.78147,-0.02139798,0.21817,1.03472
64.845,14.8749,-0.02582109,0.22134,1.03465
65.445,14.96619,-0.02088518,0.22688,1.03459
66.045,15.05615,-0.02427041,0.22875,1.03452
66.645,15.1447,-0.03051201,0.2317,1.03445
67.245,15.23294,-0.02345004,0.23569,1.03437
67.845,15.32001,-0.02148944,0.23969,1.0343
68.445,15.4054,-0.03309566,0.24165,1.03422
69.045,15.49019,-0.02824413,0.24717,1.03415
69.645,15.57414,-0.02130501,0.25004,1.03407
70.245,15.65846,-0.02138143,0.25397,1.03399
70.845,15.7423,-0.02223969,0.25805,1.03391
71.445,15.82514,-0.02661149,0.25979,1.03383
72.045,15.90577,-0.02660772,0.26273,1.03374
72.645,15.98567,-0.02332192,0.26529,1.03366
73.245,16.0641,-0.02221739,0.26914,1.03357
73.845,16.14235,-0.0248759,0.2726,1.03348
74.445,16.2201,-0.02444838,0.27469,1.03339
75.045,16.29748,-0.02762909,0.27822,1.0333
75.645,16.37435,-0.03212471,0.28114,1.03321
76.245,16.45058,-0.03107923,0.28395,1.03311
76.845,16.5259,-0.02892827,0.28737,1.03302
77.445,16.6003,-0.02057668,0.29044,1.03292
78.045,16.67447,-0.01843814,0.29585,1.03282
78.645,16.74845,-0.02165979,0.29861,1.03272
79.245,16.8219,-0.01755463,0.29795,1.03262
79.845,16.89487,-0.0210417,0.30008,1.03251
80.445,16.96738,-0.02762827,0.30105,1.03241
81.045,17.03924,-0.02369803,0.29905,1.0323
81.645,17.1107,-0.02331716,0.30042,1.03219
82.245,17.18178,-0.02435895,0.29802,1.03208
82.845,17.25255,-0.0276626,0.29803,1.03197
83.445,17.3228,-0.02493316,0.29588,1.03186
84.045,17.39225,-0.02573652,0.29789,1.03175
84.645,17.46124,-0.02842057,0.29983,1.03163
85.245,17.53015,-0.02600242,0.30014,1.03151
85.845,17.5988,-0.02564306,0.30188,1.0314
86.445,17.6672,-0.02376768,0.30628,1.03128
87.045,17.73487,-0.02006265,0.30976,1.03116
87.645,17.8023,-0.02296222,0.31192,1.03103
88.245,17.86955,-0.0201998,0.31447,1.03091
88.845,17.93664,-0.02232888,0.31631,1.03078
89.445,18.00328,-0.03478963,0.32048,1.03066
90.045,18.06932,-0.0469507,0.31921,1.03053
90.645,18.13502,-0.03601017,0.32269,1.0304
91.245,18.20036,-0.02998851,0.3246,1.03027
91.845,18.2659,-0.02499843,0.32705,1.03014
92.445,18.33098,-0.00714707,0.33306,1.03
93.045,18.39591,-0.02438399,0.33683,1.02987
93.645,18.4604,-0.01090246,0.34061,1.02973
94.245,18.52457,-0.01261808,0.34477,1.02959
94.845,18.58857,-0.02233058,0.34678,1.02945
95.445,18.6523,-0.02795915,0.3522,1.02931
96.045,18.71586,-0.02133849,0.35376,1.02917
96.645,18.77927,-0.03911006,0.35569,1.02902
97.245,18.8425,-0.03225563,0.35854,1.02888
97.845,18.9057,-0.03154616,0.36319,1.02873
98.445,18.96862,-0.01535911,0.36787,1.02858
99.045,19.03136,-0.02945683,0.37312,1.02844
99.645,19.09395,-0.02782746,0.37817,1.02828
100.245,19.15614,-0.0248971,0.3819,1.02813
100.845,19.21809,-0.0267861,0.38566,1.02798
101.445,19.28003,-0.0209404,0.39077,1.02782
102.045,19.34178,-0.02847925,0.39399,1.02767
102.645,19.40332,-0.03029436,0.39648,1.02751
103.245,19.4649,-0.02406089,0.39734,1.02735
103.845,19.5262,-0.01793626,0.40382,1.02719
104.445,19.58759,-0.02016648,0.40497,1.02703
105.045,19.6488,-0.0200501,0.40666,1.02686
105.645,19.70976,-0.01141478,0.40783,1.0267
106.245,19.77085,-0.02802143,0.40974,1.02653
106.845,19.83158,-0.05637452,0.40436,1.02637
107.445,19.89225,-0.05235442,0.40705,1.0262
108.045,19.95244,-0.02870162,0.41125,1.02603
108.645,20.01282,-0.0177948,0.41184,1.02586
109.245,20.07325,-0.01228018,0.4169,1.02568
109.845,20.13364,-0.01078539,0.41808,1.02551
110.445,20.19376,-0.03198555,0.41963,1.02533
111.045,20.25345,-0.01766265,0.41876,1.02516
111.645,20.31332,-0.02972362,0.42156,1.02498
112.245,20.37305,-0.03474759,0.42224,1.0248
112.845,20.4328,-0.03719365,0.42214,1.02462
113.445,20.4925,-0.03281217,0.42334,1.02443
114.045,20.55196,-0.02494395,0.42839,1.02425
114.645,20.61165,-0.02203609,0.42937,1.02406
115.245,20.6711,-0.02088069,0.42958,1.02388
115.845,20.7306,-0.027203,0.43161,1.02369
116.445,20.78971,-0.02491432,0.43114,1.0235
117.045,20.84865,-0.02525233,0.43467,1.02331
117.645,20.90744,-0.0199328,0.43392,1.02312
118.245,20.96635,-0.01973391,0.43596,1.02293
118.845,21.02529,-0.01786277,0.43621,1.02273
119.445,21.0842,-0.03314655,0.43631,1.02254
120.045,21.143,-0.0335453,0.43908,1.02234
120.645,21.2015,-0.03579916,0.4393,1.02214
121.245,21.25988,-0.02799445,0.43831,1.02194
121.845,21.3181,-0.01668937,0.44373,1.02174
122.445,21.3761,-0.03131238,0.44224,1.02154
123.045,21.4341,-0.02845607,0.44595,1.02133
123.645,21.49213,-0.03012873,0.44383,1.02113
124.245,21.55011,-0.03278623,0.44481,1.02092
124.845,21.6084,-0.01748761,0.44553,1.02072
125.445,21.6661,-0.01504958,0.4496,1.02051
126.045,21.724,-0.01851458,0.45299,1.0203
126.645,21.78133,-0.02584804,0.45203,1.02009
127.245,21.83875,-0.03047117,0.45307,1.01987
127.845,21.89604,-0.02661563,0.45427,1.01966
128.445,21.95335,-0.01779697,0.45493,1.01944
129.045,22.01076,-0.02387164,0.45682,1.01923
129.645,22.068,-0.04365933,0.45494,1.01901
130.245,22.12506,-0.02904987,0.45593,1.01879
130.845,22.18196,-0.02464109,0.45864,1.01857
131.445,22.23884,-0.03274005,0.46171,1.01835
132.045,22.2957,-0.02382955,0.4615,1.01813
132.645,22.35239,-0.01602389,0.46305,1.0179
133.245,22.4089,-0.01416507,0.46495,1.01768
133.845,22.46547,-0.02322011,0.46528,1.01745
134.445,22.52189,-0.03346353,0.46621,1.01722
135.045,22.57832,-0.02704193,0.46758,1.01699
135.645,22.6346,-0.01961033,0.46783,1.01676
136.245,22.6909,-0.02631244,0.46943,1.01653
136.845,22.74704,-0.01725624,0.47178,1.0163
137.445,22.80309,-0.02258628,0.47171,1.01606
138.045,22.85901,-0.02586159,0.47281,1.01583
138.645,22.9148,-0.03067835,0.47206,1.01559
139.245,22.97065,-0.03715374,0.47037,1.01535
139.845,23.02647,-0.02647961,0.4758,1.01511
140.445,23.08224,-0.020865,0.47456,1.01487
141.045,23.13802,-0.01946928,0.47912,1.01463
141.645,23.19347,-0.02332105,0.4795,1.01439
142.245,23.24896,-0.02201722,0.47947,1.01415
142.845,23.30444,-0.02529377,0.48137,1.0139
143.445,23.36,-0.02829002,0.48117,1.01365
144.045,23.4154,-0.03117891,0.48219,1.01341
144.645,23.47084,-0.02920523,0.48268,1.01316
145.245,23.52594,-0.02512159,0.48316,1.01291
145.845,23.581,-0.02365191,0.48522,1.01266
146.445,23.63625,-0.02228274,0.48811,1.0124
147.045,23.69128,-0.02459455,0.48789,1.01215
147.645,23.7464,-0.02682071,0.48609,1.0119
148.245,23.8015,-0.02740185,0.48899,1.01164
148.845,23.85654,-0.02620867,0.48961,1.01138
149.445,23.9117,-0.02752041,0.48901,1.01112
150.045,23.9666,-0.02590784,0.49214,1.01086
150.645,24.0217,-0.02603106,0.4915,1.0106
151.245,24.07649,-0.02827754,0.49378,1.01034
151.845,24.1312,-0.02777214,0.49575,1.01008
152.445,24.18615,-0.02474147,0.49306,1.00981
153.045,24.24081,-0.02632035,0.49638,1.00955
153.645,24.2956,-0.02467403,0.4977,1.00928
154.245,24.35021,-0.02598082,0.49802,1.00901
154.845,24.4047,-0.02598831,0.50026,1.00874
155.445,24.45934,-0.02691734,0.50011,1.00847
156.045,24.514,-0.02611019,0.50167,1.0082
156.645,24.56878,-0.02478258,0.50253,1.00793
157.245,24.6236,-0.0248772,0.50366,1.00766
157.845,24.6784,-0.02474382,0.50454,1.00738
158.445,24.73307,-0.02703765,0.50488,1.00711
159.045,24.78761,-0.02904868,0.50418,1.00683
159.645,24.84215,-0.02755522,0.50583,1.00655
160.245,24.89657,-0.0249184,0.5075,1.00627
160.845,24.95107,-0.02386248,0.50787,1.00599
161.445,25.00561,-0.02449879,0.50992,1.00571
162.045,25.06007,-0.02346041,0.50805,1.00543
162.645,25.1146,-0.02347341,0.50814,1.00514
163.245,25.16919,-0.023504,0.51044,1.00486
163.845,25.2237,-0.02175752,0.51137,1.00457
164.445,25.27815,-0.02115474,0.51011,1.00428
165.045,25.33255,-0.03105007,0.51112,1.00399
165.645,25.38682,-0.03079877,0.51306,1.0037
166.245,25.44108,-0.03133785,0.51195,1.00341
166.845,25.49531,-0.02579747,0.51366,1.00312
167.445,25.54949,-0.01732835,0.51349,1.00283
168.045,25.6037,-0.02485044,0.51523,1.00254
168.645,25.658,-0.02608274,0.51578,1.00224
169.245,25.71229,-0.02830534,0.51542,1.00194
169.845,25.76667,-0.02383064,0.51823,1.00165
170.445,25.82086,-0.03266724,0.51599,1.00135
171.045,25.8751,-0.03647632,0.51689,1.00105
171.645,25.92932,-0.03355338,0.51825,1.00075
172.245,25.98345,-0.02623324,0.5197,1.00045
172.845,26.03784,-0.0236422,0.52005,1.00014
173.445,26.092,-0.02349132,0.52039,0.99984
174.045,26.14623,-0.02743409,0.51929,0.99953
174.645,26.20032,-0.03213255,0.52005,0.99923
175.245,26.2544,-0.02724183,0.52436,0.99892
175.845,26.3086,-0.02720058,0.52294,0.99861
176.445,26.3625,-0.02866059,0.52531,0.9983
177.045,26.41654,-0.02664321,0.524,0.99799
177.645,26.4706,-0.02962183,0.5268,0.99768
178.245,26.52455,-0.02374745,0.52734,0.99737
178.845,26.5786,-0.0229598,0.52782,0.99706
179.445,26.63245,-0.02375439,0.52855,0.99674
180.045,26.6863,-0.02602031,0.52829,0.99642
180.645,26.74036,-0.02830023,0.52903,0.99611
181.245,26.79417,-0.02697144,0.5287,0.99579
181.845,26.8481,-0.02940977,0.53092,0.99547
182.445,26.9018,-0.03305981,0.53059,0.99515
183.045,26.9554,-0.03711723,0.53329,0.99483
183.645,27.00927,-0.03551184,0.52971,0.99451
184.245,27.063,-0.02778478,0.5342,0.99419
184.845,27.1168,-0.03258215,0.53536,0.99386
185.445,27.1705,-0.02111594,0.53499,0.99354
186.045,27.2242,-0.02602587,0.53626,0.99321
186.645,27.27784,-0.02661779,0.53656,0.99288
187.245,27.3315,-0.02521942,0.53901,0.99256
187.845,27.3852,-0.02760832,0.53736,0.99223
188.445,27.439,-0.03299026,0.53807,0.9919
189.045,27.49253,-0.02938919,0.53736,0.99157
189.645,27.5458,-0.02006007,0.53827,0.99123
190.245,27.5993,-0.03094199,0.53902,0.9909
190.845,27.65275,-0.02844866,0.53942,0.99057
191.445,27.70617,-0.02856187,0.54058,0.99023
192.045,27.76002,-0.04419142,0.54145,0.98989
192.645,27.81348,-0.03505383,0.54252,0.98956
193.245,27.8672,-0.0188709,0.54052,0.98922
193.845,27.921,-0.01394779,0.54017,0.98888
194.445,27.97461,-0.01396663,0.54314,0.98854
195.045,28.02848,-0.01818795,0.54136,0.9882
195.645,28.08189,-0.02539913,0.54424,0.98786
196.245,28.13537,-0.03406056,0.54466,0.98751
196.845,28.1889,-0.03400077,0.54569,0.98717
197.445,28.2422,-0.03152031,0.54694,0.98682
198.045,28.2958,-0.03134567,0.54985,0.98648
198.645,28.34918,-0.02853028,0.54945,0.98613
199.245,28.40257,-0.03559347,0.54926,0.98578
199.845,28.45585,-0.03209223,0.55202,0.98543
200.445,28.5092,-0.03053138,0.55074,0.98509
201.045,28.56267,-0.02770197,0.55118,0.98473
201.645,28.6161,-0.03300568,0.55302,0.98438
202.245,28.66967,-0.03852544,0.55076,0.98403
202.845,28.72294,-0.03611694,0.55234,0.98368
203.445,28.776,-0.02467693,0.55309,0.98332
204.045,28.82943,-0.02121936,0.55067,0.98297
204.645,28.88284,-0.02402681,0.54949,0.98261
205.245,28.9366,-0.01574639,0.5505,0.98225
205.845,28.9904,-0.01158552,0.55094,0.98189
206.445,29.04396,-0.03437058,0.55448,0.98153
207.045,29.09745,-0.04175199,0.55519,0.98117
207.645,29.15065,-0.0338605,0.55458,0.98081
208.245,29.20392,-0.03375446,0.55428,0.98045
208.845,29.25733,-0.0365364,0.55275,0.98009
209.445,29.3108,-0.01473194,0.5546,0.97972
210.045,29.36454,-0.02772406,0.55649,0.97936
210.645,29.41804,-0.0447057,0.55885,0.97899
211.245,29.4715,-0.03977609,0.55883,0.97863
211.845,29.52457,-0.03705935,0.55883,0.97826
212.445,29.57808,-0.03305469,0.55825,0.97789
213.045,29.6313,-0.02075726,0.55636,0.97752
213.645,29.6848,-0.03900051,0.56103,0.97715
214.245,29.7387,-0.03598198,0.55964,0.97678
214.845,29.7921,-0.03803015,0.56114,0.97641
215.445,29.846,-0.03367341,0.55752,0.97604
216.045,29.8994,-0.03313415,0.56039,0.97566
216.645,29.9528,-0.02929448,0.56139,0.97529
217.245,30.00645,-0.02066193,0.55874,0.97491
217.845,30.05995,-0.02346309,0.56142,0.97454
218.445,30.11341,-0.03096251,0.55946,0.97416
219.045,30.1668,-0.02736772,0.55936,0.97378
219.645,30.2202,-0.03032667,0.56326,0.9734
220.245,30.27344,-0.03958516,0.56505,0.97302
220.845,30.32713,-0.03821745,0.56599,0.97264
221.445,30.3805,-0.04009213,0.56591,0.97226
222.045,30.4339,-0.04520814,0.56735,0.97188
222.645,30.48749,-0.04473438,0.56855,0.97149
223.245,30.5408,-0.03281905,0.56729,0.97111
223.845,30.59447,-0.03523557,0.56509,0.97072
224.445,30.6481,-0.0383729,0.56801,0.97034
225.045,30.70167,-0.03398855,0.5672,0.96995
225.645,30.75525,-0.03717215,0.56634,0.96956
226.245,30.80882,-0.02836315,0.56533,0.96918
226.845,30.8624,-0.01556734,0.56178,0.96879
227.445,30.9159,-0.02485899,0.56357,0.9684
228.045,30.9695,-0.03610421,0.56609,0.96801
228.645,31.023,-0.03443298,0.56606,0.96761
229.245,31.0767,-0.03815505,0.56802,0.96722
229.845,31.1303,-0.04057089,0.5673,0.96683
230.445,31.18396,-0.03586636,0.56848,0.96643
231.045,31.23759,-0.03415409,0.56983,0.96604
231.645,31.29113,-0.03476635,0.56988,0.96564
232.245,31.3446,-0.03076797,0.56868,0.96525
232.845,31.3982,-0.03811304,0.5727,0.96485
233.445,31.4521,-0.04706734,0.57429,0.96445
234.045,31.5058,-0.04557006,0.57438,0.96405
234.645,31.5595,-0.03618336,0.57431,0.96365
235.245,31.6133,-0.03728472,0.57271,0.96325
235.845,31.6669,-0.03074148,0.56975,0.96285
236.445,31.72066,-0.03004132,0.5693,0.96245
237.045,31.7744,-0.03969103,0.56971,0.96205
237.645,31.8276,-0.03188236,0.57127,0.96164
238.245,31.8807,-0.03707721,0.57083,0.96124
238.845,31.9337,-0.03500701,0.57117,0.96083
239.445,31.987,-0.05029299,0.57585,0.96043
240.045,32.04043,-0.05690015,0.57588,0.96002
240.645,32.09435,-0.03230433,0.57526,0.95961
241.245,32.14848,-0.03979994,0.57778,0.9592
241.845,32.20234,-0.04331216,0.57957,0.95879
242.445,32.25643,-0.037925,0.57458,0.95839
243.045,32.31017,-0.03574779,0.57653,0.95797
243.645,32.36388,-0.03514718,0.57273,0.95756
244.245,32.41754,-0.01242574,0.56903,0.95715
244.845,32.4711,-0.02789555,0.57311,0.95674
245.445,32.52455,-0.05440439,0.57691,0.95632
246.045,32.5781,-0.05101871,0.58002,0.95591
246.645,32.63169,-0.04789034,0.58089,0.9555
247.245,32.68521,-0.03985236,0.57838,0.95508
247.845,32.73873,-0.03802755,0.58013,0.95466
248.445,32.7922,-0.03946396,0.57948,0.95425
249.045,32.84581,-0.03933795,0.57631,0.95383
249.645,32.89958,-0.03273006,0.57755,0.95341
250.245,32.9535,-0.03698583,0.57873,0.95299
250.845,33.0075,-0.03922903,0.57829,0.95257
251.445,33.0612,-0.04220132,0.57977,0.95215
252.045,33.115,-0.04226621,0.57804,0.95173
252.645,33.16875,-0.04023327,0.57965,0.9513
253.245,33.2224,-0.0394662,0.57838,0.95088
253.845,33.27626,-0.04143512,0.58044,0.95046
254.445,33.32997,-0.04178006,0.57832,0.95003
255.045,33.38358,-0.04020718,0.57806,0.94961
255.645,33.43736,-0.04034995,0.58021,0.94918
256.245,33.49111,-0.04036,0.58032,0.94876
256.845,33.5448,-0.04130808,0.57894,0.94833
257.445,33.59861,-0.04496431,0.58041,0.9479
258.045,33.65228,-0.04554177,0.5818,0.94747
258.645,33.70602,-0.0552616,0.58598,0.94704
259.245,33.75994,-0.04926156,0.58141,0.94661
259.845,33.8139,-0.04475599,0.58223,0.94618
260.445,33.8677,-0.04522759,0.5812,0.94575
261.045,33.9215,-0.04107897,0.58155,0.94532
261.645,33.97533,-0.03763597,0.57938,0.94489
262.245,34.0293,-0.04142039,0.5806,0.94445
262.845,34.0833,-0.05223539,0.58173,0.94402
263.445,34.13734,-0.04859923,0.58157,0.94359
264.045,34.1911,-0.05062494,0.58131,0.94315
264.645,34.24479,-0.05674957,0.58506,0.94271
265.245,34.29846,-0.06268859,0.58806,0.94228
265.845,34.35237,-0.04830711,0.58357,0.94184
266.445,34.40641,-0.03429768,0.57967,0.9414
267.045,34.46051,-0.02912328,0.57664,0.94096
267.645,34.5146,-0.04007875,0.57713,0.94053
268.245,34.5685,-0.04805691,0.58063,0.94009
268.845,34.62229,-0.05892047,0.58135,0.93965
269.445,34.67587,-0.06051712,0.58294,0.9392
270.045,34.72938,-0.05233056,0.58092,0.93876
270.645,34.78318,-0.04838322,0.5814,0.93832
271.245,34.8374,-0.04980871,0.58208,0.93788
271.845,34.89159,-0.04775039,0.5807,0.93743
272.445,34.94604,-0.04485418,0.57799,0.93699
273.045,35.00013,-0.04870537,0.57863,0.93655
273.645,35.05404,-0.0536719,0.57894,0.9361
274.245,35.10802,-0.05929876,0.58313,0.93565
274.845,35.16182,-0.05366374,0.58205,0.93521
275.445,35.21573,-0.06288298,0.58483,0.93476
276.045,35.26958,-0.06780128,0.58609,0.93431
276.645,35.3236,-0.05353376,0.5792,0.93386
277.245,35.3778,-0.04764542,0.58123,0.93342
277.845,35.43209,-0.06124991,0.57885,0.93297
278.445,35.48617,-0.05350704,0.58118,0.93252
279.045,35.5403,-0.05540579,0.57983,0.93207
279.645,35.59435,-0.05757541,0.58,0.93161
280.245,35.64844,-0.06309986,0.58205,0.93116
280.845,35.70279,-0.06374489,0.57986,0.93071
281.445,35.75695,-0.05889299,0.5823,0.93026
282.045,35.81105,-0.06623231,0.58012,0.9298
282.645,35.865,-0.05654384,0.57931,0.92935
283.245,35.91894,-0.05951961,0.5796,0.92889
283.845,35.9731,-0.05960258,0.57629,0.92844
284.445,36.02728,-0.06410711,0.57766,0.92798
285.045,36.08161,-0.06355273,0.57694,0.92753
285.645,36.13588,-0.06194732,0.57339,0.92707
286.245,36.1902,-0.05703098,0.57328,0.92661
286.845,36.24409,-0.05694064,0.57228,0.92615
287.445,36.2983,-0.06198978,0.57502,0.9257
288.045,36.3527,-0.06211241,0.56988,0.92524
288.645,36.40696,-0.05520743,0.56939,0.92478
289.245,36.46157,-0.06328953,0.57221,0.92432
289.845,36.51575,-0.06656912,0.57319,0.92386
290.445,36.56991,-0.06777106,0.57296,0.9234
291.045,36.62401,-0.07039625,0.57492,0.92293
291.645,36.6783,-0.06895421,0.5729,0.92247
292.245,36.73255,-0.06894395,0.57218,0.92201
292.845,36.78683,-0.06753198,0.5677,0.92155
293.445,36.84128,-0.06267057,0.56861,0.92108
294.045,36.89573,-0.05989999,0.56693,0.92062
294.645,36.95028,-0.05934303,0.56492,0.92015
295.245,37.00463,-0.06157351,0.56649,0.91969
295.845,37.0588,-0.06633328,0.5681,0.91922
296.445,37.11302,-0.0776261,0.57185,0.91875
297.045,37.16708,-0.080496,0.57154,0.91829
297.645,37.2213,-0.07757911,0.57361,0.91782
298.245,37.2757,-0.07656999,0.57045,0.91735
298.845,37.33007,-0.07294067,0.57135,0.91688
299.445,37.38463,-0.07290406,0.56997,0.91642
300.045,37.43898,-0.0732702,0.56817,0.91595
300.645,37.49341,-0.07239966,0.56851,0.91548
301.245,37.54788,-0.07194198,0.56667,0.91501
301.845,37.60239,-0.0715657,0.5642,0.91454
302.445,37.657,-0.07305988,0.56628,0.91406
303.045,37.71155,-0.07600527,0.56645,0.91359
303.645,37.76589,-0.07603658,0.56479,0.91312
304.245,37.82047,-0.07918335,0.56561,0.91265
304.845,37.875,-0.07961342,0.56432,0.91217
305.445,37.9294,-0.07789372,0.56633,0.9117
306.045,37.98382,-0.09235551,0.57297,0.91123
306.645,38.03826,-0.10696,0.5753,0.91075
307.245,38.0929,-0.08895482,0.5736,0.91028
307.845,38.14759,-0.08136814,0.56916,0.9098
308.445,38.2025,-0.08341232,0.56744,0.90933
309.045,38.25715,-0.09254042,0.56856,0.90885
309.645,38.3118,-0.08663483,0.56431,0.90837
310.245,38.36659,-0.08404087,0.56537,0.9079
310.845,38.42132,-0.09978085,0.56725,0.90742
311.445,38.476,-0.09229187,0.56568,0.90694
312.045,38.53091,-0.07773012,0.56384,0.90646
312.645,38.58574,-0.09808355,0.56609,0.90598
313.245,38.64058,-0.09251794,0.56171,0.9055
313.845,38.69551,-0.08687789,0.56167,0.90503
314.445,38.75036,-0.08366692,0.55601,0.90454
315.045,38.80533,-0.08987554,0.5544,0.90406
315.645,38.8601,-0.0776517,0.55401,0.90358
316.245,38.91476,-0.09973692,0.55884,0.9031
316.845,38.96926,-0.10493,0.55993,0.90262
317.445,39.0237,-0.09591381,0.56007,0.90214
318.045,39.07861,-0.09768168,0.55558,0.90166
318.645,39.13357,-0.07771861,0.54884,0.90117
319.245,39.1886,-0.08910579,0.54877,0.90069
319.845,39.24377,-0.10586,0.54975,0.90021
320.445,39.29862,-0.09026881,0.54827,0.89972
321.045,39.3534,-0.1001,0.55098,0.89924
321.645,39.40838,-0.09906611,0.5468,0.89875
322.245,39.46318,-0.09400295,0.54421,0.89827
322.845,39.5182,-0.08807176,0.53869,0.89778
323.445,39.57334,-0.09249512,0.53904,0.89729
324.045,39.62834,-0.10046,0.54306,0.89681
324.645,39.6834,-0.10869,0.54167,0.89632
325.245,39.7384,-0.1092,0.54386,0.89583
325.845,39.79326,-0.10904,0.54414,0.89535
326.445,39.84813,-0.10842,0.54245,0.89486
327.045,39.90309,-0.11267,0.54332,0.89437
327.645,39.9578,-0.10678,0.53873,0.89388
328.245,40.01285,-0.10898,0.53685,0.89339
328.845,40.06794,-0.10404,0.53564,0.8929
329.445,40.12325,-0.10375,0.53393,0.89241
330.045,40.17863,-0.10367,0.5303,0.89192
330.645,40.23381,-0.09335682,0.52412,0.89143
331.245,40.28883,-0.11087,0.52905,0.89094
331.845,40.34369,-0.11901,0.53151,0.89045
332.445,40.39883,-0.10692,0.52783,0.88996
333.045,40.4539,-0.10577,0.52327,0.88947
333.645,40.50907,-0.10473,0.52417,0.88898
334.245,40.56405,-0.11327,0.52214,0.88848
334.845,40.61903,-0.10645,0.52134,0.88799
335.445,40.67399,-0.11312,0.51939,0.8875
336.045,40.72892,-0.11601,0.52359,0.88701
336.645,40.78406,-0.11903,0.52588,0.88651
337.245,40.8392,-0.12977,0.52461,0.88602
337.845,40.89458,-0.12534,0.52378,0.88552
338.445,40.94995,-0.12185,0.52093,0.88503
339.045,41.00541,-0.12086,0.51928,0.88453
339.645,41.0606,-0.12015,0.51495,0.88404
340.245,41.1158,-0.12193,0.51524,0.88354
340.845,41.1711,-0.13242,0.51633,0.88305
341.445,41.22634,-0.11699,0.50951,0.88255
342.045,41.28172,-0.10396,0.50366,0.88206
342.645,41.33704,-0.11281,0.50064,0.88156
343.245,41.3923,-0.11999,0.49982,0.88106
343.845,41.4476,-0.11879,0.49734,0.88056
344.445,41.50281,-0.12622,0.49864,0.88007
345.045,41.55809,-0.12403,0.49812,0.87957
345.645,41.61345,-0.12221,0.49468,0.87907
346.245,41.66884,-0.12705,0.49686,0.87857
346.845,41.72435,-0.13235,0.49564,0.87807
347.445,41.77968,-0.12971,0.49359,0.87757
348.045,41.8352,-0.13214,0.49399,0.87708
348.645,41.89083,-0.12904,0.48744,0.87658
349.245,41.9464,-0.12339,0.48612,0.87608
349.845,42.0019,-0.13135,0.48453,0.87558
350.445,42.0573,-0.13457,0.48403,0.87508
351.045,42.11265,-0.13622,0.48493,0.87458
351.645,42.1683,-0.13404,0.48355,0.87408
352.245,42.2237,-0.13269,0.48248,0.87357
352.845,42.2793,-0.12988,0.47668,0.87307
353.445,42.33506,-0.13445,0.47894,0.87257
354.045,42.39055,-0.13722,0.47862,0.87207
354.645,42.44614,-0.13456,0.47579,0.87157
355.245,42.5017,-0.13695,0.47555,0.87107
355.845,42.55717,-0.14442,0.4763,0.87056
356.445,42.61272,-0.14786,0.47718,0.87006
357.045,42.66838,-0.14595,0.47208,0.86956
357.645,42.72398,-0.14378,0.47108,0.86905
358.245,42.77948,-0.14181,0.46993,0.86855
358.845,42.83507,-0.14505,0.47222,0.86805
359.445,42.89069,-0.14498,0.46603,0.86754
360.045,42.9463,-0.14605,0.46329,0.86704
360.645,43.0021,-0.1473,0.4617,0.86654
361.245,43.05792,-0.14617,0.4582,0.86603
361.845,43.1135,-0.14474,0.4583,0.86553
362.445,43.1691,-0.14346,0.45845,0.86502
363.045,43.22463,-0.14238,0.45121,0.86452
363.645,43.28037,-0.13686,0.4463,0.86401
364.245,43.3362,-0.14281,0.44694,0.86351
364.845,43.3919,-0.14401,0.44705,0.863
365.445,43.44751,-0.14392,0.44764,0.86249
366.045,43.50307,-0.15546,0.45306,0.86199
366.645,43.5585,-0.17117,0.45566,0.86148
367.245,43.6143,-0.15044,0.44941,0.86098
367.845,43.6703,-0.15109,0.44686,0.86047
368.445,43.7262,-0.15757,0.44648,0.85996
369.045,43.78236,-0.1573,0.44542,0.85946
369.645,43.83805,-0.1562,0.45024,0.85895
370.245,43.89385,-0.161,0.45269,0.85844
370.845,43.94965,-0.16386,0.45155,0.85793
371.445,44.00549,-0.16685,0.45222,0.85743
372.045,44.06128,-0.16998,0.45499,0.85692
372.645,44.11715,-0.16842,0.45371,0.85641
373.245,44.1729,-0.17129,0.45683,0.8559
373.845,44.2288,-0.16973,0.45641,0.85539
374.445,44.28459,-0.16718,0.45716,0.85489
375.045,44.34028,-0.17076,0.45869,0.85438
375.645,44.39622,-0.1721,0.46065,0.85387
376.245,44.4523,-0.16761,0.46113,0.85336
376.845,44.5082,-0.17277,0.46736,0.85285
377.445,44.56436,-0.18216,0.47099,0.85234
378.045,44.62044,-0.18383,0.47453,0.85183
378.645,44.67644,-0.1791,0.47414,0.85132
379.245,44.73272,-0.17741,0.47409,0.85081
379.845,44.78873,-0.1778,0.47516,0.8503
380.445,44.84478,-0.17971,0.48369,0.84979
381.045,44.90063,-0.18628,0.48783,0.84928
381.645,44.9566,-0.19846,0.49381,0.84877
382.245,45.01243,-0.1997,0.50166,0.84826
382.845,45.0685,-0.19557,0.50679,0.84775
383.445,45.12471,-0.20303,0.51114,0.84724
384.045,45.18088,-0.18693,0.51052,0.84673
384.645,45.23718,-0.19468,0.51643,0.84622
385.245,45.29357,-0.1999,0.52535,0.84571
385.845,45.35009,-0.19676,0.52773,0.8452
386.445,45.40653,-0.19801,0.53547,0.84469
387.045,45.46284,-0.20639,0.54517,0.84418
387.645,45.51907,-0.21012,0.55008,0.84367
388.245,45.57543,-0.21221,0.56082,0.84315
388.845,45.63174,-0.21412,0.56769,0.84264
389.445,45.6879,-0.21708,0.5773,0.84213
390.045,45.7441,-0.22119,0.58694,0.84162
390.645,45.80028,-0.2149,0.59252,0.84111
391.245,45.85652,-0.20541,0.60197,0.8406
391.845,45.91285,-0.22676,0.61553,0.84008
392.445,45.96909,-0.23646,0.62464,0.83957
393.045,46.0255,-0.22437,0.6386,0.83906
393.645,46.0818,-0.24148,0.64843,0.83855
394.245,46.13805,-0.22609,0.66141,0.83804
394.845,46.19454,-0.23237,0.67039,0.83752
395.445,46.2508,-0.23595,0.68416,0.83701
396.045,46.30713,-0.24061,0.69514,0.8365
396.645,46.36337,-0.2499,0.71474,0.83599
397.245,46.4197,-0.25873,0.73062,0.83547
397.845,46.47627,-0.25308,0.7461,0.83496
398.445,46.53289,-0.26656,0.76515,0.83445
399.045,46.58934,-0.26859,0.78086,0.83394
399.645,46.64583,-0.27105,0.80027,0.83342
400.245,46.70225,-0.28189,0.82302,0.83291
400.845,46.75868,-0.2832,0.84416,0.8324
401.445,46.8152,-0.28871,0.86691,0.83189
402.045,46.87154,-0.29869,0.88456,0.83137
402.645,46.9281,-0.29778,0.90767,0.83086
403.245,46.98452,-0.29593,0.9298,0.83035
403.845,47.04121,-0.29592,0.95684,0.82983
404.445,47.09809,-0.30496,0.98395,0.82932
405.045,47.15498,-0.31833,1.01473,0.82881
405.645,47.2119,-0.31736,1.043,0.82829
406.245,47.26867,-0.32289,1.07511,0.82778
406.845,47.32516,-0.33656,1.10788,0.82727
407.445,47.3814,-0.36945,1.15316,0.82675
408.045,47.43766,-0.36635,1.1948,0.82624
408.645,47.49411,-0.39365,1.24074,0.82573
409.245,47.55082,-0.41672,1.28774,0.82521
409.845,47.60774,-0.40761,1.32894,0.8247
410.445,47.66472,-0.40358,1.37125,0.82419
411.045,47.7215,-0.41305,1.42091,0.82367
411.645,47.7786,-0.436,1.47769,0.82316
412.245,47.83543,-0.44908,1.53796,0.82265
412.845,47.89225,-0.46217,1.59803,0.82213
413.445,47.94935,-0.48561,1.66312,0.82162
414.045,48.00651,-0.49955,1.72955,0.82111
414.645,48.06375,-0.51017,1.80279,0.82059
415.245,48.12097,-0.53153,1.87416,0.82008
415.845,48.17804,-0.54375,1.95,0.81957
416.445,48.2351,-0.55927,2.02709,0.81905
417.045,48.29227,-0.59848,2.12492,0.81854
417.645,48.3496,-0.62918,2.21333,0.81803
418.245,48.4071,-0.63709,2.29864,0.81751
418.845,48.46458,-0.65118,2.38587,0.817
419.445,48.5217,-0.68219,2.47658,0.81649
420.045,48.57853,-0.72633,2.57495,0.81597
420.645,48.63535,-0.7746,2.68272,0.81546
421.245,48.69283,-0.82212,2.78077,0.81495
421.845,48.75076,-0.80659,2.877,0.81443
422.445,48.80894,-0.82798,2.97749,0.81392
423.045,48.86678,-0.87723,3.10236,0.81341
423.645,48.9242,-0.92988,3.21899,0.8129
424.245,48.98141,-0.97668,3.32827,0.81238
424.845,49.0387,-1.02953,3.42363,0.81187
425.445,49.09572,-1.07431,3.5223,0.81136
426.045,49.15305,-1.1186,3.61393,0.81084
426.645,49.21055,-1.13354,3.71967,0.81033
427.245,49.26832,-1.18606,3.81345,0.80982
427.845,49.32648,-1.23327,3.9093,0.8093
428.445,49.38452,-1.28328,3.99707,0.80879
429.045,49.4423,-1.3448,4.08544,0.80828
429.645,49.50013,-1.42121,4.16503,0.80777
430.245,49.55762,-1.4701,4.24556,0.80725
430.845,49.61522,-1.53406,4.30889,0.80674
431.445,49.67293,-1.58005,4.37033,0.80623
432.045,49.73076,-1.63942,4.40848,0.80572
432.645,49.78855,-1.69222,4.44168,0.8052
433.245,49.84635,-1.75081,4.45807,0.80469
433.845,49.90395,-1.81188,4.46213,0.80418
434.445,49.96139,-1.88487,4.46974,0.80367
435.045,50.01894,-1.94878,4.46026,0.80316
435.645,50.0764,-2.01675,4.44209,0.80264
436.245,50.134,-2.06985,4.4116,0.80213
436.845,50.19154,-2.13335,4.37627,0.80162
437.445,50.24905,-2.1846,4.32577,0.80111
438.045,50.30615,-2.24035,4.2715,0.8006
438.645,50.36308,-2.31202,4.20526,0.80009
439.245,50.42014,-2.36783,4.13935,0.79957
439.845,50.47703,-2.42825,4.06031,0.79906
440.445,50.5343,-2.481,3.97673,0.79855
441.045,50.59134,-2.5367,3.88869,0.79804
441.645,50.6484,-2.5925,3.79393,0.79753
442.245,50.70557,-2.63549,3.69423,0.79702
442.845,50.76239,-2.68594,3.58992,0.79651
443.445,50.81945,-2.73927,3.4867,0.796
444.045,50.87638,-2.78347,3.38008,0.79549
444.645,50.93326,-2.82172,3.268,0.79498
445.245,50.99015,-2.86987,3.16267,0.79447
445.845,51.04698,-2.91356,3.0529,0.79396
446.445,51.1038,-2.95211,2.94482,0.79345
447.045,51.16072,-2.9991,2.83164,0.79294
447.645,51.21765,-3.02649,2.72286,0.79243
448.245,51.27471,-3.06906,2.61164,0.79192
448.845,51.33164,-3.09377,2.50178,0.79141
449.445,51.38842,-3.13284,2.39723,0.7909
450.045,51.44518,-3.16137,2.29326,0.79039
450.645,51.50179,-3.20232,2.1942,0.78988
451.245,51.55854,-3.2265,2.09606,0.78937
451.845,51.61554,-3.24391,1.99815,0.78886
452.445,51.67237,-3.28122,1.90245,0.78835
453.045,51.72934,-3.30332,1.81719,0.78784
453.645,51.78582,-3.32533,1.73103,0.78733
454.245,51.84206,-3.34747,1.64898,0.78682
454.845,51.89844,-3.37888,1.57045,0.78632
455.445,51.95486,-3.40148,1.50131,0.78581
456.045,52.0116,-3.41938,1.43353,0.7853
456.645,52.06856,-3.43831,1.36298,0.78479
457.245,52.12588,-3.4469,1.30007,0.78428
457.845,52.1832,-3.45894,1.24459,0.78378
458.445,52.24069,-3.47696,1.19113,0.78327
459.045,52.2981,-3.50642,1.14187,0.78276
459.645,52.35536,-3.51348,1.09299,0.78225
460.245,52.4127,-3.52313,1.051,0.78175
460.845,52.46995,-3.53012,1.01424,0.78124
461.445,52.52717,-3.55436,0.98153,0.78073
462.045,52.58436,-3.56879,0.9476,0.78023
462.645,52.64167,-3.57539,0.91689,0.77972
463.245,52.6989,-3.58851,0.88647,0.77921
463.845,52.7562,-3.59299,0.85635,0.77871
464.445,52.81338,-3.59978,0.82808,0.7782
465.045,52.87045,-3.60986,0.80163,0.7777
465.645,52.92774,-3.62791,0.78115,0.77719
466.245,52.985,-3.63702,0.75734,0.77669
466.845,53.0423,-3.6438,0.73463,0.77618
467.445,53.0994,-3.6569,0.7131,0.77568
468.045,53.15665,-3.66597,0.69126,0.77517
468.645,53.214,-3.6766,0.67283,0.77467
469.245,53.2714,-3.68316,0.6519,0.77416
469.845,53.329,-3.68753,0.6323,0.77366
470.445,53.3864,-3.69178,0.61066,0.77315
471.045,53.4439,-3.70251,0.59164,0.77265
471.645,53.5014,-3.7207,0.57645,0.77215
472.245,53.5586,-3.7211,0.55668,0.77164
472.845,53.6159,-3.72593,0.53515,0.77114
473.445,53.67331,-3.74626,0.5245,0.77064
474.045,53.73073,-3.74275,0.50131,0.77013
474.645,53.7884,-3.73925,0.47789,0.76963
475.245,53.84593,-3.73511,0.45877,0.76913
475.845,53.90355,-3.73966,0.44085,0.76863
476.445,53.9611,-3.75238,0.42465,0.76812
477.045,54.0188,-3.7629,0.4148,0.76762
477.645,54.0763,-3.77451,0.394,0.76712
478.245,54.1339,-3.75615,0.37561,0.76662
478.845,54.19163,-3.76761,0.36324,0.76612
479.445,54.2491,-3.78024,0.35195,0.76562
480.045,54.3067,-3.78481,0.33505,0.76512
480.645,54.3644,-3.7794,0.32024,0.76462
481.245,54.4222,-3.78525,0.30358,0.76412
481.845,54.48007,-3.78384,0.29345,0.76362
482.445,54.53796,-3.79097,0.28426,0.76312
483.045,54.59595,-3.79125,0.26817,0.76262
483.645,54.65359,-3.78281,0.25714,0.76212
484.245,54.7115,-3.78521,0.24777,0.76162
484.845,54.7691,-3.78405,0.23512,0.76112
485.445,54.8267,-3.7875,0.231,0.76062
486.045,54.8845,-3.8049,0.22999,0.76012
486.645,54.94246,-3.81291,0.22294,0.75962
487.245,55.0005,-3.80491,0.21567,0.75913
487.845,55.05854,-3.80775,0.20972,0.75863
488.445,55.1162,-3.82102,0.20874,0.75813
489.045,55.1741,-3.79211,0.19831,0.75763
489.645,55.23211,-3.81197,0.20225,0.75714
490.245,55.2903,-3.81629,0.1996,0.75664
490.845,55.34865,-3.80615,0.19058,0.75614
491.445,55.4069,-3.79316,0.18566,0.75565
492.045,55.46495,-3.79178,0.18274,0.75515
492.645,55.5225,-3.80025,0.18404,0.75465
493.245,55.5803,-3.80505,0.18152,0.75416
493.845,55.6384,-3.79891,0.1792,0.75366
494.445,55.6966,-3.80408,0.1821,0.75317
495.045,55.75485,-3.80431,0.18016,0.75267
495.645,55.81287,-3.81018,0.18206,0.75218
496.245,55.87105,-3.79862,0.17748,0.75168
496.845,55.92925,-3.79898,0.17343,0.75119
497.445,55.9873,-3.79575,0.17249,0.7507
498.045,56.04525,-3.80734,0.17451,0.7502
498.645,56.10317,-3.81839,0.17769,0.74971
499.245,56.16134,-3.81405,0.17384,0.74922
499.845,56.21976,-3.79922,0.1666,0.74872
500.445,56.278,-3.80162,0.16439,0.74823
501.045,56.3361,-3.8013,0.16458,0.74774
501.645,56.3939,-3.79867,0.16029,0.74725
502.245,56.45176,-3.81319,0.16024,0.74676
502.845,56.50969,-3.81366,0.1605,0.74627
503.445,56.56771,-3.81056,0.15538,0.74577
504.045,56.62602,-3.80952,0.15642,0.74528
504.645,56.68435,-3.80751,0.15072,0.74479
505.245,56.74276,-3.80331,0.14726,0.7443
505.845,56.8012,-3.79834,0.14594,0.74381
506.445,56.8596,-3.7998,0.14836,0.74332
507.045,56.9178,-3.80765,0.15245,0.74283
507.645,56.97622,-3.815,0.14731,0.74235
508.245,57.0344,-3.79357,0.14421,0.74186
508.845,57.093,-3.79764,0.14579,0.74137
509.445,57.15136,-3.81706,0.14829,0.74088
510.045,57.21,-3.79557,0.1412,0.74039
510.645,57.26857,-3.79322,0.14114,0.73991
511.245,57.32689,-3.79502,0.14295,0.73942
511.845,57.38524,-3.80213,0.14371,0.73893
512.445,57.4434,-3.81046,0.14645,0.73844
513.045,57.50141,-3.81176,0.14894,0.73796
513.645,57.55955,-3.80458,0.15333,0.73747
514.245,57.6176,-3.82573,0.15348,0.73699
514.845,57.6757,-3.81191,0.15263,0.7365
515.445,57.7341,-3.8143,0.15721,0.73602
516.045,57.7928,-3.81541,0.16111,0.73553
516.645,57.8512,-3.81088,0.15568,0.73505
517.245,57.90974,-3.80034,0.15752,0.73456
517.845,57.9681,-3.81561,0.15909,0.73408
518.445,58.02672,-3.80857,0.15811,0.7336
519.045,58.08534,-3.79992,0.156,0.73311
519.645,58.14395,-3.80624,0.1606,0.73263
520.245,58.20231,-3.81221,0.16308,0.73215
520.845,58.26086,-3.80661,0.1637,0.73166
521.445,58.31945,-3.8032,0.16587,0.73118
522.045,58.37815,-3.8021,0.16609,0.7307
522.645,58.4369,-3.79464,0.16251,0.73022
523.245,58.49541,-3.79822,0.16582,0.72974
523.845,58.55365,-3.81162,0.16997,0.72926
524.445,58.61198,-3.81303,0.17151,0.72878
525.045,58.67065,-3.81169,0.17106,0.7283
525.645,58.72936,-3.80892,0.16941,0.72782
526.245,58.7883,-3.80678,0.17437,0.72734
526.845,58.8469,-3.80819,0.17376,0.72686
527.445,58.9056,-3.80585,0.17241,0.72638
528.045,58.9643,-3.81072,0.17788,0.7259
528.645,59.0231,-3.80638,0.17212,0.72543
529.245,59.08204,-3.79263,0.17085,0.72495
529.845,59.14083,-3.80418,0.1771,0.72447
530.445,59.1995,-3.80918,0.17347,0.72399
531.045,59.2584,-3.8018,0.17121,0.72352
531.645,59.3173,-3.80287,0.17221,0.72304
532.245,59.37619,-3.80057,0.1716,0.72257
532.845,59.43459,-3.79464,0.16655,0.72209
533.445,59.4931,-3.80955,0.17872,0.72162
534.045,59.5514,-3.83298,0.18139,0.72114
534.645,59.60977,-3.81179,0.18211,0.72067
535.245,59.6685,-3.83028,0.18721,0.72019
535.845,59.72699,-3.81206,0.17814,0.71972
536.445,59.78575,-3.80554,0.17681,0.71925
537.045,59.84435,-3.80877,0.17875,0.71877
537.645,59.9029,-3.81186,0.17854,0.7183
538.245,59.9616,-3.80443,0.17471,0.71783
538.845,60.02061,-3.80104,0.16771,0.71736
539.445,60.0793,-3.7858,0.16551,0.71688
540.045,60.1379,-3.79707,0.17338,0.71641
540.645,60.1964,-3.81332,0.17432,0.71594
541.245,60.25487,-3.79994,0.16934,0.71547
541.845,60.31366,-3.79257,0.17026,0.715
542.445,60.37231,-3.80257,0.16912,0.71453
543.045,60.43088,-3.80638,0.17934,0.71406
543.645,60.4896,-3.82665,0.18257,0.71359
544.245,60.54837,-3.80883,0.17916,0.71313
544.845,60.60734,-3.81122,0.18598,0.71266
545.445,60.66633,-3.81655,0.18476,0.71219
546.045,60.7253,-3.80521,0.18044,0.71172
546.645,60.78425,-3.80724,0.18304,0.71125
547.245,60.84307,-3.81438,0.18097,0.71079
547.845,60.90194,-3.79471,0.18097,0.71032
548.445,60.96074,-3.818,0.18219,0.70986
549.045,61.01951,-3.80418,0.18165,0.70939
549.645,61.07833,-3.80927,0.17967,0.70892
550.245,61.1372,-3.80305,0.17989,0.70846
550.845,61.19625,-3.82274,0.1837,0.708
551.445,61.2553,-3.80779,0.18526,0.70753
552.045,61.31456,-3.80496,0.17743,0.70707
552.645,61.37369,-3.79413,0.1788,0.7066
553.245,61.4329,-3.81121,0.17954,0.70614
553.845,61.49216,-3.80476,0.18371,0.70568
554.445,61.5513,-3.79864,0.178,0.70522
555.045,61.6101,-3.79722,0.17641,0.70476
555.645,61.6689,-3.80787,0.18364,0.70429
556.245,61.7277,-3.82447,0.18833,0.70383
556.845,61.78702,-3.81824,0.18737,0.70337
557.445,61.8464,-3.81294,0.18883,0.70291
558.045,61.90571,-3.8225,0.19382,0.70245
558.645,61.9647,-3.8072,0.17716,0.70199
559.245,62.0235,-3.78999,0.18331,0.70153
559.845,62.08266,-3.79625,0.17986,0.70108
560.445,62.1417,-3.79355,0.17587,0.70062
561.045,62.201,-3.79646,0.18078,0.70016
561.645,62.26,-3.81169,0.18402,0.6997
562.245,62.3188,-3.81698,0.18684,0.69925
562.845,62.3778,-3.80813,0.18163,0.69879
563.445,62.4366,-3.8166,0.19143,0.69833
564.045,62.4956,-3.81965,0.18928,0.69788
564.645,62.5548,-3.79974,0.18657,0.69742
565.245,62.6143,-3.80236,0.18541,0.69697
565.845,62.6738,-3.7957,0.18095,0.69651
566.445,62.73321,-3.79673,0.17945,0.69606
567.045,62.7924,-3.79305,0.1766,0.69561
567.645,62.8516,-3.80162,0.18679,0.69515
568.245,62.91081,-3.81596,0.18834,0.6947
568.845,62.9703,-3.80515,0.18297,0.69425
569.445,63.0298,-3.79367,0.18147,0.6938
570.045,63.0891,-3.78905,0.1759,0.69334
570.645,63.1482,-3.80227,0.18033,0.69289
571.245,63.20725,-3.81637,0.19444,0.69244
571.845,63.2667,-3.82533,0.19335,0.69199
572.445,63.3262,-3.80485,0.19246,0.69154
573.045,63.38587,-3.80594,0.19511,0.69109
573.645,63.4452,-3.80532,0.19358,0.69064
574.245,63.5045,-3.80549,0.1929,0.69019
574.845,63.56351,-3.80387,0.19128,0.68975
575.445,63.6225,-3.80688,0.19524,0.6893
576.045,63.68147,-3.82405,0.20548,0.68885
576.645,63.7405,-3.8265,0.20037,0.6884
577.245,63.79984,-3.80106,0.19998,0.68796
577.845,63.85929,-3.81655,0.19721,0.68751
578.445,63.91876,-3.7984,0.19328,0.68707
579.045,63.97831,-3.80182,0.19115,0.68662
579.645,64.03754,-3.80393,0.19289,0.68618
580.245,64.09682,-3.82041,0.20198,0.68573
580.845,64.1561,-3.8134,0.20221,0.68529
581.445,64.2157,-3.80172,0.19569,0.68484
582.045,64.27542,-3.80008,0.19268,0.6844
582.645,64.33507,-3.78664,0.18601,0.68396
583.245,64.3943,-3.78591,0.18549,0.68352
583.845,64.45329,-3.80012,0.19435,0.68308
584.445,64.51254,-3.82421,0.20332,0.68263
585.045,64.572,-3.81879,0.19879,0.68219
585.645,64.63185,-3.79392,0.19135,0.68175
586.245,64.6918,-3.78261,0.18591,0.68131
586.845,64.75102,-3.7957,0.19389,0.68087
587.445,64.8103,-3.81193,0.19634,0.68043
588.045,64.8696,-3.80669,0.20092,0.68
588.645,64.92923,-3.80333,0.20231,0.67956
589.245,64.98929,-3.80638,0.20234,0.67912
589.845,65.0492,-3.80983,0.2013,0.67868
590.445,65.10899,-3.80734,0.20454,0.67825
591.045,65.1685,-3.82235,0.21218,0.67781
591.645,65.22763,-3.81936,0.21035,0.67737
592.245,65.28701,-3.81022,0.20908,0.67694
592.845,65.34652,-3.8127,0.20846,0.6765
593.445,65.406,-3.81691,0.20743,0.67607
594.045,65.4654,-3.80394,0.2043,0.67563
594.645,65.5247,-3.80305,0.20335,0.6752
595.245,65.584,-3.8248,0.20834,0.67477
595.845,65.64319,-3.81755,0.21522,0.67433
596.445,65.7025,-3.82017,0.20732,0.6739
597.045,65.76175,-3.80278,0.20898,0.67347
597.645,65.82096,-3.80922,0.20193,0.67304
598.245,65.88033,-3.80613,0.20689,0.67261
598.845,65.93955,-3.81239,0.20533,0.67218
599.445,65.99911,-3.80172,0.20149,0.67175
600.045,66.0587,-3.80005,0.20019,0.67132
600.645,66.1181,-3.80001,0.20768,0.67089
601.245,66.1777,-3.81895,0.20269,0.67046
601.845,66.2371,-3.78533,0.20109,0.67003
602.445,66.29643,-3.80438,0.20723,0.6696
603.045,66.35591,-3.80697,0.20456,0.66918
603.645,66.4153,-3.80225,0.20759,0.66875
604.245,66.47507,-3.81221,0.20848,0.66832
604.845,66.53477,-3.81074,0.20932,0.6679
605.445,66.59448,-3.80581,0.20532,0.66747
606.045,66.65433,-3.80007,0.20776,0.66705
606.645,66.71372,-3.81046,0.20991,0.66662
607.245,66.7731,-3.80816,0.21429,0.6662
607.845,66.83261,-3.8096,0.21231,0.66577
608.445,66.89209,-3.80908,0.2111,0.66535
609.045,66.9519,-3.80688,0.21556,0.66493
609.645,67.01167,-3.82458,0.21687,0.66451
610.245,67.07124,-3.81604,0.22045,0.66408
610.845,67.13081,-3.82348,0.22306,0.66366
611.445,67.19051,-3.81553,0.22068,0.66324
612.045,67.25025,-3.79972,0.21309,0.66282
612.645,67.31003,-3.79612,0.20918,0.6624
613.245,67.36973,-3.79497,0.21283,0.66198
613.845,67.4294,-3.79665,0.2116,0.66156
614.445,67.48924,-3.80172,0.21531,0.66115
615.045,67.54897,-3.80867,0.21791,0.66073
615.645,67.60884,-3.81322,0.22104,0.66031
616.245,67.66843,-3.81669,0.22449,0.65989
616.845,67.7281,-3.81312,0.22336,0.65948
617.445,67.7876,-3.81033,0.21958,0.65906
618.045,67.8472,-3.79777,0.21413,0.65864
618.645,67.90677,-3.79903,0.2176,0.65823
619.245,67.9665,-3.8178,0.22364,0.65781
619.845,68.02614,-3.8081,0.2216,0.6574
620.445,68.08565,-3.81549,0.22553,0.65699
621.045,68.1452,-3.80301,0.22826,0.65657
621.645,68.20473,-3.81522,0.23126,0.65616
622.245,68.26445,-3.81902,0.23446,0.65575
622.845,68.32435,-3.82078,0.23221,0.65534
623.445,68.38427,-3.80789,0.22795,0.65493
624.045,68.4442,-3.8139,0.23469,0.65451
624.645,68.5043,-3.8076,0.22661,0.6541
625.245,68.56453,-3.79039,0.22671,0.65369
625.845,68.6245,-3.8152,0.23553,0.65328
626.445,68.68445,-3.81513,0.23604,0.65288
627.045,68.74445,-3.80113,0.22882,0.65247
627.645,68.8044,-3.79687,0.23007,0.65206
628.245,68.8643,-3.80495,0.23319,0.65165
628.845,68.92426,-3.80436,0.23703,0.65125
629.445,68.98401,-3.81456,0.23706,0.65084
630.045,69.04398,-3.81133,0.23225,0.65043
630.645,69.10393,-3.80112,0.23438,0.65003
631.245,69.16382,-3.79803,0.22903,0.64962
631.845,69.22377,-3.79154,0.22586,0.64922
632.445,69.28347,-3.7974,0.23171,0.64881
633.045,69.3431,-3.81524,0.23823,0.64841
633.645,69.40293,-3.81727,0.23812,0.64801
634.245,69.4629,-3.80914,0.23754,0.6476
634.845,69.5231,-3.81055,0.23359,0.6472
635.445,69.58329,-3.80821,0.23305,0.6468
636.045,69.64344,-3.80164,0.23054,0.6464
636.645,69.70329,-3.8044,0.22978,0.646
637.245,69.76292,-3.80522,0.22922,0.6456
637.845,69.82258,-3.81268,0.23427,0.6452
638.445,69.88244,-3.8203,0.23809,0.6448
639.045,69.94246,-3.80701,0.2351,0.6444
639.545,69.99242,-3.80645,0.23467,0.64407