File: 01_Data/Vinyl_Chair_Polyurethane_Foam/MCC/Vinyl_Chair_Polyurethane_Foam_MCC_30K_min_220308_R1.txt
Sample ID:	C:\MCC\MCC Cal\Test\PUF_82C_MCC_30K_min_220308_R1.txt
Sample Weight (mg):	4.14
Heating Rate (C/s):	0.5
Combustor Temp (C):	900
N2 Flow Rate (cc/min):	80
O2 Flow Rate (cc/min):	20
Calibration File:	C:\MCC\MCC Cal\Coeff1 JN10440_30_210304.txt.txt
T Correction Coefficients:	0	1.024463	0
Time Shift (s):	14
*
Time (s)	Temperature (C)	N2 flow rate (cc/min)	O2 flow rate (cc/min)	Flow Rate (cc/min)	Oxygen (%)	HRR (W/g)	Heating rate (C/s)
0.000	108.013	80.003	19.995	103.586	20.135	-0.155	0.021
2.000	107.995	80.003	19.993	103.588	20.135	-0.151	0.020
4.000	107.955	80.004	19.994	103.582	20.134	-0.057	-0.026
6.000	107.969	80.004	19.992	103.596	20.137	-0.314	-0.014
8.000	107.976	80.004	19.993	103.599	20.132	0.098	0.012
10.000	107.974	80.002	19.994	103.601	20.130	0.210	0.004
12.000	107.977	80.004	19.992	103.623	20.128	0.380	-0.010
14.000	108.011	80.005	19.993	103.642	20.127	0.444	-0.005
16.000	108.037	80.004	19.993	103.643	20.126	0.512	0.016
18.000	108.104	80.005	19.992	103.644	20.124	0.709	0.010
20.000	108.153	80.002	19.992	103.650	20.120	1.045	0.040
22.000	108.211	80.005	19.993	103.658	20.122	0.844	0.037
24.000	108.276	80.004	19.992	103.693	20.115	1.447	0.001
26.000	108.430	80.002	19.994	103.721	20.111	1.719	0.051
28.000	108.545	80.004	19.994	103.724	20.107	2.058	0.072
30.000	108.727	80.004	19.993	103.751	20.106	2.132	0.103
32.000	108.884	80.005	19.994	103.775	20.101	2.540	0.073
34.000	109.088	80.004	19.994	103.792	20.098	2.747	0.090
36.000	109.353	80.006	19.994	103.794	20.097	2.834	0.154
38.000	109.632	80.003	19.993	103.801	20.095	2.993	0.139
40.000	109.941	80.005	19.994	103.812	20.097	2.836	0.155
42.000	110.278	80.006	19.993	103.809	20.095	2.955	0.183
44.000	110.660	80.004	19.994	103.817	20.091	3.321	0.191
46.000	111.020	80.005	19.993	103.821	20.093	3.145	0.203
48.000	111.461	80.003	19.994	103.822	20.088	3.507	0.197
50.000	111.935	80.004	19.994	103.829	20.088	3.562	0.231
52.001	112.415	80.006	19.993	103.830	20.089	3.481	0.253
54.000	112.899	80.003	19.994	103.833	20.087	3.604	0.225
56.000	113.405	80.005	19.994	103.832	20.086	3.689	0.257
58.000	113.976	80.005	19.995	103.839	20.088	3.543	0.278
60.000	114.446	80.006	19.994	103.846	20.083	3.891	0.263
62.000	115.072	80.006	19.994	103.834	20.086	3.647	0.313
64.000	115.661	80.004	19.993	103.835	20.081	4.047	0.301
66.000	116.248	80.004	19.994	103.834	20.086	3.677	0.309
68.000	116.893	80.003	19.993	103.855	20.081	4.101	0.315
70.000	117.617	80.004	19.993	103.850	20.079	4.226	0.361
72.000	118.267	80.004	19.993	103.859	20.081	4.080	0.328
74.000	118.925	80.004	19.994	103.853	20.084	3.831	0.330
76.000	119.668	80.003	19.994	103.859	20.083	3.922	0.347
78.000	120.374	80.004	19.992	103.865	20.080	4.152	0.350
80.000	121.163	80.002	19.992	103.874	20.082	4.026	0.402
82.000	121.904	80.004	19.992	103.872	20.080	4.135	0.399
84.000	122.688	80.004	19.992	103.874	20.085	3.741	0.421
86.000	123.494	80.003	19.994	103.874	20.082	4.014	0.392
88.000	124.305	80.004	19.993	103.874	20.083	3.933	0.397
90.000	125.121	80.004	19.993	103.877	20.081	4.041	0.403
92.000	125.989	80.004	19.993	103.873	20.082	3.965	0.398
94.001	126.822	80.004	19.995	103.872	20.085	3.750	0.430
96.000	127.659	80.002	19.993	103.873	20.080	4.128	0.419
98.001	128.526	80.004	19.994	103.873	20.081	4.071	0.454
100.001	129.411	80.002	19.994	103.876	20.085	3.756	0.417
102.001	130.293	80.001	19.994	103.873	20.083	3.926	0.433
104.000	131.227	80.005	19.993	103.874	20.085	3.795	0.449
106.000	132.128	80.004	19.991	103.874	20.084	3.816	0.452
108.000	133.010	80.002	19.993	103.873	20.085	3.754	0.431
110.000	133.951	80.006	19.992	103.873	20.082	4.024	0.493
112.000	134.851	80.006	19.993	103.873	20.086	3.658	0.472
114.000	135.835	80.006	19.992	103.872	20.082	4.018	0.457
116.000	136.777	80.004	19.993	103.869	20.081	4.041	0.478
118.000	137.732	80.005	19.992	103.868	20.085	3.780	0.485
120.000	138.711	80.004	19.994	103.870	20.081	4.062	0.486
122.000	139.672	80.001	19.994	103.868	20.081	4.054	0.475
124.000	140.660	80.002	19.995	103.872	20.082	4.009	0.481
126.001	141.657	80.003	19.995	103.867	20.084	3.852	0.489
128.000	142.629	80.004	19.993	103.872	20.081	4.064	0.463
130.000	143.631	80.005	19.994	103.865	20.084	3.826	0.505
132.000	144.626	80.003	19.993	103.862	20.083	3.890	0.517
134.000	145.632	80.007	19.993	103.872	20.083	3.927	0.491
136.000	146.648	80.006	19.993	103.869	20.086	3.719	0.514
138.000	147.614	80.006	19.993	103.854	20.087	3.603	0.465
140.000	148.618	80.004	19.993	103.860	20.085	3.747	0.493
142.000	149.667	80.006	19.994	103.854	20.087	3.577	0.505
144.000	150.639	80.004	19.994	103.852	20.084	3.840	0.508
146.000	151.661	80.004	19.993	103.845	20.083	3.880	0.521
148.000	152.640	80.001	19.994	103.857	20.080	4.123	0.498
150.000	153.690	80.001	19.995	103.856	20.083	3.891	0.513
152.000	154.668	80.003	19.994	103.839	20.079	4.254	0.512
154.000	155.667	80.002	19.994	103.847	20.082	4.014	0.510
156.000	156.693	80.003	19.995	103.834	20.082	4.027	0.526
158.000	157.688	80.002	19.993	103.834	20.083	3.902	0.490
160.000	158.728	80.004	19.994	103.836	20.083	3.934	0.481
162.000	159.705	80.003	19.994	103.856	20.085	3.742	0.487
164.000	160.727	80.004	19.993	103.926	20.089	3.436	0.505
166.001	161.746	80.006	19.993	103.973	20.090	3.389	0.522
168.000	162.738	80.004	19.992	103.849	20.085	3.788	0.494
170.000	163.731	80.004	19.994	103.851	20.089	3.454	0.478
172.000	164.802	80.008	19.994	103.835	20.089	3.448	0.522
174.000	165.751	80.003	19.994	103.832	20.083	3.882	0.516
176.000	166.822	80.007	19.994	103.831	20.085	3.729	0.564
178.000	167.771	80.004	19.994	103.820	20.084	3.801	0.497
180.000	168.800	80.003	19.993	103.819	20.084	3.811	0.513
182.000	169.791	80.003	19.993	103.820	20.080	4.143	0.490
184.000	170.771	80.003	19.995	103.820	20.085	3.771	0.450
186.000	171.815	80.004	19.994	103.812	20.079	4.240	0.510
188.000	172.787	80.006	19.993	103.810	20.085	3.772	0.511
190.000	173.754	80.004	19.993	103.805	20.081	4.059	0.469
192.000	174.757	80.003	19.994	103.800	20.080	4.161	0.527
194.000	175.736	80.006	19.995	103.800	20.081	4.094	0.511
196.000	176.707	80.004	19.992	103.798	20.077	4.357	0.479
198.000	177.687	80.007	19.993	103.755	20.076	4.462	0.516
200.000	178.667	80.005	19.994	103.744	20.080	4.166	0.488
202.000	179.685	80.005	19.992	103.789	20.082	3.996	0.481
204.000	180.678	80.005	19.994	103.797	20.081	4.079	0.521
206.000	181.669	80.006	19.991	103.799	20.081	4.104	0.493
208.000	182.640	80.005	19.991	103.800	20.082	3.966	0.518
210.000	183.640	80.004	19.994	103.810	20.083	3.925	0.513
212.000	184.612	80.006	19.993	103.801	20.082	4.017	0.476
214.000	185.631	80.004	19.993	103.797	20.082	4.009	0.511
216.000	186.597	80.009	19.993	103.795	20.083	3.894	0.495
218.000	187.634	80.007	19.995	103.790	20.082	3.979	0.522
220.000	188.594	80.006	19.993	103.791	20.082	3.992	0.482
222.000	189.569	80.005	19.994	103.798	20.084	3.798	0.525
224.000	190.547	80.007	19.992	103.808	20.084	3.847	0.511
226.000	191.540	79.999	19.996	103.797	20.083	3.884	0.498
228.000	192.476	80.003	19.992	103.800	20.087	3.637	0.487
230.000	193.547	80.003	19.995	103.815	20.082	3.994	0.468
232.000	194.481	80.002	19.995	103.808	20.085	3.760	0.506
234.000	195.479	80.003	19.995	103.808	20.084	3.849	0.497
236.000	196.451	80.003	19.994	103.807	20.087	3.632	0.480
238.000	197.437	80.004	19.995	103.816	20.083	3.885	0.473
240.000	198.432	80.005	19.994	103.799	20.081	4.100	0.500
242.000	199.433	80.002	19.994	103.795	20.082	3.979	0.496
244.000	200.424	80.006	19.994	103.795	20.088	3.546	0.486
246.000	201.396	80.003	19.995	103.792	20.084	3.849	0.508
248.000	202.357	80.002	19.995	103.791	20.086	3.706	0.466
250.000	203.371	80.003	19.995	103.795	20.083	3.882	0.497
252.000	204.314	80.005	19.993	103.798	20.085	3.755	0.475
254.000	205.317	80.002	19.994	103.781	20.086	3.683	0.470
256.000	206.315	80.004	19.994	103.767	20.081	4.104	0.517
258.000	207.323	80.003	19.994	103.786	20.083	3.927	0.507
260.000	208.316	80.003	19.993	103.777	20.083	3.948	0.509
262.000	209.313	80.001	19.995	103.777	20.083	3.890	0.510
264.000	210.285	80.003	19.992	103.779	20.085	3.779	0.493
266.000	211.298	80.002	19.992	103.784	20.086	3.648	0.514
268.000	212.241	80.003	19.992	103.792	20.088	3.501	0.476
270.000	213.209	80.004	19.993	103.773	20.087	3.580	0.493
272.000	214.216	80.004	19.993	103.766	20.084	3.861	0.512
274.000	215.243	80.005	19.993	103.747	20.087	3.617	0.508
276.000	216.200	80.004	19.994	103.755	20.087	3.592	0.506
278.000	217.176	80.006	19.994	103.743	20.089	3.475	0.504
280.000	218.202	80.005	19.993	103.744	20.083	3.938	0.542
282.000	219.192	80.003	19.993	103.771	20.086	3.645	0.479
284.000	220.162	80.006	19.993	103.783	20.090	3.330	0.503
286.000	221.124	79.994	19.995	103.786	20.085	3.773	0.472
288.000	222.080	80.004	19.989	103.793	20.089	3.460	0.459
290.000	223.116	80.016	19.993	103.797	20.089	3.447	0.469
292.000	224.139	80.008	19.993	103.793	20.087	3.577	0.515
294.000	225.123	80.004	19.992	103.794	20.085	3.764	0.506
296.000	226.126	80.012	19.991	103.794	20.092	3.186	0.503
298.000	227.108	80.003	19.997	103.794	20.090	3.339	0.483
300.000	228.128	80.008	19.990	103.794	20.088	3.500	0.464
302.000	229.130	80.005	19.992	103.795	20.090	3.328	0.480
304.000	230.162	80.004	19.994	103.789	20.091	3.301	0.507
306.000	231.169	80.004	19.993	103.789	20.091	3.273	0.559
308.000	232.182	79.998	19.998	103.793	20.087	3.573	0.481
310.000	233.211	80.001	19.992	103.789	20.089	3.458	0.551
312.000	234.257	80.018	19.992	103.790	20.091	3.288	0.540
314.000	235.237	79.998	19.991	103.799	20.093	3.141	0.492
316.000	236.251	80.009	19.991	103.793	20.093	3.156	0.498
318.000	237.284	80.008	19.994	103.797	20.089	3.473	0.514
320.000	238.272	80.004	19.988	103.794	20.090	3.330	0.499
322.000	239.229	80.003	19.991	103.796	20.091	3.322	0.490
324.000	240.235	79.992	19.995	103.794	20.088	3.557	0.486
326.000	241.226	80.003	19.996	103.793	20.089	3.481	0.472
328.000	242.178	80.000	19.995	103.791	20.089	3.464	0.466
330.000	243.200	80.005	19.994	103.797	20.088	3.496	0.503
332.000	244.182	80.006	19.992	103.786	20.090	3.368	0.487
334.000	245.196	80.001	19.995	103.782	20.090	3.341	0.511
336.000	246.136	80.001	19.995	103.786	20.091	3.271	0.484
338.000	247.157	80.004	19.995	103.790	20.092	3.213	0.474
340.000	248.122	80.001	19.995	103.791	20.091	3.324	0.465
342.000	249.113	79.992	19.998	103.793	20.090	3.368	0.480
344.000	250.153	80.001	19.996	103.772	20.092	3.224	0.493
346.000	251.181	80.001	19.994	103.788	20.089	3.409	0.521
348.000	252.096	80.000	19.995	103.781	20.088	3.534	0.482
350.000	253.156	80.002	19.994	103.788	20.085	3.778	0.502
352.000	254.076	80.005	19.994	103.783	20.087	3.587	0.470
354.000	255.079	79.999	19.995	103.785	20.088	3.519	0.499
356.000	256.015	80.006	19.998	103.776	20.086	3.640	0.492
358.000	257.055	80.007	19.994	103.774	20.089	3.432	0.515
360.000	258.030	80.009	19.991	103.768	20.086	3.709	0.489
362.000	259.005	80.007	19.995	103.782	20.088	3.559	0.490
364.000	259.983	80.006	19.990	103.770	20.081	4.069	0.486
366.000	260.960	79.997	19.993	103.761	20.084	3.831	0.517
368.000	261.933	80.016	19.994	103.778	20.086	3.687	0.474
370.000	262.943	79.981	20.002	103.786	20.083	3.876	0.487
372.001	263.935	80.006	19.993	103.788	20.082	3.968	0.529
374.000	264.925	80.003	19.990	103.774	20.080	4.159	0.491
376.000	265.858	79.998	19.992	103.770	20.080	4.110	0.497
378.000	266.847	80.006	19.994	103.780	20.079	4.189	0.490
380.000	267.875	80.002	19.994	103.789	20.079	4.199	0.488
382.000	268.855	80.009	19.992	103.787	20.083	3.895	0.496
384.001	269.871	80.000	19.994	103.790	20.083	3.897	0.493
386.000	270.924	79.995	19.995	103.787	20.085	3.789	0.546
388.000	271.914	80.000	19.995	103.784	20.081	4.038	0.506
390.000	272.899	80.004	19.994	103.781	20.081	4.042	0.511
392.000	273.940	79.998	19.991	103.773	20.081	4.046	0.509
394.000	274.915	79.992	19.996	103.769	20.081	4.041	0.505
396.000	275.951	79.998	19.996	103.772	20.083	3.914	0.507
398.000	276.966	80.007	19.993	103.782	20.079	4.245	0.510
400.001	277.987	79.999	19.994	103.780	20.084	3.836	0.528
402.000	278.944	79.997	19.994	103.777	20.085	3.733	0.487
404.000	279.989	80.004	19.993	103.775	20.083	3.944	0.496
406.000	280.978	80.007	19.994	103.761	20.082	3.952	0.491
408.000	281.971	79.995	19.996	103.763	20.082	3.967	0.501
410.000	282.995	79.989	19.993	103.774	20.081	4.061	0.510
412.000	284.013	80.003	19.997	103.770	20.082	4.020	0.465
414.000	285.028	80.010	19.994	103.767	20.081	4.086	0.526
416.000	286.002	79.987	19.997	103.771	20.080	4.160	0.487
418.000	287.031	79.993	19.995	103.759	20.080	4.168	0.490
420.000	288.076	80.006	19.995	103.764	20.080	4.186	0.533
422.000	289.070	79.986	19.996	103.778	20.078	4.311	0.524
424.000	290.059	80.002	19.996	103.756	20.078	4.279	0.534
426.000	291.036	80.009	19.995	103.763	20.077	4.407	0.511
428.000	292.062	80.003	19.995	103.757	20.082	3.978	0.485
430.000	293.092	79.996	19.993	103.761	20.083	3.899	0.505
432.000	294.115	80.006	19.991	103.757	20.081	4.090	0.502
434.000	295.102	79.997	19.995	103.761	20.082	3.967	0.480
436.000	296.130	80.002	19.993	103.765	20.080	4.122	0.538
438.000	297.084	80.018	19.991	103.770	20.079	4.262	0.467
440.000	298.136	80.002	19.990	103.770	20.079	4.241	0.536
442.000	299.078	80.000	19.994	103.764	20.080	4.177	0.480
444.000	300.102	80.003	19.993	103.765	20.078	4.290	0.525
446.000	301.117	80.012	19.989	103.762	20.079	4.224	0.486
448.000	302.108	80.019	19.992	103.778	20.079	4.201	0.487
450.000	303.102	80.001	19.990	103.760	20.081	4.090	0.509
452.000	304.104	80.001	19.992	103.761	20.080	4.158	0.503
454.000	305.058	80.001	19.995	103.768	20.083	3.897	0.475
456.001	306.091	80.008	19.994	103.758	20.079	4.239	0.483
458.000	307.133	80.007	19.993	103.767	20.076	4.447	0.524
460.000	308.112	80.003	19.995	103.777	20.079	4.254	0.489
462.000	309.148	80.009	19.993	103.764	20.075	4.559	0.516
464.000	310.086	79.997	19.994	103.759	20.076	4.496	0.493
466.000	311.106	80.002	19.992	103.756	20.078	4.319	0.483
468.000	312.089	80.012	19.991	103.759	20.077	4.407	0.497
470.000	313.100	80.004	19.993	103.772	20.070	4.949	0.501
472.000	314.112	80.003	19.992	103.756	20.074	4.605	0.490
474.000	315.118	79.999	19.989	103.759	20.075	4.549	0.507
476.000	316.022	80.000	19.995	103.757	20.076	4.492	0.465
478.000	317.043	80.002	19.996	103.755	20.074	4.579	0.498
480.000	318.059	80.008	19.991	103.767	20.071	4.819	0.493
482.000	319.045	80.018	19.989	103.767	20.068	5.114	0.465
484.000	320.021	79.988	19.989	103.780	20.073	4.730	0.463
486.000	321.060	80.007	19.989	103.765	20.072	4.774	0.510
488.000	322.043	80.000	19.994	103.776	20.073	4.674	0.539
490.000	323.086	80.015	19.997	103.762	20.070	4.904	0.507
492.000	324.018	80.008	19.994	103.760	20.069	5.027	0.502
494.000	325.045	80.005	19.993	103.757	20.069	5.021	0.506
496.000	326.038	79.975	20.001	103.766	20.069	4.974	0.516
498.000	327.042	80.006	19.991	103.757	20.068	5.048	0.521
500.000	328.030	80.001	19.999	103.759	20.065	5.293	0.471
502.000	329.056	80.009	19.996	103.766	20.066	5.236	0.499
504.000	330.090	80.011	19.993	103.766	20.064	5.397	0.494
506.000	331.102	80.002	19.993	103.778	20.065	5.316	0.507
508.001	332.091	80.005	19.992	103.761	20.067	5.159	0.512
510.000	333.107	80.000	19.994	103.761	20.065	5.299	0.493
512.000	334.115	80.005	19.994	103.766	20.065	5.325	0.471
514.000	335.137	79.996	19.994	103.770	20.064	5.414	0.523
516.000	336.149	80.005	19.991	103.767	20.062	5.571	0.524
518.000	337.162	80.003	19.996	103.765	20.065	5.350	0.517
520.000	338.164	79.992	19.997	103.763	20.059	5.824	0.517
522.000	339.227	80.012	19.987	103.774	20.061	5.635	0.521
524.000	340.182	79.999	19.993	103.774	20.063	5.497	0.501
526.000	341.221	80.009	19.995	103.766	20.062	5.554	0.497
528.000	342.183	79.998	19.993	103.756	20.061	5.601	0.487
530.000	343.223	80.005	19.994	103.761	20.061	5.599	0.477
532.000	344.229	80.011	19.993	103.773	20.063	5.460	0.516
534.000	345.246	80.003	19.993	103.773	20.063	5.494	0.475
536.000	346.258	80.008	19.992	103.767	20.062	5.568	0.528
538.000	347.278	80.002	19.992	103.769	20.059	5.826	0.527
540.000	348.255	80.015	19.995	103.764	20.059	5.751	0.469
542.000	349.355	80.014	19.994	103.757	20.055	6.077	0.527
544.000	350.409	79.998	19.989	103.760	20.058	5.896	0.567
546.000	351.409	80.000	19.992	103.760	20.054	6.204	0.498
548.000	352.441	79.995	19.994	103.759	20.058	5.837	0.530
550.000	353.464	80.002	19.994	103.763	20.053	6.283	0.512
552.000	354.460	80.004	19.991	103.762	20.052	6.330	0.535
554.000	355.467	80.004	19.997	103.769	20.053	6.260	0.494
556.000	356.511	79.997	19.996	103.767	20.051	6.407	0.519
558.000	357.588	80.012	19.990	103.771	20.055	6.098	0.554
560.000	358.534	79.990	19.990	103.775	20.051	6.445	0.522
562.000	359.550	80.016	19.992	103.762	20.048	6.645	0.506
564.000	360.546	80.013	19.989	103.766	20.049	6.568	0.502
566.000	361.610	79.991	19.993	103.766	20.049	6.581	0.537
568.000	362.591	80.016	19.999	103.773	20.044	6.950	0.551
570.000	363.561	79.995	19.986	103.770	20.042	7.091	0.537
572.000	364.559	80.004	19.992	103.780	20.040	7.252	0.510
574.000	365.624	80.009	19.994	103.772	20.040	7.284	0.529
576.000	366.594	80.003	19.996	103.776	20.038	7.430	0.457
578.000	367.647	79.995	19.992	103.786	20.039	7.352	0.520
580.000	368.636	80.004	19.997	103.779	20.031	7.954	0.503
582.000	369.670	80.009	19.994	103.761	20.032	7.867	0.493
584.000	370.681	79.998	19.994	103.771	20.031	8.009	0.523
586.000	371.691	79.998	19.995	103.768	20.025	8.463	0.493
588.000	372.753	79.993	19.995	103.768	20.023	8.612	0.544
590.000	373.831	80.000	19.987	103.791	20.021	8.767	0.528
592.000	374.780	80.006	19.993	103.796	20.012	9.477	0.514
594.000	375.799	79.994	19.994	103.791	20.007	9.879	0.485
596.000	376.849	80.002	19.993	103.796	20.004	10.078	0.491
598.000	377.882	80.011	19.990	103.789	20.002	10.232	0.538
600.000	378.948	80.006	19.990	103.795	19.991	11.080	0.527
602.000	379.948	80.009	19.992	103.795	19.986	11.505	0.487
604.000	380.986	80.004	19.993	103.798	19.981	11.900	0.473
606.000	381.999	80.005	19.997	103.796	19.976	12.310	0.493
608.000	383.034	80.001	19.991	103.798	19.967	12.976	0.497
610.000	384.083	80.007	19.993	103.794	19.958	13.677	0.519
612.000	385.142	80.017	19.991	103.796	19.954	13.996	0.513
614.000	386.198	79.984	19.995	103.791	19.948	14.499	0.533
616.000	387.232	80.007	19.991	103.793	19.943	14.850	0.513
618.000	388.308	80.007	19.992	103.797	19.937	15.324	0.537
620.000	389.351	80.005	19.998	103.799	19.926	16.192	0.552
622.000	390.347	80.001	19.993	103.799	19.919	16.741	0.496
624.000	391.383	79.998	19.991	103.803	19.916	17.018	0.522
626.000	392.403	79.998	19.989	103.817	19.902	18.083	0.513
628.000	393.491	79.998	19.989	103.819	19.892	18.888	0.536
630.000	394.569	80.004	19.991	103.810	19.880	19.802	0.550
632.000	395.597	79.975	19.995	103.831	19.862	21.213	0.518
634.000	396.653	79.995	19.988	103.839	19.848	22.333	0.506
636.000	397.668	79.996	19.993	103.847	19.835	23.339	0.523
638.000	398.759	80.010	19.992	103.838	19.818	24.691	0.530
640.000	399.784	80.002	19.992	103.847	19.802	25.931	0.541
642.000	400.791	79.999	19.992	103.839	19.785	27.226	0.491
644.000	401.842	80.003	19.995	103.840	19.771	28.352	0.506
646.000	402.861	79.977	19.992	103.862	19.750	29.974	0.548
648.000	403.914	80.008	19.988	103.870	19.732	31.412	0.520
650.000	404.931	80.000	20.000	103.874	19.721	32.233	0.504
652.001	405.963	79.998	19.998	103.851	19.712	33.003	0.501
654.000	407.003	80.008	19.989	103.868	19.690	34.730	0.521
656.000	408.018	79.989	19.996	103.899	19.673	36.033	0.495
658.000	409.032	80.008	19.994	103.920	19.658	37.234	0.522
660.000	410.025	79.998	19.998	103.917	19.636	38.907	0.531
662.000	411.010	79.995	19.995	103.904	19.610	41.014	0.506
664.000	412.060	79.998	19.992	103.926	19.589	42.620	0.553
666.000	412.980	80.009	19.995	103.958	19.558	45.095	0.474
668.000	413.969	79.999	19.999	103.956	19.522	47.919	0.485
670.000	414.957	80.020	19.989	103.957	19.487	50.658	0.489
672.000	415.959	80.015	19.989	103.976	19.446	53.873	0.503
674.000	416.934	80.011	19.988	103.984	19.403	57.262	0.488
676.000	417.957	80.001	19.987	103.990	19.368	60.054	0.499
678.000	418.989	80.002	19.993	103.993	19.330	62.983	0.503
680.000	419.995	79.999	20.002	103.987	19.296	65.672	0.512
682.000	420.944	80.003	19.994	103.987	19.258	68.682	0.446
684.000	421.913	79.997	19.995	104.048	19.223	71.383	0.473
686.000	422.909	80.003	19.997	104.097	19.175	75.140	0.480
688.000	423.871	80.009	19.994	104.109	19.116	79.818	0.504
690.000	424.917	80.005	19.996	104.147	19.041	85.809	0.501
692.000	425.890	80.003	19.988	104.158	18.985	90.210	0.507
694.000	426.826	80.001	19.993	104.131	18.928	94.722	0.441
696.000	427.841	80.005	19.993	104.116	18.862	100.070	0.496
698.000	428.864	80.013	19.992	104.132	18.806	104.491	0.521
700.000	429.773	80.006	19.997	104.203	18.751	108.677	0.466
702.000	430.793	80.018	19.997	104.241	18.712	111.658	0.509
704.000	431.724	80.006	19.996	104.231	18.637	117.725	0.484
706.000	432.726	79.992	20.002	104.325	18.502	128.501	0.509
708.000	433.779	79.996	19.994	104.469	18.406	136.025	0.516
710.000	434.774	80.010	19.996	104.388	18.357	139.635	0.514
712.000	435.778	80.009	19.991	104.270	18.251	148.235	0.518
714.000	436.731	79.989	19.996	104.349	18.113	159.253	0.510
716.000	437.749	79.999	19.996	104.489	18.033	165.452	0.506
718.000	438.777	79.991	19.995	104.546	17.958	171.305	0.508
720.000	439.812	79.999	19.991	104.436	17.885	177.131	0.511
722.000	440.855	79.999	19.993	104.347	17.808	183.312	0.537
724.000	441.806	80.001	19.989	104.621	17.758	187.317	0.461
726.000	442.844	80.016	19.991	104.577	17.729	189.581	0.517
728.000	443.891	80.010	19.992	104.523	17.722	190.123	0.510
730.000	444.934	80.000	19.992	104.511	17.711	190.940	0.538
732.000	445.945	80.002	19.991	104.591	17.711	190.928	0.505
734.000	446.987	80.006	19.992	104.649	17.701	191.663	0.522
736.000	448.051	80.007	19.993	104.656	17.698	191.949	0.522
738.001	449.061	80.003	19.992	104.634	17.696	192.102	0.511
740.000	450.136	80.006	19.993	104.621	17.696	192.016	0.521
742.000	451.207	80.013	19.993	104.616	17.706	191.183	0.524
744.000	452.264	80.015	19.993	104.603	17.720	190.050	0.529
746.000	453.338	80.006	19.990	104.585	17.751	187.587	0.537
748.000	454.402	80.002	19.987	104.590	17.785	184.832	0.539
750.000	455.438	79.990	20.005	104.578	17.836	180.742	0.530
752.000	456.530	80.006	19.993	104.549	17.894	176.150	0.525
754.000	457.576	80.015	19.993	104.535	17.962	170.778	0.502
756.000	458.629	79.997	19.997	104.511	18.042	164.409	0.550
758.000	459.724	80.012	19.991	104.474	18.125	157.832	0.541
760.000	460.850	80.007	19.993	104.449	18.215	150.695	0.543
762.000	461.883	80.014	19.995	104.413	18.316	142.703	0.565
764.000	462.927	80.016	19.991	104.392	18.413	135.029	0.519
766.000	463.984	80.016	19.994	104.357	18.522	126.493	0.492
768.000	465.085	80.002	19.997	104.325	18.622	118.593	0.509
770.000	466.121	80.004	19.994	104.298	18.739	109.422	0.530
772.000	467.177	79.997	19.997	104.246	18.852	100.505	0.535
774.000	468.285	79.999	19.996	104.203	18.968	91.345	0.513
776.000	469.317	80.008	19.995	104.183	19.076	82.894	0.518
778.000	470.430	79.993	19.995	104.156	19.176	75.012	0.513
780.000	471.490	80.003	19.989	104.129	19.274	67.340	0.530
782.000	472.529	80.008	19.988	104.103	19.356	60.903	0.519
784.000	473.601	79.997	20.001	104.074	19.433	54.863	0.514
786.000	474.730	80.002	19.994	104.038	19.493	50.102	0.517
788.001	475.795	80.004	19.995	104.020	19.548	45.836	0.551
790.000	476.830	80.005	19.996	103.992	19.599	41.847	0.524
792.000	477.887	80.001	19.990	103.960	19.644	38.255	0.513
794.000	479.020	80.011	19.992	103.949	19.682	35.301	0.584
796.001	479.974	79.997	19.996	103.931	19.720	32.332	0.518
798.001	481.055	80.004	19.993	103.909	19.747	30.219	0.531
800.000	482.099	79.995	19.998	103.903	19.773	28.137	0.520
802.000	483.149	80.002	19.989	103.884	19.799	26.165	0.499
804.000	484.253	80.021	19.992	103.876	19.824	24.214	0.540
806.000	485.239	79.997	19.994	103.866	19.839	23.043	0.532
808.000	486.278	79.999	19.994	103.862	19.859	21.473	0.496
810.000	487.348	80.008	19.995	103.848	19.871	20.482	0.538
812.000	488.355	80.005	19.995	103.831	19.887	19.252	0.523
814.000	489.408	80.001	19.996	103.833	19.897	18.454	0.531
816.000	490.461	79.996	19.993	103.829	19.906	17.749	0.549
818.000	491.498	79.997	19.998	103.828	19.920	16.648	0.523
820.000	492.542	80.007	19.992	103.825	19.924	16.385	0.511
822.000	493.575	80.009	19.992	103.807	19.937	15.343	0.532
824.000	494.628	80.007	19.992	103.798	19.941	15.052	0.519
826.000	495.700	80.001	19.993	103.802	19.949	14.427	0.547
828.000	496.688	79.987	19.994	103.794	19.954	14.022	0.526
830.000	497.724	79.999	19.992	103.799	19.964	13.253	0.516
832.000	498.781	80.006	19.990	103.801	19.965	13.172	0.509
834.000	499.757	79.996	19.993	103.796	19.968	12.916	0.492
836.000	500.789	79.999	19.996	103.797	19.975	12.382	0.519
838.000	501.844	80.007	19.992	103.787	19.980	11.988	0.574
840.000	502.875	80.015	19.990	103.776	19.981	11.882	0.516
842.001	503.879	80.002	19.989	103.776	19.980	11.928	0.533
844.000	504.889	80.008	19.996	103.783	19.982	11.775	0.507
846.000	505.939	80.001	19.991	103.775	19.989	11.300	0.523
848.000	506.984	80.002	19.991	103.773	19.989	11.242	0.536
850.000	508.000	80.001	19.995	103.776	19.990	11.150	0.508
852.000	509.053	80.006	19.996	103.761	19.989	11.293	0.523
854.000	510.048	80.007	19.992	103.755	19.992	11.026	0.478
856.000	511.059	80.007	19.990	103.766	19.992	11.024	0.470
858.000	512.026	79.996	19.995	103.762	19.994	10.837	0.450
860.000	513.134	80.008	19.992	103.760	19.991	11.101	0.532
862.000	514.147	80.016	19.989	103.757	19.993	10.961	0.485
864.000	515.123	80.003	19.993	103.757	19.994	10.854	0.517
866.000	516.151	80.008	19.990	103.754	19.994	10.859	0.485
868.000	517.235	79.999	19.994	103.752	19.991	11.072	0.514
870.000	518.249	80.005	19.994	103.756	19.996	10.747	0.518
872.000	519.283	80.017	19.993	103.756	19.993	10.955	0.514
874.000	520.273	80.004	19.993	103.759	19.990	11.148	0.505
876.000	521.333	80.002	19.990	103.749	19.995	10.761	0.508
878.000	522.337	80.013	19.993	103.760	19.992	11.065	0.523
880.000	523.347	80.005	19.995	103.762	19.990	11.148	0.488
882.000	524.396	80.007	19.997	103.759	19.993	10.970	0.536
884.000	525.398	80.004	19.994	103.755	19.993	10.961	0.495
886.000	526.423	80.000	19.997	103.755	19.992	11.001	0.513
888.000	527.448	79.997	19.989	103.754	19.992	11.038	0.512
890.000	528.502	80.008	19.992	103.754	19.993	10.927	0.526
892.000	529.510	80.006	19.994	103.756	19.991	11.135	0.533
894.000	530.535	80.002	20.000	103.760	19.989	11.228	0.522
896.000	531.581	80.000	20.000	103.759	19.987	11.407	0.544
898.000	532.615	80.009	19.992	103.761	19.986	11.520	0.512
900.000	533.642	80.003	19.992	103.762	19.987	11.399	0.500
902.000	534.656	80.000	19.994	103.764	19.993	10.985	0.520
904.000	535.691	80.018	19.990	103.755	19.992	11.061	0.525
906.000	536.707	79.992	20.001	103.757	19.987	11.395	0.537
908.000	537.698	79.997	19.994	103.757	19.990	11.193	0.486
910.000	538.706	80.003	19.992	103.758	19.990	11.205	0.462
912.000	539.753	79.999	19.995	103.767	19.987	11.384	0.512
914.000	540.810	80.000	19.995	103.762	19.987	11.446	0.532
916.000	541.825	80.004	19.997	103.759	19.993	10.980	0.501
918.000	542.867	79.990	19.995	103.765	19.989	11.234	0.523
920.000	543.872	80.002	19.993	103.763	19.986	11.460	0.498
922.000	544.891	80.004	19.992	103.757	19.990	11.187	0.541
924.000	545.905	80.008	19.995	103.763	19.984	11.617	0.492
926.000	546.922	80.002	19.992	103.755	19.987	11.409	0.509
928.000	547.944	80.003	19.992	103.752	19.987	11.428	0.500
930.000	548.961	80.003	19.992	103.754	19.988	11.326	0.481
932.000	550.042	80.015	19.993	103.760	19.984	11.653	0.558
934.000	550.994	80.008	19.993	103.758	19.985	11.549	0.484
936.000	552.044	80.022	19.991	103.753	19.987	11.423	0.517
938.000	553.044	80.006	19.992	103.751	19.983	11.705	0.499
940.000	554.113	80.000	19.992	103.751	19.985	11.614	0.524
942.000	555.130	80.016	19.992	103.753	19.981	11.897	0.500
944.000	556.214	80.013	19.992	103.757	19.983	11.713	0.522
946.000	557.190	79.999	19.993	103.753	19.983	11.751	0.533
948.000	558.223	80.004	19.994	103.754	19.980	11.941	0.506
950.000	559.234	80.021	19.990	103.760	19.983	11.736	0.491
952.000	560.236	79.998	19.991	103.755	19.984	11.643	0.508
954.000	561.261	80.003	19.992	103.757	19.983	11.743	0.527
956.000	562.293	80.000	19.993	103.757	19.984	11.621	0.511
958.000	563.328	80.002	19.995	103.759	19.980	11.934	0.503
960.000	564.309	80.002	19.994	103.758	19.981	11.891	0.508
962.000	565.311	80.002	19.986	103.756	19.980	12.002	0.482
964.000	566.357	80.003	19.994	103.758	19.981	11.904	0.525
966.000	567.398	80.005	19.992	103.752	19.978	12.102	0.522
968.000	568.373	80.000	19.988	103.748	19.976	12.259	0.486
970.000	569.437	80.012	19.992	103.751	19.977	12.202	0.527
972.000	570.425	80.000	19.996	103.757	19.976	12.302	0.512
974.000	571.422	80.004	19.993	103.758	19.974	12.402	0.495
976.000	572.429	80.002	19.995	103.761	19.975	12.338	0.499
978.000	573.498	80.002	19.994	103.760	19.976	12.276	0.527
980.000	574.513	80.002	19.993	103.760	19.976	12.267	0.522
982.000	575.525	80.004	19.993	103.759	19.978	12.106	0.505
984.000	576.573	80.005	19.993	103.759	19.976	12.292	0.492
986.000	577.589	80.003	19.994	103.759	19.974	12.432	0.491
988.000	578.585	79.998	19.996	103.754	19.975	12.339	0.497
990.000	579.611	80.001	19.995	103.753	19.972	12.621	0.534
992.000	580.621	80.005	19.994	103.754	19.974	12.460	0.507
994.000	581.613	80.002	19.995	103.752	19.972	12.630	0.485
996.000	582.635	80.001	19.994	103.748	19.968	12.934	0.511
998.000	583.619	80.003	19.993	103.749	19.967	12.968	0.487
1000.000	584.610	80.003	19.995	103.750	19.965	13.129	0.457
1002.000	585.633	80.007	19.994	103.749	19.969	12.847	0.515
1004.000	586.567	80.004	19.994	103.752	19.969	12.813	0.473
1006.000	587.616	79.998	19.999	103.750	19.967	12.968	0.484
1008.000	588.628	80.006	19.992	103.752	19.962	13.353	0.489
1010.000	589.552	80.004	19.995	103.751	19.965	13.104	0.487
1012.000	590.583	80.004	19.993	103.749	19.966	13.077	0.532
1014.000	591.528	80.004	19.992	103.754	19.965	13.168	0.471
1016.000	592.610	80.003	19.994	103.751	19.964	13.192	0.541
1018.000	593.565	80.002	19.996	103.753	19.964	13.179	0.504
1020.000	594.631	80.006	19.993	103.753	19.962	13.403	0.504
1022.000	595.600	80.001	19.995	103.755	19.961	13.444	0.499
1024.001	596.662	80.004	19.995	103.756	19.962	13.340	0.526
1026.000	597.660	80.007	19.989	103.755	19.960	13.538	0.501
1028.000	598.675	80.008	19.988	103.760	19.962	13.411	0.520
1030.000	599.649	80.000	19.995	103.756	19.960	13.527	0.488
1032.000	600.668	80.003	19.991	103.751	19.960	13.529	0.508
1034.000	601.662	79.998	19.991	103.757	19.959	13.602	0.492
1036.000	602.647	80.001	19.992	103.756	19.966	13.061	0.489
1038.000	603.722	80.004	19.995	103.760	19.964	13.224	0.526
1040.000	604.586	80.001	19.993	103.757	19.959	13.645	0.474
1042.000	605.702	79.998	19.995	103.755	19.963	13.281	0.458
1044.000	606.645	80.003	19.990	103.758	19.958	13.655	0.548
1046.000	607.654	79.999	19.989	103.762	19.956	13.863	0.537
1048.000	608.592	79.995	19.996	103.762	19.956	13.808	0.704
1050.000	609.941	80.000	19.993	103.762	19.956	13.825	0.581
1052.000	610.820	80.006	19.995	103.762	19.953	14.101	1.062
1054.000	611.696	80.004	19.994	103.755	19.955	13.903	0.586
1056.000	612.882	80.002	19.989	103.756	19.955	13.927	0.396
1058.001	613.714	79.999	19.994	103.756	19.949	14.381	0.425
1060.000	614.769	79.995	19.994	103.757	19.950	14.345	0.506
1062.000	615.850	80.003	19.995	103.755	19.954	13.971	0.507
1064.000	616.851	80.003	19.993	103.755	19.952	14.185	0.542
1066.001	617.882	80.008	19.992	103.754	19.952	14.145	0.527
1068.000	618.882	80.002	19.993	103.756	19.951	14.223	0.548
1070.000	619.927	80.000	19.997	103.756	19.956	13.879	0.490
1072.000	620.935	80.002	19.995	103.755	19.953	14.064	0.523
1074.000	621.959	80.003	19.997	103.753	19.952	14.171	0.504
1076.000	623.072	80.006	19.994	103.753	19.954	13.964	0.529
1078.000	624.120	80.002	19.999	103.755	19.952	14.155	0.488
1080.000	625.160	80.005	19.994	103.751	19.952	14.159	0.505
1082.000	626.224	80.004	19.994	103.753	19.952	14.121	0.521
1084.000	627.307	80.002	19.993	103.751	19.954	14.004	0.544
1086.000	628.305	80.004	19.993	103.753	19.953	14.103	0.523
1088.001	629.369	80.003	19.996	103.748	19.952	14.143	0.533
1090.000	630.399	80.000	19.996	103.747	19.951	14.232	0.520
1092.000	631.457	80.000	19.996	103.749	19.951	14.253	0.528
1094.000	632.413	80.005	19.995	103.744	19.950	14.300	0.496
1096.000	633.473	80.003	19.997	103.749	19.953	14.073	0.533
1098.001	634.549	80.003	19.993	103.755	19.950	14.308	0.540
1100.000	635.615	80.005	19.990	103.754	19.953	14.113	0.554
1102.000	636.627	80.005	19.992	103.754	19.952	14.159	0.520
1104.000	637.674	80.002	19.999	103.752	19.949	14.353	0.509
1106.001	638.699	80.006	19.986	103.752	19.950	14.311	0.494
1108.001	639.719	80.001	19.996	103.752	19.955	13.956	0.522
1110.001	640.736	79.997	19.996	103.753	19.953	14.099	0.491
1112.000	641.803	80.001	19.993	103.749	19.951	14.228	0.536
1114.000	642.859	80.006	19.992	103.752	19.950	14.307	0.571
1116.001	643.864	80.007	19.992	103.757	19.952	14.175	0.536
1118.001	644.892	80.001	19.995	103.756	19.951	14.260	0.524
1120.000	645.900	80.001	19.995	103.757	19.951	14.256	0.516
1122.000	646.913	80.000	19.996	103.756	19.953	14.111	0.504
1124.000	647.964	80.004	19.994	103.755	19.951	14.210	0.537
1126.001	649.005	80.000	19.995	103.754	19.951	14.220	0.542
1128.000	649.997	80.003	19.989	103.753	19.948	14.439	0.507
1130.000	651.006	80.004	19.994	103.744	19.951	14.253	0.507
1132.000	652.068	80.004	19.995	103.748	19.946	14.653	0.521
1134.000	653.056	80.005	19.994	103.747	19.949	14.381	0.497
1136.000	654.078	80.002	19.994	103.749	19.953	14.093	0.518
1138.000	655.043	80.004	19.993	103.754	19.954	14.020	0.471
1140.000	656.156	80.002	19.993	103.754	19.952	14.137	0.517
1142.000	657.122	80.005	19.994	103.740	19.951	14.269	0.503
1144.000	658.129	80.005	19.993	103.747	19.950	14.277	0.508
1146.000	658.945	80.001	19.994	103.748	19.952	14.122	0.434
1148.000	660.288	80.003	19.993	103.743	19.954	14.033	0.548
1150.001	661.222	80.009	19.994	103.746	19.951	14.226	0.579
1152.000	662.197	80.002	19.993	103.736	19.950	14.308	0.509
1154.000	663.210	80.004	19.994	103.748	19.955	13.906	0.527
1156.000	664.237	80.008	19.994	103.754	19.953	14.097	0.463
1158.000	665.243	80.003	19.995	103.737	19.950	14.303	0.524
1160.000	666.230	80.005	19.994	103.746	19.951	14.240	0.521
1162.000	667.250	80.004	19.994	103.749	19.950	14.302	0.494
1164.000	668.266	80.006	19.993	103.744	19.949	14.411	0.486
1166.000	669.230	79.998	19.998	103.748	19.950	14.329	0.510
1168.000	670.253	80.005	19.994	103.746	19.954	13.979	0.480
1170.000	671.247	80.005	19.994	103.744	19.953	14.078	0.532
1172.000	672.261	80.012	19.993	103.753	19.954	14.033	0.498
1174.000	673.219	80.002	19.994	103.745	19.950	14.345	0.476
1176.000	674.250	80.001	19.995	103.738	19.953	14.093	0.482
1178.000	675.331	80.004	19.995	103.748	19.953	14.084	0.551
1180.000	676.300	80.005	19.994	103.745	19.952	14.161	0.509
1182.001	677.250	80.003	19.995	103.741	19.950	14.318	0.486
1184.000	678.302	80.004	19.995	103.741	19.950	14.302	0.484
1186.001	679.294	80.005	19.993	103.736	19.951	14.207	0.480
1188.000	680.322	79.991	19.994	103.728	19.954	13.981	0.491
1190.000	681.290	80.004	19.993	103.731	19.950	14.321	0.219
1192.000	682.404	80.005	19.994	103.748	19.953	14.111	0.722
1194.000	683.304	80.005	19.994	103.732	19.951	14.243	0.533
1196.000	684.269	80.004	19.990	103.740	19.955	13.914	0.469
1198.000	685.293	80.009	19.993	103.738	19.948	14.431	0.477
1200.000	686.306	80.000	19.992	103.726	19.951	14.231	0.510
1202.001	687.265	80.007	19.993	103.735	19.948	14.476	0.462
1204.000	688.262	80.003	19.994	103.744	19.948	14.471	0.481
1206.000	689.283	80.006	19.993	103.738	19.948	14.491	0.507
1208.000	690.258	80.005	19.993	103.742	19.949	14.397	0.491
1210.000	691.191	80.002	19.993	103.747	19.950	14.331	0.473
1212.000	692.250	80.005	19.994	103.745	19.950	14.341	0.476
1214.000	693.238	80.006	19.993	103.750	19.950	14.318	0.493
1216.000	694.222	80.004	19.994	103.744	19.950	14.332	0.508
1218.000	695.234	80.004	19.993	103.750	19.947	14.581	0.508
1220.001	696.237	80.002	19.994	103.742	19.950	14.312	0.498
1222.000	697.245	80.002	19.994	103.748	19.951	14.243	0.508
1224.000	698.246	80.003	19.993	103.742	19.950	14.326	0.513
1226.000	699.278	80.001	19.993	103.750	19.948	14.435	0.512
1228.000	700.251	80.002	19.995	103.753	19.949	14.418	0.510
1230.000	701.293	80.004	19.993	103.754	19.949	14.419	0.530
1232.000	702.291	80.003	19.993	103.748	19.950	14.305	0.486
1234.001	703.302	80.005	19.994	103.757	19.946	14.620	0.478
1236.000	704.339	80.004	19.992	103.756	19.949	14.362	0.526
1238.000	705.335	80.004	19.993	103.759	19.949	14.403	0.507
1240.000	706.328	80.005	19.993	103.752	19.950	14.322	0.512
1242.001	707.348	80.004	19.993	103.745	19.943	14.881	0.468
1244.000	708.329	80.004	19.995	103.735	19.944	14.749	0.459
1246.000	709.349	80.006	19.994	103.744	19.949	14.381	0.487
1248.000	710.305	80.003	19.993	103.725	19.947	14.526	0.456
1250.000	711.338	80.004	19.995	103.735	19.945	14.673	0.515
1252.000	712.364	80.005	19.995	103.747	19.942	14.936	0.515
1254.000	713.352	80.003	19.995	103.743	19.944	14.797	0.469
1256.000	714.328	80.003	19.994	103.734	19.946	14.619	0.485
1258.000	715.389	80.004	19.994	103.720	19.944	14.811	0.519
1260.000	716.418	80.005	19.994	103.734	19.945	14.693	0.503
1262.000	717.406	80.002	19.994	103.727	19.940	15.098	0.478
1264.001	718.412	80.004	19.994	103.727	19.941	14.980	0.492
1266.000	719.422	80.006	19.994	103.740	19.941	15.049	0.506
1268.000	720.461	80.006	19.994	103.740	19.940	15.093	0.526
1270.000	721.447	80.005	19.995	103.742	19.940	15.128	0.493
1272.000	722.476	80.005	19.994	103.736	19.940	15.079	0.503
1274.000	723.492	80.006	19.994	103.744	19.941	14.990	0.495
1276.000	724.531	80.004	19.995	103.735	19.941	14.987	0.521
1278.000	725.491	80.004	19.996	103.742	19.943	14.890	0.519
1280.000	726.530	80.002	19.995	103.751	19.942	14.951	0.505
1282.001	727.559	80.003	19.995	103.747	19.943	14.847	0.521
1284.000	728.584	80.003	19.995	103.749	19.941	15.027	0.497
1286.000	729.600	80.003	19.995	103.744	19.935	15.462	0.497
1288.000	730.651	80.005	19.993	103.750	19.937	15.354	0.529
1290.000	731.681	80.005	19.994	103.737	19.940	15.128	0.520
1292.000	732.719	80.004	19.994	103.746	19.938	15.230	0.514
1294.000	733.714	80.005	19.994	103.741	19.939	15.169	0.484
1296.000	734.780	80.003	19.993	103.739	19.938	15.258	0.522
1298.000	735.776	80.004	19.994	103.729	19.936	15.401	0.494
1300.000	736.761	80.004	19.994	103.727	19.935	15.453	0.504
1302.000	737.770	80.004	19.992	103.736	19.936	15.388	0.483
1304.000	738.883	80.002	19.994	103.731	19.937	15.354	0.573
1306.000	739.843	80.004	19.992	103.735	19.934	15.542	0.498
1308.001	740.912	80.003	19.991	103.740	19.936	15.410	0.529
1310.000	741.935	80.004	19.993	103.736	19.933	15.615	0.518
1312.001	742.935	80.001	19.994	103.731	19.935	15.460	0.487
1313.000	743.434	80.003	19.994	103.737	19.934	15.567	0.517