File: 01_Data/Vinyl_Chair_Polyurethane_Foam/MCC/Vinyl_Chair_Polyurethane_Foam_MCC_30K_min_220309_R3.txt
Sample ID:	C:\MCC\MCC Cal\Test\PUF_82C_MCC_30K_min_220309_R3.txt
Sample Weight (mg):	4.34
Heating Rate (C/s):	0.5
Combustor Temp (C):	900
N2 Flow Rate (cc/min):	80
O2 Flow Rate (cc/min):	20
Calibration File:	C:\MCC\MCC Cal\Coeff1 JN10440_30_210304.txt.txt
T Correction Coefficients:	0	1.024463	0
Time Shift (s):	14
*
Time (s)	Temperature (C)	N2 flow rate (cc/min)	O2 flow rate (cc/min)	Flow Rate (cc/min)	Oxygen (%)	HRR (W/g)	Heating rate (C/s)
0.000	111.854	80.009	19.994	103.692	19.975	-0.084	0.003
2.000	111.826	80.008	19.995	103.691	19.975	-0.090	-0.002
4.000	111.793	80.008	19.996	103.711	19.977	-0.195	-0.005
6.000	111.783	80.008	19.995	103.706	19.977	-0.204	-0.037
8.000	111.776	80.005	19.994	103.711	19.976	-0.128	0.003
10.000	111.786	80.005	19.994	103.716	19.974	-0.012	-0.023
12.000	111.756	80.004	19.994	103.731	19.971	0.206	-0.015
14.000	111.772	80.005	19.994	103.723	19.974	0.031	0.011
16.000	111.757	80.004	19.994	103.735	19.967	0.505	-0.006
18.000	111.817	80.004	19.993	103.781	19.962	0.882	0.021
20.000	111.847	80.007	19.994	103.811	19.961	0.970	0.014
22.000	111.923	80.005	19.993	103.858	19.964	0.777	0.034
24.000	112.043	80.005	19.993	103.884	19.944	2.253	0.058
26.000	112.208	80.004	19.992	103.916	19.946	2.052	0.075
28.000	112.408	80.005	19.994	103.920	19.948	1.965	0.068
30.000	112.626	80.006	19.993	103.916	19.942	2.389	0.103
32.000	112.910	80.005	19.994	103.914	19.944	2.241	0.139
34.000	113.219	80.005	19.994	103.916	19.939	2.581	0.165
36.000	113.664	80.007	19.993	103.920	19.943	2.342	0.226
38.000	113.927	80.005	19.994	103.925	19.938	2.653	0.203
40.000	114.313	80.004	19.994	103.918	19.940	2.550	0.161
42.000	114.733	80.005	19.994	103.912	19.942	2.381	0.189
44.001	115.158	80.004	19.994	103.912	19.939	2.585	0.189
46.000	115.707	80.006	19.993	103.919	19.939	2.632	0.250
48.001	116.084	80.006	19.993	103.923	19.942	2.420	0.188
50.000	116.643	80.006	19.993	103.918	19.937	2.725	0.269
52.001	117.155	80.006	19.992	103.920	19.939	2.633	0.265
54.001	117.665	80.007	19.993	103.912	19.935	2.891	0.224
56.000	118.247	80.008	19.994	103.917	19.938	2.699	0.275
58.000	118.781	80.008	19.993	103.915	19.938	2.683	0.251
60.000	119.352	80.008	19.993	103.920	19.939	2.629	0.269
62.000	120.011	80.008	19.994	103.926	19.939	2.619	0.317
64.000	120.597	80.007	19.995	103.936	19.937	2.744	0.299
66.000	121.218	80.007	19.994	103.948	19.935	2.938	0.308
68.000	121.862	80.005	19.994	103.949	19.934	2.979	0.300
70.000	122.580	80.006	19.994	103.950	19.937	2.790	0.361
72.000	123.254	80.005	19.993	103.947	19.936	2.852	0.346
74.000	123.966	80.006	19.994	103.950	19.936	2.856	0.352
76.000	124.657	80.008	19.995	103.949	19.935	2.905	0.360
78.001	125.391	80.006	19.994	103.948	19.933	3.062	0.344
80.000	126.120	80.008	19.994	103.950	19.935	2.883	0.373
82.001	126.871	80.007	19.994	103.949	19.929	3.361	0.341
84.000	127.653	80.007	19.993	103.953	19.935	2.909	0.389
86.000	128.459	80.008	19.993	103.958	19.932	3.122	0.433
88.001	129.217	80.008	19.993	103.958	19.935	2.940	0.383
90.001	130.038	80.006	19.995	103.962	19.933	3.041	0.411
92.001	130.854	80.007	19.994	103.957	19.935	2.903	0.401
94.000	131.677	80.007	19.994	103.955	19.930	3.319	0.396
96.000	132.455	80.006	19.994	103.953	19.933	3.068	0.373
98.000	133.348	80.006	19.995	103.950	19.934	2.988	0.451
100.000	134.203	80.005	19.996	103.955	19.932	3.153	0.427
102.000	135.087	80.004	19.996	103.958	19.935	2.946	0.416
104.000	135.967	80.005	19.995	103.947	19.932	3.167	0.439
106.001	136.828	80.006	19.994	103.955	19.936	2.833	0.416
108.001	137.742	80.005	19.994	103.949	19.935	2.942	0.457
110.000	138.659	80.007	19.994	103.952	19.937	2.788	0.429
112.000	139.587	80.006	19.993	103.953	19.935	2.891	0.468
114.001	140.488	80.006	19.994	103.951	19.934	2.988	0.476
116.000	141.477	80.006	19.994	103.951	19.938	2.695	0.493
118.000	142.389	80.005	19.993	103.953	19.934	2.979	0.471
120.000	143.365	80.005	19.994	103.950	19.935	2.930	0.507
122.001	144.343	80.006	19.995	103.949	19.938	2.662	0.484
124.000	145.298	80.004	19.995	103.961	19.935	2.873	0.468
126.000	146.281	80.006	19.995	103.959	19.937	2.787	0.508
128.000	147.230	80.006	19.994	103.947	19.939	2.634	0.505
130.000	148.226	80.005	19.993	103.949	19.937	2.788	0.510
132.000	149.222	80.006	19.994	103.950	19.932	3.124	0.509
134.000	150.158	80.005	19.994	103.908	19.935	2.922	0.473
136.000	151.167	80.007	19.994	103.901	19.937	2.749	0.520
138.000	152.168	80.007	19.993	104.007	19.938	2.705	0.476
140.000	153.185	80.008	19.994	103.951	19.941	2.483	0.551
142.000	154.132	80.006	19.993	103.950	19.940	2.520	0.485
144.000	155.130	80.005	19.994	103.951	19.940	2.555	0.481
146.000	156.110	80.007	19.995	103.951	19.941	2.483	0.507
148.000	157.112	80.007	19.994	103.949	19.941	2.462	0.516
150.000	158.151	80.006	19.994	103.951	19.942	2.412	0.516
152.000	159.125	80.007	19.994	103.950	19.942	2.420	0.502
154.000	160.147	80.006	19.993	103.949	19.942	2.351	0.552
156.000	161.183	80.006	19.993	103.943	19.945	2.128	0.488
158.000	162.158	80.007	19.995	103.944	19.945	2.161	0.503
160.000	163.158	80.007	19.993	103.933	19.943	2.315	0.493
162.000	164.177	80.008	19.994	103.917	19.947	2.018	0.520
164.000	165.209	80.008	19.994	103.934	19.949	1.885	0.513
166.000	166.242	80.007	19.994	103.932	19.945	2.177	0.510
168.000	167.256	80.005	19.993	103.913	19.950	1.821	0.532
170.000	168.241	80.006	19.994	103.910	19.948	1.975	0.486
172.000	169.223	80.006	19.995	103.911	19.946	2.086	0.516
174.000	170.277	80.006	19.994	103.917	19.948	1.952	0.502
176.000	171.281	80.006	19.994	103.911	19.949	1.864	0.517
178.000	172.293	80.006	19.994	103.912	19.949	1.858	0.497
180.000	173.282	80.006	19.994	103.910	19.950	1.755	0.492
182.000	174.303	80.005	19.994	103.909	19.952	1.674	0.495
184.000	175.269	80.006	19.995	103.911	19.952	1.652	0.471
186.000	176.313	80.007	19.996	103.909	19.952	1.627	0.516
188.001	177.268	80.006	19.995	103.908	19.953	1.553	0.482
190.000	178.304	80.007	19.994	103.907	19.957	1.236	0.499
192.000	179.290	80.006	19.995	103.904	19.954	1.479	0.510
194.000	180.303	80.005	19.994	103.908	19.955	1.448	0.534
196.000	181.287	80.005	19.995	103.909	19.955	1.390	0.514
198.000	182.279	80.004	19.994	103.903	19.956	1.374	0.478
200.000	183.257	80.005	19.994	103.905	19.955	1.450	0.491
202.000	184.247	80.003	19.995	103.909	19.955	1.444	0.493
204.000	185.251	80.005	19.994	103.909	19.952	1.615	0.523
206.000	186.279	80.004	19.994	103.906	19.956	1.343	0.531
208.000	187.245	80.006	19.994	103.907	19.953	1.569	0.508
210.000	188.212	80.005	19.994	103.908	19.957	1.302	0.493
212.000	189.223	80.005	19.994	103.907	19.957	1.275	0.487
214.000	190.228	80.006	19.995	103.911	19.957	1.234	0.504
216.000	191.134	80.007	19.993	103.904	19.957	1.229	0.453
218.000	192.111	80.007	19.994	103.902	19.958	1.199	0.503
220.000	193.077	80.006	19.994	103.907	19.956	1.316	0.492
222.000	194.071	80.007	19.993	103.901	19.954	1.516	0.511
224.000	195.039	80.006	19.994	103.904	19.957	1.258	0.488
226.000	195.979	80.006	19.993	103.898	19.958	1.190	0.453
228.000	196.955	80.006	19.994	103.900	19.960	1.063	0.465
230.000	197.907	80.005	19.994	103.902	19.954	1.509	0.480
232.000	198.936	80.007	19.993	103.899	19.956	1.310	0.504
234.000	199.893	80.006	19.994	103.892	19.958	1.192	0.460
236.000	200.816	80.006	19.992	103.881	19.958	1.176	0.453
238.000	201.850	80.007	19.994	103.887	19.959	1.085	0.487
240.000	202.839	80.008	19.993	103.886	19.956	1.320	0.476
242.000	203.803	80.008	19.994	103.887	19.955	1.394	0.494
244.000	204.758	80.007	19.996	103.887	19.959	1.141	0.468
246.000	205.733	80.008	19.994	103.895	19.959	1.139	0.466
248.000	206.720	80.007	19.993	103.884	19.957	1.297	0.476
250.000	207.727	80.004	19.994	103.893	19.958	1.225	0.504
252.000	208.740	80.005	19.994	103.890	19.958	1.165	0.515
254.000	209.670	80.004	19.994	103.894	19.962	0.908	0.489
256.000	210.695	80.004	19.995	103.886	19.962	0.920	0.504
258.000	211.666	80.005	19.995	103.887	19.960	1.023	0.457
260.000	212.655	80.004	19.994	103.888	19.959	1.091	0.488
262.000	213.633	80.004	19.994	103.890	19.961	0.931	0.492
264.000	214.632	80.006	19.994	103.880	19.961	0.941	0.526
266.000	215.637	80.005	19.993	103.882	19.963	0.824	0.480
268.000	216.592	80.005	19.995	103.898	19.962	0.925	0.488
270.000	217.578	80.006	19.993	103.890	19.965	0.679	0.478
272.000	218.565	80.006	19.994	103.886	19.962	0.906	0.537
274.000	219.560	80.004	19.994	103.889	19.965	0.690	0.516
276.000	220.538	80.004	19.994	103.892	19.963	0.840	0.481
278.000	221.523	80.005	19.993	103.886	19.966	0.626	0.505
280.000	222.546	80.004	19.993	103.886	19.965	0.690	0.507
282.000	223.522	80.004	19.995	103.874	19.963	0.836	0.495
284.000	224.504	80.003	19.994	103.876	19.963	0.828	0.455
286.000	225.496	80.004	19.994	103.878	19.966	0.556	0.467
288.000	226.505	80.005	19.994	103.874	19.967	0.541	0.503
290.000	227.513	80.004	19.995	103.872	19.965	0.681	0.512
292.000	228.510	80.006	19.995	103.871	19.965	0.694	0.510
294.000	229.515	80.006	19.994	103.870	19.965	0.649	0.510
296.000	230.513	80.008	19.993	103.879	19.968	0.434	0.492
298.000	231.479	80.006	19.993	103.874	19.969	0.401	0.480
300.000	232.510	80.007	19.994	103.871	19.966	0.562	0.507
302.000	233.533	80.006	19.994	103.868	19.964	0.764	0.536
304.000	234.503	80.005	19.995	103.869	19.966	0.564	0.536
306.000	235.536	80.005	19.995	103.871	19.968	0.414	0.469
308.000	236.520	80.006	19.995	103.872	19.969	0.333	0.502
310.000	237.523	80.006	19.995	103.837	19.965	0.702	0.491
312.000	238.537	80.005	19.993	103.809	19.967	0.527	0.517
314.000	239.501	80.006	19.994	103.877	19.967	0.539	0.492
316.000	240.501	80.007	19.994	103.943	19.966	0.622	0.483
318.000	241.492	80.007	19.993	103.867	19.968	0.443	0.523
320.000	242.521	80.007	19.994	103.859	19.965	0.679	0.522
322.000	243.537	80.007	19.994	103.873	19.967	0.544	0.521
324.000	244.491	80.008	19.994	103.876	19.970	0.290	0.490
326.000	245.506	80.006	19.994	103.872	19.970	0.276	0.500
328.000	246.533	80.006	19.993	103.873	19.968	0.439	0.503
330.000	247.488	80.006	19.992	103.872	19.970	0.259	0.507
332.000	248.516	80.005	19.993	103.871	19.970	0.307	0.522
334.000	249.508	80.005	19.994	103.869	19.968	0.449	0.497
336.000	250.474	80.005	19.994	103.872	19.971	0.194	0.495
338.000	251.520	80.004	19.993	103.873	19.969	0.399	0.508
340.000	252.510	80.006	19.992	103.873	19.972	0.132	0.508
342.000	253.481	80.005	19.994	103.867	19.972	0.117	0.468
344.000	254.462	80.005	19.994	103.872	19.976	-0.187	0.513
346.000	255.448	80.004	19.994	103.872	19.973	0.041	0.498
348.000	256.457	80.005	19.994	103.873	19.969	0.354	0.503
350.000	257.435	80.005	19.994	103.856	19.971	0.224	0.483
352.000	258.438	80.006	19.994	103.863	19.973	0.086	0.502
354.000	259.445	80.005	19.994	103.870	19.976	-0.124	0.507
356.000	260.442	80.005	19.994	103.869	19.976	-0.183	0.500
358.000	261.415	80.004	19.993	103.866	19.976	-0.185	0.508
360.000	262.438	80.004	19.994	103.868	19.977	-0.212	0.543
362.000	263.422	80.006	19.993	103.869	19.976	-0.189	0.464
364.000	264.401	80.003	19.994	103.868	19.974	-0.023	0.504
366.000	265.406	80.004	19.995	103.869	19.977	-0.263	0.480
368.000	266.433	80.004	19.996	103.865	19.979	-0.371	0.526
370.000	267.442	80.006	19.995	103.867	19.976	-0.152	0.489
372.000	268.497	80.006	19.995	103.858	19.977	-0.228	0.524
374.000	269.462	80.007	19.994	103.868	19.977	-0.245	0.515
376.000	270.455	80.007	19.994	103.852	19.978	-0.307	0.493
378.000	271.479	80.006	19.995	103.859	19.975	-0.103	0.506
380.000	272.473	80.006	19.995	103.866	19.977	-0.235	0.480
382.000	273.495	80.006	19.995	103.859	19.976	-0.154	0.473
384.000	274.479	80.007	19.994	103.856	19.976	-0.159	0.495
386.000	275.486	80.005	19.995	103.861	19.979	-0.412	0.479
388.000	276.509	80.006	19.994	103.849	19.978	-0.278	0.503
390.000	277.484	80.006	19.995	103.853	19.978	-0.317	0.487
392.000	278.489	80.005	19.993	103.863	19.979	-0.391	0.499
394.000	279.487	80.006	19.994	103.859	19.981	-0.556	0.492
396.000	280.479	80.007	19.994	103.855	19.978	-0.274	0.466
398.000	281.511	80.007	19.994	103.865	19.981	-0.517	0.539
400.000	282.530	80.007	19.994	103.866	19.980	-0.430	0.531
402.000	283.513	80.007	19.995	103.854	19.985	-0.807	0.509
404.000	284.523	80.008	19.994	103.859	19.978	-0.276	0.472
406.000	285.559	80.007	19.993	103.848	19.982	-0.572	0.486
408.000	286.552	80.006	19.993	103.843	19.981	-0.558	0.476
410.000	287.548	80.005	19.994	103.842	19.979	-0.412	0.484
412.000	288.563	80.005	19.993	103.857	19.979	-0.389	0.535
414.000	289.565	80.005	19.995	103.850	19.981	-0.513	0.480
416.001	290.594	80.004	19.994	103.843	19.979	-0.370	0.509
418.000	291.601	80.006	19.994	103.841	19.980	-0.467	0.487
420.000	292.589	80.004	19.996	103.845	19.978	-0.303	0.495
422.000	293.591	80.006	19.994	103.839	19.979	-0.362	0.504
424.000	294.580	80.007	19.995	103.854	19.981	-0.500	0.493
426.000	295.595	80.007	19.995	103.855	19.981	-0.521	0.499
428.000	296.575	80.005	19.994	103.839	19.977	-0.226	0.476
430.000	297.549	80.006	19.994	103.844	19.978	-0.325	0.497
432.000	298.576	80.006	19.993	103.857	19.981	-0.496	0.481
434.000	299.602	80.005	19.995	103.844	19.976	-0.128	0.509
436.000	300.561	80.006	19.994	103.856	19.981	-0.494	0.468
438.000	301.606	80.005	19.994	103.843	19.979	-0.368	0.511
440.000	302.579	80.004	19.995	103.844	19.981	-0.550	0.490
442.000	303.578	80.003	19.995	103.844	19.982	-0.582	0.472
444.000	304.596	80.005	19.995	103.846	19.981	-0.533	0.510
446.000	305.576	80.003	19.995	103.842	19.982	-0.572	0.473
448.000	306.608	80.005	19.995	103.853	19.984	-0.759	0.501
450.000	307.621	80.004	19.995	103.853	19.983	-0.667	0.508
452.000	308.596	80.005	19.994	103.848	19.984	-0.784	0.475
454.000	309.614	80.005	19.995	103.842	19.980	-0.438	0.505
456.000	310.605	80.006	19.995	103.841	19.980	-0.422	0.498
458.000	311.658	80.007	19.993	103.839	19.982	-0.634	0.521
460.001	312.717	80.006	19.992	103.839	19.984	-0.778	0.523
462.000	313.697	80.006	19.994	103.845	19.983	-0.712	0.529
464.000	314.702	80.005	19.994	103.846	19.985	-0.788	0.510
466.000	315.735	80.005	19.994	103.842	19.983	-0.700	0.530
468.000	316.722	80.005	19.996	103.842	19.986	-0.903	0.491
470.000	317.678	80.004	19.995	103.843	19.985	-0.815	0.492
472.000	318.717	80.005	19.995	103.837	19.987	-0.961	0.511
474.000	319.723	80.005	19.995	103.840	19.988	-1.029	0.517
476.000	320.702	80.006	19.994	103.843	19.987	-0.965	0.474
478.000	321.715	80.007	19.995	103.834	19.985	-0.811	0.499
480.000	322.732	80.008	19.994	103.835	19.985	-0.862	0.508
482.000	323.740	80.009	19.993	103.837	19.983	-0.675	0.499
484.000	324.743	80.006	19.997	103.823	19.986	-0.930	0.509
486.000	325.772	80.007	19.995	103.831	19.985	-0.815	0.514
488.000	326.795	80.007	19.994	103.829	19.985	-0.852	0.499
490.000	327.780	80.007	19.993	103.827	19.985	-0.858	0.512
492.000	328.795	80.006	19.993	103.839	19.984	-0.745	0.501
494.000	329.782	80.006	19.993	103.841	19.984	-0.727	0.490
496.000	330.803	80.006	19.993	103.842	19.986	-0.928	0.490
498.000	331.815	80.006	19.994	103.835	19.988	-1.035	0.497
500.001	332.816	80.005	19.993	103.834	19.983	-0.675	0.511
502.000	333.833	80.004	19.993	103.828	19.985	-0.792	0.515
504.000	334.850	80.005	19.994	103.833	19.988	-1.013	0.495
506.000	335.852	80.006	19.994	103.834	19.987	-0.996	0.484
508.000	336.848	80.006	19.994	103.831	19.985	-0.807	0.523
510.000	337.842	80.006	19.994	103.831	19.988	-1.039	0.531
512.000	338.882	80.004	19.994	103.831	19.988	-1.037	0.526
514.000	339.844	80.006	19.993	103.835	19.985	-0.794	0.484
516.000	340.892	80.006	19.993	103.832	19.985	-0.856	0.512
518.000	341.868	80.006	19.993	103.833	19.983	-0.710	0.493
520.000	342.845	80.005	19.994	103.839	19.983	-0.687	0.488
522.000	343.893	80.005	19.994	103.840	19.984	-0.776	0.479
524.000	344.902	80.006	19.994	103.843	19.984	-0.737	0.496
526.000	345.882	80.004	19.994	103.836	19.984	-0.731	0.495
528.000	346.902	80.006	19.994	103.840	19.983	-0.661	0.509
530.000	347.895	80.006	19.993	103.834	19.983	-0.667	0.507
532.000	348.877	80.006	19.994	103.834	19.986	-0.893	0.518
534.000	349.871	80.005	19.994	103.838	19.984	-0.722	0.504
536.000	350.873	80.005	19.994	103.836	19.983	-0.663	0.502
538.000	351.898	80.006	19.995	103.837	19.980	-0.469	0.497
540.000	352.920	80.005	19.994	103.835	19.982	-0.603	0.542
542.000	353.936	80.007	19.993	103.840	19.980	-0.473	0.494
544.000	354.937	80.008	19.994	103.830	19.979	-0.364	0.495
546.000	355.973	80.007	19.994	103.838	19.980	-0.453	0.531
548.000	356.962	80.005	19.996	103.828	19.977	-0.200	0.518
550.000	357.956	80.006	19.994	103.844	19.976	-0.154	0.496
552.000	358.982	80.007	19.994	103.835	19.976	-0.167	0.481
554.000	359.993	80.007	19.993	103.830	19.975	-0.107	0.517
556.000	360.992	80.007	19.994	103.830	19.973	0.093	0.516
558.000	362.057	80.007	19.995	103.830	19.972	0.148	0.541
560.000	363.029	80.007	19.995	103.832	19.969	0.333	0.513
562.000	364.021	80.008	19.994	103.830	19.971	0.239	0.489
564.000	365.028	80.007	19.995	103.841	19.966	0.562	0.512
566.000	366.054	80.006	19.994	103.841	19.966	0.587	0.493
568.000	367.060	80.005	19.995	103.833	19.965	0.677	0.507
570.000	368.099	80.006	19.995	103.838	19.960	1.048	0.530
572.000	369.161	80.005	19.995	103.837	19.958	1.210	0.522
574.000	370.136	80.006	19.993	103.833	19.958	1.169	0.461
576.000	371.255	80.005	19.994	103.831	19.955	1.388	0.548
578.000	372.265	80.005	19.994	103.833	19.949	1.894	0.507
580.000	373.305	80.004	19.994	103.847	19.946	2.069	0.519
582.000	374.340	80.006	19.994	103.843	19.943	2.347	0.507
584.000	375.413	80.006	19.994	103.854	19.940	2.536	0.507
586.000	376.405	80.005	19.993	103.863	19.937	2.761	0.502
588.000	377.565	80.005	19.994	103.868	19.932	3.109	0.554
590.000	378.574	80.005	19.993	103.859	19.924	3.732	0.502
592.000	379.611	80.004	19.994	103.865	19.917	4.247	0.506
594.000	380.701	80.004	19.994	103.871	19.911	4.716	0.547
596.000	381.719	80.005	19.994	103.870	19.905	5.185	0.522
598.000	382.798	80.005	19.994	103.869	19.899	5.581	0.526
600.000	383.868	80.004	19.994	103.867	19.890	6.285	0.554
602.000	384.969	80.004	19.994	103.874	19.884	6.746	0.537
604.000	386.020	80.005	19.994	103.823	19.881	6.969	0.542
606.001	387.073	80.005	19.995	103.859	19.871	7.666	0.528
608.000	388.143	80.006	19.994	103.953	19.862	8.330	0.519
610.000	389.253	80.006	19.994	103.883	19.855	8.888	0.575
612.000	390.288	80.007	19.993	103.898	19.843	9.756	0.541
614.000	391.342	80.006	19.994	103.895	19.837	10.199	0.521
616.000	392.440	80.008	19.994	103.890	19.824	11.184	0.555
618.000	393.535	80.007	19.993	103.893	19.811	12.136	0.549
620.000	394.604	80.007	19.993	103.899	19.801	12.883	0.515
622.000	395.669	80.005	19.994	103.901	19.790	13.776	0.528
624.001	396.765	80.005	19.994	103.907	19.774	14.956	0.548
626.000	397.829	80.005	19.995	103.909	19.755	16.382	0.531
628.000	398.880	80.004	19.993	103.917	19.738	17.661	0.528
630.000	399.977	80.006	19.994	103.909	19.726	18.504	0.528
632.001	401.022	80.005	19.995	103.907	19.711	19.633	0.561
634.000	402.046	80.005	19.994	103.912	19.695	20.857	0.540
636.000	403.098	80.007	19.994	103.937	19.677	22.210	0.523
638.000	404.138	80.007	19.993	103.947	19.662	23.303	0.524
640.000	405.169	80.009	19.994	103.947	19.644	24.642	0.523
642.000	406.217	80.007	19.993	103.950	19.616	26.741	0.534
644.000	407.269	80.007	19.993	103.982	19.585	29.110	0.510
646.000	408.249	80.006	19.993	103.988	19.564	30.648	0.496
648.000	409.281	80.004	19.994	103.960	19.540	32.481	0.504
650.000	410.335	80.005	19.995	103.954	19.518	34.095	0.529
652.000	411.259	80.004	19.994	103.976	19.496	35.747	0.483
654.000	412.329	80.005	19.995	104.043	19.470	37.705	0.507
656.000	413.254	80.004	19.994	104.046	19.437	40.153	0.487
658.000	414.233	80.004	19.994	104.053	19.399	43.014	0.496
660.000	415.226	80.005	19.994	104.066	19.358	46.099	0.476
662.000	416.188	80.004	19.995	104.072	19.316	49.245	0.473
664.000	417.200	80.004	19.995	104.068	19.269	52.787	0.493
666.000	418.221	80.005	19.993	104.090	19.224	56.199	0.474
668.000	419.207	80.005	19.993	104.085	19.178	59.672	0.484
670.000	420.192	80.006	19.994	104.128	19.134	62.953	0.508
672.000	421.208	80.005	19.995	104.140	19.090	66.211	0.506
674.000	422.187	80.004	19.994	104.142	19.045	69.581	0.488
676.000	423.183	80.006	19.993	104.182	18.990	73.792	0.505
678.001	424.146	80.005	19.993	104.223	18.921	78.987	0.514
680.000	425.120	80.005	19.994	104.256	18.857	83.831	0.500
682.000	426.113	80.006	19.992	104.255	18.797	88.350	0.506
684.000	427.133	80.005	19.994	104.249	18.735	93.007	0.493
686.000	428.142	80.006	19.994	104.263	18.661	98.516	0.514
688.000	429.129	80.005	19.996	104.322	18.593	103.706	0.505
690.000	430.152	80.007	19.994	104.369	18.516	109.609	0.498
692.000	431.153	80.007	19.993	104.389	18.432	115.954	0.497
694.000	432.162	80.007	19.994	104.394	18.373	120.312	0.510
696.000	433.185	80.005	19.994	104.401	18.326	123.677	0.497
698.000	434.226	80.008	19.993	104.417	18.214	132.242	0.532
700.000	435.254	80.007	19.994	104.545	18.079	142.613	0.507
702.000	436.236	80.008	19.993	104.645	17.987	149.397	0.502
704.000	437.261	80.006	19.994	104.572	17.902	155.965	0.472
706.000	438.233	80.007	19.993	104.483	17.823	161.893	0.476
708.000	439.272	80.007	19.993	104.420	17.761	166.515	0.535
710.000	440.270	80.007	19.993	104.635	17.707	170.673	0.503
712.000	441.255	80.006	19.993	104.635	17.667	173.653	0.487
714.000	442.277	80.007	19.994	104.641	17.641	175.669	0.500
716.000	443.273	80.006	19.993	104.710	17.619	177.261	0.509
718.000	444.285	80.008	19.993	104.683	17.598	178.883	0.459
720.000	445.295	80.007	19.993	104.707	17.583	179.957	0.493
722.000	446.331	80.008	19.994	104.731	17.571	180.816	0.531
724.000	447.314	80.006	19.995	104.731	17.560	181.625	0.521
726.000	448.361	80.006	19.993	104.719	17.559	181.722	0.537
728.000	449.381	80.005	19.994	104.720	17.566	181.150	0.499
730.000	450.371	80.004	19.994	104.700	17.578	180.169	0.502
732.000	451.388	80.005	19.995	104.696	17.603	178.290	0.508
734.000	452.416	80.005	19.994	104.681	17.638	175.602	0.536
736.000	453.411	80.006	19.995	104.672	17.687	171.848	0.497
738.000	454.392	80.005	19.995	104.663	17.739	167.932	0.507
740.000	455.413	80.005	19.994	104.630	17.805	162.948	0.523
742.000	456.436	80.005	19.994	104.618	17.880	157.248	0.508
744.000	457.429	80.006	19.995	104.582	17.965	150.764	0.505
746.000	458.402	80.005	19.996	104.559	18.056	143.859	0.497
748.000	459.442	80.004	19.994	104.537	18.154	136.471	0.524
750.000	460.420	80.003	19.994	104.501	18.258	128.649	0.499
752.000	461.432	80.005	19.995	104.465	18.359	121.029	0.493
754.001	462.479	80.004	19.994	104.429	18.463	113.229	0.493
756.000	463.468	80.005	19.995	104.387	18.571	105.138	0.498
758.000	464.478	80.004	19.994	104.345	18.681	96.849	0.498
760.000	465.495	80.004	19.994	104.316	18.796	88.210	0.506
762.000	466.527	80.006	19.994	104.276	18.910	79.641	0.543
764.000	467.548	80.006	19.994	104.247	19.020	71.415	0.510
766.000	468.542	80.005	19.994	104.219	19.119	63.947	0.522
768.001	469.546	80.006	19.993	104.201	19.214	56.858	0.462
770.000	470.576	80.006	19.992	104.174	19.296	50.710	0.502
772.000	471.623	80.006	19.994	104.144	19.368	45.328	0.531
774.000	472.681	80.006	19.994	104.119	19.435	40.263	0.530
776.000	473.727	80.006	19.994	104.085	19.492	36.042	0.524
778.000	474.802	80.006	19.994	104.066	19.541	32.392	0.519
780.000	475.822	80.006	19.994	104.039	19.585	29.035	0.524
782.000	476.839	80.006	19.994	104.026	19.623	26.258	0.498
784.000	477.897	80.007	19.994	104.014	19.658	23.625	0.522
786.000	478.987	80.006	19.994	103.994	19.690	21.228	0.537
788.000	480.047	80.006	19.994	103.984	19.714	19.382	0.552
790.000	481.093	80.007	19.994	103.967	19.743	17.264	0.548
792.000	482.122	80.006	19.993	103.956	19.768	15.353	0.497
794.000	483.204	80.007	19.992	103.954	19.785	14.075	0.520
796.000	484.246	80.007	19.993	103.952	19.807	12.478	0.540
798.000	485.304	80.009	19.993	103.929	19.824	11.232	0.528
800.000	486.337	80.010	19.993	103.913	19.838	10.123	0.511
802.000	487.399	80.008	19.993	103.910	19.853	9.016	0.497
804.000	488.496	80.008	19.993	103.890	19.866	8.031	0.537
806.000	489.562	80.008	19.993	103.880	19.877	7.259	0.537
808.000	490.580	80.006	19.994	103.887	19.891	6.185	0.495
810.000	491.659	80.006	19.994	103.870	19.902	5.397	0.516
812.000	492.694	80.007	19.994	103.871	19.912	4.604	0.540
814.000	493.754	80.005	19.994	103.870	19.917	4.225	0.518
816.000	494.798	80.005	19.994	103.866	19.929	3.373	0.503
818.000	495.848	80.005	19.996	103.850	19.934	3.001	0.538
820.000	496.869	80.005	19.996	103.833	19.941	2.431	0.520
822.000	497.863	80.006	19.993	103.847	19.946	2.100	0.502
824.000	498.937	80.007	19.993	103.841	19.953	1.558	0.531
826.000	499.897	80.006	19.994	103.834	19.954	1.480	0.520
828.000	500.923	80.006	19.994	103.830	19.960	1.072	0.470
830.000	501.902	80.006	19.994	103.819	19.962	0.914	0.513
832.000	502.950	80.005	19.995	103.777	19.965	0.644	0.506
834.000	503.917	80.006	19.995	103.878	19.970	0.284	0.529
836.000	504.849	80.006	19.995	103.833	19.970	0.276	0.480
838.000	505.888	80.006	19.995	103.831	19.969	0.348	0.524
840.000	506.879	80.005	19.995	103.831	19.972	0.165	0.497
842.001	507.913	80.004	19.995	103.827	19.976	-0.167	0.524
844.000	508.962	80.006	19.997	103.826	19.974	-0.008	0.485
846.000	509.961	80.005	19.995	103.827	19.976	-0.169	0.498
848.000	510.903	80.005	19.994	103.832	19.978	-0.311	0.588
850.001	511.620	80.005	19.994	103.828	19.979	-0.401	0.322
852.000	512.927	80.006	19.994	103.825	19.981	-0.543	1.046
854.000	513.935	80.007	19.995	103.826	19.981	-0.517	0.445
856.000	514.920	80.007	19.994	103.826	19.981	-0.547	0.408
858.000	515.931	80.007	19.993	103.834	19.982	-0.625	0.524
860.000	516.951	80.008	19.992	103.820	19.983	-0.667	0.542
862.000	517.990	80.006	19.992	103.819	19.983	-0.658	0.517
864.000	518.984	80.006	19.992	103.829	19.981	-0.549	0.557
866.000	520.059	80.005	19.994	103.821	19.983	-0.642	0.508
868.000	521.046	80.007	19.995	103.817	19.984	-0.780	0.536
870.000	522.115	80.005	19.993	103.796	19.988	-1.039	0.514
872.000	523.154	80.006	19.994	103.817	19.985	-0.851	0.535
874.000	524.172	80.008	19.993	103.806	19.987	-0.988	0.511
876.000	525.200	80.008	19.993	103.817	19.982	-0.599	0.549
878.000	526.288	80.009	19.994	103.819	19.980	-0.486	0.521
880.000	527.337	80.008	19.994	103.817	19.975	-0.095	0.541
882.000	528.367	80.008	19.993	103.763	19.972	0.144	0.524
884.000	529.413	80.009	19.993	103.801	19.981	-0.496	0.520
886.000	530.450	80.009	19.993	103.816	19.982	-0.628	0.529
888.000	531.545	80.007	19.994	103.878	19.982	-0.597	0.538
890.000	532.571	80.007	19.995	103.822	19.984	-0.716	0.538
892.000	533.572	80.008	19.994	103.817	19.983	-0.700	0.515
894.000	534.626	80.006	19.994	103.816	19.983	-0.673	0.554
896.000	535.656	80.007	19.994	103.807	19.983	-0.704	0.532
898.000	536.734	80.006	19.994	103.801	19.987	-0.940	0.530
900.000	537.765	80.006	19.995	103.821	19.984	-0.728	0.511
902.001	538.846	80.006	19.994	103.824	19.985	-0.825	0.532
904.001	539.845	80.003	19.996	103.814	19.986	-0.909	0.491
906.000	540.906	80.006	19.995	103.811	19.988	-1.023	0.518
908.000	541.920	80.006	19.995	103.800	19.983	-0.646	0.478
910.000	542.955	80.006	19.995	103.796	19.989	-1.134	0.504
912.000	543.998	80.005	19.995	103.805	19.983	-0.706	0.507
914.000	545.029	80.006	19.995	103.806	19.982	-0.597	0.482
916.000	546.038	80.006	19.994	103.812	19.985	-0.860	0.522
918.000	547.029	80.006	19.995	103.806	19.983	-0.687	0.483
920.000	548.051	80.004	19.993	103.801	19.985	-0.846	0.500
922.000	549.031	80.005	19.994	103.800	19.983	-0.699	0.499
924.000	550.006	80.005	19.995	103.805	19.986	-0.915	0.493
926.000	550.952	80.005	19.994	103.800	19.989	-1.099	0.452
928.001	551.911	80.005	19.994	103.798	19.987	-0.950	0.499
930.000	552.894	80.006	19.995	103.798	19.986	-0.870	0.489
932.000	553.837	80.005	19.995	103.800	19.982	-0.599	0.468
934.000	554.854	80.007	19.994	103.793	19.981	-0.560	0.518
936.000	555.832	80.007	19.996	103.793	19.982	-0.570	0.511
938.000	556.850	80.006	19.995	103.793	19.984	-0.755	0.527
940.000	557.738	80.007	19.995	103.793	19.990	-1.212	0.492
942.000	558.734	80.006	19.994	103.794	19.980	-0.473	0.468
944.000	559.726	80.007	19.995	103.797	19.986	-0.872	0.523
946.000	560.677	80.005	19.994	103.800	19.986	-0.883	0.497
948.000	561.689	80.007	19.994	103.801	19.985	-0.841	0.500
950.000	562.672	80.007	19.994	103.800	19.984	-0.743	0.476
952.000	563.731	80.006	19.993	103.793	19.982	-0.636	0.490
954.000	564.730	80.007	19.994	103.804	19.984	-0.774	0.475
956.000	565.718	80.009	19.993	103.801	19.984	-0.784	0.506
958.000	566.751	80.009	19.993	103.793	19.982	-0.632	0.531
960.000	567.762	80.009	19.994	103.798	19.980	-0.422	0.511
962.000	568.786	80.009	19.994	103.798	19.983	-0.658	0.521
964.000	569.792	80.008	19.994	103.804	19.984	-0.772	0.490
966.000	570.845	80.007	19.993	103.803	19.982	-0.623	0.524
968.000	571.873	80.006	19.994	103.802	19.983	-0.683	0.512
970.000	572.886	80.005	19.995	103.802	19.982	-0.609	0.491
972.000	573.906	80.005	19.993	103.800	19.984	-0.778	0.497
974.000	574.958	80.006	19.994	103.801	19.984	-0.739	0.489
976.000	576.002	80.006	19.993	103.801	19.980	-0.488	0.542
978.000	577.041	80.006	19.993	103.799	19.981	-0.541	0.516
980.000	578.075	80.006	19.993	103.798	19.983	-0.665	0.528
982.000	579.098	80.007	19.994	103.802	19.985	-0.809	0.540
984.000	580.127	80.005	19.993	103.799	19.983	-0.667	0.518
986.000	581.136	80.006	19.993	103.806	19.983	-0.669	0.497
988.000	582.242	80.006	19.993	103.816	19.982	-0.593	0.533
990.000	583.251	80.006	19.994	103.800	19.982	-0.595	0.508
992.000	584.274	80.005	19.994	103.800	19.983	-0.648	0.502
994.000	585.350	80.006	19.994	103.803	19.983	-0.704	0.535
996.000	586.323	80.006	19.994	103.799	19.984	-0.741	0.521
998.000	587.346	80.005	19.995	103.805	19.983	-0.708	0.487
1000.000	588.368	80.004	19.995	103.809	19.980	-0.424	0.521
1002.000	589.438	80.005	19.995	103.797	19.982	-0.574	0.509
1004.000	590.444	80.005	19.995	103.794	19.980	-0.488	0.504
1006.000	591.416	80.006	19.995	103.796	19.981	-0.541	0.508
1008.000	592.436	80.006	19.995	103.795	19.980	-0.442	0.517
1010.000	593.433	80.006	19.995	103.794	19.983	-0.640	0.510
1012.000	594.408	80.006	19.995	103.794	19.981	-0.564	0.495
1014.000	595.431	80.008	19.994	103.804	19.982	-0.615	0.511
1016.000	596.380	80.006	19.995	103.804	19.978	-0.335	0.486
1018.000	597.421	80.009	19.995	103.807	19.980	-0.418	0.490
1020.000	598.399	80.007	19.995	103.799	19.974	-0.029	0.485
1022.000	599.465	80.008	19.996	103.794	19.981	-0.504	0.530
1024.001	600.531	80.006	19.997	103.805	19.976	-0.187	0.521
1026.002	601.512	80.007	19.995	103.822	19.974	-0.027	0.507
1028.001	602.556	80.005	19.996	103.810	19.975	-0.084	0.512
1030.000	603.637	80.006	19.994	103.805	19.976	-0.128	0.473
1032.000	604.726	80.006	19.995	103.808	19.976	-0.138	0.565
1034.000	605.750	80.007	19.995	103.810	19.976	-0.119	0.502
1036.000	606.856	80.008	19.993	103.802	19.976	-0.185	0.530
1038.000	607.906	80.008	19.994	103.807	19.977	-0.243	0.504
1040.000	608.993	80.009	19.994	103.803	19.974	0.031	0.543
1042.000	610.101	80.009	19.993	103.813	19.974	0.004	0.547
1044.000	611.152	80.009	19.995	103.815	19.973	0.037	0.557
1046.000	612.259	80.008	19.993	103.811	19.976	-0.160	0.536
1048.001	613.285	80.007	19.993	103.819	19.976	-0.146	0.522
1050.000	614.419	80.007	19.993	103.811	19.975	-0.074	0.574
1052.000	615.495	80.007	19.993	103.811	19.974	0.021	0.533
1054.000	616.599	80.007	19.994	103.809	19.973	0.045	0.585
1056.000	617.616	80.007	19.994	103.812	19.973	0.068	0.514
1058.001	618.675	80.007	19.994	103.805	19.976	-0.146	0.536
1060.000	619.773	80.008	19.993	103.806	19.972	0.138	0.524
1062.001	620.806	80.005	19.994	103.799	19.974	0.008	0.509
1064.000	621.887	80.005	19.993	103.802	19.976	-0.146	0.504
1066.000	622.885	80.005	19.994	103.798	19.974	-0.039	0.509
1068.000	623.983	80.007	19.995	103.794	19.976	-0.154	0.530
1070.000	625.024	80.006	19.994	103.798	19.976	-0.130	0.518
1072.000	626.064	80.007	19.994	103.796	19.980	-0.453	0.515
1074.000	627.074	80.007	19.994	103.803	19.978	-0.317	0.513
1076.001	628.133	80.007	19.993	103.806	19.977	-0.208	0.518
1078.001	629.159	80.007	19.993	103.798	19.976	-0.134	0.551
1080.001	630.174	80.007	19.994	103.808	19.977	-0.206	0.516
1082.001	631.214	80.007	19.993	103.800	19.976	-0.183	0.495
1084.000	632.186	80.005	19.994	103.800	19.978	-0.337	0.500
1086.000	633.185	80.006	19.993	103.798	19.978	-0.294	0.482
1088.000	634.221	80.006	19.994	103.798	19.978	-0.270	0.506
1090.000	635.220	80.005	19.995	103.797	19.975	-0.080	0.523
1092.000	636.220	80.007	19.993	103.804	19.979	-0.376	0.473
1094.000	637.229	80.008	19.994	103.795	19.979	-0.397	0.514
1096.001	638.177	80.007	19.994	103.798	19.978	-0.302	0.501
1098.000	639.162	80.008	19.994	103.798	19.976	-0.169	0.505
1100.000	640.150	80.007	19.995	103.794	19.977	-0.220	0.497
1102.000	641.088	80.007	19.994	103.795	19.981	-0.523	0.486
1104.000	642.065	80.008	19.994	103.796	19.979	-0.414	0.457
1106.000	643.040	80.006	19.994	103.795	19.976	-0.160	0.496
1108.000	643.983	80.006	19.994	103.797	19.978	-0.339	0.483
1110.000	644.942	80.005	19.993	103.787	19.975	-0.066	0.467
1112.000	645.908	80.006	19.992	103.795	19.976	-0.183	0.465
1114.000	646.888	80.007	19.994	103.796	19.979	-0.344	0.487
1116.000	647.893	80.006	19.994	103.800	19.977	-0.251	0.513
1118.000	648.887	80.007	19.995	103.797	19.980	-0.426	0.513
1120.000	649.852	80.008	19.994	103.801	19.977	-0.235	0.471
1122.000	650.781	80.007	19.994	103.800	19.978	-0.290	0.475
1124.000	651.834	80.007	19.994	103.800	19.979	-0.407	0.497
1126.000	652.804	80.007	19.996	103.793	19.978	-0.315	0.478
1128.000	653.878	80.007	19.994	103.791	19.977	-0.193	0.520
1130.000	654.889	80.006	19.995	103.791	19.979	-0.366	0.521
1132.000	655.959	80.006	19.995	103.792	19.976	-0.181	0.510
1134.000	657.033	80.006	19.994	103.794	19.980	-0.473	0.533
1136.000	658.058	80.007	19.994	103.794	19.979	-0.407	0.532
1138.000	659.125	80.008	19.993	103.794	19.982	-0.638	0.543
1140.000	660.194	80.007	19.993	103.806	19.979	-0.407	0.508
1142.000	661.295	80.007	19.994	103.803	19.981	-0.504	0.538
1144.001	662.300	80.006	19.995	103.797	19.983	-0.699	0.524
1146.000	663.385	80.006	19.995	103.796	19.982	-0.632	0.491
1148.001	664.488	80.006	19.994	103.796	19.984	-0.737	0.533
1150.000	665.519	80.005	19.994	103.794	19.982	-0.570	0.521
1152.001	666.601	80.006	19.993	103.796	19.982	-0.628	0.536
1154.000	667.690	80.007	19.993	103.794	19.983	-0.710	0.547
1156.000	668.779	80.006	19.994	103.794	19.980	-0.436	0.535
1158.001	669.847	80.005	19.993	103.795	19.980	-0.446	0.528
1160.000	670.911	80.005	19.994	103.795	19.981	-0.555	0.544
1162.000	671.979	80.004	19.995	103.797	19.984	-0.776	0.544
1164.000	673.050	80.005	19.993	103.802	19.982	-0.627	0.531
1166.000	674.123	80.005	19.993	103.797	19.984	-0.786	0.528
1168.000	675.178	80.007	19.993	103.799	19.985	-0.833	0.522
1170.001	676.289	80.007	19.993	103.799	19.985	-0.802	0.546
1172.000	677.294	80.006	19.993	103.796	19.983	-0.671	0.548
1174.000	678.349	80.007	19.993	103.797	19.985	-0.792	0.541
1176.000	679.394	80.008	19.993	103.796	19.986	-0.893	0.540
1178.000	680.412	80.008	19.994	103.799	19.985	-0.804	0.519
1180.000	681.460	80.009	19.993	103.801	19.986	-0.920	0.522
1182.000	682.502	80.007	19.993	103.800	19.983	-0.687	0.516
1184.000	683.582	80.008	19.993	103.799	19.986	-0.883	0.544
1186.000	684.539	80.008	19.994	103.789	19.983	-0.648	0.495
1188.001	685.598	80.006	19.994	103.782	19.987	-0.952	0.522
1190.000	686.606	80.007	19.994	103.816	19.986	-0.916	0.524
1192.000	687.622	80.009	19.994	103.804	19.989	-1.115	0.531
1194.000	688.660	80.008	19.994	103.792	19.985	-0.837	0.522
1196.000	689.644	80.009	19.994	103.769	19.982	-0.627	0.493
1198.000	690.690	80.008	19.994	103.727	19.990	-1.197	0.556
1200.000	691.669	80.007	19.994	103.796	19.987	-0.969	0.491
1202.001	692.671	80.009	19.993	103.842	19.987	-0.946	0.493
1204.001	693.716	80.007	19.993	103.791	19.989	-1.094	0.533
1206.000	694.689	80.010	19.994	103.785	19.988	-1.074	0.506
1208.000	695.704	80.006	19.994	103.790	19.986	-0.903	0.495
1210.000	696.709	80.007	19.995	103.791	19.986	-0.930	0.505
1212.000	697.746	80.004	19.994	103.789	19.984	-0.716	0.500
1214.000	698.740	80.005	19.995	103.789	19.987	-0.969	0.499
1216.000	699.720	80.005	19.994	103.781	19.980	-0.481	0.505
1218.000	700.661	80.005	19.997	103.791	19.982	-0.594	0.457
1220.000	701.764	80.005	19.994	103.792	19.983	-0.702	0.499
1222.000	702.769	80.005	19.995	103.792	19.983	-0.669	0.507
1224.000	703.784	80.004	19.995	103.795	19.982	-0.593	0.522
1226.000	704.797	80.005	19.995	103.793	19.980	-0.469	0.490
1228.000	705.810	80.006	19.994	103.780	19.980	-0.481	0.508
1230.000	706.772	80.006	19.995	103.791	19.978	-0.317	0.498
1232.000	707.842	80.005	19.993	103.807	19.984	-0.743	0.519
1234.000	708.847	80.006	19.994	103.799	19.980	-0.477	0.531
1236.000	709.860	80.005	19.993	103.801	19.983	-0.669	0.508
1238.001	710.852	80.007	19.994	103.790	19.982	-0.605	0.491
1240.001	711.923	80.006	19.993	103.792	19.981	-0.543	0.514
1242.000	712.933	80.005	19.993	103.796	19.985	-0.796	0.512
1244.000	713.907	80.006	19.994	103.796	19.983	-0.675	0.503
1246.001	714.972	80.005	19.993	103.795	19.983	-0.685	0.542
1248.001	715.944	80.005	19.994	103.795	19.984	-0.718	0.500
1250.000	717.009	80.007	19.994	103.790	19.983	-0.666	0.537
1252.000	718.027	80.006	19.994	103.789	19.982	-0.603	0.521
1254.000	719.025	80.005	19.994	103.786	19.983	-0.646	0.507
1256.000	720.027	80.007	19.993	103.778	19.984	-0.782	0.526
1258.000	720.991	80.006	19.994	103.788	19.984	-0.745	0.480
1260.000	722.060	80.008	19.994	103.783	19.981	-0.551	0.565
1262.000	723.023	80.008	19.994	103.781	19.981	-0.551	0.506
1264.000	723.951	80.008	19.995	103.786	19.978	-0.331	0.480
1266.000	724.941	80.008	19.994	103.785	19.982	-0.595	0.465
1268.000	725.961	80.008	19.993	103.769	19.979	-0.397	0.498
1270.001	726.940	80.007	19.994	103.794	19.984	-0.734	0.493
1272.001	727.956	80.007	19.993	103.778	19.981	-0.535	0.508
1274.000	728.947	80.009	19.994	103.781	19.980	-0.448	0.503
1276.001	729.921	80.007	19.994	103.785	19.981	-0.560	0.487
1278.000	730.985	80.009	19.994	103.791	19.981	-0.508	0.522
1280.000	732.024	80.008	19.993	103.782	19.980	-0.430	0.523
1282.000	733.032	80.008	19.994	103.792	19.981	-0.506	0.492
1284.001	734.075	80.008	19.993	103.792	19.979	-0.366	0.512
1286.000	735.100	80.008	19.994	103.794	19.983	-0.662	0.503
1288.000	736.194	80.007	19.994	103.791	19.982	-0.574	0.542
1290.000	737.140	80.007	19.994	103.790	19.980	-0.434	0.514
1292.000	738.222	80.007	19.994	103.786	19.981	-0.551	0.533
1294.001	739.254	80.005	19.994	103.785	19.981	-0.535	0.520
1296.000	740.313	80.006	19.994	103.785	19.984	-0.726	0.535
1298.000	741.380	80.006	19.993	103.794	19.981	-0.516	0.537
1300.000	742.447	80.006	19.993	103.795	19.984	-0.757	0.523
1301.500	743.221	80.004	19.994	103.785	19.982	-0.595	0.506