File: 01_Data/Polystyrene_81C/MCC/Polystyrene_81C_MCC_30K_min_220302_R3.txt
Sample ID:	C:\MCC\MCC Cal\Test\Polystyrene_81C_MCC_30K_min_220302_R3.txt
Sample Weight (mg):	4.47
Heating Rate (C/s):	0.5
Combustor Temp (C):	900
N2 Flow Rate (cc/min):	80
O2 Flow Rate (cc/min):	20
Calibration File:	C:\MCC\MCC Cal\Coeff1 JN10440_30_210304.txt.txt
T Correction Coefficients:	0	1.024463	0
Time Shift (s):	14
*
Time (s)	Temperature (C)	N2 flow rate (cc/min)	O2 flow rate (cc/min)	Flow Rate (cc/min)	Oxygen (%)	HRR (W/g)	Heating rate (C/s)
0.000	112.714	80.005	19.989	103.629	19.969	0.049	0.008
2.000	112.701	80.012	19.995	103.624	19.970	-0.065	0.001
4.000	112.691	80.007	19.996	103.625	19.968	0.121	0.010
6.000	112.696	80.009	19.988	103.627	19.969	0.049	-0.009
8.000	112.708	80.011	19.993	103.628	19.964	0.372	0.023
10.001	112.768	80.011	19.992	103.637	19.963	0.453	0.041
12.000	112.718	80.008	19.995	103.638	19.964	0.424	-0.008
14.000	112.755	80.005	19.990	103.640	19.964	0.394	0.018
16.000	112.732	80.004	19.993	103.661	19.963	0.467	0.005
18.000	112.773	80.002	19.998	103.671	19.958	0.857	0.028
20.000	112.775	80.004	19.995	103.698	19.954	1.142	-0.024
22.000	112.840	80.003	19.996	103.713	19.952	1.282	0.035
24.000	112.855	80.005	19.996	103.735	19.953	1.210	0.009
26.000	112.989	80.006	19.989	103.724	19.951	1.350	0.075
28.000	113.053	80.007	19.997	103.741	19.949	1.457	0.059
30.000	113.222	80.007	19.994	103.741	19.943	1.907	0.068
32.000	113.353	80.008	19.991	103.719	19.941	2.075	0.098
34.000	113.484	80.007	19.995	103.857	19.938	2.256	0.052
36.001	113.709	80.003	19.991	103.835	19.934	2.594	0.112
38.000	113.926	80.008	19.995	103.849	19.933	2.612	0.099
40.000	114.268	80.009	19.991	103.839	19.929	2.899	0.164
42.000	114.551	80.005	19.998	103.843	19.925	3.254	0.134
44.000	114.875	80.005	19.996	103.831	19.923	3.393	0.176
46.000	115.207	80.006	19.995	103.858	19.923	3.351	0.208
48.000	115.574	80.002	20.001	103.871	19.922	3.431	0.176
50.000	115.963	80.006	19.996	103.868	19.921	3.486	0.204
52.000	116.391	80.002	19.997	103.871	19.922	3.459	0.243
54.000	116.904	80.013	19.988	103.881	19.920	3.576	0.231
56.001	117.360	80.006	19.994	103.882	19.918	3.702	0.253
58.000	117.866	80.005	19.997	103.877	19.923	3.387	0.234
60.000	118.447	80.005	19.996	103.879	19.923	3.340	0.253
62.000	119.021	80.005	19.995	103.889	19.923	3.371	0.286
64.001	119.605	80.009	19.997	103.888	19.917	3.806	0.306
66.000	120.212	80.004	19.998	103.872	19.920	3.592	0.321
68.001	120.871	80.009	19.992	103.870	19.917	3.770	0.332
70.000	121.508	80.006	19.995	103.876	19.923	3.358	0.324
72.001	122.183	80.006	19.995	103.877	19.918	3.705	0.334
74.001	122.888	80.005	19.996	103.878	19.918	3.748	0.350
76.000	123.598	80.006	19.995	103.883	19.918	3.723	0.323
78.000	124.305	80.008	19.993	103.886	19.918	3.707	0.354
80.000	125.021	80.007	19.996	103.876	19.919	3.689	0.350
82.000	125.768	80.004	19.995	103.891	19.914	4.027	0.363
84.001	126.502	80.005	19.997	103.894	19.913	4.102	0.365
86.000	127.270	80.009	19.994	103.893	19.912	4.130	0.376
88.000	128.024	80.006	19.998	103.908	19.911	4.239	0.379
90.000	128.838	80.009	19.993	103.904	19.911	4.202	0.379
92.001	129.646	80.007	19.993	103.903	19.914	3.993	0.412
94.001	130.450	80.010	19.993	103.904	19.914	4.053	0.409
96.000	131.266	80.006	19.995	103.914	19.915	3.971	0.388
98.001	132.065	80.004	19.994	103.915	19.912	4.187	0.391
100.000	132.951	80.004	19.994	103.914	19.914	4.031	0.461
102.000	133.777	80.001	19.998	103.913	19.912	4.178	0.437
104.001	134.689	80.005	19.992	103.912	19.911	4.245	0.426
106.000	135.565	80.006	19.995	103.915	19.909	4.352	0.441
108.001	136.478	80.009	19.993	103.899	19.910	4.303	0.439
110.000	137.375	80.006	19.993	103.908	19.910	4.301	0.465
112.000	138.331	80.005	19.992	103.908	19.911	4.223	0.482
114.000	139.204	80.005	19.995	103.904	19.912	4.175	0.437
116.000	140.141	80.004	19.994	103.907	19.910	4.329	0.477
118.001	141.055	80.007	19.992	103.907	19.914	4.042	0.454
120.000	142.029	80.002	20.000	103.907	19.918	3.737	0.474
122.000	143.003	80.006	19.995	103.908	19.910	4.296	0.483
124.000	143.986	80.008	19.993	103.894	19.911	4.270	0.499
126.001	144.946	80.005	19.998	103.883	19.912	4.163	0.479
128.000	145.904	80.007	19.996	103.895	19.914	4.024	0.476
130.000	146.872	80.006	19.995	103.888	19.909	4.403	0.476
132.000	147.847	80.012	19.991	103.890	19.905	4.692	0.484
134.000	148.873	80.006	19.993	103.884	19.909	4.355	0.505
136.000	149.831	80.004	19.999	103.903	19.910	4.345	0.450
138.000	150.845	80.007	19.994	103.890	19.909	4.389	0.527
140.000	151.827	80.002	19.992	103.851	19.910	4.323	0.492
142.000	152.862	80.011	19.995	103.812	19.910	4.280	0.473
144.000	153.796	80.007	19.990	103.953	19.915	3.957	0.466
146.000	154.765	80.008	19.992	103.915	19.913	4.097	0.475
148.000	155.775	80.007	19.992	103.877	19.910	4.277	0.500
150.000	156.806	80.006	19.988	103.874	19.911	4.256	0.524
152.000	157.804	80.003	19.995	103.867	19.912	4.178	0.513
154.000	158.846	80.006	19.996	103.897	19.912	4.164	0.539
156.000	159.815	80.005	19.997	103.894	19.911	4.253	0.479
158.000	160.842	80.004	19.998	103.879	19.913	4.107	0.521
160.000	161.833	80.006	19.992	103.877	19.915	3.981	0.483
162.000	162.813	80.010	19.994	103.876	19.911	4.243	0.470
164.000	163.832	80.006	19.997	103.876	19.911	4.211	0.468
166.000	164.918	80.008	19.995	103.871	19.909	4.394	0.545
168.000	165.898	80.005	19.998	103.869	19.916	3.883	0.502
170.000	166.946	80.008	19.995	103.868	19.917	3.833	0.523
172.000	167.901	80.009	19.994	103.862	19.912	4.144	0.479
174.000	168.960	80.003	19.996	103.867	19.913	4.085	0.515
176.000	169.911	80.003	20.001	103.860	19.913	4.104	0.466
178.000	170.953	80.003	19.996	103.869	19.913	4.105	0.488
180.000	171.941	80.009	19.991	103.869	19.912	4.130	0.508
182.000	172.956	80.013	19.992	103.868	19.913	4.093	0.508
184.000	173.955	80.003	19.993	103.870	19.914	4.013	0.506
186.000	174.961	80.012	19.994	103.869	19.915	3.955	0.467
188.000	175.989	80.004	19.998	103.852	19.914	4.034	0.510
190.000	176.962	80.007	19.991	103.836	19.912	4.187	0.515
192.000	177.978	80.006	19.994	103.862	19.914	3.991	0.477
194.000	179.014	80.006	19.995	103.851	19.914	4.030	0.532
196.000	180.007	80.005	19.992	103.848	19.916	3.890	0.499
198.000	181.043	80.007	19.995	103.847	19.916	3.897	0.492
200.000	182.023	80.006	19.994	103.843	19.919	3.683	0.525
202.000	183.021	80.006	19.994	103.844	19.919	3.685	0.473
204.000	184.038	80.003	19.992	103.839	19.913	4.110	0.534
206.000	185.029	80.007	19.994	103.846	19.917	3.817	0.489
208.000	186.023	80.002	19.998	103.849	19.916	3.852	0.504
210.000	187.064	80.003	19.986	103.837	19.915	3.915	0.511
212.000	188.077	80.001	19.996	103.846	19.917	3.804	0.493
214.000	189.112	80.004	19.994	103.835	19.918	3.752	0.519
216.000	190.115	80.006	19.990	103.855	19.915	3.922	0.501
218.000	191.009	80.009	19.995	103.840	19.915	3.941	0.431
220.000	192.038	80.004	20.003	103.833	19.915	3.957	0.475
222.000	193.059	80.007	19.994	103.848	19.915	3.931	0.500
224.000	194.052	80.005	19.997	103.837	19.919	3.675	0.491
226.000	195.032	80.004	19.994	103.828	19.916	3.851	0.502
228.000	196.049	80.005	19.994	103.821	19.917	3.824	0.463
230.000	196.977	80.004	19.995	103.848	19.915	3.909	0.437
232.000	197.981	80.005	19.996	103.847	19.918	3.762	0.495
234.000	198.945	80.001	19.999	103.831	19.915	3.937	0.477
236.000	199.964	80.008	19.996	103.828	19.912	4.188	0.486
238.000	200.965	80.006	19.996	103.832	19.913	4.079	0.524
240.000	201.926	80.011	19.992	103.828	19.912	4.174	0.480
242.000	202.936	80.005	19.999	103.831	19.912	4.147	0.479
244.000	203.884	80.006	19.997	103.833	19.912	4.176	0.474
246.000	204.846	80.002	20.002	103.825	19.913	4.089	0.483
248.000	205.807	80.008	19.997	103.825	19.914	3.990	0.447
250.000	206.836	80.007	19.996	103.831	19.913	4.095	0.531
252.000	207.811	80.008	19.994	103.825	19.913	4.091	0.500
254.000	208.837	80.004	19.998	103.828	19.917	3.801	0.496
256.000	209.802	80.006	19.995	103.826	19.917	3.831	0.498
258.000	210.820	80.009	19.993	103.828	19.916	3.873	0.493
260.000	211.764	80.007	19.994	103.831	19.916	3.839	0.484
262.000	212.729	80.007	19.996	103.825	19.916	3.849	0.468
264.000	213.716	80.003	19.996	103.820	19.918	3.730	0.518
266.000	214.760	80.005	19.998	103.829	19.918	3.733	0.530
268.000	215.721	80.006	19.996	103.823	19.918	3.736	0.503
270.000	216.739	80.006	19.995	103.825	19.915	3.956	0.502
272.000	217.712	80.007	19.993	103.826	19.918	3.719	0.525
274.000	218.676	80.008	19.998	103.822	19.921	3.489	0.472
276.000	219.698	80.005	19.994	103.831	19.922	3.437	0.499
278.000	220.671	80.003	20.000	103.835	19.918	3.748	0.483
280.000	221.643	80.005	19.995	103.811	19.917	3.770	0.477
282.000	222.670	80.005	19.996	103.825	19.921	3.490	0.516
284.000	223.653	80.007	19.994	103.832	19.921	3.538	0.518
286.000	224.605	80.008	19.995	103.830	19.918	3.744	0.463
288.000	225.654	80.008	19.998	103.810	19.921	3.544	0.522
290.000	226.637	80.004	19.994	103.816	19.920	3.552	0.534
292.001	227.634	80.004	19.993	103.810	19.922	3.420	0.488
294.000	228.624	80.006	19.997	103.811	19.920	3.583	0.484
296.000	229.629	80.004	19.995	103.812	19.920	3.573	0.488
298.000	230.656	80.007	19.993	103.815	19.918	3.743	0.518
300.000	231.612	80.004	19.993	103.821	19.919	3.637	0.467
302.000	232.602	80.007	19.999	103.809	19.916	3.892	0.513
304.000	233.618	80.007	19.993	103.804	19.918	3.725	0.537
306.000	234.618	80.009	19.994	103.816	19.915	3.912	0.521
308.000	235.644	80.009	19.993	103.804	19.920	3.610	0.502
310.000	236.603	80.009	19.993	103.811	19.921	3.537	0.466
312.000	237.578	80.009	19.995	103.815	19.915	3.958	0.483
314.000	238.609	80.008	19.991	103.806	19.917	3.832	0.490
316.000	239.576	80.007	19.995	103.795	19.916	3.878	0.508
318.000	240.574	80.009	19.993	103.796	19.916	3.880	0.508
320.000	241.540	80.007	19.995	103.796	19.913	4.058	0.498
322.000	242.623	80.008	19.994	103.809	19.916	3.862	0.516
324.000	243.630	80.010	19.995	103.797	19.917	3.777	0.515
326.000	244.593	80.013	19.991	103.797	19.917	3.808	0.498
328.000	245.602	80.007	19.990	103.793	19.919	3.666	0.495
330.000	246.628	80.009	19.995	103.800	19.918	3.706	0.528
332.000	247.610	80.007	19.994	103.799	19.917	3.767	0.502
334.000	248.594	80.006	19.998	103.794	19.917	3.773	0.489
336.000	249.661	80.007	19.995	103.792	19.914	4.043	0.541
338.000	250.659	80.006	19.998	103.794	19.914	4.013	0.516
340.000	251.693	80.006	19.995	103.799	19.916	3.840	0.489
342.000	252.730	80.008	19.993	103.796	19.914	3.999	0.516
344.000	253.675	80.008	19.995	103.797	19.914	3.983	0.449
346.000	254.683	80.005	19.995	103.805	19.913	4.062	0.467
348.000	255.712	80.004	19.995	103.803	19.915	3.916	0.535
350.000	256.676	80.004	19.995	103.799	19.919	3.638	0.483
352.000	257.677	80.005	19.995	103.798	19.918	3.709	0.477
354.000	258.669	80.006	19.997	103.795	19.917	3.816	0.481
356.000	259.669	80.005	19.996	103.798	19.916	3.904	0.493
358.001	260.661	80.008	19.995	103.797	19.915	3.943	0.490
360.000	261.667	80.006	19.996	103.799	19.909	4.399	0.499
362.000	262.698	80.006	19.998	103.790	19.910	4.282	0.525
364.000	263.750	80.009	19.992	103.786	19.906	4.605	0.554
366.000	264.730	80.009	19.993	103.794	19.909	4.406	0.456
368.000	265.717	80.008	19.994	103.793	19.911	4.257	0.482
370.000	266.681	80.007	19.995	103.791	19.909	4.350	0.479
372.000	267.702	80.007	19.994	103.793	19.908	4.452	0.511
374.000	268.658	80.006	19.995	103.792	19.906	4.613	0.495
376.000	269.655	80.005	19.995	103.759	19.902	4.904	0.516
378.000	270.704	80.001	19.998	103.733	19.905	4.662	0.520
380.000	271.705	80.004	19.998	103.859	19.904	4.728	0.510
382.000	272.691	80.006	19.996	103.801	19.906	4.603	0.495
384.000	273.722	80.006	19.997	103.792	19.905	4.637	0.504
386.000	274.681	80.007	20.000	103.788	19.901	4.935	0.490
388.000	275.676	80.005	20.002	103.789	19.902	4.902	0.511
390.000	276.673	80.007	19.997	103.790	19.903	4.833	0.476
392.000	277.682	80.007	19.995	103.790	19.901	4.963	0.512
394.000	278.684	80.006	19.994	103.792	19.901	4.958	0.495
396.000	279.687	80.010	19.993	103.784	19.903	4.841	0.492
398.000	280.690	80.007	19.992	103.787	19.902	4.870	0.528
400.000	281.657	80.008	19.993	103.797	19.899	5.070	0.492
402.000	282.666	80.004	19.998	103.795	19.901	4.976	0.516
404.000	283.674	80.006	19.995	103.787	19.904	4.756	0.518
406.000	284.719	80.009	19.993	103.795	19.897	5.239	0.503
408.000	285.717	80.011	19.993	103.794	19.892	5.589	0.506
410.000	286.729	80.014	19.990	103.787	19.892	5.621	0.479
412.000	287.766	80.008	19.998	103.771	19.890	5.774	0.493
414.000	288.774	80.005	19.997	103.782	19.887	5.960	0.503
416.000	289.756	80.007	19.995	103.791	19.891	5.666	0.520
418.000	290.781	80.007	19.996	103.781	19.887	5.995	0.500
420.000	291.773	80.006	19.995	103.777	19.887	5.953	0.482
422.000	292.701	80.004	19.994	103.774	19.887	5.965	0.471
424.000	293.672	80.008	19.995	103.785	19.884	6.196	0.475
426.000	294.662	80.004	19.994	103.773	19.882	6.354	0.504
428.000	295.689	80.007	19.993	103.775	19.879	6.546	0.474
430.000	296.695	80.011	19.995	103.778	19.882	6.343	0.513
432.000	297.637	80.008	19.993	103.766	19.884	6.165	0.481
434.000	298.650	80.008	19.995	103.770	19.877	6.711	0.516
436.000	299.630	80.005	19.993	103.774	19.876	6.792	0.486
438.000	300.592	80.002	20.002	103.777	19.875	6.860	0.468
440.000	301.550	80.008	19.993	103.781	19.874	6.896	0.489
442.000	302.499	80.010	19.993	103.763	19.875	6.875	0.494
444.000	303.487	80.004	20.004	103.768	19.873	6.990	0.513
446.000	304.473	80.005	19.995	103.755	19.869	7.307	0.469
448.000	305.409	80.005	19.995	103.762	19.870	7.181	0.465
450.000	306.406	80.005	19.995	103.763	19.872	7.087	0.508
452.000	307.371	80.006	19.993	103.775	19.868	7.370	0.473
454.000	308.330	80.005	20.002	103.775	19.863	7.738	0.489
456.000	309.311	80.007	19.996	103.775	19.865	7.567	0.461
458.000	310.307	80.007	19.996	103.782	19.863	7.714	0.507
460.000	311.301	80.007	19.993	103.791	19.857	8.143	0.477
462.000	312.305	80.008	19.996	103.784	19.852	8.507	0.487
464.000	313.328	80.008	19.994	103.781	19.856	8.196	0.464
466.000	314.334	80.008	19.994	103.792	19.857	8.171	0.499
468.000	315.360	80.007	19.991	103.782	19.850	8.639	0.510
470.000	316.324	80.011	19.993	103.767	19.847	8.839	0.525
472.000	317.329	80.002	19.999	103.784	19.850	8.669	0.480
474.001	318.331	80.004	19.989	103.765	19.844	9.051	0.498
476.000	319.365	80.005	19.997	103.790	19.840	9.394	0.496
478.000	320.426	80.007	19.992	103.779	19.837	9.598	0.562
480.000	321.428	80.009	19.993	103.774	19.837	9.576	0.514
482.000	322.415	80.007	19.996	103.790	19.833	9.861	0.511
484.000	323.399	80.005	19.995	103.790	19.829	10.158	0.483
486.000	324.443	80.010	19.994	103.787	19.825	10.430	0.499
488.000	325.527	80.014	19.993	103.789	19.822	10.698	0.546
490.000	326.541	80.010	19.997	103.790	19.821	10.722	0.513
492.000	327.616	80.009	19.995	103.789	19.815	11.153	0.539
494.000	328.649	80.006	19.998	103.785	19.811	11.448	0.537
496.000	329.723	80.008	19.994	103.783	19.808	11.670	0.537
498.000	330.725	80.008	19.994	103.770	19.803	12.034	0.532
500.000	331.810	80.008	19.995	103.778	19.799	12.331	0.516
502.000	332.890	80.007	19.993	103.769	19.795	12.621	0.532
504.000	333.982	80.008	19.995	103.778	19.788	13.154	0.586
506.000	335.017	80.007	19.995	103.775	19.784	13.464	0.528
508.001	336.059	80.005	19.994	103.780	19.778	13.889	0.552
510.000	337.097	80.006	19.994	103.776	19.776	13.977	0.521
512.000	338.165	80.007	19.994	103.776	19.770	14.463	0.560
514.000	339.208	80.006	19.997	103.787	19.761	15.113	0.521
516.000	340.245	80.009	19.996	103.781	19.753	15.695	0.507
518.000	341.284	80.006	19.995	103.771	19.749	15.988	0.511
520.000	342.338	80.006	19.996	103.771	19.742	16.439	0.488
522.000	343.415	80.006	19.996	103.773	19.736	16.936	0.514
524.000	344.451	80.006	19.995	103.766	19.728	17.455	0.536
526.000	345.521	80.006	19.994	103.786	19.722	17.946	0.540
528.000	346.501	80.005	19.994	103.776	19.714	18.524	0.517
530.000	347.562	80.005	19.995	103.764	19.702	19.372	0.530
532.000	348.653	80.006	19.995	103.775	19.696	19.768	0.556
534.000	349.661	80.005	19.995	103.769	19.689	20.305	0.522
536.000	350.721	80.006	19.995	103.781	19.681	20.902	0.510
538.000	351.742	80.006	19.993	103.780	19.671	21.596	0.508
540.000	352.747	80.005	19.996	103.765	19.659	22.511	0.555
542.000	353.767	80.007	19.995	103.773	19.652	23.009	0.516
544.000	354.737	80.006	19.996	103.766	19.638	23.992	0.483
546.000	355.749	80.007	19.997	103.784	19.644	23.545	0.494
548.000	356.823	80.007	19.994	103.780	19.616	25.636	0.541
550.000	357.805	80.007	19.993	103.771	19.605	26.409	0.488
552.000	358.814	80.007	19.994	103.783	19.589	27.532	0.458
554.000	359.816	80.008	19.995	103.767	19.576	28.505	0.488
556.000	360.810	80.009	19.996	103.765	19.562	29.550	0.488
558.000	361.808	80.008	19.995	103.777	19.544	30.820	0.508
560.000	362.806	80.008	19.995	103.782	19.530	31.828	0.420
562.000	363.895	80.007	19.994	103.779	19.514	32.973	0.552
564.000	364.827	80.009	19.993	103.774	19.497	34.235	0.494
566.000	365.827	80.009	19.994	103.785	19.472	36.020	0.541
568.000	366.866	80.009	19.996	103.789	19.454	37.367	0.508
570.000	367.822	80.008	19.996	103.787	19.437	38.577	0.460
572.000	368.855	80.008	19.992	103.788	19.410	40.534	0.510
574.000	369.827	80.007	19.996	103.769	19.387	42.209	0.514
576.000	370.850	80.009	19.996	103.774	19.362	44.006	0.505
578.000	371.860	80.009	19.994	103.802	19.333	46.109	0.501
580.000	372.822	80.007	19.992	103.791	19.304	48.222	0.475
582.000	373.844	80.006	19.992	103.790	19.274	50.427	0.530
584.000	374.869	80.010	19.995	103.789	19.242	52.735	0.533
586.000	375.827	80.008	19.994	103.785	19.210	55.029	0.477
588.000	376.844	80.008	19.994	103.793	19.175	57.571	0.492
590.000	377.842	80.009	19.993	103.795	19.133	60.580	0.488
592.000	378.872	80.008	19.995	103.810	19.092	63.580	0.515
594.000	379.874	80.007	19.994	103.814	19.042	67.159	0.521
596.000	380.928	80.008	19.992	103.805	18.993	70.714	0.532
598.000	381.855	80.006	19.993	103.817	18.937	74.794	0.487
600.000	382.915	80.006	19.993	103.813	18.879	79.016	0.529
602.000	383.955	80.008	19.994	103.808	18.826	82.867	0.557
604.000	384.983	80.006	19.994	103.797	18.780	86.203	0.545
606.000	386.000	80.007	19.995	103.796	18.732	89.673	0.509
608.000	387.074	80.005	19.996	103.812	18.688	92.982	0.510
610.000	388.111	80.005	19.996	103.811	18.644	96.127	0.554
612.000	389.104	80.005	19.993	103.843	18.573	101.244	0.493
614.000	390.109	80.006	19.995	103.850	18.494	106.902	0.491
616.000	391.117	80.005	19.994	103.799	18.413	112.857	0.502
618.000	392.201	80.007	19.995	103.901	18.317	119.824	0.544
620.000	393.198	80.006	19.994	103.923	18.215	127.235	0.515
622.000	394.214	80.007	19.995	103.857	18.124	133.756	0.527
624.000	395.263	80.008	19.994	103.831	18.019	141.307	0.508
626.000	396.286	80.007	19.995	103.850	17.890	150.748	0.509
628.000	397.391	80.008	19.996	103.870	17.729	162.501	0.525
630.000	398.325	80.008	19.994	103.934	17.585	173.006	0.481
632.000	399.367	80.007	19.995	103.889	17.481	180.412	0.485
634.000	400.406	80.007	19.996	103.798	17.354	189.678	0.532
636.000	401.436	80.007	19.995	103.847	17.213	200.007	0.515
638.000	402.466	80.008	19.998	103.882	17.088	208.999	0.531
640.000	403.486	80.009	19.994	103.957	16.962	218.204	0.496
642.000	404.523	80.006	19.997	103.920	16.828	227.900	0.513
644.000	405.530	80.007	19.996	103.885	16.687	238.370	0.512
646.000	406.498	80.008	19.994	103.945	16.558	247.959	0.486
648.000	407.528	80.010	19.994	103.946	16.459	255.334	0.530
650.000	408.512	80.010	19.994	103.928	16.367	261.849	0.474
652.000	409.508	80.010	19.993	103.934	16.247	270.408	0.484
654.000	410.513	80.009	19.994	103.991	16.071	281.168	0.518
656.000	411.531	80.010	19.993	104.093	15.762	302.791	0.482
658.000	412.548	80.009	19.993	104.183	15.312	336.136	0.522
660.000	413.548	80.008	19.994	104.184	14.686	384.131	0.495
662.000	414.531	80.007	19.994	104.257	14.301	413.396	0.503
664.000	415.515	80.007	19.995	103.734	14.238	416.907	0.501
666.000	416.542	80.007	19.994	103.190	14.251	415.137	0.484
668.000	417.533	80.004	19.997	103.216	14.239	415.809	0.511
670.000	418.610	80.005	19.994	103.745	14.179	420.258	0.513
672.000	419.615	80.007	19.992	104.461	14.099	426.156	0.502
674.000	420.657	80.007	19.994	104.380	14.026	431.566	0.514
676.000	421.643	80.005	19.998	104.073	13.961	436.740	0.485
678.000	422.646	80.008	19.993	103.976	13.922	440.449	0.485
680.000	423.635	80.008	19.992	103.960	13.914	440.720	0.494
682.000	424.686	80.007	19.994	103.992	13.941	436.575	0.523
684.000	425.691	80.009	19.993	104.015	13.948	434.596	0.522
686.000	426.703	80.008	19.994	104.061	13.819	444.599	0.491
688.000	427.726	80.007	19.992	104.244	13.603	462.347	0.532
690.001	428.704	80.007	19.993	104.337	13.483	472.865	0.489
692.000	429.798	80.007	19.994	104.074	13.643	460.755	0.545
694.000	430.782	80.003	19.997	103.515	13.924	439.481	0.491
696.000	431.846	80.005	19.997	103.430	14.221	417.620	0.530
698.000	432.899	80.008	19.995	103.779	14.511	396.526	0.538
700.000	433.940	80.008	19.993	104.307	14.796	375.766	0.514
702.000	435.027	80.008	19.995	104.421	15.086	354.684	0.548
704.000	436.071	80.013	19.993	104.226	15.384	332.950	0.507
706.000	437.178	80.007	19.991	104.115	15.685	311.008	0.552
708.000	438.203	80.010	19.995	104.078	15.992	288.726	0.528
710.001	439.257	80.007	19.996	104.073	16.296	266.574	0.517
712.000	440.301	80.010	19.997	104.065	16.599	244.542	0.537
714.000	441.392	80.008	19.994	104.036	16.902	222.544	0.542
716.000	442.420	80.006	19.996	104.021	17.190	201.600	0.508
718.000	443.508	80.007	19.995	103.994	17.468	181.422	0.564
720.000	444.592	80.007	19.994	103.986	17.731	162.308	0.530
722.000	445.629	80.007	19.995	103.958	17.977	144.491	0.541
724.000	446.660	80.005	19.995	103.944	18.202	128.161	0.541
726.000	447.707	80.005	19.996	103.948	18.406	113.338	0.536
728.000	448.774	80.013	19.997	103.920	18.586	100.261	0.569
730.000	449.803	80.009	19.993	103.908	18.752	88.226	0.529
732.000	450.831	80.002	19.999	103.897	18.896	77.763	0.524
734.000	451.944	80.015	19.992	103.881	19.022	68.627	0.544
736.000	452.986	80.006	19.996	103.870	19.132	60.689	0.510
738.000	454.012	80.009	19.995	103.860	19.224	54.020	0.526
740.000	455.135	80.009	19.992	103.836	19.305	48.117	0.553
742.000	456.065	80.002	19.994	103.832	19.379	42.743	0.505
744.000	457.139	80.007	19.996	103.826	19.438	38.464	0.503
746.000	458.212	80.006	19.992	103.804	19.492	34.540	0.526
748.000	459.242	80.004	19.999	103.794	19.535	31.473	0.511
750.000	460.206	80.005	19.997	103.770	19.575	28.586	0.479
752.000	461.215	80.006	19.995	103.756	19.612	25.855	0.495
754.000	462.279	80.008	19.993	103.753	19.646	23.411	0.545
756.000	463.317	80.007	19.993	103.754	19.674	21.409	0.506
758.000	464.299	80.005	19.994	103.753	19.701	19.425	0.499
760.000	465.271	80.008	19.995	103.729	19.724	17.737	0.498
762.000	466.270	80.004	20.000	103.748	19.745	16.256	0.494
764.000	467.289	80.006	19.995	103.740	19.769	14.491	0.488
766.000	468.329	80.007	19.991	103.739	19.785	13.368	0.510
768.000	469.385	80.008	19.994	103.732	19.807	11.785	0.546
770.000	470.383	80.006	19.996	103.727	19.826	10.401	0.549
772.000	471.438	80.006	19.993	103.739	19.848	8.809	0.524
774.000	472.423	80.008	19.995	103.735	19.864	7.659	0.477
776.000	473.429	80.006	19.994	103.721	19.881	6.415	0.488
778.000	474.492	80.005	19.999	103.718	19.892	5.580	0.533
780.000	475.485	80.007	19.995	103.717	19.901	4.987	0.502
782.000	476.509	80.007	19.993	103.721	19.907	4.551	0.504
784.000	477.550	80.009	19.994	103.716	19.911	4.258	0.511
786.000	478.568	80.009	19.993	103.711	19.915	3.947	0.495
788.000	479.547	80.009	19.995	103.711	19.918	3.711	0.481
790.000	480.626	80.008	19.997	103.707	19.922	3.457	0.559
792.000	481.611	80.009	19.994	103.705	19.922	3.404	0.508
794.000	482.619	80.009	19.994	103.698	19.926	3.121	0.497
796.000	483.618	80.008	19.995	103.683	19.926	3.142	0.502
798.000	484.635	80.008	19.996	103.684	19.926	3.119	0.516
800.000	485.650	80.008	19.994	103.696	19.926	3.153	0.498
802.000	486.696	80.010	19.995	103.718	19.926	3.166	0.503
804.000	487.757	80.005	19.996	103.719	19.928	3.016	0.532
806.000	488.737	80.006	19.993	103.718	19.929	2.939	0.510
808.000	489.793	80.009	19.995	103.726	19.930	2.873	0.515
810.000	490.787	80.009	19.993	103.740	19.929	2.893	0.530
812.000	491.824	80.009	19.993	103.730	19.928	3.034	0.507
814.001	492.855	80.009	19.996	103.727	19.928	3.002	0.521
816.000	493.923	80.008	19.994	103.732	19.926	3.139	0.524
818.000	494.942	80.010	19.997	103.715	19.929	2.911	0.528
820.000	495.996	80.007	19.997	103.722	19.927	3.091	0.515
822.000	497.027	80.010	19.991	103.722	19.926	3.113	0.533
824.000	498.027	80.006	19.992	103.723	19.927	3.075	0.524
826.000	499.063	80.010	19.989	103.729	19.929	2.925	0.508
828.000	500.045	80.010	19.993	103.731	19.925	3.215	0.515
830.000	501.071	80.004	19.994	103.724	19.930	2.820	0.504
832.000	502.056	80.004	20.000	103.729	19.931	2.747	0.498
834.000	503.081	80.008	19.993	103.721	19.932	2.729	0.512
836.000	504.107	80.007	19.993	103.722	19.929	2.933	0.511
838.000	505.104	80.008	19.995	103.717	19.927	3.058	0.529
840.000	506.105	80.008	19.994	103.717	19.931	2.808	0.508
842.000	507.104	80.008	19.996	103.733	19.931	2.796	0.478
844.000	508.121	80.008	19.994	103.730	19.930	2.844	0.499
846.000	509.174	80.008	19.995	103.718	19.933	2.663	0.538
848.000	510.163	80.010	19.994	103.735	19.930	2.836	0.508
850.000	511.141	80.006	19.995	103.726	19.932	2.713	0.501
852.000	512.105	80.006	19.996	103.723	19.931	2.758	0.464
854.000	513.157	80.006	19.994	103.719	19.934	2.562	0.480
856.000	514.154	80.006	19.995	103.730	19.932	2.711	0.522
858.000	515.188	80.010	19.994	103.717	19.928	2.964	0.519
860.000	516.172	80.010	19.993	103.729	19.930	2.873	0.507
862.000	517.151	80.009	19.994	103.720	19.929	2.942	0.482
864.000	518.194	80.007	19.993	103.718	19.933	2.672	0.492
866.000	519.181	80.006	19.998	103.715	19.933	2.621	0.481
868.000	520.203	80.008	19.992	103.716	19.933	2.661	0.502
870.000	521.131	80.011	19.991	103.720	19.931	2.788	0.510
872.000	522.148	80.008	19.994	103.722	19.932	2.689	0.492
874.000	523.161	80.008	19.990	103.726	19.933	2.643	0.526
876.000	524.191	80.004	19.995	103.752	19.929	2.893	0.543
878.000	525.278	80.013	19.990	103.662	19.932	2.695	0.537
880.000	526.256	80.008	19.993	103.781	19.929	2.913	0.529
882.000	527.293	80.008	19.996	103.757	19.932	2.705	0.547
884.000	528.335	80.006	19.994	103.722	19.932	2.693	0.538
886.000	529.422	80.007	19.993	103.723	19.928	3.008	0.532
888.000	530.478	80.009	19.993	103.720	19.928	2.964	0.557
890.000	531.522	80.008	19.993	103.730	19.928	3.026	0.525
892.000	532.578	80.009	19.995	103.724	19.930	2.852	0.516
894.000	533.613	80.007	19.999	103.721	19.932	2.695	0.524
896.000	534.688	80.011	19.994	103.715	19.929	2.940	0.541
898.000	535.799	80.010	19.994	103.714	19.932	2.727	0.545
900.000	536.830	80.009	19.994	103.718	19.929	2.933	0.549
902.000	537.865	80.007	19.993	103.725	19.932	2.683	0.492
904.000	538.873	80.009	19.994	103.730	19.930	2.849	0.522
906.000	539.963	80.007	19.995	103.717	19.930	2.830	0.556
908.000	541.056	80.006	19.995	103.720	19.924	3.263	0.564
910.000	542.090	80.005	19.996	103.732	19.925	3.251	0.595
912.000	543.094	80.006	19.996	103.725	19.934	2.544	0.531
914.000	544.164	80.007	19.995	103.720	19.936	2.394	0.457
916.000	545.147	80.007	19.995	103.721	19.937	2.368	0.411
918.000	546.184	80.006	19.994	103.714	19.935	2.524	0.351
920.000	547.206	80.009	19.996	103.715	19.936	2.427	0.585
922.000	547.658	80.007	19.993	103.717	19.939	2.200	-0.303
924.000	548.995	80.007	19.994	103.720	19.936	2.449	0.607
926.000	550.380	80.007	19.995	103.716	19.935	2.509	0.571
928.000	551.358	80.008	19.995	103.714	19.937	2.341	0.463
930.000	552.472	80.007	19.994	103.715	19.938	2.263	0.574
932.000	553.322	80.007	19.994	103.715	19.933	2.669	0.525
934.000	554.500	80.007	19.992	103.716	19.936	2.394	0.484
936.000	555.549	80.006	19.996	103.720	19.939	2.180	0.497
938.000	556.577	80.008	19.995	103.726	19.941	2.093	0.521
940.000	557.571	80.007	19.991	103.721	19.939	2.174	0.521
942.000	558.629	80.005	19.993	103.718	19.937	2.372	0.535
944.001	559.652	80.007	19.995	103.719	19.936	2.437	0.519
946.000	560.702	80.007	19.995	103.716	19.936	2.443	0.497
948.001	561.700	80.009	19.997	103.714	19.937	2.366	0.494
950.000	562.771	80.007	19.994	103.713	19.939	2.222	0.483
952.000	563.742	80.010	19.994	103.714	19.939	2.216	0.506
954.000	564.744	80.003	19.997	103.717	19.940	2.111	0.488
956.000	565.757	80.007	19.995	103.708	19.940	2.097	0.496
958.000	566.827	80.008	19.993	103.715	19.944	1.841	0.502
960.000	567.802	80.009	19.992	103.715	19.938	2.249	0.519
962.000	568.829	80.011	19.994	103.718	19.937	2.313	0.532
964.000	569.896	80.008	19.982	103.717	19.941	2.027	0.523
966.000	570.876	80.010	19.993	103.719	19.938	2.287	0.508
968.000	571.913	80.012	19.994	103.719	19.937	2.372	0.517
970.000	572.967	80.010	19.993	103.719	19.934	2.578	0.540
972.000	574.059	80.010	19.994	103.716	19.936	2.427	0.568
974.000	575.026	80.009	19.993	103.714	19.938	2.271	0.514
976.000	576.061	80.009	19.994	103.711	19.936	2.410	0.498
978.000	577.094	80.008	19.994	103.718	19.936	2.429	0.489
980.000	578.098	80.007	19.994	103.717	19.935	2.528	0.510
982.000	579.123	80.006	19.996	103.718	19.939	2.172	0.481
984.000	580.108	80.007	19.996	103.715	19.937	2.325	0.515
986.000	581.125	80.007	19.996	103.719	19.940	2.097	0.496
988.000	582.187	80.007	19.994	103.717	19.937	2.344	0.523
990.000	583.173	80.006	19.995	103.717	19.936	2.400	0.484
992.000	584.193	80.007	19.995	103.718	19.937	2.378	0.494
994.000	585.173	80.005	19.998	103.723	19.938	2.283	0.528
996.000	586.226	80.007	19.997	103.721	19.934	2.554	0.521
998.000	587.245	80.007	19.996	103.712	19.935	2.457	0.442
1000.000	588.227	80.006	19.994	103.709	19.936	2.441	0.496
1002.000	589.278	80.005	19.997	103.726	19.936	2.431	0.492
1004.000	590.251	80.009	19.996	103.721	19.936	2.421	0.490
1006.000	591.283	80.005	19.997	103.716	19.937	2.340	0.532
1008.000	592.281	80.007	19.995	103.717	19.937	2.312	0.515
1010.000	593.299	80.007	19.996	103.715	19.936	2.384	0.498
1012.000	594.307	80.005	19.997	103.711	19.938	2.289	0.493
1014.000	595.351	80.005	19.997	103.712	19.937	2.315	0.516
1016.000	596.383	80.006	19.995	103.712	19.935	2.526	0.533
1018.000	597.385	80.006	19.993	103.708	19.936	2.384	0.510
1020.000	598.399	80.006	19.995	103.714	19.938	2.279	0.505
1022.000	599.419	80.006	19.993	103.720	19.937	2.352	0.530
1024.000	600.403	80.007	19.995	103.716	19.943	1.938	0.506
1026.000	601.418	80.006	19.995	103.714	19.938	2.277	0.539
1028.000	602.418	80.009	19.995	103.715	19.937	2.321	0.493
1030.001	603.445	80.009	19.995	103.708	19.939	2.184	0.523
1032.000	604.477	80.008	19.994	103.716	19.938	2.287	0.495
1034.000	605.457	80.011	19.992	103.714	19.934	2.544	0.507
1036.000	606.487	80.007	19.994	103.713	19.935	2.465	0.517
1038.001	607.550	80.009	19.994	103.714	19.939	2.220	0.518
1040.000	608.470	80.006	19.995	103.713	19.937	2.338	0.476
1042.001	609.511	80.007	19.995	103.716	19.936	2.400	0.503
1044.000	610.542	80.008	19.994	103.714	19.940	2.140	0.491
1046.000	611.517	80.007	19.994	103.715	19.939	2.172	0.476
1048.000	612.514	80.008	19.996	103.716	19.941	2.031	0.497
1050.000	613.543	80.008	19.995	103.716	19.940	2.138	0.532
1052.000	614.587	80.006	19.994	103.715	19.942	1.992	0.550
1054.000	615.564	80.010	19.992	103.716	19.940	2.150	0.521
1056.000	616.563	80.009	19.994	103.717	19.937	2.344	0.506
1058.001	617.583	80.010	19.995	103.715	19.940	2.097	0.465
1060.001	618.599	80.009	19.996	103.717	19.941	2.026	0.495
1062.000	619.664	80.007	19.995	103.715	19.940	2.160	0.543
1064.000	620.650	80.006	19.989	103.718	19.940	2.164	0.523
1066.000	621.646	80.007	19.996	103.719	19.940	2.164	0.497
1068.000	622.684	80.010	19.996	103.716	19.938	2.299	0.496
1070.000	623.670	80.006	19.993	103.715	19.939	2.202	0.489
1072.000	624.663	80.008	19.993	103.714	19.937	2.368	0.463
1074.000	625.679	80.007	19.993	103.713	19.939	2.180	0.475
1076.000	626.697	80.006	19.990	103.714	19.939	2.192	0.484
1078.001	627.668	80.007	19.993	103.712	19.938	2.275	0.476
1080.001	628.668	80.008	19.994	103.712	19.938	2.243	0.521
1082.000	629.690	80.007	19.995	103.714	19.937	2.344	0.513
1084.000	630.697	80.008	19.994	103.711	19.934	2.546	0.484
1086.000	631.691	80.008	19.993	103.711	19.938	2.299	0.492
1088.000	632.727	80.007	19.994	103.714	19.939	2.208	0.504
1090.000	633.777	80.006	19.995	103.713	19.938	2.257	0.520
1092.000	634.761	80.006	19.994	103.714	19.940	2.130	0.495
1094.001	635.799	80.006	19.996	103.716	19.942	1.964	0.536
1096.000	636.774	80.008	19.994	103.716	19.944	1.859	0.497
1098.000	637.767	80.010	19.991	103.712	19.940	2.101	0.499
1100.000	638.785	80.005	19.995	103.708	19.940	2.120	0.506
1102.000	639.769	80.005	19.995	103.708	19.940	2.121	0.494
1104.000	640.764	80.007	19.996	103.712	19.941	2.026	0.496
1106.000	641.773	80.007	19.996	103.709	19.940	2.109	0.512
1108.000	642.803	80.008	19.996	103.711	19.940	2.113	0.510
1110.000	643.793	80.013	19.996	103.706	19.938	2.255	0.508
1112.000	644.819	80.008	19.995	103.710	19.938	2.251	0.508
1114.001	645.798	80.007	19.996	103.714	19.937	2.378	0.521
1116.001	646.784	80.007	19.995	103.715	19.942	1.996	0.485
1118.001	647.786	80.008	19.993	103.714	19.940	2.148	0.508
1120.000	648.782	80.009	19.994	103.715	19.954	1.135	0.496
1122.001	649.759	80.006	19.995	103.716	19.939	2.206	0.463
1124.001	650.777	80.007	19.994	103.717	19.942	1.956	0.505
1126.001	651.777	80.003	19.999	103.713	19.937	2.346	0.514
1128.000	652.792	80.008	19.993	103.718	19.939	2.212	0.520
1130.000	653.832	80.007	19.995	103.720	19.942	1.986	0.542
1132.001	654.889	80.009	19.993	103.719	19.939	2.217	0.522
1134.001	655.817	80.006	19.990	103.719	19.936	2.406	0.491
1136.000	656.821	80.004	19.995	103.716	19.939	2.178	0.502
1138.000	657.857	80.009	19.991	103.714	19.938	2.279	0.514
1140.001	658.865	80.009	19.993	103.713	19.935	2.528	0.486
1142.000	659.944	80.009	19.994	103.710	19.938	2.301	0.520
1144.001	660.900	80.007	19.994	103.709	19.942	2.022	0.490
1146.000	661.934	80.007	19.993	103.712	19.940	2.113	0.500
1148.001	662.926	80.007	19.995	103.719	19.935	2.469	0.501
1150.000	663.958	80.006	19.995	103.710	19.939	2.237	0.485
1152.000	665.005	80.008	19.995	103.704	19.937	2.376	0.528
1154.000	665.557	80.009	19.993	103.713	19.938	2.287	0.278
1156.000	667.068	80.007	19.994	103.712	19.940	2.107	-0.175
1158.000	668.256	80.009	19.993	103.712	19.936	2.418	0.628
1160.000	669.078	80.006	19.995	103.712	19.937	2.322	0.815
1162.000	670.051	80.007	19.994	103.712	19.940	2.105	0.496
1164.000	671.070	80.005	19.996	103.711	19.942	1.966	0.443
1166.001	672.074	80.006	19.996	103.709	19.942	1.966	0.535
1168.000	673.110	80.007	19.997	103.711	19.940	2.166	0.538
1170.000	674.142	80.007	19.994	103.714	19.941	2.081	0.545
1172.001	675.158	80.008	19.990	103.715	19.942	1.964	0.529
1174.000	676.147	80.008	19.994	103.714	19.939	2.229	0.599
1176.000	677.168	80.005	19.996	103.712	19.938	2.245	0.563
1178.000	678.234	80.006	19.996	103.706	19.941	2.091	0.503
1180.000	679.263	80.009	19.991	103.713	19.936	2.435	0.517
1182.000	680.281	80.006	19.994	103.717	19.937	2.334	0.519
1184.000	681.377	80.008	19.994	103.716	19.937	2.354	0.548
1186.000	682.415	80.007	19.994	103.715	19.933	2.610	0.520
1188.001	683.446	80.006	19.997	103.715	19.936	2.435	0.537
1190.000	684.522	80.008	19.996	103.716	19.936	2.412	0.516
1192.000	685.545	80.005	19.998	103.710	19.935	2.497	0.519
1194.000	686.567	80.012	19.994	103.712	19.939	2.219	0.551
1196.000	687.642	80.008	19.995	103.715	19.940	2.162	0.549
1198.000	688.699	80.006	19.993	103.704	19.939	2.186	0.541
1200.000	689.745	80.004	19.996	103.704	19.937	2.317	0.500
1202.000	690.815	80.007	19.994	103.713	19.937	2.348	0.522
1204.001	691.851	80.008	19.994	103.713	19.937	2.364	0.505
1206.000	692.953	80.007	19.999	103.711	19.942	2.019	0.541
1208.000	693.977	80.009	19.994	103.715	19.940	2.134	0.516
1210.000	695.122	80.008	19.995	103.717	19.940	2.134	0.564
1212.000	696.204	80.007	19.997	103.711	19.938	2.281	0.536
1214.000	697.224	80.009	19.990	103.710	19.934	2.593	0.571
1216.000	698.321	80.011	19.994	103.708	19.937	2.324	0.546
1218.001	699.346	80.009	19.994	103.708	19.936	2.388	0.510
1220.001	700.436	80.009	19.993	103.704	19.937	2.340	0.527
1222.001	701.467	80.009	19.996	103.711	19.935	2.469	0.504
1224.000	702.545	80.007	19.995	103.710	19.937	2.328	0.488
1226.000	703.550	80.007	19.996	103.697	19.936	2.404	0.499
1228.000	704.672	80.011	19.992	103.707	19.937	2.328	0.538
1230.000	705.681	80.006	19.993	103.714	19.943	1.944	0.494
1232.000	706.784	80.004	19.995	103.713	19.938	2.295	0.513
1234.000	707.826	80.006	19.996	103.711	19.938	2.307	0.566
1236.000	708.889	80.008	19.991	103.713	19.941	2.089	0.539
1238.000	709.941	80.003	19.994	103.715	19.937	2.319	0.506
1240.000	710.995	80.006	19.994	103.714	19.938	2.263	0.547
1242.001	712.073	80.005	19.994	103.708	19.931	2.750	0.559
1244.000	713.137	80.004	19.997	103.713	19.937	2.350	0.488
1246.000	714.153	80.006	19.995	103.718	19.934	2.532	0.508
1248.000	715.276	80.004	19.997	103.714	19.935	2.527	0.528
1250.000	716.289	80.011	19.992	103.717	19.936	2.408	0.539
1252.001	717.366	80.008	19.994	103.714	19.935	2.489	0.545
1254.001	718.382	80.007	19.994	103.717	19.939	2.231	0.521
1256.000	719.453	80.008	19.994	103.719	19.937	2.340	0.531
1258.000	720.482	80.010	19.995	103.720	19.938	2.291	0.505
1260.001	721.541	80.006	19.994	103.718	19.938	2.241	0.533
1262.000	722.586	80.003	19.996	103.719	19.938	2.289	0.522
1264.000	723.652	80.007	19.995	103.717	19.936	2.419	0.513
1266.000	724.713	80.011	19.994	103.714	19.935	2.495	0.532
1268.000	725.731	80.008	19.994	103.714	19.936	2.441	0.544
1270.000	726.770	80.009	19.996	103.713	19.940	2.150	0.505
1272.001	727.808	80.009	19.993	103.715	19.936	2.414	0.523
1274.000	728.871	80.006	19.995	103.711	19.934	2.550	0.539
1276.000	729.916	80.010	19.992	103.710	19.937	2.350	0.536
1278.000	730.966	80.007	19.995	103.712	19.940	2.148	0.525
1280.000	731.935	80.008	19.994	103.713	19.938	2.295	0.518
1282.000	733.062	80.008	19.994	103.710	19.939	2.180	0.527
1284.000	734.119	80.007	19.993	103.715	19.934	2.554	0.539
1286.000	735.140	80.009	19.995	103.715	19.938	2.309	0.513
1288.000	736.176	80.005	19.997	103.713	19.934	2.574	0.538
1290.000	737.259	80.009	19.994	103.714	19.937	2.318	0.552
1292.000	738.322	80.008	19.993	103.711	19.937	2.362	0.537
1294.001	739.358	80.006	19.998	103.717	19.937	2.370	0.516
1296.000	740.402	80.011	19.999	103.717	19.932	2.697	0.517
1298.001	741.445	80.018	19.994	103.708	19.933	2.661	0.507
1300.000	742.472	80.010	19.996	103.709	19.935	2.491	0.535
1302.000	743.484	80.005	19.998	103.707	19.934	2.574	0.533
1304.000	744.563	80.008	19.996	103.713	19.934	2.596	0.503
1305.001	745.112	80.010	19.993	103.714	19.936	2.416	0.550