File: 01_Data/Polystyrene_81C/MCC/Polystyrene_81C_MCC_30K_min_220301_R2.txt
Sample ID:	C:\MCC\MCC Cal\Test\Polystyrene_81C_MCC_30K_min_220301_R2.txt
Sample Weight (mg):	4.4
Heating Rate (C/s):	0.5
Combustor Temp (C):	900
N2 Flow Rate (cc/min):	80
O2 Flow Rate (cc/min):	20
Calibration File:	C:\MCC\MCC Cal\Coeff1 JN10440_30_210304.txt.txt
T Correction Coefficients:	0	1.024463	0
Time Shift (s):	14
*
Time (s)	Temperature (C)	N2 flow rate (cc/min)	O2 flow rate (cc/min)	Flow Rate (cc/min)	Oxygen (%)	HRR (W/g)	Heating rate (C/s)
0.000	115.455	80.009	19.994	103.743	19.990	0.594	0.039
1.500	115.437	80.009	19.994	103.744	19.988	0.708	-0.033
3.000	115.422	80.008	19.995	103.743	19.987	0.797	-0.015
4.500	115.353	80.008	19.992	103.745	19.989	0.686	-0.039
6.000	115.368	80.007	19.994	103.756	19.982	1.206	0.010
7.500	115.354	80.009	19.993	103.774	19.979	1.401	-0.014
9.000	115.336	80.008	19.993	103.793	19.980	1.343	-0.007
10.499	115.347	80.009	19.995	103.804	19.975	1.695	-0.007
11.999	115.426	80.009	19.993	103.798	19.977	1.579	0.040
13.500	115.432	80.007	19.994	103.795	19.974	1.770	-0.012
14.999	115.460	80.009	19.994	103.798	19.971	1.986	0.029
16.499	115.519	80.008	19.995	103.795	19.976	1.626	0.024
17.999	115.601	80.008	19.995	103.799	19.973	1.870	0.070
19.499	115.621	80.008	19.994	103.804	19.977	1.553	0.014
20.999	115.710	80.007	19.994	103.822	19.972	1.930	0.064
22.499	115.729	80.006	19.994	103.833	19.970	2.082	0.025
23.999	115.831	80.007	19.994	103.862	19.965	2.398	0.058
25.500	115.937	80.007	19.993	103.878	19.963	2.545	0.075
27.000	116.042	80.006	19.993	103.894	19.959	2.894	0.066
28.499	116.149	80.007	19.996	103.908	19.960	2.824	0.079
29.999	116.335	80.008	19.994	103.909	19.956	3.076	0.157
31.499	116.532	80.008	19.993	103.916	19.954	3.236	0.128
33.000	116.727	80.009	19.994	103.931	19.955	3.203	0.118
34.500	116.952	80.009	19.994	103.936	19.955	3.145	0.137
35.999	117.188	80.009	19.993	103.940	19.952	3.425	0.157
37.499	117.380	80.009	19.993	103.943	19.951	3.444	0.123
39.000	117.642	80.009	19.992	103.943	19.951	3.488	0.174
40.499	117.876	80.009	19.993	103.951	19.953	3.306	0.157
41.999	118.185	80.009	19.993	103.964	19.950	3.572	0.200
43.499	118.471	80.008	19.993	103.966	19.948	3.653	0.202
45.000	118.788	80.009	19.993	103.978	19.946	3.867	0.218
46.499	119.132	80.008	19.994	103.980	19.948	3.655	0.251
47.999	119.500	80.009	19.995	103.979	19.945	3.939	0.273
49.499	119.820	80.007	19.994	103.982	19.943	4.021	0.217
51.000	120.192	80.008	19.994	103.975	19.945	3.929	0.230
52.499	120.584	80.010	19.994	103.971	19.944	3.975	0.259
53.999	121.006	80.010	19.994	103.976	19.945	3.915	0.272
55.499	121.444	80.011	19.994	103.971	19.945	3.896	0.276
56.999	121.885	80.010	19.994	103.959	19.945	3.912	0.275
58.499	122.262	80.010	19.993	103.962	19.942	4.150	0.272
59.999	122.775	80.010	19.994	103.960	19.941	4.195	0.313
61.499	123.179	80.011	19.994	103.963	19.947	3.791	0.261
62.999	123.625	80.010	19.995	103.965	19.940	4.295	0.310
64.501	124.097	80.011	19.993	103.956	19.943	4.040	0.314
66.000	124.555	80.011	19.993	103.953	19.940	4.240	0.293
67.499	125.058	80.009	19.994	103.946	19.939	4.329	0.329
69.000	125.537	80.009	19.994	103.946	19.944	3.956	0.313
70.499	126.058	80.009	19.995	103.960	19.942	4.095	0.321
72.000	126.512	80.009	19.995	103.955	19.948	3.720	0.330
73.499	127.015	80.008	19.995	103.951	19.948	3.705	0.324
75.000	127.551	80.007	19.996	103.956	19.945	3.889	0.361
76.499	128.023	80.008	19.995	103.965	19.944	3.964	0.312
77.999	128.575	80.008	19.997	103.974	19.941	4.200	0.386
79.499	129.114	80.007	19.996	103.977	19.942	4.095	0.360
80.999	129.675	80.007	19.995	103.978	19.944	3.980	0.372
82.499	130.174	80.008	19.995	103.975	19.943	4.036	0.356
83.999	130.740	80.008	19.995	103.969	19.942	4.160	0.373
85.499	131.312	80.008	19.994	103.969	19.943	4.053	0.361
86.999	131.918	80.009	19.994	103.978	19.947	3.789	0.404
88.500	132.485	80.008	19.994	103.978	19.942	4.115	0.381
89.999	133.024	80.009	19.993	103.980	19.942	4.115	0.375
91.499	133.613	80.010	19.994	103.981	19.943	4.022	0.404
92.999	134.198	80.008	19.994	103.982	19.941	4.202	0.399
94.501	134.817	80.008	19.994	103.982	19.942	4.162	0.398
96.000	135.464	80.008	19.993	103.982	19.942	4.133	0.432
97.499	135.989	80.008	19.994	103.982	19.940	4.260	0.350
98.999	136.646	80.008	19.994	103.983	19.939	4.329	0.429
100.499	137.233	80.008	19.994	103.983	19.941	4.222	0.389
101.999	137.879	80.008	19.994	103.983	19.940	4.246	0.432
103.499	138.495	80.007	19.993	103.985	19.940	4.240	0.434
104.999	139.090	80.008	19.994	103.984	19.939	4.323	0.419
106.499	139.769	80.007	19.994	103.984	19.941	4.198	0.441
107.999	140.409	80.007	19.995	103.985	19.941	4.224	0.435
109.499	141.088	80.007	19.993	103.986	19.941	4.178	0.422
110.999	141.698	80.007	19.995	103.985	19.940	4.250	0.415
112.499	142.357	80.008	19.994	103.984	19.943	4.073	0.425
113.999	142.999	80.008	19.994	103.984	19.944	3.948	0.441
115.499	143.687	80.010	19.994	103.983	19.944	4.000	0.450
116.999	144.358	80.009	19.993	103.981	19.941	4.192	0.452
118.499	145.017	80.011	19.994	103.981	19.941	4.234	0.454
119.999	145.695	80.010	19.994	103.979	19.942	4.097	0.446
121.499	146.365	80.010	19.994	103.980	19.941	4.194	0.469
123.000	147.054	80.011	19.994	103.981	19.939	4.325	0.478
124.499	147.721	80.009	19.993	103.981	19.941	4.208	0.447
126.000	148.450	80.011	19.993	103.980	19.940	4.242	0.493
127.499	149.169	80.010	19.993	103.981	19.937	4.462	0.493
129.000	149.844	80.009	19.995	103.981	19.939	4.313	0.457
130.500	150.572	80.008	19.992	103.982	19.940	4.270	0.512
132.000	151.248	80.009	19.993	103.982	19.936	4.560	0.439
133.500	151.921	80.010	19.994	103.981	19.938	4.439	0.460
135.000	152.626	80.009	19.993	103.980	19.939	4.375	0.479
136.500	153.381	80.009	19.994	103.980	19.939	4.316	0.483
138.000	154.077	80.011	19.993	103.980	19.938	4.433	0.457
139.500	154.781	80.011	19.994	103.979	19.943	4.079	0.490
141.000	155.514	80.010	19.993	103.980	19.941	4.200	0.494
142.500	156.174	80.010	19.993	103.978	19.939	4.355	0.459
144.000	156.965	80.010	19.994	103.976	19.942	4.133	0.522
145.500	157.633	80.010	19.994	103.978	19.938	4.452	0.448
147.000	158.352	80.011	19.993	103.973	19.933	4.776	0.455
148.500	159.062	80.010	19.994	103.975	19.936	4.545	0.505
150.000	159.840	80.009	19.993	103.980	19.939	4.337	0.508
151.500	160.550	80.008	19.994	103.980	19.936	4.547	0.472
153.000	161.326	80.007	19.994	103.979	19.934	4.688	0.494
154.500	162.062	80.009	19.994	103.981	19.934	4.708	0.489
156.000	162.812	80.008	19.993	103.983	19.934	4.731	0.497
157.500	163.497	80.008	19.994	103.983	19.938	4.421	0.464
159.000	164.258	80.009	19.995	103.980	19.940	4.290	0.510
160.500	165.027	80.008	19.995	103.982	19.939	4.361	0.508
162.000	165.757	80.008	19.995	103.983	19.938	4.431	0.485
163.500	166.538	80.008	19.994	103.978	19.943	4.078	0.494
165.000	167.251	80.008	19.995	103.977	19.939	4.332	0.484
166.500	168.035	80.008	19.995	103.968	19.937	4.491	0.518
168.000	168.763	80.008	19.994	103.966	19.935	4.606	0.502
169.500	169.511	80.007	19.993	103.967	19.938	4.410	0.497
171.000	170.308	80.008	19.995	103.972	19.939	4.323	0.505
172.500	171.100	80.008	19.995	103.972	19.937	4.485	0.527
174.000	171.827	80.006	19.994	103.968	19.937	4.476	0.504
175.500	172.594	80.008	19.995	103.966	19.937	4.466	0.509
177.000	173.348	80.008	19.994	103.962	19.937	4.505	0.509
178.500	174.119	80.008	19.994	103.949	19.941	4.220	0.514
180.000	174.856	80.007	19.996	103.951	19.941	4.224	0.510
181.500	175.645	80.008	19.995	103.952	19.942	4.140	0.515
183.000	176.361	80.006	19.995	103.946	19.942	4.128	0.481
184.500	177.107	80.007	19.994	103.946	19.940	4.301	0.511
186.000	177.884	80.008	19.994	103.943	19.944	4.015	0.516
187.500	178.670	80.009	19.993	103.943	19.940	4.303	0.522
189.000	179.449	80.008	19.994	103.943	19.936	4.571	0.518
190.500	180.209	80.008	19.994	103.944	19.938	4.434	0.503
192.000	180.996	80.006	19.994	103.944	19.942	4.115	0.514
193.500	181.755	80.009	19.994	103.944	19.940	4.250	0.505
195.000	182.517	80.009	19.994	103.943	19.942	4.117	0.502
196.500	183.276	80.011	19.994	103.942	19.940	4.305	0.514
198.000	184.044	80.009	19.993	103.941	19.938	4.450	0.509
199.500	184.818	80.010	19.994	103.942	19.942	4.134	0.499
201.000	185.565	80.009	19.993	103.941	19.943	4.077	0.501
202.500	186.359	80.009	19.993	103.941	19.942	4.105	0.496
204.000	187.143	80.010	19.994	103.940	19.942	4.127	0.533
205.500	187.846	80.010	19.994	103.937	19.943	4.083	0.464
207.000	188.629	80.010	19.993	103.938	19.941	4.214	0.512
208.500	189.356	80.009	19.993	103.935	19.940	4.278	0.473
210.000	190.157	80.009	19.993	103.937	19.942	4.089	0.543
211.500	190.861	80.008	19.993	103.938	19.939	4.347	0.463
213.000	191.642	80.009	19.993	103.934	19.937	4.516	0.505
214.500	192.436	80.007	19.994	103.938	19.938	4.383	0.525
216.000	193.198	80.010	19.994	103.934	19.942	4.135	0.510
217.500	193.950	80.011	19.993	103.934	19.940	4.270	0.499
219.000	194.686	80.009	19.994	103.932	19.942	4.129	0.499
220.500	195.452	80.010	19.994	103.937	19.941	4.178	0.510
222.000	196.123	80.010	19.993	103.944	19.941	4.212	0.463
223.500	196.866	80.012	19.993	103.939	19.942	4.115	0.501
225.000	197.628	80.011	19.992	103.926	19.941	4.167	0.518
226.500	198.375	80.010	19.993	103.923	19.939	4.345	0.483
228.000	199.117	80.011	19.993	103.920	19.942	4.109	0.483
229.500	199.858	80.009	19.992	103.931	19.945	3.891	0.491
231.000	200.599	80.010	19.995	103.943	19.938	4.427	0.532
232.500	201.307	80.010	19.993	103.942	19.941	4.210	0.489
234.000	202.080	80.009	19.995	103.937	19.942	4.135	0.509
235.500	202.834	80.008	19.994	103.926	19.947	3.791	0.515
237.000	203.637	80.008	19.995	103.927	19.939	4.333	0.534
238.500	204.367	80.008	19.993	103.937	19.941	4.226	0.494
240.000	205.084	80.007	19.994	103.927	19.942	4.117	0.507
241.500	205.819	80.009	19.994	103.923	19.944	3.956	0.497
243.000	206.561	80.007	19.994	103.936	19.942	4.088	0.499
244.500	207.296	80.009	19.994	103.932	19.942	4.157	0.484
246.000	207.999	80.008	19.995	103.929	19.944	4.006	0.467
247.500	208.782	80.009	19.993	103.927	19.943	4.036	0.518
249.000	209.530	80.008	19.994	103.928	19.942	4.130	0.501
250.500	210.296	80.008	19.994	103.932	19.938	4.416	0.494
252.000	211.025	80.008	19.993	103.929	19.942	4.096	0.507
253.500	211.755	80.010	19.994	103.918	19.941	4.209	0.470
255.000	212.508	80.008	19.993	103.924	19.941	4.191	0.508
256.500	213.239	80.009	19.995	103.923	19.941	4.181	0.494
258.000	214.039	80.008	19.993	103.920	19.944	3.979	0.518
259.500	214.747	80.009	19.995	103.913	19.943	4.064	0.476
261.000	215.475	80.010	19.994	103.909	19.944	4.010	0.492
262.500	216.195	80.010	19.994	103.906	19.938	4.382	0.466
264.000	216.922	80.008	19.994	103.904	19.939	4.348	0.487
265.500	217.660	80.008	19.996	103.909	19.933	4.777	0.484
267.000	218.384	80.008	19.995	103.917	19.932	4.844	0.478
268.500	219.162	80.008	19.996	103.912	19.939	4.356	0.497
270.000	219.897	80.007	19.996	103.912	19.937	4.501	0.482
271.500	220.660	80.009	19.995	103.912	19.937	4.519	0.518
273.000	221.390	80.007	19.995	103.911	19.937	4.475	0.488
274.500	222.140	80.009	19.995	103.910	19.936	4.582	0.486
276.000	222.823	80.008	19.996	103.904	19.938	4.431	0.458
277.500	223.553	80.009	19.994	103.907	19.939	4.364	0.469
279.000	224.272	80.008	19.993	103.910	19.937	4.463	0.466
280.500	225.036	80.009	19.994	103.910	19.937	4.512	0.500
282.000	225.753	80.007	19.994	103.911	19.935	4.614	0.497
283.500	226.558	80.009	19.995	103.914	19.937	4.505	0.544
285.000	227.255	80.011	19.994	103.919	19.938	4.451	0.473
286.500	228.056	80.010	19.993	103.911	19.937	4.479	0.552
288.000	228.781	80.011	19.994	103.906	19.939	4.356	0.499
289.500	229.574	80.007	19.993	103.906	19.940	4.255	0.512
291.000	230.338	80.009	19.994	103.918	19.943	4.054	0.517
292.500	231.080	80.010	19.993	103.926	19.937	4.463	0.498
294.000	231.800	80.008	19.992	103.917	19.940	4.289	0.505
295.500	232.518	80.009	19.993	103.911	19.939	4.320	0.487
297.000	233.286	80.009	19.992	103.908	19.941	4.207	0.488
298.500	234.054	80.009	19.994	103.907	19.937	4.529	0.509
300.000	234.835	80.008	19.993	103.907	19.936	4.543	0.519
301.500	235.581	80.008	19.994	103.906	19.936	4.592	0.504
303.000	236.279	80.010	19.993	103.906	19.937	4.497	0.467
304.500	237.066	80.009	19.993	103.906	19.935	4.634	0.504
306.000	237.801	80.011	19.994	103.906	19.934	4.686	0.477
307.500	238.536	80.011	19.993	103.905	19.937	4.485	0.474
309.000	239.289	80.012	19.993	103.904	19.936	4.585	0.509
310.500	240.042	80.011	19.994	103.904	19.938	4.426	0.511
312.000	240.775	80.011	19.992	103.904	19.937	4.493	0.477
313.500	241.489	80.010	19.994	103.902	19.937	4.519	0.467
315.000	242.231	80.009	19.993	103.901	19.938	4.446	0.517
316.500	243.014	80.010	19.994	103.902	19.937	4.523	0.502
318.000	243.789	80.008	19.994	103.903	19.934	4.706	0.539
319.500	244.508	80.008	19.994	103.904	19.935	4.656	0.512
321.000	245.245	80.009	19.993	103.903	19.939	4.370	0.475
322.500	245.975	80.008	19.994	103.902	19.935	4.666	0.475
324.000	246.780	80.007	19.992	103.903	19.935	4.672	0.536
325.500	247.530	80.010	19.992	103.903	19.936	4.557	0.512
327.000	248.274	80.008	19.996	103.903	19.936	4.567	0.475
328.500	248.994	80.009	19.993	103.904	19.936	4.573	0.489
330.000	249.806	80.009	19.993	103.899	19.937	4.474	0.551
331.500	250.562	80.009	19.995	103.899	19.935	4.626	0.494
333.000	251.311	80.009	19.994	103.902	19.936	4.590	0.515
334.500	252.058	80.009	19.993	103.901	19.932	4.882	0.501
336.000	252.838	80.009	19.994	103.900	19.936	4.599	0.523
337.500	253.588	80.009	19.994	103.897	19.937	4.503	0.513
339.000	254.310	80.008	19.994	103.896	19.935	4.648	0.486
340.500	255.092	80.010	19.995	103.895	19.934	4.706	0.542
342.000	255.860	80.009	19.994	103.900	19.935	4.628	0.530
343.500	256.595	80.007	19.993	103.903	19.933	4.763	0.501
345.000	257.385	80.009	19.994	103.904	19.932	4.879	0.534
346.500	258.110	80.008	19.994	103.904	19.931	4.968	0.497
348.000	258.852	80.008	19.993	103.900	19.930	5.002	0.504
349.500	259.617	80.009	19.993	103.902	19.931	4.902	0.523
351.000	260.389	80.009	19.994	103.904	19.931	4.964	0.491
352.500	261.098	80.010	19.995	103.903	19.930	4.974	0.467
354.000	261.885	80.008	19.995	103.898	19.930	5.009	0.509
355.500	262.587	80.008	19.994	103.900	19.931	4.950	0.465
357.000	263.362	80.009	19.995	103.902	19.928	5.159	0.508
358.500	264.102	80.008	19.995	103.902	19.928	5.135	0.490
360.000	264.858	80.008	19.994	103.899	19.928	5.169	0.495
361.500	265.599	80.008	19.995	103.900	19.927	5.207	0.478
363.000	266.347	80.009	19.995	103.904	19.931	4.966	0.501
364.500	267.070	80.008	19.994	103.903	19.927	5.246	0.507
366.000	267.815	80.009	19.994	103.898	19.930	5.036	0.493
367.500	268.525	80.009	19.994	103.890	19.928	5.125	0.488
369.000	269.275	80.009	19.995	103.896	19.928	5.133	0.487
370.500	270.032	80.009	19.994	103.895	19.926	5.310	0.494
372.000	270.815	80.010	19.995	103.892	19.928	5.137	0.513
373.500	271.564	80.009	19.994	103.893	19.925	5.391	0.513
375.000	272.322	80.009	19.995	103.899	19.926	5.316	0.478
376.500	273.086	80.009	19.994	103.892	19.921	5.701	0.517
378.000	273.809	80.010	19.994	103.890	19.921	5.646	0.478
379.500	274.543	80.009	19.993	103.897	19.925	5.354	0.486
381.000	275.319	80.009	19.995	103.891	19.928	5.149	0.521
382.500	276.085	80.011	19.993	103.892	19.925	5.411	0.506
384.000	276.786	80.009	19.993	103.889	19.922	5.632	0.503
385.500	277.587	80.009	19.993	103.891	19.918	5.892	0.511
387.000	278.330	80.011	19.995	103.893	19.921	5.664	0.489
388.500	279.108	80.010	19.994	103.889	19.918	5.896	0.517
390.000	279.821	80.011	19.994	103.887	19.916	6.015	0.473
391.500	280.510	80.012	19.993	103.881	19.912	6.323	0.467
393.000	281.321	80.011	19.993	103.891	19.914	6.214	0.538
394.500	282.123	80.011	19.993	103.892	19.914	6.200	0.542
396.000	282.862	80.011	19.994	103.885	19.915	6.079	0.487
397.500	283.619	80.011	19.993	103.884	19.911	6.390	0.490
399.000	284.361	80.010	19.994	103.877	19.909	6.567	0.519
400.500	285.119	80.009	19.994	103.888	19.909	6.571	0.535
402.000	285.844	80.007	19.993	103.885	19.909	6.574	0.496
403.500	286.651	80.009	19.993	103.885	19.907	6.734	0.525
405.000	287.366	80.010	19.995	103.885	19.906	6.775	0.492
406.500	288.167	80.008	19.994	103.880	19.904	6.950	0.549
408.000	288.896	80.008	19.993	103.886	19.901	7.132	0.492
409.500	289.627	80.007	19.994	103.892	19.900	7.251	0.511
411.000	290.402	80.008	19.995	103.889	19.899	7.324	0.534
412.500	291.143	80.009	19.993	103.880	19.898	7.336	0.504
414.000	291.919	80.009	19.993	103.883	19.895	7.614	0.515
415.500	292.710	80.008	19.994	103.891	19.894	7.628	0.522
417.000	293.442	80.009	19.994	103.886	19.898	7.376	0.502
418.500	294.222	80.008	19.994	103.879	19.896	7.507	0.512
420.000	294.939	80.009	19.993	103.879	19.895	7.569	0.474
421.500	295.704	80.008	19.994	103.879	19.892	7.779	0.502
423.000	296.478	80.009	19.994	103.882	19.896	7.475	0.498
424.500	297.180	80.009	19.993	103.883	19.892	7.773	0.484
426.000	297.943	80.009	19.993	103.876	19.891	7.881	0.522
427.500	298.741	80.008	19.994	103.875	19.888	8.065	0.549
429.000	299.490	80.009	19.993	103.877	19.891	7.884	0.517
430.500	300.287	80.007	19.994	103.879	19.887	8.202	0.530
432.000	301.021	80.007	19.994	103.883	19.890	7.981	0.492
433.500	301.796	80.008	19.995	103.883	19.888	8.127	0.494
435.000	302.547	80.007	19.994	103.877	19.883	8.433	0.518
436.500	303.340	80.008	19.994	103.870	19.883	8.439	0.488
438.000	304.101	80.008	19.992	103.873	19.880	8.710	0.506
439.500	304.851	80.009	19.992	103.878	19.884	8.390	0.508
441.000	305.592	80.008	19.995	103.874	19.880	8.702	0.495
442.500	306.380	80.010	19.995	103.887	19.878	8.845	0.523
444.000	307.096	80.010	19.993	103.880	19.880	8.668	0.483
445.500	307.909	80.009	19.995	103.875	19.875	9.077	0.552
447.000	308.669	80.010	19.993	103.871	19.875	9.067	0.488
448.500	309.432	80.010	19.993	103.865	19.873	9.220	0.523
450.000	310.169	80.010	19.995	103.866	19.873	9.170	0.487
451.500	310.936	80.010	19.993	103.866	19.871	9.331	0.522
453.000	311.686	80.010	19.994	103.866	19.871	9.339	0.518
454.500	312.464	80.011	19.994	103.865	19.868	9.557	0.519
456.000	313.260	80.009	19.994	103.863	19.863	9.931	0.519
457.500	314.026	80.010	19.994	103.863	19.861	10.070	0.498
459.000	314.772	80.010	19.995	103.863	19.858	10.329	0.508
460.500	315.536	80.010	19.994	103.871	19.861	10.124	0.513
462.000	316.291	80.009	19.993	103.872	19.861	10.060	0.507
463.500	317.032	80.010	19.994	103.869	19.856	10.443	0.488
465.000	317.818	80.010	19.994	103.869	19.853	10.687	0.526
466.500	318.611	80.010	19.994	103.864	19.851	10.810	0.515
468.000	319.310	80.011	19.995	103.867	19.850	10.876	0.476
469.500	320.060	80.010	19.994	103.864	19.847	11.150	0.484
471.000	320.813	80.013	19.995	103.864	19.845	11.285	0.502
472.500	321.576	80.011	19.993	103.864	19.843	11.387	0.504
474.000	322.344	80.012	19.993	103.868	19.834	12.090	0.494
475.500	323.097	80.012	19.993	103.874	19.834	12.092	0.515
477.000	323.868	80.012	19.990	103.871	19.829	12.421	0.508
478.500	324.627	80.009	19.994	103.867	19.824	12.816	0.499
480.000	325.350	80.010	19.993	103.869	19.819	13.192	0.489
481.500	326.160	80.009	19.993	103.872	19.813	13.623	0.549
483.000	326.888	80.009	19.993	103.867	19.809	13.897	0.500
484.500	327.624	80.009	19.994	103.866	19.805	14.191	0.497
486.000	328.427	80.008	19.994	103.866	19.799	14.660	0.513
487.500	329.169	80.008	19.993	103.869	19.794	15.027	0.515
489.000	329.929	80.007	19.993	103.874	19.791	15.234	0.513
490.500	330.692	80.007	19.995	103.873	19.786	15.613	0.504
492.000	331.416	80.008	19.993	103.869	19.783	15.839	0.489
493.500	332.200	80.008	19.995	103.871	19.779	16.119	0.529
495.000	332.997	80.008	19.996	103.871	19.774	16.491	0.519
496.500	333.767	80.009	19.993	103.869	19.766	17.048	0.510
498.000	334.535	80.009	19.993	103.869	19.764	17.217	0.525
499.500	335.316	80.010	19.992	103.868	19.761	17.431	0.528
501.000	336.094	80.010	19.993	103.867	19.759	17.604	0.517
502.500	336.869	80.008	19.993	103.870	19.759	17.624	0.507
504.000	337.620	80.009	19.994	103.873	19.755	17.931	0.518
505.500	338.359	80.010	19.994	103.871	19.750	18.273	0.487
507.000	339.142	80.011	19.993	103.865	19.745	18.637	0.555
508.500	339.931	80.010	19.993	103.866	19.741	18.960	0.512
510.000	340.612	80.009	19.994	103.867	19.737	19.250	0.463
511.500	341.386	80.008	19.993	103.866	19.735	19.405	0.523
513.000	342.166	80.010	19.993	103.865	19.729	19.825	0.514
514.500	342.900	80.010	19.993	103.868	19.727	19.990	0.483
516.000	343.662	80.008	19.994	103.867	19.725	20.127	0.501
517.500	344.409	80.010	19.994	103.865	19.718	20.651	0.491
519.000	345.126	80.010	19.992	103.869	19.715	20.842	0.480
520.500	345.921	80.007	19.995	103.869	19.707	21.415	0.516
522.000	346.674	80.008	19.995	103.869	19.701	21.852	0.484
523.500	347.402	80.009	19.995	103.866	19.698	22.112	0.508
525.000	348.182	80.009	19.994	103.865	19.689	22.736	0.514
526.500	348.966	80.010	19.993	103.864	19.683	23.185	0.517
528.000	349.666	80.010	19.994	103.864	19.684	23.130	0.454
529.500	350.421	80.010	19.993	103.863	19.671	24.056	0.523
531.000	351.204	80.010	19.994	103.867	19.667	24.412	0.491
532.500	351.927	80.011	19.993	103.865	19.661	24.810	0.487
534.000	352.699	80.010	19.994	103.866	19.655	25.254	0.513
535.500	353.465	80.011	19.994	103.869	19.647	25.832	0.495
537.000	354.233	80.009	19.993	103.868	19.638	26.517	0.521
538.500	354.996	80.009	19.994	103.864	19.632	26.947	0.531
540.000	355.725	80.009	19.993	103.870	19.623	27.641	0.500
541.500	356.476	80.008	19.994	103.870	19.613	28.330	0.480
543.000	357.289	80.010	19.994	103.867	19.603	29.113	0.529
544.500	358.000	80.009	19.994	103.867	19.596	29.641	0.470
546.000	358.760	80.009	19.995	103.868	19.581	30.727	0.483
547.500	359.561	80.010	19.993	103.869	19.572	31.356	0.516
549.000	360.322	80.010	19.993	103.875	19.559	32.330	0.514
550.500	361.076	80.011	19.994	103.872	19.546	33.254	0.494
552.000	361.818	80.010	19.995	103.870	19.534	34.202	0.483
553.500	362.560	80.011	19.994	103.871	19.519	35.265	0.506
555.000	363.265	80.009	19.996	103.871	19.510	35.914	0.473
556.500	364.022	80.011	19.994	103.872	19.495	37.046	0.503
558.000	364.793	80.010	19.994	103.874	19.476	38.466	0.514
559.500	365.534	80.009	19.994	103.878	19.463	39.435	0.506
561.000	366.317	80.008	19.993	103.874	19.450	40.370	0.530
562.500	367.033	80.008	19.993	103.868	19.434	41.518	0.486
564.000	367.797	80.009	19.995	103.871	19.420	42.579	0.513
565.500	368.563	80.008	19.993	103.880	19.399	44.091	0.515
567.000	369.338	80.009	19.994	103.894	19.376	45.792	0.519
568.500	370.111	80.009	19.994	103.896	19.361	46.904	0.518
570.000	370.862	80.008	19.993	103.889	19.341	48.390	0.458
571.500	371.584	80.009	19.993	103.889	19.311	50.584	0.509
573.000	372.386	80.009	19.994	103.895	19.287	52.412	0.535
574.500	373.151	80.008	19.994	103.888	19.256	54.642	0.514
576.000	373.927	80.008	19.993	103.893	19.228	56.711	0.519
577.500	374.691	80.010	19.995	103.896	19.202	58.651	0.499
579.000	375.403	80.008	19.993	103.887	19.174	60.735	0.477
580.500	376.196	80.008	19.994	103.873	19.145	62.870	0.562
582.000	376.939	80.009	19.993	103.884	19.121	64.587	0.463
583.500	377.702	80.009	19.994	103.897	19.095	66.535	0.499
585.000	378.477	80.009	19.994	103.898	19.069	68.450	0.517
586.500	379.236	80.010	19.995	103.900	19.047	70.065	0.514
588.000	379.985	80.008	19.995	103.900	19.021	72.030	0.514
589.500	380.769	80.008	19.994	103.889	18.999	73.607	0.527
591.000	381.551	80.008	19.995	103.897	18.968	75.900	0.524
592.500	382.267	80.009	19.994	103.905	18.937	78.170	0.496
594.000	383.016	80.009	19.995	103.921	18.908	80.332	0.496
595.500	383.787	80.009	19.995	103.921	18.868	83.257	0.499
597.000	384.573	80.010	19.993	103.917	18.824	86.489	0.515
598.500	385.323	80.009	19.994	103.934	18.764	90.975	0.504
600.000	386.080	80.009	19.995	103.943	18.704	95.372	0.513
601.500	386.797	80.008	19.995	103.937	18.641	100.044	0.479
603.000	387.533	80.009	19.994	103.931	18.574	104.942	0.499
604.500	388.327	80.009	19.993	103.926	18.503	110.184	0.505
606.000	389.060	80.010	19.993	103.915	18.432	115.422	0.499
607.500	389.799	80.010	19.993	103.912	18.363	120.506	0.489
609.000	390.556	80.010	19.993	103.933	18.284	126.372	0.521
610.500	391.307	80.011	19.993	103.944	18.199	132.650	0.516
612.000	392.028	80.011	19.994	103.946	18.123	138.247	0.485
613.500	392.784	80.011	19.993	103.953	18.054	143.352	0.513
615.000	393.575	80.011	19.993	103.928	17.986	148.417	0.534
616.500	394.359	80.011	19.993	103.925	17.918	153.416	0.527
618.000	395.102	80.009	19.993	103.929	17.847	158.620	0.500
619.500	395.848	80.009	19.994	103.940	17.765	164.641	0.497
621.000	396.575	80.009	19.995	103.976	17.692	170.047	0.482
622.500	397.298	80.009	19.994	103.989	17.609	176.193	0.482
624.000	398.071	80.010	19.994	103.985	17.513	183.416	0.510
625.500	398.817	80.009	19.992	104.005	17.429	189.775	0.494
627.000	399.598	80.010	19.994	104.009	17.347	195.646	0.504
628.500	400.360	80.010	19.994	103.987	17.263	201.532	0.508
630.000	401.119	80.011	19.993	103.996	17.178	207.630	0.498
631.500	401.882	80.010	19.995	103.993	17.064	215.937	0.502
633.000	402.588	80.011	19.995	103.998	16.867	230.687	0.483
634.500	403.371	80.012	19.992	104.038	16.648	247.312	0.515
636.000	404.072	80.013	19.993	104.159	16.485	259.439	0.478
637.500	404.807	80.013	19.994	104.111	16.358	268.746	0.479
639.000	405.535	80.011	19.993	103.976	16.245	276.988	0.479
640.500	406.339	80.012	19.993	103.857	16.141	284.571	0.528
642.000	407.022	80.011	19.994	103.810	16.033	292.535	0.459
643.500	407.813	80.009	19.994	103.851	15.916	301.165	0.517
645.000	408.575	80.010	19.994	104.056	15.799	310.021	0.500
646.500	409.275	80.009	19.995	104.156	15.683	318.909	0.462
648.000	410.050	80.008	19.994	104.133	15.582	326.684	0.532
649.500	410.810	80.008	19.995	104.094	15.497	333.607	0.497
651.000	411.522	80.007	19.995	104.058	15.428	337.362	0.486
652.500	412.275	80.009	19.994	104.042	15.358	340.938	0.501
654.000	413.002	80.010	19.994	104.042	15.245	348.423	0.493
655.500	413.715	80.009	19.996	104.095	15.049	362.953	0.463
657.000	414.463	80.008	19.994	104.194	14.707	389.577	0.506
658.500	415.181	80.008	19.994	104.291	14.303	421.661	0.481
660.000	415.926	80.009	19.994	104.554	14.090	437.807	0.472
661.500	416.648	80.009	19.994	104.362	14.031	441.342	0.488
663.000	417.342	80.010	19.993	103.760	14.031	440.430	0.460
664.500	418.084	80.010	19.994	103.446	14.013	441.703	0.499
666.000	418.812	80.009	19.994	103.384	13.990	443.606	0.489
667.500	419.588	80.008	19.993	103.659	13.976	445.048	0.534
669.000	420.282	80.009	19.993	104.249	13.965	445.566	0.453
670.500	421.076	80.009	19.992	104.532	13.957	445.958	0.519
672.000	421.759	80.009	19.993	104.381	13.964	445.208	0.472
673.500	422.527	80.009	19.993	104.147	13.977	444.051	0.504
675.000	423.245	80.010	19.994	104.074	13.968	444.831	0.477
676.500	424.021	80.009	19.993	104.127	13.945	447.011	0.513
678.000	424.792	80.008	19.993	104.233	13.953	446.931	0.506
679.500	425.551	80.008	19.993	104.197	14.000	443.359	0.515
681.000	426.276	80.007	19.994	104.098	14.069	437.840	0.482
682.500	427.025	80.007	19.993	104.072	14.166	430.353	0.480
684.000	427.821	80.008	19.993	104.027	14.283	421.511	0.552
685.500	428.591	80.007	19.993	104.020	14.371	415.106	0.532
687.000	429.411	80.008	19.993	104.104	14.436	410.956	0.540
688.500	430.185	80.009	19.993	104.258	14.551	402.552	0.533
690.000	430.927	80.009	19.993	104.280	14.714	390.364	0.494
691.500	431.711	80.010	19.993	104.177	14.906	375.964	0.512
693.000	432.451	80.010	19.994	104.086	15.108	360.946	0.477
694.500	433.234	80.011	19.993	104.029	15.311	345.988	0.501
696.000	434.024	80.010	19.994	104.011	15.517	330.710	0.509
697.500	434.794	80.011	19.993	104.147	15.739	314.346	0.517
699.000	435.616	80.011	19.993	104.241	15.959	298.033	0.547
700.500	436.443	80.011	19.992	104.207	16.182	281.583	0.552
702.000	437.202	80.011	19.994	104.147	16.402	265.342	0.520
703.500	437.981	80.011	19.993	104.106	16.627	248.738	0.510
705.000	438.780	80.011	19.994	104.096	16.840	232.965	0.545
706.500	439.551	80.010	19.994	104.091	17.060	216.736	0.536
708.000	440.387	80.010	19.994	104.084	17.268	201.327	0.550
709.500	441.122	80.009	19.994	104.067	17.475	186.062	0.488
711.000	441.984	80.010	19.995	104.063	17.667	171.893	0.574
712.500	442.744	80.011	19.994	104.063	17.850	158.362	0.502
714.000	443.528	80.012	19.994	104.049	18.027	145.278	0.515
715.500	444.346	80.010	19.996	104.046	18.191	133.179	0.553
717.000	445.107	80.010	19.994	104.033	18.351	121.431	0.502
718.500	445.934	80.012	19.993	104.018	18.494	110.863	0.518
720.000	446.668	80.012	19.995	104.008	18.633	100.609	0.494
721.500	447.428	80.011	19.994	103.987	18.757	91.453	0.520
723.000	448.262	80.013	19.994	103.981	18.864	83.534	0.562
724.500	448.998	80.011	19.995	103.963	18.965	76.074	0.514
726.000	449.786	80.011	19.993	103.962	19.056	69.360	0.520
727.500	450.541	80.010	19.993	103.952	19.142	63.046	0.493
729.000	451.368	80.009	19.994	103.941	19.216	57.570	0.543
730.500	452.120	80.008	19.994	103.937	19.282	52.750	0.523
732.000	452.864	80.009	19.994	103.925	19.345	48.092	0.496
733.500	453.669	80.010	19.994	103.917	19.400	43.996	0.532
735.000	454.488	80.008	19.993	103.905	19.448	40.468	0.527
736.500	455.260	80.009	19.993	103.896	19.487	37.621	0.497
738.000	456.034	80.007	19.995	103.878	19.527	34.668	0.504
739.500	456.767	80.007	19.994	103.868	19.562	32.066	0.500
741.000	457.578	80.008	19.995	103.865	19.598	29.465	0.522
742.500	458.309	80.009	19.995	103.856	19.622	27.677	0.504
744.000	459.131	80.007	19.995	103.838	19.648	25.746	0.553
745.500	459.862	80.008	19.996	103.828	19.667	24.381	0.466
747.000	460.655	80.007	19.994	103.825	19.687	22.904	0.526
748.500	461.437	80.009	19.995	103.825	19.707	21.455	0.523
750.000	462.187	80.007	19.995	103.820	19.725	20.124	0.512
751.500	462.974	80.007	19.995	103.821	19.738	19.110	0.527
753.000	463.716	80.008	19.994	103.819	19.757	17.749	0.515
754.500	464.491	80.008	19.995	103.818	19.770	16.821	0.506
756.000	465.275	80.007	19.994	103.823	19.781	16.005	0.526
757.500	466.031	80.009	19.994	103.826	19.793	15.083	0.494
759.000	466.748	80.009	19.993	103.827	19.803	14.383	0.465
760.500	467.508	80.008	19.993	103.828	19.812	13.687	0.509
762.000	468.289	80.010	19.994	103.827	19.824	12.805	0.523
763.500	469.034	80.009	19.994	103.826	19.833	12.132	0.483
765.000	469.831	80.009	19.993	103.830	19.846	11.182	0.498
766.500	470.588	80.007	19.993	103.830	19.853	10.704	0.521
768.000	471.333	80.009	19.993	103.828	19.862	9.990	0.493
769.500	472.102	80.009	19.994	103.828	19.868	9.559	0.536
771.000	472.850	80.011	19.993	103.835	19.880	8.679	0.486
772.500	473.598	80.010	19.994	103.837	19.889	8.043	0.499
774.000	474.387	80.011	19.994	103.828	19.897	7.467	0.526
775.500	475.153	80.011	19.993	103.828	19.904	6.897	0.513
777.000	475.902	80.010	19.993	103.827	19.910	6.476	0.497
778.500	476.648	80.010	19.994	103.830	19.917	5.948	0.484
780.000	477.420	80.011	19.993	103.834	19.920	5.732	0.514
781.500	478.199	80.011	19.994	103.831	19.925	5.365	0.502
783.000	478.933	80.011	19.993	103.833	19.927	5.218	0.475
784.500	479.663	80.011	19.994	103.826	19.929	5.099	0.479
786.000	480.463	80.011	19.993	103.823	19.931	4.898	0.528
787.500	481.230	80.009	19.995	103.825	19.935	4.657	0.509
789.000	481.954	80.013	19.999	103.838	19.934	4.735	0.484
790.500	482.731	80.011	20.000	103.840	19.938	4.407	0.527
792.000	483.506	80.011	19.995	103.825	19.938	4.407	0.521
793.500	484.249	80.011	19.993	103.825	19.937	4.475	0.504
795.000	484.967	80.010	19.994	103.825	19.936	4.572	0.518
796.500	485.762	80.011	19.993	103.825	19.938	4.407	0.522
798.000	486.556	80.010	19.993	103.825	19.937	4.518	0.516
799.500	487.298	80.010	19.993	103.826	19.940	4.290	0.489
801.000	488.093	80.011	19.994	103.826	19.940	4.292	0.559
802.500	488.833	80.011	19.993	103.826	19.938	4.445	0.484
804.000	489.607	80.010	19.993	103.828	19.933	4.747	0.530
805.500	490.367	80.011	19.994	103.827	19.938	4.411	0.514
807.000	491.119	80.009	19.994	103.826	19.938	4.449	0.503
808.500	491.883	80.008	19.993	103.825	19.938	4.394	0.516
810.000	492.667	80.008	19.993	103.825	19.940	4.248	0.548
811.500	493.377	80.008	19.994	103.826	19.938	4.403	0.493
813.000	494.184	80.008	19.994	103.828	19.939	4.377	0.511
814.500	494.995	80.009	19.995	103.828	19.935	4.655	0.517
816.000	495.602	80.007	19.994	103.834	19.942	4.117	0.446
817.500	496.468	80.008	19.994	103.829	19.936	4.538	0.552
819.000	497.208	80.008	19.993	103.817	19.939	4.334	0.493
820.500	498.004	80.008	19.994	103.835	19.936	4.586	0.514
822.000	498.798	80.009	19.994	103.839	19.930	4.999	0.569
823.500	499.505	80.008	19.993	103.827	19.941	4.167	0.485
825.000	500.324	80.008	19.993	103.827	19.941	4.183	0.481
826.500	501.113	80.009	19.993	103.826	19.941	4.211	0.534
828.000	501.731	80.009	19.993	103.825	19.942	4.135	0.443
829.500	502.609	80.008	19.994	103.824	19.937	4.526	0.576
831.000	503.296	80.009	19.995	103.829	19.935	4.610	0.368
832.500	504.223	80.009	19.995	103.829	19.940	4.270	0.611
834.000	505.165	80.008	19.994	103.824	19.940	4.296	0.708
835.500	505.478	80.009	19.994	103.823	19.940	4.244	0.587
837.000	505.922	80.006	19.994	103.823	19.940	4.288	0.340
838.500	507.269	80.008	19.994	103.822	19.938	4.449	0.626
840.000	507.955	80.008	19.995	103.822	19.942	4.127	0.419
841.500	508.673	80.008	19.995	103.822	19.938	4.393	0.521
843.000	509.532	80.007	19.994	103.823	19.938	4.445	0.554
844.500	510.208	80.008	19.995	103.822	19.939	4.371	0.543
846.000	510.958	80.009	19.995	103.823	19.934	4.683	0.557
847.500	511.775	80.007	19.995	103.823	19.938	4.447	0.587
849.000	512.574	80.008	19.994	103.822	19.938	4.407	0.519
850.500	513.346	80.009	19.994	103.823	19.938	4.443	0.569
852.000	514.133	80.009	19.993	103.823	19.939	4.356	0.518
853.500	514.956	80.010	19.994	103.823	19.938	4.397	0.554
855.000	515.707	80.010	19.993	103.823	19.940	4.260	0.505
856.500	516.477	80.011	19.993	103.824	19.944	3.998	0.510
858.000	517.260	80.011	19.993	103.824	19.943	4.014	0.517
859.500	518.021	80.009	19.993	103.824	19.943	4.014	0.552
861.000	518.803	80.010	19.995	103.824	19.943	4.071	0.505
862.500	519.596	80.010	19.993	103.824	19.944	3.982	0.515
864.000	520.372	80.010	19.993	103.824	19.947	3.759	0.521
865.500	521.158	80.009	19.994	103.826	19.948	3.706	0.539
867.000	521.942	80.010	19.994	103.826	19.943	4.042	0.519
868.500	522.711	80.008	19.993	103.826	19.941	4.203	0.507
870.000	523.568	80.008	19.994	103.826	19.944	4.010	0.545
871.500	524.324	80.010	19.993	103.825	19.946	3.799	0.520
873.000	525.083	80.011	19.993	103.825	19.945	3.930	0.503
874.500	525.893	80.010	19.993	103.826	19.944	4.000	0.550
876.000	526.619	80.010	19.992	103.825	19.943	4.077	0.509
877.500	527.411	80.010	19.994	103.824	19.941	4.194	0.517
879.000	528.187	80.010	19.993	103.822	19.942	4.085	0.513
880.500	528.950	80.011	19.993	103.823	19.941	4.211	0.523
882.000	529.695	80.011	19.993	103.825	19.941	4.207	0.524
883.500	530.431	80.011	19.994	103.824	19.942	4.145	0.481
885.000	531.166	80.012	19.993	103.820	19.944	4.006	0.477
886.500	532.013	80.012	19.994	103.825	19.941	4.211	0.547
888.000	532.793	80.010	19.992	103.827	19.940	4.266	0.518
889.500	533.489	80.010	19.993	103.823	19.944	3.996	0.473
891.000	534.297	80.011	19.994	103.822	19.941	4.181	0.537
892.500	535.077	80.010	19.993	103.824	19.940	4.304	0.518
894.000	535.824	80.010	19.994	103.821	19.943	4.026	0.492
895.500	536.603	80.010	19.994	103.821	19.941	4.187	0.531
897.000	537.314	80.009	19.994	103.822	19.942	4.115	0.476
898.500	538.089	80.009	19.993	103.824	19.946	3.843	0.529
900.000	538.858	80.009	19.994	103.822	19.945	3.936	0.510
901.500	539.608	80.010	19.994	103.822	19.942	4.151	0.505
903.000	540.403	80.009	19.994	103.822	19.942	4.125	0.531
904.500	541.132	80.009	19.995	103.823	19.940	4.237	0.497
906.000	541.917	80.009	19.994	103.821	19.939	4.338	0.518
907.500	542.671	80.009	19.993	103.816	19.942	4.155	0.509
909.000	543.459	80.009	19.994	103.816	19.939	4.370	0.535
910.500	544.181	80.008	19.995	103.821	19.939	4.306	0.488
912.000	544.975	80.009	19.994	103.820	19.938	4.444	0.535
913.500	545.723	80.009	19.993	103.818	19.936	4.575	0.520
915.000	546.498	80.009	19.993	103.817	19.937	4.475	0.486
916.500	547.260	80.010	19.994	103.821	19.942	4.157	0.509
918.000	548.029	80.009	19.994	103.818	19.942	4.120	0.522
919.500	548.813	80.009	19.994	103.819	19.941	4.191	0.544
921.000	549.590	80.008	19.994	103.814	19.938	4.424	0.512
922.500	550.312	80.009	19.994	103.802	19.939	4.346	0.471
924.000	551.083	80.008	19.995	103.812	19.941	4.207	0.515
925.500	551.891	80.008	19.994	103.814	19.940	4.271	0.542
927.000	552.627	80.008	19.994	103.812	19.941	4.185	0.515
928.500	553.378	80.008	19.995	103.815	19.942	4.126	0.502
930.000	554.184	80.008	19.994	103.812	19.939	4.360	0.544
931.500	554.977	80.008	19.993	103.812	19.940	4.272	0.520
933.000	555.742	80.008	19.995	103.810	19.941	4.205	0.517
934.500	556.495	80.008	19.995	103.799	19.939	4.350	0.503
936.000	557.227	80.009	19.994	103.806	19.942	4.109	0.484
937.500	558.008	80.008	19.995	103.814	19.937	4.457	0.532
939.000	558.787	80.010	19.994	103.811	19.939	4.312	0.543
940.500	559.530	80.008	19.994	103.811	19.936	4.548	0.518
942.000	560.306	80.009	19.994	103.812	19.937	4.483	0.509
943.500	561.069	80.011	19.995	103.818	19.938	4.421	0.513
945.000	561.819	80.010	19.994	103.821	19.940	4.232	0.495
946.500	562.594	80.009	19.995	103.820	19.941	4.211	0.506
948.000	563.321	80.009	19.992	103.817	19.940	4.254	0.498
949.500	564.106	80.009	19.992	103.819	19.942	4.125	0.515
951.000	564.859	80.010	19.994	103.827	19.941	4.222	0.502
952.500	565.631	80.009	19.994	103.826	19.938	4.407	0.514
954.000	566.394	80.008	19.993	103.827	19.944	4.004	0.500
955.500	567.172	80.010	19.993	103.824	19.940	4.258	0.520
957.000	568.010	80.012	19.992	103.821	19.937	4.473	0.545
958.500	568.778	80.010	19.992	103.822	19.939	4.346	0.518
960.000	569.592	80.011	19.992	103.821	19.939	4.318	0.534
961.500	570.416	80.011	19.993	103.822	19.943	4.056	0.539
963.000	571.197	80.011	19.992	103.822	19.939	4.322	0.517
964.500	572.020	80.011	19.994	103.821	19.937	4.493	0.565
966.000	572.771	80.012	19.994	103.821	19.937	4.467	0.523
967.500	573.616	80.012	19.994	103.823	19.939	4.364	0.557
969.000	574.436	80.011	19.993	103.822	19.936	4.549	0.542
970.500	575.194	80.011	19.994	103.821	19.938	4.449	0.512
972.000	575.990	80.013	19.993	103.820	19.939	4.370	0.530
973.500	576.786	80.010	19.994	103.811	19.939	4.310	0.539
975.000	577.538	80.009	19.993	103.812	19.940	4.262	0.512
976.500	578.355	80.009	19.992	103.816	19.940	4.270	0.516
978.000	579.104	80.008	19.995	103.818	19.938	4.389	0.501
979.500	579.915	80.010	19.993	103.817	19.939	4.312	0.525
981.000	580.692	80.009	19.994	103.821	19.936	4.592	0.532
982.500	581.492	80.010	19.993	103.820	19.938	4.419	0.522
984.000	582.280	80.010	19.992	103.820	19.935	4.626	0.503
985.500	583.058	80.010	19.994	103.822	19.941	4.221	0.534
987.000	583.866	80.009	19.993	103.824	19.935	4.640	0.544
988.500	584.628	80.009	19.993	103.824	19.941	4.228	0.505
990.000	585.397	80.010	19.994	103.822	19.942	4.129	0.548
991.500	586.217	80.009	19.992	103.821	19.938	4.382	0.539
993.000	586.957	80.009	19.993	103.818	19.939	4.332	0.487
994.500	587.734	80.009	19.992	103.815	19.937	4.475	0.515
996.000	588.529	80.009	19.993	103.814	19.939	4.340	0.516
997.500	589.282	80.009	19.994	103.815	19.936	4.558	0.516
999.000	590.089	80.010	19.994	103.819	19.939	4.376	0.544
1000.500	590.854	80.009	19.993	103.821	19.935	4.608	0.521
1002.000	591.632	80.009	19.995	103.814	19.940	4.256	0.518
1003.500	592.400	80.009	19.994	103.810	19.935	4.610	0.515
1005.000	593.174	80.008	19.994	103.817	19.936	4.539	0.510
1006.500	593.949	80.008	19.995	103.821	19.937	4.477	0.495
1008.000	594.726	80.009	19.993	103.824	19.942	4.147	0.539
1009.500	595.436	80.008	19.995	103.817	19.939	4.374	0.478
1011.000	596.225	80.008	19.994	103.820	19.939	4.334	0.511
1012.500	596.956	80.009	19.994	103.825	19.940	4.288	0.486
1014.000	597.740	80.007	19.994	103.818	19.938	4.418	0.509
1015.500	598.495	80.009	19.994	103.817	19.940	4.261	0.508
1017.000	599.277	80.010	19.994	103.816	19.936	4.589	0.519
1018.500	600.016	80.010	19.994	103.811	19.939	4.352	0.480
1020.000	600.778	80.010	19.995	103.818	19.938	4.382	0.528
1021.500	601.559	80.011	19.995	103.820	19.940	4.255	0.523
1023.000	602.313	80.012	19.993	103.822	19.938	4.404	0.489
1024.499	603.069	80.011	19.996	103.815	19.935	4.664	0.502
1026.000	603.820	80.012	19.994	103.812	19.935	4.625	0.491
1027.499	604.565	80.011	19.994	103.809	19.940	4.233	0.491
1028.999	605.326	80.009	19.995	103.819	19.939	4.342	0.517
1030.499	606.094	80.010	19.994	103.815	19.940	4.269	0.492
1031.999	606.840	80.011	19.994	103.808	19.937	4.466	0.488
1033.499	607.587	80.009	19.995	103.809	19.941	4.227	0.485
1034.999	608.360	80.010	19.994	103.811	19.940	4.251	0.520
1036.500	609.128	80.010	19.995	103.811	19.939	4.342	0.532
1038.000	609.907	80.011	19.994	103.806	19.937	4.511	0.531
1039.499	610.654	80.010	19.994	103.807	19.940	4.295	0.467
1041.000	611.453	80.013	19.994	103.797	19.939	4.311	0.521
1042.500	612.236	80.013	19.993	103.796	19.938	4.407	0.522
1043.999	613.032	80.011	19.994	103.805	19.940	4.300	0.528
1045.499	613.798	80.012	19.993	103.809	19.939	4.364	0.506
1046.999	614.608	80.011	19.994	103.808	19.941	4.187	0.538
1048.499	615.360	80.012	19.993	103.813	19.941	4.181	0.511
1050.000	616.097	80.012	19.993	103.812	19.941	4.221	0.512
1051.499	616.885	80.011	19.993	103.799	19.937	4.477	0.526
1052.999	617.657	80.012	19.994	103.810	19.937	4.493	0.515
1054.499	618.478	80.012	19.993	103.821	19.943	4.054	0.549
1056.000	619.254	80.009	19.993	103.821	19.940	4.256	0.497
1057.499	620.026	80.011	19.994	103.810	19.940	4.243	0.495
1058.999	620.770	80.009	19.993	103.806	19.938	4.424	0.501
1060.499	621.584	80.009	19.994	103.810	19.939	4.332	0.525
1062.000	622.324	80.009	19.994	103.815	19.936	4.558	0.473
1063.499	623.102	80.010	19.994	103.823	19.938	4.389	0.498
1065.000	623.866	80.010	19.993	103.824	19.939	4.372	0.504
1066.500	624.623	80.009	19.994	103.820	19.936	4.534	0.505
1067.999	625.404	80.009	19.994	103.815	19.939	4.336	0.502
1069.499	626.176	80.009	19.993	103.812	19.938	4.433	0.527
1070.999	626.946	80.010	19.995	103.818	19.938	4.427	0.507
1072.499	627.731	80.010	19.995	103.821	19.939	4.324	0.531
1074.001	628.486	80.010	19.994	103.822	19.939	4.364	0.531
1075.499	629.255	80.009	19.994	103.816	19.936	4.531	0.522
1076.999	630.049	80.009	19.993	103.819	19.942	4.102	0.529
1078.499	630.788	80.009	19.994	103.821	19.940	4.255	0.491
1080.000	631.560	80.009	19.993	103.817	19.943	4.054	0.499
1081.499	632.315	80.010	19.994	103.815	19.938	4.416	0.525
1082.999	633.094	80.009	19.992	103.819	19.940	4.296	0.499
1084.499	633.841	80.010	19.993	103.820	19.939	4.342	0.500
1085.999	634.639	80.010	19.993	103.820	19.936	4.537	0.522
1087.499	635.449	80.010	19.994	103.811	19.936	4.546	0.534
1089.000	636.204	80.008	19.993	103.809	19.935	4.620	0.509
1090.499	636.967	80.009	19.995	103.816	19.938	4.392	0.500
1091.999	637.733	80.008	19.994	103.812	19.938	4.434	0.496
1093.499	638.488	80.009	19.995	103.814	19.937	4.519	0.491
1095.000	639.240	80.009	19.996	103.812	19.935	4.670	0.511
1096.499	640.002	80.009	19.995	103.809	19.939	4.319	0.483
1097.999	640.749	80.010	19.994	103.822	19.938	4.404	0.509
1099.499	641.485	80.010	19.994	103.822	19.941	4.194	0.493
1101.000	642.269	80.011	19.994	103.812	19.939	4.367	0.523
1102.499	643.008	80.010	19.995	103.807	19.939	4.319	0.489
1103.999	643.740	80.012	19.995	103.813	19.936	4.539	0.498
1105.499	644.486	80.012	19.994	103.810	19.940	4.247	0.485
1106.999	645.186	80.010	19.995	103.801	19.935	4.602	0.478
1108.499	645.944	80.011	19.994	103.803	19.937	4.473	0.516
1109.999	646.665	80.010	19.994	103.805	19.939	4.368	0.470
1111.499	647.424	80.010	19.994	103.800	19.937	4.475	0.507
1113.000	648.147	80.012	19.994	103.797	19.936	4.559	0.496
1114.500	648.913	80.011	19.995	103.803	19.938	4.447	0.504
1115.999	649.653	80.009	19.993	103.801	19.945	3.924	0.497
1117.499	650.426	80.011	19.995	103.807	19.940	4.239	0.530
1118.999	651.141	80.010	19.995	103.820	19.938	4.378	0.484
1120.500	651.880	80.008	19.994	103.816	19.939	4.326	0.473
1121.999	652.635	80.010	19.995	103.815	19.939	4.348	0.519
1123.499	653.404	80.011	19.995	103.814	19.941	4.225	0.513
1124.999	654.168	80.011	19.994	103.813	19.938	4.425	0.517
1126.500	654.928	80.010	19.994	103.818	19.940	4.296	0.506
1127.999	655.703	80.011	19.994	103.821	19.941	4.197	0.503
1129.499	656.477	80.011	19.995	103.815	19.941	4.229	0.540
1131.000	657.278	80.011	19.996	103.822	19.939	4.353	0.519
1132.499	658.034	80.012	19.995	103.823	19.938	4.380	0.495
1133.999	658.783	80.011	19.994	103.811	19.943	4.078	0.495
1135.500	659.530	80.012	19.993	103.808	19.943	4.063	0.489
1136.999	660.323	80.010	19.994	103.818	19.940	4.245	0.524
1138.499	661.050	80.009	19.993	103.817	19.943	4.066	0.475
1139.999	661.826	80.010	19.993	103.818	19.941	4.203	0.506
1141.499	662.601	80.009	19.993	103.826	19.939	4.338	0.521
1143.000	663.399	80.010	19.993	103.824	19.941	4.203	0.518
1144.499	664.084	80.010	19.993	103.819	19.942	4.119	0.478
1145.999	664.857	80.010	19.993	103.822	19.940	4.233	0.520
1147.499	665.687	80.009	19.994	103.816	19.942	4.133	0.544
1148.999	666.402	80.010	19.993	103.818	19.939	4.326	0.540
1150.499	667.196	80.009	19.994	103.822	19.940	4.251	0.555
1151.999	667.998	80.010	19.994	103.821	19.938	4.383	0.514
1153.499	668.774	80.012	19.994	103.821	19.939	4.342	0.515
1155.000	669.547	80.009	19.994	103.822	19.938	4.415	0.517
1156.499	670.357	80.010	19.994	103.815	19.937	4.491	0.530
1157.999	671.157	80.010	19.994	103.814	19.938	4.415	0.535
1159.499	671.930	80.010	19.994	103.812	19.937	4.493	0.521
1160.999	672.700	80.010	19.994	103.810	19.933	4.787	0.507
1162.499	673.510	80.010	19.994	103.821	19.938	4.411	0.520
1163.999	674.315	80.010	19.994	103.824	19.941	4.219	0.556
1165.501	675.148	80.011	19.994	103.822	19.940	4.300	0.562
1166.999	675.893	80.011	19.995	103.823	19.938	4.399	0.513
1168.499	676.652	80.010	19.994	103.822	19.939	4.369	0.530
1170.000	677.496	80.010	19.994	103.822	19.939	4.326	0.542
1171.499	678.271	80.011	19.993	103.823	19.937	4.503	0.548
1172.999	679.031	80.009	19.993	103.824	19.937	4.465	0.484
1174.499	679.808	80.009	19.993	103.818	19.938	4.382	0.527
1175.999	680.642	80.010	19.993	103.819	19.936	4.598	0.584
1177.500	681.445	80.008	19.993	103.822	19.937	4.461	0.526
1178.999	682.173	80.009	19.995	103.825	19.935	4.658	0.500
1180.500	682.962	80.010	19.994	103.820	19.934	4.727	0.509
1182.000	683.729	80.010	19.994	103.820	19.932	4.836	0.515
1183.499	684.514	80.009	19.993	103.823	19.937	4.515	0.531
1185.000	685.343	80.010	19.994	103.821	19.936	4.560	0.568
1186.499	686.089	80.011	19.994	103.816	19.934	4.711	0.504
1187.999	686.783	80.011	19.993	103.818	19.937	4.499	0.570
1189.499	687.683	80.009	19.994	103.823	19.941	4.205	0.568
1191.000	688.425	80.011	19.995	103.825	19.937	4.514	0.489
1192.499	689.225	80.010	19.994	103.823	19.938	4.395	0.541
1193.999	689.980	80.009	19.995	103.822	19.941	4.218	0.496
1195.499	690.749	80.010	19.994	103.824	19.935	4.668	0.507
1196.999	691.494	80.010	19.995	103.823	19.936	4.552	0.499
1198.500	692.280	80.009	19.993	103.819	19.936	4.572	0.527
1200.000	693.049	80.009	19.994	103.822	19.937	4.523	0.527
1201.499	693.863	80.010	19.994	103.826	19.935	4.656	0.543
1202.999	694.608	80.009	19.994	103.823	19.934	4.719	0.495
1204.499	695.399	80.010	19.993	103.823	19.938	4.415	0.515
1205.999	696.193	80.011	19.994	103.823	19.933	4.789	0.523
1207.499	696.982	80.010	19.994	103.822	19.935	4.626	0.531
1209.000	697.775	80.010	19.993	103.824	19.933	4.750	0.516
1210.499	698.464	80.011	19.993	103.819	19.937	4.518	0.466
1212.000	699.268	80.011	19.994	103.818	19.934	4.736	0.549
1213.499	700.024	80.012	19.993	103.822	19.934	4.682	0.490
1214.999	700.805	80.012	19.995	103.818	19.933	4.797	0.512
1216.500	701.550	80.011	19.995	103.818	19.930	4.984	0.483
1217.999	702.323	80.010	19.994	103.819	19.933	4.801	0.508
1219.499	703.080	80.009	19.994	103.808	19.933	4.777	0.492
1220.999	703.814	80.007	19.995	103.795	19.935	4.668	0.504
1222.499	704.561	80.009	19.995	103.803	19.937	4.501	0.483
1224.000	705.336	80.008	19.995	103.809	19.931	4.941	0.482
1225.499	706.163	80.009	19.995	103.812	19.933	4.782	0.549
1226.999	706.883	80.009	19.993	103.818	19.938	4.389	0.495
1228.499	707.593	80.008	19.994	103.817	19.935	4.608	0.469
1229.999	708.373	80.008	19.994	103.815	19.936	4.563	0.509
1231.499	709.141	80.008	19.994	103.817	19.934	4.737	0.499
1232.999	709.911	80.010	19.994	103.813	19.933	4.779	0.514
1234.500	710.703	80.008	19.994	103.804	19.934	4.712	0.529
1235.999	711.469	80.009	19.993	103.802	19.934	4.680	0.510
1237.499	712.202	80.008	19.994	103.815	19.937	4.525	0.479
1238.999	712.947	80.011	19.994	103.819	19.936	4.592	0.508
1240.499	713.744	80.009	19.993	103.811	19.939	4.342	0.511
1241.999	714.494	80.009	19.993	103.814	19.936	4.588	0.526
1243.499	715.277	80.011	19.994	103.813	19.935	4.646	0.520
1245.000	716.093	80.009	19.994	103.816	19.938	4.442	0.541
1246.499	716.819	80.009	19.994	103.818	19.933	4.784	0.501
1247.999	717.606	80.010	19.993	103.813	19.933	4.791	0.512
1249.499	718.359	80.009	19.993	103.816	19.936	4.542	0.507
1250.999	719.103	80.008	19.994	103.823	19.933	4.753	0.503
1252.500	719.851	80.009	19.993	103.824	19.931	4.920	0.523
1253.999	720.634	80.009	19.993	103.816	19.933	4.801	0.518
1255.499	721.382	80.008	19.994	103.806	19.930	4.997	0.511
1256.999	722.087	80.009	19.993	103.799	19.933	4.767	0.487
1258.499	722.898	80.009	19.994	103.816	19.930	5.039	0.545
1259.999	723.602	80.009	19.993	103.827	19.932	4.837	0.459
1261.499	724.331	80.010	19.993	103.826	19.932	4.861	0.497
1262.999	725.137	80.011	19.994	103.823	19.930	5.031	0.532
1264.499	725.855	80.011	19.994	103.823	19.932	4.821	0.491
1265.999	726.606	80.011	19.993	103.824	19.932	4.878	0.498
1267.499	727.377	80.010	19.994	103.819	19.930	4.982	0.523
1268.999	728.113	80.011	19.992	103.816	19.932	4.823	0.535
1270.499	728.902	80.011	19.993	103.812	19.931	4.898	0.511
1271.999	729.570	80.011	19.992	103.805	19.934	4.735	0.467
1273.499	730.372	80.010	19.993	103.818	19.930	5.012	0.555
1274.999	731.146	80.010	19.992	103.822	19.931	4.962	0.486
1276.499	731.875	80.010	19.994	103.818	19.931	4.912	0.497
1278.000	732.644	80.010	19.993	103.817	19.929	5.053	0.521
1279.499	733.417	80.011	19.994	103.821	19.931	4.904	0.497
1280.999	734.180	80.010	19.993	103.820	19.932	4.875	0.520
1282.499	734.949	80.010	19.994	103.818	19.931	4.944	0.486
1283.999	735.665	80.010	19.994	103.815	19.930	4.976	0.486
1285.499	736.398	80.010	19.994	103.817	19.931	4.964	0.476
1287.000	737.141	80.010	19.993	103.821	19.930	4.976	0.475
1288.499	737.943	80.011	19.994	103.822	19.928	5.181	0.514
1289.999	738.679	80.011	19.993	103.821	19.927	5.211	0.491
1291.501	739.432	80.012	19.994	103.811	19.929	5.068	0.544
1292.999	740.204	80.012	19.993	103.814	19.926	5.269	0.519
1294.501	740.988	80.013	19.995	103.814	19.930	4.968	0.531
1296.000	741.712	80.013	19.994	103.811	19.924	5.471	0.494
1297.499	742.538	80.013	19.994	103.818	19.925	5.382	0.564
1298.999	743.217	80.012	19.994	103.816	19.926	5.326	0.465
1299.499	743.491	80.010	19.993	103.810	19.926	5.286	0.517