File: 01_Data/Gypsum_Wallboard_Paper/STA/N2/10K_min/Gypsum_Wallboard_Paper_STA_N2_10KData_220216_R1.csv
##Temp./Â°C,Time/min,Mass loss(subtr.2)/mg,DSC(subtr.2)/(mW/mg),Sensit./(uV/mW)
49.659,10.01,0.00691,0.03196688,1.07518
50.259,10.7258,0.007759654,0.05853431,1.07486
50.859,10.9139,0.007583251,0.08088664,1.07455
51.459,11.05542,0.00856448,0.1001,1.07424
52.059,11.17238,0.008148507,0.11666,1.07393
52.659,11.27777,0.00834844,0.12953,1.07361
53.259,11.3734,0.00716678,0.14162,1.0733
53.859,11.4647,0.008172283,0.15163,1.07299
54.459,11.55096,0.008740225,0.16112,1.07268
55.059,11.63309,0.008213652,0.17149,1.07236
55.659,11.7119,0.007979979,0.17802,1.07205
56.259,11.78853,0.00781629,0.18644,1.07174
56.859,11.86308,0.007292396,0.19133,1.07143
57.459,11.9369,0.007982604,0.19974,1.07112
58.059,12.009,0.007484139,0.20551,1.0708
58.659,12.08,0.007899979,0.21028,1.07049
59.259,12.14993,0.007899588,0.21546,1.07018
59.859,12.21841,0.007381164,0.21885,1.06987
60.459,12.2872,0.00790723,0.22381,1.06956
61.059,12.3556,0.00885276,0.22853,1.06924
61.659,12.42408,0.00791882,0.23309,1.06893
62.259,12.49132,0.008328484,0.23583,1.06862
62.859,12.5577,0.009302777,0.24143,1.06831
63.459,12.62385,0.008186057,0.24172,1.068
64.059,12.6898,0.00703792,0.24745,1.06769
64.659,12.75554,0.00720091,0.25282,1.06737
65.259,12.82093,0.006689846,0.25534,1.06706
65.859,12.88619,0.00809514,0.25955,1.06675
66.459,12.95139,0.00669331,0.26404,1.06644
67.059,13.01624,0.006728955,0.26688,1.06613
67.659,13.08082,0.006681655,0.26923,1.06582
68.259,13.14512,0.006698239,0.27537,1.06551
68.859,13.2095,0.00537746,0.27774,1.0652
69.459,13.2736,0.0066909,0.27933,1.06489
70.059,13.33775,0.00585879,0.28344,1.06457
70.659,13.4017,0.00538736,0.28765,1.06426
71.259,13.4657,0.00656756,0.28895,1.06395
71.859,13.5296,0.00537953,0.29259,1.06364
72.459,13.59329,0.005280471,0.29641,1.06333
73.059,13.6571,0.00482929,0.29804,1.06302
73.659,13.7206,0.005361352,0.30338,1.06271
74.259,13.78379,0.005370191,0.30522,1.0624
74.859,13.8468,0.004206627,0.30856,1.06209
75.459,13.90955,0.005084464,0.31075,1.06178
76.059,13.97243,0.004063773,0.31519,1.06147
76.659,14.03556,0.00275161,0.317,1.06116
77.259,14.098,0.00275,0.32057,1.06085
77.859,14.1605,0.00274985,0.32381,1.06054
78.459,14.2225,0.00142371,0.32904,1.06023
79.059,14.28481,0.001383411,0.33099,1.05992
79.659,14.3471,0.001556951,0.33532,1.05961
80.259,14.4093,0.001429655,0.33863,1.0593
80.859,14.47115,0.0001276219,0.34288,1.05899
81.459,14.53285,0.0001193275,0.34551,1.05868
82.059,14.59454,-0.0008862878,0.34704,1.05837
82.659,14.65591,-0.0008700049,0.35341,1.05806
83.259,14.7173,-0.000869828,0.35394,1.05775
83.859,14.77863,-0.001206181,0.3548,1.05744
84.459,14.83985,-0.001208433,0.35959,1.05713
85.059,14.901,-0.001214878,0.36326,1.05682
85.659,14.9621,-0.00218831,0.36461,1.05651
86.259,15.02304,-0.002168507,0.36493,1.0562
86.859,15.0838,-0.00251737,0.36826,1.05589
87.459,15.1446,-0.003828012,0.36937,1.05558
88.059,15.2049,-0.005155906,0.37018,1.05527
88.659,15.26557,-0.00567708,0.37202,1.05496
89.259,15.32608,-0.0064601,0.37405,1.05466
89.859,15.3867,-0.005657874,0.37496,1.05435
90.459,15.44692,-0.00561351,0.37459,1.05404
91.059,15.50714,-0.00680029,0.37635,1.05373
91.659,15.56669,-0.0068,0.37534,1.05342
92.259,15.6267,-0.00679317,0.37546,1.05311
92.859,15.68645,-0.008118726,0.37616,1.0528
93.459,15.7467,-0.008120131,0.37723,1.05249
94.059,15.8068,-0.00877837,0.37726,1.05219
94.659,15.8664,-0.01074557,0.37683,1.05188
95.259,15.92617,-0.00961563,0.37754,1.05157
95.859,15.9855,-0.009429571,0.37678,1.05126
96.459,16.04503,-0.01072556,0.37602,1.05095
97.059,16.1048,-0.01074999,0.37786,1.05064
97.659,16.1644,-0.01074682,0.37648,1.05034
98.259,16.22379,-0.01205572,0.37651,1.05003
98.859,16.28306,-0.01207,0.37659,1.04972
99.459,16.34215,-0.01207,0.37516,1.04941
100.059,16.40142,-0.01207744,0.37512,1.0491
100.659,16.46045,-0.01305023,0.37498,1.04879
101.259,16.51959,-0.01338007,0.37405,1.04849
101.859,16.57875,-0.01470161,0.37248,1.04818
102.459,16.63812,-0.01601152,0.37339,1.04787
103.059,16.69727,-0.01481973,0.37188,1.04756
103.659,16.75617,-0.01470201,0.37431,1.04726
104.259,16.81478,-0.0160166,0.37406,1.04695
104.859,16.87379,-0.01600524,0.37269,1.04664
105.459,16.9324,-0.0176501,0.37195,1.04633
106.059,16.99129,-0.01766,0.37273,1.04603
106.659,17.0501,-0.01766,0.37128,1.04572
107.259,17.10878,-0.01769,0.37073,1.04541
107.859,17.1675,-0.01634048,0.37002,1.0451
108.459,17.22617,-0.01627055,0.36747,1.0448
109.059,17.285,-0.01864797,0.36892,1.04449
109.659,17.34379,-0.01865137,0.36812,1.04418
110.259,17.40233,-0.01996712,0.36973,1.04387
110.859,17.46084,-0.01995465,0.36776,1.04357
111.459,17.5195,-0.02028994,0.3664,1.04326
112.059,17.57818,-0.02031018,0.36439,1.04295
112.659,17.63721,-0.02031198,0.36579,1.04265
113.259,17.69598,-0.02029001,0.36425,1.04234
113.859,17.75453,-0.02029,0.36494,1.04203
114.459,17.8131,-0.02029109,0.36249,1.04173
115.059,17.87161,-0.02161491,0.35998,1.04142
115.659,17.9302,-0.02161,0.36061,1.04111
116.259,17.98882,-0.02160969,0.35711,1.04081
116.859,18.0474,-0.02265457,0.35723,1.0405
117.459,18.10578,-0.02260003,0.35589,1.04019
118.059,18.16442,-0.02260001,0.35312,1.03989
118.659,18.2231,-0.02261605,0.35465,1.03958
119.259,18.28193,-0.02390962,0.35449,1.03927
119.859,18.34045,-0.02328601,0.35229,1.03897
120.459,18.39927,-0.02391002,0.3499,1.03866
121.059,18.45785,-0.02506729,0.34941,1.03836
121.659,18.5167,-0.0252281,0.34825,1.03805
122.259,18.57537,-0.02390366,0.34524,1.03774
122.859,18.63397,-0.0239095,0.34348,1.03744
123.459,18.69268,-0.0237842,0.34167,1.03713
124.059,18.751,-0.02389993,0.34094,1.03683
124.659,18.80954,-0.02452155,0.33701,1.03652
125.259,18.86801,-0.02522011,0.33654,1.03621
125.859,18.9263,-0.02522,0.33373,1.03591
126.459,18.9847,-0.0252137,0.33132,1.0356
127.059,19.04305,-0.02653822,0.32924,1.0353
127.659,19.1013,-0.02654,0.32795,1.03499
128.259,19.15952,-0.02654,0.32667,1.03469
128.859,19.21811,-0.02654003,0.32548,1.03438
129.459,19.27649,-0.02663606,0.32362,1.03408
130.059,19.33525,-0.02525494,0.3232,1.03377
130.659,19.39356,-0.02654051,0.3228,1.03346
131.259,19.45195,-0.02654,0.31995,1.03316
131.859,19.51022,-0.02654,0.32016,1.03285
132.459,19.56855,-0.02654,0.31806,1.03255
133.059,19.62673,-0.02653998,0.31801,1.03224
133.659,19.6849,-0.0264919,0.31918,1.03194
134.259,19.74295,-0.02786207,0.318,1.03163
134.859,19.8009,-0.02719762,0.31779,1.03133
135.459,19.85886,-0.02720003,0.31669,1.03102
136.059,19.9168,-0.02743459,0.31824,1.03072
136.659,19.97498,-0.02752995,0.31913,1.03041
137.259,20.033,-0.02752958,0.31874,1.03011
137.859,20.09086,-0.02718948,0.31789,1.0298
138.459,20.14868,-0.02655012,0.31975,1.0295
139.059,20.2066,-0.02654999,0.31863,1.02919
139.659,20.26452,-0.02652023,0.31885,1.02889
140.259,20.32229,-0.02614837,0.3189,1.02858
140.859,20.3801,-0.02621357,0.3186,1.02828
141.459,20.4378,-0.02618078,0.31977,1.02798
142.059,20.49571,-0.02686202,0.31716,1.02767
142.659,20.55333,-0.02676887,0.31979,1.02737
143.259,20.61129,-0.02654004,0.3214,1.02706
143.859,20.669,-0.02652231,0.32268,1.02676
144.459,20.72625,-0.02726466,0.32012,1.02645
145.059,20.78404,-0.026554,0.32249,1.02615
145.659,20.84163,-0.02654,0.32237,1.02584
146.259,20.8994,-0.02654,0.32222,1.02554
146.859,20.95776,-0.02654,0.32402,1.02524
147.459,21.01538,-0.02654097,0.32452,1.02493
148.059,21.07306,-0.02789927,0.32291,1.02463
148.659,21.13065,-0.02785001,0.32404,1.02432
149.259,21.18805,-0.02785039,0.32561,1.02402
149.859,21.24569,-0.02658995,0.32732,1.02372
150.459,21.3033,-0.02791196,0.32561,1.02341
151.059,21.361,-0.02920651,0.32886,1.02311
151.659,21.4187,-0.0277453,0.33126,1.0228
152.259,21.47634,-0.02774999,0.32835,1.0225
152.859,21.53422,-0.02774849,0.32906,1.0222
153.459,21.5917,-0.02642474,0.33085,1.02189
154.059,21.64948,-0.02643,0.33063,1.02159
154.659,21.7069,-0.02643,0.32945,1.02128
155.259,21.7645,-0.02643042,0.33091,1.02098
155.859,21.8221,-0.02705363,0.32954,1.02068
156.459,21.87987,-0.02676,0.3302,1.02037
157.059,21.93758,-0.02675381,0.3328,1.02007
157.659,21.9953,-0.02806833,0.33202,1.01977
158.259,22.05315,-0.02807,0.33206,1.01946
158.859,22.1107,-0.02807023,0.33413,1.01916
159.459,22.1687,-0.02938385,0.3319,1.01886
160.059,22.22639,-0.02832158,0.33518,1.01855
160.659,22.28419,-0.02808508,0.33529,1.01825
161.259,22.34204,-0.02676154,0.33678,1.01795
161.859,22.3997,-0.02676035,0.33584,1.01764
162.459,22.45733,-0.02879894,0.33521,1.01734
163.059,22.51497,-0.02854589,0.33782,1.01704
163.659,22.57266,-0.02808012,0.33612,1.01673
164.259,22.63032,-0.02808,0.33606,1.01643
164.859,22.68794,-0.02807846,0.3362,1.01613
165.459,22.74575,-0.02675433,0.33657,1.01582
166.059,22.80359,-0.02689546,0.33534,1.01552
166.659,22.86174,-0.02938945,0.33603,1.01522
167.259,22.91943,-0.02939,0.33699,1.01491
167.859,22.9772,-0.02938927,0.3369,1.01461
168.459,23.03505,-0.02976521,0.33972,1.01431
169.059,23.0927,-0.03010703,0.33749,1.014
169.659,23.1505,-0.02906065,0.33966,1.0137
170.259,23.2082,-0.02939079,0.34199,1.0134
170.859,23.26585,-0.02800149,0.34086,1.0131
171.459,23.3235,-0.02810003,0.3422,1.01279
172.059,23.38096,-0.02913181,0.34178,1.01249
172.659,23.43856,-0.03038029,0.34521,1.01219
173.259,23.49609,-0.0290902,0.34613,1.01188
173.859,23.55358,-0.02907001,0.34763,1.01158
174.459,23.6111,-0.02907,0.3495,1.01128
175.059,23.6688,-0.02906989,0.35079,1.01098
175.659,23.72626,-0.02942628,0.35114,1.01067
176.259,23.78375,-0.0294,0.35036,1.01037
176.859,23.84121,-0.02939231,0.35071,1.01007
177.459,23.89871,-0.02873987,0.3517,1.00977
178.059,23.95632,-0.02939139,0.35194,1.00946
178.659,24.014,-0.0293896,0.35221,1.00916
179.259,24.07131,-0.03047733,0.35477,1.00886
179.859,24.1287,-0.03071001,0.3551,1.00855
180.459,24.18609,-0.03071,0.35344,1.00825
181.059,24.24331,-0.03071,0.35489,1.00795
181.659,24.30076,-0.03071,0.35765,1.00765
182.259,24.3582,-0.03071285,0.35877,1.00734
182.859,24.4156,-0.02940198,0.35639,1.00704
183.459,24.4729,-0.02939067,0.35737,1.00674
184.059,24.53005,-0.03037946,0.35764,1.00644
184.659,24.58727,-0.03005032,0.35999,1.00613
185.259,24.64463,-0.02870908,0.3591,1.00583
185.859,24.702,-0.03004921,0.36168,1.00553
186.459,24.75923,-0.03005,0.35954,1.00523
187.059,24.81651,-0.03005,0.36272,1.00493
187.659,24.87376,-0.0300485,0.36427,1.00462
188.259,24.93114,-0.03107404,0.36428,1.00432
188.859,24.9884,-0.03003409,0.3648,1.00402
189.459,25.0457,-0.03007582,0.365,1.00372
190.059,25.10289,-0.03047427,0.36534,1.00341
190.659,25.16,-0.03005014,0.3656,1.00311
191.259,25.21729,-0.03007548,0.3658,1.00281
191.859,25.2746,-0.03010606,0.36721,1.00251
192.459,25.33185,-0.03136038,0.36577,1.0022
193.059,25.38874,-0.03136,0.36541,1.0019
193.659,25.44598,-0.03136,0.3664,1.0016
194.259,25.5034,-0.03136,0.36644,1.0013
194.859,25.56103,-0.03135825,0.36482,1.00099
195.459,25.6189,-0.03102951,0.36731,1.00069
196.059,25.6765,-0.03112802,0.37018,1.00039
196.659,25.734,-0.03136178,0.36875,1.00009
197.259,25.79125,-0.03268053,0.37134,0.99979
197.859,25.84848,-0.03136761,0.3717,0.99948
198.459,25.90575,-0.03263149,0.37204,0.99918
199.059,25.9631,-0.03397477,0.37221,0.99888
199.659,26.02058,-0.03400167,0.37497,0.99858
200.259,26.07796,-0.03301829,0.37249,0.99827
200.859,26.13552,-0.03301753,0.37526,0.99797
201.459,26.19298,-0.03335246,0.37609,0.99767
202.059,26.2504,-0.03335114,0.37532,0.99737
202.659,26.3081,-0.03432833,0.37707,0.99706
203.259,26.3655,-0.03435794,0.37896,0.99676
203.859,26.42275,-0.03530803,0.37707,0.99646
204.459,26.4801,-0.0353094,0.37537,0.99616
205.059,26.53762,-0.03433056,0.38046,0.99586
205.659,26.59507,-0.03433011,0.37983,0.99555
206.259,26.6527,-0.03573133,0.38036,0.99525
206.859,26.71007,-0.0349908,0.38056,0.99495
207.459,26.7673,-0.03498999,0.38209,0.99465
208.059,26.82481,-0.03499,0.38372,0.99434
208.659,26.88219,-0.03498989,0.3842,0.99404
209.259,26.93944,-0.03560328,0.38674,0.99374
209.859,26.99667,-0.03631018,0.38762,0.99344
210.459,27.0537,-0.03631,0.38913,0.99314
211.059,27.1109,-0.0363103,0.38813,0.99283
211.659,27.16801,-0.03760713,0.38771,0.99253
212.259,27.22539,-0.03761999,0.39269,0.99223
212.859,27.2828,-0.03762004,0.38979,0.99193
213.459,27.3399,-0.03761693,0.39362,0.99162
214.059,27.3972,-0.03892945,0.39504,0.99132
214.659,27.45425,-0.03892997,0.39306,0.99102
215.259,27.51145,-0.03939681,0.39264,0.99072
215.859,27.5686,-0.04090835,0.39573,0.99041
216.459,27.6258,-0.04091,0.39581,0.99011
217.059,27.68313,-0.04091,0.39703,0.98981
217.659,27.7404,-0.04091,0.39753,0.98951
218.259,27.7977,-0.04091613,0.39898,0.9892
218.859,27.85509,-0.04157173,0.39694,0.9889
219.459,27.9124,-0.04156666,0.39792,0.9886
220.059,27.9695,-0.04288058,0.40028,0.9883
220.659,28.0267,-0.04287951,0.39909,0.98799
221.259,28.0838,-0.0440945,0.40145,0.98769
221.859,28.14098,-0.04419751,0.4025,0.98739
222.459,28.1983,-0.04288601,0.40325,0.98709
223.059,28.25527,-0.04420622,0.40525,0.98678
223.659,28.3124,-0.04421224,0.40714,0.98648
224.259,28.3694,-0.0455199,0.40831,0.98618
224.859,28.42628,-0.04657217,0.40944,0.98588
225.459,28.483,-0.04749088,0.40924,0.98557
226.059,28.53987,-0.04880202,0.41096,0.98527
226.659,28.59702,-0.04880719,0.41342,0.98497
227.259,28.65441,-0.04749177,0.41384,0.98467
227.859,28.71193,-0.04746349,0.4168,0.98436
228.459,28.7692,-0.04874582,0.41358,0.98406
229.059,28.8265,-0.04947154,0.41371,0.98376
229.659,28.88358,-0.05199314,0.41692,0.98345
230.259,28.9408,-0.0521,0.41793,0.98315
230.859,28.99785,-0.0521,0.41851,0.98285
231.459,29.0548,-0.05210006,0.4197,0.98255
232.059,29.112,-0.05217691,0.42215,0.98224
232.659,29.1688,-0.05340148,0.42241,0.98194
233.259,29.22597,-0.05572389,0.42186,0.98164
233.859,29.28312,-0.05690344,0.42215,0.98133
234.459,29.34058,-0.05702481,0.42333,0.98103
235.059,29.398,-0.05835141,0.42314,0.98073
235.659,29.45519,-0.05837567,0.42305,0.98042
236.259,29.5125,-0.05858402,0.42232,0.98012
236.859,29.5698,-0.05867955,0.42426,0.97982
237.459,29.62701,-0.0612765,0.42333,0.97951
238.059,29.6839,-0.06229009,0.42474,0.97921
238.659,29.741,-0.06262872,0.42662,0.97891
239.259,29.7983,-0.06395225,0.42704,0.9786
239.859,29.85567,-0.06534141,0.42909,0.9783
240.459,29.91341,-0.06526004,0.4305,0.978
241.059,29.9707,-0.06526173,0.43157,0.97769
241.659,30.02784,-0.06765328,0.43102,0.97739
242.259,30.08507,-0.06918815,0.43239,0.97709
242.859,30.14255,-0.0692402,0.4365,0.97678
243.459,30.19985,-0.06920968,0.43532,0.97648
244.059,30.25746,-0.07068516,0.43596,0.97618
244.659,30.3146,-0.07316718,0.43666,0.97587
245.259,30.3718,-0.07329238,0.43667,0.97557
245.859,30.42912,-0.07600094,0.43783,0.97527
246.459,30.48644,-0.07729704,0.43866,0.97496
247.059,30.54373,-0.07734936,0.44078,0.97466
247.659,30.6011,-0.07865016,0.44021,0.97435
248.259,30.6585,-0.07949197,0.44027,0.97405
248.859,30.71583,-0.08128657,0.44189,0.97375
249.459,30.77304,-0.08265844,0.44185,0.97344
250.059,30.83033,-0.08457081,0.44032,0.97314
250.659,30.8873,-0.08588147,0.44195,0.97283
251.259,30.94456,-0.08723365,0.44034,0.97253
251.859,31.0019,-0.08839483,0.44112,0.97223
252.459,31.05903,-0.09148424,0.4425,0.97192
253.059,31.1163,-0.09385463,0.43916,0.97162
253.659,31.17363,-0.09509825,0.44167,0.97131
254.259,31.2309,-0.09641197,0.44284,0.97101
254.859,31.28841,-0.09772729,0.44376,0.9707
255.459,31.34585,-0.09934039,0.44372,0.9704
256.059,31.4031,-0.10197,0.44531,0.97009
256.659,31.46054,-0.10463,0.44406,0.96979
257.259,31.5179,-0.10674,0.44479,0.96948
257.859,31.57538,-0.10878,0.44438,0.96918
258.459,31.6326,-0.11155,0.4437,0.96888
259.059,31.6899,-0.11319,0.44669,0.96857
259.659,31.7473,-0.1161,0.44768,0.96827
260.259,31.80463,-0.11626,0.44744,0.96796
260.859,31.8623,-0.11943,0.44998,0.96766
261.459,31.91967,-0.1215,0.44919,0.96735
262.059,31.97699,-0.12516,0.44868,0.96705
262.659,32.0343,-0.12837,0.45018,0.96674
263.259,32.0915,-0.13207,0.4511,0.96643
263.859,32.1487,-0.1339,0.4532,0.96613
264.459,32.20582,-0.13636,0.45465,0.96582
265.059,32.2633,-0.13909,0.45545,0.96552
265.659,32.32065,-0.14192,0.45555,0.96521
266.259,32.37782,-0.14608,0.46008,0.96491
266.859,32.43531,-0.14884,0.46254,0.9646
267.459,32.49257,-0.15212,0.46109,0.9643
268.059,32.5501,-0.15564,0.4633,0.96399
268.659,32.60785,-0.15759,0.46613,0.96368
269.259,32.66525,-0.16182,0.46759,0.96338
269.859,32.72289,-0.16546,0.46992,0.96307
270.459,32.7803,-0.16991,0.47097,0.96277
271.059,32.8378,-0.17186,0.47186,0.96246
271.659,32.8952,-0.17678,0.47445,0.96215
272.259,32.9526,-0.18066,0.47355,0.96185
272.859,33.01014,-0.18383,0.47863,0.96154
273.459,33.06773,-0.18787,0.4786,0.96124
274.059,33.12527,-0.19161,0.48271,0.96093
274.659,33.18277,-0.19611,0.48224,0.96062
275.259,33.23985,-0.20181,0.48411,0.96032
275.859,33.29733,-0.20484,0.48558,0.96001
276.459,33.35499,-0.20981,0.49013,0.9597
277.059,33.4124,-0.21377,0.48979,0.9594
277.659,33.47018,-0.2196,0.49343,0.95909
278.259,33.5276,-0.22445,0.49681,0.95878
278.859,33.58481,-0.22893,0.49773,0.95847
279.459,33.6424,-0.23415,0.50182,0.95817
280.059,33.6997,-0.24052,0.50356,0.95786
280.659,33.75697,-0.2457,0.50499,0.95755
281.259,33.81463,-0.25127,0.50731,0.95725
281.859,33.87195,-0.25627,0.51143,0.95694
282.459,33.9298,-0.26181,0.51247,0.95663
283.059,33.98735,-0.26732,0.51316,0.95632
283.659,34.04477,-0.2733,0.51506,0.95601
284.259,34.10218,-0.27833,0.51757,0.95571
284.859,34.1595,-0.28534,0.52046,0.9554
285.459,34.2169,-0.29176,0.52408,0.95509
286.059,34.27426,-0.29738,0.52651,0.95478
286.659,34.33173,-0.303,0.53145,0.95447
287.259,34.3893,-0.31045,0.53331,0.95417
287.859,34.44699,-0.31737,0.53526,0.95386
288.459,34.50466,-0.32548,0.53691,0.95355
289.059,34.56214,-0.33245,0.53772,0.95324
289.659,34.61963,-0.33986,0.54143,0.95293
290.259,34.67708,-0.346,0.5433,0.95262
290.859,34.73452,-0.35395,0.54708,0.95232
291.459,34.7922,-0.36043,0.54946,0.95201
292.059,34.84963,-0.36925,0.5518,0.9517
292.659,34.90724,-0.37713,0.55467,0.95139
293.259,34.96481,-0.38427,0.55795,0.95108
293.859,35.02228,-0.39128,0.5586,0.95077
294.459,35.0798,-0.39911,0.56306,0.95046
295.059,35.13718,-0.40796,0.56583,0.95015
295.659,35.19435,-0.41729,0.56711,0.94984
296.259,35.2515,-0.42543,0.57111,0.94953
296.859,35.3087,-0.43271,0.573,0.94922
297.459,35.36611,-0.44045,0.57651,0.94891
298.059,35.42353,-0.45191,0.57803,0.9486
298.659,35.481,-0.46113,0.57788,0.94829
299.259,35.53842,-0.46938,0.58148,0.94798
299.859,35.59599,-0.47931,0.58321,0.94767
300.459,35.6541,-0.49009,0.58413,0.94736
301.059,35.71226,-0.49928,0.58685,0.94705
301.659,35.7703,-0.50901,0.58707,0.94674
302.259,35.82817,-0.51989,0.59049,0.94643
302.859,35.88568,-0.52809,0.59349,0.94612
303.459,35.94331,-0.54025,0.59665,0.94581
304.059,36.00092,-0.55113,0.60214,0.9455
304.659,36.0587,-0.56003,0.60419,0.94519
305.259,36.1164,-0.57003,0.60841,0.94487
305.859,36.17399,-0.58147,0.61343,0.94456
306.459,36.23173,-0.5928,0.61751,0.94425
307.059,36.28921,-0.60255,0.61891,0.94394
307.659,36.34685,-0.61518,0.62335,0.94363
308.259,36.4043,-0.6259,0.6278,0.94332
308.859,36.46213,-0.63664,0.63154,0.94301
309.459,36.51977,-0.64797,0.63536,0.94269
310.059,36.5774,-0.66104,0.64114,0.94238
310.659,36.6349,-0.67298,0.64426,0.94207
311.259,36.69256,-0.68551,0.64645,0.94176
311.859,36.75027,-0.69787,0.65116,0.94144
312.459,36.808,-0.70972,0.65507,0.94113
313.059,36.86594,-0.72209,0.65797,0.94082
313.659,36.9238,-0.73554,0.65979,0.94051
314.259,36.98172,-0.74837,0.66456,0.94019
314.859,37.03952,-0.76044,0.66877,0.93988
315.459,37.09727,-0.77402,0.67245,0.93957
316.059,37.15506,-0.78814,0.67348,0.93925
316.659,37.2127,-0.80107,0.67735,0.93894
317.259,37.27063,-0.8151,0.67928,0.93863
317.859,37.32862,-0.82804,0.68403,0.93831
318.459,37.38644,-0.84174,0.68654,0.938
319.059,37.44455,-0.85539,0.68939,0.93768
319.659,37.50244,-0.86998,0.69427,0.93737
320.259,37.56017,-0.88311,0.69695,0.93706
320.859,37.61809,-0.8982,0.70015,0.93674
321.459,37.67592,-0.91329,0.70408,0.93643
322.059,37.73363,-0.92761,0.7058,0.93611
322.659,37.79168,-0.94361,0.70894,0.9358
323.259,37.84964,-0.95682,0.71377,0.93548
323.859,37.90761,-0.97323,0.71634,0.93517
324.459,37.96577,-0.98851,0.72102,0.93485
325.059,38.02365,-1.0043,0.7248,0.93454
325.659,38.0815,-1.02118,0.72893,0.93422
326.259,38.13923,-1.03618,0.73341,0.93391
326.859,38.19709,-1.05217,0.73923,0.93359
327.459,38.25496,-1.06934,0.74365,0.93328
328.059,38.31286,-1.08425,0.74741,0.93296
328.659,38.37073,-1.102,0.75165,0.93264
329.259,38.42858,-1.11965,0.75341,0.93233
329.859,38.48657,-1.13588,0.75995,0.93201
330.459,38.54477,-1.15403,0.7649,0.9317
331.059,38.60306,-1.17057,0.76809,0.93138
331.659,38.66117,-1.18919,0.77111,0.93106
332.259,38.7192,-1.20668,0.77732,0.93075
332.859,38.77697,-1.22447,0.78124,0.93043
333.459,38.8349,-1.24373,0.78707,0.93011
334.059,38.893,-1.26302,0.79161,0.92979
334.659,38.9512,-1.28137,0.79554,0.92948
335.259,39.00943,-1.30034,0.80338,0.92916
335.859,39.06766,-1.32169,0.80681,0.92884
336.459,39.12591,-1.3416,0.81277,0.92852
337.059,39.18408,-1.36204,0.82006,0.92821
337.659,39.24243,-1.38106,0.82356,0.92789
338.259,39.30068,-1.40097,0.83247,0.92757
338.859,39.35888,-1.42198,0.83994,0.92725
339.459,39.41718,-1.4438,0.84371,0.92693
340.059,39.47522,-1.46453,0.84915,0.92661
340.659,39.53345,-1.48559,0.85826,0.92629
341.259,39.5917,-1.50885,0.86022,0.92598
341.859,39.64985,-1.53049,0.86868,0.92566
342.459,39.7082,-1.55448,0.87374,0.92534
343.059,39.76637,-1.57651,0.88107,0.92502
343.659,39.82436,-1.5987,0.8889,0.9247
344.259,39.8822,-1.62202,0.89496,0.92438
344.859,39.94017,-1.64548,0.90236,0.92406
345.459,39.99838,-1.6694,0.90682,0.92374
346.059,40.05669,-1.69493,0.91224,0.92342
346.659,40.11477,-1.71917,0.91935,0.9231
347.259,40.17286,-1.7413,0.92471,0.92278
347.859,40.2309,-1.76844,0.92866,0.92246
348.459,40.28889,-1.79379,0.93482,0.92213
349.059,40.34688,-1.81974,0.93789,0.92181
349.659,40.40497,-1.84451,0.94199,0.92149
350.259,40.46289,-1.87102,0.9474,0.92117
350.859,40.52061,-1.89471,0.95127,0.92085
351.459,40.57802,-1.92139,0.95054,0.92053
352.059,40.63548,-1.94738,0.9514,0.92021
352.659,40.6933,-1.97327,0.95276,0.91988
353.259,40.7516,-2.00081,0.9535,0.91956
353.859,40.8099,-2.02631,0.95138,0.91924
354.459,40.86799,-2.05425,0.94988,0.91892
355.059,40.92603,-2.07952,0.94621,0.91859
355.659,40.98402,-2.10581,0.93872,0.91827
356.259,41.04206,-2.13124,0.93368,0.91795
356.859,41.10009,-2.15724,0.92732,0.91762
357.459,41.15806,-2.18341,0.91614,0.9173
358.059,41.21608,-2.20826,0.90754,0.91698
358.659,41.2742,-2.2343,0.89415,0.91665
359.259,41.33245,-2.25819,0.88353,0.91633
359.859,41.39066,-2.28239,0.86736,0.91601
360.459,41.44867,-2.30688,0.85193,0.91568
361.059,41.50657,-2.32907,0.83327,0.91536
361.659,41.56433,-2.35233,0.81355,0.91503
362.259,41.62239,-2.3742,0.79388,0.91471
362.859,41.68036,-2.39499,0.77382,0.91438
363.459,41.73816,-2.41538,0.74932,0.91406
364.059,41.79611,-2.4364,0.72659,0.91373
364.659,41.85417,-2.45569,0.70167,0.91341
365.259,41.91216,-2.47406,0.67522,0.91308
365.859,41.97084,-2.48956,0.64919,0.91275
366.459,42.0289,-2.50785,0.62571,0.91243
367.059,42.0869,-2.52302,0.59892,0.9121
367.659,42.1448,-2.53706,0.57227,0.91178
368.259,42.20255,-2.55146,0.546,0.91145
368.859,42.26051,-2.56423,0.51878,0.91112
369.459,42.31842,-2.57521,0.49363,0.91079
370.059,42.37631,-2.58846,0.46798,0.91047
370.659,42.4343,-2.59846,0.44405,0.91014
371.259,42.4923,-2.60544,0.42012,0.90981
371.859,42.55049,-2.61378,0.394,0.90949
372.459,42.60882,-2.62231,0.37544,0.90916
373.059,42.66702,-2.63007,0.35566,0.90883
373.659,42.72527,-2.63678,0.33817,0.9085
374.259,42.78354,-2.64374,0.31773,0.90817
374.859,42.84182,-2.64817,0.30411,0.90784
375.459,42.90025,-2.65288,0.29165,0.90751
376.059,42.9585,-2.65732,0.27812,0.90719
376.659,43.0167,-2.66183,0.2672,0.90686
377.259,43.07516,-2.66577,0.25535,0.90653
377.859,43.13363,-2.6689,0.24791,0.9062
378.459,43.1922,-2.67227,0.23833,0.90587
379.059,43.25076,-2.67538,0.23385,0.90554
379.659,43.3091,-2.6785,0.22992,0.90521
380.259,43.36769,-2.68122,0.22406,0.90488
380.859,43.42633,-2.68458,0.21964,0.90455
381.459,43.48505,-2.68677,0.21525,0.90422
382.059,43.54379,-2.6899,0.21248,0.90388
382.659,43.60241,-2.69109,0.21024,0.90355
383.259,43.66083,-2.69413,0.20639,0.90322
383.859,43.71922,-2.6941,0.19948,0.90289
384.459,43.77773,-2.6961,0.20032,0.90256
385.059,43.8364,-2.6984,0.19727,0.90223
385.659,43.89504,-2.69998,0.19989,0.90189
386.259,43.9538,-2.70199,0.19633,0.90156
386.859,44.0122,-2.70365,0.19282,0.90123
387.459,44.0706,-2.70508,0.19395,0.9009
388.059,44.12898,-2.70764,0.1883,0.90056
388.659,44.1875,-2.709,0.1901,0.90023
389.259,44.24601,-2.71198,0.18806,0.8999
389.859,44.3044,-2.71445,0.18648,0.89956
390.459,44.36273,-2.71577,0.18661,0.89923
391.059,44.4211,-2.71715,0.1864,0.89889
391.659,44.4796,-2.71843,0.18384,0.89856
392.259,44.53779,-2.71907,0.1827,0.89823
392.859,44.59622,-2.72095,0.18132,0.89789
393.459,44.65467,-2.72263,0.1811,0.89756
394.059,44.71337,-2.72456,0.18124,0.89722
394.659,44.77193,-2.72685,0.18107,0.89689
395.259,44.8303,-2.72877,0.17867,0.89655
395.859,44.88851,-2.73086,0.18054,0.89621
396.459,44.9469,-2.73212,0.18049,0.89588
397.059,45.00516,-2.73446,0.17887,0.89554
397.659,45.06355,-2.73634,0.18062,0.89521
398.259,45.12175,-2.73765,0.17687,0.89487
398.859,45.17987,-2.73897,0.17838,0.89453
399.459,45.23812,-2.74028,0.17969,0.8942
400.059,45.29635,-2.74151,0.17722,0.89386
400.659,45.35453,-2.74393,0.17732,0.89352
401.259,45.41256,-2.7455,0.17667,0.89318
401.859,45.47074,-2.74669,0.17806,0.89284
402.459,45.52912,-2.74922,0.17486,0.89251
403.059,45.5875,-2.75062,0.17715,0.89217
403.659,45.64584,-2.7519,0.17599,0.89183
404.259,45.70413,-2.75393,0.17374,0.89149
404.859,45.7625,-2.75673,0.17347,0.89115
405.459,45.8208,-2.75788,0.17564,0.89081
406.059,45.8792,-2.75793,0.17459,0.89047
406.659,45.9377,-2.76053,0.17349,0.89013
407.259,45.9962,-2.76243,0.17227,0.88979
407.859,46.05473,-2.76378,0.17329,0.88945
408.459,46.11331,-2.76717,0.17259,0.88911
409.059,46.17185,-2.76873,0.17248,0.88877
409.659,46.23036,-2.76999,0.17067,0.88843
410.259,46.28863,-2.77001,0.17128,0.88809
410.859,46.34717,-2.77136,0.17307,0.88775
411.459,46.4055,-2.77268,0.17315,0.88741
412.059,46.46412,-2.77526,0.17188,0.88706
412.659,46.5229,-2.77661,0.17039,0.88672
413.259,46.58164,-2.77789,0.17316,0.88638
413.859,46.64065,-2.77926,0.17309,0.88604
414.459,46.6993,-2.78207,0.17285,0.8857
415.059,46.7579,-2.7844,0.17103,0.88535
415.659,46.81678,-2.78484,0.17001,0.88501
416.259,46.87557,-2.78632,0.17104,0.88467
416.859,46.93463,-2.78755,0.1692,0.88432
417.459,46.99344,-2.78902,0.1705,0.88398
418.059,47.05229,-2.79175,0.17174,0.88363
418.659,47.111,-2.79304,0.17046,0.88329
419.259,47.1699,-2.79448,0.1726,0.88294
419.859,47.22868,-2.79666,0.17228,0.8826
420.459,47.2874,-2.79808,0.17406,0.88225
421.059,47.3461,-2.79948,0.17494,0.88191
421.659,47.40486,-2.79946,0.1743,0.88156
422.259,47.46363,-2.80076,0.1744,0.88122
422.859,47.52235,-2.80279,0.17769,0.88087
423.459,47.5811,-2.80402,0.1754,0.88053
424.059,47.63994,-2.80533,0.17657,0.88018
424.659,47.6986,-2.8076,0.17878,0.87983
425.259,47.75756,-2.80949,0.17906,0.87949
425.859,47.81627,-2.81064,0.17537,0.87914
426.459,47.8747,-2.81222,0.17859,0.87879
427.059,47.93363,-2.81337,0.17779,0.87844
427.659,47.99241,-2.81591,0.1793,0.87809
428.259,48.05175,-2.8174,0.18182,0.87775
428.859,48.1109,-2.81746,0.17981,0.8774
429.459,48.1697,-2.81803,0.18246,0.87705
430.059,48.22833,-2.82093,0.18335,0.8767
430.659,48.2868,-2.82207,0.18029,0.87635
431.259,48.3459,-2.82507,0.18454,0.876
431.859,48.4049,-2.82634,0.18253,0.87565
432.459,48.46431,-2.82469,0.18431,0.8753
433.059,48.52362,-2.82598,0.18772,0.87495
433.659,48.5824,-2.82782,0.18656,0.8746
434.259,48.64147,-2.82892,0.1903,0.87425
434.859,48.70046,-2.83055,0.19209,0.8739
435.459,48.75956,-2.83298,0.18978,0.87355
436.059,48.81838,-2.83429,0.19028,0.8732
436.659,48.87741,-2.8356,0.19222,0.87284
437.259,48.93611,-2.83588,0.19559,0.87249
437.859,48.9951,-2.83724,0.19668,0.87214
438.459,49.054,-2.83858,0.19733,0.87179
439.059,49.11299,-2.84037,0.19618,0.87143
439.659,49.17219,-2.8412,0.19553,0.87108
440.259,49.2314,-2.844,0.19942,0.87073
440.859,49.29047,-2.84525,0.19705,0.87037
441.459,49.34952,-2.84554,0.19881,0.87002
442.059,49.4086,-2.84651,0.20027,0.86967
442.659,49.4677,-2.8479,0.2009,0.86931
443.259,49.52684,-2.8481,0.20282,0.86896
443.859,49.5862,-2.84944,0.20139,0.8686
444.459,49.64539,-2.85186,0.20265,0.86825
445.059,49.70443,-2.85306,0.2045,0.86789
445.659,49.76359,-2.85415,0.20547,0.86754
446.259,49.82278,-2.85546,0.20437,0.86718
446.859,49.88213,-2.85698,0.20306,0.86682
447.459,49.94129,-2.85818,0.2077,0.86647
448.059,50.00047,-2.85821,0.21022,0.86611
448.659,50.05956,-2.8609,0.21035,0.86575
449.259,50.11878,-2.8638,0.21172,0.8654
449.859,50.17808,-2.86379,0.20996,0.86504
450.459,50.23715,-2.86644,0.21021,0.86468
451.059,50.2961,-2.86774,0.21415,0.86432
451.659,50.35499,-2.86907,0.21377,0.86396
452.259,50.414,-2.86885,0.21316,0.8636
452.859,50.47305,-2.87037,0.2137,0.86325
453.459,50.53219,-2.8715,0.21553,0.86289
454.059,50.59129,-2.87245,0.21629,0.86253
454.659,50.65034,-2.87378,0.21531,0.86217
455.259,50.70924,-2.87376,0.21798,0.86181
455.859,50.76807,-2.87509,0.21976,0.86145
456.459,50.82683,-2.87627,0.22086,0.86109
457.059,50.88568,-2.87631,0.21972,0.86073
457.659,50.94466,-2.87775,0.21789,0.86036
458.259,51.0036,-2.87904,0.21892,0.86
458.859,51.0624,-2.88045,0.22096,0.85964
459.459,51.12113,-2.88036,0.22196,0.85928
460.059,51.18007,-2.88168,0.22252,0.85892
460.659,51.23878,-2.88301,0.22363,0.85855
461.259,51.29757,-2.88431,0.22335,0.85819
461.859,51.35626,-2.88431,0.22172,0.85783
462.459,51.41503,-2.88629,0.22399,0.85747
463.059,51.47402,-2.88802,0.22365,0.8571
463.659,51.53286,-2.88857,0.22341,0.85674
464.259,51.5917,-2.88793,0.22513,0.85637
464.859,51.6504,-2.88924,0.22333,0.85601
465.459,51.70949,-2.89056,0.22436,0.85564
466.059,51.7684,-2.89055,0.22365,0.85528
466.659,51.82737,-2.89188,0.22379,0.85491
467.259,51.88645,-2.89323,0.22422,0.85455
467.859,51.94563,-2.89449,0.22502,0.85418
468.459,52.0048,-2.89453,0.22565,0.85382
469.059,52.06377,-2.89582,0.22318,0.85345
469.659,52.1227,-2.89715,0.22467,0.85308
470.259,52.18187,-2.89712,0.22329,0.85272
470.859,52.24137,-2.89846,0.22157,0.85235
471.459,52.30103,-2.89976,0.22316,0.85198
472.059,52.36072,-2.90109,0.2235,0.85161
472.659,52.42004,-2.90109,0.22473,0.85125
473.259,52.47936,-2.90241,0.22528,0.85088
473.859,52.53865,-2.90372,0.22545,0.85051
474.459,52.59796,-2.90502,0.22747,0.85014
475.059,52.6575,-2.90635,0.22594,0.84977
475.659,52.7169,-2.90634,0.22429,0.8494
476.259,52.77632,-2.90766,0.22432,0.84903
476.859,52.83574,-2.90631,0.22533,0.84866
477.459,52.8946,-2.90671,0.22547,0.84829
478.059,52.9535,-2.90889,0.2243,0.84792
478.659,53.0124,-2.91124,0.22556,0.84755
479.259,53.0716,-2.91204,0.22441,0.84718
479.859,53.1312,-2.91214,0.22518,0.84681
480.459,53.19075,-2.91337,0.22577,0.84643
481.059,53.2506,-2.91336,0.2261,0.84606
481.659,53.3104,-2.91469,0.22406,0.84569
482.259,53.3699,-2.91469,0.22522,0.84532
482.859,53.4292,-2.91598,0.22845,0.84494
483.459,53.4885,-2.91491,0.2284,0.84457
484.059,53.54795,-2.91649,0.22671,0.8442
484.659,53.60756,-2.91864,0.22733,0.84382
485.259,53.66685,-2.91994,0.22964,0.84345
485.859,53.72614,-2.91897,0.22809,0.84307
486.459,53.78549,-2.92027,0.22809,0.8427
487.059,53.8445,-2.92028,0.22757,0.84232
487.659,53.90385,-2.92161,0.22723,0.84195
488.259,53.96321,-2.9242,0.22891,0.84157
488.859,54.0223,-2.92424,0.22946,0.8412
489.459,54.0817,-2.92555,0.23249,0.84082
490.059,54.141,-2.92555,0.23216,0.84044
490.659,54.20019,-2.92422,0.23043,0.84007
491.259,54.2596,-2.92564,0.233,0.83969
491.859,54.31889,-2.92694,0.23539,0.83931
492.459,54.3783,-2.92928,0.24002,0.83893
493.059,54.4376,-2.92928,0.24158,0.83856
493.659,54.4968,-2.92969,0.24656,0.83818
494.259,54.55625,-2.92927,0.24525,0.8378
494.859,54.6156,-2.92926,0.24682,0.83742
495.459,54.67494,-2.93148,0.25018,0.83704
496.059,54.73418,-2.93295,0.24962,0.83666
496.659,54.79354,-2.9329,0.25271,0.83628
497.259,54.85269,-2.9343,0.25662,0.8359
497.859,54.9121,-2.93421,0.25386,0.83552
498.459,54.97149,-2.93391,0.25607,0.83514
499.059,55.03089,-2.93423,0.25708,0.83476
499.659,55.0903,-2.93685,0.25715,0.83438
500.259,55.1497,-2.93685,0.25727,0.83399
500.859,55.2089,-2.93597,0.25735,0.83361
501.459,55.2682,-2.93685,0.2583,0.83323
502.059,55.3276,-2.93744,0.26146,0.83285
502.659,55.38703,-2.93816,0.2595,0.83246
503.259,55.44628,-2.93968,0.2606,0.83208
503.859,55.50557,-2.94045,0.2596,0.8317
504.459,55.5649,-2.94178,0.25964,0.83131
505.059,55.62438,-2.94229,0.25927,0.83093
505.659,55.68405,-2.94178,0.25934,0.83054
506.259,55.7437,-2.9431,0.25876,0.83016
506.859,55.8032,-2.94401,0.25741,0.82977
507.459,55.86249,-2.94442,0.25738,0.82939
508.059,55.92181,-2.94685,0.25951,0.829
508.659,55.98125,-2.94567,0.2573,0.82862
509.259,56.04059,-2.94728,0.25871,0.82823
509.859,56.10006,-2.94858,0.25687,0.82784
510.459,56.1594,-2.94861,0.25881,0.82746
511.059,56.219,-2.94892,0.25494,0.82707
511.659,56.27854,-2.94893,0.25547,0.82668
512.259,56.3382,-2.94988,0.25228,0.82629
512.859,56.3977,-2.94989,0.25187,0.8259
513.459,56.45705,-2.94989,0.25385,0.82552
514.059,56.51656,-2.95001,0.2511,0.82513
514.659,56.5761,-2.95121,0.25191,0.82474
515.259,56.6357,-2.95121,0.25171,0.82435
515.859,56.6955,-2.95121,0.24908,0.82396
516.459,56.7551,-2.95112,0.24688,0.82357
517.059,56.81471,-2.95253,0.24764,0.82318
517.659,56.8741,-2.95257,0.24473,0.82279
518.259,56.93359,-2.95384,0.24449,0.8224
518.859,56.9929,-2.95515,0.24392,0.822
519.459,57.05214,-2.95451,0.24399,0.82161
520.059,57.1113,-2.95581,0.24328,0.82122
520.659,57.17077,-2.95581,0.23998,0.82083
521.259,57.2299,-2.95581,0.24077,0.82043
521.859,57.28944,-2.95713,0.23799,0.82004
522.459,57.34893,-2.95746,0.23741,0.81965
523.059,57.40837,-2.95878,0.23709,0.81925
523.659,57.4679,-2.95877,0.23611,0.81886
524.259,57.52726,-2.96011,0.23646,0.81847
524.859,57.5867,-2.9601,0.23377,0.81807
525.459,57.646,-2.96011,0.23279,0.81768
526.059,57.7056,-2.96142,0.23347,0.81728
526.659,57.765,-2.96142,0.22995,0.81689
527.259,57.8246,-2.96148,0.22873,0.81649
527.859,57.88414,-2.96336,0.227,0.81609
528.459,57.9438,-2.96508,0.22731,0.8157
529.059,58.0035,-2.96503,0.22798,0.8153
529.659,58.0632,-2.96503,0.22412,0.8149
530.259,58.12299,-2.96503,0.22579,0.81451
530.859,58.18269,-2.96503,0.22395,0.81411
531.459,58.2424,-2.9659,0.22134,0.81371
532.059,58.302,-2.96588,0.21806,0.81331
532.659,58.36185,-2.96749,0.21722,0.81291
533.259,58.4217,-2.96801,0.21699,0.81251
533.859,58.48163,-2.96767,0.21651,0.81211
534.459,58.54147,-2.96901,0.21524,0.81171
535.059,58.60131,-2.96898,0.2138,0.81131
535.659,58.6611,-2.96996,0.21244,0.81091
536.259,58.7208,-2.97127,0.21368,0.81051
536.859,58.78065,-2.97199,0.20824,0.81011
537.459,58.84065,-2.97195,0.21078,0.80971
538.059,58.9007,-2.97195,0.20867,0.80931
538.659,58.9609,-2.97195,0.20688,0.80891
539.259,59.0207,-2.97327,0.20678,0.8085
539.859,59.08055,-2.97263,0.20273,0.8081
540.459,59.1404,-2.97392,0.19887,0.8077
541.059,59.20045,-2.97392,0.20307,0.80729
541.659,59.2605,-2.97523,0.20003,0.80689
542.259,59.3202,-2.97523,0.19997,0.80649
542.859,59.38013,-2.97557,0.20006,0.80608
543.459,59.44014,-2.97655,0.19691,0.80568
544.059,59.49994,-2.97655,0.19628,0.80527
544.659,59.5599,-2.97787,0.19429,0.80487
545.259,59.61965,-2.97819,0.1972,0.80446
545.859,59.67966,-2.97853,0.19608,0.80406
546.459,59.73936,-2.97984,0.19608,0.80365
547.059,59.799,-2.97858,0.19159,0.80324
547.659,59.8589,-2.97852,0.19422,0.80284
548.259,59.9187,-2.97984,0.1953,0.80243
548.859,59.9784,-2.98037,0.19116,0.80202
549.459,60.038,-2.98116,0.19126,0.80161
550.059,60.09766,-2.98115,0.19187,0.8012
550.659,60.1575,-2.98214,0.19437,0.8008
551.259,60.21715,-2.98214,0.19167,0.80039
551.859,60.27706,-2.98238,0.19294,0.79998
552.459,60.33679,-2.98247,0.19077,0.79957
553.059,60.3968,-2.98313,0.19218,0.79916
553.659,60.45655,-2.98465,0.19165,0.79875
554.259,60.51641,-2.98395,0.19061,0.79834
554.859,60.5762,-2.98401,0.19138,0.79793
555.459,60.63607,-2.98532,0.1909,0.79752
556.059,60.69574,-2.98532,0.19259,0.7971
556.659,60.7553,-2.98621,0.18971,0.79669
557.259,60.8149,-2.98664,0.18788,0.79628
557.859,60.87469,-2.98664,0.18845,0.79587
558.459,60.9345,-2.98664,0.1871,0.79545
559.059,60.99426,-2.98664,0.18819,0.79504
559.659,61.0542,-2.98664,0.18994,0.79463
560.259,61.11401,-2.98792,0.1869,0.79421
560.859,61.1738,-2.98832,0.18623,0.7938
561.459,61.23364,-2.98828,0.18543,0.79338
562.059,61.29336,-2.98948,0.18768,0.79297
562.659,61.3531,-2.9896,0.18777,0.79255
563.259,61.413,-2.98945,0.18665,0.79214
563.859,61.4727,-2.98999,0.18546,0.79172
564.459,61.5325,-2.98994,0.18441,0.79131
565.059,61.5923,-2.98992,0.18266,0.79089
565.659,61.65225,-2.99125,0.18253,0.79047
566.259,61.71215,-2.99125,0.18328,0.79006
566.859,61.772,-2.99133,0.18398,0.78964
567.459,61.83171,-2.99257,0.18467,0.78922
568.059,61.8915,-2.99257,0.18283,0.7888
568.659,61.9512,-2.993,0.18625,0.78838
569.259,62.01113,-2.99519,0.18542,0.78797
569.859,62.071,-2.99389,0.18751,0.78755
570.459,62.13089,-2.9952,0.18689,0.78713
571.059,62.191,-2.99651,0.18374,0.78671
571.659,62.2511,-2.99652,0.18658,0.78629
572.259,62.31129,-2.99652,0.18578,0.78587
572.859,62.3716,-2.99699,0.18734,0.78544
573.459,62.43176,-2.99783,0.18382,0.78502
574.059,62.49202,-2.99783,0.18634,0.7846
574.659,62.55226,-2.99783,0.18976,0.78418
575.259,62.6125,-2.99802,0.18773,0.78376
575.859,62.67265,-2.99915,0.18698,0.78334
576.459,62.733,-3.00046,0.19245,0.78291
577.059,62.7932,-3.00183,0.19217,0.78249
577.659,62.85338,-3.00178,0.18928,0.78207
578.259,62.91345,-3.0018,0.19005,0.78164
578.859,62.9735,-3.00277,0.19042,0.78122
579.459,63.03349,-3.00277,0.19182,0.78079
580.059,63.09332,-3.00277,0.19305,0.78037
580.659,63.15335,-3.00277,0.19188,0.77994
581.259,63.21326,-3.00277,0.19303,0.77952
581.859,63.2736,-3.00313,0.19195,0.77909
582.459,63.33376,-3.00372,0.19245,0.77866
583.059,63.39391,-3.00517,0.19302,0.77824
583.659,63.4538,-3.00507,0.19476,0.77781
584.259,63.5139,-3.00507,0.19607,0.77738
584.859,63.574,-3.00532,0.19699,0.77696
585.459,63.63443,-3.00573,0.19605,0.77653
586.059,63.6951,-3.00573,0.1968,0.7761
586.659,63.7556,-3.00704,0.19848,0.77567
587.259,63.81586,-3.00835,0.19918,0.77524
587.859,63.87613,-3.00836,0.20167,0.77481
588.459,63.9362,-3.00836,0.20336,0.77438
589.059,63.9964,-3.00836,0.20303,0.77395
589.659,64.05657,-3.00965,0.20758,0.77352
590.259,64.1168,-3.01072,0.21132,0.77309
590.859,64.17695,-3.01096,0.2104,0.77266
591.459,64.2371,-3.01,0.21149,0.77223
592.059,64.29691,-3.01,0.21085,0.7718
592.659,64.35686,-3.01,0.21194,0.77137
593.259,64.41682,-3.01067,0.21565,0.77094
593.859,64.47691,-3.01132,0.21466,0.7705
594.459,64.5371,-3.01134,0.21498,0.77007
595.059,64.59711,-3.01263,0.21422,0.76964
595.659,64.6574,-3.01263,0.2182,0.7692
596.259,64.71758,-3.01263,0.21591,0.76877
596.859,64.77778,-3.0123,0.21872,0.76833
597.459,64.83781,-3.0123,0.22128,0.7679
598.059,64.89796,-3.01229,0.22474,0.76746
598.659,64.95821,-3.01342,0.22674,0.76703
599.259,65.01859,-3.01231,0.22613,0.76659
599.859,65.07924,-3.01484,0.22894,0.76616
600.459,65.1395,-3.01494,0.23283,0.76572
601.059,65.19966,-3.01494,0.22948,0.76528
601.659,65.25999,-3.01494,0.23308,0.76485
602.259,65.32024,-3.01494,0.23374,0.76441
602.859,65.3805,-3.01595,0.23563,0.76397
603.459,65.44029,-3.01758,0.24182,0.76353
604.059,65.5001,-3.01791,0.24278,0.7631
604.659,65.55991,-3.01757,0.2454,0.76266
605.259,65.61997,-3.01757,0.2485,0.76222
605.859,65.6802,-3.01824,0.24815,0.76178
606.459,65.74022,-3.0202,0.25001,0.76134
607.059,65.8004,-3.01888,0.25441,0.7609
607.659,65.86054,-3.02021,0.25473,0.76046
608.259,65.92071,-3.02093,0.2575,0.76002
608.859,65.98069,-3.02152,0.25709,0.75958
609.459,66.0408,-3.02152,0.26077,0.75914
610.059,66.10081,-3.02218,0.26113,0.75869
610.659,66.16091,-3.02284,0.2684,0.75825
611.259,66.2209,-3.02284,0.27132,0.75781
611.859,66.28142,-3.02417,0.2707,0.75737
612.459,66.34185,-3.02285,0.27481,0.75692
613.059,66.4024,-3.02282,0.27659,0.75648
613.659,66.46245,-3.02494,0.27635,0.75604
614.259,66.52243,-3.02513,0.28226,0.75559
614.859,66.58252,-3.02389,0.27996,0.75515
615.459,66.64273,-3.02417,0.28284,0.7547
616.059,66.70304,-3.02547,0.28681,0.75426
616.659,66.7633,-3.02541,0.28892,0.75381
617.259,66.8237,-3.02678,0.29078,0.75337
617.859,66.8841,-3.02841,0.29141,0.75292
618.459,66.94453,-3.02876,0.29752,0.75248
619.059,67.00489,-3.02876,0.29776,0.75203
619.659,67.06517,-3.02883,0.30203,0.75158
620.259,67.1254,-3.03008,0.30277,0.75114
620.859,67.1855,-3.02956,0.30609,0.75069
621.459,67.24554,-3.02884,0.31068,0.75024
622.059,67.30598,-3.03007,0.31066,0.74979
622.659,67.3664,-3.02996,0.31295,0.74934
623.259,67.42724,-3.03106,0.3162,0.74889
623.859,67.4877,-3.0311,0.3188,0.74844
624.459,67.548,-3.03106,0.32156,0.74799
625.059,67.60856,-3.03239,0.32267,0.74754
625.659,67.66923,-3.03238,0.32912,0.74709
626.259,67.72976,-3.03237,0.32957,0.74664
626.859,67.79039,-3.03369,0.3328,0.74619
627.459,67.85098,-3.03369,0.33751,0.74574
628.059,67.9111,-3.035,0.34134,0.74529
628.659,67.97161,-3.03501,0.33799,0.74484
629.259,68.032,-3.03516,0.3416,0.74438
629.859,68.09263,-3.03632,0.34582,0.74393
630.459,68.15355,-3.03763,0.34887,0.74348
631.059,68.21356,-3.03764,0.35106,0.74303
631.659,68.27373,-3.03897,0.35425,0.74257
632.259,68.334,-3.03761,0.35897,0.74212
632.859,68.39451,-3.03896,0.3575,0.74166
633.459,68.45526,-3.03945,0.35973,0.74121
634.059,68.51569,-3.04027,0.363,0.74075
634.659,68.57602,-3.03885,0.36405,0.7403
635.259,68.6364,-3.04058,0.36599,0.73984
635.859,68.69674,-3.04171,0.36976,0.73939
636.459,68.75717,-3.04312,0.3705,0.73893
637.059,68.8175,-3.04312,0.37414,0.73847
637.659,68.8779,-3.04181,0.37551,0.73802
638.259,68.9383,-3.04327,0.3764,0.73756
638.859,68.99866,-3.0439,0.38192,0.7371
639.459,69.05926,-3.0439,0.38219,0.73664
640.059,69.11966,-3.0439,0.38351,0.73619
640.659,69.18015,-3.04489,0.38455,0.73573
641.259,69.24081,-3.04488,0.3886,0.73527
641.859,69.30134,-3.04521,0.3884,0.73481
642.459,69.36185,-3.04661,0.39214,0.73435
643.059,69.42223,-3.04653,0.39686,0.73389
643.659,69.4828,-3.04657,0.39411,0.73343
644.259,69.54358,-3.04657,0.39788,0.73297
644.859,69.604,-3.04719,0.39937,0.73251
645.459,69.66434,-3.04851,0.40435,0.73205
646.059,69.72455,-3.04891,0.40392,0.73159
646.659,69.78464,-3.04982,0.40413,0.73112
647.259,69.84509,-3.05114,0.40504,0.73066
647.859,69.90534,-3.05246,0.41233,0.7302
648.459,69.96534,-3.05137,0.4144,0.72974
649.059,70.02566,-3.05223,0.41454,0.72927
649.659,70.086,-3.05245,0.41788,0.72881
650.259,70.14666,-3.05373,0.41826,0.72835
650.859,70.20715,-3.05513,0.4203,0.72788
651.459,70.26731,-3.0564,0.42555,0.72742
652.059,70.32762,-3.05636,0.42433,0.72695
652.659,70.3879,-3.0564,0.43062,0.72649
653.259,70.44848,-3.05771,0.42901,0.72602
653.859,70.50893,-3.05772,0.43088,0.72556
654.459,70.56925,-3.05838,0.43258,0.72509
655.059,70.62918,-3.05838,0.43312,0.72462
655.659,70.68925,-3.05969,0.43599,0.72416
656.259,70.74935,-3.05969,0.43744,0.72369
656.859,70.80959,-3.06101,0.43993,0.72322
657.459,70.8701,-3.06101,0.44417,0.72276
658.059,70.93046,-3.06233,0.44342,0.72229
658.659,70.9906,-3.06303,0.44603,0.72182
659.259,71.051,-3.06364,0.4465,0.72135
659.859,71.1115,-3.06466,0.4464,0.72088
660.459,71.17217,-3.0643,0.44821,0.72041
661.059,71.23289,-3.06563,0.44996,0.71994
661.659,71.29342,-3.06562,0.44945,0.71947
662.259,71.35405,-3.06562,0.45077,0.719
662.859,71.4143,-3.06703,0.45081,0.71853
663.459,71.47476,-3.06826,0.45242,0.71806
664.059,71.5354,-3.06825,0.45492,0.71759
664.659,71.59622,-3.06825,0.45283,0.71712
665.259,71.657,-3.06956,0.45484,0.71665
665.859,71.7178,-3.06956,0.45397,0.71617
666.459,71.77834,-3.0709,0.45585,0.7157
667.059,71.839,-3.07088,0.45602,0.71523
667.659,71.89966,-3.0722,0.45914,0.71476
668.259,71.95992,-3.0722,0.45923,0.71428
668.859,72.02072,-3.07374,0.45396,0.71381
669.459,72.0814,-3.07505,0.45537,0.71334
670.059,72.1425,-3.07524,0.45319,0.71286
670.659,72.20314,-3.07503,0.45031,0.71239
671.259,72.2638,-3.07504,0.45141,0.71191
671.859,72.32432,-3.07637,0.45029,0.71144
672.459,72.38476,-3.07636,0.45039,0.71096
673.059,72.4451,-3.07636,0.44553,0.71048
673.659,72.50567,-3.07767,0.44727,0.71001
674.259,72.5662,-3.079,0.44795,0.70953
674.859,72.62683,-3.07911,0.44381,0.70905
675.459,72.68728,-3.07898,0.44249,0.70858
676.059,72.74778,-3.08031,0.43974,0.7081
676.659,72.80842,-3.08166,0.4396,0.70762
677.259,72.8691,-3.08163,0.4344,0.70714
677.859,72.9297,-3.08163,0.43358,0.70667
678.459,72.9904,-3.08294,0.43211,0.70619
679.059,73.05096,-3.08296,0.43186,0.70571
679.659,73.11156,-3.08163,0.43157,0.70523
680.259,73.17225,-3.08163,0.43389,0.70475
680.859,73.2329,-3.08319,0.43608,0.70427
681.459,73.29355,-3.08295,0.43579,0.70379
682.059,73.35417,-3.08295,0.4327,0.70331
682.659,73.41461,-3.08397,0.43265,0.70283
683.259,73.47495,-3.08426,0.43583,0.70235
683.859,73.53536,-3.08434,0.43884,0.70187
684.459,73.59565,-3.08426,0.4429,0.70138
685.059,73.65596,-3.08426,0.44176,0.7009
685.659,73.7166,-3.08426,0.44377,0.70042
686.259,73.777,-3.08563,0.44522,0.69994
686.859,73.83755,-3.0869,0.44809,0.69945
687.459,73.89791,-3.08692,0.44747,0.69897
688.059,73.95828,-3.08769,0.44827,0.69849
688.659,74.0188,-3.08688,0.45253,0.698
689.259,74.07938,-3.08557,0.4481,0.69752
689.859,74.13976,-3.08557,0.45275,0.69703
690.459,74.2003,-3.087,0.45176,0.69655
691.059,74.2607,-3.08833,0.45444,0.69606
691.659,74.32111,-3.08701,0.45539,0.69558
692.259,74.3815,-3.08838,0.45743,0.69509
692.859,74.442,-3.08833,0.45628,0.69461
693.459,74.50275,-3.08963,0.45853,0.69412
694.059,74.56344,-3.08963,0.4578,0.69363
694.659,74.62406,-3.08964,0.46521,0.69315
695.259,74.6844,-3.09095,0.46747,0.69266
695.859,74.74494,-3.09231,0.46908,0.69217
696.459,74.80584,-3.09095,0.46699,0.69168
697.059,74.86684,-3.09355,0.46761,0.6912
697.659,74.92769,-3.09228,0.46686,0.69071
698.259,74.98841,-3.09095,0.46995,0.69022
698.859,75.04899,-3.09095,0.46683,0.68973
699.459,75.10956,-3.0919,0.46761,0.68924
700.059,75.1701,-3.09227,0.47351,0.68875
700.659,75.23056,-3.09227,0.47455,0.68826
701.259,75.29114,-3.09359,0.47885,0.68777
701.859,75.35183,-3.09359,0.47932,0.68728
702.459,75.41261,-3.09361,0.47959,0.68679
703.059,75.4733,-3.09489,0.48408,0.6863
703.659,75.53395,-3.09424,0.48148,0.68581
704.259,75.5944,-3.09556,0.4837,0.68532
704.859,75.6552,-3.09556,0.48692,0.68482
705.459,75.71608,-3.09689,0.48474,0.68433
706.059,75.77721,-3.09688,0.48914,0.68384
706.659,75.8381,-3.09621,0.48982,0.68335
707.259,75.89901,-3.09753,0.49045,0.68285
707.859,75.9598,-3.09753,0.48794,0.68236
708.459,76.02099,-3.09753,0.49365,0.68187
709.059,76.08181,-3.09753,0.48917,0.68137
709.659,76.14251,-3.09753,0.48877,0.68088
710.259,76.20303,-3.09753,0.49002,0.68038
710.859,76.26353,-3.09728,0.49008,0.67989
711.459,76.32414,-3.09756,0.49455,0.67939
712.059,76.3849,-3.09885,0.49618,0.6789
712.659,76.44572,-3.10025,0.49666,0.6784
713.259,76.50647,-3.10017,0.49624,0.67791
713.859,76.56724,-3.09985,0.49504,0.67741
714.459,76.62768,-3.10016,0.49973,0.67691
715.059,76.68814,-3.10015,0.50037,0.67642
715.659,76.74877,-3.10148,0.50436,0.67592
716.259,76.8094,-3.10148,0.50333,0.67542
716.859,76.8702,-3.10148,0.50335,0.67492
717.459,76.93079,-3.10149,0.5003,0.67443
718.059,76.9913,-3.10377,0.50128,0.67393
718.659,77.05195,-3.10247,0.50605,0.67343
719.259,77.11243,-3.10247,0.50159,0.67293
719.859,77.17309,-3.10247,0.50406,0.67243
720.459,77.23359,-3.10379,0.50129,0.67193
721.059,77.29438,-3.10379,0.50573,0.67143
721.659,77.35512,-3.10379,0.50512,0.67093
722.259,77.41588,-3.10374,0.50357,0.67043
722.859,77.47658,-3.10378,0.50482,0.66993
723.459,77.53716,-3.10379,0.50531,0.66943
724.059,77.59776,-3.10379,0.50637,0.66893
724.659,77.65841,-3.10445,0.5112,0.66843
725.259,77.71891,-3.1051,0.50884,0.66793
725.859,77.77965,-3.10606,0.50659,0.66743
726.459,77.84058,-3.1051,0.51218,0.66692
727.059,77.90162,-3.10664,0.51392,0.66642
727.659,77.96282,-3.1074,0.50847,0.66592
728.259,78.02367,-3.1074,0.51334,0.66542
728.859,78.08461,-3.1074,0.50631,0.66491
729.459,78.14569,-3.1074,0.51015,0.66441
730.059,78.20663,-3.10754,0.50993,0.66391
730.659,78.2677,-3.1074,0.5069,0.6634
731.259,78.32876,-3.1074,0.5087,0.6629
731.859,78.38983,-3.10872,0.5109,0.66239
732.459,78.4509,-3.10872,0.50473,0.66189
733.059,78.51168,-3.10872,0.50862,0.66138
733.659,78.57254,-3.10872,0.50685,0.66088
734.259,78.63338,-3.10991,0.50315,0.66037
734.859,78.69408,-3.11003,0.50116,0.65987
735.459,78.75501,-3.10873,0.50742,0.65936
736.059,78.81591,-3.10872,0.50756,0.65885
736.659,78.87724,-3.10807,0.50493,0.65835
737.259,78.9383,-3.10905,0.50392,0.65784
737.859,78.99931,-3.10938,0.5017,0.65733
738.459,79.06031,-3.1107,0.50165,0.65683
739.059,79.12108,-3.1107,0.50461,0.65632
739.659,79.18188,-3.1107,0.5033,0.65581
740.259,79.24269,-3.11202,0.50285,0.6553
740.859,79.3035,-3.11335,0.49844,0.65479
741.459,79.3643,-3.112,0.49749,0.65428
742.059,79.4251,-3.11333,0.49832,0.65378
742.659,79.4859,-3.11202,0.4975,0.65327
743.259,79.54652,-3.11196,0.49519,0.65276
743.859,79.60713,-3.11332,0.49413,0.65225
744.459,79.66789,-3.11359,0.49313,0.65174
745.059,79.72848,-3.11365,0.48837,0.65123
745.659,79.78918,-3.11365,0.48763,0.65072
746.259,79.8498,-3.11365,0.48792,0.65021
746.859,79.91074,-3.11366,0.48413,0.64969
747.459,79.97157,-3.11366,0.47969,0.64918
747.659,79.99181,-3.11366,0.4818,0.64901