File: 01_Data/Gypsum_Wallboard_Paper/STA/N2/10K_min/Gypsum_Wallboard_Paper_STA_N2_10KData_220216_R3.csv
##Temp./Â°C,Time/min,Mass loss(subtr.2)/mg,DSC(subtr.2)/(mW/mg),Sensit./(uV/mW)
49.676,10.01,-0.04245,0.02032456,1.07517
50.276,10.72265,-0.0452411,0.04773607,1.07485
50.876,10.91502,-0.04666991,0.07583138,1.07454
51.476,11.05614,-0.04630706,0.09513243,1.07423
52.076,11.1747,-0.04833587,0.11526,1.07392
52.676,11.28019,-0.04684173,0.13022,1.0736
53.276,11.3771,-0.04978829,0.14193,1.07329
53.876,11.46691,-0.04954015,0.1551,1.07298
54.476,11.55252,-0.04808067,0.16441,1.07267
55.076,11.6347,-0.04883889,0.17643,1.07235
55.676,11.71451,-0.05039539,0.18771,1.07204
56.276,11.79177,-0.05009343,0.19533,1.07173
56.876,11.86691,-0.04995769,0.20315,1.07142
57.476,11.94005,-0.050563,0.21036,1.07111
58.076,12.01196,-0.05037516,0.21362,1.07079
58.676,12.08291,-0.05170477,0.22031,1.07048
59.276,12.15294,-0.05044941,0.22649,1.07017
59.876,12.22232,-0.05029386,0.23105,1.06986
60.476,12.2909,-0.05010754,0.23722,1.06955
61.076,12.3589,-0.05179094,0.23976,1.06923
61.676,12.42633,-0.05045984,0.24471,1.06892
62.276,12.4933,-0.05193947,0.24816,1.06861
62.876,12.56,-0.052,0.25128,1.0683
63.476,12.6263,-0.05178351,0.25726,1.06799
64.076,12.6921,-0.0519904,0.25871,1.06768
64.676,12.75803,-0.05205049,0.26303,1.06737
65.276,12.82359,-0.0521715,0.26704,1.06705
65.876,12.88917,-0.0522556,0.2692,1.06674
66.476,12.95467,-0.05331084,0.27158,1.06643
67.076,13.02007,-0.0533,0.27336,1.06612
67.676,13.08489,-0.05459361,0.28064,1.06581
68.276,13.14989,-0.05331,0.28236,1.0655
68.876,13.2143,-0.05462811,0.2848,1.06519
69.476,13.27944,-0.05590464,0.28544,1.06488
70.076,13.34351,-0.05464019,0.29151,1.06457
70.676,13.40761,-0.05594021,0.29336,1.06425
71.276,13.47125,-0.05602577,0.29908,1.06394
71.876,13.5351,-0.05600681,0.30115,1.06363
72.476,13.59881,-0.05721644,0.30572,1.06332
73.076,13.66213,-0.05865076,0.30948,1.06301
73.676,13.72569,-0.05725962,0.31301,1.0627
74.276,13.7888,-0.0572561,0.31697,1.06239
74.876,13.8525,-0.05857048,0.31957,1.06208
75.476,13.91531,-0.05859513,0.32332,1.06177
76.076,13.97843,-0.05988801,0.32604,1.06146
76.676,14.0412,-0.0598882,0.33227,1.06115
77.276,14.10419,-0.05988978,0.33385,1.06084
77.876,14.16644,-0.0610348,0.33948,1.06053
78.476,14.2285,-0.06120929,0.34212,1.06022
79.076,14.29062,-0.06251967,0.34495,1.05991
79.676,14.3527,-0.0624917,0.34831,1.0596
80.276,14.4148,-0.06389425,0.3518,1.05929
80.876,14.4765,-0.06348847,0.35587,1.05898
81.476,14.5382,-0.06417076,0.35727,1.05867
82.076,14.59949,-0.06549447,0.36046,1.05836
82.676,14.66099,-0.06685277,0.36543,1.05805
83.276,14.72235,-0.06815624,0.36895,1.05774
83.876,14.7838,-0.06812687,0.37245,1.05743
84.476,14.8447,-0.06811779,0.37376,1.05712
85.076,14.9059,-0.06843834,0.37759,1.05681
85.676,14.96671,-0.06975071,0.37994,1.0565
86.276,15.0275,-0.07087223,0.38306,1.05619
86.876,15.08791,-0.07106994,0.38493,1.05588
87.476,15.14829,-0.07107,0.38588,1.05557
88.076,15.2089,-0.07107001,0.38994,1.05527
88.676,15.26934,-0.07134756,0.3902,1.05496
89.276,15.32969,-0.07239334,0.39261,1.05465
89.876,15.39,-0.0737102,0.39129,1.05434
90.476,15.4502,-0.07371766,0.39682,1.05403
91.076,15.5103,-0.07502005,0.39539,1.05372
91.676,15.57059,-0.07502015,0.39944,1.05341
92.276,15.6308,-0.07640487,0.39715,1.0531
92.876,15.69087,-0.08463148,0.39798,1.05279
93.476,15.7509,-0.08550347,0.40033,1.05249
94.076,15.8109,-0.08549312,0.39959,1.05218
94.676,15.87067,-0.08424074,0.40087,1.05187
95.276,15.93029,-0.08387901,0.40163,1.05156
95.876,15.9898,-0.08150075,0.40103,1.05125
96.476,16.04932,-0.08150001,0.40235,1.05094
97.076,16.1086,-0.08155636,0.4021,1.05063
97.676,16.16779,-0.08133982,0.40128,1.05033
98.276,16.22713,-0.07838251,0.40051,1.05002
98.876,16.28653,-0.07869604,0.4013,1.04971
99.476,16.34565,-0.07874994,0.40118,1.0494
100.076,16.40479,-0.07866212,0.40019,1.04909
100.676,16.46369,-0.08081462,0.40019,1.04879
101.276,16.52276,-0.08290113,0.4009,1.04848
101.876,16.58142,-0.0828081,0.39944,1.04817
102.476,16.64023,-0.08412977,0.40073,1.04786
103.076,16.69912,-0.08674493,0.40166,1.04755
103.676,16.75822,-0.08676009,0.40281,1.04725
104.276,16.81762,-0.08811397,0.40424,1.04694
104.876,16.8766,-0.08612039,0.40155,1.04663
105.476,16.93552,-0.08464202,0.40186,1.04632
106.076,16.99404,-0.08417063,0.4018,1.04602
106.676,17.05259,-0.0854333,0.39941,1.04571
107.276,17.11113,-0.08437398,0.3995,1.0454
107.876,17.16947,-0.08263028,0.39694,1.04509
108.476,17.2281,-0.08128006,0.39825,1.04479
109.076,17.28652,-0.08128098,0.39693,1.04448
109.676,17.3451,-0.08254834,0.39683,1.04417
110.276,17.4034,-0.08430503,0.39705,1.04387
110.876,17.46169,-0.0866834,0.39569,1.04356
111.476,17.51999,-0.08929003,0.39545,1.04325
112.076,17.5783,-0.09061035,0.39339,1.04295
112.676,17.63695,-0.09192026,0.3949,1.04264
113.276,17.6955,-0.0928262,0.39461,1.04233
113.876,17.75414,-0.094548,0.39367,1.04202
114.476,17.81251,-0.09455,0.39475,1.04172
115.076,17.87114,-0.09454999,0.39365,1.04141
115.676,17.92952,-0.09484126,0.39185,1.0411
116.276,17.98796,-0.0958702,0.39143,1.0408
116.876,18.0462,-0.09586945,0.38869,1.04049
117.476,18.10464,-0.09728174,0.3904,1.04019
118.076,18.163,-0.0973999,0.3887,1.03988
118.676,18.22152,-0.09729326,0.38778,1.03957
119.276,18.28015,-0.09608997,0.38736,1.03927
119.876,18.33846,-0.09779666,0.38646,1.03896
120.476,18.3968,-0.09837993,0.38205,1.03865
121.076,18.4553,-0.09837988,0.38107,1.03835
121.676,18.5136,-0.09809862,0.38204,1.03804
122.276,18.57217,-0.09839019,0.37935,1.03774
122.876,18.6304,-0.09969471,0.37983,1.03743
123.476,18.689,-0.09971274,0.37453,1.03712
124.076,18.74748,-0.10102,0.3728,1.03682
124.676,18.80605,-0.10102,0.37158,1.03651
125.276,18.86445,-0.10131,0.36683,1.03621
125.876,18.92289,-0.10168,0.36708,1.0359
126.476,18.98112,-0.10299,0.36693,1.03559
127.076,19.03952,-0.10299,0.36303,1.03529
127.676,19.09791,-0.10433,0.36105,1.03498
128.276,19.15651,-0.103,0.35696,1.03468
128.876,19.21495,-0.10437,0.35529,1.03437
129.476,19.27335,-0.10433,0.35295,1.03407
130.076,19.33171,-0.10465,0.35186,1.03376
130.676,19.39002,-0.10465,0.35035,1.03346
131.276,19.44856,-0.10411,0.35211,1.03315
131.876,19.50708,-0.10333,0.34734,1.03285
132.476,19.56537,-0.10324,0.34717,1.03254
133.076,19.6235,-0.10464,0.34659,1.03223
133.676,19.68175,-0.10477,0.34392,1.03193
134.276,19.7399,-0.10596,0.34456,1.03162
134.876,19.79812,-0.10604,0.34435,1.03132
135.476,19.85639,-0.10464,0.3442,1.03101
136.076,19.9144,-0.10466,0.34399,1.03071
136.676,19.9724,-0.10595,0.3442,1.0304
137.276,20.03046,-0.1056,0.34225,1.0301
137.876,20.08846,-0.10497,0.34509,1.02979
138.476,20.14658,-0.10497,0.34493,1.02949
139.076,20.2046,-0.1062,0.34596,1.02919
139.676,20.2625,-0.1053,0.34432,1.02888
140.276,20.3204,-0.1053,0.34527,1.02858
140.876,20.3782,-0.1053,0.34727,1.02827
141.476,20.43599,-0.1053,0.34543,1.02797
142.076,20.49379,-0.10659,0.34569,1.02766
142.676,20.55149,-0.10662,0.34393,1.02736
143.276,20.60931,-0.10794,0.34354,1.02705
143.876,20.6672,-0.10794,0.34552,1.02675
144.476,20.72494,-0.10795,0.34872,1.02644
145.076,20.78278,-0.10925,0.34876,1.02614
145.676,20.84042,-0.10925,0.34716,1.02584
146.276,20.898,-0.10891,0.34989,1.02553
146.876,20.95572,-0.10883,0.34822,1.02523
147.476,21.0134,-0.1076,0.3496,1.02492
148.076,21.07123,-0.10759,0.35111,1.02462
148.676,21.12902,-0.10792,0.34928,1.02432
149.276,21.18682,-0.10791,0.35044,1.02401
149.876,21.24455,-0.10892,0.35022,1.02371
150.476,21.3021,-0.10892,0.35059,1.0234
151.076,21.35984,-0.10892,0.35079,1.0231
151.676,21.41742,-0.10892,0.35241,1.0228
152.276,21.47516,-0.10875,0.35222,1.02249
152.876,21.53274,-0.10857,0.35271,1.02219
153.476,21.59009,-0.1076,0.35264,1.02188
154.076,21.6477,-0.10761,0.35297,1.02158
154.676,21.70533,-0.10897,0.3544,1.02128
155.276,21.76295,-0.10898,0.355,1.02097
155.876,21.8211,-0.10761,0.35566,1.02067
156.476,21.87872,-0.10892,0.35542,1.02037
157.076,21.93639,-0.10892,0.35545,1.02006
157.676,21.99413,-0.10796,0.3575,1.01976
158.276,22.05176,-0.10794,0.35905,1.01945
158.876,22.10923,-0.10892,0.35871,1.01915
159.476,22.16668,-0.10892,0.35866,1.01885
160.076,22.22396,-0.10888,0.35916,1.01854
160.676,22.28163,-0.1089,0.36077,1.01824
161.276,22.33899,-0.10827,0.36122,1.01794
161.876,22.3962,-0.10892,0.36155,1.01763
162.476,22.45344,-0.10892,0.36524,1.01733
163.076,22.51042,-0.10892,0.36392,1.01703
163.676,22.56803,-0.11027,0.36318,1.01672
164.276,22.6256,-0.10892,0.36379,1.01642
164.876,22.68358,-0.10903,0.36488,1.01612
165.476,22.74145,-0.10925,0.36484,1.01581
166.076,22.79939,-0.1102,0.36754,1.01551
166.676,22.857,-0.11024,0.36684,1.01521
167.276,22.91466,-0.10955,0.36801,1.01491
167.876,22.97223,-0.10958,0.36762,1.0146
168.476,23.0299,-0.11056,0.36808,1.0143
169.076,23.08747,-0.1109,0.36847,1.014
169.676,23.1449,-0.11119,0.37127,1.01369
170.276,23.20232,-0.11188,0.37176,1.01339
170.876,23.25917,-0.11188,0.37256,1.01309
171.476,23.3166,-0.11072,0.37041,1.01278
172.076,23.3742,-0.11056,0.37202,1.01248
172.676,23.43169,-0.1106,0.37399,1.01218
173.276,23.48934,-0.11089,0.37207,1.01188
173.876,23.54678,-0.11221,0.37445,1.01157
174.476,23.6042,-0.11221,0.3731,1.01127
175.076,23.66165,-0.11221,0.37761,1.01097
175.676,23.71919,-0.11221,0.37597,1.01067
176.276,23.77661,-0.1115,0.37632,1.01036
176.876,23.834,-0.11155,0.37973,1.01006
177.476,23.89147,-0.11088,0.37922,1.00976
178.076,23.949,-0.11221,0.38112,1.00945
178.676,24.0065,-0.11221,0.37927,1.00915
179.276,24.06389,-0.11221,0.38355,1.00885
179.876,24.12132,-0.11359,0.38249,1.00855
180.476,24.1787,-0.11353,0.38135,1.00824
181.076,24.23619,-0.11353,0.38282,1.00794
181.676,24.29364,-0.11384,0.38148,1.00764
182.276,24.3511,-0.11523,0.38095,1.00734
182.876,24.40832,-0.11418,0.38364,1.00703
183.476,24.46556,-0.11527,0.38208,1.00673
184.076,24.52296,-0.1155,0.38493,1.00643
184.676,24.5804,-0.1155,0.38546,1.00613
185.276,24.63785,-0.1155,0.3854,1.00582
185.876,24.69528,-0.11485,0.38725,1.00552
186.476,24.7526,-0.11485,0.38859,1.00522
187.076,24.81018,-0.11485,0.38806,1.00492
187.676,24.86776,-0.11485,0.38755,1.00461
188.276,24.92536,-0.11485,0.38897,1.00431
188.876,24.9828,-0.1148,0.38932,1.00401
189.476,25.0402,-0.11616,0.38985,1.00371
190.076,25.09742,-0.11607,0.39263,1.0034
190.676,25.15492,-0.11748,0.39423,1.0031
191.276,25.21216,-0.11748,0.39442,1.0028
191.876,25.26969,-0.11748,0.39325,1.0025
192.476,25.32713,-0.11748,0.39565,1.0022
193.076,25.38457,-0.11748,0.39533,1.00189
193.676,25.44184,-0.11748,0.39887,1.00159
194.276,25.49936,-0.11748,0.39676,1.00129
194.876,25.5567,-0.11748,0.3991,1.00099
195.476,25.61411,-0.11748,0.39875,1.00068
196.076,25.67137,-0.11825,0.40167,1.00038
196.676,25.72856,-0.1188,0.40185,1.00008
197.276,25.7858,-0.1188,0.40479,0.99978
197.876,25.84311,-0.1188,0.40297,0.99947
198.476,25.90044,-0.1188,0.40511,0.99917
199.076,25.95776,-0.12081,0.40469,0.99887
199.676,26.0149,-0.12141,0.40507,0.99857
200.276,26.07214,-0.12142,0.40497,0.99827
200.876,26.12941,-0.12142,0.40348,0.99796
201.476,26.18674,-0.12142,0.40627,0.99766
202.076,26.2444,-0.12064,0.40733,0.99736
202.676,26.3015,-0.12011,0.40692,0.99706
203.276,26.3587,-0.12076,0.40981,0.99675
203.876,26.4159,-0.12076,0.40892,0.99645
204.476,26.4732,-0.12077,0.40937,0.99615
205.076,26.53084,-0.12273,0.40964,0.99585
205.676,26.5882,-0.12274,0.40946,0.99554
206.276,26.6455,-0.12274,0.41056,0.99524
206.876,26.7028,-0.12274,0.40907,0.99494
207.476,26.76018,-0.12274,0.41325,0.99464
208.076,26.8178,-0.12323,0.41223,0.99434
208.676,26.8752,-0.12504,0.4139,0.99403
209.276,26.9325,-0.12504,0.41251,0.99373
209.876,26.98984,-0.12504,0.41414,0.99343
210.476,27.04713,-0.12504,0.41534,0.99313
211.076,27.1042,-0.12504,0.41461,0.99282
211.676,27.1612,-0.12504,0.41568,0.99252
212.276,27.2183,-0.12501,0.41659,0.99222
212.876,27.2753,-0.12538,0.42016,0.99192
213.476,27.33267,-0.1275,0.41818,0.99161
214.076,27.3898,-0.12768,0.4213,0.99131
214.676,27.44728,-0.12768,0.42062,0.99101
215.276,27.50455,-0.12768,0.42439,0.99071
215.876,27.56206,-0.128,0.42198,0.99041
216.476,27.6197,-0.12801,0.42389,0.9901
217.076,27.67714,-0.1287,0.42193,0.9898
217.676,27.73465,-0.12975,0.42478,0.9895
218.276,27.792,-0.13064,0.42596,0.9892
218.876,27.84947,-0.13158,0.42493,0.98889
219.476,27.90723,-0.13196,0.42642,0.98859
220.076,27.965,-0.13196,0.42548,0.98829
220.676,28.02301,-0.13196,0.42548,0.98799
221.276,28.0809,-0.132,0.42609,0.98768
221.876,28.13808,-0.13294,0.42545,0.98738
222.476,28.1951,-0.13294,0.42622,0.98708
223.076,28.252,-0.13294,0.42722,0.98678
223.676,28.30889,-0.13423,0.4275,0.98647
224.276,28.3662,-0.13453,0.42791,0.98617
224.876,28.42356,-0.1359,0.42777,0.98587
225.476,28.48102,-0.1359,0.42973,0.98556
226.076,28.53854,-0.13722,0.43014,0.98526
226.676,28.59608,-0.13722,0.43097,0.98496
227.276,28.65379,-0.13726,0.43158,0.98466
227.876,28.7112,-0.13853,0.43101,0.98435
228.476,28.76858,-0.13853,0.432,0.98405
229.076,28.8258,-0.13964,0.43294,0.98375
229.676,28.88318,-0.13985,0.43614,0.98345
230.276,28.94071,-0.13987,0.43662,0.98314
230.876,28.99826,-0.14216,0.43576,0.98284
231.476,29.05568,-0.14216,0.43622,0.98254
232.076,29.1131,-0.14248,0.43732,0.98223
232.676,29.1708,-0.14321,0.43975,0.98193
233.276,29.2286,-0.14434,0.43945,0.98163
233.876,29.2865,-0.14512,0.43995,0.98132
234.476,29.34405,-0.14775,0.43885,0.98102
235.076,29.4013,-0.14774,0.44148,0.98072
235.676,29.4587,-0.14905,0.44256,0.98042
236.276,29.51608,-0.14906,0.44271,0.98011
236.876,29.57335,-0.15027,0.44423,0.97981
237.476,29.6306,-0.15169,0.44597,0.97951
238.076,29.6877,-0.153,0.44674,0.9792
238.676,29.7447,-0.15171,0.44669,0.9789
239.276,29.80207,-0.15316,0.44992,0.9786
239.876,29.85932,-0.15526,0.45069,0.97829
240.476,29.9167,-0.15603,0.45007,0.97799
241.076,29.9742,-0.15696,0.45102,0.97769
241.676,30.0313,-0.15697,0.45242,0.97738
242.276,30.08863,-0.15828,0.45205,0.97708
242.876,30.1457,-0.15958,0.45379,0.97677
243.476,30.20291,-0.16092,0.45463,0.97647
244.076,30.2603,-0.16223,0.45773,0.97617
244.676,30.31755,-0.16359,0.45678,0.97586
245.276,30.37483,-0.16495,0.45777,0.97556
245.876,30.43204,-0.16628,0.46217,0.97526
246.476,30.4891,-0.1676,0.45656,0.97495
247.076,30.5464,-0.16823,0.46005,0.97465
247.676,30.6037,-0.17032,0.45742,0.97434
248.276,30.66099,-0.17287,0.45956,0.97404
248.876,30.71821,-0.17418,0.45821,0.97374
249.476,30.7756,-0.1755,0.45881,0.97343
250.076,30.83277,-0.17809,0.4572,0.97313
250.676,30.8903,-0.17953,0.45624,0.97282
251.276,30.9477,-0.17947,0.45871,0.97252
251.876,31.0051,-0.18062,0.45893,0.97222
252.476,31.0626,-0.18146,0.46002,0.97191
253.076,31.1198,-0.18351,0.45892,0.97161
253.676,31.1769,-0.18479,0.45784,0.9713
254.276,31.23425,-0.18791,0.45648,0.971
254.876,31.2916,-0.19009,0.45592,0.97069
255.476,31.3491,-0.19285,0.45817,0.97039
256.076,31.4065,-0.19488,0.4589,0.97009
256.676,31.46387,-0.19775,0.45831,0.96978
257.276,31.5211,-0.19896,0.46053,0.96948
257.876,31.5784,-0.20103,0.45912,0.96917
258.476,31.63575,-0.20329,0.45768,0.96887
259.076,31.69316,-0.20622,0.45885,0.96856
259.676,31.75055,-0.20822,0.46066,0.96826
260.276,31.80793,-0.21089,0.46039,0.96795
260.876,31.8653,-0.21413,0.46081,0.96765
261.476,31.92268,-0.2162,0.46098,0.96734
262.076,31.9801,-0.21915,0.46186,0.96704
262.676,32.03756,-0.22201,0.46396,0.96673
263.276,32.09513,-0.22441,0.4636,0.96643
263.876,32.15242,-0.2267,0.46795,0.96612
264.476,32.20969,-0.22934,0.4656,0.96582
265.076,32.26705,-0.23068,0.46841,0.96551
265.676,32.32431,-0.23417,0.47023,0.9652
266.276,32.38178,-0.23749,0.47186,0.9649
266.876,32.4391,-0.24038,0.47093,0.96459
267.476,32.49654,-0.24435,0.47292,0.96429
268.076,32.55388,-0.24766,0.47345,0.96398
268.676,32.61146,-0.25065,0.47759,0.96368
269.276,32.66879,-0.25428,0.47437,0.96337
269.876,32.72615,-0.25739,0.47649,0.96306
270.476,32.78365,-0.26073,0.47787,0.96276
271.076,32.84118,-0.2654,0.47897,0.96245
271.676,32.8987,-0.26882,0.47868,0.96215
272.276,32.95621,-0.27426,0.48025,0.96184
272.876,33.01382,-0.27867,0.48273,0.96153
273.476,33.0714,-0.28335,0.48448,0.96123
274.076,33.12892,-0.28766,0.48799,0.96092
274.676,33.18653,-0.291,0.48957,0.96061
275.276,33.24412,-0.294,0.48998,0.96031
275.876,33.3016,-0.29902,0.49125,0.96
276.476,33.35908,-0.30439,0.49216,0.95969
277.076,33.41649,-0.30736,0.49521,0.95939
277.676,33.4741,-0.312,0.49697,0.95908
278.276,33.5316,-0.31785,0.49706,0.95877
278.876,33.58939,-0.32374,0.50139,0.95847
279.476,33.64687,-0.32736,0.50305,0.95816
280.076,33.70427,-0.33239,0.50387,0.95785
280.676,33.76169,-0.33733,0.5036,0.95754
281.276,33.81924,-0.3434,0.50978,0.95724
281.876,33.87668,-0.34936,0.51403,0.95693
282.476,33.93412,-0.35478,0.51462,0.95662
283.076,33.99145,-0.3625,0.51845,0.95631
283.676,34.04886,-0.36722,0.51984,0.95601
284.276,34.10637,-0.37249,0.52205,0.9557
284.876,34.16377,-0.3783,0.5227,0.95539
285.476,34.22125,-0.3839,0.52504,0.95508
286.076,34.27872,-0.38984,0.52864,0.95477
286.676,34.33625,-0.39673,0.52825,0.95447
287.276,34.3938,-0.40336,0.53093,0.95416
287.876,34.45133,-0.41027,0.53398,0.95385
288.476,34.50889,-0.41778,0.53684,0.95354
289.076,34.56644,-0.42433,0.5376,0.95323
289.676,34.62397,-0.43192,0.53919,0.95292
290.276,34.68145,-0.43854,0.5432,0.95262
290.876,34.7389,-0.44626,0.54525,0.95231
291.476,34.7963,-0.45315,0.54667,0.952
292.076,34.85386,-0.46113,0.54983,0.95169
292.676,34.91122,-0.46839,0.55333,0.95138
293.276,34.96886,-0.47609,0.55456,0.95107
293.876,35.02641,-0.48504,0.55906,0.95076
294.476,35.0841,-0.49363,0.56002,0.95045
295.076,35.14198,-0.50135,0.56437,0.95014
295.676,35.19962,-0.51139,0.56836,0.94983
296.276,35.25739,-0.51923,0.56888,0.94952
296.876,35.3151,-0.5278,0.57185,0.94921
297.476,35.37256,-0.53657,0.57484,0.9489
298.076,35.43033,-0.54563,0.57564,0.94859
298.676,35.4881,-0.55426,0.58117,0.94828
299.276,35.5456,-0.5634,0.58115,0.94797
299.876,35.6034,-0.57314,0.58607,0.94766
300.476,35.66115,-0.58322,0.58796,0.94735
301.076,35.71867,-0.59217,0.59166,0.94704
301.676,35.77619,-0.60238,0.59589,0.94673
302.276,35.8337,-0.61236,0.59904,0.94642
302.876,35.8913,-0.62006,0.60177,0.94611
303.476,35.9493,-0.63095,0.60398,0.9458
304.076,36.00694,-0.64228,0.60779,0.94549
304.676,36.0647,-0.65274,0.61002,0.94518
305.276,36.12254,-0.663,0.6121,0.94487
305.876,36.18029,-0.67407,0.61827,0.94455
306.476,36.23793,-0.68403,0.6191,0.94424
307.076,36.29554,-0.69651,0.62334,0.94393
307.676,36.3531,-0.70764,0.62621,0.94362
308.276,36.41086,-0.71846,0.62833,0.94331
308.876,36.46848,-0.72942,0.63095,0.943
309.476,36.52603,-0.74161,0.6333,0.94268
310.076,36.5835,-0.75411,0.63487,0.94237
310.676,36.64117,-0.76676,0.63904,0.94206
311.276,36.6988,-0.77999,0.64327,0.94175
311.876,36.7566,-0.7922,0.64442,0.94143
312.476,36.81427,-0.80441,0.64592,0.94112
313.076,36.87205,-0.81669,0.64855,0.94081
313.676,36.92988,-0.82909,0.65298,0.9405
314.276,36.9877,-0.84131,0.65565,0.94018
314.876,37.0454,-0.85353,0.65819,0.93987
315.476,37.1031,-0.86699,0.66209,0.93956
316.076,37.16088,-0.88196,0.66347,0.93924
316.676,37.2186,-0.89471,0.66549,0.93893
317.276,37.2766,-0.90822,0.66897,0.93862
317.876,37.33428,-0.92258,0.6704,0.9383
318.476,37.39222,-0.93607,0.67423,0.93799
319.076,37.44995,-0.94944,0.67644,0.93768
319.676,37.50762,-0.96403,0.67775,0.93736
320.276,37.5651,-0.97814,0.67987,0.93705
320.876,37.6229,-0.99222,0.6846,0.93673
321.476,37.68081,-1.00833,0.68632,0.93642
322.076,37.739,-1.02139,0.69107,0.9361
322.676,37.79712,-1.03707,0.6922,0.93579
323.276,37.85508,-1.05247,0.69787,0.93547
323.876,37.91297,-1.0669,0.7018,0.93516
324.476,37.97072,-1.08342,0.70276,0.93484
325.076,38.02858,-1.09883,0.70922,0.93453
325.676,38.0864,-1.11585,0.71403,0.93421
326.276,38.1443,-1.1311,0.71782,0.9339
326.876,38.2023,-1.14799,0.71938,0.93358
327.476,38.26034,-1.16388,0.72146,0.93327
328.076,38.3183,-1.18137,0.72532,0.93295
328.676,38.37628,-1.19699,0.72959,0.93264
329.276,38.43415,-1.2148,0.7335,0.93232
329.876,38.49214,-1.23179,0.73824,0.932
330.476,38.55018,-1.2495,0.74124,0.93169
331.076,38.6083,-1.26669,0.74549,0.93137
331.676,38.66646,-1.2847,0.7496,0.93105
332.276,38.72459,-1.30321,0.75363,0.93074
332.876,38.7826,-1.32009,0.76037,0.93042
333.476,38.84033,-1.33936,0.76216,0.9301
334.076,38.8985,-1.35849,0.76718,0.92979
334.676,38.95666,-1.37803,0.77469,0.92947
335.276,39.01495,-1.39555,0.77956,0.92915
335.876,39.07345,-1.41562,0.78249,0.92883
336.476,39.1314,-1.43488,0.78795,0.92851
337.076,39.18932,-1.45483,0.7954,0.9282
337.676,39.24726,-1.47502,0.8002,0.92788
338.276,39.30522,-1.49697,0.80562,0.92756
338.876,39.3632,-1.51748,0.81003,0.92724
339.476,39.42125,-1.53679,0.81536,0.92692
340.076,39.4794,-1.55961,0.82086,0.9266
340.676,39.53734,-1.58011,0.82707,0.92629
341.276,39.59555,-1.60368,0.83291,0.92597
341.876,39.65364,-1.62488,0.8408,0.92565
342.476,39.71192,-1.64827,0.84301,0.92533
343.076,39.7701,-1.67022,0.84761,0.92501
343.676,39.82824,-1.69244,0.85565,0.92469
344.276,39.88646,-1.71711,0.86021,0.92437
344.876,39.94451,-1.73951,0.86709,0.92405
345.476,40.00269,-1.76505,0.87274,0.92373
346.076,40.06072,-1.78905,0.87768,0.92341
346.676,40.11888,-1.81326,0.88153,0.92309
347.276,40.177,-1.83743,0.88864,0.92277
347.876,40.2352,-1.86318,0.89132,0.92245
348.476,40.29339,-1.88862,0.89395,0.92213
349.076,40.3515,-1.91361,0.90018,0.9218
349.676,40.4097,-1.9389,0.90151,0.92148
350.276,40.46781,-1.96397,0.90591,0.92116
350.876,40.52601,-1.98976,0.90491,0.92084
351.476,40.58416,-2.01466,0.90675,0.92052
352.076,40.64236,-2.04247,0.90898,0.9202
352.676,40.7006,-2.0682,0.90613,0.91987
353.276,40.7588,-2.09498,0.9052,0.91955
353.876,40.8168,-2.11994,0.90259,0.91923
354.476,40.87508,-2.14724,0.90126,0.91891
355.076,40.93318,-2.1719,0.89527,0.91858
355.676,40.99126,-2.19815,0.89232,0.91826
356.276,41.04938,-2.22379,0.88433,0.91794
356.876,41.1075,-2.24919,0.87724,0.91761
357.476,41.16547,-2.27606,0.86905,0.91729
358.076,41.22343,-2.30013,0.85655,0.91697
358.676,41.2814,-2.32492,0.84428,0.91664
359.276,41.33941,-2.34834,0.83274,0.91632
359.876,41.3974,-2.37403,0.81858,0.916
360.476,41.45562,-2.39653,0.80217,0.91567
361.076,41.51382,-2.41999,0.78438,0.91535
361.676,41.5719,-2.44259,0.76716,0.91502
362.276,41.62985,-2.46415,0.74888,0.9147
362.876,41.68765,-2.48428,0.72897,0.91437
363.476,41.7454,-2.50336,0.70454,0.91405
364.076,41.80322,-2.52412,0.68306,0.91372
364.676,41.8612,-2.54351,0.65824,0.9134
365.276,41.91918,-2.56188,0.63277,0.91307
365.876,41.97707,-2.57809,0.60812,0.91274
366.476,42.03499,-2.59485,0.58266,0.91242
367.076,42.09302,-2.60949,0.55442,0.91209
367.676,42.15113,-2.62426,0.52993,0.91177
368.276,42.20928,-2.63934,0.50345,0.91144
368.876,42.26735,-2.65257,0.47845,0.91111
369.476,42.32549,-2.66353,0.45262,0.91079
370.076,42.3838,-2.67493,0.42783,0.91046
370.676,42.44202,-2.6859,0.40411,0.91013
371.276,42.50031,-2.6958,0.3797,0.9098
371.876,42.5585,-2.70289,0.3608,0.90948
372.476,42.6167,-2.71145,0.33901,0.90915
373.076,42.6749,-2.71894,0.32043,0.90882
373.676,42.73284,-2.72389,0.30014,0.90849
374.276,42.79098,-2.72997,0.28417,0.90816
374.876,42.8489,-2.73578,0.27267,0.90783
375.476,42.9071,-2.74089,0.25916,0.90751
376.076,42.96537,-2.74518,0.24814,0.90718
376.676,43.02352,-2.7489,0.23796,0.90685
377.276,43.082,-2.75251,0.22668,0.90652
377.876,43.1402,-2.7561,0.2174,0.90619
378.476,43.1985,-2.75946,0.21535,0.90586
379.076,43.25674,-2.76228,0.2069,0.90553
379.676,43.31508,-2.7653,0.20095,0.9052
380.276,43.37341,-2.76761,0.19464,0.90487
380.876,43.43188,-2.76971,0.18985,0.90454
381.476,43.4903,-2.77264,0.18683,0.90421
382.076,43.54822,-2.77427,0.18467,0.90387
382.676,43.60644,-2.77723,0.18126,0.90354
383.276,43.66468,-2.77971,0.17966,0.90321
383.876,43.72336,-2.78189,0.17451,0.90288
384.476,43.7821,-2.78432,0.17351,0.90255
385.076,43.8405,-2.78683,0.17143,0.90222
385.676,43.89857,-2.78855,0.16803,0.90188
386.276,43.95647,-2.79087,0.16789,0.90155
386.876,44.01439,-2.7924,0.16675,0.90122
387.476,44.07243,-2.79393,0.16333,0.90089
388.076,44.13065,-2.79657,0.16202,0.90055
388.676,44.18875,-2.79787,0.16167,0.90022
389.276,44.2473,-2.7992,0.16327,0.89989
389.876,44.3057,-2.80046,0.15938,0.89955
390.476,44.36445,-2.80312,0.16017,0.89922
391.076,44.42324,-2.80472,0.15936,0.89889
391.676,44.48185,-2.80731,0.1582,0.89855
392.276,44.54054,-2.80943,0.15481,0.89822
392.876,44.5991,-2.81134,0.15582,0.89788
393.476,44.6578,-2.81267,0.15546,0.89755
394.076,44.71632,-2.81398,0.15227,0.89721
394.676,44.7749,-2.81537,0.15094,0.89688
395.276,44.83328,-2.81663,0.15129,0.89654
395.876,44.89159,-2.81796,0.14942,0.8962
396.476,44.9501,-2.81827,0.15245,0.89587
397.076,45.00875,-2.81983,0.14901,0.89553
397.676,45.06734,-2.82291,0.14714,0.8952
398.276,45.12617,-2.82518,0.14702,0.89486
398.876,45.18466,-2.82782,0.14424,0.89452
399.476,45.2431,-2.82898,0.14434,0.89419
400.076,45.30177,-2.83125,0.14388,0.89385
400.676,45.3605,-2.83187,0.14387,0.89351
401.276,45.41925,-2.83319,0.14177,0.89317
401.876,45.47809,-2.83548,0.14463,0.89283
402.476,45.53666,-2.83746,0.14028,0.8925
403.076,45.59511,-2.83839,0.13808,0.89216
403.676,45.6534,-2.84075,0.1393,0.89182
404.276,45.7121,-2.84231,0.14141,0.89148
404.876,45.77044,-2.84361,0.13919,0.89114
405.476,45.82935,-2.84494,0.13869,0.8908
406.076,45.8879,-2.84673,0.14139,0.89046
406.676,45.94659,-2.84908,0.13708,0.89012
407.276,46.00513,-2.85079,0.13913,0.88978
407.876,46.06367,-2.85297,0.13816,0.88944
408.476,46.12189,-2.85359,0.13916,0.8891
409.076,46.17993,-2.85491,0.13883,0.88876
409.676,46.23815,-2.85623,0.13905,0.88842
410.276,46.2965,-2.85816,0.13575,0.88808
410.876,46.35504,-2.86043,0.13813,0.88774
411.476,46.4136,-2.86175,0.13792,0.8874
412.076,46.47205,-2.86329,0.14024,0.88706
412.676,46.5304,-2.8659,0.14018,0.88671
413.276,46.58876,-2.8659,0.13889,0.88637
413.876,46.64738,-2.86711,0.137,0.88603
414.476,46.7063,-2.86912,0.13907,0.88569
415.076,46.76566,-2.87075,0.13954,0.88534
415.676,46.8247,-2.87257,0.13799,0.885
416.276,46.88378,-2.87393,0.13758,0.88466
416.876,46.9424,-2.87684,0.13903,0.88431
417.476,47.00103,-2.87805,0.1404,0.88397
418.076,47.05942,-2.87938,0.13781,0.88362
418.676,47.11784,-2.882,0.13692,0.88328
419.276,47.1764,-2.88192,0.14141,0.88293
419.876,47.23489,-2.88333,0.14146,0.88259
420.476,47.29325,-2.88466,0.14078,0.88224
421.076,47.35176,-2.88608,0.13944,0.8819
421.676,47.4104,-2.88763,0.14064,0.88155
422.276,47.469,-2.88983,0.1433,0.88121
422.876,47.52773,-2.8912,0.13785,0.88086
423.476,47.5864,-2.89365,0.14059,0.88052
424.076,47.6453,-2.89404,0.13986,0.88017
424.676,47.70414,-2.89675,0.13955,0.87982
425.276,47.76295,-2.89848,0.14098,0.87948
425.876,47.82168,-2.89956,0.13894,0.87913
426.476,47.88044,-2.90124,0.14053,0.87878
427.076,47.93911,-2.90244,0.14123,0.87843
427.676,47.99771,-2.9048,0.14031,0.87808
428.276,48.05639,-2.90612,0.1431,0.87774
428.876,48.11504,-2.9066,0.14471,0.87739
429.476,48.17371,-2.90777,0.14233,0.87704
430.076,48.23245,-2.91021,0.14443,0.87669
430.676,48.2911,-2.91156,0.1428,0.87634
431.276,48.34981,-2.91282,0.1432,0.87599
431.876,48.40845,-2.91417,0.14662,0.87564
432.476,48.46678,-2.91547,0.14434,0.87529
433.076,48.5255,-2.91679,0.14385,0.87494
433.676,48.58408,-2.9181,0.14513,0.87459
434.276,48.643,-2.91942,0.14587,0.87424
434.876,48.70196,-2.92072,0.14522,0.87389
435.476,48.7608,-2.92162,0.14725,0.87354
436.076,48.81975,-2.92377,0.14628,0.87319
436.676,48.87873,-2.92447,0.1475,0.87283
437.276,48.93765,-2.92577,0.14917,0.87248
437.876,48.99669,-2.92714,0.14969,0.87213
438.476,49.0556,-2.92849,0.14762,0.87178
439.076,49.1143,-2.92976,0.14878,0.87142
439.676,49.17326,-2.93103,0.15067,0.87107
440.276,49.23205,-2.93236,0.15015,0.87072
440.876,49.29102,-2.93408,0.14798,0.87036
441.476,49.35008,-2.9363,0.15133,0.87001
442.076,49.40912,-2.93763,0.15244,0.86966
442.676,49.4681,-2.93911,0.15393,0.8693
443.276,49.52707,-2.93917,0.15554,0.86895
443.876,49.58598,-2.94057,0.15359,0.86859
444.476,49.6447,-2.94189,0.15467,0.86824
445.076,49.70371,-2.94322,0.15516,0.86788
445.676,49.76269,-2.94454,0.15979,0.86753
446.276,49.8215,-2.94506,0.15553,0.86717
446.876,49.88046,-2.94584,0.15862,0.86681
447.476,49.9394,-2.94716,0.15744,0.86646
448.076,49.9985,-2.94934,0.16054,0.8661
448.676,50.05767,-2.95022,0.15857,0.86574
449.276,50.1167,-2.95077,0.15971,0.86539
449.876,50.17565,-2.95079,0.16256,0.86503
450.476,50.23452,-2.95227,0.1597,0.86467
451.076,50.29356,-2.95352,0.16095,0.86431
451.676,50.3526,-2.95483,0.16156,0.86395
452.276,50.41168,-2.95616,0.16207,0.86359
452.876,50.4706,-2.95615,0.16054,0.86324
453.476,50.52965,-2.95878,0.16174,0.86288
454.076,50.58876,-2.95872,0.16362,0.86252
454.676,50.64784,-2.96125,0.1615,0.86216
455.276,50.70697,-2.96132,0.16416,0.8618
455.876,50.76594,-2.96203,0.16552,0.86144
456.476,50.82492,-2.96271,0.16628,0.86108
457.076,50.88389,-2.96537,0.16355,0.86072
457.676,50.9428,-2.96668,0.16401,0.86035
458.276,51.00197,-2.96801,0.16222,0.85999
458.876,51.06112,-2.9693,0.16039,0.85963
459.476,51.12052,-2.97063,0.16109,0.85927
460.076,51.17965,-2.97092,0.16257,0.85891
460.676,51.23907,-2.97186,0.1614,0.85854
461.276,51.2982,-2.9726,0.15996,0.85818
461.876,51.35739,-2.9739,0.16247,0.85782
462.476,51.41669,-2.97523,0.16178,0.85746
463.076,51.47598,-2.97635,0.15941,0.85709
463.676,51.53549,-2.9765,0.16177,0.85673
464.276,51.59491,-2.97786,0.16065,0.85636
464.876,51.65421,-2.97918,0.1603,0.856
465.476,51.71356,-2.98045,0.16261,0.85563
466.076,51.7729,-2.98233,0.16035,0.85527
466.676,51.8324,-2.98247,0.15849,0.8549
467.276,51.8918,-2.98378,0.16246,0.85454
467.876,51.95098,-2.98305,0.1604,0.85417
468.476,52.01015,-2.9838,0.16128,0.85381
469.076,52.06941,-2.98511,0.16284,0.85344
469.676,52.12851,-2.98643,0.16179,0.85307
470.276,52.18777,-2.98774,0.16543,0.85271
470.876,52.24693,-2.98906,0.16205,0.85234
471.476,52.30607,-2.98906,0.16346,0.85197
472.076,52.36528,-2.99038,0.16569,0.8516
472.676,52.4242,-2.99169,0.16337,0.85124
473.276,52.4831,-2.99171,0.1654,0.85087
473.876,52.5422,-2.99301,0.16206,0.8505
474.476,52.6009,-2.99437,0.16651,0.85013
475.076,52.66004,-2.99531,0.16493,0.84976
475.676,52.7191,-2.99432,0.16486,0.84939
476.276,52.7782,-2.99432,0.16524,0.84902
476.876,52.8375,-2.99664,0.16459,0.84865
477.476,52.89654,-2.99794,0.16195,0.84828
478.076,52.9551,-2.9982,0.16519,0.84791
478.676,53.01355,-2.99926,0.16536,0.84754
479.276,53.07245,-3.00059,0.16421,0.84717
479.876,53.13155,-3.00058,0.16599,0.8468
480.476,53.19098,-3.00186,0.16597,0.84642
481.076,53.25016,-3.00222,0.16744,0.84605
481.676,53.30933,-3.00352,0.16568,0.84568
482.276,53.3684,-3.00354,0.16386,0.84531
482.876,53.4275,-3.00484,0.16447,0.84493
483.476,53.4867,-3.00602,0.16499,0.84456
484.076,53.5455,-3.00617,0.16569,0.84419
484.676,53.6045,-3.0074,0.16442,0.84381
485.276,53.6636,-3.00845,0.16604,0.84344
485.876,53.72288,-3.01012,0.16761,0.84306
486.476,53.7822,-3.00995,0.16415,0.84269
487.076,53.8414,-3.01012,0.16472,0.84231
487.676,53.9005,-3.01277,0.16754,0.84194
488.276,53.9596,-3.01212,0.16454,0.84156
488.876,54.01886,-3.01275,0.16491,0.84119
489.476,54.07815,-3.01356,0.16341,0.84081
490.076,54.1376,-3.01406,0.16446,0.84043
490.676,54.19709,-3.01538,0.16563,0.84006
491.276,54.2565,-3.01653,0.16393,0.83968
491.876,54.3159,-3.0167,0.16416,0.8393
492.476,54.3753,-3.01677,0.16454,0.83892
493.076,54.43461,-3.01801,0.16259,0.83854
493.676,54.4937,-3.01812,0.16277,0.83817
494.276,54.5526,-3.01801,0.16156,0.83779
494.876,54.6116,-3.01933,0.16376,0.83741
495.476,54.67045,-3.02063,0.16457,0.83703
496.076,54.7295,-3.02064,0.16312,0.83665
496.676,54.7886,-3.02196,0.16354,0.83627
497.276,54.84786,-3.02196,0.16562,0.83589
497.876,54.90719,-3.02458,0.16588,0.83551
498.476,54.96651,-3.02472,0.16852,0.83513
499.076,55.02584,-3.02459,0.16966,0.83475
499.676,55.08515,-3.02459,0.17317,0.83436
500.276,55.14455,-3.02636,0.17553,0.83398
500.876,55.20389,-3.02692,0.17676,0.8336
501.476,55.26315,-3.02821,0.17648,0.83322
502.076,55.32255,-3.02952,0.17619,0.83284
502.676,55.3819,-3.02953,0.18079,0.83245
503.276,55.44177,-3.02954,0.18047,0.83207
503.876,55.50165,-3.03085,0.18013,0.83169
504.476,55.5618,-3.03216,0.18056,0.8313
505.076,55.6216,-3.03216,0.17884,0.83092
505.676,55.68113,-3.03215,0.18116,0.83053
506.276,55.7406,-3.03277,0.18045,0.83015
506.876,55.8003,-3.03216,0.18003,0.82976
507.476,55.85997,-3.03315,0.18103,0.82938
508.076,55.9199,-3.03348,0.18198,0.82899
508.676,55.97981,-3.03512,0.18072,0.82861
509.276,56.0397,-3.03609,0.179,0.82822
509.876,56.1,-3.03644,0.18228,0.82783
510.476,56.15979,-3.03708,0.18078,0.82744
511.076,56.2195,-3.03775,0.18331,0.82706
511.676,56.27916,-3.03806,0.18309,0.82667
512.276,56.33875,-3.03874,0.18333,0.82628
512.876,56.39836,-3.03907,0.1839,0.82589
513.476,56.458,-3.04043,0.18346,0.8255
514.076,56.5176,-3.04038,0.1853,0.82512
514.676,56.57711,-3.04039,0.18656,0.82473
515.276,56.6368,-3.04274,0.18579,0.82434
515.876,56.69627,-3.04302,0.1847,0.82395
516.476,56.7557,-3.04306,0.18386,0.82356
517.076,56.8149,-3.04303,0.18731,0.82317
517.676,56.8743,-3.04341,0.18444,0.82278
518.276,56.93374,-3.04434,0.18496,0.82238
518.876,56.99332,-3.04434,0.18516,0.82199
519.476,57.0528,-3.04566,0.18666,0.8216
520.076,57.11225,-3.04562,0.18504,0.82121
520.676,57.1716,-3.04697,0.18453,0.82082
521.276,57.2309,-3.04696,0.18445,0.82042
521.876,57.2904,-3.04829,0.18379,0.82003
522.476,57.3497,-3.04829,0.18084,0.81964
523.076,57.4093,-3.04961,0.1811,0.81924
523.676,57.46866,-3.04863,0.17805,0.81885
524.276,57.528,-3.04992,0.18012,0.81846
524.876,57.5875,-3.04993,0.17715,0.81806
525.476,57.64694,-3.05125,0.17416,0.81767
526.076,57.70618,-3.05124,0.1718,0.81727
526.676,57.7656,-3.05257,0.16997,0.81687
527.276,57.8247,-3.05257,0.16777,0.81648
527.876,57.88403,-3.05257,0.1673,0.81608
528.476,57.9434,-3.05387,0.16569,0.81569
529.076,58.00278,-3.05525,0.16863,0.81529
529.676,58.0622,-3.0552,0.16498,0.81489
530.276,58.1218,-3.05533,0.16391,0.81449
530.876,58.1815,-3.05651,0.16311,0.8141
531.476,58.24114,-3.05782,0.16195,0.8137
532.076,58.3006,-3.05849,0.15783,0.8133
532.676,58.3601,-3.05849,0.15804,0.8129
533.276,58.41965,-3.05717,0.1549,0.8125
533.876,58.4794,-3.05849,0.15241,0.8121
534.476,58.5394,-3.05976,0.15626,0.8117
535.076,58.59946,-3.06076,0.15166,0.8113
535.676,58.6594,-3.06211,0.14732,0.8109
536.276,58.71934,-3.06211,0.14906,0.8105
536.876,58.77913,-3.06211,0.14698,0.8101
537.476,58.8388,-3.06344,0.14186,0.8097
538.076,58.89827,-3.06343,0.14291,0.8093
538.676,58.95795,-3.06343,0.14285,0.80889
539.276,59.0179,-3.06473,0.14315,0.80849
539.876,59.0778,-3.06608,0.14077,0.80809
540.476,59.1378,-3.06606,0.14162,0.80769
541.076,59.1975,-3.06602,0.13763,0.80728
541.676,59.25719,-3.06606,0.13762,0.80688
542.276,59.31717,-3.06604,0.13607,0.80648
542.876,59.37715,-3.06779,0.13437,0.80607
543.476,59.43714,-3.06871,0.13456,0.80567
544.076,59.49715,-3.07001,0.13133,0.80526
544.676,59.5569,-3.07001,0.13205,0.80486
545.276,59.6166,-3.07034,0.1285,0.80445
545.876,59.6763,-3.07166,0.12776,0.80404
546.476,59.73607,-3.07164,0.12413,0.80364
547.076,59.79603,-3.07297,0.124,0.80323
547.676,59.85592,-3.07297,0.12418,0.80282
548.276,59.9157,-3.07265,0.12178,0.80242
548.876,59.9754,-3.07246,0.12222,0.80201
549.476,60.035,-3.07165,0.11911,0.8016
550.076,60.09479,-3.07392,0.12043,0.80119
550.676,60.1546,-3.07395,0.11882,0.80078
551.276,60.21436,-3.0739,0.11825,0.80038
551.876,60.274,-3.07395,0.11685,0.79997
552.476,60.3339,-3.07396,0.11788,0.79956
553.076,60.3937,-3.07524,0.11506,0.79915
553.676,60.45361,-3.07668,0.11376,0.79874
554.276,60.51355,-3.07688,0.11525,0.79833
554.876,60.57355,-3.07824,0.11424,0.79792
555.476,60.6337,-3.07791,0.11194,0.7975
556.076,60.6937,-3.07791,0.11278,0.79709
556.676,60.7538,-3.07813,0.11243,0.79668
557.276,60.81384,-3.08053,0.11021,0.79627
557.876,60.8738,-3.08053,0.11037,0.79586
558.476,60.93376,-3.08053,0.10893,0.79544
559.076,60.9937,-3.08054,0.10741,0.79503
559.676,61.05366,-3.08055,0.10672,0.79462
560.276,61.1137,-3.08053,0.10672,0.7942
560.876,61.17344,-3.08188,0.10873,0.79379
561.476,61.23352,-3.08347,0.10827,0.79337
562.076,61.2935,-3.08346,0.10846,0.79296
562.676,61.35357,-3.08484,0.1059,0.79254
563.276,61.41365,-3.08613,0.10695,0.79213
563.876,61.47342,-3.08613,0.10453,0.79171
564.476,61.53351,-3.08614,0.10401,0.7913
565.076,61.59352,-3.08484,0.10518,0.79088
565.676,61.6535,-3.08613,0.10523,0.79046
566.276,61.7133,-3.08613,0.10576,0.79004
566.876,61.7732,-3.08745,0.10541,0.78963
567.476,61.83328,-3.08739,0.10535,0.78921
568.076,61.89314,-3.08891,0.1069,0.78879
568.676,61.95285,-3.08877,0.10441,0.78837
569.276,62.01269,-3.08748,0.10438,0.78795
569.876,62.07264,-3.08877,0.10523,0.78753
570.476,62.13253,-3.08876,0.1051,0.78711
571.076,62.1925,-3.09008,0.1054,0.78669
571.676,62.2523,-3.09009,0.10755,0.78627
572.276,62.3122,-3.0914,0.10305,0.78585
572.876,62.37211,-3.0927,0.1061,0.78543
573.476,62.43206,-3.09139,0.10657,0.78501
574.076,62.49195,-3.09139,0.10779,0.78459
574.676,62.55183,-3.09189,0.10374,0.78417
575.276,62.6118,-3.09271,0.10488,0.78375
575.876,62.67194,-3.09271,0.10487,0.78332
576.476,62.7319,-3.09407,0.10901,0.7829
577.076,62.7919,-3.09401,0.10384,0.78248
577.676,62.85171,-3.09534,0.10537,0.78205
578.276,62.9117,-3.09534,0.10441,0.78163
578.876,62.97161,-3.09534,0.10311,0.78121
579.476,63.0316,-3.09535,0.10302,0.78078
580.076,63.0915,-3.09666,0.10192,0.78036
580.676,63.1514,-3.09564,0.10321,0.77993
581.276,63.21135,-3.09699,0.10269,0.77951
581.876,63.2714,-3.09699,0.10338,0.77908
582.476,63.3314,-3.0983,0.10288,0.77865
583.076,63.3911,-3.0983,0.10271,0.77823
583.676,63.4509,-3.09797,0.10303,0.7778
584.276,63.5107,-3.09931,0.10141,0.77737
584.876,63.5706,-3.09929,0.10046,0.77694
585.476,63.63064,-3.09929,0.10055,0.77652
586.076,63.6907,-3.10059,0.10102,0.77609
586.676,63.751,-3.1006,0.10477,0.77566
587.276,63.8112,-3.1006,0.1038,0.77523
587.876,63.87137,-3.10192,0.10428,0.7748
588.476,63.93095,-3.10192,0.10449,0.77437
589.076,63.99061,-3.10192,0.10525,0.77394
589.676,64.05019,-3.10324,0.10769,0.77351
590.276,64.11,-3.10291,0.10478,0.77308
590.876,64.17055,-3.10426,0.10548,0.77265
591.476,64.23098,-3.10324,0.10663,0.77222
592.076,64.29162,-3.10324,0.10462,0.77179
592.676,64.35199,-3.10323,0.10807,0.77136
593.276,64.41224,-3.10596,0.10796,0.77092
593.876,64.47243,-3.10719,0.1075,0.77049
594.476,64.53269,-3.1072,0.10624,0.77006
595.076,64.59277,-3.10621,0.10409,0.76962
595.676,64.6527,-3.1068,0.10827,0.76919
596.276,64.71279,-3.10752,0.10929,0.76876
596.876,64.77283,-3.10752,0.10861,0.76832
597.476,64.83319,-3.10718,0.10871,0.76789
598.076,64.89345,-3.10851,0.11098,0.76745
598.676,64.95381,-3.10846,0.11277,0.76702
599.276,65.014,-3.10865,0.11092,0.76658
599.876,65.07432,-3.10883,0.1132,0.76615
600.476,65.13454,-3.11012,0.11323,0.76571
601.076,65.19487,-3.11081,0.11198,0.76527
601.676,65.25527,-3.11081,0.1138,0.76484
602.276,65.31565,-3.11071,0.11502,0.7644
602.876,65.37609,-3.11213,0.11457,0.76396
603.476,65.4364,-3.11213,0.11748,0.76352
604.076,65.49685,-3.11347,0.11414,0.76308
604.676,65.55731,-3.11343,0.11699,0.76265
605.276,65.61765,-3.11476,0.1199,0.76221
605.876,65.67818,-3.11475,0.11996,0.76177
606.476,65.7386,-3.11398,0.12219,0.76133
607.076,65.79906,-3.11476,0.12146,0.76089
607.676,65.85974,-3.11476,0.11972,0.76045
608.276,65.92012,-3.11607,0.11947,0.76001
608.876,65.9804,-3.11644,0.12647,0.75957
609.476,66.04061,-3.11739,0.12589,0.75912
610.076,66.1007,-3.11739,0.12784,0.75868
610.676,66.16082,-3.11737,0.12952,0.75824
611.276,66.22126,-3.12004,0.13138,0.7578
611.876,66.28154,-3.1187,0.13129,0.75736
612.476,66.34173,-3.1187,0.13154,0.75691
613.076,66.4019,-3.11866,0.1355,0.75647
613.676,66.462,-3.12002,0.13341,0.75602
614.276,66.5223,-3.12007,0.13713,0.75558
614.876,66.5826,-3.12068,0.13979,0.75514
615.476,66.64305,-3.12135,0.13823,0.75469
616.076,66.70334,-3.12266,0.13906,0.75425
616.676,66.76358,-3.12398,0.14339,0.7538
617.276,66.8237,-3.1226,0.14321,0.75336
617.876,66.884,-3.12265,0.14438,0.75291
618.476,66.94431,-3.12257,0.14599,0.75246
619.076,67.00452,-3.12388,0.14782,0.75202
619.676,67.06497,-3.12529,0.14796,0.75157
620.276,67.1251,-3.1253,0.1485,0.75112
620.876,67.18531,-3.1256,0.15051,0.75067
621.476,67.24554,-3.12561,0.15146,0.75023
622.076,67.30579,-3.12561,0.15301,0.74978
622.676,67.366,-3.12594,0.1548,0.74933
623.276,67.42596,-3.12693,0.15455,0.74888
623.876,67.48544,-3.12819,0.158,0.74843
624.476,67.5454,-3.12824,0.15674,0.74798
625.076,67.60525,-3.12823,0.15887,0.74753
625.676,67.66594,-3.12956,0.15854,0.74708
626.276,67.72635,-3.12956,0.1581,0.74663
626.876,67.78668,-3.12959,0.1629,0.74618
627.476,67.84697,-3.13088,0.16497,0.74573
628.076,67.90685,-3.13088,0.16306,0.74528
628.676,67.96718,-3.13088,0.16689,0.74482
629.276,68.0275,-3.13218,0.16772,0.74437
629.876,68.0879,-3.13219,0.17136,0.74392
630.476,68.14806,-3.13219,0.16856,0.74347
631.076,68.20851,-3.13219,0.17226,0.74301
631.676,68.26908,-3.13349,0.16919,0.74256
632.276,68.32989,-3.13483,0.17492,0.74211
632.876,68.39026,-3.13614,0.17761,0.74165
633.476,68.45045,-3.13614,0.17765,0.7412
634.076,68.51026,-3.13614,0.17676,0.74074
634.676,68.57064,-3.13746,0.17738,0.74029
635.276,68.63094,-3.13744,0.17936,0.73983
635.876,68.69165,-3.13714,0.18409,0.73937
636.476,68.75245,-3.13845,0.18487,0.73892
637.076,68.81281,-3.13845,0.18568,0.73846
637.676,68.87318,-3.13844,0.18696,0.738
638.276,68.93336,-3.13845,0.18745,0.73755
638.876,68.99331,-3.13863,0.19218,0.73709
639.476,69.0533,-3.14109,0.19099,0.73663
640.076,69.11335,-3.14109,0.19599,0.73617
640.676,69.17385,-3.14251,0.19816,0.73571
641.276,69.2343,-3.14271,0.20019,0.73526
641.876,69.2949,-3.14404,0.20051,0.7348
642.476,69.35512,-3.14399,0.20308,0.73434
643.076,69.41589,-3.14475,0.20376,0.73388
643.676,69.4762,-3.14536,0.2023,0.73342
644.276,69.5369,-3.14536,0.20616,0.73296
644.876,69.59751,-3.14657,0.2071,0.7325
645.476,69.65796,-3.14668,0.2093,0.73203
646.076,69.71857,-3.14764,0.21332,0.73157
646.676,69.77919,-3.147,0.21502,0.73111
647.276,69.8398,-3.14832,0.21657,0.73065
647.876,69.9003,-3.14964,0.21517,0.73019
648.476,69.96092,-3.14964,0.21871,0.72972
649.076,70.0214,-3.15096,0.21815,0.72926
649.676,70.0819,-3.15227,0.21971,0.7288
650.276,70.14236,-3.15228,0.21785,0.72833
650.876,70.20277,-3.15358,0.21861,0.72787
651.476,70.26343,-3.15358,0.22257,0.7274
652.076,70.32392,-3.15392,0.22253,0.72694
652.676,70.38445,-3.1549,0.22475,0.72647
653.276,70.44494,-3.15489,0.22548,0.72601
653.876,70.5054,-3.15622,0.22586,0.72554
654.476,70.56603,-3.15585,0.2259,0.72508
655.076,70.6266,-3.15687,0.22659,0.72461
655.676,70.68732,-3.15722,0.22912,0.72414
656.276,70.74791,-3.15851,0.23001,0.72368
656.876,70.80844,-3.15852,0.23098,0.72321
657.476,70.8689,-3.15977,0.23105,0.72274
658.076,70.9293,-3.16016,0.23014,0.72227
658.676,70.98977,-3.15984,0.22991,0.72181
659.276,71.05033,-3.15985,0.22936,0.72134
659.876,71.11072,-3.16116,0.23463,0.72087
660.476,71.1711,-3.16115,0.23397,0.7204
661.076,71.23155,-3.16378,0.2345,0.71993
661.676,71.292,-3.16264,0.23545,0.71946
662.276,71.35235,-3.16379,0.23258,0.71899
662.876,71.4127,-3.16379,0.23566,0.71852
663.476,71.47314,-3.16379,0.23216,0.71805
664.076,71.53359,-3.16512,0.23484,0.71758
664.676,71.59429,-3.16639,0.2315,0.71711
665.276,71.65481,-3.16642,0.23116,0.71663
665.876,71.7152,-3.16691,0.23258,0.71616
666.476,71.77571,-3.16829,0.22994,0.71569
667.076,71.83615,-3.1684,0.23,0.71522
667.676,71.8968,-3.16974,0.23171,0.71474
668.276,71.95724,-3.17101,0.23149,0.71427
668.876,72.01769,-3.17095,0.23169,0.7138
669.476,72.07822,-3.17234,0.23122,0.71332
670.076,72.1387,-3.17363,0.23038,0.71285
670.676,72.19912,-3.173,0.22811,0.71237
671.276,72.25944,-3.17432,0.22949,0.7119
671.876,72.31967,-3.17432,0.22347,0.71142
672.476,72.38006,-3.17531,0.22338,0.71095
673.076,72.44035,-3.17497,0.22196,0.71047
673.676,72.50072,-3.17496,0.21775,0.70999
674.276,72.56115,-3.17629,0.21629,0.70952
674.876,72.62162,-3.17759,0.2183,0.70904
675.476,72.68211,-3.17761,0.21219,0.70856
676.076,72.74271,-3.17877,0.21321,0.70809
676.676,72.80331,-3.17892,0.21124,0.70761
677.276,72.86374,-3.17891,0.2053,0.70713
677.876,72.92441,-3.18024,0.2017,0.70665
678.476,72.98493,-3.18024,0.20149,0.70617
679.076,73.0458,-3.18024,0.19587,0.70569
679.676,73.1063,-3.1809,0.19424,0.70522
680.276,73.16654,-3.18089,0.19032,0.70474
680.876,73.22713,-3.18084,0.18709,0.70426
681.476,73.28791,-3.18221,0.18284,0.70378
682.076,73.34884,-3.18221,0.18225,0.7033
682.676,73.40961,-3.18222,0.17885,0.70281
683.276,73.47033,-3.18222,0.17883,0.70233
683.876,73.5309,-3.18356,0.17042,0.70185
684.476,73.59161,-3.18484,0.1671,0.70137
685.076,73.65212,-3.18624,0.17266,0.70089
685.676,73.7126,-3.18621,0.17525,0.70041
686.276,73.77311,-3.18485,0.17052,0.69992
686.876,73.8335,-3.18485,0.17316,0.69944
687.476,73.89386,-3.18617,0.17285,0.69896
688.076,73.95434,-3.18617,0.16971,0.69847
688.676,74.01485,-3.1862,0.17417,0.69799
689.276,74.07549,-3.18814,0.17671,0.6975
689.876,74.13606,-3.18814,0.17483,0.69702
690.476,74.19664,-3.18804,0.17104,0.69654
691.076,74.2573,-3.18914,0.17204,0.69605
691.676,74.3181,-3.18781,0.17473,0.69556
692.276,74.37911,-3.18781,0.17476,0.69508
692.876,74.43994,-3.18814,0.17736,0.69459
693.476,74.5007,-3.18945,0.1754,0.69411
694.076,74.56113,-3.1905,0.17338,0.69362
694.676,74.62174,-3.19077,0.17287,0.69313
695.276,74.6823,-3.19077,0.17504,0.69265
695.876,74.74288,-3.19077,0.17395,0.69216
696.476,74.80354,-3.19206,0.17606,0.69167
697.076,74.8642,-3.19349,0.17778,0.69118
697.676,74.925,-3.1934,0.17697,0.69069
698.276,74.98575,-3.1934,0.17847,0.69021
698.876,75.04671,-3.1934,0.17949,0.68972
699.476,75.1074,-3.19341,0.17505,0.68923
700.076,75.16805,-3.19472,0.17739,0.68874
700.676,75.22879,-3.19469,0.17766,0.68825
701.276,75.28926,-3.19538,0.17748,0.68776
701.876,75.34988,-3.19538,0.1757,0.68727
702.476,75.41043,-3.19669,0.17399,0.68678
703.076,75.47106,-3.19669,0.17572,0.68628
703.676,75.5317,-3.19669,0.17644,0.68579
704.276,75.59251,-3.19669,0.17529,0.6853
704.876,75.6533,-3.19663,0.17449,0.68481
705.476,75.7139,-3.19804,0.17556,0.68432
706.076,75.77457,-3.19768,0.17679,0.68383
706.676,75.8353,-3.199,0.17701,0.68333
707.276,75.89596,-3.19899,0.1755,0.68284
707.876,75.9566,-3.19899,0.17498,0.68235
708.476,76.01739,-3.1989,0.1771,0.68185
709.076,76.07815,-3.20031,0.17345,0.68136
709.676,76.1387,-3.20031,0.17796,0.68086
710.276,76.19918,-3.2013,0.17483,0.68037
710.876,76.25959,-3.2013,0.17612,0.67987
711.476,76.3202,-3.2013,0.17666,0.67938
712.076,76.38082,-3.2013,0.17915,0.67888
712.676,76.4414,-3.20261,0.17871,0.67839
713.276,76.50202,-3.20261,0.17659,0.67789
713.876,76.56272,-3.20295,0.17771,0.6774
714.476,76.6235,-3.20295,0.17312,0.6769
715.076,76.68434,-3.20297,0.17704,0.6764
715.676,76.7453,-3.20427,0.17523,0.67591
716.276,76.80656,-3.20532,0.17547,0.67541
716.876,76.86752,-3.20526,0.17848,0.67491
717.476,76.92819,-3.20493,0.17834,0.67441
718.076,76.98905,-3.2055,0.17875,0.67391
718.676,77.04989,-3.20624,0.17539,0.67342
719.276,77.11115,-3.20756,0.17602,0.67292
719.876,77.17227,-3.20623,0.17467,0.67242
720.476,77.2333,-3.20651,0.17536,0.67192
721.076,77.29423,-3.20623,0.17582,0.67142
721.676,77.35517,-3.20755,0.17082,0.67092
722.276,77.41585,-3.20755,0.17157,0.67042
722.876,77.47666,-3.20755,0.17148,0.66992
723.476,77.53735,-3.20886,0.17249,0.66942
724.076,77.59816,-3.20887,0.17748,0.66892
724.676,77.65861,-3.20888,0.1744,0.66842
725.276,77.71924,-3.21019,0.17757,0.66791
725.876,77.77973,-3.2102,0.17621,0.66741
726.476,77.84028,-3.20986,0.17437,0.66691
727.076,77.90064,-3.20886,0.17601,0.66641
727.676,77.9612,-3.20885,0.17637,0.6659
728.276,78.0218,-3.21018,0.17577,0.6654
728.876,78.08245,-3.21151,0.1723,0.6649
729.476,78.14309,-3.21144,0.17469,0.6644
730.076,78.20381,-3.21282,0.17711,0.66389
730.676,78.2644,-3.2126,0.1767,0.66339
731.276,78.32508,-3.2115,0.17619,0.66288
731.876,78.38538,-3.21179,0.178,0.66238
732.476,78.44574,-3.21421,0.17835,0.66187
733.076,78.50591,-3.21544,0.18279,0.66137
733.676,78.56621,-3.21412,0.17524,0.66086
734.276,78.6264,-3.21413,0.17857,0.66036
734.876,78.68688,-3.21413,0.17886,0.65985
735.476,78.74723,-3.21378,0.17684,0.65935
736.076,78.8082,-3.2138,0.17612,0.65884
736.676,78.8692,-3.21512,0.17803,0.65833
737.276,78.9302,-3.21414,0.17465,0.65783
737.876,78.99114,-3.2155,0.17294,0.65732
738.476,79.05198,-3.21545,0.17354,0.65681
739.076,79.11279,-3.21674,0.17361,0.6563
739.676,79.17367,-3.21779,0.17168,0.6558
740.276,79.23451,-3.21644,0.17239,0.65529
740.876,79.2953,-3.21662,0.17444,0.65478
741.476,79.3562,-3.21678,0.17144,0.65427
742.076,79.4171,-3.21809,0.17057,0.65376
742.676,79.47803,-3.21678,0.1681,0.65325
743.276,79.539,-3.21811,0.17228,0.65274
743.876,79.59996,-3.21809,0.17329,0.65223
744.476,79.6608,-3.2194,0.1692,0.65172
745.076,79.7217,-3.21807,0.16637,0.65121
745.676,79.78248,-3.21808,0.17068,0.6507
746.276,79.8434,-3.21942,0.17073,0.65019
746.876,79.90439,-3.22228,0.16895,0.64968
747.476,79.96547,-3.22215,0.16756,0.64917
747.776,79.99637,-3.22072,0.17075,0.64891