File: 01_Data/Gypsum_Wallboard_Paper/STA/N2/10K_min/Gypsum_Wallboard_Paper_STA_N2_10KData_220216_R2.csv
##Temp./Â°C,Time/min,Mass loss(subtr.2)/mg,DSC(subtr.2)/(mW/mg),Sensit./(uV/mW)
49.656,10.00917,-0.07974,0.02389301,1.07518
50.256,10.72591,-0.08319981,0.0532178,1.07487
50.856,10.91573,-0.08614207,0.07563959,1.07455
51.456,11.05589,-0.08819275,0.0937225,1.07424
52.056,11.17504,-0.08739658,0.10945,1.07393
52.656,11.28117,-0.0893293,0.1218,1.07361
53.256,11.37712,-0.08828015,0.13401,1.0733
53.856,11.4671,-0.08927314,0.13826,1.07299
54.456,11.55328,-0.09057964,0.15058,1.07268
55.056,11.63547,-0.08996582,0.15863,1.07237
55.656,11.7149,-0.09099833,0.16361,1.07205
56.256,11.79176,-0.09143252,0.17175,1.07174
56.856,11.8672,-0.09333199,0.18053,1.07143
57.456,11.9409,-0.09320396,0.18667,1.07112
58.056,12.0131,-0.09254937,0.19076,1.0708
58.656,12.08403,-0.09225432,0.19447,1.07049
59.256,12.1539,-0.09313695,0.1993,1.07018
59.856,12.2232,-0.09313515,0.20415,1.06987
60.456,12.29159,-0.09408592,0.20782,1.06956
61.056,12.3596,-0.09393339,0.21303,1.06925
61.656,12.42707,-0.09451108,0.21551,1.06893
62.256,12.49439,-0.0945928,0.21931,1.06862
62.856,12.5618,-0.09529503,0.22101,1.06831
63.456,12.62835,-0.09719386,0.22679,1.068
64.056,12.69462,-0.09724113,0.23082,1.06769
64.656,12.75998,-0.09719115,0.23371,1.06738
65.256,12.82599,-0.0978478,0.23564,1.06706
65.856,12.89173,-0.09849973,0.23921,1.06675
66.456,12.95715,-0.0998073,0.2419,1.06644
67.056,13.02225,-0.10002,0.24384,1.06613
67.656,13.08664,-0.0997227,0.24684,1.06582
68.256,13.15121,-0.10113,0.24836,1.06551
68.856,13.21584,-0.10204,0.25182,1.0652
69.456,13.28023,-0.10245,0.25707,1.06489
70.056,13.34489,-0.10147,0.25878,1.06458
70.656,13.40882,-0.10245,0.26331,1.06426
71.256,13.4729,-0.10337,0.26515,1.06395
71.856,13.53669,-0.10244,0.26713,1.06364
72.456,13.6005,-0.10382,0.27016,1.06333
73.056,13.66421,-0.10517,0.27419,1.06302
73.656,13.72781,-0.10505,0.27679,1.06271
74.256,13.7911,-0.10509,0.28066,1.0624
74.856,13.85454,-0.10544,0.28299,1.06209
75.456,13.9174,-0.10431,0.28542,1.06178
76.056,13.9801,-0.10693,0.28909,1.06147
76.656,14.0428,-0.10826,0.29403,1.06116
77.256,14.1051,-0.10883,0.29569,1.06085
77.856,14.16787,-0.10952,0.30085,1.06054
78.456,14.2302,-0.11089,0.30333,1.06023
79.056,14.2925,-0.10957,0.3073,1.05992
79.656,14.3545,-0.10986,0.3084,1.05961
80.256,14.4166,-0.11178,0.30916,1.0593
80.856,14.4787,-0.11353,0.31304,1.05899
81.456,14.54093,-0.11484,0.31695,1.05868
82.056,14.6028,-0.11484,0.31886,1.05837
82.656,14.6645,-0.11513,0.32133,1.05806
83.256,14.72614,-0.11648,0.32228,1.05775
83.856,14.78759,-0.11648,0.32499,1.05744
84.456,14.84905,-0.11746,0.32524,1.05713
85.056,14.91,-0.11747,0.329,1.05682
85.656,14.97117,-0.11743,0.3279,1.05651
86.256,15.032,-0.12012,0.32998,1.0562
86.856,15.093,-0.12143,0.33123,1.05589
87.456,15.1537,-0.12275,0.33022,1.05558
88.056,15.21441,-0.12274,0.33376,1.05528
88.656,15.275,-0.12237,0.33276,1.05497
89.256,15.33565,-0.12274,0.33558,1.05466
89.856,15.39605,-0.12405,0.33493,1.05435
90.456,15.45636,-0.12405,0.33529,1.05404
91.056,15.5165,-0.12536,0.33392,1.05373
91.656,15.57675,-0.12439,0.33497,1.05342
92.256,15.637,-0.12574,0.338,1.05311
92.856,15.697,-0.1257,0.33663,1.0528
93.456,15.7567,-0.12644,0.33898,1.0525
94.056,15.8163,-0.12985,0.33649,1.05219
94.656,15.8758,-0.12976,0.33788,1.05188
95.256,15.93549,-0.12976,0.3379,1.05157
95.856,15.9953,-0.13108,0.33643,1.05126
96.456,16.0549,-0.13107,0.33655,1.05095
97.056,16.11453,-0.13107,0.33857,1.05064
97.656,16.17379,-0.13231,0.33722,1.05034
98.256,16.23325,-0.13239,0.33737,1.05003
98.856,16.2923,-0.1338,0.33658,1.04972
99.456,16.3515,-0.13371,0.33541,1.04941
100.056,16.4105,-0.13502,0.33461,1.0491
100.656,16.46927,-0.13502,0.335,1.0488
101.256,16.52855,-0.13634,0.33653,1.04849
101.856,16.58771,-0.13636,0.33307,1.04818
102.456,16.64694,-0.13603,0.33599,1.04787
103.056,16.70597,-0.13736,0.33588,1.04756
103.656,16.7649,-0.13732,0.3349,1.04726
104.256,16.82381,-0.13733,0.33314,1.04695
104.856,16.88276,-0.13864,0.33105,1.04664
105.456,16.94171,-0.13861,0.33145,1.04633
106.056,17.00106,-0.13996,0.33223,1.04603
106.656,17.06038,-0.13996,0.33052,1.04572
107.256,17.11942,-0.14063,0.33091,1.04541
107.856,17.17821,-0.14127,0.32911,1.04511
108.456,17.23694,-0.14127,0.32816,1.0448
109.056,17.2956,-0.14259,0.32776,1.04449
109.656,17.35406,-0.14259,0.32789,1.04418
110.256,17.41297,-0.14259,0.32809,1.04388
110.856,17.47198,-0.144,0.32723,1.04357
111.456,17.5313,-0.14392,0.32671,1.04326
112.056,17.59025,-0.14522,0.32522,1.04296
112.656,17.64895,-0.14522,0.32642,1.04265
113.256,17.70759,-0.14522,0.32188,1.04234
113.856,17.7663,-0.14655,0.32295,1.04203
114.456,17.8251,-0.14796,0.32105,1.04173
115.056,17.88401,-0.14796,0.32106,1.04142
115.656,17.94285,-0.14938,0.32135,1.04111
116.256,18.00163,-0.1519,0.31783,1.04081
116.856,18.0603,-0.15192,0.3165,1.0405
117.456,18.11886,-0.15192,0.31525,1.0402
118.056,18.1778,-0.15192,0.31676,1.03989
118.656,18.23653,-0.15321,0.3141,1.03958
119.256,18.29526,-0.15323,0.31306,1.03928
119.856,18.35399,-0.15318,0.31325,1.03897
120.456,18.41239,-0.15455,0.3113,1.03866
121.056,18.4709,-0.15462,0.31147,1.03836
121.656,18.52923,-0.15586,0.30719,1.03805
122.256,18.58744,-0.15586,0.30397,1.03775
122.856,18.64591,-0.15586,0.30361,1.03744
123.456,18.70393,-0.15595,0.29986,1.03713
124.056,18.7623,-0.15454,0.29823,1.03683
124.656,18.82075,-0.15454,0.29807,1.03652
125.256,18.87923,-0.15586,0.29544,1.03622
125.856,18.93789,-0.15586,0.29388,1.03591
126.456,18.99616,-0.15588,0.29002,1.0356
127.056,19.05445,-0.15652,0.28844,1.0353
127.656,19.11266,-0.15653,0.28744,1.03499
128.256,19.171,-0.15718,0.28537,1.03469
128.856,19.2292,-0.15653,0.2885,1.03438
129.456,19.28751,-0.15718,0.28678,1.03408
130.056,19.34574,-0.15786,0.28527,1.03377
130.656,19.40399,-0.15784,0.28151,1.03347
131.256,19.46237,-0.15787,0.28324,1.03316
131.856,19.52061,-0.15916,0.28087,1.03286
132.456,19.57872,-0.1585,0.28159,1.03255
133.056,19.63641,-0.15987,0.28078,1.03224
133.656,19.69398,-0.16122,0.28153,1.03194
134.256,19.75165,-0.16116,0.27743,1.03163
134.856,19.80913,-0.15981,0.28017,1.03133
135.456,19.86717,-0.16112,0.27571,1.03102
136.056,19.92521,-0.16114,0.27732,1.03072
136.656,19.98349,-0.16009,0.27662,1.03041
137.256,20.04194,-0.16146,0.277,1.03011
137.856,20.1007,-0.16146,0.27666,1.02981
138.456,20.15944,-0.16244,0.27728,1.0295
139.056,20.218,-0.16145,0.27489,1.0292
139.656,20.27628,-0.16187,0.27474,1.02889
140.256,20.33456,-0.1628,0.27582,1.02859
140.856,20.39261,-0.16245,0.2731,1.02828
141.456,20.45083,-0.16245,0.27567,1.02798
142.056,20.50865,-0.16244,0.27691,1.02767
142.656,20.56629,-0.16377,0.27467,1.02737
143.256,20.62406,-0.16506,0.27433,1.02706
143.856,20.682,-0.16508,0.27502,1.02676
144.456,20.74001,-0.16376,0.27553,1.02645
145.056,20.79806,-0.16242,0.27572,1.02615
145.656,20.85576,-0.16377,0.27392,1.02585
146.256,20.9135,-0.16508,0.27495,1.02554
146.856,20.9714,-0.16508,0.27746,1.02524
147.456,21.02938,-0.16376,0.27473,1.02493
148.056,21.0872,-0.16376,0.27791,1.02463
148.656,21.14479,-0.16484,0.27936,1.02433
149.256,21.2022,-0.16606,0.27883,1.02402
149.856,21.25985,-0.16607,0.27832,1.02372
150.456,21.31772,-0.16609,0.281,1.02341
151.056,21.37547,-0.16606,0.28096,1.02311
151.656,21.43321,-0.16606,0.28189,1.02281
152.256,21.4908,-0.16742,0.28205,1.0225
152.856,21.54843,-0.1661,0.28204,1.0222
153.456,21.6063,-0.16607,0.28106,1.02189
154.056,21.66401,-0.16704,0.28242,1.02159
154.656,21.72162,-0.16706,0.28353,1.02129
155.256,21.77918,-0.16706,0.28415,1.02098
155.856,21.83695,-0.16706,0.28312,1.02068
156.456,21.8947,-0.16706,0.28485,1.02038
157.056,21.9524,-0.16707,0.28527,1.02007
157.656,22.01013,-0.16738,0.2841,1.01977
158.256,22.06771,-0.16871,0.28403,1.01946
158.856,22.12544,-0.1687,0.28594,1.01916
159.456,22.18303,-0.1687,0.2857,1.01886
160.056,22.2406,-0.1687,0.28625,1.01855
160.656,22.2984,-0.16738,0.28705,1.01825
161.256,22.3562,-0.16868,0.28858,1.01795
161.856,22.41372,-0.1687,0.28359,1.01764
162.456,22.47129,-0.17009,0.28491,1.01734
163.056,22.52899,-0.17001,0.28561,1.01704
163.656,22.5868,-0.17138,0.28809,1.01673
164.256,22.6445,-0.17134,0.28693,1.01643
164.856,22.70199,-0.17002,0.28551,1.01613
165.456,22.7595,-0.17002,0.28558,1.01582
166.056,22.8172,-0.16902,0.28731,1.01552
166.656,22.87518,-0.16903,0.28941,1.01522
167.256,22.9327,-0.17032,0.29038,1.01492
167.856,22.99033,-0.17169,0.28832,1.01461
168.456,23.0479,-0.17166,0.2895,1.01431
169.056,23.10557,-0.17281,0.29034,1.01401
169.656,23.16341,-0.17298,0.28963,1.0137
170.256,23.22117,-0.17215,0.28983,1.0134
170.856,23.279,-0.17166,0.28938,1.0131
171.456,23.33653,-0.17166,0.28904,1.01279
172.056,23.39378,-0.17164,0.29046,1.01249
172.656,23.4513,-0.17232,0.29121,1.01219
173.256,23.50881,-0.17297,0.29091,1.01189
173.856,23.5659,-0.17298,0.28989,1.01158
174.456,23.62363,-0.173,0.29197,1.01128
175.056,23.68111,-0.17429,0.29404,1.01098
175.656,23.7385,-0.1733,0.29415,1.01068
176.256,23.79597,-0.1733,0.29458,1.01037
176.856,23.85332,-0.17322,0.29475,1.01007
177.456,23.91074,-0.17462,0.29618,1.00977
178.056,23.96861,-0.17462,0.29568,1.00946
178.656,24.0261,-0.17462,0.29713,1.00916
179.256,24.0836,-0.17462,0.29669,1.00886
179.856,24.1408,-0.17462,0.2991,1.00856
180.456,24.19807,-0.17566,0.29791,1.00825
181.056,24.25531,-0.17566,0.30097,1.00795
181.656,24.31286,-0.1727,0.30146,1.00765
182.256,24.37025,-0.17425,0.29991,1.00735
182.856,24.4277,-0.17419,0.30289,1.00704
183.456,24.4852,-0.17544,0.3031,1.00674
184.056,24.54247,-0.17681,0.30192,1.00644
184.656,24.5999,-0.17681,0.30556,1.00614
185.256,24.65725,-0.17681,0.30322,1.00583
185.856,24.71463,-0.17822,0.30262,1.00553
186.456,24.77216,-0.17749,0.30421,1.00523
187.056,24.82979,-0.17751,0.3028,1.00493
187.656,24.88728,-0.17859,0.30428,1.00462
188.256,24.9448,-0.17747,0.30398,1.00432
188.856,25.00221,-0.17877,0.30562,1.00402
189.456,25.05939,-0.17878,0.30692,1.00372
190.056,25.11671,-0.18015,0.30622,1.00341
190.656,25.17391,-0.1801,0.30644,1.00311
191.256,25.2314,-0.18143,0.30682,1.00281
191.856,25.28888,-0.18111,0.30774,1.00251
192.456,25.34633,-0.1801,0.30807,1.00221
193.056,25.40377,-0.18236,0.30876,1.0019
193.656,25.46105,-0.18241,0.30839,1.0016
194.256,25.5186,-0.18241,0.30796,1.0013
194.856,25.5759,-0.18208,0.31107,1.001
195.456,25.6332,-0.18208,0.31209,1.00069
196.056,25.69045,-0.18339,0.31443,1.00039
196.656,25.74765,-0.18338,0.3112,1.00009
197.256,25.80511,-0.18273,0.31112,0.99979
197.856,25.8624,-0.18273,0.31227,0.99948
198.456,25.9198,-0.18273,0.31298,0.99918
199.056,25.97723,-0.18209,0.31338,0.99888
199.656,26.03453,-0.18208,0.31409,0.99858
200.256,26.09185,-0.1821,0.31618,0.99828
200.856,26.14891,-0.1834,0.31774,0.99797
201.456,26.20611,-0.1834,0.31806,0.99767
202.056,26.26313,-0.18416,0.3172,0.99737
202.656,26.32018,-0.18603,0.31824,0.99707
203.256,26.37755,-0.18603,0.31849,0.99676
203.856,26.4349,-0.18603,0.31911,0.99646
204.456,26.49232,-0.18463,0.31748,0.99616
205.056,26.54996,-0.18472,0.31945,0.99586
205.656,26.60735,-0.18471,0.32009,0.99555
206.256,26.6647,-0.18734,0.32068,0.99525
206.856,26.72196,-0.18734,0.32002,0.99495
207.456,26.77927,-0.18734,0.3202,0.99465
208.056,26.83645,-0.18603,0.32029,0.99435
208.656,26.8939,-0.18706,0.32564,0.99404
209.256,26.9513,-0.18735,0.32307,0.99374
209.856,27.00885,-0.18866,0.32234,0.99344
210.456,27.0667,-0.18866,0.32501,0.99314
211.056,27.1242,-0.18896,0.32467,0.99283
211.656,27.1817,-0.18965,0.3223,0.99253
212.256,27.2392,-0.18965,0.32372,0.99223
212.856,27.2967,-0.19096,0.32471,0.99193
213.456,27.35427,-0.19144,0.32517,0.99162
214.056,27.4119,-0.19227,0.32425,0.99132
214.656,27.46919,-0.1913,0.32373,0.99102
215.256,27.5266,-0.1913,0.32411,0.99072
215.856,27.58377,-0.19134,0.3263,0.99042
216.456,27.6408,-0.19359,0.32627,0.99011
217.056,27.6978,-0.19359,0.32709,0.98981
217.656,27.75508,-0.19359,0.33021,0.98951
218.256,27.81226,-0.19359,0.3297,0.98921
218.856,27.86983,-0.19359,0.32765,0.9889
219.456,27.92697,-0.19383,0.32764,0.9886
220.056,27.9842,-0.19524,0.33099,0.9883
220.656,28.04151,-0.19524,0.33,0.988
221.256,28.0988,-0.19655,0.33098,0.98769
221.856,28.15612,-0.19788,0.33144,0.98739
222.456,28.21335,-0.19788,0.33155,0.98709
223.056,28.2706,-0.19924,0.33197,0.98679
223.656,28.3278,-0.2005,0.33481,0.98648
224.256,28.38477,-0.2005,0.33379,0.98618
224.856,28.44192,-0.2005,0.33316,0.98588
225.456,28.4991,-0.20182,0.33319,0.98557
226.056,28.55643,-0.20182,0.33456,0.98527
226.656,28.6136,-0.20315,0.33577,0.98497
227.256,28.6709,-0.20444,0.33794,0.98467
227.856,28.72809,-0.20708,0.33825,0.98436
228.456,28.78538,-0.2069,0.33988,0.98406
229.056,28.84242,-0.2061,0.3378,0.98376
229.656,28.89961,-0.2061,0.33931,0.98346
230.256,28.95682,-0.207,0.34121,0.98315
230.856,29.0141,-0.20841,0.34069,0.98285
231.456,29.0716,-0.20841,0.3405,0.98255
232.056,29.12895,-0.20874,0.34017,0.98224
232.656,29.1863,-0.21004,0.34195,0.98194
233.256,29.24372,-0.21138,0.34048,0.98164
233.856,29.30113,-0.21137,0.34347,0.98133
234.456,29.3584,-0.2127,0.34367,0.98103
235.056,29.41572,-0.21517,0.34401,0.98073
235.656,29.47308,-0.21531,0.34416,0.98043
236.256,29.5304,-0.21531,0.34483,0.98012
236.856,29.58783,-0.21663,0.34418,0.97982
237.456,29.64507,-0.21795,0.34648,0.97952
238.056,29.70218,-0.21795,0.34393,0.97921
238.656,29.7594,-0.21795,0.34632,0.97891
239.256,29.8167,-0.21926,0.34856,0.97861
239.856,29.8739,-0.22073,0.34987,0.9783
240.456,29.93113,-0.22345,0.35015,0.978
241.056,29.98848,-0.22606,0.35023,0.9777
241.656,30.04559,-0.22606,0.35057,0.97739
242.256,30.1029,-0.22527,0.35343,0.97709
242.856,30.1601,-0.22673,0.35142,0.97679
243.456,30.2173,-0.22805,0.35495,0.97648
244.056,30.2748,-0.22936,0.35471,0.97618
244.656,30.3323,-0.23003,0.35332,0.97587
245.256,30.3895,-0.23133,0.35596,0.97557
245.856,30.4467,-0.2327,0.35888,0.97527
246.456,30.50399,-0.23407,0.35585,0.97496
247.056,30.5613,-0.23523,0.35769,0.97466
247.656,30.6187,-0.23754,0.35863,0.97436
248.256,30.676,-0.23918,0.35931,0.97405
248.856,30.73315,-0.24073,0.36159,0.97375
249.456,30.79056,-0.24296,0.35993,0.97344
250.056,30.848,-0.24459,0.35857,0.97314
250.656,30.90547,-0.24533,0.35901,0.97283
251.256,30.96299,-0.24656,0.35881,0.97253
251.856,31.0203,-0.24929,0.35733,0.97223
252.456,31.07767,-0.25066,0.35697,0.97192
253.056,31.13503,-0.25185,0.35697,0.97162
253.656,31.1926,-0.25445,0.35694,0.97131
254.256,31.25,-0.25719,0.35716,0.97101
254.856,31.30742,-0.25946,0.35854,0.9707
255.456,31.3649,-0.2614,0.35768,0.9704
256.056,31.4219,-0.26239,0.3572,0.9701
256.656,31.4793,-0.26392,0.35967,0.96979
257.256,31.53636,-0.26522,0.35853,0.96949
257.856,31.59308,-0.26842,0.36084,0.96918
258.456,31.65079,-0.26831,0.3593,0.96888
259.056,31.70787,-0.27122,0.35983,0.96857
259.656,31.7658,-0.27432,0.36104,0.96827
260.256,31.82371,-0.27682,0.36176,0.96796
260.856,31.8814,-0.27862,0.36256,0.96766
261.456,31.9387,-0.28186,0.36499,0.96735
262.056,31.99604,-0.28409,0.36506,0.96705
262.656,32.0535,-0.2872,0.36557,0.96674
263.256,32.11074,-0.28988,0.36842,0.96644
263.856,32.16814,-0.29277,0.36753,0.96613
264.456,32.22531,-0.29428,0.37138,0.96583
265.056,32.28255,-0.29677,0.37315,0.96552
265.656,32.33996,-0.30059,0.37104,0.96521
266.256,32.3973,-0.30493,0.3752,0.96491
266.856,32.45466,-0.30812,0.37613,0.9646
267.456,32.512,-0.3113,0.37591,0.9643
268.056,32.56949,-0.31494,0.37778,0.96399
268.656,32.62686,-0.31872,0.37855,0.96369
269.256,32.6842,-0.32075,0.3802,0.96338
269.856,32.74157,-0.32344,0.38076,0.96307
270.456,32.79886,-0.32806,0.38419,0.96277
271.056,32.85626,-0.33226,0.38588,0.96246
271.656,32.91368,-0.33624,0.38607,0.96216
272.256,32.9711,-0.34062,0.38884,0.96185
272.856,33.02856,-0.34362,0.39209,0.96154
273.456,33.086,-0.34638,0.3884,0.96124
274.056,33.14367,-0.35109,0.39138,0.96093
274.656,33.20112,-0.35682,0.39596,0.96062
275.256,33.25861,-0.3618,0.39445,0.96032
275.856,33.31595,-0.36469,0.39634,0.96001
276.456,33.37345,-0.36837,0.39738,0.9597
277.056,33.43104,-0.37252,0.40004,0.9594
277.656,33.48857,-0.37803,0.40312,0.95909
278.256,33.54609,-0.38323,0.40412,0.95878
278.856,33.60357,-0.38754,0.40798,0.95848
279.456,33.66109,-0.39404,0.40749,0.95817
280.056,33.7185,-0.3992,0.40972,0.95786
280.656,33.77612,-0.40274,0.41195,0.95755
281.256,33.83381,-0.40818,0.41305,0.95725
281.856,33.89155,-0.41455,0.41555,0.95694
282.456,33.94892,-0.42084,0.41551,0.95663
283.056,34.0063,-0.42675,0.42066,0.95632
283.656,34.0635,-0.4333,0.42319,0.95602
284.256,34.1208,-0.43882,0.42516,0.95571
284.856,34.1787,-0.44399,0.42534,0.9554
285.456,34.2363,-0.45004,0.42811,0.95509
286.056,34.29422,-0.45658,0.4328,0.95478
286.656,34.35204,-0.46326,0.43505,0.95448
287.256,34.40987,-0.47008,0.43704,0.95417
287.856,34.46765,-0.4759,0.43909,0.95386
288.456,34.5253,-0.48319,0.44255,0.95355
289.056,34.58294,-0.49136,0.44625,0.95324
289.656,34.6406,-0.49764,0.45092,0.95293
290.256,34.69831,-0.504,0.45099,0.95263
290.856,34.75646,-0.51219,0.45409,0.95232
291.456,34.81443,-0.51993,0.45856,0.95201
292.056,34.8727,-0.52687,0.46087,0.9517
292.656,34.93035,-0.53443,0.46335,0.95139
293.256,34.98809,-0.54201,0.46667,0.95108
293.856,35.04573,-0.54901,0.46767,0.95077
294.456,35.1034,-0.55641,0.47161,0.95046
295.056,35.1612,-0.5657,0.47576,0.95015
295.656,35.2189,-0.57439,0.47803,0.94984
296.256,35.27662,-0.58304,0.47912,0.94953
296.856,35.33429,-0.59132,0.4821,0.94922
297.456,35.39188,-0.59976,0.48565,0.94891
298.056,35.44939,-0.60713,0.48665,0.9486
298.656,35.50705,-0.61632,0.4899,0.94829
299.256,35.56456,-0.62574,0.4956,0.94798
299.856,35.6221,-0.63499,0.49657,0.94767
300.456,35.6798,-0.64367,0.50115,0.94736
301.056,35.73735,-0.65467,0.50401,0.94705
301.656,35.79511,-0.66309,0.50425,0.94674
302.256,35.85281,-0.67307,0.50665,0.94643
302.856,35.9105,-0.68229,0.51214,0.94612
303.456,35.96815,-0.69291,0.51344,0.94581
304.056,36.0257,-0.70293,0.51332,0.9455
304.656,36.08336,-0.7127,0.51835,0.94519
305.256,36.1409,-0.72409,0.52023,0.94488
305.856,36.19839,-0.73471,0.52319,0.94456
306.456,36.25589,-0.74403,0.52675,0.94425
307.056,36.31344,-0.75548,0.52721,0.94394
307.656,36.37124,-0.76573,0.52968,0.94363
308.256,36.42897,-0.77588,0.53152,0.94332
308.856,36.48637,-0.78732,0.53551,0.94301
309.456,36.5441,-0.79971,0.53596,0.94269
310.056,36.60168,-0.81106,0.53884,0.94238
310.656,36.65955,-0.82373,0.54072,0.94207
311.256,36.71737,-0.83382,0.54366,0.94176
311.856,36.77514,-0.84598,0.54738,0.94145
312.456,36.83307,-0.86009,0.5512,0.94113
313.056,36.89074,-0.87188,0.5525,0.94082
313.656,36.94839,-0.88353,0.55468,0.94051
314.256,37.00623,-0.89559,0.5617,0.94019
314.856,37.06397,-0.90837,0.56096,0.93988
315.456,37.12177,-0.92254,0.5626,0.93957
316.056,37.17968,-0.93455,0.56677,0.93925
316.656,37.2374,-0.94814,0.56882,0.93894
317.256,37.295,-0.96127,0.57182,0.93863
317.856,37.3526,-0.97399,0.57488,0.93831
318.456,37.41018,-0.98796,0.57769,0.938
319.056,37.4681,-1.00149,0.58318,0.93769
319.656,37.52618,-1.01605,0.58438,0.93737
320.256,37.58383,-1.02913,0.58844,0.93706
320.856,37.64165,-1.04306,0.59206,0.93674
321.456,37.6995,-1.05846,0.59755,0.93643
322.056,37.7575,-1.07344,0.5998,0.93612
322.656,37.81579,-1.08801,0.60287,0.9358
323.256,37.8737,-1.10221,0.60766,0.93549
323.856,37.93173,-1.11845,0.60705,0.93517
324.456,37.9897,-1.13232,0.61192,0.93486
325.056,38.04764,-1.1492,0.61675,0.93454
325.656,38.1055,-1.16239,0.62033,0.93422
326.256,38.1633,-1.17895,0.62543,0.93391
326.856,38.22124,-1.19616,0.63081,0.93359
327.456,38.27904,-1.21178,0.63658,0.93328
328.056,38.3371,-1.22891,0.64078,0.93296
328.656,38.39493,-1.24426,0.64436,0.93265
329.256,38.45275,-1.26101,0.6509,0.93233
329.856,38.51075,-1.2774,0.65422,0.93201
330.456,38.56868,-1.29459,0.65649,0.9317
331.056,38.62676,-1.31178,0.66303,0.93138
331.656,38.6849,-1.32957,0.66931,0.93106
332.256,38.74288,-1.34725,0.67231,0.93075
332.856,38.80081,-1.36504,0.67764,0.93043
333.456,38.85889,-1.38417,0.68446,0.93011
334.056,38.9169,-1.40205,0.68701,0.9298
334.656,38.97493,-1.42205,0.69523,0.92948
335.256,39.03309,-1.44115,0.69987,0.92916
335.856,39.09104,-1.46116,0.70539,0.92884
336.456,39.14907,-1.47909,0.7108,0.92852
337.056,39.20695,-1.4994,0.72045,0.92821
337.656,39.265,-1.51844,0.72174,0.92789
338.256,39.323,-1.53791,0.73123,0.92757
338.856,39.38112,-1.55591,0.73864,0.92725
339.456,39.43913,-1.57717,0.74285,0.92693
340.056,39.49709,-1.59827,0.7499,0.92661
340.656,39.55519,-1.61969,0.75631,0.9263
341.256,39.61318,-1.64105,0.763,0.92598
341.856,39.6713,-1.66289,0.76917,0.92566
342.456,39.72939,-1.68661,0.77672,0.92534
343.056,39.78748,-1.70871,0.78212,0.92502
343.656,39.84559,-1.73184,0.79066,0.9247
344.256,39.90372,-1.7542,0.79373,0.92438
344.856,39.96197,-1.77778,0.80166,0.92406
345.456,40.02019,-1.80215,0.80823,0.92374
346.056,40.07835,-1.82517,0.81349,0.92342
346.656,40.13641,-1.84785,0.81964,0.9231
347.256,40.19435,-1.87421,0.82553,0.92278
347.856,40.25242,-1.89831,0.83008,0.92246
348.456,40.31057,-1.92418,0.83576,0.92214
349.056,40.36877,-1.94941,0.83636,0.92181
349.656,40.42713,-1.97128,0.84283,0.92149
350.256,40.48527,-1.9976,0.84621,0.92117
350.856,40.543,-2.02324,0.84939,0.92085
351.456,40.60122,-2.04966,0.85069,0.92053
352.056,40.65938,-2.07468,0.8507,0.92021
352.656,40.71788,-2.1006,0.85226,0.91988
353.256,40.7761,-2.12728,0.85169,0.91956
353.856,40.83412,-2.1538,0.84876,0.91924
354.456,40.89226,-2.17882,0.8451,0.91892
355.056,40.9505,-2.20319,0.84435,0.91859
355.656,41.00889,-2.22936,0.83844,0.91827
356.256,41.06715,-2.25449,0.831,0.91795
356.856,41.12546,-2.28168,0.82512,0.91763
357.456,41.18378,-2.30705,0.81545,0.9173
358.056,41.2421,-2.33361,0.80444,0.91698
358.656,41.30015,-2.35695,0.79354,0.91665
359.256,41.35808,-2.38153,0.7819,0.91633
359.856,41.4161,-2.40513,0.76607,0.91601
360.456,41.47426,-2.4278,0.75086,0.91568
361.056,41.53288,-2.45153,0.73151,0.91536
361.656,41.59098,-2.47135,0.71248,0.91503
362.256,41.64908,-2.49445,0.69453,0.91471
362.856,41.70706,-2.51461,0.66969,0.91438
363.456,41.7652,-2.53582,0.64766,0.91406
364.056,41.82327,-2.55496,0.62781,0.91373
364.656,41.88143,-2.57399,0.60121,0.91341
365.256,41.93926,-2.59168,0.57766,0.91308
365.856,41.997,-2.60841,0.5522,0.91276
366.456,42.05506,-2.62421,0.52432,0.91243
367.056,42.11319,-2.63918,0.49536,0.9121
367.656,42.17183,-2.6541,0.46707,0.91178
368.256,42.22999,-2.66754,0.43938,0.91145
368.856,42.28817,-2.68076,0.41331,0.91112
369.456,42.34632,-2.6914,0.38757,0.9108
370.056,42.40445,-2.70324,0.36133,0.91047
370.656,42.46245,-2.71361,0.33548,0.91014
371.256,42.5206,-2.72192,0.30995,0.90981
371.856,42.5785,-2.7302,0.28875,0.90949
372.456,42.63661,-2.7372,0.26749,0.90916
373.056,42.69482,-2.74409,0.25018,0.90883
373.656,42.75314,-2.7509,0.23145,0.9085
374.256,42.81138,-2.75636,0.21223,0.90817
374.856,42.86955,-2.7615,0.19689,0.90785
375.456,42.92768,-2.76788,0.18502,0.90752
376.056,42.98578,-2.77137,0.17441,0.90719
376.656,43.0441,-2.77485,0.16251,0.90686
377.256,43.10245,-2.77723,0.15206,0.90653
377.856,43.16044,-2.78168,0.14355,0.9062
378.456,43.2187,-2.78394,0.13564,0.90587
379.056,43.2769,-2.78709,0.13082,0.90554
379.656,43.33507,-2.78928,0.1274,0.90521
380.256,43.39349,-2.79122,0.12059,0.90488
380.856,43.45173,-2.79371,0.11512,0.90455
381.456,43.51015,-2.79805,0.11532,0.90422
382.056,43.56847,-2.79964,0.11107,0.90389
382.656,43.62676,-2.80096,0.10897,0.90355
383.256,43.6849,-2.80286,0.10611,0.90322
383.856,43.7431,-2.80546,0.10504,0.90289
384.456,43.80126,-2.80692,0.10085,0.90256
385.056,43.85964,-2.80951,0.09867394,0.90223
385.656,43.91805,-2.81223,0.09915413,0.9019
386.256,43.97663,-2.81505,0.09814424,0.90156
386.856,44.03497,-2.81642,0.09463265,0.90123
387.456,44.09321,-2.81778,0.09491417,0.9009
388.056,44.1516,-2.81904,0.09285706,0.90056
388.656,44.20987,-2.82035,0.09021513,0.90023
389.256,44.2682,-2.8204,0.08920176,0.8999
389.856,44.3264,-2.82258,0.08706748,0.89956
390.456,44.38485,-2.82597,0.08796904,0.89923
391.056,44.44317,-2.82722,0.08778215,0.8989
391.656,44.50164,-2.82893,0.08570733,0.89856
392.256,44.5602,-2.83159,0.08558992,0.89823
392.856,44.61854,-2.83151,0.0859464,0.89789
393.456,44.67689,-2.83288,0.08274776,0.89756
394.056,44.7352,-2.83297,0.08217601,0.89722
394.656,44.79351,-2.83547,0.08288246,0.89689
395.256,44.852,-2.83698,0.07963229,0.89655
395.856,44.9105,-2.83996,0.08124961,0.89622
396.456,44.9689,-2.8412,0.07830136,0.89588
397.056,45.0274,-2.84266,0.07859185,0.89554
397.656,45.0858,-2.84519,0.07962777,0.89521
398.256,45.14439,-2.84706,0.07799704,0.89487
398.856,45.20299,-2.84807,0.07797572,0.89453
399.456,45.26149,-2.85007,0.07730086,0.8942
400.056,45.32,-2.85064,0.07543166,0.89386
400.656,45.3784,-2.85195,0.07333581,0.89352
401.256,45.43685,-2.855,0.07342344,0.89318
401.856,45.4954,-2.85647,0.07138791,0.89285
402.456,45.55407,-2.85795,0.07225977,0.89251
403.056,45.6128,-2.85805,0.06792554,0.89217
403.656,45.67163,-2.86,0.06959237,0.89183
404.256,45.73022,-2.85996,0.06945032,0.89149
404.856,45.7888,-2.86149,0.06757168,0.89115
405.456,45.8474,-2.86572,0.06771662,0.89081
406.056,45.90563,-2.86941,0.06686324,0.89047
406.656,45.96385,-2.8711,0.06753231,0.89013
407.256,46.0223,-2.87345,0.06763698,0.88979
407.856,46.08067,-2.87475,0.06618523,0.88945
408.456,46.13946,-2.87476,0.06954348,0.88911
409.056,46.1982,-2.87608,0.06805035,0.88877
409.656,46.2571,-2.87738,0.06885123,0.88843
410.256,46.31625,-2.87873,0.06826763,0.88809
410.856,46.37514,-2.87862,0.06531754,0.88775
411.456,46.43422,-2.88002,0.06535931,0.88741
412.056,46.4929,-2.88153,0.0634611,0.88707
412.656,46.55178,-2.88325,0.06659509,0.88672
413.256,46.61063,-2.88493,0.06523778,0.88638
413.856,46.66943,-2.88696,0.06423927,0.88604
414.456,46.7282,-2.88976,0.06522992,0.8857
415.056,46.78696,-2.89158,0.06563546,0.88535
415.656,46.8458,-2.89326,0.06360764,0.88501
416.256,46.90475,-2.89385,0.06195669,0.88467
416.856,46.96366,-2.89647,0.06493655,0.88432
417.456,47.0225,-2.89795,0.064986,0.88398
418.056,47.0807,-2.89934,0.06436273,0.88364
418.656,47.13933,-2.90163,0.06449327,0.88329
419.256,47.198,-2.90262,0.06594185,0.88295
419.856,47.2567,-2.90262,0.06761615,0.8826
420.456,47.31584,-2.90385,0.0648038,0.88226
421.056,47.37453,-2.90664,0.06544398,0.88191
421.656,47.43313,-2.90814,0.06742837,0.88157
422.256,47.49179,-2.90908,0.06343435,0.88122
422.856,47.55044,-2.91041,0.06682344,0.88087
423.456,47.6094,-2.91177,0.06510856,0.88053
424.056,47.66816,-2.91304,0.06732246,0.88018
424.656,47.72707,-2.91598,0.06947851,0.87983
425.256,47.78585,-2.91749,0.06778237,0.87949
425.856,47.8446,-2.91968,0.06985031,0.87914
426.456,47.90338,-2.91846,0.07117819,0.87879
427.056,47.96223,-2.92103,0.07032085,0.87844
427.656,48.021,-2.92117,0.06994505,0.8781
428.256,48.07975,-2.92247,0.07285314,0.87775
428.856,48.1383,-2.92314,0.07087891,0.8774
429.456,48.1971,-2.92442,0.07160639,0.87705
430.056,48.2558,-2.92577,0.07367323,0.8767
430.656,48.31447,-2.92712,0.07431829,0.87635
431.256,48.3733,-2.92842,0.07329268,0.876
431.856,48.4315,-2.93103,0.07236574,0.87565
432.456,48.49041,-2.93233,0.07491412,0.8753
433.056,48.54937,-2.93366,0.07328948,0.87495
433.656,48.60839,-2.93363,0.07425715,0.8746
434.256,48.6678,-2.93629,0.07597324,0.87425
434.856,48.7267,-2.93675,0.07768991,0.8739
435.456,48.78556,-2.93824,0.07973825,0.87355
436.056,48.8446,-2.94173,0.07963604,0.8732
436.656,48.90365,-2.94173,0.08009751,0.87285
437.256,48.9627,-2.94251,0.08011736,0.87249
437.856,49.02148,-2.94344,0.07940275,0.87214
438.456,49.08028,-2.94528,0.08113983,0.87179
439.056,49.13925,-2.94781,0.08177728,0.87144
439.656,49.19822,-2.94913,0.07900621,0.87108
440.256,49.2574,-2.95044,0.07955998,0.87073
440.856,49.31651,-2.95055,0.08112682,0.87038
441.456,49.37554,-2.95169,0.08140099,0.87002
442.056,49.43439,-2.95374,0.08109596,0.86967
442.656,49.49334,-2.95537,0.08315513,0.86931
443.256,49.55234,-2.95671,0.0837831,0.86896
443.856,49.61145,-2.95809,0.08446323,0.8686
444.456,49.67045,-2.95796,0.08186704,0.86825
445.056,49.72929,-2.95803,0.08389152,0.86789
445.656,49.78805,-2.96019,0.08436235,0.86754
446.256,49.84686,-2.96198,0.088088,0.86718
446.856,49.90562,-2.96318,0.0873835,0.86682
447.456,49.96448,-2.96458,0.08868109,0.86647
448.056,50.02342,-2.96591,0.08683589,0.86611
448.656,50.08229,-2.96709,0.08503665,0.86575
449.256,50.1413,-2.96721,0.09007993,0.8654
449.856,50.20023,-2.96853,0.09160602,0.86504
450.456,50.25927,-2.97118,0.09538679,0.86468
451.056,50.31807,-2.97251,0.09005779,0.86432
451.656,50.37712,-2.9738,0.09183049,0.86397
452.256,50.43623,-2.97384,0.09152407,0.86361
452.856,50.49559,-2.97382,0.09208448,0.86325
453.456,50.55488,-2.97655,0.09117289,0.86289
454.056,50.61398,-2.97784,0.09446745,0.86253
454.656,50.67308,-2.97789,0.09428118,0.86217
455.256,50.732,-2.97787,0.09488445,0.86181
455.856,50.7911,-2.97918,0.09366042,0.86145
456.456,50.85007,-2.9805,0.09413691,0.86109
457.056,50.90916,-2.98182,0.09469926,0.86073
457.656,50.9683,-2.98315,0.09634482,0.86037
458.256,51.0275,-2.98312,0.09495891,0.86001
458.856,51.08676,-2.98308,0.09645843,0.85964
459.456,51.14595,-2.98446,0.09464901,0.85928
460.056,51.20505,-2.98568,0.09672331,0.85892
460.656,51.26406,-2.98709,0.09665752,0.85856
461.256,51.323,-2.9884,0.09751446,0.85819
461.856,51.38225,-2.98959,0.09744812,0.85783
462.456,51.4413,-2.99021,0.09446233,0.85747
463.056,51.50051,-2.99234,0.09706336,0.8571
463.656,51.55966,-2.99366,0.09851421,0.85674
464.256,51.61885,-2.99396,0.09634728,0.85638
464.856,51.67778,-2.99552,0.09641789,0.85601
465.456,51.73677,-2.99631,0.09846592,0.85565
466.056,51.79573,-2.99664,0.09782206,0.85528
466.656,51.85498,-2.99794,0.09798655,0.85492
467.256,51.91418,-2.99801,0.09900295,0.85455
467.856,51.97332,-2.9991,0.09796968,0.85418
468.456,52.0323,-3.0004,0.09821563,0.85382
469.056,52.0916,-3.0023,0.09739739,0.85345
469.656,52.1509,-3.00145,0.09557737,0.85309
470.256,52.20988,-3.00276,0.09931903,0.85272
470.856,52.26912,-3.00277,0.09699893,0.85235
471.456,52.32799,-3.00409,0.10039,0.85198
472.056,52.38722,-3.00542,0.09960813,0.85162
472.656,52.44644,-3.00524,0.09580353,0.85125
473.256,52.5057,-3.0054,0.09741888,0.85088
473.856,52.5649,-3.0054,0.09844513,0.85051
474.456,52.6242,-3.00587,0.09633636,0.85014
475.056,52.6833,-3.00593,0.09657453,0.84977
475.656,52.7424,-3.00666,0.0982055,0.8494
476.256,52.8014,-3.008,0.09683679,0.84903
476.856,52.8605,-3.00935,0.0993944,0.84866
477.456,52.9195,-3.01134,0.10021,0.84829
478.056,52.97877,-3.01331,0.09993465,0.84792
478.656,53.03794,-3.0133,0.09862132,0.84755
479.256,53.0972,-3.01461,0.09945064,0.84718
479.856,53.1566,-3.01461,0.10118,0.84681
480.456,53.21595,-3.0146,0.10013,0.84644
481.056,53.27536,-3.01593,0.09875175,0.84606
481.656,53.33471,-3.01725,0.10026,0.84569
482.256,53.39382,-3.01724,0.10114,0.84532
482.856,53.45295,-3.01717,0.09832537,0.84494
483.456,53.51194,-3.01858,0.09732996,0.84457
484.056,53.5712,-3.01817,0.09788638,0.8442
484.656,53.63064,-3.01922,0.09811072,0.84382
485.256,53.69011,-3.02053,0.09810796,0.84345
485.856,53.7495,-3.02122,0.09966804,0.84308
486.456,53.809,-3.02317,0.10042,0.8427
487.056,53.86834,-3.02316,0.09952863,0.84233
487.656,53.92791,-3.0234,0.09818169,0.84195
488.256,53.9874,-3.0264,0.09565031,0.84157
488.856,54.04691,-3.02876,0.09500062,0.8412
489.456,54.10615,-3.03006,0.09556112,0.84082
490.056,54.16568,-3.02996,0.09706562,0.84044
490.656,54.2254,-3.0299,0.09748557,0.84007
491.256,54.285,-3.03008,0.09759655,0.83969
491.856,54.34446,-3.0301,0.09803821,0.83931
492.456,54.40368,-3.0314,0.09742594,0.83894
493.056,54.463,-3.03059,0.10443,0.83856
493.656,54.5221,-3.03172,0.10468,0.83818
494.256,54.5815,-3.03172,0.10905,0.8378
494.856,54.641,-3.03304,0.11259,0.83742
495.456,54.7006,-3.03436,0.11153,0.83704
496.056,54.7605,-3.03441,0.1132,0.83666
496.656,54.8202,-3.03567,0.11558,0.83628
497.256,54.8796,-3.03699,0.11594,0.8359
497.856,54.9388,-3.03699,0.11713,0.83552
498.456,54.9981,-3.03694,0.11664,0.83514
499.056,55.0574,-3.03831,0.11474,0.83476
499.656,55.1167,-3.03962,0.11605,0.83438
500.256,55.1763,-3.04049,0.11441,0.834
500.856,55.23581,-3.04061,0.11655,0.83361
501.456,55.29504,-3.0406,0.11639,0.83323
502.056,55.3543,-3.04192,0.11775,0.83285
502.656,55.4137,-3.04233,0.11612,0.83247
503.256,55.47297,-3.04324,0.11678,0.83208
503.856,55.5328,-3.04317,0.11416,0.8317
504.456,55.59225,-3.04455,0.11546,0.83131
505.056,55.6518,-3.04317,0.11531,0.83093
505.656,55.71141,-3.04457,0.11593,0.83055
506.256,55.7712,-3.04522,0.11658,0.83016
506.856,55.83021,-3.04653,0.11346,0.82978
507.456,55.88939,-3.04521,0.11179,0.82939
508.056,55.94875,-3.04521,0.11354,0.829
508.656,56.0083,-3.04554,0.11493,0.82862
509.256,56.0682,-3.04552,0.11164,0.82823
509.856,56.12766,-3.04686,0.10866,0.82784
510.456,56.18707,-3.04822,0.10794,0.82746
511.056,56.2462,-3.04937,0.10794,0.82707
511.656,56.3056,-3.05012,0.10768,0.82668
512.256,56.3651,-3.05081,0.10666,0.82629
512.856,56.4244,-3.05081,0.10342,0.82591
513.456,56.48426,-3.05108,0.10401,0.82552
514.056,56.54371,-3.05083,0.10019,0.82513
514.656,56.60312,-3.05212,0.09939702,0.82474
515.256,56.66242,-3.05212,0.10058,0.82435
515.856,56.7219,-3.05214,0.09874755,0.82396
516.456,56.78151,-3.05474,0.098347,0.82357
517.056,56.8411,-3.05607,0.09901706,0.82318
517.656,56.9005,-3.05608,0.09982372,0.82279
518.256,56.9601,-3.05476,0.09559142,0.8224
518.856,57.0196,-3.05607,0.09820447,0.82201
519.456,57.07911,-3.05739,0.09379727,0.82161
520.056,57.1387,-3.05801,0.09316513,0.82122
520.656,57.1982,-3.05938,0.09190838,0.82083
521.256,57.25804,-3.05961,0.09566413,0.82044
521.856,57.31765,-3.06068,0.09133157,0.82004
522.456,57.37719,-3.06068,0.09067317,0.81965
523.056,57.43691,-3.06014,0.09238358,0.81926
523.656,57.49646,-3.06068,0.09002502,0.81886
524.256,57.55621,-3.06063,0.08869136,0.81847
524.856,57.616,-3.06199,0.09052099,0.81807
525.456,57.6754,-3.06327,0.08782966,0.81768
526.056,57.7351,-3.06331,0.08848747,0.81728
526.656,57.79458,-3.06462,0.0859422,0.81689
527.256,57.85435,-3.06463,0.08492488,0.81649
527.856,57.91385,-3.06463,0.08698093,0.8161
528.456,57.97335,-3.06484,0.08540132,0.8157
529.056,58.03278,-3.06594,0.0822303,0.8153
529.656,58.09236,-3.06725,0.08410423,0.81491
530.256,58.152,-3.06726,0.08346378,0.81451
530.856,58.21155,-3.06726,0.08594989,0.81411
531.456,58.2711,-3.06726,0.08141603,0.81371
532.056,58.33042,-3.06726,0.08381598,0.81331
532.656,58.38997,-3.06726,0.08178058,0.81291
533.256,58.4497,-3.06859,0.0825837,0.81252
533.856,58.5093,-3.06891,0.08109917,0.81212
534.456,58.5686,-3.07149,0.08222265,0.81172
535.056,58.62784,-3.07218,0.08025046,0.81132
535.656,58.6872,-3.07088,0.07892887,0.81092
536.256,58.74729,-3.07084,0.07701683,0.81051
536.856,58.80715,-3.07219,0.07727803,0.81011
537.456,58.8672,-3.07219,0.0770648,0.80971
538.056,58.92699,-3.07219,0.0774948,0.80931
538.656,58.9869,-3.07218,0.07431023,0.80891
539.256,59.0466,-3.07396,0.0717507,0.80851
539.856,59.10635,-3.07498,0.07210957,0.8081
540.456,59.1662,-3.07573,0.07502956,0.8077
541.056,59.2261,-3.07483,0.07330904,0.8073
541.656,59.2862,-3.07483,0.07622286,0.80689
542.256,59.346,-3.07483,0.07181377,0.80649
542.856,59.4057,-3.07483,0.07162345,0.80608
543.456,59.46546,-3.07622,0.07076047,0.80568
544.056,59.52541,-3.0761,0.0728695,0.80528
544.656,59.58515,-3.07747,0.07067954,0.80487
545.256,59.64484,-3.07747,0.07248691,0.80446
545.856,59.70443,-3.07853,0.0705829,0.80406
546.456,59.76401,-3.07885,0.07018056,0.80365
547.056,59.8241,-3.07812,0.07084818,0.80325
547.656,59.8842,-3.07945,0.06696471,0.80284
548.256,59.944,-3.08084,0.06663954,0.80243
548.856,60.004,-3.08075,0.06721054,0.80202
549.456,60.06364,-3.08075,0.06583292,0.80162
550.056,60.1235,-3.08075,0.06488519,0.80121
550.656,60.18342,-3.08214,0.06660912,0.8008
551.256,60.2434,-3.08306,0.065644,0.80039
551.856,60.30361,-3.08298,0.06620439,0.79998
552.456,60.3635,-3.08306,0.06412257,0.79957
553.056,60.4235,-3.08428,0.06578136,0.79916
553.656,60.48341,-3.08437,0.06086869,0.79875
554.256,60.54315,-3.08437,0.06311563,0.79834
554.856,60.603,-3.08574,0.06227886,0.79793
555.456,60.66285,-3.08499,0.06422617,0.79752
556.056,60.7226,-3.08434,0.06156861,0.79711
556.656,60.78232,-3.08537,0.0641541,0.79669
557.256,60.8422,-3.08668,0.06316321,0.79628
557.856,60.9022,-3.08668,0.06390123,0.79587
558.456,60.9618,-3.08666,0.06166133,0.79546
559.056,61.02162,-3.08703,0.06255148,0.79504
559.656,61.08141,-3.08832,0.06115225,0.79463
560.256,61.14147,-3.08766,0.06212523,0.79422
560.856,61.20137,-3.08838,0.06390806,0.7938
561.456,61.2614,-3.08862,0.06598022,0.79339
562.056,61.32122,-3.08995,0.06362173,0.79297
562.656,61.3813,-3.08964,0.06571425,0.79256
563.256,61.44084,-3.08832,0.06422337,0.79214
563.856,61.5009,-3.08964,0.06662988,0.79173
564.456,61.561,-3.08964,0.06711444,0.79131
565.056,61.62112,-3.09147,0.06861527,0.79089
565.656,61.681,-3.09228,0.06719899,0.79048
566.256,61.74074,-3.09228,0.06739166,0.79006
566.856,61.8006,-3.09228,0.06869017,0.78964
567.456,61.86061,-3.09359,0.07020666,0.78922
568.056,61.9204,-3.09359,0.07161995,0.7888
568.656,61.98053,-3.09359,0.06941338,0.78839
569.256,62.0404,-3.09491,0.07063263,0.78797
569.856,62.1004,-3.09359,0.07039598,0.78755
570.456,62.1603,-3.09507,0.07151355,0.78713
571.056,62.22022,-3.09633,0.06951398,0.78671
571.656,62.28024,-3.09633,0.0701689,0.78629
572.256,62.3403,-3.09536,0.06905168,0.78587
572.856,62.4003,-3.09666,0.07305579,0.78545
573.456,62.4602,-3.09666,0.07068889,0.78503
574.056,62.52025,-3.09666,0.07403718,0.7846
574.656,62.58014,-3.09667,0.07248979,0.78418
575.256,62.63975,-3.09765,0.07123575,0.78376
575.856,62.69973,-3.09798,0.07004851,0.78334
576.456,62.75969,-3.09868,0.07387107,0.78291
577.056,62.81975,-3.09967,0.07113353,0.78249
577.656,62.87999,-3.10029,0.07192955,0.78207
578.256,62.9397,-3.09896,0.07230119,0.78164
578.856,62.9998,-3.09896,0.07455441,0.78122
579.456,63.05986,-3.10027,0.07594935,0.78079
580.056,63.11999,-3.10159,0.074856,0.78037
580.656,63.18,-3.10028,0.07365826,0.77994
581.256,63.24001,-3.10028,0.07392849,0.77952
581.856,63.3001,-3.10159,0.07434976,0.77909
582.456,63.36014,-3.10291,0.07430538,0.77867
583.056,63.42029,-3.10291,0.07383731,0.77824
583.656,63.4804,-3.10259,0.0792201,0.77781
584.256,63.54054,-3.10258,0.07751273,0.77739
584.856,63.60055,-3.10258,0.07674103,0.77696
585.456,63.66055,-3.10388,0.08087564,0.77653
586.056,63.72055,-3.1039,0.08132499,0.7761
586.656,63.78055,-3.1039,0.08044365,0.77567
587.256,63.8406,-3.10391,0.08061768,0.77524
587.856,63.9007,-3.10423,0.07631352,0.77482
588.456,63.9608,-3.10417,0.08307394,0.77439
589.056,64.02083,-3.10293,0.08925928,0.77396
589.656,64.081,-3.10422,0.08639782,0.77353
590.256,64.14097,-3.10455,0.08897316,0.7731
590.856,64.20103,-3.10587,0.08782588,0.77266
591.456,64.2611,-3.10718,0.09087571,0.77223
592.056,64.3213,-3.10855,0.09336577,0.7718
592.656,64.3814,-3.10851,0.09103826,0.77137
593.256,64.44145,-3.1085,0.09329796,0.77094
593.856,64.50145,-3.1072,0.09416482,0.7705
594.456,64.5613,-3.10851,0.09438688,0.77007
595.056,64.62153,-3.10848,0.0951803,0.76964
595.656,64.6816,-3.11081,0.09625681,0.7692
596.256,64.7418,-3.11081,0.09751816,0.76877
596.856,64.8019,-3.11082,0.09916426,0.76834
597.456,64.86197,-3.11266,0.09800236,0.7679
598.056,64.92231,-3.11419,0.10221,0.76747
598.656,64.9824,-3.11288,0.10459,0.76703
599.256,65.04263,-3.11153,0.10386,0.7666
599.856,65.10291,-3.11158,0.10835,0.76616
600.456,65.16309,-3.11223,0.10895,0.76572
601.056,65.2234,-3.11289,0.10685,0.76529
601.656,65.28371,-3.11288,0.10831,0.76485
602.256,65.34396,-3.11421,0.10806,0.76441
602.856,65.40431,-3.11421,0.1132,0.76397
603.456,65.46465,-3.11421,0.11333,0.76354
604.056,65.5249,-3.1142,0.11225,0.7631
604.656,65.58507,-3.11552,0.11165,0.76266
605.256,65.64539,-3.11551,0.11456,0.76222
605.856,65.70551,-3.11684,0.11601,0.76178
606.456,65.76559,-3.11684,0.1193,0.76134
607.056,65.82549,-3.11751,0.11965,0.7609
607.656,65.88544,-3.11882,0.11901,0.76046
608.256,65.94552,-3.11893,0.12043,0.76002
608.856,66.00575,-3.12012,0.12304,0.75958
609.456,66.0659,-3.11879,0.12576,0.75914
610.056,66.12607,-3.11881,0.12449,0.7587
610.656,66.1861,-3.12023,0.12838,0.75825
611.256,66.24598,-3.11881,0.12767,0.75781
611.856,66.306,-3.12013,0.12859,0.75737
612.456,66.36605,-3.11966,0.12762,0.75693
613.056,66.42617,-3.12079,0.13047,0.75648
613.656,66.4864,-3.12079,0.13429,0.75604
614.256,66.54646,-3.1208,0.13418,0.7556
614.856,66.60648,-3.12276,0.13442,0.75515
615.456,66.66664,-3.12388,0.13906,0.75471
616.056,66.7266,-3.12408,0.14091,0.75426
616.656,66.78658,-3.12279,0.14417,0.75382
617.256,66.8465,-3.12276,0.14083,0.75337
617.856,66.9066,-3.12408,0.14222,0.75292
618.456,66.96684,-3.12408,0.14808,0.75248
619.056,67.02708,-3.12538,0.14677,0.75203
619.656,67.0872,-3.12408,0.14785,0.75158
620.256,67.14731,-3.12408,0.15023,0.75114
620.856,67.20745,-3.12404,0.15108,0.75069
621.456,67.2675,-3.1254,0.15272,0.75024
622.056,67.3275,-3.12625,0.15386,0.74979
622.656,67.38754,-3.12606,0.15578,0.74934
623.256,67.44755,-3.12737,0.15731,0.7489
623.856,67.5078,-3.12737,0.15874,0.74845
624.456,67.5681,-3.12869,0.16144,0.748
625.056,67.62817,-3.12869,0.16239,0.74755
625.656,67.68861,-3.13,0.16511,0.7471
626.256,67.74852,-3.13,0.16525,0.74665
626.856,67.80848,-3.13,0.16628,0.74619
627.456,67.86854,-3.13001,0.16948,0.74574
628.056,67.92869,-3.13066,0.16869,0.74529
628.656,67.98926,-3.13066,0.17321,0.74484
629.256,68.0502,-3.13202,0.17649,0.74439
629.856,68.11114,-3.13198,0.17782,0.74393
630.456,68.17187,-3.13198,0.17824,0.74348
631.056,68.23233,-3.13198,0.17977,0.74303
631.656,68.29251,-3.1341,0.18123,0.74257
632.256,68.3529,-3.13493,0.1836,0.74212
632.856,68.41322,-3.13593,0.18557,0.74167
633.456,68.47351,-3.13722,0.18526,0.74121
634.056,68.53409,-3.13588,0.18534,0.74076
634.656,68.59453,-3.13593,0.18653,0.7403
635.256,68.65539,-3.13728,0.18924,0.73985
635.856,68.7159,-3.13724,0.19276,0.73939
636.456,68.7762,-3.13962,0.19334,0.73893
637.056,68.83667,-3.13988,0.19816,0.73848
637.656,68.89697,-3.13932,0.19753,0.73802
638.256,68.95708,-3.13995,0.19877,0.73756
638.856,69.0175,-3.13952,0.20192,0.73711
639.456,69.07796,-3.13987,0.20336,0.73665
640.056,69.13837,-3.13987,0.20754,0.73619
640.656,69.19884,-3.14119,0.2067,0.73573
641.256,69.2593,-3.14251,0.21093,0.73527
641.856,69.31967,-3.14383,0.21087,0.73481
642.456,69.38011,-3.14382,0.21325,0.73435
643.056,69.4404,-3.14382,0.21436,0.73389
643.656,69.50105,-3.14396,0.21707,0.73343
644.256,69.56164,-3.14428,0.2195,0.73297
644.856,69.62225,-3.14511,0.22472,0.73251
645.456,69.68262,-3.14645,0.2205,0.73205
646.056,69.74282,-3.14777,0.22307,0.73159
646.656,69.80301,-3.14777,0.223,0.73113
647.256,69.86329,-3.14843,0.22722,0.73066
647.856,69.92364,-3.14769,0.22897,0.7302
648.456,69.9841,-3.14908,0.22858,0.72974
649.056,70.0444,-3.14899,0.23013,0.72928
649.656,70.10486,-3.1504,0.23362,0.72881
650.256,70.16521,-3.15024,0.23823,0.72835
650.856,70.22529,-3.14884,0.2358,0.72788
651.456,70.28568,-3.14952,0.23824,0.72742
652.056,70.34602,-3.15226,0.24144,0.72696
652.656,70.40655,-3.15392,0.23843,0.72649
653.256,70.46709,-3.15391,0.2372,0.72602
653.856,70.52733,-3.15522,0.23811,0.72556
654.456,70.58754,-3.15523,0.23858,0.72509
655.056,70.64792,-3.15611,0.23872,0.72463
655.656,70.70836,-3.15624,0.23939,0.72416
656.256,70.76884,-3.15652,0.23812,0.72369
656.856,70.8293,-3.15754,0.2358,0.72323
657.456,70.8896,-3.15723,0.23939,0.72276
658.056,70.95,-3.15786,0.24006,0.72229
658.656,71.0104,-3.15918,0.24024,0.72182
659.256,71.0708,-3.15918,0.23618,0.72135
659.856,71.13119,-3.16049,0.2365,0.72088
660.456,71.19163,-3.15935,0.23933,0.72041
661.056,71.25187,-3.15939,0.23923,0.71995
661.656,71.31227,-3.1614,0.23746,0.71948
662.256,71.37265,-3.1628,0.23722,0.719
662.856,71.43294,-3.16316,0.23357,0.71853
663.456,71.49311,-3.16463,0.23458,0.71806
664.056,71.5532,-3.16576,0.23225,0.71759
664.656,71.61333,-3.16572,0.23401,0.71712
665.256,71.6737,-3.16707,0.22956,0.71665
665.856,71.7341,-3.16701,0.2263,0.71618
666.456,71.79429,-3.1671,0.22438,0.7157
667.056,71.85463,-3.16713,0.22241,0.71523
667.656,71.91516,-3.16839,0.22333,0.71476
668.256,71.9759,-3.1684,0.2218,0.71429
668.856,72.03655,-3.16861,0.22215,0.71381
669.456,72.09724,-3.16839,0.22532,0.71334
670.056,72.15764,-3.16839,0.22039,0.71286
670.656,72.21839,-3.16971,0.21687,0.71239
671.256,72.2791,-3.17036,0.21272,0.71191
671.856,72.34003,-3.17103,0.20507,0.71144
672.456,72.40069,-3.17237,0.20573,0.71096
673.056,72.4614,-3.17104,0.20243,0.71049
673.656,72.5222,-3.1722,0.19569,0.71001
674.256,72.5831,-3.17235,0.19407,0.70953
674.856,72.64379,-3.17366,0.18904,0.70906
675.456,72.70455,-3.17365,0.18618,0.70858
676.056,72.7651,-3.17538,0.18246,0.7081
676.656,72.82574,-3.17564,0.17645,0.70762
677.256,72.88627,-3.17564,0.17263,0.70715
677.856,72.94682,-3.17564,0.17274,0.70667
678.456,73.0073,-3.17629,0.1728,0.70619
679.056,73.06775,-3.17629,0.1732,0.70571
679.656,73.128,-3.17629,0.1723,0.70523
680.256,73.18848,-3.17659,0.16956,0.70475
680.856,73.24886,-3.17631,0.16899,0.70427
681.456,73.30945,-3.17729,0.17089,0.70379
682.056,73.36999,-3.17695,0.17086,0.70331
682.656,73.43037,-3.17695,0.17136,0.70283
683.256,73.49068,-3.17695,0.16805,0.70235
683.856,73.55115,-3.17696,0.16905,0.70187
684.456,73.61174,-3.17695,0.17199,0.70139
685.056,73.6726,-3.17831,0.1716,0.7009
685.656,73.73303,-3.17899,0.17163,0.70042
686.256,73.79348,-3.1795,0.1693,0.69994
686.856,73.85399,-3.1809,0.16555,0.69946
687.456,73.91428,-3.1809,0.17327,0.69897
688.056,73.9748,-3.1809,0.17039,0.69849
688.656,74.03528,-3.18223,0.16845,0.698
689.256,74.09583,-3.1809,0.17019,0.69752
689.856,74.15644,-3.18222,0.16875,0.69704
690.456,74.21691,-3.18221,0.1696,0.69655
691.056,74.27755,-3.18353,0.17274,0.69607
691.656,74.33824,-3.18327,0.16783,0.69558
692.256,74.39894,-3.18222,0.16761,0.6951
692.856,74.45963,-3.18354,0.1687,0.69461
693.456,74.52,-3.18354,0.17069,0.69412
694.056,74.58066,-3.18354,0.16912,0.69364
694.656,74.64134,-3.18354,0.16944,0.69315
695.256,74.70215,-3.18354,0.17112,0.69266
695.856,74.76266,-3.18354,0.16695,0.69217
696.456,74.8231,-3.18485,0.16696,0.69169
697.056,74.88356,-3.18485,0.16819,0.6912
697.656,74.9441,-3.18607,0.16991,0.69071
698.256,75.00457,-3.18609,0.16857,0.69022
698.856,75.06494,-3.18485,0.16495,0.68973
699.456,75.12533,-3.18484,0.16748,0.68924
700.056,75.1859,-3.18523,0.16872,0.68875
700.656,75.24651,-3.18727,0.17028,0.68826
701.256,75.3073,-3.18749,0.16886,0.68777
701.856,75.36819,-3.1888,0.16892,0.68728
702.456,75.42895,-3.1888,0.16591,0.68679
703.056,75.48982,-3.18979,0.16368,0.6863
703.656,75.55069,-3.18978,0.16278,0.68581
704.256,75.61165,-3.18976,0.16254,0.68532
704.856,75.6726,-3.19007,0.15985,0.68483
705.456,75.73354,-3.1911,0.15987,0.68433
706.056,75.7945,-3.19107,0.16119,0.68384
706.656,75.85546,-3.19143,0.15978,0.68335
707.256,75.91634,-3.19252,0.15998,0.68286
707.856,75.9773,-3.19275,0.15983,0.68236
708.456,76.03825,-3.19405,0.16153,0.68187
709.056,76.09917,-3.19307,0.16101,0.68137
709.656,76.16005,-3.19413,0.15394,0.68088
710.256,76.22091,-3.1957,0.1576,0.68039
710.856,76.28187,-3.19549,0.16121,0.67989
711.456,76.34276,-3.19422,0.15469,0.6794
712.056,76.4039,-3.19308,0.15792,0.6789
712.656,76.46499,-3.19402,0.15708,0.6784
713.256,76.52609,-3.19439,0.15493,0.67791
713.856,76.587,-3.19441,0.15424,0.67741
714.456,76.64779,-3.19705,0.15271,0.67692
715.056,76.7085,-3.19702,0.15379,0.67642
715.656,76.7692,-3.19703,0.15202,0.67592
716.256,76.83001,-3.19836,0.15586,0.67542
716.856,76.8909,-3.19831,0.15342,0.67493
717.456,76.95178,-3.19768,0.15306,0.67443
718.056,77.0125,-3.19768,0.15024,0.67393
718.656,77.07327,-3.19768,0.15347,0.67343
719.256,77.13383,-3.19768,0.15059,0.67293
719.856,77.1943,-3.19894,0.14894,0.67243
720.456,77.2549,-3.199,0.15471,0.67194
721.056,77.31526,-3.199,0.14805,0.67144
721.656,77.3759,-3.19904,0.15333,0.67094
722.256,77.43698,-3.19867,0.14751,0.67044
722.856,77.49811,-3.19862,0.14785,0.66994
723.456,77.5589,-3.19999,0.14778,0.66943
724.056,77.61995,-3.19999,0.14956,0.66893
724.656,77.6806,-3.19946,0.14804,0.66843
725.256,77.74118,-3.20031,0.14891,0.66793
725.856,77.80192,-3.20164,0.14664,0.66743
726.456,77.8626,-3.2009,0.14802,0.66693
727.056,77.92341,-3.20097,0.14563,0.66642
727.656,77.98428,-3.20097,0.14771,0.66592
728.256,78.04496,-3.20224,0.14915,0.66542
728.856,78.1058,-3.2022,0.14654,0.66492
729.456,78.16649,-3.2036,0.14989,0.66441
730.056,78.2272,-3.2036,0.1483,0.66391
730.656,78.28823,-3.2036,0.14879,0.6634
731.256,78.34886,-3.20492,0.14812,0.6629
731.856,78.4098,-3.20644,0.1493,0.6624
732.456,78.4704,-3.20623,0.15106,0.66189
733.056,78.53115,-3.20492,0.14991,0.66139
733.656,78.59182,-3.20427,0.1449,0.66088
734.256,78.65275,-3.20461,0.14881,0.66037
734.856,78.71347,-3.20492,0.1487,0.65987
735.456,78.77431,-3.20492,0.15021,0.65936
736.056,78.8351,-3.20493,0.14939,0.65886
736.656,78.89599,-3.20558,0.1482,0.65835
737.256,78.95699,-3.20557,0.15035,0.65784
737.856,79.01787,-3.2069,0.15361,0.65734
738.456,79.07853,-3.2069,0.1494,0.65683
739.056,79.139,-3.2069,0.14978,0.65632
739.656,79.19977,-3.20821,0.15271,0.65581
740.256,79.26055,-3.20755,0.15223,0.6553
740.856,79.32145,-3.20651,0.15136,0.6548
741.456,79.38237,-3.20656,0.15247,0.65429
742.056,79.44319,-3.20682,0.1499,0.65378
742.656,79.50405,-3.20774,0.15173,0.65327
743.256,79.56494,-3.20788,0.15061,0.65276
743.856,79.62569,-3.2092,0.14763,0.65225
744.456,79.68669,-3.2092,0.14852,0.65174
745.056,79.74758,-3.20891,0.14726,0.65123
745.656,79.80853,-3.20887,0.15104,0.65072
746.256,79.8695,-3.20887,0.14977,0.65021
746.856,79.93029,-3.20885,0.15082,0.6497
747.456,79.99093,-3.21017,0.15358,0.64919