File: 01_Data/Asphalt_Shingle/MCC/Asphalt_Shingle_MCC_30K_min_210928_R3.txt
Sample ID:	C:\MCC\MCC Cal\Test\Asphalt_Shingle\Asphalt_Shingle_MCC_30K_min_210928_R3.txt
Sample Weight (mg):	4.13
Heating Rate (C/s):	0.5
Combustor Temp (C):	900
N2 Flow Rate (cc/min):	80
O2 Flow Rate (cc/min):	20
Calibration File:	C:\MCC\MCC Cal\Coeff1 JN10440_30_210304.txt.txt
T Correction Coefficients:	0	1.024463	0
Time Shift (s):	14
*
Time (s)	Temperature (C)	N2 flow rate (cc/min)	O2 flow rate (cc/min)	Flow Rate (cc/min)	Oxygen (%)	HRR (W/g)	Heating rate (C/s)
0.000	110.318	80.012	19.994	100.245	20.241	0.012	0.006
2.000	110.332	80.010	19.995	100.242	20.238	0.275	-0.011
4.000	110.297	80.010	19.995	100.246	20.238	0.258	0.012
6.000	110.264	80.008	19.996	100.244	20.239	0.205	-0.020
8.000	110.318	80.011	19.994	100.247	20.240	0.112	0.006
10.000	110.327	80.009	19.995	100.241	20.238	0.257	0.033
12.001	110.256	80.009	19.995	100.248	20.238	0.223	-0.028
14.001	110.272	80.011	19.995	100.263	20.237	0.313	0.018
16.000	110.236	80.009	19.995	100.281	20.235	0.464	-0.005
18.000	110.264	80.008	19.994	100.293	20.232	0.685	0.005
20.000	110.362	80.008	19.995	100.336	20.228	1.012	0.051
22.000	110.408	80.009	19.996	100.364	20.223	1.393	0.036
24.000	110.491	80.012	19.995	100.373	20.214	2.051	0.040
26.000	110.608	80.010	19.997	100.384	20.212	2.234	0.085
28.000	110.798	80.010	19.996	100.398	20.210	2.393	0.129
30.000	110.995	80.012	19.996	100.402	20.212	2.222	0.096
32.001	111.143	80.012	19.995	100.395	20.207	2.609	0.072
34.000	111.401	80.011	19.995	100.403	20.207	2.591	0.097
36.001	111.634	80.009	19.996	100.405	20.208	2.539	0.129
38.000	111.916	80.008	19.997	100.410	20.206	2.707	0.133
40.000	112.223	80.007	19.997	100.421	20.207	2.564	0.126
42.000	112.580	80.009	19.996	100.418	20.201	3.040	0.194
44.000	112.895	80.010	19.996	100.435	20.199	3.196	0.163
46.000	113.265	80.011	19.996	100.442	20.203	2.912	0.160
48.001	113.711	80.009	19.996	100.443	20.201	3.016	0.213
50.000	114.160	80.012	19.996	100.453	20.204	2.838	0.264
52.000	114.595	80.012	19.996	100.451	20.202	2.948	0.192
54.000	115.047	80.010	19.996	100.446	20.197	3.360	0.198
56.000	115.538	80.010	19.997	100.474	20.197	3.344	0.236
58.000	116.061	80.011	19.995	100.462	20.194	3.561	0.241
60.000	116.615	80.009	19.995	100.460	20.200	3.145	0.281
62.000	117.196	80.008	19.995	100.467	20.196	3.433	0.264
64.000	117.780	80.009	19.996	100.464	20.196	3.397	0.269
66.000	118.378	80.007	19.996	100.478	20.197	3.324	0.325
68.000	118.971	80.008	19.995	100.476	20.194	3.596	0.285
70.000	119.594	80.011	19.996	100.477	20.196	3.432	0.341
72.000	120.244	80.008	19.995	100.478	20.196	3.461	0.286
74.000	120.943	80.011	19.994	100.474	20.197	3.362	0.347
76.001	121.670	80.009	19.995	100.466	20.199	3.206	0.337
78.000	122.347	80.008	19.995	100.456	20.199	3.215	0.369
80.000	123.033	80.009	19.995	100.461	20.194	3.598	0.334
82.000	123.766	80.010	19.997	100.464	20.199	3.234	0.357
84.000	124.503	80.010	19.995	100.471	20.197	3.389	0.356
86.000	125.232	80.009	19.995	100.464	20.199	3.221	0.364
88.001	125.978	80.009	19.995	100.471	20.194	3.549	0.381
90.000	126.760	80.008	19.995	100.477	20.197	3.373	0.389
92.000	127.510	80.011	19.996	100.479	20.197	3.366	0.369
94.000	128.300	80.010	19.996	100.479	20.196	3.412	0.375
96.001	129.101	80.009	19.996	100.479	20.195	3.472	0.413
98.000	129.877	80.007	19.995	100.481	20.198	3.255	0.368
100.000	130.633	80.008	19.995	100.482	20.193	3.650	0.352
102.000	131.498	80.011	19.995	100.482	20.196	3.426	0.411
104.001	132.317	80.010	19.995	100.480	20.193	3.686	0.426
106.000	133.150	80.009	19.995	100.482	20.194	3.603	0.400
108.000	134.012	80.010	19.995	100.482	20.196	3.418	0.462
110.000	134.887	80.010	19.995	100.482	20.195	3.518	0.427
112.000	135.741	80.012	19.995	100.480	20.196	3.443	0.426
114.000	136.575	80.013	19.994	100.482	20.196	3.466	0.412
116.000	137.504	80.011	19.995	100.483	20.194	3.594	0.425
118.000	138.408	80.011	19.995	100.482	20.196	3.420	0.474
120.000	139.269	80.009	19.996	100.483	20.195	3.547	0.441
122.000	140.131	80.010	19.995	100.482	20.195	3.505	0.413
124.000	141.121	80.008	19.995	100.482	20.195	3.518	0.499
126.000	141.967	80.009	19.996	100.483	20.196	3.428	0.422
128.000	142.921	80.009	19.996	100.483	20.195	3.480	0.440
130.000	143.817	80.011	19.996	100.483	20.194	3.575	0.465
132.000	144.815	80.013	19.995	100.484	20.195	3.501	0.472
134.000	145.734	80.012	19.995	100.483	20.191	3.805	0.492
136.000	146.694	80.013	19.995	100.483	20.196	3.420	0.474
138.000	147.577	80.013	19.996	100.471	20.197	3.378	0.444
140.000	148.517	80.013	19.996	100.468	20.195	3.531	0.473
142.000	149.527	80.011	19.996	100.474	20.199	3.240	0.509
144.000	150.494	80.010	19.996	100.470	20.197	3.393	0.491
146.000	151.419	80.011	19.996	100.474	20.196	3.417	0.463
148.000	152.401	80.008	19.996	100.454	20.196	3.467	0.506
150.000	153.361	80.008	19.996	100.452	20.196	3.432	0.503
152.000	154.286	80.007	19.996	100.464	20.195	3.510	0.472
154.000	155.281	80.010	19.996	100.473	20.193	3.630	0.495
156.000	156.246	80.008	19.996	100.465	20.196	3.465	0.493
158.000	157.206	80.008	19.997	100.451	20.200	3.111	0.501
160.000	158.192	80.009	19.997	100.453	20.201	3.067	0.527
162.000	159.119	80.009	19.997	100.448	20.198	3.286	0.436
164.000	160.117	80.010	19.996	100.452	20.198	3.303	0.494
166.000	161.109	80.011	19.995	100.443	20.199	3.175	0.491
168.000	162.111	80.010	19.995	100.451	20.201	3.082	0.488
170.000	163.060	80.010	19.995	100.446	20.199	3.198	0.495
172.000	164.042	80.010	19.995	100.443	20.200	3.150	0.492
174.000	165.105	80.009	19.996	100.443	20.201	3.046	0.551
176.000	166.126	80.009	19.995	100.444	20.200	3.166	0.515
178.000	167.125	80.010	19.995	100.444	20.198	3.253	0.507
180.000	168.093	80.009	19.995	100.444	20.199	3.226	0.474
182.000	169.082	80.008	19.995	100.444	20.200	3.092	0.501
184.000	170.067	80.009	19.996	100.446	20.200	3.123	0.483
186.000	171.037	80.009	19.996	100.445	20.201	3.086	0.512
188.000	172.032	80.010	19.996	100.444	20.202	2.949	0.502
190.000	172.991	80.009	19.995	100.443	20.200	3.123	0.469
192.001	173.940	80.010	19.996	100.441	20.198	3.307	0.485
194.000	174.922	80.009	19.995	100.443	20.199	3.222	0.491
196.000	175.953	80.012	19.995	100.444	20.200	3.120	0.484
198.000	176.972	80.011	19.995	100.443	20.203	2.911	0.487
200.000	177.935	80.012	19.996	100.442	20.199	3.205	0.496
202.000	178.929	80.010	19.995	100.434	20.200	3.093	0.507
204.000	179.901	80.011	19.995	100.429	20.198	3.265	0.473
206.000	180.886	80.010	19.995	100.427	20.198	3.278	0.508
208.000	181.865	80.011	19.996	100.435	20.199	3.214	0.533
210.000	182.843	80.010	19.995	100.424	20.198	3.276	0.507
212.000	183.819	80.011	19.995	100.423	20.201	3.058	0.499
214.000	184.803	80.011	19.995	100.426	20.197	3.354	0.473
216.000	185.789	80.011	19.996	100.435	20.195	3.514	0.496
218.000	186.827	80.011	19.996	100.430	20.194	3.596	0.505
220.000	187.769	80.011	19.995	100.432	20.198	3.254	0.463
222.000	188.780	80.011	19.995	100.428	20.195	3.524	0.526
224.000	189.720	80.012	19.995	100.420	20.196	3.445	0.505
226.000	190.743	80.010	19.997	100.420	20.195	3.522	0.505
228.000	191.697	80.010	19.996	100.420	20.195	3.540	0.480
230.000	192.629	80.009	19.996	100.403	20.195	3.534	0.450
232.000	193.622	80.009	19.995	100.414	20.197	3.360	0.469
234.000	194.619	80.008	19.995	100.425	20.193	3.681	0.479
236.000	195.577	80.009	19.995	100.424	20.195	3.523	0.468
238.000	196.590	80.008	19.996	100.422	20.196	3.449	0.493
240.000	197.550	80.008	19.997	100.410	20.199	3.203	0.476
242.000	198.527	80.010	19.996	100.410	20.195	3.540	0.471
244.000	199.502	80.009	19.997	100.407	20.192	3.751	0.496
246.000	200.472	80.008	19.996	100.408	20.192	3.743	0.454
248.000	201.520	80.008	19.996	100.406	20.194	3.557	0.514
250.000	202.493	80.008	19.997	100.410	20.193	3.656	0.498
252.000	203.442	80.009	19.997	100.410	20.190	3.892	0.470
254.000	204.437	80.008	19.997	100.403	20.193	3.644	0.523
256.000	205.433	80.008	19.996	100.406	20.190	3.890	0.528
258.001	206.382	80.008	19.996	100.411	20.192	3.735	0.507
260.000	207.379	80.008	19.996	100.414	20.192	3.718	0.490
262.000	208.425	80.008	19.996	100.412	20.192	3.745	0.503
264.000	209.372	80.008	19.995	100.411	20.192	3.768	0.493
266.000	210.382	80.008	19.995	100.409	20.191	3.801	0.500
268.000	211.377	80.008	19.995	100.409	20.192	3.734	0.471
270.000	212.365	80.009	19.995	100.408	20.188	4.006	0.509
272.000	213.366	80.009	19.996	100.407	20.186	4.188	0.502
274.000	214.363	80.010	19.994	100.403	20.189	3.931	0.510
276.000	215.363	80.012	19.994	100.402	20.183	4.440	0.494
278.000	216.374	80.010	19.995	100.401	20.186	4.190	0.511
280.000	217.356	80.011	19.995	100.402	20.185	4.241	0.478
282.000	218.365	80.009	19.996	100.401	20.189	3.989	0.512
284.000	219.305	80.011	19.995	100.405	20.186	4.215	0.482
286.000	220.353	80.010	19.995	100.404	20.187	4.090	0.531
288.000	221.332	80.010	19.995	100.404	20.184	4.341	0.508
290.000	222.302	80.010	19.995	100.401	20.182	4.511	0.507
292.000	223.326	80.010	19.996	100.398	20.182	4.473	0.519
294.000	224.300	80.011	19.996	100.402	20.183	4.453	0.521
296.000	225.350	80.011	19.994	100.400	20.182	4.502	0.525
298.000	226.336	80.012	19.995	100.399	20.185	4.291	0.497
300.000	227.287	80.012	19.994	100.401	20.180	4.639	0.474
302.000	228.327	80.013	19.994	100.400	20.180	4.627	0.515
304.000	229.326	80.012	19.995	100.402	20.179	4.728	0.500
306.000	230.335	80.010	19.995	100.400	20.180	4.645	0.525
308.000	231.329	80.010	19.995	100.400	20.180	4.674	0.478
310.000	232.318	80.010	19.995	100.404	20.179	4.723	0.493
312.000	233.356	80.010	19.995	100.401	20.176	4.956	0.529
314.000	234.319	80.008	19.996	100.404	20.178	4.817	0.492
316.000	235.285	80.007	19.996	100.402	20.176	4.952	0.482
318.000	236.301	80.008	19.996	100.400	20.177	4.891	0.471
320.000	237.287	80.007	19.996	100.388	20.175	4.991	0.511
322.000	238.304	80.008	19.996	100.396	20.175	4.999	0.508
324.000	239.301	80.009	19.996	100.404	20.178	4.794	0.506
326.000	240.255	80.008	19.996	100.403	20.174	5.067	0.478
328.000	241.318	80.010	19.995	100.402	20.176	4.968	0.504
330.000	242.295	80.009	19.995	100.395	20.173	5.181	0.514
332.000	243.313	80.008	19.995	100.401	20.173	5.179	0.507
334.000	244.311	80.009	19.995	100.402	20.174	5.115	0.508
336.000	245.264	80.008	19.995	100.393	20.172	5.227	0.466
338.000	246.332	80.008	19.995	100.401	20.170	5.369	0.525
340.000	247.297	80.008	19.995	100.400	20.169	5.445	0.493
342.000	248.314	80.009	19.996	100.399	20.171	5.326	0.481
344.000	249.302	80.007	19.997	100.395	20.168	5.537	0.509
346.000	250.343	80.007	19.997	100.397	20.169	5.474	0.528
348.000	251.337	80.008	19.996	100.395	20.165	5.793	0.483
350.000	252.332	80.009	19.997	100.384	20.164	5.881	0.486
352.000	253.282	80.008	19.996	100.393	20.166	5.671	0.481
354.000	254.293	80.009	19.997	100.392	20.163	5.961	0.492
356.000	255.320	80.010	19.997	100.387	20.163	5.924	0.512
358.000	256.309	80.011	19.996	100.383	20.165	5.796	0.494
360.000	257.285	80.011	19.996	100.392	20.166	5.705	0.478
362.000	258.237	80.013	19.995	100.392	20.160	6.130	0.466
364.000	259.248	80.011	19.995	100.384	20.160	6.128	0.498
366.000	260.193	80.010	19.995	100.392	20.158	6.290	0.487
368.000	261.176	80.010	19.995	100.393	20.157	6.413	0.470
370.000	262.156	80.010	19.995	100.396	20.159	6.255	0.486
372.000	263.193	80.010	19.995	100.386	20.155	6.515	0.520
374.000	264.173	80.007	19.996	100.384	20.160	6.162	0.501
376.000	265.155	80.009	19.996	100.376	20.156	6.426	0.497
378.001	266.153	80.010	19.995	100.393	20.156	6.478	0.507
380.001	267.153	80.011	19.995	100.392	20.155	6.511	0.498
382.000	268.116	80.011	19.994	100.384	20.153	6.726	0.502
384.000	269.122	80.011	19.995	100.392	20.150	6.919	0.488
386.000	270.110	80.011	19.994	100.389	20.149	6.967	0.493
388.000	271.145	80.011	19.994	100.384	20.150	6.940	0.510
390.000	272.140	80.011	19.993	100.390	20.146	7.234	0.488
392.000	273.092	80.009	19.994	100.383	20.148	7.033	0.436
394.000	274.194	80.008	19.994	100.376	20.146	7.239	0.543
396.000	275.160	80.008	19.995	100.387	20.143	7.484	0.477
398.000	276.134	80.008	19.995	100.391	20.148	7.069	0.480
400.000	277.114	80.009	19.994	100.393	20.145	7.270	0.492
402.000	278.192	80.009	19.994	100.395	20.144	7.400	0.503
404.000	279.216	80.010	19.996	100.387	20.142	7.499	0.536
406.000	280.216	80.009	19.995	100.374	20.144	7.394	0.528
408.000	281.232	80.009	19.996	100.381	20.140	7.648	0.523
410.000	282.234	80.009	19.996	100.379	20.137	7.866	0.475
412.000	283.257	80.009	19.995	100.367	20.141	7.566	0.492
414.000	284.289	80.009	19.995	100.364	20.139	7.737	0.512
416.000	285.298	80.009	19.996	100.362	20.140	7.668	0.504
418.000	286.340	80.011	19.995	100.368	20.136	7.975	0.525
420.000	287.340	80.010	19.995	100.364	20.137	7.926	0.505
422.000	288.361	80.009	19.996	100.373	20.135	8.021	0.492
424.000	289.352	80.009	19.996	100.365	20.134	8.122	0.495
426.000	290.419	80.009	19.996	100.374	20.133	8.182	0.546
428.000	291.389	80.008	19.996	100.374	20.129	8.540	0.461
430.000	292.447	80.010	19.996	100.367	20.130	8.434	0.514
432.000	293.412	80.009	19.996	100.370	20.129	8.498	0.512
434.000	294.419	80.009	19.996	100.365	20.128	8.585	0.516
436.000	295.421	80.010	19.996	100.363	20.128	8.555	0.502
438.000	296.427	80.010	19.996	100.363	20.129	8.540	0.499
440.000	297.454	80.010	19.996	100.365	20.127	8.629	0.524
442.000	298.388	80.008	19.995	100.365	20.126	8.705	0.484
444.000	299.377	80.010	19.997	100.364	20.128	8.606	0.461
446.000	300.397	80.010	19.996	100.366	20.127	8.672	0.504
448.000	301.404	80.009	19.996	100.370	20.125	8.834	0.525
450.000	302.387	80.009	19.996	100.371	20.124	8.886	0.507
452.000	303.384	80.009	19.996	100.365	20.123	8.983	0.525
454.000	304.379	80.010	19.996	100.364	20.121	9.101	0.487
456.000	305.382	80.009	19.996	100.364	20.122	9.016	0.496
458.000	306.407	80.011	19.995	100.364	20.121	9.099	0.519
460.000	307.388	80.011	19.995	100.365	20.118	9.332	0.492
462.000	308.400	80.011	19.995	100.366	20.120	9.210	0.514
464.000	309.377	80.010	19.995	100.365	20.115	9.535	0.489
466.000	310.392	80.011	19.995	100.367	20.117	9.444	0.471
468.000	311.437	80.011	19.995	100.365	20.115	9.545	0.486
470.000	312.472	80.012	19.995	100.365	20.113	9.717	0.510
472.000	313.482	80.012	19.995	100.361	20.115	9.605	0.513
474.000	314.465	80.011	19.994	100.359	20.114	9.638	0.499
476.000	315.455	80.009	19.995	100.359	20.112	9.771	0.454
478.000	316.474	80.009	19.995	100.361	20.114	9.609	0.527
480.000	317.451	80.009	19.996	100.360	20.111	9.905	0.510
482.000	318.455	80.008	19.995	100.361	20.109	10.048	0.489
484.000	319.466	80.008	19.995	100.362	20.112	9.804	0.485
486.000	320.497	80.008	19.996	100.362	20.111	9.889	0.537
488.000	321.468	80.007	19.996	100.362	20.110	9.959	0.535
490.000	322.455	80.010	19.995	100.361	20.110	9.914	0.467
492.000	323.478	80.010	19.995	100.361	20.108	10.088	0.498
494.000	324.446	80.010	19.995	100.362	20.108	10.129	0.452
496.000	325.463	80.011	19.996	100.362	20.109	10.060	0.513
498.000	326.497	80.010	19.996	100.362	20.106	10.263	0.527
500.000	327.448	80.009	19.996	100.362	20.105	10.317	0.471
502.000	328.450	80.010	19.995	100.363	20.101	10.630	0.507
504.000	329.473	80.009	19.995	100.362	20.101	10.605	0.492
506.000	330.457	80.007	19.995	100.362	20.106	10.276	0.477
508.000	331.433	80.007	19.996	100.363	20.100	10.687	0.479
510.000	332.443	80.008	19.995	100.363	20.101	10.603	0.482
512.000	333.449	80.008	19.996	100.364	20.104	10.423	0.482
514.000	334.477	80.009	19.996	100.362	20.102	10.538	0.501
516.000	335.442	80.009	19.996	100.363	20.100	10.725	0.474
518.000	336.412	80.008	19.996	100.362	20.100	10.694	0.490
520.000	337.445	80.010	19.996	100.362	20.100	10.743	0.521
522.000	338.448	80.010	19.996	100.365	20.099	10.766	0.499
524.000	339.479	80.010	19.995	100.363	20.099	10.764	0.555
526.000	340.483	80.011	19.995	100.361	20.095	11.122	0.505
528.000	341.520	80.010	19.995	100.364	20.097	10.900	0.491
530.000	342.484	80.009	19.995	100.362	20.095	11.093	0.506
532.000	343.472	80.010	19.996	100.360	20.091	11.361	0.508
534.000	344.469	80.009	19.996	100.361	20.091	11.409	0.479
536.000	345.490	80.009	19.997	100.362	20.093	11.223	0.517
538.000	346.514	80.009	19.997	100.358	20.094	11.150	0.493
540.000	347.453	80.009	19.997	100.361	20.092	11.324	0.471
542.000	348.492	80.011	19.996	100.360	20.093	11.260	0.504
544.000	349.520	80.010	19.996	100.357	20.091	11.390	0.506
546.000	350.516	80.011	19.996	100.358	20.089	11.511	0.531
548.000	351.527	80.011	19.995	100.359	20.086	11.754	0.516
550.000	352.564	80.012	19.996	100.358	20.089	11.552	0.539
552.001	353.614	80.013	19.995	100.356	20.086	11.749	0.550
554.000	354.559	80.012	19.994	100.347	20.083	11.982	0.484
556.001	355.566	80.012	19.995	100.354	20.083	11.995	0.468
558.000	356.561	80.009	19.995	100.358	20.084	11.957	0.512
560.000	357.557	80.009	19.995	100.352	20.083	11.960	0.494
562.000	358.574	80.009	19.994	100.359	20.082	12.070	0.481
564.000	359.572	80.009	19.996	100.360	20.083	12.016	0.507
566.000	360.569	80.010	19.996	100.355	20.081	12.119	0.475
568.000	361.590	80.008	19.995	100.357	20.080	12.229	0.479
570.000	362.563	80.009	19.995	100.355	20.076	12.523	0.479
572.000	363.570	80.009	19.996	100.353	20.077	12.424	0.469
574.000	364.585	80.009	19.996	100.357	20.074	12.691	0.506
576.000	365.579	80.009	19.996	100.360	20.075	12.627	0.485
578.000	366.608	80.009	19.996	100.355	20.076	12.489	0.517
580.000	367.670	80.009	19.995	100.354	20.074	12.690	0.527
582.000	368.636	80.008	19.995	100.346	20.073	12.718	0.500
584.000	369.615	80.008	19.995	100.347	20.073	12.745	0.499
586.000	370.633	80.009	19.995	100.346	20.071	12.879	0.490
588.000	371.620	80.008	19.994	100.354	20.071	12.924	0.527
590.000	372.657	80.009	19.995	100.355	20.069	13.050	0.499
592.000	373.722	80.009	19.995	100.355	20.067	13.188	0.527
594.000	374.709	80.010	19.994	100.349	20.067	13.198	0.535
596.000	375.684	80.009	19.995	100.350	20.069	13.079	0.507
598.000	376.647	80.009	19.995	100.344	20.066	13.295	0.506
600.000	377.655	80.010	19.995	100.352	20.065	13.368	0.487
602.000	378.700	80.010	19.995	100.346	20.061	13.696	0.505
604.000	379.704	80.009	19.995	100.337	20.063	13.515	0.519
606.000	380.695	80.009	19.997	100.341	20.062	13.585	0.516
608.000	381.648	80.011	19.996	100.350	20.060	13.710	0.477
610.000	382.673	80.012	19.997	100.345	20.059	13.802	0.521
612.000	383.655	80.009	19.997	100.346	20.059	13.834	0.480
614.000	384.702	80.009	19.996	100.342	20.052	14.380	0.525
616.000	385.679	80.010	19.996	100.342	20.053	14.299	0.488
618.000	386.667	80.009	19.996	100.354	20.051	14.446	0.537
620.000	387.658	80.010	19.996	100.338	20.049	14.539	0.491
622.000	388.664	80.011	19.996	100.342	20.049	14.588	0.516
624.000	389.628	80.011	19.995	100.341	20.046	14.829	0.503
626.000	390.625	80.012	19.996	100.347	20.043	15.053	0.496
628.000	391.614	80.011	19.996	100.351	20.040	15.264	0.516
630.000	392.624	80.013	19.996	100.336	20.042	15.082	0.486
632.000	393.658	80.012	19.996	100.343	20.042	15.133	0.538
634.000	394.629	80.011	19.996	100.344	20.040	15.258	0.495
636.000	395.633	80.011	19.995	100.346	20.036	15.547	0.500
638.000	396.665	80.012	19.996	100.343	20.036	15.529	0.513
640.000	397.680	80.010	19.996	100.344	20.035	15.602	0.524
642.000	398.704	80.008	19.995	100.345	20.035	15.629	0.523
644.000	399.699	80.009	19.996	100.341	20.032	15.874	0.528
646.000	400.719	80.009	19.996	100.349	20.032	15.877	0.519
648.000	401.769	80.008	19.996	100.348	20.029	16.107	0.513
650.000	402.783	80.009	19.996	100.348	20.026	16.284	0.543
652.000	403.811	80.009	19.996	100.340	20.026	16.342	0.534
654.000	404.842	80.009	19.995	100.337	20.026	16.326	0.500
656.000	405.870	80.009	19.995	100.353	20.018	16.924	0.539
658.000	406.896	80.009	19.995	100.341	20.017	17.029	0.513
660.000	407.937	80.010	19.995	100.342	20.010	17.543	0.502
662.000	408.935	80.010	19.995	100.348	20.009	17.582	0.500
664.000	409.958	80.009	19.997	100.346	20.007	17.739	0.515
666.000	410.975	80.010	19.995	100.349	20.004	17.973	0.500
668.000	412.012	80.009	19.996	100.346	20.002	18.136	0.526
670.000	412.988	80.009	19.995	100.337	20.000	18.295	0.478
672.000	413.980	80.008	19.995	100.338	19.994	18.730	0.485
674.000	414.961	80.008	19.995	100.339	19.993	18.830	0.495
676.000	415.989	80.008	19.996	100.336	19.990	19.064	0.486
678.000	416.985	80.009	19.996	100.341	19.992	18.871	0.521
680.000	418.048	80.009	19.995	100.347	19.985	19.392	0.530
682.000	419.020	80.009	19.995	100.329	19.983	19.574	0.509
684.000	420.055	80.011	19.995	100.329	19.982	19.624	0.543
686.000	421.052	80.010	19.995	100.330	19.978	19.956	0.515
688.000	422.075	80.010	19.995	100.330	19.974	20.255	0.535
690.000	423.090	80.011	19.995	100.327	19.967	20.797	0.507
692.000	424.140	80.013	19.995	100.332	19.969	20.660	0.498
694.000	425.146	80.011	19.995	100.332	19.966	20.887	0.520
696.000	426.148	80.011	19.996	100.329	19.965	20.969	0.531
698.000	427.169	80.011	19.996	100.340	19.959	21.383	0.496
700.000	428.182	80.012	19.996	100.334	19.956	21.594	0.511
702.000	429.190	80.010	19.996	100.337	19.952	21.946	0.508
704.000	430.179	80.011	19.995	100.328	19.949	22.133	0.473
706.000	431.220	80.009	19.996	100.332	19.948	22.253	0.523
708.000	432.246	80.011	19.995	100.328	19.946	22.393	0.509
710.000	433.270	80.013	19.996	100.334	19.943	22.575	0.524
712.000	434.307	80.012	19.995	100.327	19.944	22.554	0.528
714.000	435.317	80.012	19.995	100.325	19.942	22.669	0.530
716.000	436.314	80.012	19.995	100.327	19.936	23.115	0.497
718.000	437.311	80.012	19.995	100.329	19.940	22.797	0.516
720.000	438.373	80.010	19.995	100.326	19.936	23.115	0.530
722.000	439.415	80.010	19.995	100.326	19.934	23.297	0.525
724.000	440.411	80.010	19.996	100.326	19.934	23.261	0.522
726.000	441.449	80.009	19.996	100.333	19.933	23.398	0.505
728.000	442.480	80.007	19.996	100.329	19.931	23.548	0.487
730.000	443.457	80.008	19.996	100.328	19.929	23.683	0.514
732.000	444.508	80.009	19.996	100.326	19.926	23.875	0.523
734.000	445.531	80.008	19.996	100.324	19.924	24.074	0.515
736.000	446.511	80.009	19.995	100.324	19.925	23.954	0.511
738.000	447.552	80.010	19.998	100.322	19.922	24.159	0.480
740.001	448.590	80.010	19.996	100.322	19.923	24.122	0.500
742.000	449.609	80.009	19.996	100.321	19.924	24.045	0.495
744.000	450.609	80.011	19.997	100.323	19.923	24.101	0.501
746.000	451.595	80.010	19.995	100.322	19.927	23.799	0.520
748.000	452.610	80.010	19.994	100.324	19.927	23.815	0.501
750.000	453.619	80.009	19.996	100.323	19.928	23.716	0.507
752.000	454.631	80.009	19.995	100.324	19.930	23.593	0.493
754.000	455.686	80.008	19.994	100.324	19.934	23.322	0.528
756.000	456.713	80.009	19.995	100.323	19.936	23.166	0.537
758.000	457.688	80.008	19.995	100.324	19.940	22.794	0.484
760.000	458.707	80.009	19.995	100.322	19.941	22.723	0.508
762.000	459.777	80.009	19.996	100.323	19.947	22.279	0.497
764.000	460.793	80.009	19.995	100.324	19.952	21.950	0.502
766.000	461.824	80.008	19.996	100.325	19.955	21.717	0.517
768.000	462.779	80.010	19.995	100.324	19.966	20.894	0.490
770.000	463.832	80.009	19.996	100.331	19.968	20.681	0.498
772.000	464.838	80.010	19.995	100.325	19.977	20.009	0.502
774.000	465.817	80.009	19.996	100.325	19.982	19.652	0.489
776.000	466.844	80.011	19.995	100.325	19.990	19.037	0.484
778.000	467.893	80.012	19.994	100.325	20.001	18.178	0.540
780.000	468.911	80.010	19.995	100.326	20.008	17.684	0.528
782.000	469.935	80.010	19.996	100.328	20.014	17.202	0.516
784.000	470.923	80.010	19.996	100.330	20.020	16.749	0.489
786.001	471.987	80.010	19.994	100.333	20.030	16.016	0.524
788.000	472.991	80.010	19.996	100.328	20.040	15.234	0.523
790.000	474.065	80.011	19.997	100.329	20.049	14.541	0.553
792.000	475.070	80.011	19.994	100.328	20.059	13.830	0.525
794.000	476.109	80.010	19.995	100.327	20.070	12.979	0.534
796.000	477.123	80.010	19.997	100.326	20.078	12.334	0.512
798.000	478.119	80.011	19.993	100.327	20.091	11.354	0.540
800.000	479.151	80.012	19.998	100.325	20.095	11.067	0.510
802.000	480.208	80.010	19.995	100.323	20.103	10.440	0.552
804.000	481.245	80.011	19.995	100.324	20.110	9.914	0.527
806.000	482.268	80.010	19.995	100.321	20.116	9.486	0.521
808.000	483.256	80.010	19.992	100.326	20.122	9.013	0.503
810.000	484.293	80.010	19.995	100.325	20.130	8.421	0.471
812.000	485.357	80.009	19.995	100.329	20.136	8.001	0.514
814.000	486.345	80.009	19.995	100.325	20.142	7.491	0.500
816.001	487.348	80.008	19.994	100.324	20.147	7.134	0.508
818.000	488.353	80.010	19.996	100.330	20.150	6.878	0.512
820.000	489.373	80.010	19.996	100.334	20.156	6.444	0.512
822.000	490.406	80.009	19.996	100.323	20.160	6.192	0.498
824.000	491.425	80.009	19.996	100.335	20.164	5.886	0.518
826.000	492.426	80.008	19.996	100.327	20.165	5.805	0.498
828.000	493.498	80.009	19.997	100.328	20.171	5.354	0.508
830.000	494.515	80.008	19.997	100.335	20.176	4.972	0.529
832.000	495.505	80.009	19.997	100.343	20.177	4.876	0.501
834.000	496.518	80.008	19.997	100.348	20.179	4.754	0.507
836.000	497.523	80.007	19.997	100.348	20.185	4.297	0.515
838.000	498.525	80.008	19.997	100.345	20.185	4.270	0.472
840.000	499.539	80.008	19.996	100.351	20.184	4.322	0.506
842.000	500.525	80.007	19.996	100.352	20.191	3.842	0.471
844.000	501.575	80.009	19.996	100.343	20.193	3.641	0.512
846.000	502.555	80.009	19.995	100.337	20.191	3.800	0.507
848.000	503.545	80.009	19.995	100.342	20.190	3.906	0.493
850.000	504.544	80.009	19.994	100.342	20.196	3.424	0.499
852.000	505.567	80.010	19.995	100.342	20.193	3.676	0.516
854.000	506.578	80.010	19.995	100.342	20.198	3.289	0.493
856.000	507.552	80.010	19.995	100.341	20.200	3.099	0.504
858.000	508.537	80.009	19.995	100.339	20.201	3.074	0.508
860.000	509.550	80.009	19.995	100.339	20.205	2.712	0.497
862.000	510.576	80.010	19.994	100.331	20.204	2.811	0.512
864.000	511.524	80.009	19.995	100.332	20.203	2.936	0.507
866.000	512.535	80.009	19.996	100.340	20.205	2.783	0.487
868.000	513.527	80.009	19.995	100.350	20.204	2.816	0.517
870.000	514.578	80.011	19.995	100.348	20.207	2.582	0.494
872.000	515.601	80.012	19.996	100.331	20.206	2.702	0.507
874.000	516.582	80.012	19.994	100.336	20.211	2.276	0.519
876.001	517.589	80.011	19.995	100.339	20.217	1.814	0.498
878.000	518.611	80.013	19.993	100.345	20.210	2.362	0.503
880.000	519.616	80.012	19.994	100.352	20.211	2.278	0.488
882.000	520.665	80.011	19.995	100.337	20.215	2.013	0.517
884.000	521.622	80.011	19.995	100.340	20.213	2.176	0.499
886.000	522.637	80.009	19.995	100.339	20.217	1.852	0.525
888.000	523.673	80.009	19.995	100.333	20.212	2.180	0.513
890.000	524.732	80.009	19.996	100.341	20.211	2.274	0.523
892.000	525.690	80.010	19.996	100.338	20.213	2.137	0.509
894.000	526.678	80.009	19.996	100.341	20.218	1.783	0.472
896.000	527.644	80.008	19.995	100.342	20.215	1.967	0.462
898.000	528.674	80.008	19.996	100.343	20.216	1.947	0.529
900.000	529.706	80.007	19.996	100.332	20.213	2.108	0.495
902.000	530.693	80.009	19.995	100.340	20.213	2.168	0.470
904.000	531.659	80.009	19.996	100.340	20.214	2.085	0.515
906.001	532.695	80.009	19.996	100.335	20.214	2.077	0.502
908.000	533.692	80.009	19.996	100.334	20.216	1.922	0.495
910.000	534.675	80.010	19.995	100.345	20.217	1.844	0.505
912.000	535.709	80.009	19.995	100.352	20.214	2.057	0.530
914.000	536.648	80.009	19.995	100.345	20.215	2.017	0.466
916.000	537.629	80.009	19.996	100.327	20.216	1.901	0.476
918.000	538.596	80.007	19.996	100.336	20.215	2.019	0.493
920.000	539.630	80.006	19.996	100.349	20.216	1.930	0.491
922.000	540.587	80.006	19.996	100.349	20.214	2.086	0.474
924.000	541.568	80.008	19.995	100.354	20.215	1.951	0.476
926.001	542.546	80.007	19.996	100.342	20.218	1.788	0.488
928.000	543.532	80.008	19.996	100.352	20.218	1.775	0.492
930.000	544.489	80.007	19.996	100.346	20.214	2.087	0.485
932.000	545.462	80.009	19.996	100.353	20.217	1.846	0.482
934.000	546.446	80.008	19.995	100.360	20.215	1.961	0.482
936.000	547.415	80.009	19.996	100.353	20.217	1.835	0.503
938.000	548.411	80.010	19.996	100.361	20.217	1.854	0.497
940.000	549.432	80.011	19.995	100.338	20.214	2.088	0.506
942.000	550.421	80.010	19.995	100.348	20.217	1.808	0.525
944.000	551.399	80.009	19.994	100.357	20.215	1.990	0.490
946.000	552.427	80.009	19.995	100.342	20.213	2.162	0.525
948.000	553.456	80.008	19.995	100.342	20.215	1.992	0.506
950.000	554.460	80.009	19.995	100.346	20.218	1.732	0.524
952.000	555.504	80.008	19.995	100.345	20.217	1.837	0.484
954.000	556.548	80.011	19.995	100.346	20.217	1.864	0.533
956.000	557.513	80.012	19.996	100.350	20.218	1.784	0.484
958.000	558.563	80.011	19.995	100.337	20.215	1.988	0.503
960.000	559.613	80.011	19.995	100.340	20.218	1.783	0.500
962.000	560.654	80.011	19.995	100.354	20.215	2.009	0.522
964.000	561.678	80.011	19.994	100.357	20.217	1.841	0.516
966.000	562.710	80.010	19.996	100.357	20.217	1.854	0.511
968.000	563.781	80.009	19.997	100.355	20.215	1.959	0.525
970.000	564.785	80.009	19.995	100.355	20.214	2.046	0.525
972.000	565.837	80.010	19.997	100.353	20.214	2.032	0.536
974.000	566.879	80.010	19.994	100.358	20.218	1.753	0.545
976.000	567.931	80.010	19.997	100.353	20.218	1.750	0.568
978.000	568.994	80.009	19.996	100.363	20.219	1.715	0.528
980.000	570.020	80.008	19.993	100.346	20.215	2.003	0.500
982.000	571.091	80.007	19.997	100.355	20.217	1.833	0.517
984.000	572.136	80.009	19.993	100.354	20.215	2.011	0.490
986.000	573.200	80.009	19.994	100.358	20.213	2.131	0.510
988.000	574.316	80.009	19.996	100.351	20.216	1.891	0.562
990.000	575.384	80.008	19.996	100.354	20.214	2.090	0.534
992.000	576.479	80.009	19.995	100.349	20.216	1.891	0.531
994.000	577.521	80.008	19.995	100.356	20.217	1.868	0.508
996.000	578.637	80.008	19.996	100.349	20.218	1.759	0.574
998.000	579.686	80.007	19.994	100.355	20.213	2.154	0.540
1000.000	580.752	80.008	19.996	100.350	20.219	1.649	0.564
1002.000	581.883	80.009	19.998	100.348	20.218	1.736	0.576
1004.000	582.969	80.007	19.997	100.355	20.217	1.837	0.516
1006.000	584.054	80.008	19.996	100.349	20.215	1.953	0.546
1008.000	585.150	80.008	19.994	100.355	20.217	1.815	0.552
1010.000	586.277	80.009	19.998	100.361	20.216	1.879	0.545
1012.000	587.315	80.008	19.997	100.356	20.216	1.905	0.525
1014.000	588.437	80.009	19.995	100.350	20.213	2.133	0.548
1016.000	589.515	80.010	19.996	100.359	20.216	1.920	0.547
1018.000	590.589	80.009	19.997	100.355	20.216	1.879	0.552
1020.000	591.686	80.011	19.997	100.347	20.218	1.734	0.544
1022.000	592.761	80.010	19.997	100.344	20.220	1.626	0.546
1024.000	593.841	80.009	19.997	100.354	20.218	1.780	0.537
1026.000	594.978	80.010	19.998	100.359	20.221	1.560	0.556
1028.000	596.020	80.009	19.997	100.354	20.219	1.713	0.509
1030.000	597.133	80.009	19.997	100.354	20.221	1.562	0.558
1032.000	598.192	80.010	19.995	100.355	20.220	1.583	0.554
1034.001	599.319	80.010	19.996	100.362	20.220	1.583	0.551
1036.001	600.320	80.010	19.994	100.363	20.220	1.612	0.489
1038.000	601.378	80.009	19.993	100.359	20.221	1.539	0.527
1040.000	602.393	80.012	19.993	100.352	20.223	1.347	0.509
1042.000	603.460	80.012	19.994	100.354	20.220	1.616	0.491
1044.001	604.413	80.012	19.997	100.358	20.221	1.527	0.491
1046.000	605.427	80.011	19.995	100.353	20.221	1.521	0.480
1048.000	606.399	80.012	19.996	100.351	20.223	1.351	0.481
1050.000	607.362	80.009	19.993	100.359	20.220	1.626	0.488
1052.000	608.379	80.010	19.996	100.358	20.221	1.550	0.495
1054.001	609.367	80.009	19.997	100.356	20.223	1.351	0.532
1056.001	610.314	80.009	19.996	100.352	20.224	1.270	0.485
1058.000	611.319	80.010	19.998	100.362	20.222	1.494	0.483
1060.000	612.276	80.009	19.994	100.361	20.221	1.570	0.480
1062.001	613.257	80.010	19.995	100.364	20.223	1.359	0.484
1064.001	614.220	80.008	19.995	100.362	20.223	1.409	0.510
1066.000	615.200	80.009	19.993	100.364	20.222	1.482	0.503
1068.000	616.176	80.010	19.997	100.361	20.220	1.600	0.482
1070.000	617.168	80.010	19.992	100.358	20.222	1.438	0.504
1072.001	618.139	80.009	19.994	100.359	20.223	1.351	0.466
1074.000	619.112	80.009	19.994	100.362	20.219	1.653	0.530
1076.000	620.093	80.009	19.997	100.364	20.220	1.599	0.497
1078.000	621.101	80.009	19.996	100.364	20.217	1.848	0.507
1080.001	622.051	80.008	19.995	100.363	20.220	1.589	0.493
1082.000	623.067	80.009	19.996	100.363	20.220	1.647	0.524
1084.000	624.044	80.007	19.996	100.355	20.220	1.624	0.507
1086.000	625.008	80.007	19.995	100.361	20.220	1.610	0.496
1088.000	625.953	80.008	19.997	100.361	20.223	1.370	0.443
1090.001	626.976	80.008	19.995	100.364	20.219	1.701	0.486
1092.000	628.000	80.008	19.997	100.364	20.218	1.786	0.547
1094.001	628.965	80.009	19.998	100.363	20.218	1.742	0.496
1096.000	629.987	80.009	19.997	100.362	20.221	1.529	0.523
1098.001	630.985	80.010	19.996	100.365	20.217	1.823	0.501
1100.000	631.992	80.010	19.996	100.366	20.220	1.589	0.492
1102.000	633.065	80.011	19.997	100.367	20.220	1.573	0.510
1104.000	634.034	80.010	19.995	100.367	20.218	1.788	0.478
1106.000	635.075	80.010	19.997	100.368	20.220	1.592	0.513
1108.000	636.076	80.009	19.996	100.370	20.216	1.900	0.505
1110.000	637.153	80.008	19.996	100.369	20.218	1.749	0.508
1112.000	638.157	80.009	19.996	100.376	20.216	1.941	0.510
1114.001	639.173	80.010	19.997	100.385	20.218	1.790	0.539
1116.000	640.232	80.008	19.997	100.392	20.220	1.631	0.510
1118.000	641.221	80.009	19.997	100.373	20.218	1.724	0.548
1120.000	642.250	80.009	19.994	100.374	20.217	1.828	0.504
1122.000	643.302	80.010	19.996	100.388	20.217	1.828	0.518
1124.000	644.325	80.010	19.996	100.388	20.217	1.842	0.517
1126.001	645.293	80.013	19.996	100.390	20.216	1.892	0.478
1128.000	646.367	80.011	19.995	100.390	20.219	1.689	0.549
1130.000	647.397	80.012	19.995	100.398	20.216	1.879	0.522
1132.000	648.418	80.010	19.994	100.388	20.215	1.960	0.503
1134.001	649.446	80.010	19.994	100.387	20.218	1.726	0.511
1136.000	650.477	80.010	19.997	100.396	20.216	1.927	0.530
1138.000	651.505	80.010	19.995	100.381	20.218	1.757	0.488
1140.001	652.497	80.009	19.993	100.382	20.214	2.103	0.493
1142.000	653.508	80.008	19.995	100.381	20.214	2.031	0.500
1144.000	654.542	80.008	19.996	100.394	20.215	2.020	0.490
1146.001	655.562	80.009	19.996	100.396	20.212	2.209	0.527
1148.000	656.605	80.008	19.994	100.395	20.210	2.333	0.526
1150.000	657.581	80.010	19.995	100.392	20.211	2.258	0.502
1152.000	658.559	80.009	19.996	100.401	20.216	1.946	0.475
1154.000	659.584	80.011	19.997	100.401	20.212	2.250	0.499
1156.000	660.571	80.010	19.996	100.400	20.210	2.341	0.469
1158.000	661.584	80.010	19.994	100.401	20.213	2.130	0.489
1160.000	662.565	80.009	19.997	100.402	20.212	2.209	0.466
1162.000	663.565	80.010	19.997	100.402	20.211	2.306	0.500
1164.000	664.582	80.009	19.996	100.404	20.213	2.145	0.516
1166.000	665.575	80.009	19.997	100.403	20.209	2.419	0.462
1168.000	666.579	80.009	19.997	100.405	20.210	2.367	0.500
1170.001	667.612	80.009	19.995	100.411	20.208	2.497	0.509
1172.000	668.605	80.008	19.995	100.409	20.210	2.402	0.518
1174.000	669.579	80.010	19.996	100.418	20.209	2.479	0.489
1176.001	670.531	80.010	19.997	100.431	20.210	2.338	0.495
1178.000	671.564	80.011	19.994	100.439	20.208	2.536	0.493
1180.000	672.553	80.009	19.996	100.433	20.214	2.073	0.493
1182.001	673.549	80.011	19.997	100.430	20.209	2.477	0.493
1184.001	674.567	80.011	19.998	100.431	20.211	2.332	0.508
1186.000	675.560	80.009	19.997	100.436	20.205	2.777	0.492
1188.000	676.546	80.010	19.996	100.428	20.206	2.649	0.514
1190.001	677.518	80.010	19.994	100.435	20.207	2.615	0.501
1192.000	678.569	80.010	19.995	100.437	20.209	2.477	0.516
1194.000	679.562	80.007	19.996	100.439	20.209	2.454	0.506
1196.001	680.504	80.011	19.995	100.437	20.204	2.787	0.493
1198.000	681.506	80.009	19.997	100.436	20.204	2.810	0.508
1200.000	682.516	80.010	19.996	100.441	20.204	2.787	0.484
1202.000	683.505	80.011	19.995	100.441	20.204	2.802	0.494
1204.000	684.546	80.010	19.996	100.442	20.204	2.850	0.529
1206.001	685.561	80.010	19.998	100.444	20.204	2.852	0.497
1208.001	686.558	80.012	19.996	100.442	20.201	3.026	0.497
1210.000	687.561	80.011	19.997	100.440	20.202	2.985	0.493
1212.001	688.591	80.010	19.996	100.448	20.204	2.859	0.536
1214.001	689.563	80.009	19.996	100.446	20.202	2.952	0.493
1216.001	690.633	80.010	19.999	100.449	20.203	2.921	0.514
1218.001	691.639	80.009	19.997	100.466	20.203	2.915	0.501
1220.001	692.701	80.009	19.998	100.464	20.203	2.871	0.537
1222.000	693.649	80.008	19.997	100.468	20.201	3.085	0.486
1224.000	694.684	80.008	19.995	100.473	20.202	2.958	0.520
1226.000	695.737	80.010	19.994	100.470	20.201	3.037	0.512
1228.000	696.779	80.008	19.995	100.479	20.197	3.377	0.526
1230.000	697.794	80.010	19.997	100.478	20.200	3.139	0.566
1232.001	698.832	80.009	19.996	100.481	20.206	2.708	0.502
1234.000	699.838	80.010	19.997	100.482	20.179	4.745	0.473
1236.000	700.919	80.008	19.993	100.483	20.192	3.726	0.493
1238.000	701.919	80.010	19.996	100.484	20.197	3.392	0.519
1240.000	702.921	80.007	19.991	100.488	20.195	3.500	0.428
1242.000	703.985	80.008	19.995	100.492	20.192	3.717	0.466
1244.000	705.050	80.010	19.997	100.506	20.194	3.591	0.454
1246.001	706.764	80.012	19.998	100.509	20.193	3.674	1.444
1248.000	706.642	80.008	19.995	100.502	20.195	3.517	0.554
1250.000	707.336	80.007	19.995	100.514	20.194	3.623	0.880
1252.001	709.282	80.009	19.997	100.502	20.192	3.726	0.519
1254.001	709.950	80.008	19.995	100.514	20.190	3.898	0.381
1256.000	710.963	80.009	19.994	100.516	20.190	3.859	0.393
1258.000	712.012	80.009	19.993	100.505	20.191	3.847	0.471
1260.001	712.939	80.010	19.995	100.512	20.194	3.583	0.511
1262.000	713.922	80.013	19.994	100.518	20.194	3.614	0.514
1264.000	714.912	80.012	19.996	100.519	20.191	3.797	0.469
1266.001	715.915	80.011	19.995	100.519	20.193	3.656	0.503
1268.000	716.839	80.012	19.995	100.520	20.192	3.701	0.459
1270.001	717.775	80.011	19.995	100.521	20.188	4.033	0.456
1272.000	718.809	80.009	19.995	100.520	20.188	4.020	0.466
1274.000	719.796	80.010	19.996	100.521	20.188	4.070	0.505
1276.000	720.717	80.009	19.995	100.521	20.187	4.141	0.524
1278.000	721.589	80.010	19.997	100.521	20.187	4.097	0.393
1280.000	722.587	80.011	19.996	100.520	20.188	4.021	0.479
1282.000	723.543	80.011	19.998	100.515	20.190	3.906	0.459
1284.000	724.510	80.011	19.997	100.517	20.191	3.782	0.494
1286.000	725.515	80.012	19.993	100.518	20.188	4.033	0.486
1288.001	726.430	80.011	19.994	100.516	20.188	4.016	0.471
1290.000	727.423	80.013	19.995	100.518	20.191	3.823	0.480
1292.000	728.379	80.012	19.995	100.520	20.187	4.121	0.527
1294.000	729.381	80.012	19.997	100.512	20.188	4.011	0.461
1296.000	730.467	80.010	19.997	100.513	20.193	3.632	0.558
1298.000	731.417	80.009	19.996	100.506	20.188	4.027	0.464
1300.001	732.452	80.009	19.994	100.503	20.190	3.876	0.501
1302.000	733.547	80.009	19.996	100.507	20.191	3.778	0.566
1304.001	734.481	80.010	19.995	100.500	20.194	3.616	0.500
1306.000	735.434	80.010	19.997	100.486	20.193	3.676	0.502
1308.000	736.517	80.008	19.996	100.484	20.192	3.765	0.530
1310.000	737.540	80.008	19.996	100.483	20.193	3.655	0.546
1312.000	738.546	80.009	19.996	100.480	20.193	3.651	0.518
1314.000	739.578	80.007	19.997	100.465	20.192	3.735	0.523
1316.000	740.598	80.009	19.996	100.458	20.196	3.410	0.521
1318.000	741.642	80.009	19.996	100.459	20.197	3.391	0.503
1320.001	742.635	80.009	19.995	100.445	20.197	3.336	0.505
1322.000	743.657	80.010	19.995	100.443	20.197	3.373	0.493