File: 01_Data/Asphalt_Shingle/MCC/Asphalt_Shingle_MCC_30K_min_210928_R1.txt
Sample ID:	C:\MCC\MCC Cal\Test\Asphalt_Shingle\Asphalt_Shingle_MCC_30K_min_210928_R1.txt
Sample Weight (mg):	4.94
Heating Rate (C/s):	0.5
Combustor Temp (C):	900
N2 Flow Rate (cc/min):	80
O2 Flow Rate (cc/min):	20
Calibration File:	C:\MCC\MCC Cal\Coeff1 JN10440_30_210304.txt.txt
T Correction Coefficients:	0	1.024463	0
Time Shift (s):	14
*
Time (s)	Temperature (C)	N2 flow rate (cc/min)	O2 flow rate (cc/min)	Flow Rate (cc/min)	Oxygen (%)	HRR (W/g)	Heating rate (C/s)
0.000	108.626	80.008	19.995	100.200	20.143	-0.254	0.012
2.001	108.590	80.006	19.995	100.199	20.143	-0.225	0.010
4.000	108.550	80.008	19.994	100.207	20.142	-0.190	-0.012
6.000	108.586	80.008	19.995	100.208	20.141	-0.147	0.009
8.000	108.600	80.009	19.995	100.210	20.140	-0.067	0.026
10.001	108.563	80.008	19.996	100.199	20.136	0.192	0.009
12.000	108.583	80.008	19.995	100.195	20.137	0.124	0.028
14.000	108.624	80.006	19.995	100.204	20.137	0.102	0.031
16.000	108.599	80.006	19.995	100.210	20.137	0.147	-0.014
18.000	108.578	80.007	19.996	100.223	20.137	0.119	-0.019
20.000	108.594	80.007	19.994	100.225	20.134	0.314	0.026
22.000	108.568	80.007	19.995	100.221	20.130	0.596	-0.001
24.000	108.647	80.006	19.995	100.237	20.132	0.449	0.019
26.000	108.655	80.007	19.995	100.249	20.138	0.040	0.008
28.000	108.723	80.007	19.995	100.244	20.129	0.604	0.059
30.000	108.722	80.009	19.994	100.244	20.130	0.591	0.016
32.000	108.803	80.009	19.995	100.254	20.124	0.927	0.028
34.000	108.843	80.010	19.996	100.280	20.128	0.715	0.027
36.000	108.929	80.008	19.994	100.297	20.122	1.099	0.057
38.000	109.055	80.009	19.995	100.321	20.124	0.973	0.068
40.001	109.219	80.009	19.995	100.325	20.120	1.213	0.111
42.000	109.354	80.005	19.996	100.344	20.117	1.397	0.042
44.000	109.546	80.008	19.995	100.368	20.112	1.744	0.118
46.000	109.712	80.008	19.995	100.390	20.107	2.018	0.104
48.000	110.013	80.008	19.996	100.396	20.104	2.215	0.123
50.000	110.287	80.009	19.996	100.401	20.106	2.090	0.149
52.000	110.658	80.008	19.997	100.401	20.108	1.973	0.186
54.000	110.944	80.008	19.998	100.401	20.101	2.411	0.155
56.000	111.314	80.008	19.996	100.405	20.103	2.302	0.173
58.000	111.683	80.011	19.995	100.405	20.104	2.215	0.185
60.000	112.112	80.010	19.994	100.395	20.100	2.503	0.230
62.000	112.491	80.009	19.995	100.402	20.103	2.313	0.234
64.001	112.968	80.011	19.994	100.405	20.097	2.635	0.257
66.000	113.434	80.010	19.994	100.405	20.100	2.504	0.231
68.000	113.927	80.007	19.994	100.407	20.097	2.687	0.248
70.000	114.488	80.008	19.994	100.424	20.099	2.568	0.262
72.001	114.978	80.008	19.994	100.425	20.096	2.725	0.246
74.000	115.525	80.006	19.996	100.423	20.095	2.772	0.275
76.000	116.066	80.005	19.994	100.444	20.096	2.755	0.262
78.000	116.698	80.007	19.995	100.448	20.092	2.988	0.319
80.001	117.282	80.007	19.995	100.447	20.092	2.957	0.294
82.000	117.953	80.007	19.994	100.447	20.092	3.001	0.309
84.000	118.624	80.007	19.995	100.447	20.093	2.943	0.276
86.000	119.260	80.006	19.995	100.446	20.095	2.782	0.333
88.000	119.976	80.007	19.994	100.447	20.097	2.680	0.351
90.001	120.679	80.007	19.996	100.446	20.091	3.077	0.339
92.000	121.406	80.007	19.995	100.447	20.096	2.760	0.374
94.000	122.126	80.008	19.994	100.446	20.095	2.807	0.342
96.000	122.851	80.008	19.996	100.442	20.092	3.014	0.378
98.000	123.616	80.008	19.995	100.447	20.095	2.796	0.373
100.000	124.378	80.009	19.995	100.446	20.096	2.735	0.387
102.001	125.207	80.008	19.995	100.444	20.095	2.812	0.393
104.000	126.009	80.009	19.994	100.446	20.096	2.723	0.404
106.000	126.783	80.006	19.995	100.445	20.093	2.912	0.398
108.000	127.585	80.009	19.995	100.445	20.093	2.933	0.412
110.000	128.398	80.008	19.994	100.445	20.096	2.715	0.383
112.000	129.236	80.009	19.997	100.442	20.093	2.909	0.415
114.000	130.064	80.010	19.997	100.444	20.093	2.888	0.388
116.000	130.966	80.009	19.997	100.442	20.092	2.961	0.449
118.000	131.818	80.010	19.995	100.442	20.091	3.026	0.468
120.000	132.674	80.008	19.994	100.440	20.093	2.914	0.437
122.000	133.512	80.010	19.996	100.441	20.091	3.075	0.447
124.000	134.393	80.008	19.996	100.442	20.093	2.895	0.459
126.000	135.284	80.008	19.993	100.441	20.092	2.988	0.463
128.000	136.153	80.009	19.996	100.443	20.095	2.816	0.457
130.000	137.038	80.008	19.997	100.444	20.092	2.953	0.458
132.000	137.948	80.008	19.996	100.445	20.093	2.910	0.463
134.000	138.862	80.008	19.996	100.445	20.097	2.690	0.432
136.000	139.784	80.008	19.995	100.446	20.094	2.877	0.462
138.000	140.697	80.009	19.996	100.441	20.098	2.592	0.468
140.000	141.593	80.009	19.995	100.420	20.094	2.839	0.465
142.000	142.494	80.009	19.995	100.443	20.095	2.803	0.450
144.000	143.473	80.011	19.994	100.432	20.095	2.789	0.482
146.000	144.369	80.009	19.991	100.437	20.096	2.744	0.457
148.000	145.374	80.013	19.994	100.441	20.096	2.720	0.488
150.000	146.261	80.005	20.000	100.439	20.101	2.441	0.463
152.000	147.184	80.007	19.995	100.442	20.096	2.730	0.428
154.000	148.123	80.008	19.994	100.437	20.096	2.737	0.443
156.000	149.129	80.007	19.995	100.434	20.098	2.570	0.500
158.000	150.073	80.009	19.994	100.440	20.095	2.766	0.481
160.000	151.051	80.008	19.993	100.437	20.094	2.867	0.480
162.000	152.004	80.008	19.998	100.422	20.095	2.782	0.474
164.000	152.956	80.009	19.994	100.433	20.096	2.709	0.474
166.000	153.952	80.006	19.995	100.422	20.096	2.733	0.490
168.001	154.858	80.006	19.997	100.420	20.095	2.821	0.451
170.000	155.833	80.007	19.995	100.430	20.095	2.792	0.450
172.000	156.799	80.009	19.996	100.437	20.095	2.778	0.470
174.000	157.734	80.007	19.995	100.426	20.097	2.671	0.497
176.000	158.769	80.009	19.995	100.417	20.092	2.963	0.516
178.000	159.722	80.009	19.995	100.418	20.097	2.664	0.458
180.000	160.674	80.008	19.993	100.416	20.097	2.657	0.477
182.000	161.681	80.005	19.996	100.414	20.095	2.761	0.475
184.000	162.656	80.008	19.996	100.418	20.098	2.586	0.485
186.000	163.616	80.007	19.994	100.420	20.098	2.624	0.468
188.000	164.660	80.009	19.993	100.416	20.096	2.728	0.492
190.000	165.671	80.008	19.995	100.413	20.094	2.857	0.513
192.000	166.659	80.008	19.994	100.414	20.099	2.565	0.464
194.000	167.703	80.009	19.994	100.418	20.100	2.444	0.524
196.000	168.657	80.008	19.994	100.407	20.102	2.375	0.490
198.000	169.663	80.011	19.995	100.409	20.098	2.584	0.511
200.000	170.674	80.007	19.994	100.407	20.104	2.243	0.515
202.000	171.663	80.012	19.992	100.408	20.104	2.250	0.500
204.000	172.691	80.010	19.996	100.407	20.097	2.670	0.510
206.000	173.648	80.012	19.992	100.408	20.096	2.757	0.492
208.000	174.660	80.011	19.996	100.409	20.104	2.193	0.538
210.000	175.684	80.007	19.995	100.408	20.099	2.567	0.489
212.000	176.658	80.006	19.997	100.407	20.099	2.537	0.489
214.000	177.666	80.008	19.995	100.404	20.095	2.805	0.487
216.000	178.647	80.007	19.992	100.407	20.096	2.743	0.480
218.000	179.650	80.010	19.995	100.407	20.101	2.380	0.483
220.000	180.649	80.012	19.993	100.405	20.099	2.554	0.508
222.000	181.656	80.009	19.996	100.407	20.099	2.516	0.485
224.000	182.659	80.011	19.995	100.403	20.095	2.786	0.529
226.000	183.645	80.008	19.995	100.398	20.099	2.552	0.487
228.000	184.647	80.009	19.997	100.394	20.107	2.043	0.487
230.000	185.685	80.012	19.995	100.399	20.099	2.511	0.504
232.000	186.692	80.009	19.996	100.398	20.102	2.367	0.487
234.000	187.723	80.007	19.997	100.395	20.096	2.716	0.492
236.000	188.713	80.008	19.995	100.389	20.093	2.940	0.515
238.000	189.736	80.007	19.995	100.386	20.100	2.497	0.509
240.000	190.750	80.011	19.993	100.381	20.094	2.867	0.512
242.000	191.729	80.007	19.997	100.396	20.104	2.233	0.544
244.000	192.678	80.013	19.997	100.381	20.098	2.602	0.521
246.000	193.715	80.007	20.000	100.373	20.101	2.417	0.541
248.000	194.640	80.006	19.997	100.377	20.098	2.592	0.458
250.000	195.686	80.006	19.997	100.374	20.099	2.516	0.468
252.000	196.708	80.007	19.994	100.363	20.097	2.646	0.516
254.000	197.619	80.009	19.995	100.372	20.103	2.255	0.465
256.000	198.621	80.002	19.995	100.378	20.097	2.640	0.481
258.000	199.607	80.011	19.993	100.375	20.095	2.796	0.495
260.000	200.595	80.008	19.994	100.379	20.093	2.924	0.470
262.000	201.554	80.009	19.996	100.382	20.094	2.831	0.475
264.000	202.571	80.009	19.993	100.381	20.095	2.820	0.520
266.000	203.599	80.008	19.994	100.387	20.093	2.886	0.502
268.000	204.550	80.010	19.995	100.389	20.095	2.820	0.496
270.000	205.470	80.005	19.995	100.380	20.093	2.919	0.467
272.000	206.523	80.006	19.995	100.376	20.079	3.798	0.475
274.000	207.470	80.004	19.995	100.375	20.092	3.005	0.472
276.000	208.512	80.008	19.995	100.379	20.094	2.855	0.472
278.000	209.489	80.008	19.994	100.373	20.094	2.839	0.464
280.000	210.465	80.007	19.994	100.371	20.100	2.491	0.463
282.000	211.469	80.006	19.989	100.373	20.092	3.003	0.495
284.000	212.398	80.012	19.996	100.381	20.101	2.410	0.483
286.000	213.403	80.012	19.991	100.369	20.089	3.183	0.494
288.001	214.392	79.999	19.993	100.373	20.094	2.880	0.485
290.000	215.388	80.010	19.994	100.371	20.094	2.877	0.476
292.000	216.349	80.009	19.996	100.368	20.094	2.884	0.473
294.000	217.284	80.009	19.993	100.368	20.091	3.053	0.464
296.000	218.282	80.012	19.994	100.369	20.085	3.406	0.460
298.000	219.309	80.008	19.996	100.362	20.093	2.899	0.498
300.000	220.336	80.007	19.992	100.365	20.088	3.242	0.490
302.000	221.296	80.007	19.998	100.363	20.090	3.133	0.484
304.000	222.289	80.009	19.998	100.363	20.087	3.270	0.507
306.000	223.283	80.002	20.004	100.364	20.087	3.297	0.497
308.000	224.249	80.009	19.995	100.363	20.084	3.500	0.492
310.000	225.244	80.010	19.996	100.367	20.085	3.436	0.477
312.000	226.197	80.009	19.997	100.364	20.087	3.308	0.465
314.000	227.222	80.005	19.998	100.364	20.083	3.579	0.470
316.000	228.192	80.008	19.995	100.363	20.083	3.538	0.460
318.000	229.208	80.008	19.995	100.366	20.089	3.159	0.502
320.000	230.246	80.008	19.995	100.368	20.088	3.220	0.513
322.000	231.256	80.006	19.997	100.365	20.082	3.623	0.524
324.000	232.268	80.011	19.996	100.365	20.085	3.405	0.537
326.000	233.190	80.007	19.992	100.366	20.084	3.491	0.508
328.000	234.223	80.007	19.994	100.366	20.085	3.451	0.519
330.000	235.212	80.007	19.996	100.368	20.089	3.159	0.515
332.001	236.206	80.006	20.000	100.368	20.085	3.432	0.515
334.000	237.205	80.009	19.995	100.369	20.081	3.678	0.485
336.000	238.256	80.006	19.993	100.368	20.083	3.557	0.534
338.000	239.250	80.013	19.988	100.366	20.082	3.598	0.488
340.000	240.221	80.006	19.999	100.370	20.080	3.716	0.492
342.001	241.179	80.003	19.996	100.365	20.082	3.636	0.498
344.000	242.194	80.010	19.993	100.368	20.079	3.815	0.517
346.001	243.224	80.007	19.995	100.369	20.077	3.943	0.503
348.000	244.185	80.012	19.994	100.366	20.083	3.529	0.491
350.001	245.176	80.008	19.994	100.368	20.073	4.159	0.466
352.000	246.196	80.003	19.998	100.363	20.074	4.091	0.504
354.000	247.168	80.005	19.993	100.363	20.079	3.823	0.485
356.000	248.144	80.007	19.998	100.368	20.077	3.941	0.482
358.000	249.192	80.008	19.995	100.370	20.069	4.438	0.506
360.000	250.220	80.005	19.996	100.362	20.073	4.166	0.494
362.000	251.222	80.010	19.994	100.361	20.068	4.496	0.527
364.000	252.216	80.005	19.994	100.363	20.069	4.415	0.519
366.000	253.212	80.011	19.992	100.364	20.067	4.588	0.532
368.000	254.187	80.011	19.995	100.365	20.069	4.461	0.493
370.000	255.184	80.012	19.995	100.366	20.063	4.844	0.503
372.000	256.140	80.006	19.996	100.362	20.070	4.373	0.486
374.000	257.146	80.013	19.996	100.359	20.064	4.757	0.482
376.000	258.182	80.012	19.996	100.363	20.069	4.422	0.527
378.000	259.198	80.009	19.997	100.366	20.063	4.809	0.492
380.000	260.236	80.011	19.998	100.363	20.063	4.812	0.519
382.000	261.225	80.014	19.992	100.361	20.061	4.918	0.507
384.000	262.201	80.014	19.995	100.365	20.064	4.733	0.497
386.000	263.212	80.006	19.991	100.360	20.064	4.766	0.482
388.000	264.180	80.008	20.004	100.360	20.051	5.565	0.484
390.001	265.194	80.014	19.992	100.356	20.057	5.177	0.535
392.000	266.179	80.013	19.994	100.360	20.056	5.239	0.501
394.001	267.226	80.010	19.991	100.363	20.052	5.497	0.490
396.000	268.180	80.011	19.992	100.356	20.049	5.678	0.487
398.000	269.251	80.011	19.994	100.352	20.052	5.535	0.534
400.000	270.206	80.010	19.994	100.359	20.053	5.461	0.496
402.000	271.241	80.009	19.995	100.350	20.049	5.695	0.518
404.000	272.257	80.009	19.996	100.353	20.048	5.797	0.495
406.000	273.256	80.013	19.994	100.360	20.047	5.863	0.481
408.000	274.253	80.017	19.996	100.363	20.053	5.428	0.495
410.000	275.277	80.006	19.997	100.353	20.050	5.638	0.505
412.000	276.279	80.006	19.991	100.360	20.051	5.599	0.530
414.000	277.272	80.008	19.995	100.361	20.049	5.729	0.482
416.000	278.241	80.005	19.994	100.363	20.047	5.837	0.487
418.000	279.295	80.014	19.993	100.354	20.041	6.187	0.501
420.000	280.285	80.010	19.992	100.345	20.040	6.254	0.489
422.000	281.279	80.001	19.995	100.348	20.044	6.046	0.531
424.000	282.309	80.013	19.995	100.347	20.043	6.068	0.477
426.000	283.319	80.003	20.003	100.356	20.042	6.177	0.500
428.000	284.303	80.007	19.995	100.339	20.043	6.087	0.510
430.000	285.262	80.005	19.996	100.343	20.040	6.306	0.495
432.001	286.258	80.005	19.997	100.352	20.032	6.767	0.491
434.000	287.286	80.013	19.997	100.354	20.035	6.609	0.467
436.000	288.288	80.012	19.997	100.351	20.034	6.655	0.513
438.000	289.269	80.014	19.995	100.357	20.038	6.385	0.490
440.000	290.363	80.007	19.997	100.337	20.031	6.863	0.538
442.000	291.319	80.012	19.988	100.337	20.034	6.661	0.481
444.000	292.348	80.009	19.996	100.338	20.031	6.822	0.518
446.000	293.316	80.008	19.997	100.338	20.024	7.319	0.504
448.000	294.304	80.009	19.994	100.326	20.025	7.243	0.495
450.000	295.301	80.008	19.996	100.338	20.030	6.891	0.465
452.000	296.329	80.009	19.989	100.348	20.024	7.273	0.510
454.000	297.282	80.009	19.995	100.336	20.025	7.235	0.460
456.000	298.337	80.011	19.994	100.330	20.023	7.383	0.556
458.000	299.324	80.005	19.994	100.329	20.024	7.268	0.509
460.000	300.293	80.007	19.990	100.342	20.021	7.481	0.500
462.000	301.314	80.013	19.995	100.348	20.025	7.228	0.531
464.000	302.285	80.008	19.996	100.345	20.016	7.783	0.476
466.000	303.310	80.002	19.993	100.337	20.020	7.538	0.499
468.000	304.302	80.008	19.996	100.337	20.018	7.672	0.501
470.000	305.261	80.014	19.994	100.354	20.017	7.746	0.500
472.001	306.317	80.006	19.995	100.350	20.014	7.894	0.504
474.000	307.291	80.006	19.995	100.341	20.012	8.042	0.499
476.000	308.294	80.021	19.989	100.338	20.016	7.780	0.488
478.000	309.302	79.995	19.989	100.340	20.009	8.257	0.507
480.000	310.325	80.006	19.995	100.335	20.007	8.338	0.516
482.000	311.277	80.013	19.994	100.340	20.009	8.270	0.487
484.000	312.323	80.008	19.995	100.340	20.005	8.495	0.532
486.000	313.340	80.024	19.992	100.342	20.008	8.289	0.529
488.000	314.334	80.009	19.994	100.343	20.007	8.371	0.504
490.000	315.401	80.008	19.994	100.340	20.004	8.547	0.554
492.001	316.409	80.006	19.995	100.333	20.005	8.486	0.450
494.000	317.472	80.007	19.995	100.332	20.005	8.497	0.580
496.000	318.380	80.009	19.994	100.331	20.003	8.648	0.478
498.000	319.383	80.007	19.995	100.336	20.004	8.541	0.493
500.000	320.402	80.009	19.994	100.339	20.003	8.638	0.479
502.000	321.413	80.008	19.997	100.327	20.004	8.529	0.556
504.000	322.409	80.010	19.996	100.331	19.998	8.923	0.514
506.000	323.424	80.015	19.995	100.336	19.996	9.043	0.499
508.000	324.414	80.007	19.997	100.331	19.997	8.992	0.502
510.000	325.439	80.008	19.995	100.326	19.996	9.048	0.499
512.000	326.504	80.009	19.995	100.327	19.995	9.114	0.542
514.000	327.501	80.007	19.994	100.330	19.995	9.124	0.517
516.000	328.476	80.007	19.996	100.330	19.994	9.167	0.505
518.000	329.521	80.006	19.997	100.325	19.988	9.541	0.533
520.000	330.517	80.008	19.996	100.328	19.987	9.639	0.495
522.000	331.568	80.003	19.995	100.331	19.984	9.795	0.528
524.001	332.585	80.009	19.997	100.333	19.986	9.665	0.544
526.000	333.634	80.009	19.996	100.326	19.985	9.752	0.536
528.000	334.647	80.008	19.997	100.330	19.983	9.895	0.555
530.000	335.601	80.012	19.996	100.333	19.981	9.982	0.507
532.000	336.657	80.011	19.995	100.334	19.984	9.847	0.543
534.000	337.660	80.009	19.995	100.326	19.978	10.212	0.511
536.000	338.653	80.008	19.995	100.324	19.981	10.044	0.504
538.000	339.679	80.009	19.996	100.328	19.980	10.107	0.521
540.000	340.664	80.009	19.997	100.326	19.981	9.987	0.515
542.000	341.703	80.009	19.994	100.327	19.979	10.127	0.497
544.000	342.703	80.014	19.994	100.330	19.974	10.455	0.493
546.000	343.662	80.006	19.997	100.330	19.976	10.337	0.508
548.000	344.674	80.013	19.994	100.328	19.974	10.452	0.466
550.000	345.719	80.014	19.994	100.331	19.974	10.460	0.510
552.000	346.771	80.015	19.993	100.329	19.973	10.523	0.562
554.000	347.759	80.006	19.996	100.331	19.971	10.637	0.511
556.000	348.784	80.013	19.994	100.326	19.970	10.682	0.516
558.000	349.781	80.002	19.996	100.331	19.974	10.466	0.506
560.000	350.784	80.013	19.994	100.322	19.966	10.992	0.490
562.000	351.790	80.016	19.995	100.323	19.966	10.991	0.506
564.000	352.796	80.017	19.993	100.325	19.968	10.850	0.468
566.000	353.830	80.011	19.996	100.327	19.968	10.853	0.507
568.000	354.846	80.001	19.996	100.323	19.966	10.969	0.501
570.000	355.854	80.013	19.995	100.326	19.965	11.023	0.512
572.000	356.860	80.002	19.998	100.328	19.967	10.929	0.509
574.000	357.876	80.009	19.995	100.323	19.962	11.220	0.511
576.000	358.874	80.012	19.995	100.327	19.961	11.308	0.520
578.000	359.891	80.012	19.994	100.324	19.959	11.432	0.506
580.000	360.888	80.013	19.995	100.328	19.956	11.587	0.502
582.000	361.886	80.015	19.995	100.329	19.956	11.607	0.494
584.000	362.940	80.020	19.994	100.324	19.956	11.582	0.530
586.000	363.949	80.013	19.994	100.326	19.955	11.645	0.512
588.000	364.965	80.005	19.997	100.323	19.950	11.953	0.524
590.000	365.984	80.011	19.993	100.330	19.951	11.888	0.495
592.000	366.952	79.996	19.997	100.333	19.954	11.711	0.487
594.000	367.978	80.012	19.996	100.328	19.954	11.733	0.501
596.000	368.981	79.998	19.997	100.327	19.952	11.848	0.494
598.000	369.967	80.023	19.994	100.323	19.952	11.880	0.462
600.000	370.949	80.013	19.996	100.333	19.949	12.030	0.484
602.000	371.978	80.004	19.997	100.330	19.942	12.515	0.495
604.000	372.986	80.004	19.997	100.327	19.944	12.332	0.522
606.000	374.041	80.014	19.998	100.330	19.943	12.403	0.499
608.000	375.014	80.018	19.995	100.328	19.943	12.439	0.510
610.000	376.072	80.005	19.994	100.318	19.942	12.510	0.520
612.000	377.053	80.007	19.995	100.326	19.938	12.745	0.485
614.000	378.035	80.012	19.994	100.317	19.934	12.976	0.478
616.000	379.018	80.009	19.995	100.317	19.932	13.097	0.478
618.000	380.080	80.010	19.995	100.316	19.935	12.938	0.515
620.000	381.038	80.006	19.996	100.322	19.930	13.236	0.489
622.000	382.047	80.001	19.997	100.319	19.931	13.161	0.498
624.001	383.076	80.002	19.996	100.324	19.930	13.254	0.508
626.000	384.033	80.009	19.997	100.316	19.926	13.467	0.487
628.000	385.092	79.997	19.997	100.306	19.921	13.838	0.500
630.000	386.059	79.999	19.997	100.316	19.921	13.801	0.491
632.000	387.073	80.000	19.997	100.317	19.922	13.750	0.491
634.000	388.114	80.012	19.995	100.322	19.923	13.681	0.515
636.000	389.077	80.022	19.995	100.316	19.917	14.093	0.480
638.000	390.049	80.015	19.994	100.322	19.918	14.019	0.467
640.000	391.143	80.002	19.995	100.320	19.916	14.140	0.552
642.000	392.072	80.014	19.996	100.319	19.913	14.312	0.454
644.000	393.121	80.009	19.994	100.323	19.911	14.428	0.520
646.000	394.147	80.009	19.995	100.317	19.910	14.509	0.537
648.000	395.153	80.004	19.996	100.321	19.906	14.747	0.516
650.000	396.212	80.010	19.995	100.318	19.904	14.918	0.524
652.000	397.164	80.012	19.994	100.302	19.900	15.150	0.506
654.000	398.195	80.013	19.995	100.302	19.899	15.215	0.501
656.001	399.192	80.000	19.997	100.304	19.900	15.150	0.520
658.000	400.224	80.015	19.995	100.312	19.895	15.467	0.489
660.000	401.219	80.012	19.995	100.312	19.892	15.680	0.487
662.000	402.231	80.003	19.996	100.311	19.890	15.766	0.511
664.000	403.205	80.011	19.995	100.305	19.890	15.809	0.511
666.000	404.228	80.004	19.995	100.307	19.887	15.974	0.509
668.000	405.237	80.019	19.995	100.310	19.883	16.203	0.496
670.000	406.240	80.019	19.994	100.321	19.885	16.090	0.480
672.000	407.267	80.012	19.995	100.320	19.873	16.822	0.551
674.000	408.229	80.012	19.995	100.321	19.875	16.732	0.497
676.000	409.234	80.012	19.994	100.312	19.869	17.083	0.514
678.000	410.255	80.006	19.995	100.309	19.863	17.467	0.524
680.000	411.287	80.019	19.992	100.302	19.863	17.458	0.525
682.000	412.224	80.006	19.995	100.308	19.859	17.721	0.465
684.000	413.229	79.999	19.995	100.305	19.860	17.651	0.477
686.000	414.227	80.004	19.996	100.315	19.853	18.091	0.498
688.000	415.252	80.004	19.995	100.305	19.851	18.258	0.525
690.000	416.233	80.009	19.996	100.297	19.847	18.507	0.507
692.000	417.197	80.009	19.996	100.300	19.846	18.589	0.487
694.000	418.235	79.999	19.998	100.289	19.840	18.971	0.516
696.000	419.232	80.015	19.994	100.299	19.836	19.212	0.506
698.000	420.256	80.007	19.995	100.312	19.836	19.212	0.527
700.000	421.279	80.008	19.995	100.298	19.832	19.445	0.511
702.000	422.279	80.008	19.996	100.297	19.825	19.892	0.509
704.000	423.282	80.012	19.995	100.306	19.827	19.755	0.479
706.000	424.287	80.008	19.995	100.291	19.825	19.925	0.505
708.000	425.311	80.009	19.995	100.293	19.821	20.157	0.489
710.000	426.292	80.008	19.997	100.299	19.817	20.394	0.476
712.000	427.273	80.024	19.994	100.306	19.815	20.540	0.518
714.000	428.382	79.993	19.997	100.309	19.812	20.706	0.517
716.001	429.369	80.017	19.994	100.307	19.807	21.062	0.487
718.000	430.364	80.011	19.996	100.298	19.801	21.386	0.513
720.000	431.374	80.016	19.995	100.291	19.800	21.477	0.522
722.000	432.355	80.015	19.996	100.288	19.797	21.684	0.507
724.000	433.355	80.022	19.996	100.291	19.791	22.063	0.466
726.000	434.404	80.010	19.995	100.302	19.790	22.120	0.534
728.000	435.420	80.015	19.995	100.296	19.790	22.098	0.506
730.000	436.422	80.003	19.997	100.294	19.787	22.301	0.525
732.000	437.452	80.004	19.995	100.290	19.781	22.688	0.504
734.000	438.457	80.014	19.993	100.295	19.780	22.773	0.515
736.000	439.419	80.001	19.995	100.292	19.774	23.123	0.508
738.000	440.414	80.021	19.994	100.286	19.774	23.098	0.487
740.000	441.430	79.999	19.996	100.291	19.773	23.184	0.508
742.000	442.430	80.011	19.995	100.295	19.773	23.169	0.515
744.000	443.492	80.012	19.993	100.304	19.772	23.243	0.527
746.000	444.405	80.009	19.994	100.297	19.771	23.319	0.476
748.000	445.425	80.009	19.995	100.289	19.772	23.261	0.522
750.000	446.400	80.014	19.994	100.292	19.770	23.396	0.473
752.000	447.409	80.010	19.994	100.294	19.770	23.358	0.512
754.000	448.412	80.019	19.993	100.291	19.768	23.473	0.483
756.000	449.422	80.013	19.994	100.294	19.766	23.617	0.519
758.000	450.450	80.012	19.995	100.293	19.771	23.302	0.499
760.000	451.414	80.012	19.995	100.292	19.769	23.413	0.481
762.000	452.446	80.010	19.995	100.290	19.773	23.213	0.514
764.000	453.498	80.009	19.995	100.290	19.780	22.769	0.518
766.000	454.469	80.007	19.995	100.293	19.779	22.794	0.481
768.000	455.500	80.011	19.994	100.288	19.783	22.540	0.517
770.000	456.481	80.003	19.995	100.288	19.789	22.187	0.505
772.000	457.480	80.006	19.995	100.289	19.793	21.904	0.495
774.000	458.482	80.010	19.995	100.293	19.795	21.785	0.517
776.000	459.507	80.010	19.994	100.289	19.802	21.340	0.511
778.001	460.525	80.009	19.994	100.289	19.808	20.993	0.506
780.000	461.554	80.010	19.994	100.286	19.813	20.679	0.512
782.000	462.572	80.009	19.994	100.291	19.822	20.101	0.499
784.000	463.586	80.011	19.995	100.290	19.825	19.871	0.526
786.000	464.540	80.009	19.995	100.287	19.836	19.207	0.480
788.000	465.567	80.011	19.995	100.286	19.843	18.733	0.520
790.000	466.573	80.006	19.995	100.290	19.852	18.200	0.501
792.000	467.572	80.013	19.995	100.289	19.860	17.677	0.482
794.000	468.548	80.016	19.994	100.293	19.872	16.942	0.499
796.000	469.553	80.005	19.995	100.290	19.884	16.135	0.506
798.000	470.599	80.015	19.995	100.293	19.892	15.663	0.537
800.000	471.616	80.007	19.995	100.296	19.904	14.914	0.477
802.000	472.601	80.011	19.994	100.294	19.915	14.205	0.484
804.000	473.639	80.013	19.995	100.296	19.922	13.742	0.493
806.000	474.672	80.011	19.994	100.297	19.934	13.000	0.533
808.001	475.684	80.012	19.994	100.299	19.945	12.322	0.475
810.000	476.722	80.010	19.994	100.292	19.954	11.700	0.518
812.000	477.742	80.011	19.995	100.292	19.965	11.045	0.533
814.000	478.756	80.012	19.995	100.292	19.973	10.545	0.523
816.000	479.763	80.008	19.996	100.295	19.981	10.031	0.523
818.000	480.745	80.009	19.996	100.295	19.992	9.318	0.532
820.000	481.756	80.007	19.997	100.299	19.997	8.974	0.502
822.000	482.754	80.011	19.995	100.297	20.008	8.292	0.506
824.000	483.741	80.009	19.997	100.294	20.015	7.877	0.492
826.001	484.745	80.008	19.997	100.298	20.024	7.310	0.486
828.000	485.758	80.008	19.996	100.308	20.031	6.839	0.491
830.000	486.788	80.011	19.996	100.316	20.035	6.568	0.510
832.000	487.752	80.008	19.996	100.309	20.041	6.206	0.479
834.000	488.746	80.008	19.995	100.310	20.048	5.741	0.482
836.000	489.769	80.007	19.995	100.305	20.053	5.445	0.500
838.000	490.750	80.009	19.994	100.300	20.054	5.376	0.507
840.001	491.720	80.009	19.994	100.301	20.063	4.787	0.513
842.000	492.747	80.009	19.994	100.297	20.067	4.583	0.505
844.000	493.721	80.009	19.996	100.296	20.074	4.094	0.488
846.000	494.743	80.010	19.996	100.288	20.079	3.803	0.496
848.000	495.694	80.007	19.996	100.289	20.080	3.710	0.493
850.000	496.633	80.010	19.995	100.295	20.081	3.648	0.435
852.000	497.609	80.012	19.995	100.297	20.086	3.345	0.476
854.000	498.603	80.010	19.995	100.296	20.089	3.197	0.493
856.000	499.522	80.009	19.995	100.293	20.089	3.180	0.468
858.000	500.478	80.010	19.996	100.296	20.092	2.967	0.476
860.001	501.458	80.011	19.994	100.296	20.096	2.713	0.472
862.000	502.400	80.011	19.995	100.291	20.097	2.691	0.488
864.000	503.326	80.012	19.994	100.302	20.096	2.754	0.455
866.000	504.311	80.008	19.995	100.305	20.102	2.321	0.472
868.001	505.248	80.009	19.995	100.306	20.101	2.417	0.462
870.000	506.242	80.009	19.995	100.305	20.101	2.416	0.507
872.000	507.173	80.007	19.994	100.315	20.105	2.180	0.480
874.000	508.138	80.010	19.994	100.311	20.105	2.148	0.498
876.000	509.114	80.011	19.995	100.310	20.106	2.061	0.496
878.000	510.095	80.009	19.995	100.314	20.108	1.981	0.527
880.000	511.038	80.009	19.995	100.313	20.107	2.006	0.460
882.000	512.040	80.012	19.995	100.312	20.108	1.950	0.490
884.000	512.956	80.011	19.996	100.313	20.111	1.745	0.488
886.000	513.949	80.010	19.995	100.315	20.113	1.648	0.496
888.000	514.950	80.010	19.995	100.303	20.115	1.499	0.497
890.000	515.913	80.011	19.995	100.312	20.113	1.650	0.464
892.000	516.920	80.007	19.996	100.310	20.114	1.594	0.489
894.000	517.943	80.009	19.996	100.308	20.111	1.796	0.518
896.000	518.920	80.009	19.995	100.308	20.114	1.584	0.512
898.000	519.931	80.007	19.995	100.306	20.115	1.551	0.525
900.000	520.928	80.009	19.995	100.315	20.118	1.340	0.471
902.000	521.912	80.008	19.995	100.304	20.118	1.352	0.496
904.000	522.912	80.008	19.996	100.294	20.116	1.445	0.516
906.000	523.947	80.007	19.996	100.309	20.118	1.312	0.488
908.000	524.944	80.009	19.996	100.306	20.116	1.476	0.499
910.000	525.937	80.004	19.995	100.307	20.118	1.326	0.517
912.000	526.935	80.009	19.996	100.312	20.119	1.290	0.511
914.000	527.959	80.010	19.996	100.311	20.116	1.437	0.499
916.000	528.928	80.008	19.995	100.303	20.119	1.274	0.507
918.000	529.919	80.008	19.997	100.303	20.113	1.627	0.453
920.000	530.938	80.009	19.996	100.289	20.111	1.777	0.507
922.000	531.934	80.007	19.996	100.299	20.112	1.724	0.512
924.000	532.936	80.010	19.996	100.297	20.107	2.009	0.514
926.000	533.947	80.002	19.995	100.299	20.111	1.779	0.522
928.000	534.952	80.008	19.995	100.299	20.110	1.843	0.514
930.000	535.941	80.008	19.995	100.307	20.109	1.872	0.503
932.000	536.912	80.009	19.994	100.307	20.107	2.040	0.478
934.000	537.877	80.009	19.996	100.297	20.110	1.847	0.458
936.000	538.899	80.008	19.994	100.294	20.106	2.118	0.501
938.000	539.892	80.008	19.996	100.315	20.107	2.042	0.497
940.000	540.882	80.008	19.995	100.300	20.106	2.065	0.479
942.000	541.902	80.010	19.994	100.310	20.107	2.004	0.472
944.000	542.967	80.013	19.995	100.326	20.110	1.840	0.547
946.000	543.957	80.010	19.995	100.323	20.113	1.677	0.481
948.000	544.999	80.009	19.996	100.326	20.111	1.774	0.520
950.000	545.977	80.008	19.995	100.324	20.112	1.726	0.487
952.001	547.056	80.009	19.994	100.329	20.111	1.766	0.527
954.000	548.117	80.009	19.995	100.323	20.110	1.814	0.512
956.000	549.128	80.011	19.995	100.320	20.115	1.544	0.486
958.000	550.180	80.009	19.995	100.323	20.113	1.662	0.542
960.000	551.235	80.010	19.995	100.322	20.113	1.638	0.513
962.000	552.267	80.011	19.995	100.323	20.116	1.453	0.512
964.000	553.331	80.012	19.995	100.321	20.117	1.371	0.522
966.000	554.384	80.011	19.994	100.321	20.115	1.525	0.541
968.000	555.398	80.013	19.994	100.322	20.118	1.332	0.510
970.000	556.414	80.012	19.994	100.325	20.117	1.378	0.486
972.000	557.429	80.013	19.995	100.323	20.116	1.435	0.491
974.000	558.483	80.011	19.994	100.324	20.120	1.183	0.512
976.000	559.481	80.010	19.994	100.325	20.118	1.319	0.527
978.000	560.546	80.010	19.995	100.324	20.115	1.536	0.518
980.000	561.540	80.009	19.996	100.325	20.119	1.257	0.524
982.000	562.610	80.011	19.996	100.322	20.119	1.294	0.531
984.000	563.699	80.009	19.995	100.323	20.118	1.347	0.512
986.000	564.736	80.009	19.995	100.323	20.118	1.359	0.544
988.000	565.759	80.008	19.996	100.324	20.116	1.444	0.508
990.000	566.864	80.009	19.994	100.325	20.115	1.506	0.529
992.000	567.905	80.009	19.995	100.326	20.118	1.323	0.514
994.000	568.976	80.009	19.995	100.326	20.118	1.325	0.545
996.000	570.058	80.010	19.995	100.329	20.119	1.255	0.538
998.000	571.135	80.008	19.995	100.323	20.119	1.271	0.519
1000.000	572.193	80.010	19.994	100.310	20.119	1.245	0.540
1002.000	573.260	80.008	19.996	100.323	20.122	1.086	0.521
1004.000	574.373	80.008	19.996	100.326	20.122	1.079	0.563
1006.000	575.474	80.010	19.996	100.310	20.123	0.998	0.554
1008.000	576.484	80.008	19.995	100.325	20.120	1.217	0.527
1010.000	577.573	80.007	19.996	100.328	20.120	1.186	0.522
1012.000	578.624	80.007	19.996	100.328	20.120	1.226	0.513
1014.001	579.696	80.005	19.996	100.324	20.120	1.197	0.525
1016.000	580.718	80.006	19.996	100.329	20.120	1.193	0.506
1018.000	581.774	80.010	19.996	100.328	20.122	1.062	0.512
1020.000	582.813	80.010	19.996	100.328	20.123	1.005	0.516
1022.000	583.889	80.009	19.996	100.327	20.122	1.076	0.514
1024.000	584.914	80.010	19.995	100.321	20.126	0.854	0.515
1026.000	585.963	80.009	19.995	100.318	20.122	1.086	0.509
1028.000	586.988	80.010	19.995	100.322	20.125	0.917	0.522
1030.000	587.988	80.009	19.995	100.324	20.127	0.787	0.517
1032.000	589.028	80.010	19.995	100.322	20.126	0.811	0.550
1034.000	590.076	80.010	19.995	100.320	20.126	0.847	0.525
1036.000	591.086	80.009	19.995	100.325	20.126	0.844	0.472
1038.000	592.156	80.010	19.994	100.326	20.127	0.759	0.537
1040.000	593.167	80.010	19.995	100.325	20.126	0.854	0.484
1042.000	594.238	80.010	19.995	100.325	20.124	0.974	0.532
1044.000	595.304	80.011	19.995	100.326	20.124	0.930	0.524
1046.000	596.298	80.011	19.995	100.323	20.125	0.906	0.538
1048.000	597.281	80.010	19.996	100.308	20.126	0.844	0.491
1050.000	598.304	80.012	19.994	100.315	20.125	0.872	0.486
1052.000	599.340	80.012	19.994	100.320	20.122	1.055	0.537
1054.000	600.361	80.008	19.995	100.325	20.127	0.780	0.509
1056.000	601.305	80.011	19.995	100.323	20.124	0.930	0.514
1058.000	602.339	80.011	19.994	100.318	20.122	1.074	0.486
1060.001	603.286	80.011	19.996	100.326	20.124	0.960	0.471
1062.001	604.357	80.009	19.994	100.323	20.126	0.849	0.501
1064.000	605.332	80.009	19.995	100.323	20.122	1.072	0.506
1066.000	606.318	80.009	19.995	100.316	20.125	0.897	0.524
1068.001	607.275	80.008	19.996	100.333	20.123	1.015	0.494
1070.001	608.306	80.008	19.995	100.317	20.124	0.977	0.476
1072.000	609.292	80.009	19.995	100.329	20.124	0.970	0.514
1074.000	610.294	80.008	19.995	100.326	20.123	0.984	0.496
1076.001	611.289	80.008	19.995	100.320	20.120	1.176	0.532
1078.000	612.296	80.008	19.995	100.323	20.123	0.998	0.492
1080.000	613.263	80.009	19.996	100.329	20.127	0.747	0.490
1082.000	614.296	80.009	19.996	100.328	20.126	0.818	0.494
1084.001	615.274	80.006	19.995	100.328	20.121	1.134	0.503
1086.000	616.274	80.010	19.995	100.328	20.123	0.998	0.484
1088.001	617.275	80.009	19.996	100.327	20.124	0.923	0.489
1090.000	618.232	80.009	19.996	100.330	20.125	0.858	0.483
1092.000	619.285	80.009	19.996	100.332	20.124	0.948	0.514
1094.000	620.323	80.009	19.996	100.328	20.122	1.083	0.515
1096.000	621.304	80.007	19.996	100.329	20.123	1.029	0.479
1098.000	622.305	80.008	19.996	100.329	20.121	1.150	0.490
1100.000	623.271	80.008	19.995	100.335	20.123	1.029	0.489
1102.000	624.307	80.009	19.996	100.335	20.122	1.095	0.491
1104.000	625.306	80.008	19.996	100.329	20.123	1.045	0.477
1106.000	626.308	80.008	19.997	100.342	20.124	0.944	0.504
1108.001	627.318	80.010	19.997	100.331	20.121	1.148	0.531
1110.000	628.315	80.011	19.996	100.344	20.122	1.098	0.504
1112.000	629.243	80.011	19.997	100.329	20.123	1.024	0.468
1114.000	630.259	80.010	19.995	100.336	20.120	1.202	0.484
1116.000	631.285	80.011	19.996	100.340	20.124	0.948	0.499
1118.000	632.282	80.009	19.995	100.343	20.121	1.117	0.497
1120.000	633.302	80.010	19.995	100.343	20.125	0.917	0.498
1122.000	634.301	80.009	19.995	100.339	20.124	0.951	0.488
1124.000	635.319	80.009	19.994	100.340	20.124	0.950	0.535
1126.000	636.374	80.010	19.994	100.352	20.122	1.093	0.522
1128.000	637.361	80.011	19.994	100.334	20.121	1.138	0.533
1130.000	638.372	80.012	19.995	100.336	20.123	1.031	0.549
1132.000	639.388	80.011	19.994	100.346	20.123	0.986	0.484
1134.000	640.399	80.012	19.994	100.356	20.121	1.149	0.517
1136.001	641.398	80.012	19.995	100.342	20.120	1.200	0.492
1138.000	642.424	80.011	19.995	100.355	20.123	1.029	0.508
1140.000	643.449	80.011	19.994	100.361	20.120	1.228	0.489
1142.001	644.417	80.010	19.994	100.364	20.121	1.161	0.486
1144.000	645.472	80.009	19.995	100.354	20.118	1.308	0.534
1146.001	646.471	80.008	19.995	100.347	20.116	1.441	0.518
1148.000	647.470	80.009	19.996	100.358	20.119	1.242	0.471
1150.000	648.497	80.010	19.995	100.366	20.117	1.420	0.491
1152.000	649.537	80.010	19.995	100.357	20.116	1.450	0.531
1154.001	650.586	80.010	19.995	100.361	20.117	1.417	0.516
1156.000	651.571	80.009	19.995	100.352	20.113	1.668	0.503
1158.000	652.630	80.009	19.994	100.362	20.114	1.595	0.508
1160.001	653.660	80.009	19.995	100.365	20.118	1.346	0.547
1162.000	654.704	80.011	19.996	100.366	20.115	1.545	0.530
1164.000	655.664	80.010	19.995	100.365	20.113	1.619	0.472
1166.001	656.734	80.010	19.996	100.368	20.115	1.538	0.539
1168.000	657.718	80.011	19.995	100.365	20.115	1.495	0.490
1170.000	658.739	80.012	19.995	100.365	20.113	1.675	0.520
1172.000	659.750	80.010	19.995	100.366	20.115	1.495	0.501
1174.001	660.773	80.008	19.995	100.366	20.113	1.680	0.534
1176.000	661.769	80.010	19.996	100.366	20.110	1.822	0.516
1178.001	662.793	80.009	19.996	100.375	20.111	1.767	0.516
1180.000	663.762	80.007	19.996	100.377	20.111	1.772	0.481
1182.000	664.765	80.008	19.996	100.374	20.115	1.551	0.469
1184.000	665.666	80.007	19.996	100.384	20.112	1.730	0.468
1186.001	666.754	80.008	19.996	100.376	20.115	1.506	0.533
1188.000	667.786	80.010	19.995	100.376	20.114	1.595	0.484
1190.000	668.771	80.011	19.995	100.377	20.112	1.720	0.486
1192.001	669.811	80.011	19.995	100.399	20.109	1.912	0.527
1194.000	670.818	80.011	19.996	100.381	20.110	1.847	0.510
1196.000	671.909	80.010	19.995	100.401	20.109	1.897	0.514
1198.000	672.894	80.010	19.995	100.395	20.109	1.909	0.497
1200.000	674.019	80.009	19.996	100.404	20.107	2.011	0.573
1202.000	675.046	80.008	19.996	100.404	20.110	1.854	0.538
1204.001	676.066	80.009	19.997	100.403	20.104	2.189	0.534
1206.001	677.113	80.009	19.996	100.403	20.109	1.926	0.525
1208.000	678.178	80.008	19.996	100.404	20.109	1.906	0.546
1210.000	679.222	80.009	19.996	100.405	20.110	1.811	0.522
1212.001	680.230	80.009	19.996	100.409	20.107	2.003	0.532
1214.000	681.249	80.011	19.996	100.408	20.109	1.925	0.522
1216.000	682.248	80.012	19.995	100.409	20.105	2.135	0.497
1218.000	683.250	80.010	19.994	100.411	20.109	1.930	0.506
1220.001	684.258	80.012	19.994	100.424	20.109	1.880	0.512
1222.000	685.202	80.012	19.995	100.435	20.105	2.164	0.480
1224.001	686.221	80.010	19.994	100.431	20.107	2.046	0.501
1226.000	687.196	80.011	19.995	100.428	20.105	2.157	0.527
1228.001	688.197	80.009	19.996	100.440	20.105	2.145	0.504
1230.001	689.106	80.010	19.995	100.435	20.102	2.341	0.454
1232.000	690.119	80.009	19.995	100.436	20.100	2.504	0.486
1234.000	691.081	80.009	19.995	100.438	20.100	2.490	0.479
1236.000	692.076	80.009	19.995	100.440	20.098	2.575	0.495
1238.000	693.065	80.010	19.994	100.447	20.099	2.532	0.474
1240.000	694.066	80.009	19.995	100.452	20.102	2.366	0.504
1242.000	695.031	80.010	19.995	100.455	20.099	2.568	0.448
1244.001	696.062	80.009	19.996	100.463	20.100	2.508	0.498
1246.000	697.053	80.009	19.995	100.467	20.099	2.540	0.495
1248.000	698.069	80.009	19.996	100.462	20.098	2.572	0.509
1250.000	699.043	80.009	19.995	100.477	20.096	2.702	0.480
1252.000	700.099	80.009	19.995	100.466	20.098	2.608	0.536
1254.000	701.082	80.009	19.995	100.484	20.094	2.858	0.524
1256.000	702.078	80.009	19.994	100.465	20.094	2.853	0.504
1258.000	703.076	80.008	19.996	100.474	20.096	2.707	0.503
1260.000	704.073	80.007	19.995	100.484	20.095	2.794	0.486
1262.000	705.032	80.008	19.995	100.487	20.095	2.796	0.505
1264.000	706.019	80.008	19.994	100.483	20.097	2.682	0.498
1266.001	707.062	80.008	19.995	100.483	20.094	2.857	0.503
1268.000	707.997	80.008	19.995	100.483	20.093	2.892	0.500
1270.001	708.996	80.008	19.996	100.484	20.090	3.112	0.512
1272.000	709.972	80.011	19.995	100.486	20.091	3.074	0.475
1274.000	710.959	80.010	19.995	100.498	20.088	3.256	0.505
1276.000	711.977	80.011	19.995	100.515	20.092	2.977	0.511
1278.000	712.966	80.010	19.995	100.522	20.091	3.055	0.484
1280.000	713.963	80.009	19.995	100.523	20.091	3.065	0.527
1282.000	714.988	80.008	19.995	100.520	20.090	3.081	0.548
1284.000	716.021	80.009	19.995	100.523	20.087	3.310	0.481
1286.001	717.058	80.009	19.995	100.524	20.089	3.152	0.496
1288.000	718.059	80.009	19.995	100.520	20.087	3.301	0.508
1290.000	719.117	80.010	19.995	100.518	20.089	3.204	0.508
1292.000	720.179	80.010	19.996	100.520	20.089	3.161	0.520
1294.000	721.162	80.009	19.995	100.529	20.087	3.300	0.495
1296.000	722.193	80.009	19.995	100.532	20.087	3.307	0.522
1298.001	723.256	80.009	19.995	100.528	20.086	3.348	0.448
1300.000	724.372	80.009	19.996	100.524	20.084	3.485	0.570
1302.000	725.362	80.010	19.995	100.533	20.083	3.581	0.541
1304.000	726.522	80.010	19.996	100.541	20.098	2.582	0.509
1306.000	727.569	80.009	19.996	100.546	20.090	3.124	0.589
1308.000	728.663	80.011	19.995	100.535	20.079	3.813	0.506
1310.001	729.660	80.008	19.996	100.535	20.078	3.873	0.533
1312.001	730.763	80.010	19.995	100.548	20.084	3.467	0.635
1314.000	731.546	80.009	19.994	100.536	20.081	3.670	0.663
1316.001	733.768	80.010	19.994	100.532	20.080	3.729	1.218
1318.000	733.386	80.006	19.995	100.537	20.081	3.661	0.610
1320.000	734.952	80.009	19.995	100.538	20.082	3.595	0.321
1322.000	736.190	80.009	19.995	100.532	20.080	3.719	0.537
1324.001	737.038	80.009	19.995	100.525	20.081	3.651	0.657
1326.001	738.140	80.008	19.994	100.522	20.082	3.592	0.670
1328.000	739.103	80.009	19.995	100.523	20.084	3.463	0.578
1330.000	740.126	80.009	19.995	100.517	20.085	3.421	0.478
1332.000	741.205	80.009	19.995	100.504	20.083	3.562	0.493
1334.000	742.215	80.008	19.995	100.492	20.086	3.348	0.442
1336.000	743.179	80.009	19.995	100.476	20.087	3.285	0.527
1336.500	743.397	80.010	19.995	100.473	20.089	3.154	0.453