File: 01_Data/Asphalt_Shingle/MCC/Asphalt_Shingle_MCC_30K_min_210928_R2.txt
Sample ID:	C:\MCC\MCC Cal\Test\Asphalt_Shingle\Asphalt_Shingle_MCC_30K_min_210928_R2.txt
Sample Weight (mg):	4.54
Heating Rate (C/s):	0.5
Combustor Temp (C):	900
N2 Flow Rate (cc/min):	80
O2 Flow Rate (cc/min):	20
Calibration File:	C:\MCC\MCC Cal\Coeff1 JN10440_30_210304.txt.txt
T Correction Coefficients:	0	1.024463	0
Time Shift (s):	14
*
Time (s)	Temperature (C)	N2 flow rate (cc/min)	O2 flow rate (cc/min)	Flow Rate (cc/min)	Oxygen (%)	HRR (W/g)	Heating rate (C/s)
0.000	107.786	80.009	19.997	100.205	20.180	-0.447	-0.037
2.000	107.773	80.009	19.997	100.204	20.178	-0.357	0.008
4.000	107.696	80.008	19.996	100.203	20.178	-0.316	-0.059
6.000	107.740	80.005	19.997	100.205	20.175	-0.141	-0.002
8.000	107.746	80.008	19.992	100.203	20.190	-1.153	0.040
10.000	107.725	80.029	19.999	100.229	20.181	-0.534	-0.014
12.000	107.688	80.028	19.998	100.247	20.174	-0.092	-0.031
14.000	107.737	80.025	19.998	100.266	20.175	-0.162	0.025
16.000	107.775	80.027	19.998	100.261	20.175	-0.156	0.039
18.000	107.769	80.026	19.996	100.251	20.175	-0.117	-0.052
20.000	107.809	80.029	19.996	100.257	20.173	-0.011	-0.008
22.000	107.874	80.033	19.996	100.280	20.167	0.437	0.018
24.000	107.921	80.031	19.997	100.287	20.173	-0.015	0.040
26.000	108.004	80.026	19.997	100.293	20.169	0.288	0.020
28.000	108.130	80.025	19.996	100.318	20.169	0.297	0.057
30.000	108.232	80.022	19.995	100.330	20.172	0.105	0.060
32.000	108.381	80.032	19.996	100.323	20.164	0.636	0.048
34.000	108.484	80.030	19.997	100.325	20.165	0.570	0.058
36.000	108.660	80.031	19.995	100.336	20.157	1.133	0.073
37.999	108.874	80.028	19.997	100.370	20.155	1.280	0.086
39.999	109.083	80.031	19.996	100.372	20.160	0.919	0.060
41.999	109.281	80.025	19.995	100.366	20.146	1.877	0.130
43.999	109.520	80.037	19.994	100.365	20.155	1.258	0.129
45.999	109.786	80.031	20.000	100.361	20.151	1.544	0.171
47.999	110.027	80.029	19.995	100.359	20.150	1.631	0.118
50.000	110.378	80.014	19.999	100.366	20.138	2.407	0.164
51.999	110.640	80.042	19.994	100.369	20.148	1.712	0.178
53.999	110.998	80.032	19.996	100.369	20.149	1.633	0.162
55.999	111.363	80.028	19.995	100.392	20.142	2.141	0.175
57.999	111.685	80.027	19.995	100.405	20.147	1.770	0.139
60.000	112.091	80.031	19.995	100.405	20.149	1.644	0.148
61.999	112.516	80.018	19.995	100.419	20.149	1.674	0.186
63.999	112.924	80.033	19.997	100.416	20.138	2.407	0.186
65.999	113.448	80.036	19.993	100.403	20.143	2.108	0.261
68.000	113.889	80.034	19.995	100.412	20.143	2.059	0.251
69.999	114.386	80.032	19.996	100.409	20.146	1.865	0.235
72.000	114.925	80.031	19.996	100.403	20.145	1.957	0.260
73.999	115.426	80.026	19.997	100.405	20.148	1.703	0.256
75.999	115.902	80.043	19.999	100.413	20.146	1.861	0.240
77.999	116.495	80.029	19.997	100.426	20.140	2.291	0.290
79.999	117.051	80.027	19.997	100.437	20.144	2.010	0.270
81.999	117.620	80.030	19.995	100.443	20.140	2.314	0.264
84.000	118.223	80.021	19.997	100.448	20.145	1.914	0.312
85.999	118.905	80.012	19.998	100.442	20.147	1.784	0.330
87.999	119.480	80.028	19.995	100.444	20.144	1.984	0.322
90.000	120.142	80.033	19.995	100.448	20.140	2.308	0.362
91.999	120.821	80.013	19.995	100.454	20.140	2.283	0.344
93.999	121.521	80.023	19.998	100.443	20.132	2.835	0.332
95.999	122.189	80.023	19.995	100.446	20.141	2.219	0.327
97.999	122.935	80.018	19.998	100.450	20.140	2.283	0.373
100.000	123.609	80.035	19.997	100.444	20.143	2.102	0.341
101.999	124.360	80.018	19.997	100.442	20.137	2.515	0.401
103.999	125.101	80.029	19.995	100.445	20.140	2.291	0.376
105.999	125.868	80.033	19.995	100.443	20.137	2.464	0.386
107.999	126.642	80.028	20.000	100.446	20.141	2.197	0.379
109.999	127.426	80.030	19.996	100.435	20.132	2.864	0.391
111.999	128.229	80.031	19.995	100.444	20.142	2.138	0.409
113.999	129.031	80.018	19.997	100.448	20.139	2.340	0.428
116.001	129.797	80.030	19.996	100.444	20.136	2.536	0.409
117.999	130.584	80.027	19.995	100.443	20.139	2.353	0.399
119.999	131.423	80.023	19.996	100.441	20.140	2.313	0.397
121.999	132.243	80.016	19.997	100.449	20.137	2.517	0.432
123.999	133.093	80.032	19.991	100.443	20.134	2.686	0.431
126.000	133.883	80.034	19.997	100.442	20.139	2.377	0.402
127.999	134.791	80.039	19.994	100.448	20.141	2.199	0.463
130.000	135.611	80.024	19.997	100.455	20.136	2.592	0.407
132.000	136.473	80.028	19.998	100.446	20.142	2.133	0.393
134.000	137.361	80.033	19.995	100.444	20.143	2.087	0.441
136.000	138.269	80.023	19.997	100.442	20.135	2.624	0.467
138.000	139.106	80.016	19.997	100.444	20.136	2.581	0.475
140.000	140.011	80.020	19.997	100.452	20.137	2.487	0.440
142.000	140.928	80.017	19.996	100.449	20.139	2.374	0.441
144.000	141.828	80.006	19.995	100.444	20.141	2.242	0.466
146.000	142.744	80.011	19.995	100.441	20.137	2.479	0.403
148.000	143.689	80.015	19.995	100.442	20.140	2.257	0.470
150.000	144.579	80.013	19.995	100.445	20.138	2.402	0.465
152.000	145.495	80.013	19.994	100.440	20.142	2.150	0.434
154.000	146.444	80.012	19.995	100.439	20.141	2.210	0.439
156.000	147.345	80.000	19.996	100.451	20.141	2.244	0.464
158.000	148.273	80.003	19.996	100.441	20.137	2.464	0.451
160.000	149.221	80.014	19.994	100.441	20.146	1.856	0.434
162.000	150.134	80.013	19.995	100.449	20.146	1.869	0.431
164.000	151.109	80.008	19.995	100.444	20.142	2.142	0.450
166.000	152.063	80.012	19.994	100.445	20.142	2.174	0.484
168.000	153.012	80.013	19.994	100.444	20.146	1.857	0.480
170.000	153.920	80.009	19.996	100.443	20.149	1.673	0.435
172.000	154.846	80.011	19.995	100.443	20.145	1.923	0.448
174.000	155.869	80.006	19.995	100.438	20.144	1.999	0.502
176.000	156.799	79.996	19.996	100.439	20.142	2.117	0.484
178.000	157.786	80.012	19.995	100.434	20.143	2.083	0.493
180.000	158.717	80.010	19.994	100.439	20.144	2.015	0.467
182.000	159.693	80.010	19.996	100.439	20.147	1.838	0.463
184.000	160.650	80.010	19.996	100.434	20.140	2.313	0.490
186.000	161.617	80.010	19.995	100.441	20.143	2.110	0.490
188.000	162.577	80.009	19.995	100.435	20.144	1.995	0.480
190.000	163.588	80.011	19.996	100.432	20.144	2.040	0.509
192.000	164.540	80.009	19.995	100.432	20.147	1.797	0.481
194.000	165.531	80.010	19.995	100.425	20.142	2.166	0.470
196.000	166.533	80.011	19.996	100.428	20.141	2.200	0.479
198.000	167.477	80.008	19.996	100.438	20.145	1.959	0.510
200.000	168.434	80.007	19.997	100.421	20.142	2.181	0.459
202.000	169.435	80.011	19.995	100.419	20.141	2.203	0.485
204.000	170.430	80.008	19.996	100.418	20.145	1.966	0.481
206.000	171.395	80.008	19.997	100.415	20.143	2.092	0.469
208.000	172.407	80.009	19.996	100.416	20.143	2.113	0.481
210.000	173.372	80.008	19.995	100.418	20.145	1.953	0.505
212.000	174.390	80.007	19.995	100.412	20.140	2.264	0.509
214.000	175.343	80.008	19.995	100.413	20.144	1.983	0.486
216.000	176.323	80.010	19.995	100.416	20.143	2.111	0.502
218.000	177.339	80.013	19.994	100.412	20.147	1.823	0.524
220.000	178.305	80.008	19.995	100.409	20.144	2.036	0.515
222.000	179.271	80.010	19.995	100.414	20.148	1.714	0.476
224.000	180.277	80.009	19.994	100.410	20.143	2.062	0.492
226.000	181.276	80.008	19.994	100.408	20.144	1.990	0.510
228.000	182.286	80.011	19.994	100.409	20.141	2.196	0.528
230.000	183.304	80.010	19.995	100.407	20.145	1.951	0.500
232.000	184.307	80.010	19.995	100.407	20.144	1.994	0.528
234.000	185.214	80.012	19.996	100.409	20.143	2.066	0.518
236.000	186.304	80.010	19.996	100.405	20.144	1.992	0.512
238.000	187.289	80.011	19.995	100.402	20.143	2.086	0.503
240.000	188.283	80.011	19.995	100.392	20.146	1.868	0.487
242.000	189.201	80.011	19.996	100.378	20.146	1.843	0.453
244.000	190.190	80.012	19.995	100.397	20.145	1.954	0.471
246.000	191.174	80.010	19.994	100.385	20.148	1.749	0.511
248.000	192.103	80.012	19.995	100.376	20.149	1.678	0.457
250.000	193.080	80.013	19.995	100.391	20.145	1.911	0.467
252.000	194.033	80.010	19.993	100.387	20.149	1.683	0.488
254.000	194.962	80.010	19.994	100.389	20.146	1.845	0.462
256.000	195.865	80.010	19.996	100.393	20.148	1.728	0.434
258.000	196.846	80.009	19.996	100.393	20.145	1.958	0.472
260.000	197.778	80.011	19.995	100.394	20.142	2.150	0.471
262.000	198.693	80.011	19.995	100.392	20.141	2.220	0.485
264.000	199.661	80.008	19.996	100.397	20.145	1.939	0.485
266.000	200.588	80.009	19.997	100.389	20.144	1.988	0.462
268.000	201.507	80.009	19.996	100.378	20.144	2.019	0.459
270.000	202.426	80.009	19.995	100.386	20.145	1.928	0.481
272.000	203.370	80.009	19.996	100.385	20.145	1.921	0.460
274.000	204.321	80.007	19.995	100.398	20.142	2.163	0.508
276.000	205.220	80.009	19.996	100.386	20.142	2.171	0.484
278.000	206.176	80.008	19.995	100.396	20.142	2.126	0.466
280.000	207.113	80.011	19.995	100.389	20.144	1.992	0.463
282.000	208.090	80.009	19.996	100.394	20.140	2.261	0.448
284.000	209.024	80.009	19.995	100.392	20.138	2.408	0.488
286.000	209.929	80.009	19.996	100.397	20.135	2.632	0.436
288.000	210.859	80.007	19.995	100.394	20.138	2.440	0.463
290.000	211.840	80.009	19.996	100.400	20.139	2.374	0.495
292.000	212.779	80.007	19.996	100.395	20.133	2.740	0.472
294.000	213.691	80.009	19.996	100.396	20.136	2.542	0.468
296.000	214.647	80.007	19.994	100.401	20.135	2.638	0.458
298.000	215.567	80.007	19.997	100.402	20.132	2.826	0.481
300.000	216.539	80.010	19.996	100.397	20.131	2.889	0.489
302.000	217.527	80.012	19.997	100.397	20.134	2.721	0.494
304.000	218.482	80.012	19.996	100.403	20.136	2.540	0.502
306.000	219.417	80.011	19.996	100.398	20.134	2.721	0.481
308.000	220.393	80.009	19.995	100.395	20.135	2.608	0.465
310.000	221.384	80.012	19.996	100.396	20.135	2.610	0.488
312.000	222.321	80.010	19.995	100.398	20.133	2.790	0.512
314.000	223.311	80.008	19.995	100.396	20.132	2.841	0.476
316.000	224.303	80.008	19.995	100.396	20.133	2.745	0.488
318.000	225.282	80.011	19.994	100.394	20.132	2.824	0.490
320.000	226.272	80.010	19.996	100.379	20.132	2.852	0.487
322.000	227.253	80.011	19.995	100.382	20.132	2.835	0.498
324.000	228.233	80.011	19.996	100.371	20.131	2.898	0.499
326.000	229.248	80.011	19.995	100.374	20.131	2.929	0.492
328.000	230.242	80.013	19.995	100.382	20.129	3.052	0.533
330.000	231.207	80.012	19.994	100.395	20.128	3.114	0.455
332.000	232.191	80.014	19.995	100.379	20.127	3.157	0.467
334.000	233.212	80.012	19.994	100.382	20.128	3.110	0.530
336.000	234.192	80.015	19.995	100.383	20.124	3.375	0.502
338.000	235.148	80.011	19.996	100.375	20.128	3.099	0.474
340.000	236.127	80.008	19.995	100.374	20.125	3.340	0.488
342.000	237.100	80.010	19.996	100.366	20.124	3.420	0.499
344.000	238.070	80.010	19.995	100.370	20.124	3.400	0.505
346.000	239.007	80.010	19.995	100.371	20.124	3.358	0.482
348.000	240.017	80.009	19.995	100.372	20.124	3.391	0.495
350.000	240.977	80.011	19.995	100.369	20.123	3.477	0.496
352.000	241.958	80.010	19.995	100.370	20.124	3.372	0.487
354.000	242.952	80.009	19.994	100.372	20.120	3.664	0.465
356.000	243.921	80.011	19.994	100.371	20.123	3.445	0.501
358.000	244.866	80.010	19.995	100.371	20.122	3.494	0.466
360.000	245.866	80.010	19.994	100.375	20.124	3.421	0.444
362.000	246.849	80.009	19.995	100.383	20.118	3.799	0.460
364.000	247.828	80.010	19.995	100.374	20.121	3.577	0.486
366.000	248.815	80.008	19.995	100.376	20.114	4.063	0.492
368.000	249.830	80.009	19.995	100.375	20.118	3.786	0.512
370.000	250.843	80.009	19.996	100.380	20.114	4.091	0.507
372.000	251.871	80.009	19.996	100.376	20.117	3.892	0.511
374.000	252.813	80.010	19.996	100.377	20.111	4.255	0.506
376.000	253.806	80.010	19.995	100.379	20.111	4.263	0.450
378.000	254.829	80.010	19.997	100.379	20.113	4.125	0.497
380.000	255.821	80.012	19.995	100.376	20.112	4.198	0.509
382.000	256.852	80.010	19.996	100.384	20.108	4.471	0.526
384.000	257.860	80.010	19.994	100.394	20.109	4.433	0.525
386.000	258.887	80.010	19.996	100.390	20.108	4.520	0.555
388.000	259.896	80.011	19.995	100.389	20.108	4.508	0.508
390.000	260.926	80.011	19.996	100.376	20.105	4.680	0.511
392.000	261.901	80.011	19.997	100.372	20.104	4.766	0.494
394.000	262.918	80.011	19.996	100.376	20.106	4.663	0.496
396.000	263.955	80.010	19.997	100.369	20.105	4.681	0.530
398.000	265.011	80.010	19.997	100.366	20.104	4.783	0.526
400.000	265.972	80.009	19.997	100.365	20.102	4.904	0.476
402.000	266.961	80.010	19.997	100.363	20.100	5.035	0.528
404.000	268.042	80.010	19.996	100.367	20.101	4.947	0.541
406.000	268.982	80.011	19.996	100.363	20.099	5.084	0.506
408.000	270.010	80.011	19.994	100.364	20.099	5.084	0.515
410.000	271.077	80.011	19.995	100.365	20.099	5.100	0.510
412.000	272.062	80.012	19.995	100.366	20.100	5.045	0.504
414.000	273.104	80.012	19.995	100.367	20.101	4.977	0.501
416.000	274.042	80.011	19.996	100.363	20.099	5.133	0.494
418.000	275.066	80.010	19.994	100.367	20.097	5.248	0.498
420.000	276.038	80.010	19.995	100.368	20.097	5.280	0.491
422.000	277.041	80.009	19.995	100.367	20.096	5.297	0.503
424.000	278.043	80.007	19.996	100.367	20.090	5.719	0.500
426.000	279.053	80.009	19.997	100.367	20.093	5.551	0.517
428.000	280.070	80.008	19.995	100.367	20.091	5.662	0.499
430.000	281.003	80.009	19.994	100.366	20.090	5.704	0.462
432.000	281.998	80.008	19.995	100.367	20.088	5.861	0.513
434.000	282.980	80.009	19.996	100.368	20.090	5.730	0.503
436.000	283.944	80.009	19.995	100.366	20.088	5.864	0.474
438.000	284.883	80.010	19.995	100.367	20.090	5.758	0.476
440.000	285.912	80.010	19.996	100.365	20.089	5.822	0.480
442.000	286.874	80.010	19.995	100.361	20.085	6.095	0.495
444.000	287.867	80.010	19.995	100.360	20.083	6.187	0.493
446.000	288.846	80.010	19.995	100.363	20.086	6.007	0.484
448.000	289.820	80.009	19.996	100.364	20.084	6.161	0.466
450.000	290.823	80.010	19.995	100.364	20.087	5.975	0.502
452.000	291.861	80.010	19.995	100.360	20.083	6.210	0.496
454.000	292.780	80.009	19.995	100.360	20.081	6.358	0.490
456.000	293.763	80.009	19.995	100.364	20.082	6.313	0.499
458.000	294.764	80.008	19.995	100.365	20.082	6.289	0.519
460.000	295.729	80.011	19.996	100.362	20.080	6.449	0.517
462.000	296.758	80.009	19.996	100.363	20.079	6.477	0.499
464.000	297.667	80.008	19.996	100.364	20.077	6.611	0.472
466.000	298.687	80.011	19.996	100.361	20.077	6.626	0.490
468.000	299.663	80.011	19.996	100.360	20.078	6.570	0.490
470.000	300.692	80.011	19.996	100.363	20.077	6.609	0.487
472.000	301.643	80.012	19.996	100.361	20.071	7.040	0.503
474.000	302.641	80.010	19.995	100.364	20.074	6.823	0.498
476.000	303.658	80.010	19.996	100.365	20.073	6.938	0.489
478.000	304.650	80.011	19.995	100.365	20.071	7.038	0.504
480.000	305.662	80.011	19.995	100.367	20.069	7.192	0.502
482.000	306.678	80.011	19.996	100.365	20.066	7.361	0.529
484.000	307.653	80.010	19.996	100.364	20.069	7.166	0.481
486.000	308.670	80.011	19.996	100.356	20.064	7.544	0.532
488.000	309.684	80.010	19.996	100.362	20.062	7.676	0.508
490.000	310.730	80.011	19.997	100.364	20.064	7.548	0.536
492.000	311.742	80.010	19.997	100.354	20.064	7.518	0.523
494.000	312.753	80.012	19.995	100.357	20.063	7.603	0.522
496.000	313.797	80.011	19.996	100.359	20.064	7.546	0.512
498.000	314.776	80.011	19.996	100.351	20.066	7.390	0.494
500.000	315.827	80.012	19.995	100.362	20.064	7.537	0.484
502.000	316.812	80.011	19.996	100.365	20.062	7.657	0.524
504.000	317.844	80.010	19.995	100.364	20.061	7.741	0.480
506.000	318.906	80.011	19.994	100.362	20.061	7.764	0.538
508.000	319.921	80.009	19.995	100.364	20.061	7.737	0.518
510.000	320.985	80.010	19.995	100.361	20.060	7.784	0.530
512.000	322.018	80.010	19.995	100.363	20.060	7.832	0.509
514.000	323.041	80.009	19.996	100.357	20.056	8.090	0.513
516.000	324.124	80.011	19.995	100.355	20.056	8.084	0.505
518.000	325.156	80.009	19.995	100.363	20.055	8.124	0.541
520.000	326.158	80.010	19.994	100.361	20.051	8.404	0.534
522.000	327.259	80.010	19.995	100.360	20.051	8.395	0.537
524.000	328.319	80.010	19.995	100.362	20.054	8.242	0.520
526.000	329.384	80.012	19.996	100.356	20.052	8.387	0.529
528.000	330.402	80.011	19.995	100.363	20.047	8.721	0.511
530.000	331.484	80.011	19.996	100.360	20.047	8.667	0.500
532.000	332.555	80.009	19.995	100.360	20.047	8.712	0.582
534.000	333.623	80.011	19.995	100.355	20.047	8.683	0.528
536.000	334.676	80.010	19.995	100.356	20.046	8.761	0.544
538.000	335.742	80.009	19.995	100.355	20.045	8.813	0.541
540.000	336.791	80.010	19.995	100.357	20.045	8.851	0.533
542.000	337.829	80.009	19.995	100.348	20.045	8.830	0.494
544.000	338.901	80.011	19.995	100.341	20.042	9.029	0.507
546.000	339.909	80.009	19.995	100.338	20.044	8.928	0.536
548.000	340.936	80.010	19.995	100.342	20.043	8.952	0.538
550.000	341.924	80.011	19.995	100.335	20.043	9.004	0.486
552.000	342.961	80.013	19.994	100.337	20.041	9.106	0.513
554.000	343.945	80.013	19.996	100.329	20.041	9.099	0.515
556.000	344.953	80.011	19.996	100.337	20.038	9.287	0.527
558.000	345.918	80.010	19.996	100.334	20.039	9.258	0.494
560.000	346.923	80.010	19.995	100.333	20.040	9.180	0.492
562.000	347.906	80.010	19.997	100.334	20.037	9.407	0.472
564.000	348.898	80.010	19.996	100.333	20.036	9.431	0.495
566.000	349.857	80.009	19.996	100.335	20.036	9.460	0.506
568.000	350.859	80.011	19.996	100.331	20.037	9.369	0.512
570.000	351.829	80.011	19.996	100.332	20.033	9.674	0.475
572.000	352.815	80.010	19.996	100.334	20.032	9.713	0.504
574.000	353.818	80.012	19.995	100.330	20.033	9.683	0.494
576.000	354.794	80.012	19.995	100.333	20.032	9.727	0.477
578.000	355.793	80.013	19.995	100.333	20.030	9.872	0.481
580.000	356.739	80.013	19.996	100.332	20.028	9.981	0.477
582.000	357.723	80.012	19.995	100.328	20.028	10.014	0.504
584.000	358.684	80.015	19.997	100.326	20.025	10.211	0.484
586.000	359.666	80.011	19.997	100.327	20.026	10.126	0.501
588.000	360.665	80.011	19.996	100.335	20.025	10.208	0.487
590.000	361.644	80.010	19.997	100.333	20.025	10.212	0.514
592.000	362.623	80.010	19.996	100.336	20.020	10.529	0.447
594.000	363.603	80.008	19.997	100.336	20.019	10.624	0.482
596.000	364.606	80.010	19.997	100.333	20.020	10.594	0.478
598.000	365.564	80.009	19.996	100.343	20.019	10.662	0.502
600.000	366.596	80.010	19.996	100.344	20.018	10.702	0.515
602.000	367.567	80.011	19.996	100.353	20.022	10.394	0.530
604.000	368.575	80.011	19.997	100.344	20.016	10.842	0.521
606.000	369.531	80.011	19.995	100.342	20.015	10.893	0.463
608.000	370.527	80.011	19.995	100.336	20.010	11.233	0.465
610.000	371.540	80.010	19.996	100.329	20.011	11.199	0.493
612.000	372.528	80.010	19.995	100.340	20.012	11.131	0.485
614.000	373.549	80.011	19.994	100.336	20.009	11.303	0.511
616.000	374.559	80.009	19.995	100.345	20.007	11.453	0.482
618.000	375.567	80.009	19.995	100.339	20.007	11.460	0.473
620.000	376.579	80.009	19.995	100.333	20.004	11.692	0.484
622.000	377.579	80.009	19.996	100.335	20.004	11.694	0.507
624.000	378.581	80.008	19.996	100.338	20.003	11.744	0.508
626.000	379.640	80.008	19.995	100.341	20.001	11.894	0.531
628.000	380.638	80.009	19.995	100.342	20.000	11.961	0.484
630.000	381.660	80.009	19.995	100.346	19.998	12.051	0.498
632.000	382.661	80.011	19.995	100.340	19.998	12.089	0.504
634.000	383.684	80.011	19.996	100.346	19.994	12.368	0.499
636.000	384.717	80.012	19.995	100.345	19.993	12.416	0.514
638.000	385.728	80.012	19.994	100.335	19.992	12.457	0.500
640.000	386.733	80.011	19.994	100.331	19.990	12.598	0.492
642.000	387.771	80.011	19.996	100.335	19.989	12.719	0.496
644.000	388.805	80.011	19.995	100.333	19.986	12.930	0.509
646.000	389.835	80.011	19.995	100.340	19.986	12.932	0.491
648.000	390.840	80.011	19.996	100.331	19.982	13.201	0.492
650.000	391.934	80.010	19.995	100.327	19.981	13.256	0.528
652.000	392.970	80.011	19.995	100.330	19.980	13.295	0.558
654.000	394.052	80.012	19.996	100.330	19.979	13.363	0.555
656.000	395.086	80.011	19.996	100.333	19.977	13.512	0.544
658.000	396.121	80.012	19.995	100.335	19.976	13.604	0.497
660.000	397.172	80.013	19.996	100.339	19.970	13.990	0.528
662.000	398.222	80.013	19.995	100.341	19.969	14.085	0.526
664.000	399.287	80.012	19.996	100.339	19.968	14.113	0.536
666.000	400.380	80.012	19.996	100.329	19.967	14.236	0.550
668.000	401.435	80.012	19.996	100.345	19.963	14.507	0.530
670.000	402.508	80.010	19.996	100.334	19.963	14.490	0.528
672.000	403.552	80.009	19.996	100.333	19.957	14.890	0.535
674.000	404.591	80.009	19.996	100.326	19.954	15.097	0.507
676.000	405.674	80.009	19.996	100.329	19.951	15.294	0.548
678.000	406.713	80.009	19.996	100.332	19.948	15.509	0.505
680.000	407.817	80.010	19.996	100.335	19.947	15.620	0.554
682.000	408.862	80.009	19.996	100.334	19.941	16.000	0.533
684.000	409.883	80.009	19.996	100.330	19.940	16.088	0.520
686.000	410.959	80.009	19.997	100.328	19.937	16.290	0.545
688.000	412.005	80.009	19.997	100.327	19.932	16.600	0.507
690.000	413.071	80.009	19.997	100.327	19.931	16.719	0.520
692.000	414.064	80.009	19.996	100.328	19.930	16.790	0.510
694.000	415.068	80.010	19.997	100.325	19.923	17.239	0.499
696.000	416.113	80.008	19.996	100.327	19.923	17.234	0.517
698.000	417.141	80.009	19.995	100.326	19.918	17.567	0.543
700.000	418.148	80.008	19.994	100.324	19.915	17.790	0.514
702.000	419.132	80.009	19.995	100.324	19.910	18.129	0.502
704.000	420.124	80.009	19.995	100.319	19.910	18.138	0.481
706.000	421.118	80.011	19.995	100.326	19.907	18.351	0.483
708.000	422.115	80.010	19.995	100.325	19.902	18.683	0.473
710.000	423.091	80.009	19.996	100.323	19.901	18.793	0.461
712.000	424.029	80.009	19.996	100.322	19.899	18.917	0.466
714.000	425.021	80.011	19.996	100.314	19.895	19.178	0.474
716.000	425.960	80.011	19.995	100.314	19.893	19.307	0.490
718.000	426.928	80.011	19.995	100.324	19.889	19.566	0.488
720.000	427.899	80.012	19.995	100.322	19.886	19.825	0.490
722.000	428.883	80.012	19.995	100.321	19.883	20.036	0.489
724.000	429.829	80.012	19.996	100.321	19.884	19.908	0.476
726.000	430.832	80.012	19.995	100.314	19.882	20.046	0.519
728.000	431.748	80.010	19.996	100.314	19.880	20.199	0.465
730.000	432.708	80.011	19.996	100.315	19.877	20.392	0.448
732.000	433.707	80.011	19.995	100.315	19.880	20.183	0.469
734.000	434.683	80.012	19.994	100.311	19.872	20.758	0.460
736.000	435.659	80.012	19.996	100.320	19.868	21.063	0.494
738.000	436.639	80.013	19.995	100.321	19.868	21.039	0.500
740.000	437.645	80.013	19.995	100.324	19.865	21.212	0.483
742.000	438.617	80.012	19.995	100.327	19.864	21.301	0.477
744.000	439.568	80.012	19.995	100.324	19.865	21.269	0.484
746.000	440.558	80.012	19.995	100.324	19.866	21.200	0.516
748.000	441.512	80.013	19.994	100.324	19.863	21.414	0.467
750.000	442.490	80.010	19.995	100.325	19.863	21.416	0.507
752.000	443.489	80.011	19.995	100.326	19.860	21.589	0.484
754.000	444.463	80.010	19.995	100.327	19.859	21.645	0.484
756.000	445.493	80.009	19.995	100.325	19.857	21.810	0.527
758.000	446.465	80.010	19.995	100.326	19.854	22.016	0.486
760.000	447.491	80.011	19.995	100.327	19.857	21.808	0.530
762.000	448.492	80.009	19.995	100.329	19.859	21.661	0.518
764.000	449.557	80.009	19.994	100.327	19.860	21.576	0.503
766.000	450.579	80.009	19.995	100.324	19.861	21.539	0.520
768.000	451.564	80.009	19.996	100.325	19.861	21.521	0.498
770.000	452.584	80.009	19.996	100.327	19.865	21.247	0.489
772.000	453.609	80.010	19.995	100.311	19.866	21.170	0.539
774.000	454.690	80.010	19.995	100.319	19.870	20.877	0.530
776.000	455.702	80.010	19.996	100.319	19.877	20.392	0.517
778.000	456.739	80.011	19.995	100.315	19.876	20.518	0.520
780.000	457.781	80.010	19.995	100.324	19.879	20.246	0.526
782.000	458.812	80.011	19.996	100.322	19.884	19.909	0.549
784.000	459.855	80.010	19.998	100.317	19.889	19.609	0.495
786.000	460.882	80.009	19.995	100.318	19.897	19.006	0.499
788.000	461.945	80.008	19.997	100.316	19.900	18.854	0.539
790.000	462.986	80.009	19.996	100.321	19.908	18.282	0.546
792.000	463.992	80.010	19.995	100.323	19.916	17.712	0.514
794.000	465.008	80.009	19.996	100.320	19.924	17.208	0.492
796.000	466.038	80.010	19.995	100.318	19.933	16.543	0.537
798.000	467.055	80.011	19.995	100.323	19.938	16.180	0.497
800.000	468.125	80.011	19.995	100.323	19.949	15.446	0.546
802.000	469.127	80.011	19.994	100.320	19.955	15.019	0.500
804.000	470.156	80.011	19.994	100.314	19.967	14.193	0.522
806.000	471.226	80.011	19.995	100.320	19.975	13.654	0.541
808.000	472.285	80.012	19.995	100.321	19.985	12.955	0.538
810.000	473.338	80.012	19.995	100.324	19.992	12.466	0.544
812.000	474.374	80.010	19.995	100.325	20.005	11.578	0.519
814.000	475.438	80.010	19.995	100.328	20.011	11.177	0.532
816.000	476.447	80.011	19.996	100.321	20.023	10.323	0.486
818.000	477.463	80.010	19.994	100.324	20.030	9.866	0.498
820.000	478.533	80.011	19.995	100.327	20.038	9.343	0.523
822.000	479.581	80.010	19.996	100.325	20.047	8.703	0.514
824.000	480.642	80.012	19.994	100.326	20.055	8.135	0.504
826.000	481.661	80.011	19.996	100.327	20.062	7.657	0.529
828.000	482.735	80.012	19.994	100.327	20.071	7.037	0.522
830.000	483.745	80.014	19.995	100.327	20.075	6.763	0.528
832.000	484.829	80.010	19.995	100.328	20.082	6.255	0.533
834.000	485.824	80.012	19.995	100.327	20.089	5.825	0.534
836.000	486.893	80.011	19.996	100.326	20.093	5.504	0.527
838.000	487.881	80.011	19.994	100.327	20.100	5.041	0.474
840.000	488.849	80.009	19.996	100.324	20.103	4.866	0.471
842.000	489.949	80.009	19.996	100.326	20.108	4.480	0.527
844.000	490.958	80.009	19.996	100.323	20.113	4.117	0.483
846.000	492.044	80.008	19.996	100.324	20.118	3.806	0.524
848.000	493.059	80.008	19.996	100.325	20.121	3.581	0.525
850.000	494.090	80.009	19.996	100.325	20.127	3.178	0.521
852.000	495.128	80.009	19.996	100.325	20.129	3.073	0.533
854.000	496.141	80.009	19.995	100.324	20.131	2.903	0.491
856.000	497.199	80.010	19.996	100.323	20.135	2.597	0.512
858.000	498.255	80.010	19.996	100.322	20.136	2.533	0.503
860.000	499.289	80.009	19.995	100.325	20.141	2.237	0.499
862.000	500.300	80.010	19.996	100.324	20.143	2.079	0.500
864.000	501.367	80.008	19.996	100.324	20.149	1.682	0.539
866.000	502.398	80.009	19.995	100.327	20.149	1.631	0.522
868.000	503.476	80.009	19.996	100.327	20.149	1.690	0.544
870.000	504.427	80.009	19.995	100.325	20.152	1.453	0.504
872.000	505.476	80.009	19.996	100.326	20.154	1.321	0.519
874.000	506.535	80.009	19.997	100.327	20.154	1.313	0.527
876.000	507.567	80.009	19.997	100.306	20.158	1.063	0.507
878.000	508.667	80.009	19.997	100.333	20.156	1.165	0.552
880.000	509.673	80.008	19.997	100.335	20.160	0.907	0.527
882.000	510.662	80.009	19.997	100.328	20.159	0.995	0.535
884.000	511.731	80.010	19.996	100.327	20.160	0.913	0.521
886.000	512.699	80.010	19.997	100.325	20.158	1.073	0.537
888.000	513.715	80.010	19.995	100.325	20.163	0.694	0.491
890.000	514.795	80.011	19.995	100.325	20.163	0.704	0.538
892.000	515.795	80.011	19.995	100.326	20.161	0.813	0.518
894.000	516.867	80.010	19.995	100.327	20.165	0.527	0.490
896.000	517.886	80.009	19.994	100.330	20.164	0.598	0.531
898.000	518.878	80.010	19.995	100.328	20.167	0.453	0.493
900.000	519.909	80.011	19.996	100.328	20.170	0.220	0.504
902.000	520.937	80.010	19.995	100.329	20.171	0.154	0.532
904.000	521.963	80.010	19.996	100.327	20.171	0.117	0.499
906.000	522.930	80.011	19.995	100.326	20.170	0.211	0.500
908.000	523.963	80.012	19.995	100.329	20.170	0.199	0.466
910.000	524.976	80.012	19.996	100.328	20.174	-0.038	0.493
912.000	525.986	80.012	19.995	100.326	20.170	0.205	0.509
914.000	527.066	80.013	19.995	100.324	20.173	0.013	0.529
916.000	528.059	80.010	19.995	100.322	20.173	0.023	0.499
918.000	529.065	80.011	19.997	100.323	20.173	0.013	0.492
920.000	530.037	80.011	19.995	100.323	20.171	0.169	0.515
922.000	531.070	80.010	19.996	100.324	20.172	0.053	0.484
924.000	532.067	80.010	19.996	100.325	20.172	0.103	0.501
926.000	533.100	80.010	19.995	100.325	20.174	-0.030	0.506
928.000	534.122	80.011	19.996	100.325	20.175	-0.134	0.524
930.000	535.131	80.009	19.997	100.325	20.176	-0.226	0.525
932.000	536.090	80.010	19.995	100.325	20.172	0.088	0.484
934.000	537.108	80.011	19.995	100.326	20.178	-0.309	0.493
936.000	538.114	80.010	19.994	100.325	20.175	-0.132	0.497
938.000	539.161	80.009	19.995	100.327	20.178	-0.324	0.525
940.000	540.148	80.010	19.995	100.326	20.181	-0.512	0.512
942.000	541.141	80.010	19.995	100.326	20.177	-0.262	0.492
944.000	542.160	80.011	19.995	100.328	20.177	-0.256	0.500
946.000	543.133	80.010	19.996	100.327	20.178	-0.329	0.478
948.000	544.127	80.010	19.996	100.326	20.176	-0.164	0.465
950.000	545.150	80.010	19.996	100.326	20.177	-0.243	0.478
952.000	546.200	80.010	19.995	100.327	20.177	-0.263	0.505
954.000	547.214	80.009	19.997	100.329	20.177	-0.280	0.499
956.000	548.234	80.008	19.995	100.328	20.178	-0.305	0.510
958.000	549.231	80.009	19.994	100.328	20.176	-0.190	0.515
960.000	550.264	80.009	19.995	100.333	20.179	-0.435	0.497
962.000	551.247	80.011	19.997	100.332	20.177	-0.252	0.502
964.000	552.288	80.011	19.996	100.328	20.176	-0.220	0.495
966.000	553.293	80.011	19.995	100.328	20.176	-0.203	0.517
968.000	554.339	80.013	19.996	100.327	20.175	-0.152	0.519
970.000	555.365	80.012	19.996	100.325	20.177	-0.263	0.512
972.000	556.364	80.011	19.996	100.323	20.180	-0.446	0.485
974.000	557.426	80.012	19.997	100.323	20.177	-0.233	0.531
976.000	558.406	80.010	19.996	100.323	20.175	-0.156	0.488
978.000	559.428	80.009	19.997	100.324	20.177	-0.290	0.494
980.000	560.446	80.010	19.997	100.328	20.179	-0.378	0.527
982.000	561.458	80.011	19.997	100.325	20.175	-0.111	0.492
984.000	562.488	80.010	19.996	100.325	20.178	-0.356	0.498
986.000	563.531	80.011	19.997	100.323	20.179	-0.408	0.526
988.000	564.549	80.011	19.995	100.323	20.177	-0.254	0.513
990.000	565.580	80.012	19.994	100.324	20.175	-0.126	0.521
992.000	566.611	80.013	19.995	100.324	20.177	-0.271	0.542
994.000	567.599	80.014	19.995	100.322	20.177	-0.256	0.495
996.000	568.618	80.013	19.994	100.322	20.180	-0.463	0.500
998.000	569.672	80.011	19.995	100.323	20.180	-0.463	0.540
1000.000	570.710	80.011	19.996	100.322	20.179	-0.399	0.535
1002.000	571.715	80.010	19.995	100.322	20.180	-0.442	0.500
1004.000	572.727	80.009	19.995	100.320	20.181	-0.523	0.480
1006.000	573.802	80.011	19.996	100.325	20.180	-0.450	0.519
1008.000	574.857	80.010	19.995	100.326	20.181	-0.540	0.508
1010.000	575.906	80.009	19.995	100.326	20.179	-0.384	0.513
1012.000	576.945	80.010	19.995	100.326	20.181	-0.516	0.532
1014.000	578.006	80.011	19.994	100.327	20.178	-0.320	0.512
1016.000	579.018	80.011	19.996	100.327	20.179	-0.408	0.532
1018.000	580.041	80.010	19.996	100.329	20.179	-0.384	0.498
1020.000	580.992	80.010	19.994	100.329	20.180	-0.485	0.484
1022.000	582.091	80.026	19.996	100.330	20.180	-0.470	0.494
1024.000	583.041	80.025	19.996	100.328	20.183	-0.672	0.499
1025.999	584.089	80.014	19.995	100.328	20.181	-0.533	0.522
1028.000	585.077	80.010	19.995	100.329	20.181	-0.553	0.511
1029.999	586.055	80.009	19.996	100.330	20.181	-0.523	0.489
1031.999	587.098	80.011	19.995	100.330	20.182	-0.636	0.501
1033.999	588.093	80.009	19.995	100.330	20.183	-0.674	0.506
1036.000	589.113	80.010	19.995	100.330	20.186	-0.905	0.515
1038.000	590.138	80.009	19.995	100.328	20.183	-0.711	0.530
1039.999	591.138	80.009	19.996	100.325	20.182	-0.615	0.500
1042.000	592.135	80.008	19.996	100.326	20.184	-0.723	0.489
1043.999	593.131	80.011	19.996	100.327	20.181	-0.559	0.525
1045.999	594.171	80.011	19.997	100.326	20.176	-0.226	0.533
1047.999	595.195	80.010	19.995	100.325	20.181	-0.527	0.526
1049.999	596.191	80.014	19.995	100.324	20.181	-0.546	0.505
1052.000	597.180	80.011	19.996	100.324	20.179	-0.412	0.495
1053.999	598.207	80.012	19.995	100.324	20.182	-0.585	0.514
1055.999	599.105	80.012	19.995	100.324	20.184	-0.732	0.459
1058.001	600.111	80.012	19.995	100.325	20.179	-0.429	0.526
1059.999	601.105	80.011	19.996	100.327	20.181	-0.534	0.522
1062.000	602.081	80.009	19.996	100.324	20.180	-0.467	0.498
1063.999	603.085	80.010	19.994	100.325	20.181	-0.516	0.516
1066.000	604.071	80.011	19.996	100.328	20.182	-0.583	0.541
1067.999	605.043	80.010	19.997	100.328	20.182	-0.621	0.529
1069.999	606.040	80.012	19.996	100.329	20.180	-0.489	0.470
1072.000	607.024	80.011	19.997	100.323	20.182	-0.610	0.514
1074.000	608.025	80.012	19.997	100.327	20.177	-0.269	0.494
1075.999	609.029	80.012	19.995	100.326	20.178	-0.356	0.477
1077.999	610.045	80.011	19.996	100.331	20.180	-0.470	0.498
1079.999	611.051	80.011	19.995	100.325	20.181	-0.536	0.501
1081.999	612.041	80.012	19.996	100.329	20.182	-0.589	0.497
1083.999	613.064	80.011	19.996	100.338	20.179	-0.397	0.493
1085.999	614.090	80.009	19.996	100.329	20.180	-0.485	0.499
1088.000	615.033	80.009	19.995	100.330	20.181	-0.561	0.458
1090.000	616.071	80.009	19.994	100.336	20.183	-0.662	0.516
1091.999	617.079	80.008	19.995	100.331	20.179	-0.412	0.519
1094.000	618.067	80.008	19.994	100.336	20.177	-0.290	0.483
1095.999	619.115	80.009	19.995	100.330	20.180	-0.502	0.495
1097.999	620.113	80.009	19.995	100.332	20.178	-0.367	0.488
1099.999	621.132	80.010	19.995	100.334	20.180	-0.504	0.502
1101.999	622.120	80.011	19.996	100.335	20.180	-0.444	0.514
1104.000	623.207	80.012	19.995	100.340	20.179	-0.386	0.530
1105.999	624.228	80.010	19.996	100.347	20.179	-0.420	0.527
1107.999	625.229	80.011	19.996	100.334	20.180	-0.459	0.500
1109.999	626.255	80.011	19.995	100.341	20.177	-0.256	0.536
1111.999	627.260	80.010	19.996	100.346	20.178	-0.356	0.484
1113.999	628.341	80.010	19.996	100.356	20.179	-0.405	0.540
1115.999	629.395	80.011	19.996	100.348	20.179	-0.416	0.521
1118.001	630.427	80.011	19.996	100.346	20.180	-0.469	0.538
1119.999	631.451	80.010	19.995	100.358	20.180	-0.444	0.527
1121.999	632.528	80.009	19.996	100.343	20.179	-0.395	0.523
1123.999	633.547	80.010	19.993	100.350	20.180	-0.506	0.529
1125.999	634.591	80.011	19.995	100.362	20.178	-0.341	0.512
1127.999	635.688	80.011	19.995	100.349	20.177	-0.262	0.539
1129.999	636.735	80.010	19.996	100.360	20.179	-0.412	0.564
1131.999	637.770	80.011	19.996	100.357	20.184	-0.728	0.500
1133.999	638.784	80.011	19.995	100.358	20.180	-0.489	0.504
1135.999	639.754	80.011	19.994	100.361	20.182	-0.600	0.492
1137.999	640.757	80.011	19.997	100.356	20.179	-0.422	0.492
1140.000	641.773	80.010	19.998	100.364	20.178	-0.369	0.524
1141.999	642.795	80.010	19.997	100.365	20.178	-0.365	0.539
1143.999	643.798	80.009	19.995	100.366	20.181	-0.557	0.488
1145.999	644.793	80.010	19.994	100.367	20.181	-0.508	0.500
1147.999	645.831	80.011	19.994	100.369	20.179	-0.429	0.521
1149.999	646.820	80.010	19.996	100.365	20.176	-0.188	0.489
1151.999	647.866	80.012	19.994	100.367	20.178	-0.307	0.524
1153.999	648.835	80.011	19.995	100.365	20.178	-0.329	0.495
1155.999	649.862	80.011	19.995	100.365	20.177	-0.294	0.501
1157.999	650.876	80.012	19.997	100.366	20.178	-0.316	0.517
1159.999	651.870	80.014	19.995	100.367	20.178	-0.329	0.512
1161.999	652.810	80.011	19.995	100.371	20.179	-0.416	0.450
1164.000	653.789	80.011	19.994	100.368	20.176	-0.205	0.472
1165.999	654.838	80.011	19.996	100.370	20.177	-0.281	0.515
1167.999	655.843	80.009	19.996	100.369	20.176	-0.200	0.510
1170.000	656.805	80.008	19.996	100.380	20.176	-0.205	0.506
1172.000	657.810	80.009	19.996	100.393	20.178	-0.337	0.506
1173.999	658.792	80.010	19.997	100.387	20.177	-0.256	0.482
1175.999	659.812	80.009	19.996	100.389	20.177	-0.288	0.472
1178.000	660.818	80.009	19.997	100.385	20.177	-0.243	0.509
1179.999	661.801	80.009	19.997	100.392	20.178	-0.331	0.495
1181.999	662.816	80.009	19.996	100.393	20.175	-0.128	0.476
1183.999	663.828	80.011	19.996	100.394	20.177	-0.235	0.530
1185.999	664.812	80.009	19.995	100.400	20.176	-0.232	0.533
1187.999	665.844	80.009	19.994	100.402	20.171	0.173	0.521
1189.999	666.923	80.010	19.996	100.401	20.173	0.009	0.562
1191.999	667.906	80.011	19.992	100.402	20.171	0.156	0.502
1193.999	668.996	80.011	19.995	100.402	20.173	0.023	0.543
1196.000	669.988	80.010	19.995	100.404	20.174	-0.043	0.517
1198.000	671.035	80.010	19.993	100.406	20.169	0.313	0.517
1200.000	672.110	80.009	19.996	100.406	20.170	0.222	0.566
1201.999	673.160	80.009	19.996	100.405	20.169	0.262	0.553
1203.999	674.204	80.008	19.993	100.405	20.170	0.224	0.536
1205.999	675.249	80.009	19.997	100.410	20.174	-0.040	0.483
1208.000	676.316	80.009	19.995	100.410	20.168	0.324	0.539
1209.999	677.406	80.008	19.994	100.411	20.167	0.426	0.565
1212.000	678.437	80.012	19.993	100.413	20.169	0.262	0.509
1214.000	679.488	80.010	19.994	100.420	20.168	0.322	0.556
1215.999	680.532	80.012	19.995	100.428	20.168	0.350	0.504
1217.999	681.576	80.011	19.995	100.426	20.163	0.678	0.523
1220.000	682.733	80.011	19.994	100.423	20.168	0.373	0.583
1221.999	683.616	80.011	19.994	100.439	20.166	0.460	0.454
1223.999	684.636	80.011	19.994	100.438	20.166	0.499	0.515
1226.000	685.667	80.010	19.995	100.444	20.165	0.582	0.490
1228.000	686.670	80.010	19.993	100.446	20.163	0.722	0.518
1229.999	687.717	80.009	19.995	100.448	20.164	0.601	0.528
1231.999	688.703	80.010	19.995	100.447	20.166	0.507	0.518
1233.999	689.720	80.011	19.996	100.445	20.166	0.497	0.506
1235.999	690.743	80.012	19.995	100.448	20.161	0.810	0.524
1238.000	691.728	80.011	19.994	100.444	20.163	0.727	0.482
1239.999	692.774	80.012	19.995	100.441	20.164	0.661	0.492
1241.999	693.811	80.013	19.995	100.446	20.165	0.582	0.498
1243.999	694.906	80.012	19.998	100.457	20.162	0.742	0.557
1245.999	695.880	80.011	19.994	100.450	20.161	0.829	0.537
1247.999	696.957	80.010	19.995	100.472	20.163	0.686	0.551
1249.999	697.975	80.010	19.995	100.477	20.156	1.172	0.513
1251.999	699.027	80.009	19.995	100.478	20.160	0.927	0.535
1253.999	700.059	80.009	19.996	100.475	20.159	0.967	0.527
1255.999	701.131	80.009	19.997	100.480	20.160	0.922	0.514
1257.999	702.182	80.008	19.996	100.480	20.160	0.893	0.535
1260.000	703.163	80.009	19.994	100.482	20.160	0.880	0.467
1262.000	704.252	80.010	19.996	100.485	20.153	1.425	0.520
1263.999	705.247	80.008	19.995	100.484	20.159	0.978	0.508
1265.999	706.265	80.009	19.993	100.484	20.171	0.181	0.521
1267.999	707.240	80.008	19.997	100.495	20.156	1.189	0.459
1269.999	708.321	80.009	19.993	100.498	20.156	1.167	0.540
1271.999	709.376	80.010	19.995	100.502	20.157	1.124	0.520
1273.999	710.285	80.009	19.996	100.504	20.155	1.225	0.434
1275.999	711.215	80.011	19.995	100.503	20.154	1.322	0.432
1277.999	712.185	80.010	19.996	100.508	20.154	1.297	0.367
1279.999	713.350	80.009	19.996	100.513	20.154	1.352	0.312
1281.999	714.446	80.010	19.995	100.521	20.154	1.299	0.957
1284.000	715.545	80.011	19.995	100.523	20.157	1.107	0.474
1285.999	716.406	80.009	19.995	100.520	20.153	1.391	0.525
1287.999	717.553	80.010	19.996	100.520	20.150	1.587	0.571
1289.999	718.457	80.010	19.995	100.524	20.152	1.450	0.565
1291.999	719.396	80.010	19.995	100.526	20.151	1.518	0.529
1293.999	720.458	80.011	19.995	100.526	20.150	1.574	0.481
1296.000	721.518	80.009	19.994	100.528	20.152	1.471	0.456
1297.999	722.558	80.012	19.996	100.525	20.153	1.414	0.494
1299.999	723.558	80.012	19.997	100.527	20.148	1.723	0.479
1301.999	724.576	80.012	19.995	100.524	20.151	1.521	0.534
1304.000	725.573	80.012	19.998	100.523	20.151	1.555	0.484
1306.000	726.608	80.010	19.995	100.524	20.149	1.635	0.486
1307.999	727.655	80.011	19.996	100.525	20.151	1.561	0.542
1309.999	728.678	80.011	19.997	100.521	20.149	1.653	0.510
1311.999	729.688	80.010	19.994	100.521	20.150	1.567	0.524
1313.999	730.721	80.011	19.996	100.521	20.149	1.644	0.503
1315.999	731.713	80.012	19.995	100.521	20.152	1.446	0.516
1317.999	732.717	80.013	19.997	100.521	20.151	1.530	0.490
1319.999	733.769	80.014	19.997	100.514	20.153	1.357	0.513
1322.000	734.756	80.013	19.993	100.508	20.152	1.430	0.541
1323.999	735.750	80.013	19.993	100.506	20.149	1.662	0.513
1325.999	736.766	80.013	19.995	100.493	20.155	1.247	0.485
1327.999	737.763	80.011	19.998	100.490	20.155	1.240	0.518
1329.999	738.793	80.010	19.996	100.483	20.156	1.213	0.528
1331.999	739.807	80.010	19.996	100.481	20.161	0.872	0.520
1333.999	740.827	80.008	19.996	100.478	20.161	0.853	0.524
1336.000	741.885	80.010	19.999	100.459	20.162	0.793	0.512
1337.999	742.892	80.008	19.997	100.439	20.162	0.759	0.516
1338.999	743.406	80.009	19.996	100.437	20.163	0.695	0.519