File: 01_Data/Plastic_Laminate_Countertop/Cone/Plastic_Laminate_Countertop_Cone_HF25Scan_220509_R3.csv
Names,Time,Stack TC,Smoke TC,Exh Press,Smoke Comp,Smoke Meas,CO Meter,CO2 Meter,O2 Meter,Sample Mass,Ext Coeff,Start Test,Flame Verif
Chan Gain,,500,500,1,1,1,1,1,1,1,1,1.0,1.0
Offset,,0,0,0.136848,0,0,0,0,0,0,0,0.0,0.0
Gain,,1,1,25.011,13.1423,14.7137,1,1,1,1.0009,1.01396,1.0,1.0
Units,sec,C,C,Pa,%,%,%,%,%,g,/m,,
Baseline,,24.772,25.3013,146.622,99.2701,102.9,0.000548772,0.041724,20.9914,-443.153,-0.319379,,
32,7.75,22.7823,23.112,144.521,99.4022,103.136,3.37791e-05,0.0455428,20.9903,757.54,-0.32798,0.0,0.0
64,15.75,22.9066,22.9461,149.087,99.4427,103.525,0.000417124,0.0427596,20.9923,757.5,-0.357865,0.0,0.0
96,23.75,22.7947,23.3994,149.67,99.4692,102.799,0.00050751,0.0418958,20.9919,757.47,-0.292859,0.0,0.0
128,31.75,22.4784,22.8067,146.801,99.4856,103.393,0.000519752,0.0423512,20.9919,757.48,-0.342679,0.0,0.0
160,39.75,23.156,23.4264,145.933,99.4889,103.286,0.000648704,0.0422246,20.9951,757.48,-0.333117,0.0,0.0
192,47.75,23.5763,23.666,145.001,99.4788,103.193,0.000584906,0.0420735,20.9932,757.47,-0.326044,0.0,0.0
224,55.75,23.2552,23.5666,147.224,99.4712,103.178,0.000588802,0.0424147,20.9942,757.41,-0.325448,0.0,0.0
256,63.75,23.4291,24.1247,149.519,99.4411,103.401,0.000898585,0.0426265,20.9906,757.37,-0.347278,0.0,0.0
288,71.75,23.484,23.4688,146.101,99.4078,102.86,0.00091301,0.0441465,20.992,757.28,-0.30363,0.0,0.0
320,79.75,23.9569,24.1649,146.572,99.387,101.723,0.000853221,0.0442144,20.9932,757.21,-0.206677,0.0,0.0
352,87.75,23.5982,24.1084,144.843,99.3425,102.108,0.00138275,0.0460554,20.9918,757.049,-0.244207,0.0,0.0
384,95.75,24.2932,24.3266,147.738,99.3044,101.381,0.00169061,0.0473139,20.9897,756.989,-0.184107,0.0,0.0
416,103.75,24.0944,24.1779,146.668,99.2919,101.137,0.00265079,0.0497674,20.9882,756.909,-0.163804,0.0,0.0
448,111.75,24.4843,24.2278,143.592,99.2847,101.018,0.00330577,0.0512546,20.9896,756.829,-0.153901,0.0,0.0
480,119.75,24.251,24.6654,147.905,99.2799,101.01,0.00321886,0.0492436,20.9899,756.749,-0.15366,0.0,0.0
512,127.75,24.3976,24.4537,146.219,99.2951,102.331,0.002645,0.0483605,20.9913,756.639,-0.267864,0.0,0.0
544,135.75,23.6957,24.3441,145.606,99.2951,101.936,0.00248412,0.0475985,20.9924,756.569,-0.233452,0.0,0.0
576,143.75,24.0091,24.589,142.993,99.3116,101.537,0.00250536,0.0481247,20.9906,756.469,-0.197081,0.0,0.0
608,151.75,24.2923,24.91,152.808,99.3112,101.32,0.00266193,0.0485156,20.9914,756.349,-0.178098,0.0,0.0
640,159.75,24.2801,24.3454,145.774,99.3004,101.824,0.00259605,0.0487951,20.9928,756.209,-0.223223,0.0,0.0
672,167.75,23.9551,24.8811,147.249,99.2843,102.234,0.0024821,0.0483442,20.9921,756.089,-0.260399,0.0,0.0
704,175.75,24.7347,25.0549,145.25,99.2823,101.994,0.00224622,0.0469672,20.9915,755.978,-0.239654,0.0,0.0
736,183.75,24.4234,24.8089,147.677,99.2602,102.335,0.00248509,0.0461083,20.9938,755.918,-0.271379,0.0,0.0
768,191.75,24.7787,25.0003,150.766,99.2346,102.743,0.00263424,0.0461071,20.9945,755.798,-0.309007,0.0,0.0
800,199.75,24.7046,24.949,147.232,99.2149,102.212,0.00242253,0.0461981,20.992,755.708,-0.264742,0.0,0.0
832,207.75,24.2147,25.6731,145.804,99.2053,102.263,0.00230896,0.0462193,20.9907,755.608,-0.270019,0.0,0.0
864,215.75,23.9062,24.8794,142.163,99.2049,101.783,0.00231814,0.0459175,20.9905,755.508,-0.228208,0.0,0.0
896,223.75,24.3433,24.9536,144.564,99.2125,102.608,0.00216412,0.0459588,20.9932,755.418,-0.299276,0.0,0.0
928,231.75,24.7255,25.1383,144.561,99.2041,102.496,0.00243075,0.0460481,20.995,755.358,-0.290333,0.0,0.0
960,239.75,24.8037,25.0161,143.508,99.2225,102.208,0.00248811,0.046631,20.9934,755.238,-0.263667,0.0,0.0
992,247.75,24.3355,25.68,153.242,99.2478,102.626,0.00247682,0.047297,20.9928,755.128,-0.297708,0.0,0.0
1024,255.75,24.4836,25.511,147.44,99.2719,102.606,0.00277627,0.0475082,20.9903,755.038,-0.293839,0.0,0.0
1056,263.75,24.7238,25.4688,144.917,99.2779,102.27,0.00265781,0.0481219,20.9894,754.978,-0.264098,0.0,0.0
1088,271.75,24.7138,25.5378,147.303,99.2707,102.727,0.00262345,0.0479658,20.9894,754.857,-0.304372,0.0,0.0
1120,279.75,24.2288,25.5629,148.055,99.2594,103.287,0.00253177,0.0483989,20.9897,754.787,-0.353805,0.0,0.0
1152,287.75,24.8446,25.4606,145.93,99.2394,102.547,0.00239401,0.0471367,20.9916,754.677,-0.291572,0.0,0.0
1184,295.75,25.39,25.3278,145.063,99.229,102.667,0.00216393,0.0469704,20.9899,754.587,-0.302938,0.0,0.0
1216,303.75,25.0346,25.5262,147.501,99.2017,102.527,0.00214531,0.0482013,20.9897,754.497,-0.293277,0.0,0.0
1248,311.75,25.1079,25.695,144.377,99.1824,102.745,0.00234984,0.0480507,20.9897,754.387,-0.313837,0.0,0.0
1280,319.75,24.5944,25.4519,142,99.1748,102.865,0.00267935,0.0481533,20.9897,754.267,-0.324971,0.0,0.0
1312,327.75,25.4523,25.7466,144.608,99.1977,102.058,0.0029354,0.0475383,20.9912,754.187,-0.252797,0.0,0.0
1344,335.75,25.074,25.7051,146.846,99.2951,102.586,0.00300182,0.0473967,20.9903,754.067,-0.290043,0.0,0.0
1376,343.75,25.2028,25.667,140.323,99.4106,102.74,0.00260809,0.0472233,20.9918,753.967,-0.292967,0.0,0.0
1408,351.75,24.911,25.6317,145.346,99.533,102.597,0.00227048,0.0471502,20.9927,753.897,-0.269697,0.0,0.0
1440,359.75,24.7804,24.8821,143.391,99.6264,103.053,0.00227174,0.0470795,20.9925,753.797,-0.300813,0.0,0.0
1472,367.75,24.7523,26.1905,144.005,99.6778,102.874,0.00230092,0.0470782,20.9905,753.696,-0.280716,0.0,0.0
1504,375.75,25.6288,25.3451,144.847,99.7315,103.277,0.00195701,0.0476979,20.9904,753.596,-0.310715,0.0,0.0
1536,383.75,25.1107,26.0346,147.025,99.7961,103.399,0.00192337,0.04716,20.989,753.506,-0.315471,0.0,0.0
1568,391.75,25.1538,25.4194,148.653,99.8735,103.222,0.00197121,0.0468449,20.9887,753.416,-0.293305,0.0,0.0
1600,399.75,24.7681,25.765,145.987,99.928,103.26,0.00193528,0.0463355,20.9887,753.346,-0.291736,0.0,0.0
1632,407.75,25.0868,25.9166,145.382,99.9625,102.89,0.00164056,0.0463856,20.9902,753.286,-0.25674,0.0,0.0
1664,415.75,25.5333,26.146,149.031,99.9938,103.392,0.0017031,0.0464739,20.9904,753.166,-0.297286,0.0,0.0
1696,423.75,25.4576,25.6639,144.466,100.014,102.997,0.00176469,0.0467093,20.9904,753.086,-0.26141,0.0,0.0
1728,431.75,24.9896,25.9484,147.293,100.045,103.453,0.00186125,0.0466382,20.9917,753.026,-0.297934,0.0,0.0
1760,439.75,25.3192,25.3647,142.795,100.022,103.53,0.00212523,0.047138,20.9906,752.916,-0.306601,0.0,0.0
1792,447.75,24.9039,25.9308,143.187,100.013,103.573,0.00179882,0.047672,20.9909,752.846,-0.311086,0.0,0.0
1824,455.75,25.3918,25.4267,150.554,99.995,102.897,0.00209706,0.048144,20.9904,752.746,-0.254431,0.0,0.0
1856,463.75,25.1706,25.5408,143.16,99.9597,102.751,0.00205156,0.0483306,20.9888,752.635,-0.244948,0.0,0.0
1888,471.75,25.2641,25.261,148.621,99.9112,102.869,0.00216972,0.0485119,20.9887,752.565,-0.259523,0.0,0.0
1920,479.75,25.1378,25.6126,146.849,99.847,102.737,0.00223172,0.0489173,20.9903,752.465,-0.253777,0.0,0.0
1952,487.75,24.9856,25.8683,146.152,99.7885,102.427,0.00222644,0.0488534,20.9886,752.365,-0.232131,0.0,0.0
1984,495.75,24.926,25.6511,146.359,99.6645,102.208,0.00243347,0.0491,20.9908,752.275,-0.224175,0.0,0.0
2016,503.75,25.1074,25.5579,145.047,99.5169,102.178,0.00239497,0.0491695,20.9886,752.135,-0.234739,0.0,0.0
2048,511.75,24.7102,25.7949,144.384,99.5378,102.518,0.00185674,0.0488707,20.9911,752.055,-0.262375,0.0,0.0
2080,519.75,25.127,25.8474,143.351,99.6028,102.288,0.00187637,0.0485008,20.993,751.935,-0.236641,0.0,0.0
2112,527.75,24.9278,25.8729,146.394,99.6521,102.582,0.00210207,0.0488588,20.9916,751.805,-0.257775,0.0,0.0
2144,535.75,24.6012,25.1112,144.226,99.7347,102.78,0.0021974,0.0489661,20.9915,751.665,-0.267518,0.0,0.0
2176,543.75,24.7556,26.0419,144.021,99.8081,102.423,0.00198642,0.049273,20.9914,751.555,-0.230029,0.0,0.0
2208,551.75,25.3752,25.6483,144.077,99.8406,102.469,0.00203775,0.0493243,20.9914,751.464,-0.231111,0.0,0.0
2240,559.75,25.4767,25.2022,145.566,99.8538,102.829,0.00170318,0.0495202,20.9922,751.354,-0.261174,0.0,0.0
2272,567.75,25.1257,25.646,140.264,99.928,102.473,0.00208146,0.0497611,20.9928,751.214,-0.223714,0.0,0.0
2304,575.75,24.9655,25.9333,149.012,99.9613,102.753,0.00281776,0.0507516,20.9925,751.054,-0.245,0.0,0.0
2336,583.75,23.8564,25.9356,146.559,100.002,102.625,0.00234902,0.05055,20.9922,750.924,-0.230273,0.0,0.0
2368,591.75,25.3926,25.9037,147.742,100.038,102.127,0.00271634,0.0511849,20.9923,750.794,-0.183764,0.0,0.0
2400,599.75,25.2057,26.1399,145.25,100.023,102.425,0.00287326,0.0520629,20.9909,750.594,-0.211048,0.0,0.0
2432,607.75,25.4209,25.7636,143.602,100.007,102.41,0.00301502,0.0525051,20.9907,750.423,-0.211263,0.0,0.0
2464,615.75,25.1538,26.076,145.368,100.032,101.88,0.00302601,0.0531649,20.9913,750.233,-0.162804,0.0,0.0
2496,623.75,25.3718,26.3134,143.902,100.038,102.359,0.00300316,0.0540508,20.9912,750.083,-0.20407,0.0,0.0
2528,631.75,24.2999,26.3646,149.593,100.066,102.024,0.00357358,0.0549034,20.9872,749.903,-0.172348,0.0,0.0
2560,639.75,24.8201,26.2868,152.494,100.08,101.477,0.00386535,0.055403,20.9896,749.693,-0.123364,0.0,0.0
2592,647.75,25.5531,25.8337,147.82,100.123,101.144,0.00385565,0.054926,20.9913,749.483,-0.0902293,0.0,0.0
2624,655.75,25.6747,26.3799,145.092,100.178,101.431,0.0036845,0.0549784,20.9899,749.292,-0.110506,0.0,0.0
2656,663.75,25.3402,26.0682,144.677,100.241,101.383,0.0037355,0.056869,20.9873,749.042,-0.100703,0.0,0.0
2688,671.75,26.2642,26.6599,144.246,100.282,103.98,0.0026717,0.0784227,20.9627,748.822,-0.322094,0.0,0.0
2720,679.75,25.2699,25.5335,145.852,100.328,103.902,0.00289962,0.0925453,20.9477,748.522,-0.311315,0.0,0.0
2752,687.75,26.4605,26.4136,139.926,100.384,104.195,0.0025513,0.105534,20.9314,748.211,-0.331405,0.0,0.0
2784,695.75,27.1439,26.92,141.678,100.378,104.603,0.00293428,0.123478,20.9097,747.881,-0.366636,0.0,0.0
2816,703.75,28.8013,28.0941,140.525,100.387,102.498,0.00377116,0.137566,20.8936,747.501,-0.185076,0.0,0.0
2848,711.75,29.5631,28.7614,141.752,100.39,103.359,0.00424473,0.150556,20.8788,747.05,-0.259247,0.0,0.0
2880,719.75,29.6603,29.5592,141.751,100.388,101.29,0.00513499,0.167323,20.8601,746.53,-0.0795339,0.0,0.0
2912,727.75,31.4975,31.1238,137.002,100.38,101.424,0.00534869,0.181184,20.8468,745.959,-0.0920965,0.0,0.0
2944,735.75,32.4812,32.5865,142.487,100.377,101.964,0.00549474,0.189097,20.835,745.379,-0.139476,0.0,0.0
2976,743.75,33.3406,33.6443,135.154,100.381,100.914,0.00603207,0.194919,20.83,744.758,-0.0471092,0.0,0.0
3008,751.75,34.3954,34.825,136.062,100.364,101.602,0.0062428,0.196877,20.8294,744.098,-0.109059,0.0,0.0
3040,759.75,34.499,35.3955,139.486,100.335,101.401,0.00648272,0.19715,20.8312,743.437,-0.0939908,0.0,0.0
3072,767.75,35.2499,35.9163,136.921,100.332,100.995,0.00667974,0.196082,20.8325,742.807,-0.0585624,0.0,0.0
3104,775.75,35.4293,36.0385,139.032,100.291,102.455,0.00653319,0.196354,20.8312,742.176,-0.189872,0.0,0.0
3136,783.75,35.5828,36.345,137.458,100.237,102.083,0.0060059,0.19491,20.8324,741.545,-0.162297,0.0,0.0
3168,791.75,35.7673,36.964,134.917,100.186,101.711,0.00590648,0.191859,20.8348,740.925,-0.134369,0.0,0.0
3200,799.75,36.0723,36.78,139.445,100.168,102.622,0.00596012,0.18961,20.8373,740.314,-0.215248,0.0,0.0
3232,807.75,35.9551,37.2504,137.552,100.175,103.486,0.00581246,0.186085,20.8408,739.704,-0.28928,0.0,0.0
3264,815.75,35.7945,37.2158,137.387,100.156,102.446,0.00535241,0.180395,20.8463,739.123,-0.201122,0.0,0.0
3296,823.75,35.8756,37.255,138.736,100.133,103.081,0.00561744,0.173757,20.8525,738.593,-0.258103,0.0,0.0
3328,831.75,35.4772,37.3276,137.486,100.106,103.027,0.00603962,0.16828,20.8603,738.002,-0.255843,0.0,0.0
3360,839.75,35.3921,36.8335,140.217,100.094,102.78,0.00596155,0.161375,20.8663,737.482,-0.235524,0.0,0.0
3392,847.75,35.1617,36.7428,141.651,100.049,104.02,0.00548683,0.159614,20.8677,737.011,-0.3462,0.0,0.0
3424,855.75,35.1737,36.7533,142.444,100.034,104.603,0.00521775,0.155186,20.8697,736.571,-0.397252,0.0,0.0
3456,863.75,35.0258,36.6387,136.708,99.9878,104.323,0.00419006,0.152174,20.8745,736.111,-0.377538,0.0,0.0
3488,871.75,34.5939,36.1234,139.465,99.9481,104.751,0.00420879,0.149482,20.8761,735.66,-0.41748,0.0,0.0
3520,879.75,34.328,36.3619,137.33,99.9569,104.792,0.00405457,0.146491,20.8788,735.2,-0.420125,0.0,0.0
3552,887.75,34.1156,36.1828,139.941,99.9625,104.846,0.00381036,0.143018,20.8827,734.849,-0.424235,0.0,0.0
3584,895.75,34.2072,35.7237,141.674,99.9637,104.583,0.00354822,0.140266,20.8879,734.379,-0.401817,0.0,0.0
3616,903.75,33.7773,35.7401,140.534,99.9625,104.436,0.00335274,0.138472,20.8902,733.949,-0.389389,0.0,0.0
3648,911.75,33.4042,35.5419,142.44,99.9569,104.266,0.00333836,0.135113,20.8935,733.568,-0.375384,0.0,0.0
3680,919.75,33.6213,35.6745,141.069,99.9734,105.64,0.00310601,0.132214,20.8957,733.228,-0.490365,0.0,0.0
3712,927.75,33.3127,35.7102,141.248,100.019,104.484,0.00312882,0.131793,20.8972,732.898,-0.38845,0.0,0.0
3744,935.75,32.9922,34.7461,139.267,100.064,105.635,0.00290746,0.129373,20.8967,732.537,-0.481963,0.0,0.0
3776,943.75,33.2108,34.6161,143.332,100.08,104.608,0.00263219,0.127137,20.899,732.207,-0.393571,0.0,0.0
3808,951.75,32.9144,34.2269,144.34,100.13,105.73,0.0024447,0.125319,20.9027,731.867,-0.483982,0.0,0.0
3840,959.75,32.6105,34.0346,144.485,100.196,104.623,0.00241912,0.123333,20.9021,731.516,-0.384613,0.0,0.0
3872,967.75,32.5771,33.9111,137.049,100.255,104.733,0.00254971,0.122383,20.9044,731.196,-0.388619,0.0,0.0
3904,975.75,32.5821,34.1055,142.699,100.295,105.442,0.00269143,0.122008,20.905,730.856,-0.445106,0.0,0.0
3936,983.75,32.5082,33.9249,140.255,100.328,104.891,0.00240242,0.122114,20.9045,730.526,-0.395632,0.0,0.0
3968,991.75,32.3735,33.4206,136.865,100.373,104.666,0.00273978,0.11999,20.907,730.235,-0.372517,0.0,0.0
4000,999.75,32.0704,33.6336,140.486,100.379,105.355,0.00233569,0.119202,20.9063,729.925,-0.430324,0.0,0.0
4032,1007.75,32.0862,33.3983,144.691,100.355,104.98,0.00229436,0.119934,20.9077,729.635,-0.400748,0.0,0.0
4064,1015.75,31.6417,33.7752,143.781,100.316,105.203,0.00265954,0.119554,20.9074,729.315,-0.423084,0.0,0.0
4096,1023.75,31.5979,33.1797,144.395,100.246,104.466,0.00242216,0.119622,20.9066,729.024,-0.366683,0.0,0.0
4128,1031.75,31.7817,33.4595,143.287,100.156,104.213,0.00231154,0.120157,20.9068,728.734,-0.353181,0.0,0.0
4160,1039.75,31.7283,32.919,138.115,100.036,105.204,0.00245063,0.120576,20.9068,728.454,-0.448089,0.0,0.0
4192,1047.75,32.054,32.7719,145.348,99.8839,105.091,0.00254715,0.120365,20.9067,728.143,-0.452007,0.0,0.0
4224,1055.75,31.8078,32.9547,140.767,99.6974,104.16,0.00235863,0.120459,20.9049,727.803,-0.389498,0.0,0.0
4256,1063.75,31.9206,32.9306,142.788,99.4897,104.325,0.00228714,0.12072,20.9048,727.493,-0.422113,0.0,0.0
4288,1071.75,31.8822,32.9823,139.327,99.2659,104.134,0.00203632,0.121681,20.9029,727.223,-0.425819,0.0,0.0
4320,1079.75,31.7673,33.3008,142.603,99.0537,104.243,0.00239215,0.122418,20.9058,726.942,-0.454128,0.0,0.0
4352,1087.75,32.0545,32.8612,139.078,98.8331,103.166,0.00230831,0.12316,20.9063,726.652,-0.381644,0.0,0.0
4384,1095.75,31.8126,32.9519,142.49,98.6819,102.832,0.0021329,0.123016,20.906,726.342,-0.366374,0.0,0.0
4416,1103.75,31.9569,33.1984,140.429,98.584,102.739,0.00232079,0.124702,20.9024,726.052,-0.367195,0.0,0.0
4448,1111.75,31.8434,33.0203,141.379,98.58,102.683,0.00215178,0.123875,20.9015,725.771,-0.362697,0.0,0.0
4480,1119.75,31.8734,33.363,143.494,98.6638,103.337,0.00182303,0.122773,20.9033,725.431,-0.411626,0.0,0.0
4512,1127.75,32.1381,32.8484,141.342,98.8163,103.223,0.0018254,0.124169,20.9015,725.081,-0.388076,0.0,0.0
4544,1135.75,31.9164,33.1233,143.805,99.0697,104.338,0.00206189,0.125164,20.9017,724.79,-0.460844,0.0,0.0
4576,1143.75,32.2822,33.1143,142.702,99.3208,103.791,0.00219544,0.124391,20.9007,724.56,-0.391548,0.0,0.0
4608,1151.75,32.0628,33.5597,142.582,99.5691,104.593,0.00198678,0.124313,20.9,724.24,-0.437841,0.0,0.0
4640,1159.75,32.0995,33.1814,141.381,99.7455,103.876,0.00192491,0.12422,20.9027,723.94,-0.360862,0.0,0.0
4672,1167.75,32.1396,32.8229,141.917,99.8125,104.273,0.00176364,0.123887,20.9023,723.629,-0.388854,0.0,0.0
4704,1175.75,32.3005,33.0468,139.93,99.7949,104.823,0.00202557,0.124584,20.9034,723.319,-0.437184,0.0,0.0
4736,1183.75,31.9059,33.1626,142.423,99.7038,104.177,0.00186301,0.124271,20.9027,723.009,-0.390383,0.0,0.0
4768,1191.75,31.9883,33.5514,136.847,99.5675,104.365,0.00208383,0.12497,20.9005,722.729,-0.418528,0.0,0.0
4800,1199.75,32.4028,33.4167,142.625,99.403,104.15,0.00221451,0.125404,20.8985,722.388,-0.414881,0.0,0.0
4832,1207.75,32.056,33.2357,141.013,99.302,103.62,0.00272855,0.126435,20.8963,722.098,-0.378602,0.0,0.0
4864,1215.75,32.2005,33.365,141.868,99.2314,104.074,0.00258113,0.126402,20.8986,721.818,-0.42377,0.0,0.0
4896,1223.75,32.0082,33.5232,140.374,99.1668,103.97,0.00254699,0.127623,20.8971,721.538,-0.420691,0.0,0.0
4928,1231.75,32.2244,33.2295,140.462,99.3505,103.889,0.00268592,0.127957,20.896,721.277,-0.397275,0.0,0.0
4960,1239.75,32.4576,33.1647,141.302,99.6381,103.696,0.00238195,0.127596,20.8959,720.937,-0.355099,0.0,0.0
4992,1247.75,32.1885,33.3935,144.131,99.8647,104.113,0.00234375,0.126723,20.8968,720.627,-0.370562,0.0,0.0
5024,1255.75,32.2573,33.1238,144.573,99.977,104.761,0.00227712,0.127285,20.8968,720.346,-0.415711,0.0,0.0
5056,1263.75,32.2882,32.7606,146.206,99.9938,104.207,0.00219199,0.127045,20.8964,720.076,-0.36712,0.0,0.0
5088,1271.75,31.8189,33.3445,143.441,99.9433,104.752,0.00237059,0.125832,20.8957,719.736,-0.417985,0.0,0.0
5120,1279.75,32.1528,33.4885,138.965,99.841,104.657,0.00208054,0.126478,20.8955,719.396,-0.419004,0.0,0.0
5152,1287.75,31.6121,32.795,142.744,99.6697,103.882,0.00211383,0.126751,20.8964,719.085,-0.368163,0.0,0.0
5184,1295.75,31.9574,32.9444,143.132,99.5426,104.644,0.00238492,0.126895,20.8992,718.825,-0.444521,0.0,0.0
5216,1303.75,32.7583,33.1373,140.135,99.6549,103.651,0.00223442,0.126375,20.8971,718.535,-0.349666,0.0,0.0
5248,1311.75,31.6911,32.5084,139.532,99.8021,104.798,0.00238033,0.126263,20.8974,718.245,-0.434445,0.0,0.0
5280,1319.75,31.9383,33.5193,143.283,99.9509,104.655,0.00226335,0.125714,20.898,717.924,-0.409029,0.0,0.0
5312,1327.75,32.5134,33.4398,142.242,100.117,105.042,0.00235586,0.126526,20.8981,717.634,-0.427138,0.0,0.0
5344,1335.75,32.0821,33.1021,141.832,100.269,105.244,0.00246834,0.126274,20.8964,717.334,-0.430663,0.0,0.0
5376,1343.75,31.9466,32.7382,138.871,100.343,105.289,0.00239477,0.12586,20.8977,717.023,-0.427951,0.0,0.0
5408,1351.75,32.1246,32.9671,141.073,100.383,104.992,0.00237186,0.126136,20.8977,716.673,-0.399325,0.0,0.0
5440,1359.75,31.4376,32.2551,140.636,100.401,104.507,0.00254101,0.126815,20.8967,716.393,-0.356475,0.0,0.0
5472,1367.75,31.2677,32.7293,147.819,100.325,105.211,0.00260459,0.126282,20.8967,716.113,-0.422984,0.0,0.0
5504,1375.75,32.1297,32.7091,138.253,100.2,105.128,0.00258007,0.126401,20.8956,715.862,-0.427062,0.0,0.0
5536,1383.75,31.8462,33.2604,145.263,100.03,104.911,0.00267724,0.125396,20.8973,715.522,-0.423761,0.0,0.0
5568,1391.75,31.6589,32.8448,139.243,99.7844,104.267,0.00245566,0.125041,20.8972,715.252,-0.390858,0.0,0.0
5600,1399.75,31.5109,33.2413,141.655,99.5209,104.237,0.00255066,0.125328,20.9003,714.932,-0.41181,0.0,0.0
5632,1407.75,31.8603,32.8445,144.074,99.1985,103.708,0.00234954,0.125188,20.8998,714.641,-0.395388,0.0,0.0
5664,1415.75,31.787,32.7486,141.899,98.8664,103.611,0.00245352,0.124841,20.9018,714.301,-0.416892,0.0,0.0
5696,1423.75,32.4585,32.0973,139.835,98.6398,103.908,0.00242384,0.123951,20.9013,714.021,-0.462744,0.0,0.0
5728,1431.75,32.1351,32.2931,141.519,98.631,103.106,0.00250856,0.124157,20.9006,713.721,-0.394666,0.0,0.0
5760,1439.75,32.0917,32.2241,142.558,98.781,102.971,0.0027427,0.123741,20.8995,713.44,-0.369521,0.0,0.0
5792,1447.75,31.7813,32.8046,142.126,99.0477,103.656,0.00298086,0.123079,20.9025,713.15,-0.404451,0.0,0.0
5824,1455.75,31.4879,32.7342,141.041,99.3048,104.323,0.00297183,0.122332,20.9023,712.85,-0.438466,0.0,0.0
5856,1463.75,31.3908,32.8929,139.188,99.4897,104.181,0.00304596,0.122579,20.9014,712.569,-0.409854,0.0,0.0
5888,1471.75,32.1852,32.8096,141.622,99.6248,104.905,0.0028754,0.122691,20.9005,712.249,-0.459361,0.0,0.0
5920,1479.75,32.3393,32.9847,144.456,99.7215,104.417,0.00292493,0.121914,20.9024,711.949,-0.409257,0.0,0.0
5952,1487.75,31.7634,32.6122,143.157,99.78,104.775,0.00300541,0.122453,20.902,711.639,-0.434467,0.0,0.0
5984,1495.75,31.2004,32.8095,142.245,99.8097,104.906,0.00334522,0.120891,20.903,711.318,-0.442907,0.0,0.0
6016,1503.75,31.2322,32.9496,142.088,99.8334,103.913,0.00316693,0.121148,20.9028,711.008,-0.356263,0.0,0.0
6048,1511.75,31.4884,32.9031,139.341,99.7921,104.888,0.00339684,0.12068,20.9046,710.768,-0.442995,0.0,0.0
6080,1519.75,31.7157,32.5993,141.651,99.7122,104.37,0.00362729,0.119832,20.9042,710.488,-0.406024,0.0,0.0
6112,1527.75,31.5517,32.7483,143.852,99.6272,104.569,0.00325024,0.119215,20.9055,710.187,-0.430624,0.0,0.0
6144,1535.75,31.3211,32.2621,140.783,99.543,104.794,0.00335727,0.120987,20.9045,709.887,-0.457222,0.0,0.0
6176,1543.75,31.2368,32.6218,144.318,99.4419,103.898,0.0031935,0.120456,20.9044,709.617,-0.389899,0.0,0.0
6208,1551.75,30.9442,32.3206,141.342,99.3376,103.83,0.00324084,0.119428,20.9066,709.327,-0.393425,0.0,0.0
6240,1559.75,31.464,32.4064,138.29,99.2586,104.273,0.00343766,0.119107,20.9042,709.026,-0.438348,0.0,0.0
6272,1567.75,31.2125,32.5765,142.946,99.1913,104.162,0.00343013,0.118799,20.9038,708.706,-0.434884,0.0,0.0
6304,1575.75,30.8069,32.2136,143.72,99.2743,103.562,0.00327714,0.118014,20.904,708.416,-0.376069,0.0,0.0
6336,1583.75,31.2536,32.2413,142.313,99.5189,104.375,0.00314019,0.117648,20.9055,708.176,-0.423744,0.0,0.0
6368,1591.75,31.1429,32.3565,141.803,99.7848,104.799,0.00358994,0.115748,20.9073,707.895,-0.436058,0.0,0.0
6400,1599.75,31.0964,32.1565,138.995,99.9573,104.599,0.00363143,0.114357,20.9087,707.635,-0.403763,0.0,0.0
6432,1607.75,31.0328,32.0869,146.474,99.985,104.755,0.00368406,0.113764,20.9121,707.355,-0.414502,0.0,0.0
6464,1615.75,30.6133,31.8878,141.587,99.9653,104.225,0.00414226,0.112231,20.9134,707.075,-0.371148,0.0,0.0
6496,1623.75,30.7797,31.7935,140.016,99.8739,104.471,0.00427327,0.114567,20.9126,706.794,-0.4003,0.0,0.0
6528,1631.75,30.8783,31.91,143.656,99.7331,105.013,0.00410649,0.11393,20.9119,706.524,-0.458868,0.0,0.0
6560,1639.75,30.5578,31.5552,138.25,99.5703,104.49,0.00409077,0.113498,20.9123,706.204,-0.428947,0.0,0.0
6592,1647.75,30.5686,31.6895,141.517,99.5767,104.564,0.00454528,0.112475,20.9122,705.924,-0.43464,0.0,0.0
6624,1655.75,30.2451,31.5667,141.903,99.6352,104.698,0.00385851,0.112982,20.9121,705.673,-0.440863,0.0,0.0
6656,1663.75,30.5859,31.5531,141.326,99.7006,105.262,0.00426166,0.112051,20.9131,705.443,-0.482773,0.0,0.0
6688,1671.75,30.7907,31.5711,141.058,99.776,104.428,0.00399328,0.111298,20.9153,705.163,-0.405349,0.0,0.0
6720,1679.75,30.224,30.9987,144.664,99.8418,103.917,0.00413897,0.109443,20.9172,704.893,-0.35582,0.0,0.0
6752,1687.75,30.9863,31.7154,143.07,99.9108,104.947,0.00440067,0.108688,20.9199,704.642,-0.437369,0.0,0.0
6784,1695.75,30.6335,31.4863,140.878,99.985,105.189,0.00436897,0.107136,20.9204,704.382,-0.451331,0.0,0.0
6816,1703.75,30.047,31.2362,146.527,100.023,105.18,0.00461522,0.106336,20.9232,704.122,-0.447106,0.0,0.0
6848,1711.75,30.3027,31.0563,144.383,100.014,104.471,0.00484575,0.106436,20.9222,703.842,-0.387731,0.0,0.0
6880,1719.75,30.056,31.3221,144.599,99.995,105.065,0.00507407,0.108695,20.9192,703.551,-0.439915,0.0,0.0
6912,1727.75,29.9672,31.0104,140.495,99.999,104.376,0.00505438,0.109143,20.9195,703.321,-0.381017,0.0,0.0
6944,1735.75,30.3521,30.6641,139.756,100.015,104.637,0.00544166,0.108441,20.9206,703.071,-0.401832,0.0,0.0
6976,1743.75,29.9838,30.8582,146.427,100.031,104.876,0.00545474,0.107084,20.9194,702.781,-0.420687,0.0,0.0
7008,1751.75,29.8357,31.0463,144.813,100.049,104.506,0.00514244,0.109138,20.9165,702.521,-0.38761,0.0,0.0
7040,1759.75,30.0809,30.7789,142.087,100.091,105.114,0.0052946,0.107379,20.9201,702.28,-0.4355,0.0,0.0
7072,1767.75,30.085,31.0392,146.11,100.14,104.669,0.0051481,0.105763,20.9188,702.01,-0.393382,0.0,0.0
7104,1775.75,29.6778,30.5826,140.871,100.181,105.303,0.0050778,0.104575,20.9194,701.77,-0.443499,0.0,0.0
7136,1783.75,29.5493,30.8281,141.96,100.232,104.941,0.00478852,0.10546,20.9194,701.51,-0.408359,0.0,0.0
7168,1791.75,29.5104,30.156,142.803,100.284,104.814,0.00476363,0.104435,20.9208,701.219,-0.392919,0.0,0.0
7200,1799.75,29.9057,30.5133,148.386,100.35,105.295,0.00489534,0.102171,20.9231,700.949,-0.427914,0.0,0.0
7232,1807.75,29.821,30.8297,143.165,100.393,104.976,0.00488306,0.102482,20.9233,700.679,-0.396993,0.0,0.0
7264,1815.75,29.3669,30.4439,141.66,100.425,104.66,0.00519881,0.101686,20.9248,700.439,-0.367363,0.0,0.0
7296,1823.75,29.1534,30.3286,144.658,100.338,104.777,0.0052294,0.101746,20.9254,700.228,-0.38503,0.0,0.0
7328,1831.75,29.183,30.7214,137.873,100.217,104.72,0.00471974,0.100738,20.9264,699.968,-0.390932,0.0,0.0
7360,1839.75,29.2608,30.7299,141.444,100.09,104.815,0.00481801,0.10065,20.927,699.738,-0.410302,0.0,0.0
7392,1847.75,29.2827,30.126,144.376,99.9076,104.736,0.00508411,0.0988559,20.9277,699.498,-0.419788,0.0,0.0
7424,1855.75,28.9743,30.2312,145.665,99.7487,104.762,0.00531297,0.0992651,20.9278,699.227,-0.436189,0.0,0.0
7456,1863.75,28.9681,29.9912,141.466,99.6112,104.23,0.00535975,0.0983493,20.9289,698.987,-0.403174,0.0,0.0
7488,1871.75,28.9226,30.0649,140.05,99.5133,103.689,0.00514024,0.0964494,20.9308,698.697,-0.365624,0.0,0.0
7520,1879.75,28.8281,29.8619,145.049,99.4427,104.571,0.00499616,0.0983944,20.9303,698.477,-0.447224,0.0,0.0
7552,1887.75,28.7855,29.7364,144.118,99.4098,103.715,0.00549204,0.0985931,20.9278,698.227,-0.377073,0.0,0.0
7584,1895.75,28.8606,29.8386,148.081,99.3505,104.039,0.00567873,0.0983653,20.9295,697.996,-0.410144,0.0,0.0
7616,1903.75,29.0537,29.8625,144.776,99.3316,104.256,0.00539791,0.0988682,20.9287,697.766,-0.430392,0.0,0.0
7648,1911.75,28.9152,29.3982,143.412,99.3445,103.688,0.0055896,0.0972776,20.9284,697.516,-0.380652,0.0,0.0
7680,1919.75,28.2621,29.5846,144.249,99.3826,104.374,0.00546673,0.0967318,20.9307,697.256,-0.435825,0.0,0.0
7712,1927.75,28.4409,29.5234,143.543,99.4367,103.723,0.0053153,0.0961499,20.9321,697.005,-0.375401,0.0,0.0
7744,1935.75,28.6462,29.6485,144.209,99.5205,104.755,0.00513121,0.0954215,20.9356,696.755,-0.455913,0.0,0.0
7776,1943.75,28.8403,29.4728,142.591,99.6509,103.934,0.00554795,0.0947772,20.9341,696.535,-0.374342,0.0,0.0
7808,1951.75,28.4514,29.321,143.48,99.7752,103.86,0.00553696,0.0931516,20.9364,696.235,-0.356909,0.0,0.0
7840,1959.75,28.8287,29.7283,146.617,99.9184,103.958,0.00497766,0.0953303,20.9366,696.035,-0.352495,0.0,0.0
7872,1967.75,28.3812,29.6449,139.142,100.039,105.121,0.00518065,0.092515,20.9385,695.814,-0.440777,0.0,0.0
7904,1975.75,27.9494,29.2859,145.935,100.147,104.512,0.00574642,0.0899128,20.9389,695.564,-0.379523,0.0,0.0
7936,1983.75,28.202,29.0552,139.828,100.229,104.86,0.00560435,0.0883082,20.9403,695.324,-0.401755,0.0,0.0
7968,1991.75,28.3881,28.8623,145.202,100.263,104.879,0.00568418,0.0884871,20.9393,695.104,-0.400363,0.0,0.0
8000,1999.75,28.0293,28.8903,142.735,100.291,105.238,0.00552341,0.0881851,20.9399,694.864,-0.428285,0.0,0.0
8032,2007.75,27.9061,28.8547,145.725,100.293,105.064,0.00557482,0.0875443,20.9392,694.613,-0.413334,0.0,0.0
8064,2015.75,27.6866,28.6687,142.88,100.281,104.652,0.00548735,0.0877512,20.9392,694.323,-0.379478,0.0,0.0
8096,2023.75,27.5654,28.8376,142.495,100.291,105.123,0.00553054,0.0889491,20.9389,694.093,-0.418528,0.0,0.0
8128,2031.75,28.0573,28.6752,150.391,100.338,104.224,0.0056523,0.0875872,20.9425,693.873,-0.338017,0.0,0.0
8160,2039.75,27.6311,28.7023,144.122,100.368,104.834,0.00563561,0.0873439,20.9434,693.672,-0.38724,0.0,0.0
8192,2047.75,27.1503,28.367,142.582,100.391,104.496,0.00577532,0.0869368,20.9454,693.442,-0.356445,0.0,0.0
8224,2055.75,27.6942,28.6672,144.569,100.417,105.291,0.00579429,0.0877298,20.9428,693.202,-0.421638,0.0,0.0
8256,2063.75,27.9065,28.6317,142.435,100.42,105.181,0.00560603,0.089145,20.9409,692.992,-0.411982,0.0,0.0
8288,2071.75,27.264,28.7842,145.053,100.427,104.785,0.00527554,0.087374,20.9421,692.752,-0.377899,0.0,0.0
8320,2079.75,27.5094,28.5263,143.566,100.404,104.635,0.00540018,0.0877387,20.942,692.501,-0.367184,0.0,0.0
8352,2087.75,27.454,28.1749,147.105,100.397,104.934,0.00552942,0.0873544,20.9433,692.271,-0.393099,0.0,0.0
8384,2095.75,27.5073,28.5621,140.65,100.384,105.106,0.00553263,0.08756,20.942,692.001,-0.408839,0.0,0.0
8416,2103.75,27.5289,28.3601,143.428,100.368,104.19,0.0054852,0.0863626,20.9427,691.781,-0.332329,0.0,0.0
8448,2111.75,27.6161,28.7085,142.206,100.36,104.529,0.00568704,0.0870674,20.9448,691.571,-0.362043,0.0,0.0
8480,2119.75,27.3947,28.1293,143.351,100.345,104.025,0.00558811,0.0858708,20.9438,691.35,-0.320347,0.0,0.0
8512,2127.75,27.459,28.2826,144.181,100.307,104.39,0.00617571,0.0838144,20.9463,691.13,-0.354813,0.0,0.0
8544,2135.75,27.3523,28.1383,142.164,100.289,103.952,0.00620995,0.0835147,20.9471,690.89,-0.31903,0.0,0.0
8576,2143.75,27.3038,27.9312,146.219,100.279,104.246,0.00612845,0.0835321,20.9455,690.66,-0.345122,0.0,0.0
8608,2151.75,26.8861,27.7223,141.169,100.287,104.511,0.00632809,0.0831596,20.9465,690.45,-0.366989,0.0,0.0
8640,2159.75,27.2656,28.0713,142.212,100.277,104.456,0.00642038,0.0833434,20.9487,690.199,-0.36314,0.0,0.0
8672,2167.75,26.9582,27.9772,142.27,100.28,104.192,0.00638089,0.0834008,20.9497,689.949,-0.340343,0.0,0.0
8704,2175.75,27.0698,27.5567,145.187,100.257,104.018,0.00620063,0.0835226,20.9502,689.699,-0.327599,0.0,0.0
8736,2183.75,27.4401,27.239,145.749,100.232,104.506,0.00644175,0.0836879,20.9468,689.489,-0.371404,0.0,0.0
8768,2191.75,27.0067,28.0469,142.609,100.204,105.11,0.00639108,0.0843266,20.9465,689.299,-0.425111,0.0,0.0
8800,2199.75,27.0189,27.7915,141.051,100.173,104.331,0.00644783,0.0843102,20.9469,689.058,-0.361718,0.0,0.0
8832,2207.75,27.1087,27.727,144.36,100.142,103.715,0.00579484,0.0861621,20.9444,688.828,-0.311826,0.0,0.0
8864,2215.75,27.234,27.4351,143.53,100.108,104.641,0.00629961,0.0853544,20.9442,688.608,-0.393866,0.0,0.0
8896,2223.75,27.0061,27.7923,146.155,100.068,104.247,0.00579654,0.0857131,20.9448,688.368,-0.363857,0.0,0.0
8928,2231.75,27.1052,27.9851,143.557,100.041,104.877,0.00608544,0.0865526,20.9429,688.178,-0.419872,0.0,0.0
8960,2239.75,27.3174,27.6259,144.859,100.009,104.282,0.0065219,0.0859309,20.9428,687.927,-0.372127,0.0,0.0
8992,2247.75,26.6314,28.0875,142.422,99.9902,104.463,0.00635805,0.0862522,20.9442,687.677,-0.38926,0.0,0.0
9024,2255.75,27.1246,27.6205,142.717,99.9549,104.106,0.00617249,0.0861257,20.944,687.457,-0.361954,0.0,0.0
9056,2263.75,27.1907,27.7818,145.644,99.9409,104.239,0.00584675,0.0868824,20.9422,687.247,-0.374551,0.0,0.0
9088,2271.75,27.3929,27.5804,140.172,99.924,104.557,0.00564198,0.087782,20.942,687.027,-0.403097,0.0,0.0
9120,2279.75,27.1992,27.9082,141.627,99.9288,104.162,0.00593305,0.0870309,20.9436,686.796,-0.368992,0.0,0.0
9152,2287.75,27.2735,27.7951,146.66,99.9481,104.035,0.00585453,0.0872668,20.9428,686.566,-0.356459,0.0,0.0
9184,2295.75,27.0437,27.7981,143.501,99.9361,103.644,0.00555448,0.0869492,20.945,686.346,-0.324068,0.0,0.0
9216,2303.75,26.9292,28.1976,143.759,99.9264,103.693,0.00584204,0.0876414,20.9464,686.116,-0.329124,0.0,0.0
9248,2311.75,27.1845,27.7998,143.941,99.9409,104.45,0.00609219,0.0866247,20.9468,685.906,-0.392502,0.0,0.0
9280,2319.75,27.076,27.782,145.013,99.9369,104.75,0.00670797,0.0859021,20.9455,685.675,-0.418402,0.0,0.0
9312,2327.75,26.9598,27.5631,146.377,99.9477,103.866,0.00646916,0.0890346,20.9396,685.395,-0.342011,0.0,0.0
9344,2335.75,27.349,27.9446,144.234,99.9593,104.228,0.00652809,0.0916451,20.9347,685.155,-0.371951,0.0,0.0
9376,2343.75,27.6076,28.0444,141.593,99.983,104.849,0.00661642,0.0921976,20.9348,684.965,-0.422644,0.0,0.0
9408,2351.75,26.7899,27.9571,145.639,100.01,104.459,0.00674368,0.0907707,20.9377,684.795,-0.387095,0.0,0.0
9440,2359.75,27.3025,28.093,138.45,100.059,104.361,0.00663064,0.0905326,20.939,684.534,-0.37444,0.0,0.0
9472,2367.75,27.5105,27.5664,140.69,100.102,104.644,0.00620135,0.0921113,20.9373,684.284,-0.394668,0.0,0.0
9504,2375.75,27.7939,28.2789,148.071,100.134,105.03,0.00617087,0.0929294,20.9359,684.034,-0.424542,0.0,0.0
9536,2383.75,27.6402,28.1359,141.495,100.171,104.127,0.00649718,0.091332,20.9369,683.824,-0.344467,0.0,0.0
9568,2391.75,27.9561,28.574,139.09,100.188,104.441,0.00613624,0.0917764,20.9381,683.573,-0.369703,0.0,0.0
9600,2399.75,27.5132,28.2855,140.423,100.207,104.815,0.00594157,0.0909491,20.9388,683.333,-0.399827,0.0,0.0
9632,2407.75,27.1488,28.015,143.303,100.23,104.176,0.00626165,0.0916175,20.9372,683.083,-0.343446,0.0,0.0
9664,2415.75,27.653,28.1986,145.254,100.281,105,0.00592325,0.0921098,20.9374,682.883,-0.409038,0.0,0.0
9696,2423.75,27.7965,28.1532,142.659,100.335,104.942,0.00569324,0.0932632,20.9369,682.653,-0.399254,0.0,0.0
9728,2431.75,27.6548,28.3152,142.509,100.357,104.558,0.00578268,0.0942029,20.935,682.392,-0.364775,0.0,0.0
9760,2439.75,27.7113,28.4774,141.232,100.39,104.737,0.00570266,0.0941292,20.9345,682.162,-0.376979,0.0,0.0
9792,2447.75,27.4166,28.0212,142.45,100.417,104.456,0.00536785,0.0943169,20.9357,681.922,-0.350805,0.0,0.0
9824,2455.75,27.6469,28.2952,145.773,100.421,104.496,0.00545997,0.0949565,20.935,681.692,-0.353779,0.0,0.0
9856,2463.75,28.2051,29.0327,142.965,100.413,105.031,0.00527593,0.094166,20.9362,681.442,-0.399856,0.0,0.0
9888,2471.75,28.2054,28.3383,146.97,100.414,105.195,0.00486196,0.0951577,20.9347,681.161,-0.413729,0.0,0.0
9920,2479.75,27.7302,28.3679,147.362,100.411,105.718,0.00542376,0.0946704,20.934,680.971,-0.45817,0.0,0.0
9952,2487.75,27.7352,28.4862,142.68,100.434,104.414,0.00520435,0.0944875,20.9348,680.761,-0.345609,0.0,0.0
9984,2495.75,27.9698,28.6602,140.631,100.419,105.344,0.00570769,0.0964423,20.9328,680.511,-0.425859,0.0,0.0
10016,2503.75,27.9114,28.5671,143.792,100.428,104.876,0.00592341,0.0969797,20.9311,680.25,-0.385451,0.0,0.0
10048,2511.75,27.7587,29.1846,138.353,100.422,105.332,0.00585031,0.0970392,20.9346,680,-0.424592,0.0,0.0
10080,2519.75,27.5307,28.7093,140.761,100.423,105.143,0.00543737,0.0987756,20.9328,679.8,-0.408544,0.0,0.0
10112,2527.75,28.2172,28.8199,137.258,100.443,105.075,0.00581025,0.0975899,20.9318,679.54,-0.400995,0.0,0.0
10144,2535.75,28.5657,29.2059,144.069,100.428,104.61,0.00552393,0.0986832,20.9283,679.3,-0.362841,0.0,0.0
10176,2543.75,28.4115,28.9567,141.442,100.414,105.535,0.00519889,0.098989,20.9281,679.019,-0.442385,0.0,0.0
10208,2551.75,28.3714,29.0977,144.8,100.399,104.898,0.00514974,0.0984601,20.9299,678.759,-0.389837,0.0,0.0
10240,2559.75,28.2336,29.2439,141.439,100.419,105.673,0.00480216,0.0981489,20.9297,678.539,-0.453643,0.0,0.0
10272,2567.75,28.336,28.7876,145.243,100.413,105.626,0.00529249,0.0986127,20.9293,678.319,-0.450207,0.0,0.0
10304,2575.75,28.3991,28.7827,143.525,100.426,105.362,0.00539268,0.0972626,20.9311,678.059,-0.426738,0.0,0.0
10336,2583.75,28.3901,29.1557,144.843,100.427,105.137,0.00506728,0.098107,20.931,677.828,-0.40773,0.0,0.0
10368,2591.75,27.991,29.16,141.556,100.394,104.602,0.00509535,0.0972914,20.9328,677.588,-0.365138,0.0,0.0
10400,2599.75,27.9618,28.8847,138.231,100.399,105.278,0.00530957,0.098618,20.9293,677.348,-0.422027,0.0,0.0
10432,2607.75,27.967,29.1269,141.956,100.399,105.529,0.00531611,0.0976412,20.9301,677.088,-0.443244,0.0,0.0
10464,2615.75,27.8632,29.1803,140.597,100.37,104.224,0.00553787,0.0961066,20.9321,676.837,-0.335138,0.0,0.0
10496,2623.75,28.5897,29.1725,146.219,100.339,105.525,0.00521239,0.0980894,20.9316,676.547,-0.448198,0.0,0.0
10528,2631.75,28.1736,28.9076,141.566,100.322,105.457,0.00568239,0.0973336,20.9325,676.287,-0.443973,0.0,0.0
10560,2639.75,28.4241,29.0538,143.431,100.284,104.941,0.00559497,0.0982613,20.9325,676.077,-0.403768,0.0,0.0
10592,2647.75,28.1426,29.0261,141.91,100.239,105.101,0.00540861,0.0985534,20.929,675.826,-0.421329,0.0,0.0
10624,2655.75,28.2208,28.8174,141.233,100.194,104.787,0.00510638,0.0979522,20.931,675.576,-0.398712,0.0,0.0
10656,2663.75,28.0116,29.4327,140.159,100.146,105.24,0.00549618,0.0980768,20.9297,675.316,-0.441289,0.0,0.0
10688,2671.75,28.3365,29.4977,140.668,100.113,104.532,0.00512638,0.0994574,20.9293,675.066,-0.384195,0.0,0.0
10720,2679.75,28.4047,29.1733,141.394,100.102,104.819,0.00531657,0.100468,20.9287,674.826,-0.409504,0.0,0.0
10752,2687.75,28.6141,29.0641,142.092,100.081,104.845,0.00493778,0.101048,20.9277,674.555,-0.4136,0.0,0.0
10784,2695.75,28.5647,29.2396,143.24,100.044,104.154,0.00504254,0.102286,20.9262,674.295,-0.358062,0.0,0.0
10816,2703.75,28.1395,29.6872,140.516,100.042,105.153,0.00505046,0.101633,20.9255,673.995,-0.443116,0.0,0.0
10848,2711.75,28.4783,29.1156,148.218,100.023,104.806,0.00521321,0.100706,20.9257,673.745,-0.415455,0.0,0.0
10880,2719.75,28.3866,29.3063,139.839,99.9894,104.99,0.00532489,0.101712,20.9274,673.524,-0.434064,0.0,0.0
10912,2727.75,28.3954,29.2742,144.705,99.9701,104.389,0.00526653,0.102278,20.9275,673.254,-0.384696,0.0,0.0
10944,2735.75,28.4349,29.5039,143.045,99.9108,104.154,0.00507129,0.103198,20.9275,672.994,-0.369907,0.0,0.0
10976,2743.75,28.6502,29.7628,140.929,99.8975,104.636,0.00568918,0.103083,20.9278,672.734,-0.412212,0.0,0.0
11008,2751.75,28.3871,29.1513,142.906,99.8771,104.316,0.00543813,0.103825,20.9256,672.453,-0.38674,0.0,0.0
11040,2759.75,28.7091,29.8714,141.54,99.8988,104.964,0.00503963,0.103887,20.9259,672.193,-0.439886,0.0,0.0
11072,2767.75,28.4665,29.4388,142.486,99.8727,105.004,0.00556334,0.104912,20.9233,671.913,-0.445631,0.0,0.0
11104,2775.75,29.1007,29.2894,141.542,99.8759,105.013,0.0052441,0.105372,20.9232,671.603,-0.446068,0.0,0.0
11136,2783.75,28.4726,29.5234,145.165,99.8943,105.126,0.0050372,0.105515,20.9233,671.322,-0.454042,0.0,0.0
11168,2791.75,28.5258,29.6354,144.296,99.9148,104.606,0.00504048,0.106003,20.9245,671.092,-0.408081,0.0,0.0
11200,2799.75,29.0924,29.841,141.864,99.9565,104.869,0.00487411,0.105147,20.9231,670.802,-0.426714,0.0,0.0
11232,2807.75,28.9424,29.9218,142.816,99.9846,104.41,0.00507978,0.106482,20.9226,670.542,-0.385247,0.0,0.0
11264,2815.75,29.049,30.1053,142.119,100.019,105.05,0.00491504,0.107005,20.9245,670.271,-0.436518,0.0,0.0
11296,2823.75,29.1544,29.8893,144.803,100.042,104.423,0.00478387,0.106596,20.925,669.991,-0.381179,0.0,0.0
11328,2831.75,28.5976,29.7827,141.414,100.062,105.688,0.00505882,0.107087,20.9231,669.711,-0.486527,0.0,0.0
11360,2839.75,29.0832,30.0565,140.057,100.084,104.996,0.00519098,0.108501,20.9212,669.441,-0.426069,0.0,0.0
11392,2847.75,29.6721,29.8411,143.599,100.109,105.273,0.00532703,0.107521,20.9222,669.131,-0.447334,0.0,0.0
11424,2855.75,28.7127,29.964,145.708,100.176,104.539,0.00538893,0.109241,20.9188,668.81,-0.379216,0.0,0.0
11456,2863.75,28.8837,30.0609,142.164,100.234,104.607,0.00543053,0.110062,20.9199,668.53,-0.379747,0.0,0.0
11488,2871.75,29.2904,30.0766,139.85,100.26,105.316,0.00529758,0.110459,20.9191,668.28,-0.437551,0.0,0.0
11520,2879.75,29.0522,30.2714,143.41,100.282,105.687,0.00533768,0.110747,20.9179,667.979,-0.466937,0.0,0.0
11552,2887.75,29.2626,30.0743,138.388,100.318,105.673,0.00551203,0.11145,20.9158,667.689,-0.462491,0.0,0.0
11584,2895.75,29.6132,30.4414,140.581,100.343,105.269,0.00532178,0.110785,20.9175,667.379,-0.42628,0.0,0.0
11616,2903.75,29.4957,29.9996,142.257,100.356,106.033,0.00500995,0.112536,20.9166,667.099,-0.489446,0.0,0.0
11648,2911.75,29.8659,30.5913,147.019,100.393,105.417,0.00509444,0.112548,20.9187,666.778,-0.434275,0.0,0.0
11680,2919.75,29.5257,30.4609,138.833,100.407,105.407,0.00497183,0.113168,20.9167,666.448,-0.432198,0.0,0.0
11712,2927.75,29.6662,30.7445,143.938,100.409,105.795,0.00477681,0.114347,20.917,666.138,-0.464696,0.0,0.0
11744,2935.75,29.707,30.9782,142.11,100.411,105.436,0.00475086,0.114699,20.9166,665.838,-0.434375,0.0,0.0
11776,2943.75,29.6621,30.46,143.392,100.411,105.711,0.00521481,0.116265,20.9166,665.567,-0.457565,0.0,0.0
11808,2951.75,29.4243,30.7561,141.921,100.412,106.086,0.00513686,0.117826,20.9118,665.267,-0.48895,0.0,0.0
11840,2959.75,30.1489,30.8742,142.167,100.414,105.698,0.00503936,0.119453,20.9092,664.947,-0.456149,0.0,0.0
11872,2967.75,30.0066,31.3077,140.676,100.398,105.328,0.00464817,0.120258,20.9076,664.626,-0.426382,0.0,0.0
11904,2975.75,30.0336,31.0619,145.754,100.411,106.034,0.00465583,0.119693,20.9088,664.306,-0.484688,0.0,0.0
11936,2983.75,30.459,30.9323,143.132,100.417,105.822,0.00479283,0.121205,20.9087,663.966,-0.466286,0.0,0.0
11968,2991.75,30.1773,30.9025,140.233,100.408,105.528,0.00437651,0.122292,20.9068,663.636,-0.442348,0.0,0.0
12000,2999.75,30.2934,31.3847,142.414,100.402,105.463,0.00422201,0.123873,20.9068,663.285,-0.437468,0.0,0.0
12032,3007.75,30.7618,31.2425,138.823,100.401,106.246,0.0042917,0.123115,20.9076,662.955,-0.503303,0.0,0.0
12064,3015.75,29.9591,31.1396,141.251,100.408,106.224,0.00409428,0.124257,20.9062,662.645,-0.500816,0.0,0.0
12096,3023.75,30.2087,31.1508,140.377,100.395,106.258,0.00388771,0.126306,20.9056,662.304,-0.504811,0.0,0.0
12128,3031.75,30.2728,31.5359,141.603,100.387,105.55,0.00387375,0.127297,20.9045,661.974,-0.446052,0.0,0.0
12160,3039.75,30.6947,31.8443,144.07,100.37,105.845,0.00419196,0.1278,20.9028,661.654,-0.472332,0.0,0.0
12192,3047.75,31.0221,32.2572,140.95,100.355,105.912,0.00391674,0.131392,20.898,661.273,-0.479339,0.0,0.0
12224,3055.75,30.9947,32.0521,143.344,100.326,106.019,0.00388549,0.13243,20.897,660.933,-0.490871,0.0,0.0
12256,3063.75,31.0828,32.1853,138.933,100.304,106.101,0.0040176,0.130771,20.9,660.583,-0.499791,0.0,0.0
12288,3071.75,31.2362,31.9893,141.113,100.281,105.798,0.00336868,0.135007,20.8949,660.202,-0.476374,0.0,0.0
12320,3079.75,31.971,32.6077,140.989,100.246,105.424,0.00317326,0.13982,20.8886,659.832,-0.447895,0.0,0.0
12352,3087.75,32.2568,32.6993,141.104,100.229,105.495,0.00279906,0.141074,20.8867,659.462,-0.455447,0.0,0.0
12384,3095.75,32.1258,33.2995,138.858,100.223,106.357,0.00324091,0.142834,20.8841,659.132,-0.528408,0.0,0.0
12416,3103.75,32.214,33.3831,143.276,100.21,105.55,0.00313571,0.143084,20.883,658.771,-0.461738,0.0,0.0
12448,3111.75,32.4334,33.5241,142.863,100.151,106.062,0.00278498,0.145066,20.8801,658.401,-0.510111,0.0,0.0
12480,3119.75,32.4916,33.2108,141.364,100.092,106.799,0.00285005,0.145729,20.8803,658.031,-0.576892,0.0,0.0
12512,3127.75,33.3978,34.2592,143.902,100.039,106.304,0.00293653,0.146166,20.878,657.66,-0.540328,0.0,0.0
12544,3135.75,32.4995,33.5346,139.245,99.9417,105.299,0.00280764,0.146659,20.8809,657.29,-0.464481,0.0,0.0
12576,3143.75,33.0139,33.8094,138.188,99.8827,105.82,0.00288079,0.147512,20.8804,656.87,-0.513618,0.0,0.0
12608,3151.75,33.5033,34.3076,139.775,99.778,106.183,0.00303339,0.149443,20.8785,656.459,-0.553387,0.0,0.0
12640,3159.75,33.5873,34.5401,139.63,99.6878,105.401,0.00274541,0.15067,20.8746,656.039,-0.495709,0.0,0.0
12672,3167.75,33.9322,34.0705,138.066,99.6208,105.678,0.0026354,0.151369,20.8735,655.698,-0.524961,0.0,0.0
12704,3175.75,34.1131,34.6736,139.675,99.551,105.267,0.00299747,0.152196,20.8735,655.308,-0.496547,0.0,0.0
12736,3183.75,33.7371,34.9061,140.71,99.476,106.026,0.00301822,0.152571,20.8712,654.928,-0.567138,0.0,0.0
12768,3191.75,33.894,35.0103,138.102,99.4263,105.537,0.00258067,0.15482,20.8683,654.527,-0.530546,0.0,0.0
12800,3199.75,34.5985,35.4724,137.46,99.3597,105.935,0.00260886,0.154796,20.8689,654.127,-0.569969,0.0,0.0
12832,3207.75,34.6538,36.0514,139.123,99.2827,104.645,0.00257404,0.155244,20.8707,653.697,-0.467849,0.0,0.0
12864,3215.75,34.2891,35.3584,137.083,99.2358,104.761,0.00222392,0.158345,20.8686,653.286,-0.481895,0.0,0.0
12896,3223.75,34.8061,35.5883,141.21,99.1989,104.959,0.00244729,0.159532,20.8684,652.836,-0.501999,0.0,0.0
12928,3231.75,33.8656,35.4684,140.774,99.1504,104.396,0.00215492,0.159923,20.8663,652.385,-0.458507,0.0,0.0
12960,3239.75,34.7591,35.918,138.919,99.1335,105.797,0.00249712,0.160901,20.8663,651.965,-0.578659,0.0,0.0
12992,3247.75,34.8025,36.0709,137.357,99.1054,104.578,0.00256295,0.161245,20.8649,651.605,-0.478094,0.0,0.0
13024,3255.75,34.7261,35.7425,144.378,99.105,104.651,0.00225515,0.161612,20.8645,651.154,-0.484277,0.0,0.0
13056,3263.75,34.9253,35.8844,139.147,99.0898,105.273,0.00199069,0.16281,20.8634,650.734,-0.538344,0.0,0.0
13088,3271.75,35.1032,36.2707,139.564,99.0657,104.537,0.0022501,0.162716,20.8626,650.294,-0.478144,0.0,0.0
13120,3279.75,34.9418,36.9146,136.505,99.0385,105.032,0.00205019,0.164048,20.8605,649.853,-0.522595,0.0,0.0
13152,3287.75,35.0339,36.2614,140.081,99.0036,105.011,0.00200304,0.165041,20.8593,649.423,-0.523942,0.0,0.0
13184,3295.75,35.3684,36.75,140.115,98.9258,104.699,0.00203605,0.166427,20.8585,648.972,-0.504463,0.0,0.0
13216,3303.75,35.5815,37.0243,139.692,98.8588,105.192,0.00212628,0.16678,20.8583,648.472,-0.552311,0.0,0.0
13248,3311.75,35.6442,36.6073,138.166,98.8343,105.42,0.00210078,0.167368,20.8572,648.002,-0.573778,0.0,0.0
13280,3319.75,35.8308,37.4021,142.918,98.7974,105.08,0.00174154,0.167262,20.8574,647.581,-0.548336,0.0,0.0
13312,3327.75,35.879,36.7954,141.31,98.7697,105.362,0.00191789,0.167778,20.8587,647.151,-0.574665,0.0,0.0
13344,3335.75,35.6777,37.1219,139.384,98.7645,104.403,0.00170219,0.169499,20.8559,646.7,-0.493798,0.0,0.0
13376,3343.75,36.4319,37.108,140.583,98.7344,105.489,0.00196232,0.170264,20.8576,646.23,-0.588527,0.0,0.0
13408,3351.75,36.3746,37.3385,140.336,98.7352,104.412,0.00178067,0.171663,20.8559,645.77,-0.4972,0.0,0.0
13440,3359.75,36.4335,37.661,138.122,98.7032,104.37,0.00132914,0.172329,20.8576,645.279,-0.496533,0.0,0.0
13472,3367.75,36.5705,37.8877,141.845,98.6871,104.162,0.00144458,0.173191,20.8528,644.809,-0.480206,0.0,0.0
13504,3375.75,36.1299,37.581,144.079,98.6703,104.056,0.00180209,0.173903,20.8509,644.298,-0.472709,0.0,0.0
13536,3383.75,36.2504,37.7403,138.115,98.6687,104.036,0.00164805,0.175747,20.849,643.778,-0.471164,0.0,0.0
13568,3391.75,36.4794,37.9959,138.473,98.6735,104.632,0.00199702,0.17552,20.8505,643.357,-0.521489,0.0,0.0
13600,3399.75,36.3472,38.2652,139.22,98.6642,104.734,0.0018669,0.174412,20.8508,642.907,-0.530981,0.0,0.0
13632,3407.75,36.6532,38.114,141.166,98.6542,104.57,0.00183495,0.175595,20.8488,642.427,-0.517994,0.0,0.0
13664,3415.75,36.7715,38.2682,138.853,98.653,105.263,0.00198184,0.174831,20.8479,641.956,-0.576838,0.0,0.0
13696,3423.75,36.388,37.8418,141.871,98.6602,104.051,0.00191062,0.175896,20.8469,641.476,-0.473191,0.0,0.0
13728,3431.75,36.6681,38.1409,137.192,98.6518,105.308,0.00182897,0.175109,20.848,640.995,-0.580703,0.0,0.0
13760,3439.75,36.8717,38.217,141.584,98.6622,105.133,0.00176906,0.17348,20.8491,640.525,-0.564997,0.0,0.0
13792,3447.75,36.6772,38.2474,138.295,98.6843,104.548,0.00221738,0.174282,20.8491,640.034,-0.51341,0.0,0.0
13824,3455.75,36.7496,38.0202,136.011,98.7505,104.1,0.00185529,0.174608,20.8495,639.534,-0.469242,0.0,0.0
13856,3463.75,36.8873,38.4557,136.11,98.8343,104.311,0.00193457,0.174685,20.8497,639.144,-0.47967,0.0,0.0
13888,3471.75,36.774,38.3066,138.915,98.9322,105.108,0.00173883,0.173456,20.8512,638.683,-0.538607,0.0,0.0
13920,3479.75,36.7299,38.3614,142.397,98.9598,105.198,0.00169323,0.172808,20.854,638.223,-0.543716,0.0,0.0
13952,3487.75,36.8751,38.2549,138.79,98.9847,105.277,0.00159855,0.172564,20.8542,637.822,-0.548161,0.0,0.0
13984,3495.75,36.5997,38.1204,138.763,99.0276,105.338,0.00182194,0.172738,20.8534,637.322,-0.549425,0.0,0.0
14016,3503.75,36.9113,38.288,139.34,99.0753,105.873,0.00160736,0.171039,20.8554,636.852,-0.590219,0.0,0.0
14048,3511.75,37.168,38.1463,142.576,99.0585,105.287,0.00140546,0.171167,20.856,636.411,-0.542404,0.0,0.0
14080,3519.75,36.4641,37.8041,136.238,99.0561,104.897,0.00182573,0.169768,20.8578,635.941,-0.509558,0.0,0.0
14112,3527.75,36.8122,38.7624,139.023,99.0657,105.356,0.0015947,0.169899,20.8535,635.49,-0.547558,0.0,0.0
14144,3535.75,36.7345,37.6952,138.263,99.0677,105.63,0.00149173,0.169725,20.8529,635.04,-0.570471,0.0,0.0
14176,3543.75,36.5546,37.9767,143.293,99.0561,104.503,0.00195156,0.168595,20.8528,634.63,-0.476142,0.0,0.0
14208,3551.75,36.7768,38.1013,138.393,99.0521,105.887,0.00189961,0.169029,20.8559,634.209,-0.593514,0.0,0.0
14240,3559.75,36.7631,38.1281,137.146,99.0645,105.118,0.00242404,0.168196,20.8568,633.799,-0.527552,0.0,0.0
14272,3567.75,36.7127,37.9534,138.77,99.0537,105.512,0.00212767,0.166,20.8592,633.358,-0.56182,0.0,0.0
14304,3575.75,36.1095,37.7659,140.542,99.0537,105.745,0.00225584,0.166603,20.8523,632.938,-0.581406,0.0,0.0
14336,3583.75,36.5356,37.5294,137.566,99.0348,105.053,0.00206122,0.165881,20.8539,632.508,-0.524706,0.0,0.0
14368,3591.75,36.5645,38.1469,136.605,99.0609,106.096,0.0024188,0.164618,20.8546,632.087,-0.610242,0.0,0.0
14400,3599.75,36.4938,38.2995,144.411,99.0569,105.427,0.00215829,0.163417,20.8578,631.647,-0.554375,0.0,0.0
14432,3607.75,35.7994,37.32,139.501,99.0609,105.485,0.00179392,0.162171,20.859,631.247,-0.5589,0.0,0.0
14464,3615.75,35.8508,37.5796,140.246,99.0517,105.456,0.00246325,0.161062,20.8595,630.876,-0.55723,0.0,0.0
14496,3623.75,35.9487,37.7418,141.233,99.0232,105.374,0.00230183,0.161823,20.8585,630.486,-0.55293,0.0,0.0
14528,3631.75,36.4227,37.5664,139.92,99.026,105.368,0.00246798,0.159249,20.8616,630.096,-0.552147,0.0,0.0
14560,3639.75,34.2588,35.5783,138.595,99.0188,105.929,0.00245434,0.158453,20.8635,629.695,-0.600048,0.0,0.0
14592,3647.75,33.4991,35.0578,141.638,99.0377,104.353,0.00248949,0.157713,20.8661,629.305,-0.465026,0.0,0.0
14624,3655.75,33.9757,36.1544,138.86,99.0633,105.496,0.002184,0.15671,20.8677,628.924,-0.559555,0.0,0.0
14656,3663.75,33.5391,35.5972,141.705,99.0729,105.174,0.00196724,0.154942,20.8677,628.544,-0.531505,0.0,0.0
14688,3671.75,34.1356,36.0293,141.941,99.0882,105.57,0.00227856,0.153164,20.8699,628.164,-0.563605,0.0,0.0
14720,3679.75,34.0531,35.5076,140.368,99.095,105.177,0.00218621,0.154347,20.8681,627.783,-0.52983,0.0,0.0
14752,3687.75,34.0422,34.8043,138.74,99.1014,105.66,0.00247516,0.153556,20.8704,627.423,-0.56998,0.0,0.0
14784,3695.75,33.7751,35.1865,143.654,99.0553,105.44,0.0024826,0.151634,20.8712,627.093,-0.55558,0.0,0.0
14816,3703.75,33.5334,34.9736,139.238,99.0453,104.961,0.00236277,0.149754,20.8729,626.763,-0.515974,0.0,0.0
14848,3711.75,33.5813,34.8851,141.051,99.012,105.058,0.00214411,0.148618,20.875,626.382,-0.527179,0.0,0.0
14880,3719.75,33.1264,34.5912,139.055,98.9546,106.218,0.0021993,0.14702,20.8768,626.052,-0.630024,0.0,0.0
14912,3727.75,33.0783,34.5193,137.599,98.9342,104.749,0.00225345,0.148121,20.8746,625.732,-0.507939,0.0,0.0
14944,3735.75,33.2613,33.8993,140.546,98.8893,104.733,0.0023238,0.145452,20.878,625.371,-0.510644,0.0,0.0
14976,3743.75,33.058,34.5799,142.075,98.8435,105.024,0.00284896,0.144198,20.8783,625.031,-0.539471,0.0,0.0
15008,3751.75,32.4601,34.307,144.353,98.7942,105.07,,,,624.661,-0.547752,0.0,0.0
15025,3756,32.4119,34.5003,143.456,98.7774,105.056,,,,624.56,-0.548128,0.0,0.0