File: 01_Data/Plastic_Laminate_Countertop/Cone/Plastic_Laminate_Countertop_Cone_HF75Scan_220504_R3.csv
Names,Time,Stack TC,Smoke TC,Exh Press,Smoke Comp,Smoke Meas,CO Meter,CO2 Meter,O2 Meter,Sample Mass,Ext Coeff,Start Test,Flame Verif
Chan Gain,,500,500,1,1,1,1,1,1,1,1,1.0,1.0
Offset,,0,0,0.136848,0,0,0,0,0,0,0,0.0,0.0
Gain,,1,1,25.011,13.1423,14.7137,1,1,1,1.0009,1.01396,1.0,1.0
Units,sec,C,C,Pa,%,%,%,%,%,g,/m,,
Baseline,,50.8497,52.6568,126.689,100.609,109.701,0.000521627,0.0412967,20.9894,-447.073,-0.769405,,
32,7.75,47.668,49.3596,125.672,100.304,110.026,0.000710956,0.046395,20.9843,788.618,-0.822838,0.0,0.0
64,15.75,50.6387,50.7382,124.348,100.082,107.933,0.00330798,0.122174,20.9067,788.117,-0.671636,0.0,1.0
96,23.75,55.7131,53.6704,105.778,99.8446,106.277,0.00762564,0.468885,20.4998,786.746,-0.55535,0.0,0.0
128,31.75,62.3262,60.8737,114.415,99.6449,108.113,0.00614999,0.390525,20.5553,785.835,-0.725471,0.0,0.0
160,39.75,66.511,65.0245,113.46,99.4997,104.917,0.00457978,0.438505,20.5314,784.434,-0.471568,0.0,0.0
192,47.75,68.285,68.2791,118.172,99.3846,103.285,0.00420304,0.355398,20.6208,783.463,-0.342367,0.0,0.0
224,55.75,68.4622,69.3332,120.93,99.3617,106.672,0.00358301,0.284754,20.7004,782.652,-0.631441,0.0,0.0
256,63.75,66.969,69.5327,120.662,99.3978,106.684,0.00237642,0.232072,20.7659,782.102,-0.629184,0.0,0.0
288,71.75,65.9374,68.4491,121.751,99.4564,107.777,0.00220933,0.203323,20.7982,781.581,-0.714601,0.0,0.0
320,79.75,64.9072,68.5601,121.878,99.5663,106.966,0.00231815,0.198446,20.7999,781.101,-0.637602,0.0,0.0
352,87.75,64.4687,68.1206,116.317,99.7151,105.828,0.00218441,0.20817,20.7868,780.611,-0.529239,0.0,0.0
384,95.75,64.3648,68.5136,116.062,99.8867,104.779,0.0025244,0.233542,20.7548,780.02,-0.425306,0.0,0.0
416,103.75,65.1875,69.291,117.163,100.044,104.364,0.00311848,0.261412,20.7273,779.289,-0.375989,0.0,0.0
448,111.75,66.5215,70.2019,117.322,100.193,102.573,0.00400962,0.297156,20.6868,778.449,-0.208758,0.0,0.0
480,119.75,68.1752,70.9597,116.067,100.342,101.91,0.00450537,0.334345,20.6448,777.558,-0.137938,0.0,0.0
512,127.75,69.2564,72.4056,116.935,100.455,101.962,0.00523464,0.364927,20.6165,776.587,-0.132392,0.0,0.0
544,135.75,71.0145,74.2006,115.542,100.536,102.499,0.00584111,0.394861,20.5822,775.546,-0.17202,0.0,0.0
576,143.75,73.6155,76.4555,112.76,100.591,103.773,0.005497,0.414534,20.5602,774.445,-0.277056,0.0,0.0
608,151.75,73.961,77.9785,109.902,100.602,103.833,0.00583159,0.420438,20.5567,773.364,-0.281144,0.0,0.0
640,159.75,76.0067,78.7052,115.343,100.596,104.371,0.00570392,0.418325,20.5562,772.293,-0.327675,0.0,0.0
672,167.75,77.0391,80.3166,117.469,100.56,105.992,0.00531845,0.412582,20.5623,771.152,-0.467941,0.0,0.0
704,175.75,77.527,81.1403,113.241,100.464,105.414,0.00519117,0.407191,20.5694,770.041,-0.427796,0.0,0.0
736,183.75,78.1713,82.0998,115.876,100.316,105.192,0.00498503,0.40178,20.5746,768.92,-0.422099,0.0,0.0
768,191.75,78.91,82.8692,112.51,100.174,105.383,0.00478514,0.392824,20.5832,767.859,-0.450928,0.0,0.0
800,199.75,78.9012,82.9221,113.605,100.025,106.645,0.0041259,0.378621,20.6025,766.828,-0.57001,0.0,0.0
832,207.75,79.0625,83.6729,117.727,99.8891,106.614,0.00391884,0.372821,20.6085,765.877,-0.579487,0.0,0.0
864,215.75,79.3448,83.9522,111.417,99.8474,107.597,0.0042168,0.360565,20.6233,764.896,-0.664864,0.0,0.0
896,223.75,78.9018,83.9389,115.838,100.035,108.563,0.00370074,0.35159,20.6302,763.976,-0.727679,0.0,0.0
928,231.75,78.644,84.0228,116.154,100.179,108.401,0.00345812,0.343618,20.6399,763.075,-0.701597,0.0,0.0
960,239.75,78.5312,83.5537,115.82,100.282,108.059,0.00294237,0.335733,20.648,762.164,-0.664332,0.0,0.0
992,247.75,78.122,83.1107,111.706,100.385,109.436,0.00234927,0.335023,20.6497,761.193,-0.767832,0.0,0.0
1024,255.75,78.6947,83.5324,114.447,100.411,109.34,0.00267125,0.331366,20.6534,760.302,-0.757744,0.0,0.0
1056,263.75,78.2426,83.683,114.692,100.38,108.358,0.00247452,0.33167,20.6533,759.422,-0.680202,0.0,0.0
1088,271.75,78.3331,83.2294,116.06,100.305,108.853,0.00269156,0.32712,20.6573,758.551,-0.727337,0.0,0.0
1120,279.75,78.2682,82.7113,114.402,100.181,109.513,0.00254216,0.324446,20.6616,757.68,-0.792177,0.0,0.0
1152,287.75,78.2925,82.9835,114.749,100.034,108.959,0.00264623,0.322559,20.6627,756.819,-0.760103,0.0,0.0
1184,295.75,78.3069,83.2838,113.654,100.104,109.489,0.00243335,0.318431,20.6686,755.948,-0.797011,0.0,0.0
1216,303.75,78.5223,82.9654,114.458,100.209,109.752,0.00202438,0.314337,20.6712,755.148,-0.809028,0.0,0.0
1248,311.75,78.3418,82.5474,115.404,100.396,109.81,0.00249236,0.314189,20.671,754.377,-0.797184,0.0,0.0
1280,319.75,77.5296,83.0741,118.122,100.569,110.391,0.00222566,0.309955,20.6742,753.556,-0.82875,0.0,0.0
1312,327.75,77.9797,82.7645,114.915,100.703,109.356,0.00209274,0.307502,20.6767,752.736,-0.733197,0.0,0.0
1344,335.75,77.8087,82.8296,116.205,100.815,110.378,0.00228429,0.305712,20.68,751.925,-0.80602,0.0,0.0
1376,343.75,78.0513,82.8978,114.272,100.905,110.789,0.00225768,0.303519,20.6823,751.154,-0.831108,0.0,0.0
1408,351.75,77.9815,82.539,116.964,100.948,110.881,0.00193705,0.301581,20.6865,750.393,-0.834748,0.0,0.0
1440,359.75,78.3255,82.7702,115.922,100.946,110.728,0.00200603,0.298191,20.6886,749.593,-0.82267,0.0,0.0
1472,367.75,77.7366,82.4497,114.32,100.88,111.116,0.00205937,0.297305,20.6909,748.832,-0.85954,0.0,0.0
1504,375.75,77.5966,82.3713,117.796,100.772,110.444,0.00197193,0.292656,20.6944,748.171,-0.81516,0.0,0.0
1536,383.75,77.7194,82.4969,112.381,100.664,110.69,0.00162324,0.28788,20.6991,747.421,-0.844553,0.0,0.0
1568,391.75,77.4698,81.7033,114.945,100.512,111.185,0.00202487,0.285972,20.7014,746.66,-0.897596,0.0,0.0
1600,399.75,77.3933,81.7325,118.917,100.336,109.981,0.00175275,0.28197,20.704,745.959,-0.816397,0.0,0.0
1632,407.75,77.878,81.519,117.325,100.125,110.202,0.00165719,0.279894,20.7064,745.239,-0.852967,0.0,0.0
1664,415.75,76.8128,81.1931,118.603,99.9112,110.077,0.00176837,0.274143,20.7137,744.488,-0.861824,0.0,0.0
1696,423.75,76.4896,81.2585,114.831,99.7094,109.817,0.00161897,0.275141,20.7147,743.787,-0.858806,0.0,0.0
1728,431.75,77.0487,80.8952,113.551,99.5667,109.755,0.00157119,0.26967,20.7237,743.167,-0.866532,0.0,0.0
1760,439.75,76.8394,80.6639,118.492,99.4692,109.641,0.00151825,0.266038,20.7265,742.586,-0.865995,0.0,0.0
1792,447.75,76.6341,80.1229,115.756,99.4852,109.79,0.00181672,0.266385,20.7257,741.846,-0.876609,0.0,0.0
1824,455.75,75.5658,80.5476,117.585,99.602,109.334,0.00174555,0.261572,20.7304,741.195,-0.829181,0.0,0.0
1856,463.75,75.7966,79.6141,115.658,99.8209,109.92,0.00141329,0.259657,20.7315,740.505,-0.857226,0.0,0.0
1888,471.75,75.7714,79.7502,117.592,100.034,110.24,0.00190182,0.256837,20.7341,739.844,-0.864103,0.0,0.0
1920,479.75,75.4946,79.5791,115.838,100.225,110.548,0.00145845,0.254348,20.7376,739.163,-0.87189,0.0,0.0
1952,487.75,74.8967,78.8699,118.507,100.388,111.282,0.00156066,0.250747,20.7427,738.513,-0.916324,0.0,0.0
1984,495.75,74.5638,78.7307,117.124,100.532,111.043,0.0015575,0.245789,20.7477,737.872,-0.884498,0.0,0.0
2016,503.75,75.2904,78.6403,117.761,100.633,111.937,0.00116566,0.243026,20.7497,737.242,-0.946811,0.0,0.0
2048,511.75,74.8819,77.965,117.603,100.683,110.912,0.00156308,0.240899,20.7536,736.641,-0.860622,0.0,0.0
2080,519.75,74.2187,77.8314,119.804,100.698,111.249,0.00153523,0.236162,20.7599,736.001,-0.886242,0.0,0.0
2112,527.75,73.5029,77.9857,119.684,100.688,110.853,0.00153641,0.232864,20.7637,735.42,-0.855444,0.0,0.0
2144,535.75,73.8261,77.3525,120.932,100.656,111.013,0.00117193,0.230102,20.7666,734.819,-0.871095,0.0,0.0
2176,543.75,72.4783,77.6159,118.314,100.589,110.834,0.00126563,0.22778,20.7721,734.279,-0.862649,0.0,0.0
2208,551.75,73.348,76.9876,118.833,100.504,110.818,0.00148741,0.225905,20.7751,733.648,-0.868909,0.0,0.0
2240,559.75,72.6406,76.7705,114.893,100.389,110.661,0.00170646,0.22449,20.7753,733.038,-0.86648,0.0,0.0
2272,567.75,72.4669,76.7259,118.702,100.232,110.731,0.0014049,0.222041,20.7769,732.457,-0.886048,0.0,0.0
2304,575.75,72.2448,76.1622,117.508,100.059,110.763,0.00136669,0.220608,20.7799,731.897,-0.903998,0.0,0.0
2336,583.75,72.4885,76.0494,117.017,99.9128,110.805,0.00116265,0.21862,20.7812,731.286,-0.920301,0.0,0.0
2368,591.75,71.8487,75.454,116.448,100.019,111.297,0.00122023,0.217926,20.7822,730.726,-0.950332,0.0,0.0
2400,599.75,72.4255,75.85,115.689,100.225,110.352,0.00107606,0.214797,20.7856,730.155,-0.85616,0.0,0.0
2432,607.75,70.8684,75.1977,117.013,100.318,111.911,0.00135729,0.214987,20.7848,729.615,-0.972719,0.0,0.0
2464,615.75,71.2992,74.6673,116.895,100.386,111.26,0.00133762,0.212874,20.7869,729.034,-0.914743,0.0,0.0
2496,623.75,71.4693,74.5907,118.541,100.434,111.266,0.00130891,0.211262,20.7914,728.444,-0.910946,0.0,0.0
2528,631.75,70.7437,74.2677,118.875,100.467,110.528,0.00146432,0.209582,20.7924,727.873,-0.848864,0.0,0.0
2560,639.75,70.8464,74.1972,115.712,100.451,111.307,0.0015432,0.208798,20.7926,727.323,-0.912792,0.0,0.0
2592,647.75,70.6722,73.9013,118.675,100.401,111.764,0.00146031,0.209165,20.7914,726.772,-0.953648,0.0,0.0
2624,655.75,69.9053,73.1261,116.513,100.335,111.057,0.00141462,0.207594,20.7924,726.192,-0.903053,0.0,0.0
2656,663.75,70.3013,73.108,119.077,100.213,111.347,0.00164063,0.208063,20.798,725.631,-0.937033,0.0,0.0
2688,671.75,69.7615,73.0382,120.666,100.124,110.985,0.00142242,0.207047,20.7999,725.121,-0.915946,0.0,0.0
2720,679.75,69.6132,72.9707,117.031,100.192,111.044,0.00181323,0.20693,20.8001,724.59,-0.914747,0.0,0.0
2752,687.75,69.9743,72.7299,121.287,100.255,111.001,0.0015171,0.206231,20.7988,724,-0.905706,0.0,0.0
2784,695.75,70.3326,73.0116,117.363,100.306,111.052,0.00108764,0.206028,20.7979,723.449,-0.905218,0.0,0.0
2816,703.75,70.1286,72.5466,119.655,100.354,110.73,0.00150444,0.205548,20.7999,722.899,-0.875163,0.0,0.0
2848,711.75,69.5958,73.0165,118.244,100.398,111.744,0.00128339,0.206007,20.7992,722.318,-0.952254,0.0,0.0
2880,719.75,69.5428,72.9884,116.35,100.462,111.413,0.00122947,0.204737,20.8006,721.788,-0.920298,0.0,0.0
2912,727.75,69.6432,72.606,117.634,100.525,112.028,0.00135134,0.205186,20.8,721.197,-0.963663,0.0,0.0
2944,735.75,69.5981,72.4552,117.243,100.594,111.927,0.00128745,0.206647,20.7958,720.617,-0.949466,0.0,0.0
2976,743.75,70.003,72.691,118.124,100.658,111.996,0.0013638,0.205532,20.7986,720.116,-0.949287,0.0,0.0
3008,751.75,69.9163,73.0608,119.814,100.742,111.46,0.0012393,0.205772,20.8003,719.566,-0.899274,0.0,0.0
3040,759.75,69.8983,72.9122,119.249,100.805,111.442,0.00167342,0.20628,20.7993,719.015,-0.892246,0.0,0.0
3072,767.75,69.4708,72.8344,119.474,100.85,112.045,0.00173088,0.205056,20.8017,718.485,-0.936284,0.0,0.0
3104,775.75,70.107,72.5587,117.727,100.886,112.036,0.00160081,0.206411,20.8006,717.844,-0.932389,0.0,0.0
3136,783.75,69.9361,72.7445,120.206,100.926,111.763,0.00151078,0.205969,20.8013,717.294,-0.907117,0.0,0.0
3168,791.75,70.2201,72.6952,121.907,100.996,112.036,0.00152074,0.206015,20.8013,716.753,-0.922635,0.0,0.0
3200,799.75,69.8867,72.6643,117.914,101.004,112.493,0.00144951,0.207145,20.8008,716.233,-0.958214,0.0,0.0
3232,807.75,69.8323,72.6643,122.32,101.023,112.465,0.0014968,0.206456,20.8014,715.672,-0.954318,0.0,0.0
3264,815.75,69.8512,72.9165,118.161,101.033,112.436,0.00123327,0.206645,20.8018,715.092,-0.951091,0.0,0.0
3296,823.75,69.8537,72.6255,117.335,101.04,112.041,0.00145844,0.205518,20.8028,714.601,-0.919248,0.0,0.0
3328,831.75,70.3262,72.4138,118.118,101.038,111.927,0.00124801,0.206798,20.8021,714.071,-0.910295,0.0,0.0
3360,839.75,69.7535,72.8292,119.999,101.028,112.236,0.0012004,0.205456,20.8049,713.47,-0.935764,0.0,0.0
3392,847.75,69.5478,72.7044,119.451,101.019,112.122,0.00105371,0.205504,20.8035,712.91,-0.927498,0.0,0.0
3424,855.75,69.5481,72.3862,119.839,101.013,111.997,0.00128394,0.205603,20.8027,712.309,-0.918085,0.0,0.0
3456,863.75,69.8612,72.768,118.019,101.001,111.724,0.00141267,0.205978,20.8008,711.749,-0.897401,0.0,0.0
3488,871.75,69.6885,72.7716,119.169,101.027,112.549,0.00120167,0.206672,20.8001,711.178,-0.960602,0.0,0.0
3520,879.75,69.6244,72.461,121.282,100.99,112.077,0.00128905,0.206922,20.7995,710.588,-0.926443,0.0,0.0
3552,887.75,69.7257,72.3728,118.902,100.97,112.237,0.00175444,0.207265,20.8005,710.047,-0.940993,0.0,0.0
3584,895.75,69.8354,72.3548,115.493,100.951,112.023,0.00149129,0.209082,20.7989,709.497,-0.925629,0.0,0.0
3616,903.75,69.5939,72.4892,115.095,100.92,112.155,0.000933491,0.208204,20.7994,708.956,-0.93886,0.0,0.0
3648,911.75,69.9227,72.9529,118.496,100.878,112.187,0.00145367,0.207781,20.7995,708.426,-0.945065,0.0,0.0
3680,919.75,70.1673,72.9713,118.657,100.793,110.917,0.00122135,0.20646,20.8004,707.845,-0.851352,0.0,0.0
3712,927.75,69.7093,72.6207,118.042,100.701,111.701,0.00125182,0.207183,20.8017,707.265,-0.922071,0.0,0.0
3744,935.75,69.9784,72.3613,117.695,100.6,111.731,0.00109312,0.205729,20.8042,706.704,-0.933399,0.0,0.0
3776,943.75,69.3255,72.902,121.657,100.428,111.314,0.00139658,0.207641,20.8012,706.124,-0.915391,0.0,0.0
3808,951.75,69.8004,72.3859,114.782,100.257,110.966,0.001607,0.207023,20.8013,705.573,-0.902721,0.0,0.0
3840,959.75,69.7271,72.3699,119.048,100.097,111.619,0.0010745,0.206084,20.803,704.993,-0.969,0.0,0.0
3872,967.75,69.5797,72.34,115.567,99.979,110.661,0.00135292,0.206392,20.8015,704.452,-0.90287,0.0,0.0
3904,975.75,69.5997,72.9353,118.582,99.8418,111.157,0.00109469,0.206586,20.7991,703.942,-0.954836,0.0,0.0
3936,983.75,69.7107,72.3976,117.458,99.7179,110.211,0.0013155,0.207774,20.8014,703.381,-0.889893,0.0,0.0
3968,991.75,70.1226,72.8839,117.84,99.6156,110.025,0.00139035,0.207271,20.803,702.771,-0.88404,0.0,0.0
4000,999.75,69.6434,72.5034,119.194,99.5747,110.228,0.00132485,0.206225,20.8023,702.23,-0.904086,0.0,0.0
4032,1007.75,69.123,72.6527,118.053,99.5883,110.699,0.00125391,0.208312,20.8013,701.63,-0.940758,0.0,0.0
4064,1015.75,69.593,72.6028,121.197,99.6272,109.999,0.00129231,0.208375,20.8024,701.099,-0.880823,0.0,0.0
4096,1023.75,70.1437,72.9036,123.328,99.7151,110.777,0.00131148,0.206946,20.8031,700.589,-0.935722,0.0,0.0
4128,1031.75,69.6765,72.5732,118.378,99.8053,110.671,0.00145327,0.207369,20.8004,700.038,-0.919163,0.0,0.0
4160,1039.75,69.3048,72.5129,118.56,99.9,110.47,0.00142179,0.206972,20.801,699.478,-0.894514,0.0,0.0
4192,1047.75,69.7683,72.48,116.861,99.9854,111.499,0.00135596,0.205717,20.8018,698.947,-0.96939,0.0,0.0
4224,1055.75,69.8327,72.7088,115.805,100.029,111.332,0.00164503,0.206967,20.8018,698.387,-0.952203,0.0,0.0
4256,1063.75,69.7966,72.7783,119.086,100.094,111.476,0.00148184,0.205224,20.8029,697.766,-0.957971,0.0,0.0
4288,1071.75,69.8238,72.5575,118.741,100.175,111.63,0.00148895,0.206394,20.801,697.246,-0.963019,0.0,0.0
4320,1079.75,69.7632,72.6423,119.075,100.272,111.229,0.00131475,0.206388,20.8021,696.705,-0.9224,0.0,0.0
4352,1087.75,69.9204,72.045,120.297,100.382,111.362,0.00139442,0.206281,20.8022,696.155,-0.923243,0.0,0.0
4384,1095.75,70.0791,72.5705,122.908,100.485,111.703,0.00121702,0.206288,20.8022,695.544,-0.941329,0.0,0.0
4416,1103.75,69.3167,72.1521,120.403,100.542,111.571,0.00124384,0.206173,20.8015,694.974,-0.9257,0.0,0.0
4448,1111.75,69.7091,73.2178,116.859,100.61,111.228,0.0013949,0.204723,20.8027,694.483,-0.892388,0.0,0.0
4480,1119.75,69.846,72.816,117.809,100.686,111.881,0.00127202,0.207518,20.7998,693.963,-0.937673,0.0,0.0
4512,1127.75,70.4324,71.8022,114.299,100.717,112.211,0.00104606,0.206778,20.8017,693.392,-0.961178,0.0,0.0
4544,1135.75,69.7505,72.4945,114.928,100.754,111.785,0.00111575,0.206314,20.8018,692.902,-0.924044,0.0,0.0
4576,1143.75,69.2208,72.7651,120.01,100.785,111.631,0.000904218,0.206926,20.8001,692.311,-0.909127,0.0,0.0
4608,1151.75,69.9567,72.6287,121.178,100.796,111.735,0.00141759,0.20587,20.8013,691.731,-0.916433,0.0,0.0
4640,1159.75,69.6875,72.6239,116.73,100.804,112.078,0.00102745,0.205592,20.8011,691.23,-0.942991,0.0,0.0
4672,1167.75,69.1287,72.4369,121.241,100.816,111.858,0.00109261,0.205501,20.8035,690.67,-0.924345,0.0,0.0
4704,1175.75,69.3964,72.9377,116.443,100.826,111.981,0.0015596,0.205564,20.8047,690.079,-0.93338,0.0,0.0
4736,1183.75,70.0549,72.4567,119.492,100.827,111.472,0.00171276,0.205861,20.8052,689.529,-0.892701,0.0,0.0
4768,1191.75,69.4629,72.3466,117.108,100.82,111.481,0.00162854,0.205544,20.8022,688.988,-0.893984,0.0,0.0
4800,1199.75,69.5909,72.2411,115.954,100.82,112.144,0.00111594,0.204863,20.8032,688.438,-0.946848,0.0,0.0
4832,1207.75,69.5689,72.5832,118.53,100.815,112.623,0.000797219,0.206097,20.8009,687.887,-0.985119,0.0,0.0
4864,1215.75,69.5415,72.4398,116.324,100.796,112.141,0.00105924,0.206839,20.8022,687.347,-0.948721,0.0,0.0
4896,1223.75,70.0112,72.3705,115.597,100.788,111.849,0.00154298,0.206985,20.8025,686.716,-0.926215,0.0,0.0
4928,1231.75,69.6686,72.7825,117.708,100.767,111.448,0.00119441,0.207,20.8032,686.236,-0.896005,0.0,0.0
4960,1239.75,69.6038,72.9217,119.009,100.737,111.674,0.00108458,0.208269,20.8009,685.675,-0.916702,0.0,0.0
4992,1247.75,69.9206,72.5985,115.348,100.721,112.148,0.00106244,0.207694,20.8009,685.095,-0.955805,0.0,0.0
5024,1255.75,69.8573,72.5616,117.182,100.7,111.681,0.00136304,0.207493,20.8,684.594,-0.920568,0.0,0.0
5056,1263.75,69.6607,72.6983,117.306,100.679,111.597,0.00143968,0.208753,20.8006,684.074,-0.915721,0.0,0.0
5088,1271.75,69.712,72.5573,118.959,100.642,111.307,0.00141529,0.208692,20.8014,683.563,-0.895869,0.0,0.0
5120,1279.75,70.0995,72.83,122.283,100.597,111.552,0.00154213,0.209261,20.8015,683.023,-0.919337,0.0,0.0
5152,1287.75,69.9319,72.5173,118.305,100.546,112.008,0.00123405,0.209715,20.801,682.462,-0.960214,0.0,0.0
5184,1295.75,69.8386,72.7558,120.964,100.508,111.787,0.001726,0.210078,20.8004,681.862,-0.945989,0.0,0.0
5216,1303.75,69.9146,72.9785,117.129,100.481,111.561,0.00153908,0.211283,20.7989,681.281,-0.930379,0.0,0.0
5248,1311.75,69.7732,72.6243,121.133,100.433,111.485,0.00138325,0.211155,20.7942,680.731,-0.928623,0.0,0.0
5280,1319.75,70.4171,73.2707,118.84,100.397,112.073,0.00149971,0.212784,20.7931,680.16,-0.978555,0.0,0.0
5312,1327.75,70.2876,73.3688,115.509,100.349,111.968,0.00117176,0.21409,20.7914,679.61,-0.974477,0.0,0.0
5344,1335.75,70.2953,72.7689,118.056,100.31,111.056,0.00101189,0.213583,20.796,679.039,-0.90515,0.0,0.0
5376,1343.75,70.423,73.0066,117.319,100.271,111.415,0.00131234,0.214019,20.7966,678.539,-0.937323,0.0,0.0
5408,1351.75,70.2701,72.8464,120.508,100.234,111.083,0.00112862,0.213924,20.7956,677.968,-0.914031,0.0,0.0
5440,1359.75,69.7506,73.2519,118.091,100.174,111.415,0.00101607,0.216849,20.7911,677.338,-0.945972,0.0,0.0
5472,1367.75,70.0964,73.2437,115.821,100.149,111.27,0.00124445,0.217531,20.7886,676.817,-0.936523,0.0,0.0
5504,1375.75,70.057,72.9946,117.69,100.091,110.389,0.00137383,0.218622,20.7879,676.257,-0.871023,0.0,0.0
5536,1383.75,70.4547,73.4726,118.67,100.035,111.275,0.00130805,0.220016,20.7878,675.676,-0.947111,0.0,0.0
5568,1391.75,70.7086,73.898,116.189,100.096,110.618,0.001385,0.219927,20.7861,675.076,-0.888993,0.0,0.0
5600,1399.75,70.5272,73.7608,114.596,100.135,111.197,0.00140504,0.221858,20.7835,674.545,-0.932061,0.0,0.0
5632,1407.75,70.6958,73.8016,118.23,100.175,111.075,0.00127373,0.222211,20.7822,673.975,-0.918724,0.0,0.0
5664,1415.75,71.3089,74.0401,117.434,100.21,111.485,0.00111761,0.223676,20.78,673.434,-0.948394,0.0,0.0
5696,1423.75,70.7537,73.5573,120.432,100.239,111.179,0.00163434,0.224126,20.7801,672.924,-0.921259,0.0,0.0
5728,1431.75,71.2327,73.8305,115.18,100.298,111.531,0.00156662,0.225651,20.7793,672.293,-0.944184,0.0,0.0
5760,1439.75,70.6735,74.2297,116.766,100.364,110.787,0.00142925,0.228362,20.7767,671.673,-0.87889,0.0,0.0
5792,1447.75,71.2367,74.3509,116.01,100.4,111.885,0.00128518,0.228016,20.776,671.052,-0.963291,0.0,0.0
5824,1455.75,71.7089,74.0922,117.72,100.427,111.491,0.00148928,0.22956,20.7738,670.492,-0.929516,0.0,0.0
5856,1463.75,71.7034,74.5723,121.246,100.452,111.788,0.00125113,0.229784,20.7727,669.861,-0.951031,0.0,0.0
5888,1471.75,71.6007,74.7661,117.94,100.48,111.398,0.00156029,0.231796,20.7725,669.271,-0.917445,0.0,0.0
5920,1479.75,71.5082,74.7367,118.834,100.506,111.294,0.0015711,0.234069,20.772,668.72,-0.906851,0.0,0.0
5952,1487.75,71.9797,75.0274,114.749,100.553,110.881,0.00143835,0.234013,20.772,668.14,-0.869624,0.0,0.0
5984,1495.75,71.7517,74.7511,117.149,100.54,111.816,0.00152002,0.236184,20.7692,667.559,-0.945437,0.0,0.0
6016,1503.75,72.1225,75.4797,119.778,100.496,111.958,0.00107439,0.236594,20.7694,666.969,-0.96062,0.0,0.0
6048,1511.75,72.1469,75.1359,114.436,100.404,110.992,0.00126291,0.236549,20.7689,666.298,-0.89176,0.0,0.0
6080,1519.75,72.297,75.0819,113.804,100.289,111.209,0.00153506,0.239846,20.7651,665.717,-0.919254,0.0,0.0
6112,1527.75,72.362,75.3963,118.979,100.164,110.807,0.00139277,0.240723,20.7638,665.087,-0.898123,0.0,0.0
6144,1535.75,72.4405,75.6567,115.818,100.224,110.631,0.00116894,0.241614,20.7628,664.516,-0.878678,0.0,0.0
6176,1543.75,72.3499,75.4502,119.833,100.288,111.297,0.00185318,0.243881,20.7607,663.896,-0.926396,0.0,0.0
6208,1551.75,72.676,75.5649,116.976,100.37,111.585,0.00145299,0.24335,20.761,663.235,-0.942115,0.0,0.0
6240,1559.75,72.5783,75.5494,112.529,100.469,111.396,0.00180547,0.247139,20.7588,662.695,-0.91826,0.0,0.0
6272,1567.75,72.3579,76.105,115.636,100.569,111.606,0.00161906,0.247496,20.7546,662.094,-0.926186,0.0,0.0
6304,1575.75,72.6048,76.0658,117.913,100.677,111.295,0.0014197,0.249274,20.7531,661.444,-0.891852,0.0,0.0
6336,1583.75,73.4212,76.0179,115.014,100.761,111.34,0.00164711,0.25082,20.7526,660.823,-0.888001,0.0,0.0
6368,1591.75,73.0325,76.3143,120.024,100.854,111.913,0.00165824,0.252577,20.7511,660.142,-0.92548,0.0,0.0
6400,1599.75,73.0042,76.2684,115.186,100.937,112.011,0.0014806,0.253426,20.7493,659.482,-0.925867,0.0,0.0
6432,1607.75,73.6526,76.7332,118.82,100.994,111.487,0.00134801,0.255393,20.7461,658.871,-0.879214,0.0,0.0
6464,1615.75,73.6979,77.1818,117.798,101.047,112.193,0.00152335,0.257238,20.7432,658.201,-0.930688,0.0,0.0
6496,1623.75,74.3073,77.2776,116.96,101.091,111.838,0.00135909,0.258215,20.7414,657.59,-0.898604,0.0,0.0
6528,1631.75,73.8224,76.677,115.083,101.116,110.787,0.00160726,0.260059,20.7395,656.97,-0.812422,0.0,0.0
6560,1639.75,74.2286,77.6448,117.072,101.12,111.917,0.00169904,0.260302,20.7373,656.349,-0.902346,0.0,0.0
6592,1647.75,74.4011,77.4872,120.036,101.119,111.716,0.00169756,0.261894,20.7359,655.708,-0.886451,0.0,0.0
6624,1655.75,73.855,77.3168,116.642,101.105,111.888,0.00179234,0.264135,20.7349,655.028,-0.901368,0.0,0.0
6656,1663.75,74.5302,77.3171,119.987,101.098,111.961,0.00171964,0.266289,20.7335,654.337,-0.907818,0.0,0.0
6688,1671.75,74.631,78.1863,117.219,101.066,111.893,0.00148795,0.265619,20.7339,653.667,-0.905147,0.0,0.0
6720,1679.75,74.9736,78.3997,115.824,101.027,111.92,0.00154649,0.267027,20.733,653.036,-0.910714,0.0,0.0
6752,1687.75,75.314,78.498,112.011,100.993,111.262,0.00139337,0.272123,20.7288,652.375,-0.861319,0.0,0.0
6784,1695.75,74.6845,78.2764,114.928,100.954,111.313,0.00150611,0.271819,20.7285,651.675,-0.868801,0.0,0.0
6816,1703.75,75.6478,78.3522,117.9,100.924,111.452,0.00124726,0.27341,20.7245,651.064,-0.882532,0.0,0.0
6848,1711.75,75.8463,78.8132,118.44,100.86,111.543,0.00176437,0.273159,20.7264,650.414,-0.89546,0.0,0.0
6880,1719.75,75.4757,78.7433,117.136,100.774,111.566,0.00196298,0.275499,20.7221,649.743,-0.904858,0.0,0.0
6912,1727.75,75.9822,78.864,116.634,100.655,110.992,0.0017646,0.278661,20.7203,649.022,-0.869475,0.0,0.0
6944,1735.75,76.3441,79.3842,114.142,100.516,110.56,0.00169631,0.276672,20.7215,648.332,-0.847098,0.0,0.0
6976,1743.75,76.2468,80.2679,118.414,100.362,111.096,0.00167858,0.274761,20.7247,647.651,-0.903728,0.0,0.0
7008,1751.75,75.7287,80.2573,117.662,100.208,109.869,0.00204969,0.279983,20.7176,646.981,-0.818628,0.0,0.0
7040,1759.75,76.3184,79.3585,113.747,100.055,109.901,0.00177314,0.280647,20.7154,646.28,-0.834817,0.0,0.0
7072,1767.75,76.1778,79.8485,118.126,99.9365,110.368,0.00139402,0.280093,20.7172,645.629,-0.883091,0.0,0.0
7104,1775.75,75.6295,80.2373,113.151,99.8426,109.962,0.00183534,0.281047,20.7141,644.969,-0.858676,0.0,0.0
7136,1783.75,76.1483,79.9348,115.238,99.76,109.687,0.00185422,0.283302,20.7112,644.288,-0.843747,0.0,0.0
7168,1791.75,76.4002,80.2805,118.211,99.7211,110.043,0.00178205,0.281828,20.7139,643.618,-0.876042,0.0,0.0
7200,1799.75,76.446,80.4465,111.196,99.7251,109.543,0.00174858,0.284477,20.7106,642.947,-0.835199,0.0,0.0
7232,1807.75,76.9394,79.9896,116.868,99.8262,110.375,0.0021157,0.282753,20.7132,642.206,-0.893456,0.0,0.0
7264,1815.75,76.4009,80.1375,116.734,99.9814,110.409,0.00164603,0.283173,20.7128,641.566,-0.882351,0.0,0.0
7296,1823.75,76.8154,81.1297,113.486,100.088,110.133,0.00145275,0.284154,20.7098,640.815,-0.850699,0.0,0.0
7328,1831.75,77.0104,80.2615,117.013,100.193,110.743,0.00160278,0.284285,20.7096,640.174,-0.890439,0.0,0.0
7360,1839.75,76.5781,80.2633,112.705,100.329,110.078,0.00144195,0.283318,20.712,639.484,-0.824842,0.0,0.0
7392,1847.75,77.0864,80.6513,113.316,100.463,110.645,0.00162973,0.284093,20.7113,638.793,-0.858644,0.0,0.0
7424,1855.75,76.8831,80.3689,118.301,100.617,110.504,0.00136761,0.284908,20.7103,638.183,-0.833714,0.0,0.0
7456,1863.75,76.8667,80.6999,114.575,100.744,111.424,0.00144825,0.284618,20.7099,637.502,-0.896158,0.0,0.0
7488,1871.75,77.3238,80.8784,115.206,100.816,111.001,0.00188908,0.287023,20.7078,636.781,-0.856029,0.0,0.0
7520,1879.75,77.6718,80.7644,114.459,100.885,111.259,0.00184969,0.287487,20.7054,636.141,-0.870539,0.0,0.0
7552,1887.75,76.9621,80.5182,116.649,100.925,110.917,0.00162342,0.28713,20.7066,635.39,-0.839644,0.0,0.0
7584,1895.75,77.6693,80.8529,114.807,100.956,110.974,0.00163607,0.286586,20.7058,634.73,-0.841495,0.0,0.0
7616,1903.75,77.0983,81.5694,115.728,100.962,111.388,0.00183397,0.286346,20.7064,634.029,-0.874085,0.0,0.0
7648,1911.75,77.7741,80.5867,113.716,100.959,110.871,0.00188059,0.28871,20.703,633.338,-0.832931,0.0,0.0
7680,1919.75,76.9299,81.1723,115.077,100.93,111.142,0.00163795,0.287404,20.7035,632.708,-0.857277,0.0,0.0
7712,1927.75,77.4328,81.2454,117.306,100.894,110.708,0.00146829,0.291335,20.6995,632.037,-0.825606,0.0,0.0
7744,1935.75,78.2478,81.1,116.782,100.863,110.827,0.00155538,0.291795,20.7015,631.407,-0.837956,0.0,0.0
7776,1943.75,77.9987,81.4008,113.59,100.814,110.919,0.00186294,0.292715,20.6984,630.706,-0.849548,0.0,0.0
7808,1951.75,78.0382,81.5913,117.209,100.79,110.832,0.00196415,0.291253,20.7013,629.995,-0.844827,0.0,0.0
7840,1959.75,78.1416,81.1872,117.524,100.768,110.954,0.00190967,0.291652,20.6998,629.295,-0.856498,0.0,0.0
7872,1967.75,77.7634,81.8107,114.77,100.752,111.463,0.00208077,0.290631,20.7009,628.604,-0.898639,0.0,0.0
7904,1975.75,77.4882,81.5149,116.126,100.735,110.992,0.00178123,0.288146,20.7025,627.964,-0.862425,0.0,0.0
7936,1983.75,78.1195,81.4145,118.942,100.706,110.585,0.00183586,0.288829,20.7033,627.293,-0.832279,0.0,0.0
7968,1991.75,78.0786,81.268,115.328,100.686,110.809,0.00160913,0.289678,20.7033,626.582,-0.852088,0.0,0.0
8000,1999.75,77.8883,81.3446,114.448,100.69,110.995,0.00153919,0.28791,20.7036,625.932,-0.866715,0.0,0.0
8032,2007.75,78.2101,81.6943,116.408,100.666,110.568,0.00167816,0.290433,20.7009,625.371,-0.834556,0.0,0.0
8064,2015.75,77.825,81.7212,116.472,100.641,110.988,0.00161902,0.289655,20.7006,624.671,-0.870463,0.0,0.0
8096,2023.75,78.5989,82.3117,115.028,100.606,111.047,0.00169124,0.289576,20.7012,624.01,-0.878223,0.0,0.0
8128,2031.75,78.3729,82.0858,114.841,100.577,111.294,0.00166008,0.289542,20.7013,623.309,-0.900643,0.0,0.0
8160,2039.75,78.4201,81.6696,116.308,100.565,110.552,0.00152792,0.287448,20.7018,622.609,-0.842084,0.0,0.0
8192,2047.75,77.8024,81.4699,117.592,100.561,111.49,0.00191404,0.290124,20.7005,621.958,-0.917623,0.0,0.0
8224,2055.75,78.227,81.7199,118.538,100.562,110.606,0.00177633,0.290267,20.7008,621.227,-0.846737,0.0,0.0
8256,2063.75,78.005,82.0126,111.347,100.534,110.965,0.00195995,0.290957,20.6987,620.647,-0.878025,0.0,0.0
8288,2071.75,77.8775,81.8104,115.22,100.512,110.508,0.00186595,0.288076,20.7014,619.976,-0.843262,0.0,0.0
8320,2079.75,78.1554,82.1557,114.561,100.508,110.435,0.00169489,0.289731,20.6982,619.366,-0.837759,0.0,0.0
8352,2087.75,78.2443,82.2065,113.979,100.509,110.698,0.00151411,0.291389,20.696,618.685,-0.85882,0.0,0.0
8384,2095.75,78.2817,81.779,115.103,100.493,111.147,0.0015409,0.291665,20.6954,618.025,-0.896245,0.0,0.0
8416,2103.75,78.8551,82.0034,114.925,100.45,110.796,0.00146334,0.291006,20.6967,617.304,-0.871865,0.0,0.0
8448,2111.75,78.4115,82.164,114.129,100.424,110.779,0.00164423,0.290477,20.6976,616.733,-0.87284,0.0,0.0
8480,2119.75,77.8029,82.1508,115.338,100.415,110.987,0.00191922,0.289539,20.7,616.043,-0.890298,0.0,0.0
8512,2127.75,78.7125,82.1688,116.565,100.38,110.36,0.00186679,0.288621,20.7003,615.372,-0.843083,0.0,0.0
8544,2135.75,78.5744,81.7901,114.774,100.325,110.214,0.00151639,0.289123,20.6995,614.692,-0.836113,0.0,0.0
8576,2143.75,78.5136,81.766,114.949,100.276,110.25,0.00185014,0.292,20.6972,613.991,-0.843386,0.0,0.0
8608,2151.75,78.0091,82.4259,115.542,100.232,110.568,0.00151448,0.290217,20.7002,613.42,-0.872947,0.0,0.0
8640,2159.75,78.6917,82.1142,113.458,100.187,110.246,0.00193971,0.289669,20.7015,612.75,-0.851033,0.0,0.0
8672,2167.75,78.3991,82.0211,113.226,100.264,110.617,0.00186095,0.289804,20.6972,612.109,-0.874036,0.0,0.0
8704,2175.75,78.4992,81.8645,120.144,100.311,110.973,0.00177604,0.289274,20.6969,611.439,-0.898388,0.0,0.0
8736,2183.75,78.6317,82.1745,117.633,100.364,110.362,0.00181362,0.290457,20.6959,610.798,-0.844615,0.0,0.0
8768,2191.75,78.759,81.7915,120.959,100.433,110.417,0.00192631,0.289843,20.6974,610.108,-0.842917,0.0,0.0
8800,2199.75,78.8451,82.3087,115.429,100.5,111.123,0.00175199,0.289739,20.6972,609.437,-0.893702,0.0,0.0
8832,2207.75,78.4858,82.1855,115.852,100.535,110.843,0.00176724,0.290551,20.6967,608.806,-0.868159,0.0,0.0
8864,2215.75,78.6476,82.3444,117.147,100.548,110.937,0.00210953,0.289689,20.6998,608.166,-0.874551,0.0,0.0
8896,2223.75,78.7734,82.4482,118.724,100.575,111.342,0.00193154,0.289455,20.7002,607.555,-0.904516,0.0,0.0
8928,2231.75,78.6702,82.3523,115.352,100.61,110.654,0.00184737,0.289172,20.7005,606.885,-0.846379,0.0,0.0
8960,2239.75,78.6178,81.9773,113.91,100.632,110.924,0.00165805,0.287898,20.7011,606.254,-0.866131,0.0,0.0
8992,2247.75,78.8606,82.2069,113.966,100.632,111.088,0.00140151,0.287636,20.7016,605.563,-0.879227,0.0,0.0
9024,2255.75,78.5304,82.1773,113.758,100.626,110.469,0.00177612,0.28715,20.6998,604.903,-0.830043,0.0,0.0
9056,2263.75,78.5769,82.4555,113.663,100.619,110.228,0.00204873,0.286439,20.7006,604.262,-0.811211,0.0,0.0
9088,2271.75,78.6285,82.1419,118.072,100.591,111.058,0.00188095,0.286124,20.7011,603.662,-0.880436,0.0,0.0
9120,2279.75,78.6035,82.0539,116.953,100.536,110.605,0.00178215,0.284879,20.7027,603.001,-0.848936,0.0,0.0
9152,2287.75,78.4378,82.1316,113.817,100.437,110.385,0.00133364,0.283683,20.7051,602.391,-0.839994,0.0,0.0
9184,2295.75,78.804,82.0799,114.21,100.311,110.083,0.00174709,0.283335,20.7054,601.8,-0.82677,0.0,0.0
9216,2303.75,78.5377,81.8517,115.911,100.328,110.828,0.00194477,0.281322,20.7047,601.21,-0.885262,0.0,0.0
9248,2311.75,78.3461,81.4402,116.898,100.376,110.342,0.00171206,0.280303,20.7085,600.569,-0.84192,0.0,0.0
9280,2319.75,78.1097,81.8534,117.8,100.421,110.603,0.00163028,0.278015,20.7103,599.918,-0.859017,0.0,0.0
9312,2327.75,77.9608,81.637,116.862,100.465,111.123,0.00167727,0.278098,20.7091,599.288,-0.896862,0.0,0.0
9344,2335.75,78.4067,81.8806,115.136,100.526,110.655,0.00151782,0.277631,20.7085,598.657,-0.853865,0.0,0.0
9376,2343.75,77.9341,81.6411,113.948,100.582,110.698,0.00161426,0.27527,20.7133,598.047,-0.852327,0.0,0.0
9408,2351.75,77.4218,81.5189,116.945,100.648,110.761,0.00145694,0.27366,20.7163,597.436,-0.851599,0.0,0.0
9440,2359.75,77.3443,81.7979,114.681,100.73,110.759,0.00131542,0.27215,20.7157,596.826,-0.844226,0.0,0.0
9472,2367.75,77.8551,80.9581,117.943,100.798,110.648,0.00142765,0.270202,20.7191,596.205,-0.829332,0.0,0.0
9504,2375.75,77.4559,81.3404,113.179,100.856,110.866,0.00176116,0.269502,20.7222,595.715,-0.841655,0.0,0.0
9536,2383.75,77.4397,80.8844,112.894,100.934,111.078,0.00178919,0.267305,20.7246,595.104,-0.851783,0.0,0.0
9568,2391.75,77.4996,80.7375,120.038,100.984,111.483,0.001639,0.2639,20.7276,594.554,-0.879668,0.0,0.0
9600,2399.75,77.0502,80.6298,111.731,101.041,111.39,0.00159281,0.26261,20.7274,593.923,-0.86727,0.0,0.0
9632,2407.75,77.4263,80.8548,117.85,101.098,110.838,0.00148659,0.260402,20.729,593.302,-0.818048,0.0,0.0
9664,2415.75,77.0427,80.5988,116.704,101.14,111.975,0.00168665,0.258499,20.7322,592.752,-0.90515,0.0,0.0
9696,2423.75,75.7008,80.4847,115.448,101.159,111.73,0.00158146,0.257183,20.7334,592.221,-0.884067,0.0,0.0
9728,2431.75,75.9254,80.8588,118.878,101.157,111.291,0.00176659,0.255624,20.7357,591.631,-0.849181,0.0,0.0
9760,2439.75,76.4044,79.6821,115.908,101.185,111.343,0.00180253,0.254213,20.7392,591.13,-0.850874,0.0,0.0
9792,2447.75,76.2811,79.6234,117.876,101.181,111.937,0.00149874,0.250491,20.7422,590.61,-0.898485,0.0,0.0
9824,2455.75,76.0403,79.453,115.921,101.189,111.691,0.00168229,0.250382,20.7418,590.11,-0.878278,0.0,0.0
9856,2463.75,76.0282,78.9951,114.237,101.189,111.593,0.00179606,0.246595,20.7438,589.629,-0.870513,0.0,0.0
9888,2471.75,75.7571,79.5189,113.552,101.2,111.422,0.00157817,0.244561,20.7472,589.089,-0.855917,0.0,0.0
9920,2479.75,75.8084,78.9455,116.35,101.213,111.983,0.00131332,0.242165,20.7486,588.518,-0.899445,0.0,0.0
9952,2487.75,75.1724,79.282,117.55,101.22,111.474,0.00144628,0.238114,20.7518,588.058,-0.858311,0.0,0.0
9984,2495.75,75.3421,78.5248,113.316,101.23,111.459,0.00136883,0.234032,20.7559,587.557,-0.856177,0.0,0.0
10016,2503.75,74.6252,78.122,119.813,101.226,112.082,0.00122272,0.227227,20.7642,587.107,-0.90616,0.0,0.0
10048,2511.75,74.3978,77.8214,117.003,101.22,112.193,0.00166725,0.220007,20.7704,586.757,-0.915415,0.0,0.0
10080,2519.75,74.1889,77.2356,119.896,101.229,111.809,0.00160306,0.211008,20.7784,586.366,-0.884152,0.0,0.0
10112,2527.75,73.3061,76.8196,119.622,101.238,112.266,0.00160433,0.197256,20.7943,586.066,-0.919665,0.0,0.0
10144,2535.75,72.6454,76.127,117.966,101.226,112.434,0.00143918,0.18079,20.8114,585.756,-0.933982,0.0,0.0
10176,2543.75,71.1501,75.3265,120.581,101.215,112.382,0.00128234,0.159501,20.8374,585.475,-0.930847,0.0,0.0
10208,2551.75,70.3303,74.4341,119.942,101.211,112.638,0.00133703,0.14419,20.8522,585.155,-0.951398,0.0,0.0
10240,2559.75,69.2319,72.6868,118.495,101.211,112.94,0.00178567,0.135137,20.8629,584.985,-0.975228,0.0,0.0
10272,2567.75,68.511,71.9915,120.911,101.191,112.714,0.00138911,0.128924,20.8707,584.895,-0.959256,0.0,0.0
10304,2575.75,67.886,71.1648,124.381,101.183,112.839,0.00120307,0.122232,20.8782,584.745,-0.969772,0.0,0.0
10336,2583.75,66.8042,70.3117,123.643,101.182,112.839,0.00151778,0.118016,20.8861,584.605,-0.969842,0.0,0.0
10368,2591.75,66.5664,69.6718,121.722,101.197,113.485,0.0013955,0.114794,20.891,584.444,-1.01925,0.0,0.0
10400,2599.75,65.9551,69.2286,119.911,101.215,113.597,0.00181372,0.11366,20.8911,584.424,-1.02657,0.0,0.0
10432,2607.75,65.2278,68.9284,120.7,101.221,112.945,0.00168928,0.11148,20.8976,584.314,-0.974772,0.0,0.0
10464,2615.75,65.4261,67.5363,119.529,101.228,113.196,0.00174735,0.110116,20.8985,584.214,-0.993882,0.0,0.0
10496,2623.75,64.5022,67.1778,119.393,101.219,113.26,0.00135085,0.1076,20.8997,584.054,-0.999736,0.0,0.0
10528,2631.75,63.8152,66.4004,121.307,101.218,113.3,0.00175594,0.106814,20.901,583.914,-1.00291,0.0,0.0
10560,2639.75,63.5131,66.469,120.545,101.205,113.39,0.00177441,0.106113,20.9038,583.784,-1.01115,0.0,0.0
10592,2647.75,63.3138,66.2937,122.832,101.177,113.238,0.00178145,0.105515,20.9018,583.694,-1.00175,0.0,0.0
10624,2655.75,63.0361,65.3868,123.281,101.164,113.264,0.00210218,0.105184,20.9019,583.584,-1.00492,0.0,0.0
10656,2663.75,62.7742,65.3767,121.846,101.127,113.082,0.00209899,0.104393,20.9019,583.504,-0.993871,0.0,0.0
10688,2671.75,62.6186,64.9036,122.177,101.097,113.028,0.00198911,0.104188,20.903,583.404,-0.992243,0.0,0.0
10720,2679.75,62.4489,64.9826,124.066,101.048,112.686,0.00186928,0.103831,20.9063,583.404,-0.969583,0.0,0.0
10752,2687.75,62.4188,64.7408,121.311,101.007,112.982,0.00220929,0.102648,20.9056,583.273,-0.996475,0.0,0.0
10784,2695.75,61.6268,63.907,122.815,100.946,112.724,0.00186742,0.10238,20.9057,583.183,-0.981566,0.0,0.0
10816,2703.75,62.4426,64.2553,123.367,100.894,113.272,0.00207053,0.102508,20.9044,583.003,-1.02928,0.0,0.0
10848,2711.75,62.1186,63.8772,122.744,100.831,112.851,0.00209279,0.101966,20.907,582.913,-1.0017,0.0,0.0
10880,2719.75,62.1389,64.0579,123.653,100.766,112.647,0.00240123,0.101728,20.9064,582.843,-0.991316,0.0,0.0
10912,2727.75,61.6885,63.7522,124.608,100.66,112.322,0.00225509,0.101385,20.9072,582.733,-0.974961,0.0,0.0
10944,2735.75,61.012,63.8348,121.68,100.594,112.758,0.00225754,0.100925,20.907,582.643,-1.01527,0.0,0.0
10976,2743.75,62.0666,63.6647,119.838,100.52,112.178,0.0024238,0.10112,20.9073,582.643,-0.975916,0.0,0.0
11008,2751.75,61.3704,63.3283,120.613,100.462,111.866,0.00240534,0.100493,20.9083,582.523,-0.956357,0.0,0.0
11040,2759.75,61.1077,63.8566,122.538,100.39,112.663,0.0023749,0.100211,20.9106,582.433,-1.0259,0.0,0.0
11072,2767.75,61.1098,63.1048,129.204,100.319,112.308,0.00242906,0.0987737,20.9112,582.343,-1.00403,0.0,0.0
11104,2775.75,61.8547,62.5914,122.229,100.393,112.06,0.00246447,0.0992622,20.9108,582.242,-0.977841,0.0,0.0
11136,2783.75,61.091,62.8784,120.652,100.41,112.248,0.00251048,0.0985493,20.912,582.092,-0.991269,0.0,0.0
11168,2791.75,60.5472,62.6562,122.908,100.371,112.549,0.00264572,0.0984027,20.9112,582.032,-1.01849,0.0,0.0
11200,2799.75,60.6871,62.4689,124.258,100.305,112.278,0.00207027,0.0986788,20.9125,581.962,-1.00297,0.0,0.0
11232,2807.75,60.5377,62.3757,120.938,100.215,111.424,0.00228215,0.0983286,20.9131,581.852,-0.943021,0.0,0.0
11264,2815.75,61.2933,62.8065,125.115,100.155,112.474,0.00242909,0.0984204,20.9148,581.802,-1.03181,0.0,0.0
11296,2823.75,61.0216,62.3701,122.915,100.071,111.896,0.00254005,0.0981522,20.9149,581.742,-0.993438,0.0,0.0
11328,2831.75,60.1331,63.0644,121.329,100.001,110.972,0.00235389,0.097737,20.9146,581.672,-0.925812,0.0,0.0
11360,2839.75,60.4001,62.4768,120.12,99.9493,111.826,0.0025319,0.0974716,20.9136,581.572,-0.99864,0.0,0.0
11392,2847.75,60.6433,62.1717,124.443,99.8996,111.497,0.00283915,0.0973088,20.9106,581.432,-0.976886,0.0,0.0
11424,2855.75,60.179,62.4062,122.331,99.8526,111.504,0.00285485,0.0972706,20.9134,581.392,-0.981637,0.0,0.0
11456,2863.75,60.3023,61.856,122.663,99.837,112.163,0.00267602,0.0962221,20.9148,581.312,-1.03542,0.0,0.0
11488,2871.75,59.8657,62.463,123.618,99.8498,111.759,0.00245382,0.0966033,20.9157,581.232,-1.00221,0.0,0.0
11520,2879.75,60.0142,62.3477,119.987,99.8779,112.239,0.0025399,0.0966378,20.9153,581.132,-1.03779,0.0,0.0
11552,2887.75,60.031,62.0065,124.137,99.8891,112.255,0.00299054,0.0963529,20.9138,581.081,-1.03807,0.0,0.0
11584,2895.75,60.1799,62.4129,120.667,99.9052,111.446,0.00275025,0.0957079,20.9143,581.041,-0.972301,0.0,0.0
11616,2903.75,59.58,61.2095,120.322,99.932,111.827,0.00269053,0.0961958,20.9129,581.001,-1.00032,0.0,0.0
11648,2911.75,59.9979,61.6756,121.514,99.9826,111.598,0.00274984,0.0956966,20.9137,580.911,-0.977588,0.0,0.0
11680,2919.75,59.7995,61.9019,124.777,100.038,111.836,0.00275304,0.096294,20.9134,580.841,-0.991649,0.0,0.0
11712,2927.75,59.7491,61.7218,123.899,100.114,112.27,0.00260426,0.09528,20.9136,580.711,-1.01923,0.0,0.0
11744,2935.75,59.4382,62.1893,124.343,100.147,111.642,0.00286787,0.09743,20.9111,580.681,-0.966442,0.0,0.0
11776,2943.75,60.0554,62.2179,120.602,100.186,111.378,0.00301961,0.0964594,20.9122,580.541,-0.941964,0.0,0.0
11808,2951.75,59.1902,62.4205,121.286,100.212,112.014,0.00259922,0.0957961,20.9146,580.461,-0.990316,0.0,0.0
11840,2959.75,59.0473,62.4222,122.5,100.256,112.069,0.00291996,0.0955722,20.9142,580.421,-0.99075,0.0,0.0
11872,2967.75,59.8071,61.2212,122.114,100.274,111.835,0.00277573,0.0951107,20.914,580.341,-0.970563,0.0,0.0
11904,2975.75,59.2397,61.798,127.052,100.291,111.829,0.00272388,0.0949711,20.9164,580.321,-0.968534,0.0,0.0
11936,2983.75,58.9988,62.0216,122.677,100.293,111.948,0.00327418,0.0948529,20.9187,580.261,-0.977814,0.0,0.0
11968,2991.75,59.6374,61.3318,121.674,100.295,112.196,0.00317855,0.0947117,20.9189,580.171,-0.997379,0.0,0.0
12000,2999.75,59.5293,61.7573,118.583,100.327,111.355,0.00335786,0.0947618,20.9159,580.021,-0.92761,0.0,0.0
12032,3007.75,59.5338,61.517,121.461,100.293,112.544,0.00347465,0.0950422,20.9162,579.94,-1.02503,0.0,0.0
12064,3015.75,60.1716,61.1831,120.508,100.289,112.356,0.00296668,0.0947531,20.9159,579.89,-1.01054,0.0,0.0
12096,3023.75,59.2738,61.8307,121.175,100.292,112.166,0.00277316,0.0935737,20.9177,579.83,-0.995278,0.0,0.0
12128,3031.75,59.6111,61.0341,124.83,100.296,111.808,0.00306323,0.094308,20.9162,579.79,-0.966428,0.0,0.0
12160,3039.75,59.1097,61.1994,122.446,100.323,112.159,0.00302368,0.0938212,20.9181,579.69,-0.991935,0.0,0.0
12192,3047.75,59.2144,61.1095,124.256,100.359,112.217,0.00284508,0.0937567,20.9163,579.68,-0.993363,0.0,0.0
12224,3055.75,59.3627,61.218,121.947,100.359,112.279,0.00276809,0.0937551,20.9163,579.64,-0.998201,0.0,0.0
12256,3063.75,58.8814,60.8521,120.998,100.365,112.702,0.00309806,0.0940799,20.9166,579.52,-1.03111,0.0,0.0
12288,3071.75,59.1773,61.1802,122.18,100.358,112.512,0.0029316,0.0933382,20.9193,579.4,-1.01671,0.0,0.0
12320,3079.75,59.0113,60.7771,124.208,100.36,112.038,0.00277751,0.0932318,20.919,579.32,-0.979045,0.0,0.0
12352,3087.75,58.8969,61.0845,120.851,100.379,112.244,0.00294807,0.0933018,20.9184,579.26,-0.993685,0.0,0.0
12384,3095.75,59.1822,61.141,124.021,100.406,112.32,0.00286567,0.0931542,20.9188,579.21,-0.99728,0.0,0.0
12416,3103.75,59.2703,60.9223,120.846,100.425,112.11,0.00300573,0.0925525,20.919,579.14,-0.979025,0.0,0.0
12448,3111.75,59.2549,60.9261,122.902,100.464,112.616,0.00302519,0.0933483,20.9186,579.13,-1.0156,0.0,0.0
12480,3119.75,58.7468,60.9626,124.172,100.482,112.592,0.00323836,0.0945277,20.9185,579.03,-1.01205,0.0,0.0
12512,3127.75,58.8327,60.7844,123.826,100.51,112.308,0.00294861,0.0944791,20.9178,578.96,-0.987194,0.0,0.0
12544,3135.75,58.9324,60.7217,120.177,100.522,112.428,0.00307948,0.0931772,20.9201,578.92,-0.995548,0.0,0.0
12576,3143.75,58.8711,60.8211,122.364,100.577,112.495,0.00294577,0.0932517,20.9205,578.769,-0.996085,0.0,0.0
12608,3151.75,59.1405,61.0077,124.133,100.619,112.21,0.00288984,0.0931632,20.9205,578.759,-0.969719,0.0,0.0
12640,3159.75,58.4923,60.8585,120.411,100.65,112.322,0.00271323,0.0925014,20.9187,578.719,-0.975918,0.0,0.0
12672,3167.75,58.4236,61.3573,128.631,100.713,112.449,0.00255925,0.0921599,20.9198,578.589,-0.980342,0.0,0.0
12704,3175.75,58.6885,61.0014,125.253,100.763,112.153,0.00300266,0.092322,20.9186,578.509,-0.95255,0.0,0.0
12736,3183.75,58.9084,60.876,124.26,100.844,112.901,0.00282459,0.0925044,20.92,578.529,-1.00453,0.0,0.0
12768,3191.75,58.6561,60.649,124.256,100.921,112.787,0.00283902,0.092551,20.9212,578.479,-0.988717,0.0,0.0
12800,3199.75,58.2891,60.6791,123.092,100.995,112.978,0.00269818,0.0920794,20.9197,578.429,-0.997252,0.0,0.0
12832,3207.75,58.5242,60.7871,123.189,101.025,113.106,0.00262392,0.0917156,20.9203,578.329,-1.00471,0.0,0.0
12864,3215.75,58.3506,60.5489,120.725,101.066,112.514,0.00259542,0.0922258,20.9189,578.189,-0.954375,0.0,0.0
12896,3223.75,58.2256,60.4875,118.702,101.076,113.386,0.0025566,0.091975,20.9212,578.149,-1.02216,0.0,0.0
12928,3231.75,58.6682,60.5682,125.977,101.092,113.111,0.00250554,0.0919133,20.9212,578.069,-0.999236,0.0,0.0
12960,3239.75,58.7347,59.5581,124.259,101.097,113.097,0.00288214,0.091965,20.9211,577.989,-0.997682,0.0,0.0
12992,3247.75,58.0696,60.889,123.33,101.11,112.932,0.00253396,0.0918705,20.9208,577.939,-0.983478,0.0,0.0
13024,3255.75,58.8391,59.8409,119.623,101.125,113.341,0.00288963,0.092341,20.9223,577.899,-1.01437,0.0,0.0
13056,3263.75,58.4214,60.4529,118.986,101.125,113.449,0.00269285,0.0918457,20.924,577.899,-1.02282,0.0,0.0
13088,3271.75,58.7415,60.8581,122.472,101.129,112.696,0.00251588,0.0916388,20.9215,577.809,-0.96327,0.0,0.0
13120,3279.75,58.4395,60.6715,121.792,101.133,112.86,0.00277985,0.0909168,20.9228,577.748,-0.975807,0.0,0.0
13152,3287.75,58.3214,60.3147,123.624,101.127,113.384,0.0028714,0.0916526,20.9218,577.638,-1.0175,0.0,0.0
13184,3295.75,58.3478,60.6729,123.405,101.134,112.669,0.00246799,0.091716,20.9223,577.518,-0.96065,0.0,0.0
13216,3303.75,58.4784,60.3373,122.909,101.117,112.723,0.00285822,0.0918343,20.9231,577.478,-0.966419,0.0,0.0
13248,3311.75,58.0596,60.7034,124.025,101.104,112.859,0.00288813,0.0916627,20.9222,577.438,-0.978347,0.0,0.0
13280,3319.75,58.1188,60.3468,123.918,101.104,113.278,0.00253765,0.091233,20.922,577.418,-1.0113,0.0,0.0
13312,3327.75,58.0563,60.0691,121.592,101.08,113.703,0.00243024,0.0915035,20.922,577.368,-1.04667,0.0,0.0
13344,3335.75,58.2216,60.3448,121.475,101.066,113.492,0.00296396,0.0914506,20.9236,577.358,-1.03132,0.0,0.0
13376,3343.75,57.791,60.2538,122.921,101.042,113.276,0.00305811,0.0912566,20.9211,577.298,-1.01656,0.0,0.0
13408,3351.75,58.1159,60.2097,121.583,101.002,112.808,0.00263888,0.0914449,20.9199,577.218,-0.983243,0.0,0.0
13440,3359.75,58.0459,60.5394,125.162,100.969,113.227,0.00276558,0.0916788,20.9191,577.128,-1.01911,0.0,0.0
13472,3367.75,58.0553,59.9782,121.356,100.938,112.897,0.00284636,0.0914837,20.921,577.008,-0.995938,0.0,0.0
13504,3375.75,58.1984,60.4145,121.443,100.902,112.213,0.00304517,0.0914713,20.9211,576.958,-0.945009,0.0,0.0
13536,3383.75,58.4467,60.0963,122.562,100.877,112.959,0.00295593,0.0915148,20.923,576.878,-1.00616,0.0,0.0
13568,3391.75,57.8825,60.4058,122.575,100.828,112.809,0.00279745,0.0910652,20.9242,576.838,-0.998727,0.0,0.0
13600,3399.75,57.4976,60.4727,125.876,100.774,112.746,0.00277305,0.0907667,20.9243,576.788,-0.99844,0.0,0.0
13632,3407.75,57.9792,60.5775,123.487,100.735,112.418,0.00299801,0.0916049,20.9233,576.778,-0.976048,0.0,0.0
13664,3415.75,58.2317,60.0953,126.639,100.682,113.004,0.00260276,0.0905122,20.9233,576.738,-1.02693,0.0,0.0
13696,3423.75,57.2667,60.711,125.74,100.63,112.778,0.00271657,0.0909419,20.9235,576.677,-1.01374,0.0,0.0
13728,3431.75,57.9212,59.8855,123.798,100.563,112.393,0.0026448,0.0910477,20.9216,576.587,-0.989264,0.0,0.0
13760,3439.75,57.714,60.354,124.972,100.506,112.327,0.00262957,0.0904291,20.9258,576.527,-0.989042,0.0,0.0
13792,3447.75,58.1025,59.4073,124.461,100.459,112.605,0.0026211,0.0908496,20.9253,576.367,-1.01518,0.0,0.0
13824,3455.75,58.4085,60.5507,123.239,100.406,112.124,0.00269698,0.091018,20.9228,576.377,-0.981799,0.0,0.0
13856,3463.75,58.0337,60.1572,122.539,100.396,111.914,0.00267529,0.091318,20.922,576.317,-0.965931,0.0,0.0
13888,3471.75,58.2965,60.1247,124.072,100.384,112.114,0.00266316,0.0903728,20.9241,576.287,-0.98297,0.0,0.0
13920,3479.75,57.9188,60.386,121.53,100.393,112.447,0.00275526,0.0905681,20.9223,576.237,-1.00851,0.0,0.0
13952,3487.75,58.3702,60.5818,128.766,100.409,112.178,0.00256991,0.0901443,20.9229,576.207,-0.985823,0.0,0.0
13984,3495.75,58.0064,60.096,124.804,100.4,111.366,0.00261071,0.0906797,20.9213,576.147,-0.921967,0.0,0.0
14016,3503.75,58.413,60.4388,124.601,100.398,112.764,0.00255597,0.0898169,20.9239,576.037,-1.03305,0.0,0.0
14048,3511.75,57.8805,60.0411,124.346,100.399,112.139,0.00265442,0.0900662,20.9245,575.987,-0.983579,0.0,0.0
14080,3519.75,57.6889,59.9986,122.886,100.392,112.271,0.00285837,0.0900324,20.9223,575.917,-0.994682,0.0,0.0
14112,3527.75,58.0092,60.2184,120.794,100.4,111.372,0.00244368,0.0900734,20.9219,575.847,-0.922504,0.0,0.0
14144,3535.75,58.2372,60.0376,126.883,100.415,112.404,0.00239206,0.090018,20.924,575.807,-1.00318,0.0,0.0
14176,3543.75,58.305,59.9711,122.978,100.431,112.824,0.00242648,0.0896968,20.9242,575.747,-1.03492,0.0,0.0
14208,3551.75,58.3442,60.0502,122.831,100.428,112.119,0.00221627,0.0896397,20.9227,575.677,-0.979418,0.0,0.0
14240,3559.75,57.958,59.9297,123.329,100.434,112.465,0.00243113,0.0888217,20.9218,575.627,-1.00634,0.0,0.0
14272,3567.75,57.4665,60.3122,121.374,100.433,112.219,0.00275579,0.0896133,20.9218,575.637,-0.986968,0.0,0.0
14304,3575.75,58.183,60.4835,123.378,100.471,112.615,0.00231097,0.089219,20.9259,575.557,-1.01489,0.0,0.0
14336,3583.75,57.5272,59.9568,125.03,100.485,112.322,0.00218145,0.0891436,20.9255,575.436,-0.990532,0.0,0.0
14368,3591.75,57.858,60.0143,121.755,100.509,112.347,0.00238684,0.08936,20.9253,575.366,-0.990393,0.0,0.0
14400,3599.75,58.0218,60.2915,124.889,100.506,112.351,0.00229798,0.0892681,20.9248,575.336,-0.990962,0.0,0.0
14432,3607.75,56.5749,58.2795,124.679,100.522,112.652,0.00230805,0.0896706,20.9233,575.266,-1.01333,0.0,0.0
14464,3615.75,56.0784,58.3515,127.413,100.513,112.516,0.00262098,0.0894246,20.9248,575.236,-1.0034,0.0,0.0
14496,3623.75,56.9577,58.901,123.979,100.546,112.808,0.00238558,0.0889791,20.9239,575.186,-1.02349,0.0,0.0
14528,3631.75,56.518,58.6595,121.108,100.575,112.898,0.00239319,0.0891075,20.9245,575.176,-1.02805,0.0,0.0
14560,3639.75,56.281,58.0658,123.94,100.611,112.638,0.00220894,0.088874,20.9233,575.096,-1.00432,0.0,0.0
14592,3647.75,56.5419,58.7469,117.965,100.647,112.734,0.00211141,0.0884902,20.9251,575.036,-1.00875,0.0,0.0
14624,3655.75,56.7299,58.0598,120.285,100.65,112.467,0.00227156,0.0924948,20.9182,574.966,-0.987431,0.0,0.0
14656,3663.75,56.3208,58.9802,119.104,100.636,112.436,0.00268784,0.0952565,20.9159,574.846,-0.986186,0.0,0.0
14688,3671.75,56.5778,58.5644,124.498,100.611,111.972,0.0025376,0.091273,20.922,574.796,-0.951616,0.0,0.0
14720,3679.75,57.196,59.3854,124.08,100.608,112.371,0.0022182,0.0903025,20.922,574.766,-0.983515,0.0,0.0
14752,3687.75,56.6009,58.5801,119.735,100.598,112.266,0.00266333,0.0895893,20.9242,574.676,-0.976082,0.0,0.0
14784,3695.75,56.3541,58.5798,123.774,100.617,112.695,0.0030019,0.0890428,20.9271,574.636,-1.00829,0.0,0.0
14816,3703.75,56.5615,58.0037,122.837,100.647,112.223,0.00269506,0.0896098,20.9261,574.626,-0.968305,0.0,0.0
14848,3711.75,55.611,58.3896,121.18,100.653,112.326,0.00286185,0.0896939,20.9242,574.586,-0.975955,0.0,0.0
14880,3719.75,56.7911,58.1416,121.079,100.649,112.261,,,,574.516,-0.971152,0.0,0.0
14900,3724.75,55.9276,58.5299,123.374,100.636,112.663,,,,574.425,-1.00411,0.0,0.0