File: 01_Data/XPS_Foam_Board/MCC/XPS_Foam_Board_MCC_30K_min_220120_R3_FINAL_MASS.txt
Sample ID:	C:\MCC\MCC Cal\Test\XPS_Foam_Board_MCC_30K_min_220120_R3.txt
Sample Weight (mg):	4.33
Heating Rate (C/s):	0.5
Combustor Temp (C):	900
N2 Flow Rate (cc/min):	80
O2 Flow Rate (cc/min):	20
Calibration File:	C:\MCC\MCC Cal\Coeff1 JN10440_30_210304.txt.txt
T Correction Coefficients:	0	1.024463	0
Time Shift (s):	14
*
Time (s)	Temperature (C)	N2 flow rate (cc/min)	O2 flow rate (cc/min)	Flow Rate (cc/min)	Oxygen (%)	HRR (W/g)	Heating rate (C/s)
-0.001	111.427	80.006	19.994	103.753	20.122	0.063	0.002
2.000	111.452	80.005	19.993	103.745	20.122	0.010	0.020
4.000	111.475	80.005	19.996	103.751	20.120	0.180	0.003
6.000	111.445	80.006	19.995	103.752	20.120	0.188	-0.011
8.000	111.486	80.007	19.994	103.748	20.120	0.154	0.036
10.000	111.449	80.005	19.995	103.750	20.121	0.139	0.006
12.000	111.423	80.006	19.993	103.739	20.118	0.334	-0.003
14.000	111.416	80.006	19.994	103.750	20.115	0.572	-0.003
16.000	111.452	80.006	19.993	103.758	20.120	0.156	0.003
18.000	111.420	80.005	19.994	103.784	20.112	0.752	-0.006
20.000	111.462	80.002	19.993	103.803	20.112	0.816	0.028
22.000	111.470	80.003	19.995	103.831	20.107	1.156	0.043
24.000	111.542	80.004	19.994	103.854	20.108	1.103	0.019
26.000	111.657	80.003	19.994	103.854	20.105	1.329	0.028
28.000	111.757	80.004	19.993	103.839	20.102	1.504	0.046
30.000	111.877	80.005	19.995	103.834	20.101	1.608	0.024
32.000	111.973	80.003	19.994	103.837	20.101	1.623	0.037
33.999	112.128	80.003	19.994	103.849	20.103	1.443	0.083
35.999	112.307	80.004	19.994	103.862	20.097	1.893	0.074
37.999	112.464	80.003	19.995	103.887	20.098	1.862	0.096
39.999	112.690	80.004	19.994	103.891	20.091	2.350	0.116
41.999	112.887	80.005	19.994	103.915	20.091	2.351	0.121
43.999	113.125	80.004	19.994	103.939	20.088	2.583	0.093
45.999	113.418	80.004	19.994	103.952	20.082	3.051	0.127
47.999	113.720	80.005	19.993	103.970	20.087	2.698	0.170
49.999	114.050	80.003	19.994	103.955	20.081	3.102	0.138
51.999	114.430	80.004	19.993	103.963	20.078	3.308	0.204
53.999	114.803	80.004	19.994	103.980	20.075	3.589	0.188
55.999	115.193	80.004	19.993	103.976	20.076	3.513	0.201
57.999	115.653	80.002	19.994	103.976	20.075	3.560	0.228
59.999	116.121	80.003	19.993	103.984	20.075	3.585	0.271
61.999	116.603	80.006	19.993	103.990	20.072	3.753	0.259
63.999	117.094	80.004	19.996	103.992	20.074	3.628	0.248
65.999	117.625	80.005	19.993	103.990	20.076	3.458	0.266
67.999	118.176	80.005	19.993	103.986	20.074	3.657	0.280
69.999	118.798	80.006	19.994	103.988	20.073	3.733	0.298
71.999	119.353	80.005	19.993	103.990	20.068	4.055	0.315
73.999	119.930	80.005	19.993	103.985	20.071	3.846	0.295
75.999	120.607	80.005	19.993	103.986	20.072	3.780	0.340
78.000	121.265	80.004	19.993	103.996	20.072	3.781	0.296
80.000	121.928	80.004	19.994	103.993	20.073	3.687	0.347
81.999	122.610	80.004	19.996	103.995	20.073	3.717	0.338
84.000	123.282	80.004	19.993	103.996	20.070	3.934	0.354
85.999	123.989	80.006	19.993	103.997	20.069	3.984	0.366
88.000	124.711	80.007	19.992	104.007	20.067	4.150	0.338
89.999	125.435	80.005	19.993	104.023	20.066	4.238	0.366
91.999	126.194	80.006	19.994	104.010	20.065	4.308	0.390
93.999	126.966	80.006	19.994	103.999	20.064	4.374	0.395
96.000	127.756	80.006	19.996	104.002	20.067	4.133	0.383
97.999	128.561	80.005	19.995	104.001	20.070	3.951	0.407
99.999	129.397	80.004	19.994	104.002	20.064	4.374	0.432
102.000	130.172	80.004	19.994	104.003	20.065	4.323	0.383
103.999	130.964	80.001	19.993	103.995	20.061	4.612	0.383
105.999	131.817	80.003	19.995	103.994	20.067	4.165	0.407
107.999	132.662	80.004	19.993	103.993	20.063	4.471	0.432
109.999	133.522	80.004	19.994	103.993	20.064	4.398	0.426
111.999	134.382	80.004	19.994	104.009	20.065	4.317	0.421
113.999	135.231	80.004	19.994	103.996	20.064	4.352	0.422
115.999	136.086	80.004	19.993	104.000	20.065	4.329	0.445
117.999	137.007	80.003	19.993	104.010	20.063	4.423	0.461
119.999	137.904	80.004	19.995	103.995	20.065	4.314	0.462
121.999	138.776	80.003	19.994	103.994	20.063	4.425	0.417
123.999	139.721	80.004	19.996	104.009	20.065	4.323	0.466
125.999	140.630	80.004	19.996	104.013	20.066	4.265	0.445
127.999	141.573	80.003	19.995	104.009	20.061	4.596	0.443
130.000	142.510	80.002	19.995	104.008	20.063	4.451	0.494
132.000	143.454	80.003	19.996	103.999	20.067	4.156	0.460
134.000	144.407	80.002	19.994	104.015	20.062	4.507	0.474
136.000	145.342	80.002	19.994	104.016	20.065	4.335	0.477
138.000	146.280	80.003	19.994	104.008	20.060	4.717	0.461
140.000	147.271	80.004	19.995	104.014	20.061	4.632	0.488
142.000	148.179	80.002	19.993	104.006	20.058	4.813	0.484
144.000	149.138	80.002	19.994	103.998	20.062	4.534	0.489
146.000	150.144	80.005	19.993	103.994	20.060	4.651	0.463
148.000	151.090	80.005	19.993	103.998	20.063	4.450	0.476
150.000	152.088	80.004	19.994	103.996	20.061	4.606	0.496
152.000	153.007	80.003	19.992	103.995	20.063	4.493	0.462
154.000	153.989	80.005	19.995	104.009	20.067	4.195	0.468
156.000	154.967	80.005	19.992	103.998	20.060	4.666	0.470
158.000	155.954	80.004	19.993	104.005	20.067	4.125	0.514
160.000	156.977	80.005	19.994	104.002	20.067	4.142	0.486
162.000	157.961	80.003	19.993	103.999	20.062	4.521	0.462
164.000	158.988	80.004	19.993	103.995	20.062	4.560	0.475
166.000	159.962	80.005	19.994	104.003	20.067	4.172	0.480
168.000	160.968	80.005	19.993	103.994	20.065	4.310	0.531
170.000	162.002	80.005	19.994	103.996	20.066	4.207	0.536
172.000	162.979	80.006	19.993	103.992	20.069	4.002	0.497
174.000	164.005	80.006	19.992	103.994	20.065	4.310	0.494
176.000	165.021	80.005	19.993	103.991	20.066	4.256	0.524
178.000	166.021	80.008	19.992	103.992	20.063	4.435	0.485
180.000	167.092	80.006	19.992	103.987	20.067	4.174	0.517
182.000	168.055	80.006	19.993	103.989	20.064	4.367	0.522
184.000	169.067	80.006	19.994	103.989	20.067	4.137	0.478
186.000	170.075	80.004	19.994	103.985	20.068	4.099	0.530
188.000	171.105	80.004	19.994	103.981	20.068	4.102	0.516
190.000	172.118	80.003	19.994	103.984	20.067	4.151	0.511
192.000	173.167	80.003	19.993	103.986	20.064	4.403	0.528
194.000	174.172	80.003	19.993	103.968	20.065	4.337	0.495
196.000	175.156	80.004	19.994	103.979	20.063	4.432	0.490
198.000	176.155	80.004	19.994	103.966	20.068	4.054	0.511
200.000	177.142	80.002	19.993	103.982	20.067	4.173	0.520
202.000	178.200	80.004	19.995	103.957	20.067	4.149	0.524
204.000	179.182	80.004	19.993	103.960	20.067	4.163	0.497
206.000	180.170	80.003	19.994	103.972	20.065	4.296	0.512
208.000	181.214	80.004	19.993	103.967	20.064	4.360	0.509
210.000	182.205	80.004	19.993	103.960	20.066	4.249	0.508
212.000	183.216	80.004	19.995	103.969	20.066	4.210	0.482
214.000	184.221	80.004	19.994	103.977	20.068	4.097	0.500
216.000	185.219	80.003	19.995	103.956	20.069	3.992	0.498
218.000	186.288	80.003	19.993	103.965	20.068	4.078	0.508
220.000	187.291	80.002	19.994	103.961	20.070	3.931	0.500
222.000	188.313	80.002	19.995	103.961	20.066	4.214	0.504
224.000	189.318	80.002	19.995	103.957	20.070	3.904	0.525
226.000	190.302	80.002	19.994	103.956	20.071	3.850	0.487
228.000	191.294	80.003	19.996	103.954	20.074	3.643	0.498
230.000	192.299	80.004	19.994	103.957	20.072	3.799	0.478
232.000	193.286	80.004	19.994	103.956	20.072	3.797	0.477
234.000	194.289	80.005	19.994	103.953	20.069	4.012	0.510
236.000	195.292	80.006	19.993	103.953	20.067	4.158	0.517
238.000	196.275	80.005	19.992	103.951	20.070	3.935	0.511
240.000	197.253	80.005	19.992	103.949	20.071	3.873	0.500
242.000	198.244	80.006	19.993	103.949	20.070	3.965	0.488
244.000	199.247	80.006	19.993	103.947	20.075	3.542	0.497
246.000	200.176	80.004	19.993	103.945	20.069	3.980	0.445
248.000	201.205	80.005	19.994	103.951	20.069	4.012	0.464
250.000	202.214	80.005	19.994	103.953	20.073	3.744	0.497
252.000	203.218	80.005	19.994	103.951	20.072	3.802	0.481
254.000	204.209	80.005	19.993	103.951	20.070	3.918	0.493
256.000	205.213	80.006	19.993	103.949	20.069	4.045	0.496
258.000	206.208	80.007	19.993	103.950	20.069	4.004	0.499
260.000	207.141	80.007	19.993	103.946	20.069	4.014	0.482
262.000	208.194	80.008	19.994	103.937	20.069	4.010	0.526
264.000	209.136	80.007	19.994	103.934	20.067	4.136	0.462
266.000	210.159	80.006	19.994	103.950	20.070	3.969	0.481
268.000	211.142	80.005	19.991	103.948	20.071	3.826	0.484
270.000	212.137	80.004	19.992	103.946	20.070	3.947	0.499
272.000	213.146	80.004	19.992	103.947	20.070	3.938	0.460
274.000	214.125	80.004	19.992	103.953	20.069	3.992	0.501
276.000	215.093	80.004	19.992	103.946	20.069	4.017	0.465
278.000	216.099	80.005	19.994	103.953	20.072	3.816	0.521
280.000	217.047	80.004	19.993	103.951	20.069	4.028	0.499
282.000	218.039	80.003	19.993	103.946	20.068	4.110	0.489
284.000	219.043	80.004	19.992	103.947	20.066	4.203	0.500
286.000	220.041	80.003	19.993	103.950	20.063	4.425	0.525
288.000	221.036	80.004	19.994	103.953	20.064	4.369	0.520
290.000	222.013	80.003	19.994	103.944	20.064	4.404	0.469
292.000	223.055	80.004	19.994	103.921	20.066	4.201	0.506
294.000	223.999	80.003	19.993	103.939	20.062	4.503	0.511
296.000	225.021	80.004	19.993	103.940	20.064	4.398	0.523
298.000	225.977	80.003	19.993	103.945	20.066	4.199	0.476
300.000	226.971	80.003	19.995	103.928	20.063	4.467	0.514
302.000	227.944	80.004	19.995	103.939	20.061	4.620	0.501
304.000	228.958	80.003	19.994	103.943	20.060	4.679	0.534
306.000	229.992	80.004	19.995	103.944	20.062	4.545	0.501
308.000	231.004	80.004	19.993	103.932	20.060	4.707	0.521
310.000	231.978	80.004	19.993	103.934	20.064	4.346	0.492
312.000	232.948	80.004	19.994	103.923	20.062	4.565	0.482
314.000	233.946	80.005	19.994	103.945	20.063	4.435	0.496
316.000	234.959	80.006	19.994	103.930	20.063	4.420	0.495
318.000	235.952	80.006	19.995	103.924	20.063	4.451	0.494
320.000	236.937	80.005	19.995	103.933	20.061	4.617	0.487
322.000	237.931	80.005	19.995	103.913	20.064	4.412	0.493
324.000	238.941	80.006	19.994	103.930	20.060	4.667	0.508
326.000	239.950	80.005	19.994	103.926	20.058	4.848	0.474
328.000	240.946	80.005	19.994	103.924	20.060	4.662	0.499
330.000	241.925	80.005	19.993	103.932	20.058	4.814	0.487
332.000	242.917	80.004	19.993	103.939	20.061	4.600	0.510
334.000	243.940	80.004	19.992	103.940	20.061	4.588	0.516
336.000	244.929	80.004	19.994	103.929	20.062	4.525	0.493
338.000	245.888	80.006	19.993	103.919	20.061	4.637	0.471
340.000	246.948	80.005	19.993	103.933	20.062	4.533	0.504
342.000	247.945	80.006	19.994	103.923	20.062	4.561	0.501
344.000	248.945	80.006	19.993	103.927	20.061	4.572	0.512
346.000	250.008	80.006	19.992	103.923	20.058	4.820	0.557
348.000	251.009	80.004	19.993	103.927	20.060	4.709	0.515
350.000	252.023	80.004	19.994	103.924	20.058	4.861	0.510
352.000	253.026	80.004	19.995	103.926	20.057	4.930	0.509
354.000	254.026	80.003	19.993	103.922	20.058	4.856	0.500
356.000	255.059	80.003	19.993	103.941	20.059	4.752	0.517
358.000	256.030	80.005	19.993	103.925	20.061	4.602	0.516
360.000	257.030	80.005	19.992	103.923	20.061	4.619	0.489
362.000	258.029	80.004	19.992	103.940	20.061	4.580	0.511
364.000	259.030	80.005	19.996	103.923	20.057	4.899	0.520
366.000	260.054	80.004	19.993	103.918	20.058	4.822	0.479
368.000	261.066	80.004	19.994	103.922	20.056	4.986	0.536
370.000	262.072	80.005	19.995	103.927	20.062	4.510	0.513
372.000	263.055	80.005	19.994	103.917	20.059	4.787	0.497
374.000	264.100	80.004	19.994	103.934	20.059	4.724	0.528
376.000	265.094	80.004	19.994	103.926	20.060	4.688	0.506
378.000	266.072	80.004	19.995	103.914	20.057	4.939	0.466
380.000	267.107	80.003	19.995	103.925	20.060	4.693	0.513
382.000	268.136	80.003	19.994	103.919	20.057	4.906	0.537
384.000	269.083	80.004	19.995	103.916	20.059	4.780	0.473
386.000	270.135	80.004	19.994	103.923	20.056	5.000	0.517
388.000	271.160	80.003	19.996	103.919	20.054	5.121	0.505
390.000	272.168	80.002	19.994	103.927	20.055	5.037	0.505
392.000	273.174	80.005	19.994	103.922	20.054	5.105	0.480
394.000	274.187	80.005	19.995	103.911	20.049	5.540	0.522
396.000	275.148	80.007	19.995	103.906	20.049	5.507	0.476
398.000	276.171	80.006	19.993	103.913	20.049	5.511	0.511
400.000	277.162	80.006	19.994	103.912	20.050	5.443	0.500
402.000	278.127	80.006	19.993	103.913	20.051	5.361	0.466
404.000	279.130	80.005	19.996	103.914	20.048	5.586	0.494
406.000	280.138	80.004	19.994	103.917	20.048	5.616	0.460
408.000	281.162	80.006	19.995	103.922	20.049	5.542	0.487
410.000	282.136	80.005	19.994	103.913	20.047	5.663	0.491
412.000	283.190	80.003	19.996	103.920	20.048	5.575	0.504
414.000	284.184	80.004	19.995	103.908	20.047	5.634	0.493
416.000	285.171	80.005	19.995	103.913	20.044	5.880	0.492
418.000	286.202	80.004	19.994	103.915	20.045	5.780	0.496
420.000	287.195	80.006	19.994	103.912	20.043	5.976	0.518
422.000	288.184	80.006	19.993	103.913	20.040	6.171	0.504
424.000	289.189	80.007	19.994	103.914	20.040	6.208	0.520
426.000	290.218	80.007	19.994	103.918	20.039	6.266	0.502
428.000	291.220	80.006	19.994	103.914	20.040	6.212	0.494
430.000	292.243	80.005	19.993	103.912	20.037	6.401	0.519
432.000	293.255	80.006	19.993	103.903	20.034	6.631	0.494
434.000	294.261	80.005	19.994	103.910	20.037	6.379	0.507
436.000	295.262	80.004	19.993	103.912	20.038	6.321	0.509
438.000	296.238	80.004	19.993	103.907	20.037	6.399	0.491
440.000	297.242	80.005	19.993	103.910	20.038	6.339	0.513
442.000	298.257	80.005	19.994	103.911	20.033	6.678	0.520
444.000	299.275	80.003	19.994	103.912	20.032	6.807	0.491
446.000	300.271	80.004	19.994	103.911	20.033	6.727	0.494
448.000	301.283	80.006	19.995	103.911	20.031	6.867	0.505
450.000	302.287	80.005	19.993	103.905	20.033	6.707	0.516
452.000	303.283	80.004	19.993	103.905	20.032	6.744	0.507
454.000	304.266	80.004	19.994	103.903	20.029	6.966	0.500
456.000	305.292	80.006	19.993	103.910	20.028	7.094	0.512
458.000	306.334	80.005	19.994	103.910	20.024	7.393	0.525
460.000	307.288	80.004	19.994	103.908	20.027	7.126	0.472
462.000	308.341	80.005	19.992	103.909	20.025	7.265	0.494
464.000	309.322	80.005	19.994	103.913	20.026	7.243	0.487
466.000	310.353	80.004	19.993	103.907	20.024	7.393	0.521
468.000	311.360	80.004	19.994	103.914	20.024	7.413	0.494
470.000	312.415	80.004	19.995	103.917	20.020	7.698	0.542
472.000	313.388	80.005	19.994	103.914	20.021	7.591	0.515
474.000	314.405	80.004	19.994	103.914	20.022	7.507	0.523
476.000	315.429	80.004	19.994	103.908	20.016	7.993	0.490
478.000	316.431	80.006	19.993	103.902	20.014	8.103	0.500
480.000	317.451	80.005	19.994	103.909	20.016	7.982	0.502
482.000	318.465	80.005	19.994	103.911	20.015	8.036	0.519
484.000	319.451	80.004	19.994	103.911	20.014	8.129	0.474
486.000	320.468	80.005	19.994	103.913	20.016	7.958	0.491
488.000	321.516	80.004	19.994	103.905	20.012	8.266	0.510
490.000	322.512	80.005	19.993	103.902	20.011	8.387	0.493
492.000	323.515	80.004	19.994	103.903	20.009	8.471	0.537
494.000	324.507	80.004	19.993	103.913	20.007	8.642	0.509
496.000	325.488	80.004	19.993	103.910	20.004	8.879	0.512
498.000	326.546	80.006	19.993	103.903	20.000	9.144	0.517
500.000	327.553	80.005	19.994	103.908	20.001	9.063	0.482
502.000	328.560	80.007	19.993	103.906	19.995	9.577	0.486
504.000	329.568	80.006	19.995	103.904	19.989	9.971	0.502
506.000	330.598	80.006	19.995	103.890	19.987	10.123	0.503
508.000	331.625	80.007	19.995	103.909	19.984	10.396	0.517
510.000	332.621	80.006	19.995	103.897	19.982	10.515	0.497
512.000	333.618	80.006	19.994	103.897	19.978	10.798	0.495
514.000	334.676	80.005	19.993	103.883	19.975	11.036	0.554
516.000	335.672	80.005	19.994	103.902	19.972	11.241	0.508
518.000	336.701	80.004	19.994	103.909	19.963	11.936	0.505
520.000	337.689	80.005	19.995	103.911	19.957	12.418	0.489
522.000	338.706	80.005	19.994	103.912	19.950	12.932	0.501
524.000	339.713	80.005	19.993	103.911	19.944	13.394	0.512
526.000	340.746	80.003	19.994	103.908	19.943	13.472	0.516
528.000	341.801	80.005	19.994	103.909	19.932	14.254	0.532
530.000	342.823	80.003	19.994	103.900	19.928	14.588	0.503
532.000	343.819	80.005	19.994	103.888	19.919	15.221	0.489
534.000	344.785	80.005	19.993	103.909	19.914	15.615	0.500
536.000	345.849	80.004	19.993	103.898	19.909	16.003	0.512
538.000	346.879	80.004	19.993	103.907	19.895	17.061	0.493
540.000	347.932	80.005	19.994	103.894	19.885	17.807	0.549
542.000	348.932	80.003	19.993	103.894	19.879	18.243	0.500
544.000	349.997	80.004	19.995	103.901	19.874	18.622	0.538
546.000	350.997	80.005	19.994	103.913	19.866	19.173	0.496
548.000	352.062	80.004	19.993	103.905	19.859	19.718	0.529
550.000	353.116	80.003	19.994	103.908	19.851	20.316	0.494
552.000	354.152	80.003	19.993	103.912	19.847	20.663	0.497
554.000	355.178	80.006	19.993	103.913	19.836	21.444	0.550
556.000	356.225	80.004	19.993	103.916	19.827	22.132	0.541
558.000	357.259	80.004	19.994	103.911	19.817	22.911	0.538
560.000	358.238	80.005	19.995	103.908	19.809	23.493	0.484
562.000	359.279	80.005	19.994	103.900	19.796	24.415	0.512
564.000	360.339	80.005	19.995	103.908	19.784	25.368	0.566
566.000	361.376	80.005	19.993	103.905	19.770	26.402	0.516
568.000	362.348	80.006	19.994	103.903	19.756	27.443	0.524
570.000	363.370	80.006	19.995	103.911	19.740	28.619	0.530
572.000	364.372	80.005	19.994	103.901	19.721	30.053	0.479
574.000	365.418	80.005	19.994	103.899	19.700	31.612	0.505
576.000	366.434	80.005	19.994	103.906	19.682	33.017	0.515
578.000	367.423	80.005	19.994	103.909	19.658	34.766	0.490
580.000	368.459	80.004	19.995	103.909	19.642	35.969	0.505
582.000	369.481	80.004	19.994	103.910	19.614	38.073	0.510
584.000	370.479	80.007	19.994	103.911	19.589	39.972	0.512
586.000	371.497	80.007	19.993	103.911	19.559	42.214	0.505
588.000	372.496	80.006	19.995	103.918	19.529	44.437	0.509
590.000	373.601	80.009	19.993	103.916	19.493	47.109	0.548
592.000	374.516	80.007	19.994	103.910	19.456	49.905	0.461
594.000	375.530	80.007	19.994	103.911	19.416	52.935	0.497
596.000	376.554	80.006	19.994	103.910	19.376	55.912	0.544
598.000	377.608	80.003	19.993	103.925	19.333	59.119	0.516
600.000	378.577	80.006	19.994	103.920	19.286	62.667	0.504
602.000	379.599	80.006	19.994	103.928	19.234	66.544	0.512
604.000	380.577	80.002	19.996	103.930	19.184	70.305	0.508
606.000	381.550	80.003	19.994	103.944	19.136	73.891	0.490
608.000	382.592	80.004	19.994	103.946	19.083	77.864	0.500
610.000	383.589	80.004	19.994	103.943	19.027	82.062	0.499
612.000	384.618	80.005	19.993	103.939	18.968	86.457	0.507
614.000	385.626	80.003	19.994	103.952	18.909	90.884	0.497
616.000	386.649	80.003	19.994	103.954	18.836	96.372	0.510
618.000	387.639	80.004	19.994	103.954	18.761	101.988	0.468
620.000	388.634	80.005	19.993	103.962	18.681	108.004	0.496
622.000	389.675	80.006	19.993	103.955	18.600	114.034	0.531
624.000	390.670	80.004	19.994	103.951	18.519	120.118	0.479
626.000	391.698	80.004	19.993	103.947	18.433	126.647	0.523
628.000	392.706	80.003	19.994	103.978	18.342	133.452	0.522
630.000	393.726	80.004	19.994	103.988	18.252	140.191	0.519
632.000	394.744	80.005	19.993	103.978	18.160	147.036	0.504
634.000	395.757	80.005	19.997	103.977	18.055	154.867	0.511
636.000	396.696	80.003	19.995	103.997	17.930	164.385	0.473
638.000	397.714	80.004	19.994	104.021	17.784	175.528	0.486
640.000	398.764	80.005	19.994	104.053	17.660	184.661	0.502
642.000	399.763	80.003	19.994	103.992	17.540	193.140	0.500
644.000	400.810	80.006	19.993	103.963	17.411	202.593	0.509
646.000	401.770	80.003	19.993	104.000	17.194	219.260	0.516
648.000	402.808	80.006	19.995	104.078	16.902	242.001	0.484
650.000	403.815	80.005	19.994	104.157	16.757	252.910	0.506
652.000	404.848	80.005	19.994	103.926	16.711	255.994	0.512
654.000	405.913	80.007	19.993	103.708	16.652	260.212	0.534
656.000	406.941	80.005	19.995	103.767	16.574	266.096	0.517
658.000	407.948	80.007	19.993	104.098	16.465	274.312	0.525
660.000	408.994	80.004	19.993	104.349	16.333	284.173	0.526
662.000	410.008	80.005	19.995	104.214	16.189	294.872	0.507
664.000	411.015	80.004	19.997	104.095	16.027	307.105	0.494
666.000	412.021	80.003	19.995	104.075	15.849	320.552	0.524
668.000	413.029	80.006	19.994	104.074	15.683	333.057	0.514
670.000	414.062	80.006	19.996	104.065	15.522	345.049	0.502
672.000	415.016	80.007	19.995	104.039	15.362	356.990	0.489
674.000	416.037	80.006	19.993	104.048	15.196	369.483	0.511
676.000	417.006	80.006	19.994	104.071	15.027	382.239	0.487
678.000	418.031	80.006	19.994	104.106	14.868	394.171	0.495
680.000	419.017	80.004	19.994	104.091	14.724	404.946	0.520
682.000	420.052	80.004	19.993	104.081	14.592	414.840	0.521
684.000	421.065	80.005	19.995	104.074	14.470	423.971	0.542
686.000	422.064	80.003	19.994	104.081	14.364	431.903	0.526
688.000	423.009	80.005	19.995	104.100	14.281	438.232	0.484
690.000	424.033	80.005	19.994	104.086	14.223	442.589	0.507
692.000	425.006	80.005	19.996	104.087	14.188	445.313	0.490
694.000	426.019	80.003	19.995	104.091	14.175	446.238	0.479
696.000	427.034	80.004	19.995	104.096	14.195	444.794	0.513
698.000	428.050	80.005	19.995	104.099	14.244	441.183	0.535
700.000	429.000	80.005	19.995	104.127	14.313	435.958	0.489
702.000	430.059	80.004	19.995	104.134	14.416	428.290	0.499
704.000	431.063	80.005	19.995	104.132	14.544	418.759	0.512
706.000	432.097	80.006	19.993	104.139	14.704	406.771	0.509
708.000	433.128	80.005	19.994	104.143	14.887	393.038	0.530
710.000	434.152	80.004	19.993	104.149	15.095	377.381	0.550
712.000	435.190	80.004	19.994	104.151	15.326	359.998	0.524
714.000	436.200	80.004	19.994	104.173	15.573	341.492	0.516
716.000	437.227	80.003	19.994	104.174	15.832	321.981	0.503
718.000	438.290	80.005	19.993	104.178	16.113	300.858	0.538
720.000	439.313	80.004	19.992	104.177	16.394	279.730	0.518
722.000	440.353	80.005	19.994	104.165	16.674	258.608	0.517
724.000	441.406	80.006	19.995	104.167	16.961	237.065	0.509
726.000	442.455	80.007	19.994	104.161	17.234	216.507	0.553
728.000	443.539	80.005	19.993	104.146	17.500	196.564	0.550
730.000	444.594	80.004	19.994	104.120	17.752	177.636	0.525
732.000	445.644	80.007	19.993	104.102	17.997	159.264	0.528
734.000	446.712	80.006	19.994	104.073	18.212	143.134	0.531
736.000	447.767	80.005	19.993	104.046	18.415	127.882	0.577
738.000	448.810	80.005	19.993	104.024	18.597	114.262	0.511
740.000	449.883	80.005	19.993	103.997	18.771	101.201	0.522
742.000	450.901	80.005	19.993	103.987	18.919	90.139	0.529
744.000	451.980	80.004	19.994	103.986	19.050	80.335	0.535
746.000	453.035	80.006	19.992	103.978	19.170	71.305	0.535
748.000	454.102	80.008	19.993	103.958	19.273	63.609	0.543
750.000	455.149	80.006	19.994	103.955	19.364	56.808	0.531
752.000	456.241	80.007	19.994	103.954	19.441	51.038	0.531
754.000	457.262	80.007	19.993	103.953	19.510	45.866	0.526
756.000	458.301	80.006	19.993	103.938	19.568	41.495	0.549
758.000	459.335	80.006	19.994	103.913	19.619	37.683	0.488
760.000	460.392	80.008	19.994	103.895	19.662	34.454	0.510
762.000	461.447	80.005	19.993	103.892	19.709	30.985	0.546
764.000	462.455	80.003	19.994	103.883	19.741	28.553	0.504
766.000	463.491	80.003	19.994	103.876	19.771	26.318	0.514
768.000	464.498	80.004	19.995	103.874	19.800	24.150	0.511
770.000	465.523	80.006	19.994	103.872	19.820	22.622	0.504
772.000	466.504	80.003	19.993	103.873	19.845	20.733	0.498
774.000	467.555	80.003	19.993	103.867	19.864	19.355	0.507
776.000	468.568	80.004	19.995	103.868	19.881	18.088	0.487
778.000	469.612	80.003	19.993	103.869	19.895	16.993	0.503
780.000	470.611	80.004	19.995	103.868	19.913	15.648	0.518
782.000	471.635	80.004	19.994	103.851	19.929	14.465	0.512
784.000	472.589	80.003	19.995	103.846	19.943	13.446	0.469
786.000	473.654	80.005	19.994	103.844	19.961	12.114	0.524
788.000	474.639	80.003	19.994	103.855	19.978	10.801	0.531
790.000	475.643	80.001	19.994	103.841	19.994	9.633	0.460
792.000	476.645	80.003	19.994	103.853	20.009	8.503	0.483
794.000	477.672	80.005	19.994	103.852	20.026	7.229	0.495
796.000	478.665	80.004	19.995	103.864	20.037	6.393	0.486
798.000	479.653	80.004	19.995	103.853	20.044	5.850	0.513
800.000	480.655	80.003	19.994	103.842	20.049	5.485	0.499
802.000	481.675	80.005	19.994	103.855	20.053	5.203	0.536
804.000	482.654	80.005	19.993	103.841	20.056	4.946	0.499
806.000	483.653	80.005	19.993	103.838	20.059	4.761	0.498
808.000	484.689	80.005	19.993	103.847	20.061	4.613	0.504
810.000	485.698	80.004	19.993	103.857	20.063	4.466	0.511
812.000	486.685	80.005	19.993	103.867	20.064	4.388	0.487
814.000	487.712	80.005	19.991	103.856	20.066	4.216	0.507
816.000	488.730	80.005	19.992	103.857	20.066	4.236	0.481
818.000	489.749	80.004	19.993	103.855	20.067	4.185	0.505
820.000	490.785	80.005	19.992	103.853	20.065	4.284	0.494
822.000	491.776	80.005	19.993	103.860	20.065	4.307	0.510
824.000	492.807	80.005	19.994	103.852	20.066	4.241	0.514
826.000	493.844	80.004	19.993	103.853	20.069	4.038	0.484
828.000	494.862	80.006	19.994	103.853	20.069	4.015	0.522
830.000	495.900	80.006	19.992	103.870	20.072	3.773	0.516
832.000	496.934	80.007	19.994	103.868	20.070	3.896	0.518
834.000	497.970	80.006	19.994	103.869	20.075	3.585	0.513
836.000	498.975	80.007	19.992	103.871	20.071	3.849	0.513
838.000	500.025	80.008	19.992	103.873	20.070	3.902	0.505
840.000	501.051	80.008	19.993	103.859	20.070	3.936	0.496
842.000	502.062	80.007	19.992	103.857	20.071	3.878	0.506
844.000	503.123	80.006	19.996	103.871	20.069	4.036	0.530
846.000	504.136	80.006	19.994	103.866	20.071	3.865	0.475
848.000	505.211	80.005	19.993	103.859	20.071	3.872	0.544
850.000	506.218	80.005	19.992	103.856	20.070	3.897	0.533
852.000	507.219	80.006	19.994	103.867	20.068	4.061	0.478
854.000	508.256	80.005	19.994	103.862	20.072	3.800	0.530
856.000	509.304	80.004	19.994	103.868	20.068	4.094	0.543
858.000	510.343	80.004	19.994	103.856	20.072	3.794	0.519
860.000	511.368	80.004	19.993	103.874	20.070	3.905	0.515
862.000	512.386	80.003	19.994	103.869	20.068	4.108	0.503
864.000	513.434	80.004	19.994	103.875	20.070	3.956	0.506
866.000	514.492	80.004	19.993	103.875	20.070	3.963	0.525
868.000	515.558	80.005	19.994	103.874	20.071	3.825	0.519
870.000	516.597	80.005	19.994	103.871	20.071	3.872	0.483
872.000	517.672	80.005	19.992	103.873	20.072	3.747	0.533
874.000	518.672	80.004	19.994	103.875	20.073	3.710	0.492
876.000	519.735	80.004	19.993	103.875	20.067	4.124	0.509
878.000	520.781	80.003	19.992	103.877	20.068	4.098	0.556
880.000	521.835	80.002	19.993	103.877	20.066	4.210	0.532
882.000	522.894	80.001	19.993	103.874	20.072	3.818	0.518
884.000	523.923	80.002	19.994	103.874	20.065	4.273	0.516
886.000	524.970	80.004	19.994	103.872	20.071	3.862	0.509
888.000	525.987	80.004	19.995	103.872	20.070	3.962	0.501
890.000	527.031	80.005	19.995	103.867	20.069	4.030	0.509
892.000	528.077	80.005	19.993	103.869	20.071	3.835	0.534
894.000	529.145	80.004	19.993	103.857	20.069	4.010	0.511
896.000	530.156	80.007	19.993	103.860	20.069	4.030	0.526
898.000	531.196	80.006	19.992	103.867	20.073	3.718	0.507
900.000	532.241	80.006	19.993	103.871	20.071	3.876	0.535
902.000	533.237	80.003	19.994	103.862	20.073	3.704	0.505
904.000	534.321	80.007	19.995	103.872	20.069	4.005	0.529
906.000	535.403	80.005	19.994	103.872	20.070	3.896	0.550
908.000	536.416	80.005	19.994	103.860	20.070	3.919	0.553
910.000	537.451	80.007	19.993	103.850	20.068	4.079	0.540
912.000	538.466	80.006	19.994	103.858	20.069	4.005	0.523
914.000	539.547	80.006	19.993	103.858	20.069	4.007	0.541
916.000	540.563	80.007	19.994	103.854	20.070	3.917	0.509
918.000	541.583	80.005	19.993	103.857	20.069	4.038	0.520
920.000	542.628	80.006	19.993	103.868	20.071	3.873	0.499
922.000	543.674	80.005	19.994	103.863	20.067	4.182	0.510
924.000	544.633	80.007	19.993	103.856	20.066	4.217	0.499
926.000	545.687	80.006	19.993	103.875	20.067	4.126	0.552
928.000	546.682	80.004	19.993	103.872	20.066	4.214	0.497
930.000	547.678	80.005	19.992	103.845	20.067	4.151	0.499
932.000	548.716	80.004	19.993	103.867	20.068	4.077	0.509
934.000	549.776	80.005	19.992	103.872	20.068	4.106	0.513
936.000	550.738	80.005	19.993	103.874	20.070	3.945	0.495
938.000	551.769	80.005	19.993	103.856	20.067	4.124	0.510
940.000	552.819	80.003	19.994	103.859	20.067	4.167	0.520
942.000	553.869	80.003	19.992	103.872	20.066	4.202	0.564
944.000	554.886	80.004	19.993	103.875	20.066	4.222	0.528
946.000	555.933	80.005	19.993	103.856	20.069	3.997	0.533
948.000	556.960	80.005	19.995	103.864	20.070	3.960	0.517
950.000	557.987	80.004	19.994	103.861	20.065	4.306	0.531
952.000	559.014	80.005	19.993	103.858	20.066	4.253	0.498
954.000	560.013	80.003	19.995	103.861	20.068	4.077	0.517
956.000	561.021	80.004	19.994	103.863	20.067	4.147	0.479
958.000	562.078	80.004	19.993	103.869	20.067	4.163	0.521
960.000	563.079	80.004	19.994	103.853	20.068	4.100	0.514
962.000	564.092	80.004	19.993	103.867	20.066	4.227	0.489
964.000	565.059	80.004	19.995	103.858	20.068	4.050	0.503
966.000	566.094	80.004	19.994	103.869	20.064	4.374	0.503
968.000	567.121	80.003	19.994	103.872	20.066	4.253	0.529
970.000	568.134	80.003	19.994	103.871	20.067	4.180	0.520
972.000	569.171	80.006	19.994	103.862	20.066	4.265	0.495
974.000	570.208	80.005	19.994	103.871	20.064	4.409	0.518
976.000	571.218	80.006	19.993	103.859	20.065	4.294	0.496
978.000	572.206	80.005	19.994	103.858	20.068	4.097	0.498
980.000	573.258	80.005	19.994	103.869	20.067	4.173	0.528
982.000	574.325	80.005	19.993	103.859	20.067	4.120	0.538
984.000	575.355	80.004	19.994	103.851	20.066	4.264	0.500
986.000	576.375	80.003	19.993	103.843	20.068	4.094	0.499
988.000	577.374	80.004	19.994	103.858	20.067	4.118	0.498
990.000	578.397	80.004	19.995	103.852	20.069	4.015	0.511
992.000	579.501	80.004	19.993	103.868	20.070	3.929	0.548
994.000	580.491	80.005	19.993	103.876	20.071	3.831	0.520
996.000	581.555	80.008	19.992	103.872	20.067	4.142	0.534
998.000	582.568	80.007	19.993	103.872	20.070	3.949	0.521
1000.000	583.580	80.007	19.992	103.860	20.069	3.990	0.520
1002.000	584.628	80.006	19.993	103.871	20.071	3.849	0.513
1004.000	585.609	80.005	19.993	103.871	20.072	3.802	0.505
1006.000	586.748	80.006	19.992	103.858	20.069	3.984	0.533
1008.000	587.679	80.005	19.992	103.856	20.067	4.158	0.495
1010.000	588.738	80.005	19.993	103.841	20.065	4.284	0.513
1012.000	589.767	80.004	19.992	103.851	20.068	4.089	0.526
1014.000	590.738	80.004	19.995	103.864	20.066	4.247	0.534
1016.000	591.777	80.005	19.994	103.860	20.070	3.966	0.526
1018.000	592.794	80.005	19.993	103.854	20.068	4.064	0.514
1020.000	593.842	80.004	19.995	103.862	20.067	4.135	0.527
1022.000	594.854	80.004	19.993	103.858	20.069	3.996	0.514
1024.000	595.908	80.005	19.995	103.860	20.066	4.193	0.518
1025.999	596.887	80.004	19.993	103.860	20.070	3.968	0.534
1027.999	597.893	80.007	19.994	103.847	20.069	4.012	0.494
1029.999	598.964	80.004	19.993	103.870	20.064	4.361	0.541
1031.999	599.965	80.003	19.995	103.865	20.064	4.380	0.545
1033.999	600.993	80.004	19.993	103.844	20.064	4.365	0.521
1035.999	602.016	80.005	19.994	103.859	20.067	4.187	0.506
1038.000	602.997	80.006	19.994	103.850	20.070	3.948	0.513
1039.999	604.030	80.005	19.993	103.838	20.062	4.552	0.515
1041.999	605.027	80.002	19.994	103.850	20.069	4.021	0.495
1043.999	606.041	80.004	19.994	103.850	20.069	4.007	0.548
1045.999	607.042	80.004	19.996	103.852	20.069	4.022	0.504
1047.999	608.090	80.004	19.994	103.864	20.064	4.374	0.525
1050.000	609.118	80.003	19.995	103.862	20.065	4.301	0.528
1051.999	610.119	80.004	19.994	103.858	20.066	4.237	0.482
1053.999	611.125	80.004	19.993	103.858	20.068	4.113	0.493
1055.999	612.126	80.005	19.994	103.867	20.066	4.210	0.492
1057.999	613.155	80.007	19.995	103.872	20.067	4.136	0.511
1059.999	614.216	80.007	19.994	103.867	20.069	4.017	0.543
1061.999	615.206	80.005	19.993	103.869	20.071	3.860	0.504
1063.999	616.218	80.005	19.994	103.856	20.065	4.296	0.490
1065.999	617.205	80.005	19.994	103.849	20.065	4.272	0.486
1068.000	618.243	80.008	19.995	103.856	20.064	4.374	0.490
1069.999	619.260	80.006	19.994	103.850	20.067	4.190	0.523
1071.999	620.268	80.005	19.993	103.870	20.065	4.285	0.480
1073.999	621.309	80.003	19.995	103.864	20.067	4.159	0.511
1076.000	622.292	80.004	19.994	103.863	20.068	4.065	0.483
1078.000	623.349	80.005	19.994	103.873	20.066	4.218	0.492
1079.999	624.355	80.006	19.994	103.859	20.064	4.401	0.499
1081.999	625.362	80.006	19.993	103.856	20.065	4.284	0.530
1083.999	626.346	80.008	19.995	103.854	20.067	4.128	0.484
1085.999	627.435	80.007	19.993	103.875	20.066	4.219	0.524
1087.999	628.425	80.008	19.993	103.868	20.067	4.145	0.510
1089.999	629.452	80.008	19.993	103.863	20.063	4.427	0.511
1091.999	630.493	80.007	19.993	103.864	20.065	4.311	0.499
1093.999	631.507	80.001	19.994	103.871	20.060	4.688	0.479
1095.999	632.579	80.006	19.993	103.861	20.067	4.141	0.527
1097.999	633.624	80.004	19.993	103.873	20.068	4.105	0.547
1099.999	634.664	80.003	19.994	103.862	20.063	4.435	0.484
1101.999	635.687	80.004	19.994	103.860	20.062	4.519	0.567
1103.999	636.650	80.005	19.993	103.853	20.054	5.099	0.507
1105.999	637.771	80.004	19.992	103.867	20.066	4.201	0.536
1108.000	638.718	80.005	19.994	103.862	20.065	4.294	0.553
1109.999	639.964	80.003	19.994	103.854	20.061	4.577	0.543
1111.999	641.048	80.002	19.994	103.855	20.069	4.033	0.609
1113.999	641.417	80.006	19.993	103.840	20.067	4.189	0.287
1115.999	642.245	80.002	19.992	103.853	20.067	4.191	0.548
1118.001	643.351	80.010	19.994	103.845	20.065	4.315	0.339
1119.999	645.037	80.004	19.993	103.857	20.065	4.327	0.448
1121.999	645.847	79.996	19.993	103.858	20.066	4.210	0.177
1123.999	646.952	80.011	19.992	103.843	20.067	4.136	0.539
1125.999	648.077	80.003	19.994	103.839	20.068	4.082	0.530
1127.999	648.972	80.006	19.993	103.862	20.068	4.087	0.481
1130.000	650.061	80.003	19.993	103.866	20.067	4.119	0.530
1131.999	650.900	79.998	19.994	103.845	20.055	5.059	0.452
1133.999	651.930	80.006	19.995	103.866	20.067	4.124	0.446
1135.999	652.936	80.004	19.994	103.853	20.067	4.119	0.473
1137.999	653.895	80.006	19.993	103.856	20.068	4.109	0.510
1139.999	654.958	80.006	19.993	103.860	20.065	4.310	0.439
1141.999	655.811	80.003	19.994	103.852	20.068	4.068	0.439
1143.999	657.001	80.006	19.994	103.846	20.066	4.257	0.465
1145.999	657.760	80.006	19.993	103.854	20.067	4.169	0.565
1147.999	658.759	80.005	19.994	103.835	20.066	4.263	0.561
1149.999	659.809	80.003	19.994	103.849	20.067	4.140	0.517
1151.999	660.835	80.004	19.994	103.843	20.067	4.182	0.504
1153.999	661.781	80.006	19.994	103.852	20.068	4.113	0.515
1155.999	662.767	80.006	19.993	103.855	20.070	3.920	0.495
1157.999	663.725	80.005	19.993	103.856	20.068	4.089	0.504
1159.999	664.688	80.006	19.994	103.842	20.069	3.989	0.471
1161.999	665.648	80.006	19.994	103.858	20.069	4.012	0.453
1163.999	666.651	80.005	19.996	103.861	20.067	4.150	0.484
1165.999	667.681	80.008	19.994	103.846	20.068	4.102	0.548
1167.999	668.671	80.008	19.996	103.859	20.066	4.212	0.485
1170.000	669.660	80.005	19.995	103.840	20.064	4.401	0.519
1171.999	670.621	80.005	19.994	103.837	20.064	4.366	0.486
1173.999	671.656	80.005	19.994	103.841	20.067	4.161	0.558
1175.999	672.645	80.004	19.993	103.860	20.068	4.113	0.495
1177.999	673.686	80.004	19.992	103.864	20.068	4.089	0.517
1179.999	674.680	80.007	19.994	103.868	20.067	4.118	0.509
1181.999	675.715	80.006	19.993	103.869	20.072	3.773	0.493
1183.999	676.740	80.005	19.992	103.872	20.068	4.075	0.507
1185.999	677.784	80.005	19.993	103.854	20.074	3.611	0.538
1187.999	678.812	80.004	19.994	103.850	20.070	3.927	0.534
1189.999	679.821	80.003	19.995	103.867	20.068	4.079	0.503
1191.999	680.831	80.006	19.994	103.861	20.068	4.108	0.519
1194.000	681.916	80.003	19.994	103.862	20.067	4.134	0.567
1195.999	682.915	80.003	19.993	103.857	20.066	4.221	0.535
1197.999	683.931	80.004	19.991	103.861	20.069	4.019	0.534
1199.999	684.970	80.004	19.994	103.871	20.068	4.060	0.532
1201.999	686.082	80.004	19.994	103.868	20.067	4.144	0.577
1203.999	687.024	80.004	19.995	103.868	20.067	4.171	0.469
1205.999	688.063	80.002	19.993	103.873	20.070	3.910	0.492
1207.999	689.142	80.006	19.994	103.862	20.068	4.090	0.545
1209.999	690.150	80.006	19.993	103.846	20.068	4.078	0.518
1211.999	691.179	80.004	19.993	103.850	20.069	4.027	0.534
1213.999	692.194	80.004	19.993	103.858	20.069	4.010	0.489
1215.999	693.173	80.004	19.994	103.858	20.068	4.105	0.462
1217.999	694.287	80.007	19.993	103.843	20.067	4.123	0.515
1219.999	695.303	80.006	19.994	103.836	20.067	4.167	0.523
1222.000	696.311	80.004	19.993	103.844	20.067	4.167	0.524
1223.999	697.368	80.007	19.994	103.838	20.069	4.023	0.515
1225.999	698.360	80.008	19.993	103.839	20.069	3.992	0.490
1227.999	699.409	80.007	19.993	103.844	20.065	4.298	0.526
1230.000	700.431	80.007	19.994	103.852	20.067	4.164	0.522
1231.999	701.437	80.007	19.993	103.850	20.070	3.912	0.503
1233.999	702.463	80.004	19.995	103.852	20.068	4.107	0.529
1236.000	703.491	80.007	19.994	103.844	20.069	4.038	0.514
1237.999	704.569	80.005	19.994	103.842	20.068	4.101	0.565
1240.000	705.575	80.006	19.993	103.853	20.070	3.947	0.547
1241.999	706.589	80.006	19.994	103.847	20.066	4.209	0.500
1243.999	707.625	80.007	19.993	103.849	20.066	4.242	0.524
1245.999	708.661	80.007	19.993	103.844	20.066	4.211	0.553
1247.999	709.675	80.011	19.993	103.867	20.066	4.201	0.513
1250.000	710.692	80.009	19.995	103.849	20.068	4.111	0.493
1251.999	711.670	80.009	19.994	103.839	20.064	4.372	0.505
1253.999	712.690	80.029	19.993	103.834	20.063	4.437	0.518
1255.999	713.719	80.005	19.995	103.840	20.068	4.085	0.533
1257.999	714.734	80.012	19.994	103.840	20.061	4.608	0.527
1259.999	715.741	79.998	19.994	103.832	20.065	4.281	0.513
1261.999	716.765	80.010	19.995	103.845	20.063	4.429	0.514
1263.999	717.810	80.009	19.996	103.841	20.063	4.460	0.506
1265.999	718.792	79.997	19.993	103.840	20.068	4.076	0.502
1267.999	719.794	79.983	19.995	103.862	20.070	3.950	0.485
1269.999	720.849	80.018	19.994	103.854	20.065	4.288	0.525
1271.999	721.786	80.000	19.994	103.842	20.065	4.269	0.488
1274.000	722.859	79.997	19.996	103.844	20.067	4.134	0.499
1275.999	723.825	80.009	19.993	103.843	20.069	3.991	0.469
1277.999	724.846	80.006	19.994	103.845	20.071	3.822	0.490
1279.999	725.870	80.006	19.994	103.859	20.070	3.943	0.493
1281.999	726.896	80.006	19.994	103.841	20.065	4.327	0.516
1283.999	727.916	80.006	19.994	103.852	20.068	4.073	0.511
1285.999	728.981	80.001	19.997	103.860	20.069	4.026	0.542
1287.999	729.961	80.002	19.993	103.866	20.072	3.796	0.498
1289.999	731.007	80.005	19.994	103.857	20.067	4.134	0.514
1291.999	732.052	80.006	19.994	103.860	20.065	4.304	0.488
1293.999	733.089	80.004	19.993	103.856	20.068	4.085	0.518
1296.000	734.102	79.989	19.994	103.871	20.070	3.921	0.511
1297.999	735.133	80.008	19.994	103.862	20.069	4.031	0.505
1299.999	736.144	80.004	19.995	103.866	20.072	3.814	0.546
1301.999	737.153	80.010	19.993	103.852	20.071	3.888	0.508
1303.999	738.151	80.000	19.994	103.869	20.069	4.023	0.499
1305.999	739.182	80.009	19.994	103.854	20.070	3.943	0.519
1307.999	740.231	80.010	19.991	103.848	20.069	4.033	0.526
1309.999	741.277	80.014	19.993	103.847	20.070	3.953	0.537
1311.999	742.281	79.998	19.994	103.860	20.070	3.959	0.538
1313.999	743.284	80.006	19.993	103.840	20.068	4.080	0.497
1314.499	743.571	80.018	19.991	103.836	20.067	4.138	0.515