File: 01_Data/XPS_Foam_Board/MCC/XPS_Foam_Board_MCC_30K_min_220120_R1_FINAL_MASS.txt
Sample ID:	C:\MCC\MCC Cal\Test\XPS_Foam_Board_MCC_30K_min_220120_R1.txt
Sample Weight (mg):	4.32
Heating Rate (C/s):	0.5
Combustor Temp (C):	900
N2 Flow Rate (cc/min):	80
O2 Flow Rate (cc/min):	20
Calibration File:	C:\MCC\MCC Cal\Coeff1 JN10440_30_210304.txt.txt
T Correction Coefficients:	0	1.024463	0
Time Shift (s):	14
*
Time (s)	Temperature (C)	N2 flow rate (cc/min)	O2 flow rate (cc/min)	Flow Rate (cc/min)	Oxygen (%)	HRR (W/g)	Heating rate (C/s)
0.000	114.718	80.002	19.995	103.770	20.092	0.123	-0.034
1.500	114.743	80.004	19.994	103.773	20.096	-0.138	0.009
3.000	114.696	80.003	19.995	103.774	20.093	0.074	-0.018
4.500	114.684	80.001	19.996	103.773	20.093	0.103	0.004
6.000	114.671	80.001	19.994	103.775	20.094	0.018	-0.007
7.500	114.674	80.010	19.994	103.772	20.091	0.199	-0.024
9.000	114.612	80.004	19.995	103.788	20.090	0.290	-0.012
10.500	114.617	80.000	19.996	103.790	20.089	0.382	0.016
12.000	114.643	80.004	19.994	103.795	20.088	0.452	0.019
13.500	114.592	79.999	19.995	103.820	20.085	0.695	-0.035
15.000	114.650	80.011	19.994	103.833	20.081	1.006	0.032
16.500	114.655	80.006	19.994	103.846	20.077	1.312	0.000
18.000	114.654	80.007	19.995	103.858	20.080	1.090	-0.012
19.500	114.661	80.003	19.995	103.878	20.076	1.358	-0.009
21.000	114.727	80.004	19.994	103.877	20.076	1.339	0.043
22.500	114.800	80.008	19.995	103.880	20.070	1.807	0.043
24.000	114.859	80.012	19.992	103.899	20.069	1.871	0.035
25.500	114.959	80.006	19.994	103.915	20.063	2.317	0.051
27.000	115.044	80.008	19.994	103.935	20.061	2.476	0.041
28.500	115.154	80.006	19.993	103.948	20.059	2.630	0.080
30.000	115.297	80.018	19.991	103.951	20.057	2.809	0.089
31.500	115.462	80.004	19.994	103.959	20.057	2.780	0.098
33.000	115.618	80.007	19.994	103.976	20.055	2.941	0.107
34.500	115.811	80.006	19.994	103.988	20.051	3.230	0.119
36.000	115.976	80.010	19.995	103.989	20.052	3.131	0.096
37.500	116.222	80.005	19.994	103.985	20.051	3.201	0.163
39.000	116.458	80.004	19.994	103.985	20.052	3.162	0.157
40.500	116.692	80.006	19.994	104.001	20.050	3.319	0.145
42.000	116.933	80.006	19.993	103.994	20.049	3.383	0.160
43.500	117.301	80.008	19.995	104.002	20.045	3.686	0.226
45.000	117.590	80.007	19.993	104.005	20.047	3.538	0.198
46.500	117.931	80.009	19.994	104.015	20.045	3.663	0.231
48.000	118.267	80.008	19.993	104.029	20.046	3.618	0.210
49.500	118.570	80.006	19.994	104.024	20.044	3.742	0.226
51.000	118.969	80.007	19.993	104.026	20.044	3.798	0.268
52.500	119.355	80.006	19.994	104.052	20.042	3.944	0.272
54.000	119.770	80.005	19.992	104.065	20.043	3.862	0.284
55.500	120.187	80.007	19.993	104.054	20.041	3.967	0.291
57.000	120.632	80.006	19.994	104.042	20.040	4.080	0.297
58.500	121.089	80.003	19.993	104.057	20.038	4.177	0.316
60.000	121.555	80.004	19.994	104.067	20.039	4.126	0.303
61.500	122.067	80.000	19.994	104.066	20.038	4.196	0.324
63.000	122.592	80.006	19.995	104.060	20.038	4.179	0.356
64.501	123.085	80.006	19.994	104.061	20.037	4.253	0.310
66.001	123.631	80.014	19.990	104.058	20.040	4.039	0.352
67.500	124.147	80.006	19.994	104.074	20.039	4.119	0.347
69.000	124.670	80.007	19.992	104.079	20.038	4.214	0.357
70.500	125.267	80.016	19.992	104.074	20.032	4.628	0.367
72.001	125.806	80.013	19.992	104.070	20.037	4.300	0.365
73.500	126.411	80.001	19.994	104.073	20.037	4.318	0.404
75.000	126.990	80.001	19.994	104.078	20.033	4.608	0.394
76.500	127.547	80.005	19.994	104.075	20.032	4.652	0.374
78.000	128.188	80.008	19.993	104.069	20.032	4.661	0.422
79.500	128.834	80.008	19.996	104.074	20.032	4.649	0.423
81.000	129.410	80.008	19.996	104.072	20.031	4.717	0.384
82.500	130.034	80.007	19.994	104.068	20.031	4.746	0.407
84.000	130.741	80.004	19.995	104.077	20.030	4.789	0.439
85.500	131.365	80.004	19.994	104.035	20.031	4.768	0.446
87.000	131.998	80.005	19.995	104.073	20.030	4.834	0.429
88.500	132.703	80.001	19.995	104.117	20.031	4.729	0.458
90.000	133.354	80.001	19.996	104.080	20.035	4.417	0.435
91.500	134.048	80.011	19.993	104.079	20.035	4.438	0.468
93.000	134.754	80.006	19.994	104.081	20.031	4.733	0.481
94.500	135.414	79.993	19.995	104.073	20.034	4.530	0.463
96.000	136.148	80.008	19.994	104.066	20.036	4.370	0.473
97.500	136.868	80.003	19.995	104.068	20.029	4.877	0.494
99.000	137.611	80.004	19.995	104.078	20.031	4.712	0.506
100.500	138.347	80.002	19.996	104.062	20.030	4.799	0.493
102.000	139.070	80.008	19.994	104.062	20.033	4.624	0.502
103.500	139.816	80.018	19.994	104.066	20.034	4.510	0.496
105.000	140.586	80.015	19.994	104.055	20.034	4.543	0.526
106.500	141.317	79.992	19.997	104.060	20.030	4.805	0.471
108.000	142.082	80.015	19.994	104.064	20.033	4.594	0.498
109.500	142.796	80.004	19.994	104.069	20.031	4.742	0.490
111.000	143.591	80.006	19.995	104.065	20.032	4.637	0.533
112.500	144.319	80.006	19.996	104.068	20.031	4.765	0.471
114.000	145.130	80.005	19.994	104.069	20.030	4.844	0.545
115.500	145.894	80.002	19.995	104.056	20.033	4.588	0.520
117.000	146.642	79.994	19.996	104.059	20.033	4.577	0.480
118.500	147.428	80.004	19.993	104.060	20.031	4.735	0.530
120.000	148.200	79.998	19.996	104.048	20.034	4.525	0.528
121.500	148.959	79.996	19.996	104.040	20.030	4.840	0.520
123.000	149.725	80.004	19.993	104.041	20.034	4.499	0.530
124.501	150.537	80.007	19.993	104.058	20.035	4.425	0.525
126.000	151.324	79.998	19.993	104.059	20.033	4.550	0.520
127.500	152.063	79.999	19.994	104.034	20.034	4.494	0.506
129.000	152.855	80.003	19.996	104.035	20.035	4.474	0.531
130.500	153.640	80.004	19.993	104.034	20.035	4.464	0.519
132.000	154.429	80.014	19.993	104.029	20.035	4.460	0.534
133.500	155.179	80.009	19.992	104.036	20.036	4.385	0.521
135.000	155.959	80.014	19.992	104.038	20.039	4.152	0.526
136.500	156.774	80.004	19.995	104.035	20.038	4.208	0.563
138.000	157.559	80.005	19.993	104.033	20.039	4.144	0.524
139.500	158.341	80.007	19.992	104.035	20.038	4.192	0.526
141.000	159.128	80.004	19.994	104.033	20.041	3.996	0.537
142.500	159.867	80.008	19.993	104.034	20.036	4.330	0.530
144.000	160.664	80.004	19.994	104.032	20.037	4.259	0.527
145.500	161.437	80.005	19.994	104.021	20.037	4.316	0.520
147.000	162.189	80.006	19.995	104.021	20.039	4.171	0.509
148.500	162.973	80.007	19.993	104.032	20.039	4.148	0.524
150.000	163.774	80.005	19.993	104.026	20.041	3.975	0.559
151.500	164.524	80.007	19.993	104.029	20.040	4.072	0.506
153.000	165.322	80.008	19.994	104.030	20.037	4.281	0.538
154.500	166.103	80.010	19.993	104.026	20.038	4.230	0.560
156.000	166.897	80.005	19.994	104.010	20.038	4.214	0.529
157.500	167.616	80.013	19.993	104.021	20.043	3.860	0.471
159.000	168.403	80.006	19.996	104.019	20.039	4.135	0.504
160.500	169.220	80.005	19.994	104.020	20.040	4.096	0.549
162.000	169.935	79.998	19.995	104.023	20.041	3.991	0.493
163.500	170.722	80.006	19.994	104.007	20.042	3.907	0.529
165.000	171.553	80.005	19.993	103.997	20.041	4.014	0.539
166.500	172.275	80.002	19.995	104.013	20.040	4.043	0.489
168.000	172.995	80.003	19.994	104.018	20.040	4.061	0.500
169.500	173.777	80.003	19.994	104.014	20.037	4.262	0.548
171.000	174.525	80.005	19.993	104.002	20.040	4.087	0.529
172.500	175.234	80.009	19.996	103.997	20.041	3.999	0.498
174.000	176.066	80.007	19.995	103.999	20.041	3.979	0.563
175.500	176.762	80.004	19.994	104.009	20.038	4.188	0.476
177.000	177.544	80.005	19.996	104.007	20.040	4.067	0.524
178.500	178.278	80.006	19.994	104.004	20.042	3.938	0.504
180.000	179.011	80.004	19.995	103.994	20.039	4.120	0.477
181.500	179.753	80.007	19.994	103.993	20.038	4.206	0.499
183.000	180.499	80.007	19.995	104.003	20.041	4.005	0.466
184.500	181.278	80.008	19.995	104.012	20.042	3.892	0.540
186.000	181.962	80.007	19.994	103.993	20.041	3.997	0.452
187.500	182.751	80.012	19.994	103.988	20.040	4.044	0.512
189.000	183.420	80.005	19.995	104.008	20.039	4.122	0.466
190.500	184.187	80.006	19.994	103.996	20.039	4.102	0.513
192.000	184.956	80.006	19.995	103.991	20.037	4.304	0.503
193.500	185.699	80.008	19.998	103.988	20.037	4.262	0.500
195.000	186.454	80.004	19.995	103.994	20.044	3.795	0.509
196.500	187.226	80.004	19.993	103.998	20.041	3.960	0.500
198.000	187.952	80.005	19.994	103.999	20.042	3.939	0.484
199.500	188.679	80.006	19.995	103.990	20.037	4.277	0.480
201.000	189.387	80.003	19.995	104.004	20.038	4.196	0.464
202.500	190.146	80.007	19.995	104.006	20.041	4.017	0.507
204.000	190.894	80.005	19.994	103.994	20.039	4.133	0.507
205.500	191.632	80.002	19.994	103.994	20.038	4.174	0.493
207.000	192.319	80.009	19.995	103.990	20.039	4.110	0.476
208.500	193.043	80.005	19.996	103.990	20.039	4.120	0.483
210.000	193.859	80.005	19.994	103.992	20.040	4.064	0.538
211.500	194.594	80.006	19.995	103.992	20.042	3.879	0.486
213.000	195.278	80.006	19.996	103.991	20.037	4.279	0.469
214.500	196.018	80.007	19.992	103.994	20.041	4.005	0.501
216.000	196.755	80.011	19.990	103.994	20.041	4.001	0.469
217.500	197.469	80.010	19.993	103.998	20.038	4.215	0.475
219.000	198.220	80.005	19.993	103.994	20.037	4.254	0.502
220.500	198.958	80.007	19.995	103.982	20.038	4.221	0.463
222.000	199.618	80.008	19.996	103.987	20.038	4.217	0.457
223.500	200.397	80.006	19.993	103.991	20.038	4.217	0.534
225.000	201.104	80.006	19.994	103.990	20.037	4.307	0.487
226.500	201.851	80.007	19.993	103.992	20.038	4.173	0.509
228.000	202.580	80.006	19.993	103.987	20.037	4.322	0.485
229.500	203.320	80.005	19.997	103.981	20.033	4.591	0.504
231.000	204.071	80.008	19.989	103.988	20.036	4.383	0.496
232.500	204.779	80.000	20.000	103.992	20.032	4.635	0.464
234.000	205.580	80.007	19.994	103.990	20.032	4.641	0.513
235.500	206.259	80.007	19.993	103.986	20.033	4.593	0.442
237.000	207.008	80.004	19.995	103.984	20.034	4.482	0.489
238.500	207.754	80.005	19.993	103.984	20.035	4.468	0.493
240.000	208.486	80.004	19.996	103.987	20.031	4.713	0.480
241.500	209.218	80.012	19.993	103.986	20.034	4.505	0.476
243.000	209.929	80.006	19.997	103.989	20.037	4.264	0.482
244.500	210.684	80.005	19.995	103.989	20.034	4.526	0.507
246.000	211.435	80.008	19.994	103.988	20.035	4.445	0.507
247.500	212.191	80.007	19.994	103.988	20.034	4.546	0.496
249.000	212.907	80.006	19.994	103.989	20.030	4.785	0.469
250.500	213.627	80.008	19.994	103.991	20.033	4.602	0.491
252.000	214.406	80.006	19.993	103.984	20.030	4.804	0.492
253.500	215.115	80.004	19.994	103.983	20.034	4.507	0.478
255.000	215.865	80.007	19.995	103.994	20.033	4.550	0.525
256.500	216.635	80.004	19.995	103.995	20.031	4.742	0.515
258.000	217.417	80.006	19.994	103.993	20.031	4.729	0.507
259.500	218.124	80.006	19.994	103.993	20.029	4.901	0.479
261.000	218.863	80.006	19.993	103.995	20.035	4.406	0.483
262.500	219.586	80.005	19.994	103.994	20.032	4.694	0.491
264.000	220.361	80.010	19.993	103.994	20.029	4.850	0.516
265.500	221.087	80.006	19.994	103.991	20.030	4.812	0.461
267.000	221.849	80.008	19.995	103.986	20.032	4.637	0.506
268.500	222.629	80.006	19.993	103.992	20.031	4.748	0.520
270.000	223.341	80.007	19.995	103.981	20.034	4.530	0.457
271.500	224.076	80.007	19.995	103.973	20.029	4.883	0.523
273.000	224.835	80.005	19.992	103.993	20.030	4.830	0.519
274.500	225.606	80.006	19.994	103.983	20.032	4.639	0.523
276.000	226.370	80.003	19.996	103.983	20.027	5.036	0.504
277.500	227.123	80.008	19.995	103.993	20.029	4.867	0.508
279.000	227.842	80.005	19.997	103.984	20.031	4.735	0.487
280.500	228.651	80.005	19.997	103.992	20.030	4.799	0.546
282.000	229.430	80.005	19.995	103.985	20.027	5.019	0.513
283.500	230.207	80.006	19.996	103.974	20.027	5.002	0.530
285.000	230.981	80.008	19.993	103.988	20.028	4.975	0.492
286.500	231.696	80.001	19.994	103.991	20.030	4.846	0.466
288.000	232.468	80.004	19.994	103.980	20.024	5.257	0.510
289.500	233.215	80.009	19.994	103.983	20.026	5.114	0.504
291.000	233.974	80.003	19.998	103.986	20.027	5.060	0.504
292.500	234.766	80.010	19.995	103.984	20.028	4.969	0.527
294.000	235.564	80.009	19.992	103.977	20.026	5.111	0.531
295.500	236.280	80.004	19.995	103.975	20.024	5.254	0.476
297.000	237.044	80.007	19.996	103.979	20.022	5.424	0.481
298.500	237.791	80.006	19.999	103.974	20.025	5.213	0.494
300.000	238.572	80.006	19.994	103.974	20.029	4.888	0.515
301.500	239.278	80.004	19.996	103.983	20.029	4.897	0.479
303.000	240.014	80.002	20.002	103.977	20.028	4.941	0.508
304.500	240.760	80.002	19.995	103.972	20.024	5.237	0.498
306.000	241.521	80.004	19.993	103.984	20.026	5.098	0.499
307.500	242.300	80.004	19.996	103.980	20.024	5.242	0.509
309.000	243.018	80.008	19.995	103.964	20.026	5.074	0.489
310.500	243.773	80.007	19.992	103.956	20.026	5.107	0.522
312.000	244.603	80.003	19.995	103.967	20.026	5.109	0.574
313.500	245.352	80.006	19.994	103.977	20.024	5.237	0.494
315.000	246.114	80.007	19.993	103.976	20.027	5.032	0.508
316.500	246.863	80.006	19.995	103.972	20.027	5.060	0.494
318.000	247.650	80.003	19.995	103.963	20.025	5.222	0.528
319.500	248.379	80.004	19.996	103.967	20.026	5.119	0.510
321.000	249.192	80.006	19.995	103.974	20.021	5.455	0.521
322.500	249.944	80.005	19.995	103.966	20.025	5.210	0.521
324.000	250.715	80.024	20.000	103.971	20.024	5.268	0.505
325.500	251.484	80.017	20.008	103.994	20.027	5.072	0.517
327.000	252.265	80.018	19.999	103.984	20.025	5.198	0.530
328.500	252.981	80.007	19.996	103.973	20.024	5.296	0.506
330.000	253.774	80.005	20.001	103.963	20.026	5.119	0.542
331.500	254.515	80.000	19.999	103.970	20.023	5.337	0.509
333.000	255.265	80.003	19.997	103.967	20.022	5.436	0.490
334.500	256.060	80.006	19.992	103.969	20.022	5.421	0.506
336.000	256.755	80.004	19.994	103.979	20.021	5.503	0.479
337.500	257.545	80.007	19.994	103.978	20.025	5.220	0.510
339.000	258.274	80.003	19.995	103.977	20.024	5.285	0.484
340.500	259.038	80.009	19.992	103.962	20.022	5.403	0.485
342.000	259.816	80.007	19.996	103.959	20.023	5.360	0.518
343.500	260.547	80.002	19.995	103.962	20.019	5.616	0.485
345.000	261.271	80.006	19.995	103.960	20.018	5.688	0.491
346.500	262.023	80.006	19.990	103.971	20.019	5.614	0.506
348.000	262.759	80.011	19.988	103.978	20.020	5.585	0.485
349.500	263.522	80.007	19.993	103.958	20.020	5.565	0.538
351.000	264.257	80.007	19.994	103.970	20.018	5.682	0.490
352.500	265.018	80.002	19.995	103.971	20.017	5.756	0.497
354.000	265.751	80.007	20.000	103.965	20.019	5.644	0.469
355.500	266.505	80.008	19.994	103.924	20.015	5.934	0.498
357.000	267.262	80.007	19.994	103.940	20.013	6.085	0.488
358.500	267.996	80.009	19.993	104.012	20.014	5.982	0.485
360.000	268.722	80.003	19.995	103.975	20.016	5.839	0.470
361.500	269.509	80.005	19.994	103.949	20.016	5.885	0.510
363.000	270.287	80.007	19.996	103.953	20.012	6.148	0.519
364.500	271.007	80.008	19.988	103.959	20.014	6.044	0.489
366.000	271.782	80.008	20.000	103.975	20.011	6.223	0.503
367.500	272.509	80.007	19.999	103.955	20.014	6.001	0.487
369.000	273.278	80.009	19.995	103.939	20.011	6.225	0.489
370.500	273.973	80.012	19.995	103.958	20.013	6.120	0.456
372.000	274.775	80.009	19.993	103.971	20.012	6.155	0.538
373.500	275.508	80.010	19.992	103.968	20.010	6.283	0.520
375.000	276.240	80.002	19.998	103.955	20.011	6.266	0.484
376.500	277.001	80.009	19.995	103.954	20.009	6.353	0.506
378.000	277.698	80.009	19.994	103.954	20.007	6.526	0.462
379.500	278.498	80.010	19.994	103.955	20.005	6.721	0.530
381.000	279.277	80.007	19.995	103.955	20.008	6.427	0.506
382.500	280.003	80.007	19.994	103.952	20.005	6.690	0.496
384.000	280.742	80.007	19.995	103.951	20.009	6.388	0.492
385.500	281.491	80.000	19.992	103.953	20.007	6.549	0.513
387.000	282.237	80.004	19.996	103.959	20.003	6.804	0.513
388.500	282.995	80.003	19.993	103.959	20.010	6.344	0.507
390.000	283.726	80.007	19.997	103.955	20.010	6.332	0.506
391.500	284.503	80.009	19.993	103.953	20.007	6.573	0.518
393.000	285.196	80.006	19.996	103.956	20.007	6.537	0.478
394.500	286.005	80.004	19.996	103.957	20.005	6.648	0.511
396.000	286.720	80.007	19.994	103.958	20.004	6.760	0.498
397.500	287.508	80.006	19.994	103.961	20.006	6.614	0.503
399.000	288.232	80.005	19.995	103.947	20.004	6.749	0.476
400.500	288.994	80.002	19.997	103.945	20.002	6.911	0.497
402.000	289.753	80.006	19.995	103.954	20.000	7.052	0.505
403.500	290.550	80.005	19.994	103.947	19.999	7.124	0.517
405.000	291.311	80.004	19.995	103.937	20.002	6.898	0.513
406.500	292.039	80.004	19.990	103.952	20.003	6.822	0.486
408.000	292.834	80.005	19.995	103.955	20.000	7.033	0.500
409.500	293.561	80.006	19.993	103.942	20.000	7.085	0.479
411.000	294.321	80.004	19.993	103.955	20.000	7.097	0.481
412.500	295.086	80.005	19.992	103.958	19.999	7.148	0.503
414.000	295.816	80.005	19.994	103.949	19.997	7.278	0.482
415.500	296.571	80.003	19.994	103.960	19.996	7.346	0.517
417.000	297.340	80.004	19.994	103.957	19.991	7.755	0.517
418.500	298.108	80.007	19.993	103.951	19.996	7.401	0.512
420.000	298.827	80.004	19.994	103.946	19.993	7.568	0.516
421.500	299.606	80.005	19.995	103.948	19.993	7.596	0.506
423.000	300.348	80.004	19.995	103.945	19.992	7.642	0.503
424.500	301.112	80.006	19.994	103.961	19.995	7.461	0.510
426.000	301.854	80.007	19.994	103.927	19.992	7.661	0.503
427.500	302.630	80.007	19.994	103.920	19.991	7.700	0.510
429.000	303.393	80.007	19.991	103.967	19.992	7.632	0.517
430.500	304.141	80.008	19.993	104.001	19.994	7.497	0.499
432.000	304.850	80.008	19.992	103.966	19.992	7.674	0.484
433.500	305.608	80.008	19.995	103.949	19.990	7.789	0.518
435.000	306.418	80.008	19.993	103.947	19.991	7.741	0.535
436.500	307.155	80.008	19.994	103.947	19.990	7.832	0.514
438.000	307.950	80.009	19.995	103.945	19.987	8.063	0.519
439.500	308.664	80.008	19.995	103.953	19.985	8.176	0.496
441.000	309.472	80.006	19.993	103.952	19.988	7.935	0.549
442.500	310.226	80.006	19.994	103.951	19.988	7.961	0.493
444.000	311.005	80.007	19.993	103.951	19.985	8.165	0.507
445.500	311.765	80.006	19.992	103.945	19.980	8.592	0.536
447.000	312.537	80.007	19.993	103.902	19.984	8.284	0.523
448.500	313.299	80.008	19.993	103.921	19.981	8.456	0.503
450.000	314.090	80.005	19.994	103.962	19.982	8.399	0.505
451.500	314.856	80.006	19.994	103.985	19.980	8.525	0.519
453.000	315.601	80.008	19.993	103.956	19.980	8.553	0.502
454.500	316.373	80.009	19.994	103.949	19.978	8.678	0.526
456.000	317.122	80.009	19.996	103.944	19.975	8.936	0.484
457.500	317.900	80.008	19.994	103.942	19.973	9.086	0.537
459.000	318.692	80.008	19.994	103.943	19.974	9.012	0.524
460.500	319.402	80.009	19.994	103.937	19.974	9.026	0.495
462.000	320.167	80.009	19.994	103.945	19.975	8.922	0.512
463.500	320.885	80.007	19.994	103.947	19.975	8.963	0.490
465.000	321.682	80.007	19.992	103.931	19.972	9.193	0.528
466.500	322.446	80.006	19.994	103.934	19.973	9.094	0.516
468.000	323.220	80.006	19.994	103.948	19.971	9.269	0.534
469.500	323.932	80.006	19.994	103.946	19.969	9.384	0.483
471.000	324.717	80.006	19.992	103.940	19.968	9.469	0.516
472.500	325.499	80.007	19.996	103.949	19.966	9.599	0.513
474.000	326.233	80.006	19.993	103.952	19.964	9.752	0.497
475.500	327.024	80.003	19.995	103.945	19.964	9.782	0.530
477.000	327.742	80.005	19.994	103.933	19.961	9.983	0.483
478.500	328.519	80.006	19.995	103.944	19.962	9.891	0.524
480.000	329.298	80.005	19.996	103.945	19.959	10.152	0.505
481.500	330.063	80.005	19.995	103.945	19.960	10.033	0.497
483.000	330.823	80.006	19.995	103.948	19.958	10.237	0.511
484.500	331.591	80.003	19.999	103.947	19.957	10.298	0.521
486.000	332.398	80.000	20.000	103.932	19.950	10.822	0.533
487.500	333.150	80.010	19.996	103.941	19.949	10.884	0.491
489.000	333.898	80.003	19.992	103.945	19.951	10.757	0.490
490.500	334.700	80.006	19.994	103.945	19.949	10.893	0.528
492.000	335.445	80.004	19.994	103.941	19.944	11.230	0.498
493.500	336.185	80.005	19.995	103.926	19.942	11.423	0.493
495.000	336.942	80.006	19.995	103.942	19.940	11.536	0.522
496.500	337.747	80.006	19.995	103.947	19.938	11.690	0.536
498.000	338.508	80.005	19.994	103.930	19.934	12.022	0.502
499.500	339.244	80.005	19.995	103.938	19.932	12.149	0.489
501.000	339.989	80.006	19.993	103.951	19.927	12.546	0.511
502.500	340.777	80.007	19.994	103.949	19.922	12.894	0.519
504.000	341.519	80.006	19.996	103.949	19.920	13.084	0.500
505.500	342.289	80.006	19.993	103.942	19.914	13.544	0.497
507.000	343.052	80.005	19.995	103.945	19.912	13.632	0.497
508.500	343.769	80.005	19.995	103.936	19.911	13.727	0.490
510.000	344.533	80.006	19.993	103.925	19.908	13.996	0.490
511.500	345.283	80.007	19.992	103.935	19.901	14.478	0.515
513.000	346.047	80.006	19.993	103.948	19.898	14.751	0.507
514.500	346.775	80.005	19.995	103.942	19.892	15.197	0.491
516.000	347.535	80.008	19.994	103.947	19.888	15.438	0.512
517.500	348.300	80.007	19.994	103.945	19.884	15.756	0.509
519.000	349.050	80.008	19.993	103.946	19.881	15.985	0.494
520.500	349.807	80.007	19.993	103.944	19.876	16.383	0.527
522.000	350.568	80.007	19.994	103.942	19.869	16.901	0.521
523.500	351.350	80.007	19.994	103.950	19.861	17.490	0.497
525.000	352.057	80.005	19.994	103.953	19.858	17.739	0.471
526.500	352.829	80.009	19.993	103.953	19.848	18.488	0.530
528.000	353.609	80.005	19.994	103.949	19.842	18.911	0.521
529.500	354.384	80.007	19.994	103.945	19.834	19.529	0.522
531.000	355.099	80.005	19.993	103.936	19.824	20.242	0.502
532.500	355.871	80.005	19.995	103.942	19.815	20.973	0.497
534.000	356.608	80.006	19.994	103.948	19.807	21.521	0.501
535.500	357.361	80.007	19.995	103.938	19.800	22.097	0.484
537.000	358.116	80.008	19.994	103.936	19.785	23.209	0.507
538.500	358.864	80.008	19.993	103.936	19.778	23.765	0.498
540.000	359.623	80.009	19.992	103.940	19.765	24.673	0.504
541.500	360.419	80.008	19.994	103.958	19.756	25.407	0.527
543.000	361.152	80.006	19.993	103.908	19.744	26.259	0.487
544.500	361.918	80.009	19.994	103.913	19.735	26.941	0.511
546.000	362.662	80.007	19.993	103.983	19.722	27.954	0.495
547.500	363.423	80.007	19.993	103.956	19.712	28.688	0.514
549.000	364.173	80.006	19.994	103.948	19.695	29.992	0.501
550.500	364.910	80.005	19.995	103.948	19.680	31.050	0.484
552.000	365.666	80.005	19.994	103.949	19.668	31.993	0.529
553.500	366.404	80.006	19.994	103.911	19.652	33.175	0.505
555.000	367.136	80.005	19.994	103.907	19.637	34.335	0.475
556.500	367.899	80.004	19.995	103.969	19.624	35.271	0.525
558.000	368.673	80.005	19.995	103.970	19.607	36.557	0.524
559.500	369.455	80.006	19.994	103.950	19.588	38.003	0.528
561.000	370.200	80.006	19.993	103.957	19.564	39.804	0.507
562.500	370.932	80.005	19.995	103.959	19.542	41.480	0.488
564.000	371.730	80.006	19.994	103.952	19.519	43.204	0.537
565.500	372.476	80.006	19.994	103.950	19.494	45.087	0.487
567.000	373.261	80.007	19.993	103.944	19.466	47.145	0.528
568.500	374.011	80.006	19.994	103.951	19.445	48.755	0.490
570.000	374.819	80.006	19.993	103.950	19.414	51.062	0.526
571.500	375.523	80.005	19.994	103.949	19.386	53.199	0.458
573.000	376.261	80.005	19.994	103.951	19.356	55.428	0.511
574.500	377.017	80.006	19.995	103.955	19.327	57.567	0.493
576.000	377.775	80.004	19.994	103.968	19.290	60.361	0.498
577.500	378.553	80.004	19.994	103.958	19.254	63.083	0.525
579.000	379.321	80.005	19.995	103.970	19.215	66.035	0.491
580.500	380.072	80.004	19.994	103.972	19.177	68.891	0.522
582.000	380.837	80.004	19.995	103.963	19.135	71.985	0.512
583.500	381.566	80.004	19.995	103.970	19.089	75.449	0.480
585.000	382.353	80.005	19.995	103.966	19.043	78.964	0.515
586.500	383.130	80.006	19.995	103.983	18.991	82.846	0.507
588.000	383.893	80.004	19.995	103.992	18.941	86.614	0.493
589.500	384.670	80.005	19.995	103.985	18.889	90.550	0.531
591.000	385.419	80.007	19.993	103.983	18.832	94.781	0.515
592.500	386.183	80.006	19.995	103.983	18.777	98.938	0.531
594.000	386.961	80.006	19.994	103.983	18.718	103.362	0.520
595.500	387.733	80.008	19.994	103.985	18.657	107.917	0.508
597.000	388.520	80.007	19.994	103.991	18.598	112.381	0.540
598.500	389.259	80.006	19.993	103.993	18.529	117.584	0.523
600.000	390.032	80.008	19.993	104.000	18.460	122.797	0.502
601.500	390.778	80.007	19.993	104.010	18.386	128.382	0.495
603.000	391.601	80.007	19.993	104.018	18.315	133.608	0.555
604.500	392.372	80.008	19.992	104.018	18.244	138.961	0.519
606.000	393.140	80.007	19.992	104.007	18.175	144.108	0.519
607.500	393.963	80.006	19.993	104.007	18.104	149.453	0.565
609.000	394.725	80.006	19.993	104.007	18.001	157.297	0.521
610.500	395.515	80.008	19.993	104.015	17.899	165.095	0.533
612.000	396.289	80.007	19.994	104.056	17.822	170.969	0.509
613.500	397.074	80.008	19.993	104.028	17.764	175.255	0.544
615.000	397.866	80.007	19.994	103.988	17.707	179.513	0.529
616.500	398.635	80.009	19.994	103.962	17.643	184.297	0.509
618.000	399.456	80.008	19.994	103.981	17.564	190.250	0.530
619.500	400.207	80.009	19.994	104.021	17.474	197.030	0.514
621.000	400.952	80.009	19.993	104.135	17.364	205.228	0.487
622.500	401.726	80.010	19.993	104.190	17.239	214.310	0.494
624.000	402.437	80.009	19.993	104.164	17.098	224.542	0.476
625.500	403.213	80.009	19.992	104.133	16.950	235.519	0.513
627.000	403.959	80.009	19.992	104.120	16.759	250.113	0.480
628.500	404.670	80.008	19.993	104.101	16.497	270.490	0.481
630.000	405.462	80.006	19.993	104.086	16.256	289.583	0.534
631.500	406.239	80.008	19.993	104.125	16.138	298.414	0.518
633.000	407.037	80.006	19.994	104.011	16.101	300.752	0.511
634.500	407.824	80.007	19.995	103.839	16.079	301.982	0.529
636.000	408.591	80.007	19.993	103.707	16.041	304.628	0.515
637.500	409.339	80.005	19.994	103.775	15.970	310.009	0.490
639.000	410.095	80.007	19.993	104.004	15.883	316.651	0.487
640.500	410.857	80.008	19.993	104.378	15.785	324.093	0.510
642.000	411.587	80.007	19.994	104.484	15.680	331.957	0.508
643.500	412.360	80.006	19.995	104.345	15.575	339.846	0.513
645.000	413.146	80.004	19.994	104.177	15.466	348.002	0.526
646.500	413.923	80.006	19.994	104.084	15.350	356.741	0.509
648.000	414.667	80.006	19.994	104.088	15.233	365.576	0.483
649.500	415.406	80.005	19.995	104.117	15.120	373.936	0.499
651.000	416.159	80.004	19.993	104.131	14.990	383.666	0.496
652.500	416.895	80.005	19.994	104.134	14.869	392.817	0.489
654.000	417.699	80.005	19.994	104.133	14.752	401.759	0.531
655.500	418.440	80.005	19.993	104.120	14.633	410.736	0.513
657.000	419.191	80.007	19.994	104.104	14.526	418.901	0.487
658.500	419.953	80.006	19.995	104.121	14.427	426.323	0.524
660.000	420.667	80.005	19.993	104.107	14.347	432.357	0.483
661.500	421.453	80.005	19.995	104.095	14.282	437.204	0.535
663.000	422.172	80.005	19.995	104.094	14.224	441.540	0.491
664.500	422.922	80.005	19.994	104.112	14.176	445.200	0.490
666.000	423.710	80.005	19.993	104.130	14.138	448.216	0.526
667.500	424.427	80.005	19.994	104.150	14.111	450.264	0.477
669.000	425.178	80.005	19.995	104.162	14.104	450.788	0.496
670.500	425.946	80.005	19.995	104.167	14.112	450.168	0.517
672.000	426.690	80.007	19.994	104.159	14.138	448.121	0.500
673.500	427.429	80.006	19.996	104.138	14.180	444.985	0.491
675.000	428.204	80.006	19.994	104.143	14.230	441.273	0.514
676.500	428.956	80.005	19.994	104.181	14.294	436.599	0.494
678.000	429.707	80.008	19.994	104.198	14.372	430.738	0.514
679.500	430.445	80.007	19.996	104.201	14.473	423.056	0.506
681.000	431.239	80.008	19.994	104.201	14.586	414.599	0.548
682.500	431.977	80.007	19.994	104.190	14.721	404.433	0.483
684.000	432.753	80.008	19.996	104.177	14.866	393.514	0.507
685.500	433.556	80.006	19.995	104.193	15.026	381.478	0.537
687.000	434.296	80.007	19.995	104.211	15.196	368.582	0.502
688.500	435.078	80.008	19.994	104.239	15.376	355.020	0.525
690.000	435.837	80.006	19.994	104.229	15.569	340.534	0.511
691.500	436.666	80.007	19.994	104.214	15.769	325.462	0.552
693.000	437.445	80.006	19.994	104.220	15.976	309.867	0.536
694.500	438.234	80.007	19.994	104.222	16.188	293.870	0.515
696.000	439.010	80.008	19.995	104.232	16.402	277.708	0.527
697.500	439.780	80.007	19.993	104.210	16.616	261.516	0.488
699.000	440.619	80.007	19.995	104.199	16.826	245.699	0.572
700.500	441.394	80.008	19.993	104.197	17.040	229.626	0.529
702.000	442.192	80.009	19.994	104.190	17.244	214.232	0.546
703.500	442.993	80.010	19.993	104.186	17.441	199.404	0.544
705.000	443.798	80.008	19.994	104.182	17.636	184.749	0.545
706.500	444.602	80.009	19.994	104.157	17.819	170.972	0.535
708.000	445.354	80.008	19.994	104.127	17.993	157.892	0.518
709.500	446.159	80.007	19.993	104.110	18.155	145.635	0.527
711.000	446.935	80.006	19.994	104.100	18.310	133.986	0.520
712.500	447.779	80.006	19.994	104.082	18.454	123.196	0.568
714.000	448.577	80.006	19.993	104.068	18.590	112.993	0.537
715.500	449.363	80.005	19.993	104.058	18.717	103.426	0.508
717.000	450.136	80.005	19.993	104.041	18.833	94.699	0.516
718.500	450.967	80.006	19.994	104.032	18.929	87.447	0.538
720.000	451.777	80.005	19.994	104.024	19.027	80.121	0.543
721.500	452.571	80.006	19.993	104.014	19.113	73.638	0.547
723.000	453.332	80.005	19.993	104.003	19.191	67.781	0.488
724.500	454.137	80.006	19.993	103.999	19.266	62.141	0.536
726.000	454.964	80.008	19.993	103.997	19.330	57.346	0.541
727.500	455.727	80.006	19.993	103.994	19.389	52.939	0.523
729.000	456.520	80.005	19.993	103.975	19.439	49.166	0.513
730.500	457.281	80.007	19.993	103.966	19.488	45.494	0.524
732.000	458.064	80.007	19.993	103.964	19.534	42.029	0.520
733.500	458.869	80.007	19.993	103.957	19.568	39.464	0.531
735.000	459.672	80.006	19.994	103.948	19.599	37.112	0.512
736.500	460.427	80.006	19.995	103.939	19.635	34.437	0.519
738.000	461.225	80.005	19.994	103.934	19.665	32.195	0.537
739.500	461.987	80.005	19.995	103.921	19.690	30.332	0.509
741.000	462.774	80.004	19.994	103.919	19.713	28.566	0.510
742.500	463.533	80.005	19.994	103.919	19.736	26.907	0.534
744.000	464.296	80.005	19.995	103.915	19.758	25.188	0.508
745.500	465.038	80.007	19.994	103.908	19.774	24.031	0.510
747.000	465.809	80.006	19.995	103.904	19.793	22.566	0.467
748.500	466.501	80.007	19.994	103.911	19.807	21.546	0.471
750.000	467.330	80.006	19.994	103.900	19.822	20.401	0.541
751.500	468.093	80.005	19.996	103.892	19.839	19.122	0.484
753.000	468.867	80.006	19.995	103.908	19.851	18.245	0.522
754.500	469.629	80.006	19.995	103.909	19.864	17.223	0.522
756.000	470.441	80.007	19.993	103.895	19.878	16.222	0.539
757.500	471.184	80.007	19.995	103.884	19.889	15.380	0.511
759.000	471.898	80.007	19.994	103.897	19.907	14.066	0.500
760.500	472.692	80.008	19.995	103.890	19.915	13.444	0.525
762.000	473.450	80.007	19.995	103.881	19.929	12.403	0.514
763.500	474.262	80.008	19.995	103.881	19.943	11.341	0.524
765.000	475.018	80.007	19.995	103.875	19.959	10.160	0.516
766.500	475.774	80.007	19.995	103.875	19.969	9.406	0.511
768.000	476.540	80.006	19.995	103.883	19.976	8.879	0.510
769.500	477.259	80.007	19.996	103.877	19.986	8.108	0.471
771.000	478.019	80.005	19.995	103.884	19.993	7.562	0.499
772.500	478.773	80.007	19.997	103.896	19.999	7.126	0.500
774.000	479.513	80.006	19.995	103.897	20.006	6.635	0.500
775.500	480.254	80.006	19.995	103.882	20.011	6.234	0.489
777.000	481.056	80.006	19.996	103.886	20.012	6.134	0.522
778.500	481.829	80.006	19.994	103.880	20.015	5.895	0.515
780.000	482.570	80.006	19.994	103.880	20.016	5.854	0.497
781.500	483.284	80.008	19.994	103.885	20.014	5.980	0.469
783.000	484.025	80.007	19.993	103.884	20.019	5.628	0.479
784.500	484.784	80.008	19.994	103.901	20.020	5.566	0.490
786.000	485.547	80.008	19.993	103.887	20.019	5.628	0.501
787.500	486.314	80.010	19.993	103.897	20.020	5.571	0.521
789.000	487.053	80.007	19.993	103.898	20.019	5.615	0.496
790.500	487.858	80.008	19.993	103.893	20.022	5.377	0.523
792.000	488.578	80.008	19.994	103.904	20.020	5.589	0.472
793.500	489.375	80.007	19.993	103.910	20.020	5.533	0.530
795.000	490.109	80.009	19.994	103.903	20.019	5.649	0.488
796.500	490.881	80.005	19.994	103.909	20.019	5.668	0.515
798.000	491.647	80.006	19.994	103.910	20.022	5.419	0.530
799.500	492.438	80.007	19.993	103.893	20.019	5.614	0.533
801.000	493.199	80.005	19.994	103.894	20.021	5.517	0.506
802.500	493.973	80.005	19.994	103.911	20.022	5.390	0.502
804.000	494.718	80.006	19.993	103.905	20.022	5.405	0.501
805.500	495.490	80.006	19.994	103.902	20.022	5.372	0.515
807.000	496.253	80.006	19.993	103.910	20.022	5.439	0.519
808.500	496.992	80.006	19.994	103.914	20.019	5.642	0.485
810.000	497.757	80.008	19.994	103.904	20.020	5.566	0.500
811.500	498.528	80.007	19.994	103.901	20.017	5.745	0.535
813.000	499.328	80.006	19.994	103.907	20.019	5.641	0.538
814.500	500.095	80.008	19.993	103.898	20.021	5.480	0.521
816.000	500.871	80.007	19.994	103.888	20.019	5.621	0.537
817.500	501.670	80.007	19.994	103.901	20.019	5.628	0.514
819.000	502.417	80.006	19.994	103.907	20.017	5.758	0.502
820.500	503.176	80.007	19.994	103.891	20.020	5.548	0.493
822.000	503.913	80.008	19.993	103.897	20.019	5.606	0.486
823.500	504.682	80.005	19.993	103.911	20.020	5.545	0.505
825.000	505.455	80.006	19.994	103.908	20.022	5.421	0.510
826.500	506.187	80.006	19.994	103.899	20.023	5.307	0.475
828.000	506.996	80.004	19.994	103.899	20.023	5.326	0.535
829.500	507.740	80.005	19.994	103.907	20.025	5.212	0.514
831.000	508.576	80.006	19.994	103.911	20.022	5.373	0.550
832.500	509.317	80.005	19.995	103.912	20.026	5.138	0.532
834.000	510.132	80.006	19.996	103.904	20.022	5.426	0.537
835.500	510.892	80.006	19.995	103.886	20.026	5.116	0.521
837.000	511.662	80.006	19.994	103.894	20.025	5.177	0.511
838.500	512.419	80.007	19.995	103.907	20.025	5.157	0.506
840.000	513.208	80.007	19.994	103.901	20.026	5.138	0.517
841.500	513.999	80.006	19.994	103.901	20.025	5.194	0.536
843.000	514.804	80.006	19.993	103.904	20.024	5.258	0.514
844.500	515.583	80.007	19.994	103.897	20.024	5.244	0.499
846.000	516.380	80.008	19.994	103.904	20.023	5.336	0.534
847.500	517.151	80.006	19.994	103.896	20.021	5.482	0.492
849.000	517.943	80.006	19.994	103.897	20.025	5.207	0.531
850.500	518.714	80.006	19.993	103.897	20.027	5.065	0.536
852.000	519.522	80.006	19.995	103.907	20.023	5.301	0.528
853.500	520.278	80.006	19.994	103.904	20.023	5.301	0.530
855.000	521.086	80.007	19.994	103.909	20.026	5.108	0.522
856.500	521.846	80.006	19.994	103.907	20.019	5.604	0.507
858.000	522.639	80.007	19.994	103.904	20.022	5.406	0.521
859.500	523.401	80.006	19.994	103.904	20.024	5.276	0.509
861.000	524.178	80.006	19.994	103.912	20.022	5.389	0.510
862.500	524.953	80.006	19.994	103.910	20.023	5.340	0.527
864.000	525.731	80.005	19.994	103.903	20.021	5.496	0.526
865.500	526.513	80.006	19.994	103.899	20.025	5.145	0.539
867.000	527.312	80.006	19.993	103.906	20.024	5.231	0.535
868.500	528.075	80.006	19.994	103.908	20.026	5.138	0.508
870.000	528.843	80.008	19.994	103.898	20.024	5.243	0.499
871.500	529.606	80.008	19.995	103.897	20.026	5.124	0.515
873.000	530.411	80.008	19.994	103.899	20.025	5.183	0.533
874.500	531.176	80.007	19.993	103.902	20.025	5.182	0.531
876.000	531.967	80.008	19.993	103.906	20.027	5.060	0.502
877.500	532.749	80.007	19.993	103.901	20.027	5.048	0.530
879.000	533.532	80.007	19.993	103.883	20.025	5.152	0.510
880.500	534.316	80.007	19.994	103.891	20.026	5.118	0.527
882.000	535.051	80.007	19.994	103.895	20.028	4.966	0.480
883.500	535.849	80.006	19.994	103.883	20.024	5.229	0.533
885.000	536.619	80.006	19.994	103.900	20.025	5.208	0.525
886.500	537.361	80.006	19.993	103.895	20.026	5.091	0.525
888.000	538.123	80.007	19.994	103.896	20.026	5.134	0.510
889.500	538.884	80.006	19.994	103.924	20.026	5.128	0.497
891.000	539.652	80.007	19.992	103.915	20.027	5.005	0.524
892.500	540.476	80.007	19.994	103.910	20.025	5.205	0.535
894.000	541.209	80.006	19.994	103.900	20.023	5.334	0.507
895.500	541.984	80.007	19.993	103.882	20.026	5.126	0.513
897.000	542.760	80.007	19.994	103.893	20.025	5.202	0.511
898.500	543.519	80.007	19.995	103.902	20.023	5.352	0.529
900.000	544.249	80.008	19.994	103.894	20.024	5.280	0.509
901.500	545.033	80.007	19.994	103.893	20.024	5.272	0.517
903.000	545.760	80.007	19.994	103.909	20.019	5.649	0.502
904.500	546.587	80.007	19.995	103.906	20.022	5.423	0.528
906.000	547.325	80.006	19.995	103.902	20.025	5.180	0.513
907.500	548.084	80.005	19.995	103.903	20.022	5.412	0.497
909.000	548.869	80.006	19.994	103.895	20.020	5.530	0.530
910.500	549.634	80.006	19.994	103.902	20.022	5.424	0.516
912.000	550.371	80.004	19.994	103.901	20.023	5.354	0.503
913.500	551.161	80.007	19.994	103.906	20.020	5.558	0.526
915.000	551.922	80.006	19.994	103.910	20.020	5.525	0.510
916.500	552.691	80.005	19.992	103.914	20.024	5.235	0.511
918.000	553.434	80.006	19.994	103.896	20.022	5.440	0.500
919.500	554.225	80.006	19.994	103.903	20.022	5.420	0.516
921.000	555.010	80.007	19.993	103.908	20.023	5.311	0.523
922.500	555.815	80.007	19.993	103.901	20.021	5.517	0.557
924.000	556.518	80.007	19.993	103.897	20.025	5.144	0.484
925.500	557.302	80.008	19.993	103.895	20.025	5.195	0.530
927.000	558.061	80.006	19.993	103.896	20.021	5.496	0.518
928.500	558.840	80.007	19.994	103.892	20.025	5.214	0.518
930.000	559.655	80.007	19.995	103.893	20.023	5.341	0.532
931.500	560.369	80.006	19.994	103.897	20.023	5.325	0.487
933.000	561.124	80.008	19.994	103.909	20.023	5.317	0.507
934.500	561.892	80.007	19.995	103.901	20.026	5.118	0.504
936.000	562.714	80.007	19.995	103.884	20.026	5.087	0.524
937.500	563.468	80.008	19.995	103.894	20.025	5.175	0.516
939.000	564.235	80.008	19.994	103.891	20.023	5.363	0.502
940.500	565.030	80.006	19.994	103.887	20.025	5.163	0.523
942.000	565.773	80.008	19.995	103.880	20.023	5.357	0.488
943.500	566.504	80.008	19.994	103.891	20.025	5.178	0.510
945.000	567.265	80.007	19.995	103.889	20.022	5.416	0.513
946.500	568.058	80.008	19.995	103.889	20.028	4.983	0.539
948.000	568.832	80.008	19.995	103.888	20.029	4.898	0.507
949.500	569.581	80.008	19.995	103.909	20.027	5.007	0.501
951.000	570.370	80.008	19.995	103.907	20.027	5.021	0.488
952.500	571.122	80.009	19.995	103.904	20.023	5.315	0.469
954.000	571.870	80.009	19.995	103.903	20.021	5.488	0.516
955.500	572.666	80.007	19.995	103.900	20.021	5.500	0.538
957.000	573.396	80.006	19.994	103.908	20.023	5.370	0.514
958.500	574.304	80.009	19.995	103.897	20.033	4.569	0.547
960.000	575.011	80.007	19.995	103.894	20.031	4.756	0.520
961.500	575.823	80.006	19.996	103.906	20.033	4.562	0.469
963.000	576.505	80.006	19.995	103.902	20.013	6.098	0.412
964.500	577.327	80.006	19.995	103.908	20.024	5.249	0.539
966.000	578.033	80.006	19.996	103.900	20.024	5.240	0.559
967.500	578.942	80.006	19.994	103.909	20.027	4.997	0.650
969.000	579.423	80.005	19.995	103.912	20.026	5.092	0.372
970.500	580.686	80.006	19.995	103.901	20.021	5.501	0.693
972.000	581.683	80.005	19.995	103.882	20.024	5.289	0.810
973.500	582.561	80.008	19.995	103.883	20.022	5.423	0.610
975.000	582.846	80.006	19.994	103.894	20.025	5.168	0.135
976.500	583.931	80.008	19.994	103.902	20.025	5.202	0.676
978.000	584.281	80.007	19.995	103.907	20.024	5.236	0.359
979.501	584.779	80.007	19.995	103.911	20.025	5.199	0.387
981.000	585.570	80.007	19.994	103.910	20.024	5.250	0.611
982.500	586.401	80.007	19.994	103.907	20.026	5.100	0.523
984.000	587.279	80.006	19.993	103.912	20.022	5.391	0.508
985.500	588.031	80.008	19.993	103.911	20.024	5.272	0.605
987.000	588.777	80.007	19.995	103.897	20.028	4.950	0.515
988.500	589.579	80.007	19.993	103.903	20.027	5.052	0.547
990.000	590.339	80.005	19.995	103.910	20.027	5.060	0.462
991.500	591.047	80.005	19.993	103.907	20.029	4.889	0.470
993.000	591.883	80.007	19.994	103.904	20.027	5.021	0.568
994.500	592.719	80.006	19.993	103.900	20.027	5.006	0.520
996.000	593.433	80.007	19.992	103.891	20.025	5.192	0.513
997.500	594.142	80.006	19.994	103.908	20.024	5.256	0.460
999.000	594.988	80.006	19.993	103.905	20.025	5.214	0.567
1000.500	595.722	80.006	19.993	103.898	20.023	5.324	0.509
1002.000	596.581	80.006	19.993	103.894	20.022	5.437	0.528
1003.500	597.334	80.007	19.994	103.890	20.024	5.270	0.507
1005.000	598.136	80.008	19.994	103.887	20.026	5.136	0.538
1006.500	598.829	80.008	19.994	103.902	20.022	5.410	0.512
1008.000	599.644	80.009	19.994	103.909	20.023	5.295	0.523
1009.500	600.373	80.008	19.994	103.901	20.025	5.188	0.474
1011.000	601.154	80.008	19.993	103.903	20.023	5.340	0.510
1012.500	601.918	80.008	19.994	103.908	20.023	5.360	0.509
1014.000	602.708	80.008	19.993	103.911	20.021	5.448	0.509
1015.500	603.469	80.007	19.995	103.897	20.019	5.654	0.522
1017.000	604.235	80.006	19.994	103.900	20.022	5.395	0.512
1018.500	605.026	80.006	19.994	103.910	20.020	5.524	0.538
1020.000	605.745	80.006	19.993	103.897	20.022	5.395	0.473
1021.500	606.518	80.007	19.995	103.898	20.021	5.489	0.532
1023.000	607.303	80.006	19.995	103.895	20.023	5.297	0.490
1024.500	608.106	80.007	19.995	103.885	20.021	5.508	0.516
1026.000	608.874	80.006	19.996	103.885	20.021	5.475	0.517
1027.500	609.622	80.007	19.995	103.845	20.023	5.297	0.488
1029.000	610.322	80.009	19.996	103.861	20.022	5.429	0.504
1030.500	611.160	80.009	19.995	103.932	20.023	5.368	0.530
1032.000	611.943	80.010	19.994	103.929	20.024	5.285	0.532
1033.500	612.726	80.008	19.993	103.899	20.023	5.318	0.542
1035.000	613.501	80.009	19.994	103.900	20.025	5.178	0.518
1036.500	614.311	80.009	19.994	103.892	20.022	5.413	0.546
1038.000	615.026	80.008	19.994	103.911	20.023	5.348	0.482
1039.500	615.843	80.008	19.994	103.889	20.021	5.493	0.533
1041.000	616.597	80.007	19.995	103.879	20.021	5.458	0.498
1042.500	617.373	80.006	19.994	103.903	20.023	5.352	0.517
1044.000	618.127	80.007	19.995	103.913	20.022	5.371	0.515
1045.500	618.889	80.005	19.995	103.903	20.021	5.474	0.499
1047.000	619.681	80.007	19.995	103.892	20.022	5.423	0.518
1048.500	620.435	80.006	19.995	103.890	20.019	5.599	0.515
1050.000	621.218	80.007	19.995	103.890	20.019	5.641	0.534
1051.500	621.945	80.006	19.996	103.884	20.021	5.520	0.480
1053.000	622.726	80.005	19.996	103.891	20.019	5.616	0.524
1054.500	623.513	80.005	19.995	103.896	20.020	5.581	0.506
1056.000	624.246	80.007	19.994	103.899	20.022	5.387	0.488
1057.500	625.010	80.005	19.996	103.908	20.020	5.587	0.512
1059.000	625.778	80.006	19.995	103.904	20.021	5.505	0.514
1060.500	626.556	80.005	19.994	103.908	20.019	5.644	0.520
1062.000	627.263	80.006	19.994	103.915	20.019	5.661	0.462
1063.500	628.080	80.007	19.994	103.917	20.018	5.706	0.524
1065.000	628.834	80.006	19.994	103.914	20.022	5.395	0.488
1066.500	629.632	80.006	19.993	103.906	20.022	5.397	0.530
1068.000	630.371	80.006	19.994	103.901	20.019	5.629	0.493
1069.500	631.111	80.006	19.994	103.904	20.017	5.749	0.488
1071.000	631.894	80.007	19.992	103.901	20.017	5.809	0.534
1072.500	632.630	80.006	19.995	103.902	20.017	5.774	0.488
1074.000	633.458	80.007	19.994	103.911	20.022	5.418	0.544
1075.500	634.196	80.007	19.994	103.898	20.019	5.617	0.489
1077.000	635.013	80.006	19.994	103.892	20.015	5.926	0.555
1078.500	635.787	80.006	19.994	103.892	20.017	5.805	0.503
1080.000	636.531	80.007	19.995	103.885	20.019	5.605	0.492
1081.500	637.317	80.005	19.994	103.898	20.020	5.533	0.497
1083.000	638.109	80.006	19.993	103.905	20.021	5.517	0.533
1084.500	638.817	80.008	19.993	103.904	20.019	5.662	0.490
1086.000	639.617	80.007	19.994	103.891	20.022	5.390	0.537
1087.500	640.390	80.008	19.994	103.889	20.020	5.541	0.521
1089.000	641.174	80.009	19.994	103.903	20.022	5.393	0.505
1090.500	641.939	80.007	19.994	103.905	20.019	5.617	0.528
1092.000	642.720	80.007	19.994	103.890	20.017	5.819	0.533
1093.500	643.496	80.009	19.994	103.897	20.018	5.702	0.519
1095.000	644.254	80.008	19.993	103.895	20.018	5.712	0.514
1096.500	645.008	80.008	19.993	103.881	20.019	5.624	0.490
1098.000	645.745	80.008	19.995	103.884	20.019	5.650	0.502
1099.500	646.515	80.009	19.993	103.885	20.018	5.701	0.519
1101.000	647.294	80.007	19.993	103.887	20.016	5.867	0.534
1102.500	648.059	80.007	19.995	103.897	20.022	5.432	0.498
1104.000	648.776	80.007	19.994	103.899	20.018	5.686	0.478
1105.500	649.555	80.007	19.994	103.906	20.020	5.588	0.515
1107.000	650.365	80.006	19.993	103.906	20.018	5.739	0.539
1108.500	651.127	80.008	19.993	103.893	20.016	5.879	0.492
1110.000	651.913	80.008	19.994	103.880	20.017	5.761	0.510
1111.500	652.650	80.007	19.993	103.902	20.013	6.090	0.496
1113.000	653.399	80.008	19.995	103.913	20.017	5.812	0.508
1114.500	654.192	80.009	19.993	103.911	20.017	5.780	0.539
1116.001	654.990	80.009	19.993	103.878	20.015	5.919	0.515
1117.500	655.733	80.010	19.992	103.894	20.014	6.000	0.505
1119.000	656.508	80.008	19.994	103.910	20.015	5.926	0.518
1120.500	657.264	80.008	19.994	103.915	20.015	5.949	0.504
1122.000	658.048	80.007	19.995	103.867	20.015	5.913	0.516
1123.500	658.798	80.007	19.995	103.902	20.016	5.860	0.502
1125.000	659.582	80.005	19.994	103.938	20.013	6.096	0.519
1126.500	660.327	80.006	19.994	103.905	20.015	5.965	0.484
1128.000	661.112	80.006	19.994	103.866	20.017	5.820	0.504
1129.500	661.873	80.006	19.993	103.885	20.015	5.951	0.499
1131.000	662.649	80.005	19.993	103.947	20.019	5.631	0.505
1132.500	663.381	80.006	19.996	103.951	20.017	5.776	0.466
1134.000	664.175	80.006	19.994	103.908	20.017	5.798	0.544
1135.500	664.903	80.007	19.995	103.895	20.016	5.851	0.483
1137.001	665.669	80.005	19.994	103.900	20.020	5.546	0.494
1138.500	666.451	80.007	19.995	103.910	20.018	5.699	0.528
1140.000	667.193	80.006	19.995	103.912	20.015	5.898	0.488
1141.501	667.961	80.007	19.994	103.912	20.013	6.070	0.526
1143.000	668.723	80.005	19.994	103.911	20.013	6.099	0.546
1144.500	669.529	80.006	19.994	103.898	20.014	5.971	0.606
1146.000	670.306	80.007	19.994	103.889	20.013	6.095	0.252
1147.501	670.976	80.006	19.994	103.881	20.012	6.161	0.509
1149.000	671.815	80.006	19.995	103.881	20.010	6.296	0.527
1150.501	672.613	80.007	19.995	103.880	20.011	6.236	0.523
1152.001	673.391	80.005	19.995	103.889	20.008	6.473	0.503
1153.500	674.141	80.005	19.995	103.903	20.015	5.957	0.514
1155.000	674.913	80.007	19.994	103.900	20.010	6.289	0.514
1156.500	675.677	80.005	19.995	103.907	20.012	6.124	0.509
1158.000	676.443	80.007	19.994	103.910	20.012	6.173	0.504
1159.500	677.224	80.006	19.994	103.897	20.014	6.030	0.504
1161.000	677.967	80.004	19.994	103.883	20.010	6.334	0.506
1162.500	678.758	80.007	19.995	103.895	20.010	6.287	0.535
1164.000	679.517	80.005	19.994	103.910	20.010	6.282	0.512
1165.500	680.287	80.006	19.993	103.910	20.013	6.105	0.519
1167.000	681.061	80.007	19.993	103.913	20.011	6.259	0.500
1168.501	681.860	80.006	19.993	103.905	20.012	6.183	0.524
1170.000	682.635	80.006	19.993	103.886	20.010	6.298	0.513
1171.500	683.408	80.008	19.993	103.876	20.009	6.353	0.497
1173.000	684.170	80.007	19.994	103.886	20.010	6.341	0.533
1174.501	684.926	80.007	19.994	103.897	20.008	6.478	0.521
1176.000	685.740	80.006	19.993	103.895	20.010	6.301	0.540
1177.500	686.518	80.007	19.994	103.898	20.011	6.239	0.951
1179.000	687.238	80.008	19.995	103.895	20.012	6.190	0.550
1180.500	688.040	80.006	19.994	103.900	20.008	6.477	0.529
1182.000	688.805	80.006	19.995	103.896	20.011	6.251	0.527
1183.500	689.523	80.004	19.995	103.892	20.010	6.319	0.456
1185.000	690.322	80.008	19.994	103.908	20.011	6.221	0.535
1186.500	691.066	80.006	19.994	103.905	20.009	6.372	0.507
1188.000	691.863	80.006	19.994	103.908	20.010	6.325	0.529
1189.500	692.608	80.007	19.992	103.912	20.009	6.397	0.496
1191.000	693.438	80.008	19.992	103.898	20.009	6.361	0.558
1192.500	694.190	80.008	19.994	103.891	20.010	6.322	0.488
1194.000	694.896	80.007	19.994	103.900	20.007	6.520	0.473
1195.500	695.726	80.008	19.993	103.893	20.007	6.537	0.573
1197.000	696.523	80.009	19.994	103.894	20.007	6.535	0.522
1198.500	697.264	80.008	19.993	103.898	20.008	6.487	0.501
1200.000	698.041	80.008	19.994	103.900	20.008	6.445	0.543
1201.500	698.833	80.009	19.992	103.894	20.007	6.543	0.540
1203.000	699.523	80.009	19.992	103.891	20.008	6.426	0.485
1204.500	700.311	80.009	19.994	103.891	20.010	6.300	0.523
1206.000	701.058	80.008	19.993	103.845	20.010	6.337	0.498
1207.500	701.845	80.006	19.993	103.875	20.006	6.632	0.540
1209.000	702.556	80.005	19.993	103.922	20.010	6.287	0.464
1210.500	703.349	80.005	19.994	103.890	20.008	6.435	0.514
1212.000	704.081	80.006	19.995	103.890	20.010	6.304	0.481
1213.500	704.839	80.006	19.994	103.898	20.007	6.524	0.522
1215.001	705.629	80.007	19.995	103.892	20.009	6.360	0.528
1216.500	706.389	80.006	19.995	103.900	20.011	6.242	0.503
1218.000	707.151	80.006	19.994	103.884	20.008	6.429	0.501
1219.500	707.898	80.006	19.994	103.876	20.009	6.407	0.481
1221.000	708.665	80.007	19.993	103.882	20.005	6.664	0.515
1222.500	709.399	80.006	19.993	103.897	20.010	6.315	0.494
1224.000	710.194	80.007	19.995	103.895	20.006	6.597	0.485
1225.501	710.900	80.007	19.995	103.876	20.008	6.425	0.486
1227.000	711.634	80.006	19.994	103.885	20.005	6.718	0.490
1228.500	712.454	80.006	19.994	103.894	20.009	6.413	0.525
1230.000	713.184	80.007	19.994	103.896	20.008	6.484	0.484
1231.500	713.920	80.006	19.994	103.901	20.009	6.379	0.514
1233.000	714.693	80.007	19.995	103.898	20.007	6.566	0.487
1234.500	715.454	80.005	19.994	103.884	20.007	6.495	0.499
1236.000	716.243	80.004	19.994	103.880	20.003	6.859	0.531
1237.500	717.021	80.004	19.994	103.896	20.004	6.724	0.519
1239.000	717.768	80.005	19.995	103.894	20.001	6.947	0.513
1240.501	718.512	80.004	19.995	103.888	20.003	6.831	0.499
1242.000	719.214	80.005	19.995	103.881	20.005	6.687	0.453
1243.500	720.008	80.005	19.994	103.880	20.000	7.039	0.513
1245.000	720.792	80.006	19.995	103.885	20.003	6.824	0.510
1246.500	721.534	80.005	19.996	103.891	20.003	6.867	0.500
1248.000	722.294	80.007	19.995	103.883	20.001	6.957	0.503
1249.500	723.043	80.004	19.995	103.877	20.001	6.988	0.505
1251.000	723.787	80.008	19.993	103.893	19.999	7.148	0.502
1252.500	724.569	80.006	19.995	103.905	20.000	7.030	0.527
1254.000	725.283	80.007	19.993	103.912	20.002	6.935	0.479
1255.500	726.066	80.006	19.994	103.898	20.001	6.980	0.511
1257.000	726.850	80.007	19.992	103.892	20.001	6.964	0.531
1258.500	727.632	80.006	19.994	103.893	19.998	7.209	0.527
1260.001	728.338	80.007	19.993	103.883	19.999	7.170	0.474
1261.500	729.123	80.007	19.995	103.882	19.999	7.119	0.512
1263.000	729.861	80.006	19.994	103.888	19.998	7.187	0.488
1264.500	730.633	80.008	19.993	103.898	19.997	7.268	0.516
1266.000	731.364	80.007	19.993	103.881	19.998	7.209	0.496
1267.500	732.138	80.008	19.993	103.895	19.998	7.244	0.520
1269.000	732.867	80.007	19.993	103.906	20.000	7.068	0.504
1270.501	733.680	80.007	19.993	103.895	19.998	7.226	0.551
1272.000	734.440	80.007	19.992	103.905	20.000	7.035	0.507
1273.500	735.210	80.007	19.994	103.909	20.002	6.885	0.507
1275.000	735.948	80.006	19.994	103.896	20.002	6.906	0.491
1276.500	736.708	80.009	19.993	103.898	20.001	6.963	0.508
1278.000	737.428	80.008	19.993	103.895	20.003	6.863	0.480
1279.500	738.250	80.009	19.993	103.890	20.001	6.978	0.542
1281.000	738.992	80.008	19.996	103.877	20.000	7.039	0.501
1282.500	739.736	80.008	19.993	103.876	20.001	7.005	0.507
1284.000	740.528	80.010	19.994	103.876	20.000	7.053	0.531
1285.500	741.315	80.009	19.994	103.881	20.000	7.048	0.543
1287.000	742.089	80.007	19.994	103.873	19.998	7.181	0.526
1288.500	742.879	80.008	19.994	103.887	20.000	7.090	0.519
1289.500	743.375	80.007	19.993	103.898	20.000	7.023	0.518