File: 01_Data/XPS_Foam_Board/MCC/XPS_Foam_Board_MCC_30K_min_220120_R2.txt
Sample ID:	C:\MCC\MCC Cal\Test\XPS_Foam_Board_MCC_30K_min_220120_R2.txt
Sample Weight (mg):	4.72
Heating Rate (C/s):	0.5
Combustor Temp (C):	900
N2 Flow Rate (cc/min):	80
O2 Flow Rate (cc/min):	20
Calibration File:	C:\MCC\MCC Cal\Coeff1 JN10440_30_210304.txt.txt
T Correction Coefficients:	0	1.024463	0
Time Shift (s):	14
*
Time (s)	Temperature (C)	N2 flow rate (cc/min)	O2 flow rate (cc/min)	Flow Rate (cc/min)	Oxygen (%)	HRR (W/g)	Heating rate (C/s)
0.000	115.240	80.005	19.993	103.801	20.066	-0.384	-0.030
1.500	115.273	80.007	19.992	103.797	20.066	-0.344	0.030
3.000	115.271	80.006	19.993	103.803	20.063	-0.154	0.002
4.500	115.282	80.006	19.994	103.806	20.065	-0.265	0.031
6.000	115.280	80.004	19.993	103.812	20.066	-0.361	0.016
7.501	115.276	80.006	19.992	103.803	20.068	-0.471	-0.015
9.000	115.262	80.003	19.995	103.801	20.068	-0.510	-0.021
10.500	115.234	80.006	19.994	103.805	20.067	-0.420	-0.018
12.000	115.226	80.002	19.994	103.813	20.061	-0.049	-0.003
13.500	115.223	80.004	19.993	103.802	20.059	0.094	-0.004
15.000	115.258	80.004	19.994	103.837	20.056	0.328	0.018
16.500	115.254	80.002	19.993	103.872	20.057	0.279	0.029
18.000	115.313	80.000	19.994	103.896	20.055	0.414	0.021
19.500	115.328	80.003	19.994	103.926	20.046	1.045	0.001
21.000	115.408	80.001	19.995	103.919	20.045	1.074	0.048
22.500	115.452	80.002	19.995	103.899	20.040	1.418	0.040
24.000	115.571	80.002	19.994	103.988	20.037	1.607	0.066
25.500	115.686	80.002	19.993	104.026	20.039	1.503	0.085
27.000	115.776	80.003	19.993	103.978	20.035	1.754	0.083
28.500	115.930	80.005	19.994	103.977	20.034	1.872	0.089
30.000	116.098	80.003	19.995	103.985	20.035	1.741	0.124
31.500	116.286	80.004	19.995	103.981	20.033	1.918	0.108
33.000	116.453	80.002	19.995	103.991	20.035	1.766	0.110
34.500	116.674	80.004	19.992	103.988	20.030	2.084	0.151
36.000	116.855	80.005	19.992	103.992	20.031	2.039	0.129
37.500	117.074	80.004	19.993	103.997	20.027	2.287	0.142
39.000	117.370	80.004	19.993	103.997	20.029	2.161	0.165
40.500	117.637	80.001	19.994	104.008	20.027	2.320	0.181
42.000	117.883	80.002	19.993	104.023	20.028	2.276	0.170
43.500	118.216	80.004	19.994	104.027	20.027	2.302	0.205
45.000	118.464	80.004	19.994	104.028	20.028	2.233	0.156
46.500	118.812	80.007	19.994	104.027	20.025	2.470	0.220
48.000	119.147	80.003	19.993	104.023	20.024	2.546	0.207
49.500	119.482	80.005	19.994	104.027	20.027	2.333	0.232
51.000	119.833	80.008	19.993	104.030	20.028	2.224	0.244
52.500	120.170	80.008	19.994	104.017	20.024	2.537	0.225
54.000	120.605	80.003	19.993	104.007	20.028	2.269	0.267
55.500	120.979	80.006	19.994	104.019	20.026	2.392	0.256
57.000	121.413	80.006	19.993	104.019	20.024	2.516	0.299
58.500	121.798	80.006	19.994	104.022	20.025	2.469	0.281
60.000	122.230	79.998	19.995	104.033	20.023	2.594	0.281
61.500	122.665	80.007	19.994	104.060	20.023	2.588	0.272
63.000	123.080	80.006	19.994	104.056	20.029	2.215	0.295
64.500	123.547	80.008	19.993	104.055	20.023	2.565	0.294
66.000	124.033	80.006	19.993	104.051	20.025	2.486	0.323
67.500	124.438	80.006	19.995	104.044	20.022	2.643	0.293
69.000	124.944	80.006	19.993	104.040	20.024	2.496	0.305
70.500	125.474	80.002	19.995	104.056	20.023	2.628	0.336
72.000	125.961	80.008	19.994	104.065	20.023	2.631	0.311
73.500	126.461	80.007	19.993	104.056	20.020	2.795	0.352
75.000	126.956	80.007	19.993	104.052	20.024	2.516	0.345
76.500	127.535	80.006	19.993	104.045	20.021	2.735	0.366
78.000	128.063	80.007	19.992	104.058	20.021	2.752	0.360
79.500	128.662	80.003	19.994	104.066	20.022	2.674	0.377
81.000	129.212	80.004	19.993	104.062	20.019	2.874	0.365
82.500	129.797	80.012	19.992	104.053	20.022	2.646	0.371
84.000	130.389	80.005	19.993	104.052	20.021	2.758	0.410
85.501	130.968	80.003	19.993	104.052	20.020	2.778	0.393
87.000	131.539	80.002	19.994	104.049	20.019	2.882	0.364
88.500	132.173	80.001	19.994	104.048	20.018	2.950	0.430
90.000	132.738	80.003	19.992	104.050	20.019	2.876	0.368
91.500	133.312	80.000	19.990	104.057	20.026	2.424	0.392
93.000	133.921	80.003	19.994	104.055	20.021	2.705	0.431
94.500	134.597	80.003	19.995	104.068	20.021	2.718	0.427
96.000	135.212	80.003	19.991	104.062	20.021	2.703	0.415
97.500	135.851	80.003	19.995	104.051	20.021	2.722	0.446
99.000	136.450	79.995	19.992	104.056	20.021	2.748	0.413
100.500	137.106	80.001	19.993	104.064	20.020	2.774	0.437
102.000	137.776	80.007	19.994	104.059	20.023	2.569	0.432
103.500	138.364	80.001	19.995	104.056	20.020	2.812	0.392
105.000	139.021	80.002	19.992	104.062	20.024	2.516	0.442
106.500	139.700	80.007	19.992	104.067	20.022	2.636	0.445
108.000	140.334	80.000	19.998	104.067	20.018	2.925	0.407
109.500	141.054	80.002	19.994	104.054	20.020	2.827	0.455
111.000	141.726	80.000	19.998	104.044	20.021	2.727	0.449
112.500	142.387	80.007	19.997	104.049	20.022	2.686	0.435
114.000	143.070	80.007	19.992	104.048	20.021	2.758	0.455
115.500	143.752	80.003	19.993	104.041	20.023	2.595	0.488
117.000	144.505	80.000	19.997	104.042	20.019	2.847	0.473
118.500	145.199	80.004	19.995	104.047	20.026	2.424	0.464
120.000	145.833	80.002	19.996	104.045	20.021	2.718	0.446
121.500	146.597	80.011	19.994	104.051	20.026	2.410	0.510
123.001	147.266	80.004	19.994	104.051	20.020	2.793	0.448
124.500	147.966	80.004	19.993	104.054	20.024	2.535	0.475
126.000	148.665	79.999	19.995	104.057	20.023	2.618	0.496
127.500	149.387	79.998	19.994	104.032	20.023	2.567	0.465
129.000	150.114	80.005	19.995	104.047	20.023	2.616	0.494
130.500	150.830	80.004	19.995	104.056	20.023	2.595	0.486
132.000	151.543	80.010	19.993	104.045	20.028	2.265	0.474
133.500	152.230	80.000	19.995	104.041	20.021	2.706	0.458
135.000	152.992	80.004	19.994	104.046	20.020	2.825	0.498
136.500	153.658	80.008	19.991	104.046	20.018	2.919	0.462
138.000	154.395	80.006	19.993	104.042	20.020	2.804	0.487
139.500	155.129	80.005	19.993	104.056	20.023	2.578	0.499
141.000	155.860	80.010	19.995	104.041	20.027	2.329	0.476
142.500	156.609	80.004	19.994	104.037	20.023	2.618	0.492
144.000	157.313	80.003	19.994	104.046	20.029	2.203	0.496
145.500	158.065	80.005	19.993	104.049	20.026	2.381	0.491
147.000	158.773	80.000	19.997	104.040	20.026	2.392	0.483
148.500	159.526	80.004	19.994	104.036	20.026	2.408	0.487
150.000	160.251	80.004	19.990	104.039	20.028	2.261	0.477
151.500	160.960	80.004	19.993	104.049	20.024	2.557	0.458
153.000	161.739	80.003	19.996	104.044	20.025	2.466	0.496
154.500	162.480	80.005	19.993	104.044	20.025	2.489	0.475
156.000	163.212	80.004	19.994	104.058	20.023	2.631	0.499
157.500	163.953	80.004	19.994	104.044	20.026	2.401	0.515
159.000	164.767	80.008	19.994	104.040	20.029	2.186	0.543
160.500	165.484	80.008	19.992	104.037	20.023	2.599	0.504
162.000	166.240	79.998	20.000	104.038	20.027	2.352	0.492
163.500	167.056	80.002	19.990	104.031	20.030	2.124	0.517
165.000	167.778	80.009	19.992	104.028	20.025	2.470	0.480
166.500	168.487	80.000	19.995	104.033	20.027	2.310	0.459
168.000	169.264	80.005	19.996	104.036	20.028	2.224	0.525
169.500	170.019	80.006	19.991	104.030	20.029	2.197	0.499
171.000	170.785	80.006	19.993	104.031	20.029	2.187	0.504
172.500	171.546	80.004	19.993	104.033	20.031	2.076	0.516
174.000	172.295	80.007	19.997	104.031	20.033	1.910	0.499
175.500	173.080	80.004	19.994	104.030	20.030	2.118	0.517
177.000	173.855	80.008	19.989	104.031	20.031	2.033	0.532
178.500	174.622	80.004	19.992	104.030	20.029	2.172	0.505
180.000	175.326	80.000	19.996	104.024	20.029	2.182	0.478
181.500	176.118	80.001	19.998	104.009	20.027	2.295	0.534
183.000	176.880	80.006	19.994	104.016	20.028	2.229	0.537
184.500	177.675	80.002	19.995	104.023	20.027	2.295	0.537
186.000	178.465	80.003	19.993	104.016	20.029	2.152	0.519
187.500	179.189	80.007	19.993	104.021	20.031	2.031	0.486
189.000	179.970	80.006	19.993	104.019	20.032	1.991	0.515
190.500	180.711	80.000	19.996	104.023	20.032	2.010	0.539
192.000	181.452	80.015	19.995	104.016	20.029	2.200	0.510
193.500	182.235	79.998	19.996	104.006	20.028	2.272	0.509
195.000	182.999	80.004	19.992	104.012	20.027	2.304	0.496
196.500	183.751	80.004	19.995	104.028	20.026	2.360	0.524
198.000	184.522	80.001	19.988	104.019	20.027	2.343	0.509
199.500	185.267	80.008	19.992	104.011	20.026	2.387	0.496
201.000	186.059	80.009	19.995	104.003	20.028	2.230	0.522
202.500	186.841	80.003	19.995	104.004	20.027	2.328	0.521
204.000	187.623	80.005	19.995	104.016	20.031	2.078	0.506
205.500	188.388	80.003	19.996	104.010	20.027	2.308	0.500
207.000	189.103	80.010	19.995	104.003	20.034	1.846	0.467
208.500	189.827	80.005	19.996	104.003	20.031	2.014	0.502
210.000	190.584	79.996	19.995	104.000	20.029	2.153	0.492
211.500	191.331	80.000	19.995	104.003	20.030	2.112	0.523
213.000	192.086	80.002	19.990	103.995	20.028	2.232	0.493
214.500	192.812	80.002	19.993	103.989	20.031	2.027	0.478
216.000	193.577	80.008	19.993	103.996	20.030	2.134	0.512
217.500	194.349	80.014	19.990	103.996	20.030	2.143	0.498
219.000	195.088	79.992	19.998	103.995	20.030	2.087	0.515
220.500	195.830	80.003	19.995	103.990	20.027	2.334	0.509
222.000	196.608	80.011	19.989	103.996	20.031	2.019	0.537
223.500	197.325	80.006	19.994	104.000	20.028	2.228	0.473
225.000	198.078	80.015	19.995	104.005	20.031	2.017	0.506
226.500	198.846	79.999	19.998	104.010	20.029	2.166	0.493
228.000	199.589	80.007	19.991	103.992	20.031	2.038	0.487
229.500	200.338	79.993	19.994	103.991	20.030	2.110	0.481
231.000	201.075	80.007	19.991	103.995	20.029	2.168	0.497
232.500	201.804	80.010	19.991	103.992	20.029	2.179	0.477
234.000	202.579	80.007	19.995	103.989	20.027	2.351	0.507
235.500	203.282	80.006	19.987	103.993	20.026	2.387	0.479
237.000	204.074	80.010	19.993	103.996	20.031	2.015	0.511
238.500	204.833	80.019	19.989	103.994	20.031	2.066	0.497
240.000	205.551	80.001	19.992	103.997	20.029	2.172	0.462
241.500	206.268	80.003	19.993	103.992	20.031	2.080	0.488
243.000	207.035	80.002	19.993	103.972	20.030	2.104	0.516
244.500	207.757	80.010	19.994	103.975	20.032	1.951	0.481
246.000	208.509	80.003	19.993	103.994	20.030	2.141	0.499
247.500	209.192	80.007	19.994	103.985	20.035	1.740	0.473
249.000	209.962	80.007	19.994	103.983	20.035	1.759	0.506
250.500	210.709	80.011	19.997	103.986	20.033	1.880	0.493
252.000	211.467	80.004	19.993	103.992	20.034	1.831	0.521
253.500	212.212	79.998	19.993	103.983	20.028	2.221	0.508
255.000	212.997	80.021	19.999	103.970	20.032	1.985	0.496
256.500	213.730	79.995	19.999	103.981	20.030	2.117	0.477
258.000	214.442	80.007	19.993	103.986	20.032	1.964	0.460
259.500	215.214	79.995	19.995	103.984	20.032	1.993	0.528
261.000	215.965	80.006	19.986	103.980	20.029	2.213	0.483
262.500	216.693	79.988	19.996	103.984	20.030	2.096	0.485
264.000	217.402	79.999	19.993	103.981	20.031	2.060	0.485
265.500	218.141	80.020	19.993	103.985	20.032	2.000	0.488
267.000	218.923	80.002	19.993	103.991	20.033	1.891	0.535
268.500	219.626	80.005	19.997	103.990	20.032	1.966	0.493
270.000	220.399	80.005	19.995	103.980	20.030	2.120	0.495
271.500	221.130	80.014	19.991	103.977	20.029	2.211	0.479
273.000	221.855	79.999	19.996	103.973	20.030	2.145	0.490
274.500	222.600	80.011	19.994	103.975	20.029	2.177	0.490
276.000	223.389	80.000	19.993	103.967	20.027	2.324	0.512
277.500	224.120	80.002	19.994	103.968	20.028	2.228	0.470
279.000	224.838	80.013	19.996	103.974	20.028	2.247	0.472
280.500	225.575	80.009	19.988	103.973	20.035	1.804	0.473
282.000	226.352	79.989	19.995	103.971	20.031	2.075	0.515
283.500	227.079	79.995	19.989	103.955	20.030	2.103	0.476
285.000	227.802	79.999	19.992	103.974	20.032	1.955	0.484
286.500	228.568	80.003	19.994	103.996	20.028	2.272	0.508
288.000	229.338	80.006	19.994	103.975	20.028	2.241	0.492
289.500	230.081	80.006	19.995	103.967	20.026	2.422	0.471
291.000	230.819	79.990	19.994	103.993	20.027	2.313	0.522
292.500	231.565	80.020	19.996	103.962	20.027	2.316	0.508
294.000	232.321	80.006	19.996	103.956	20.028	2.271	0.513
295.500	233.112	79.997	19.995	103.971	20.024	2.531	0.532
297.000	233.825	80.003	19.994	103.987	20.028	2.262	0.500
298.500	234.569	80.030	19.990	103.971	20.029	2.156	0.512
300.000	235.313	80.007	19.990	103.958	20.029	2.154	0.496
301.500	236.070	80.009	19.999	103.969	20.028	2.222	0.493
303.000	236.819	80.017	20.000	103.977	20.028	2.265	0.496
304.501	237.541	80.016	19.994	103.962	20.029	2.198	0.489
306.000	238.304	80.010	19.993	103.967	20.027	2.327	0.499
307.500	239.017	79.995	20.003	103.974	20.025	2.485	0.484
309.000	239.772	79.996	19.995	103.967	20.027	2.340	0.485
310.500	240.514	79.996	19.997	103.974	20.030	2.115	0.502
312.000	241.241	79.995	19.994	103.963	20.031	2.071	0.479
313.500	241.998	80.025	19.991	103.956	20.029	2.198	0.499
315.000	242.783	80.005	19.994	103.962	20.025	2.427	0.522
316.500	243.474	80.006	19.998	103.954	20.031	2.030	0.461
318.000	244.236	80.006	19.995	103.950	20.025	2.465	0.486
319.500	244.987	80.003	19.998	103.951	20.025	2.459	0.491
321.000	245.747	80.008	19.994	103.961	20.026	2.359	0.514
322.500	246.500	80.006	19.996	103.966	20.027	2.288	0.514
324.000	247.260	80.000	20.001	103.963	20.028	2.279	0.500
325.500	248.018	79.992	19.999	103.962	20.029	2.180	0.505
327.000	248.755	80.011	19.993	103.964	20.023	2.581	0.512
328.500	249.523	80.011	19.996	103.969	20.026	2.361	0.512
330.000	250.334	80.013	19.989	103.961	20.025	2.472	0.543
331.500	251.017	79.995	19.993	103.956	20.025	2.450	0.483
333.000	251.825	79.990	19.994	103.949	20.027	2.303	0.521
334.500	252.568	80.010	19.991	103.959	20.024	2.544	0.469
336.000	253.277	80.001	19.995	103.957	20.026	2.412	0.476
337.500	254.042	79.995	19.995	103.953	20.028	2.271	0.496
339.000	254.822	80.009	19.991	103.957	20.026	2.367	0.512
340.500	255.552	80.018	19.997	103.964	20.022	2.632	0.482
342.000	256.318	80.000	19.995	103.959	20.023	2.602	0.491
343.500	257.072	80.009	19.995	103.956	20.025	2.453	0.500
345.000	257.814	80.020	19.990	103.961	20.026	2.397	0.497
346.500	258.588	80.001	19.992	103.968	20.026	2.363	0.524
348.000	259.366	80.008	19.997	103.961	20.030	2.128	0.519
349.500	260.092	80.006	19.991	103.958	20.025	2.453	0.464
351.000	260.816	80.003	19.992	103.961	20.025	2.480	0.460
352.500	261.576	80.003	19.993	103.956	20.026	2.399	0.511
354.000	262.317	80.024	19.988	103.951	20.025	2.442	0.506
355.500	263.129	80.004	19.992	103.952	20.026	2.370	0.526
357.000	263.827	79.987	19.992	103.953	20.024	2.557	0.465
358.500	264.592	80.000	19.992	103.951	20.023	2.570	0.504
360.000	265.361	79.998	19.995	103.953	20.022	2.687	0.508
361.500	266.128	80.006	19.993	103.948	20.022	2.663	0.512
363.000	266.868	79.996	19.993	103.950	20.026	2.380	0.502
364.500	267.641	80.008	19.992	103.949	20.023	2.583	0.518
366.000	268.360	79.998	19.994	103.943	20.020	2.800	0.502
367.500	269.133	80.010	19.990	103.945	20.021	2.734	0.514
369.000	269.889	80.005	19.993	103.957	20.025	2.487	0.480
370.500	270.640	79.993	20.001	103.959	20.021	2.741	0.496
372.000	271.421	80.003	19.990	103.957	20.023	2.626	0.515
373.500	272.195	80.008	19.997	103.954	20.021	2.762	0.513
375.000	272.925	80.010	19.993	103.945	20.021	2.704	0.515
376.500	273.694	79.994	19.999	103.954	20.022	2.683	0.492
378.000	274.493	80.008	19.992	103.961	20.023	2.610	0.529
379.500	275.219	80.002	19.994	103.942	20.020	2.787	0.481
381.000	275.999	80.004	19.990	103.936	20.020	2.826	0.511
382.500	276.721	80.006	19.993	103.947	20.018	2.952	0.492
384.000	277.471	80.011	19.990	103.943	20.019	2.904	0.477
385.500	278.216	80.006	19.990	103.948	20.014	3.194	0.481
387.000	278.975	80.001	19.996	103.948	20.019	2.890	0.511
388.500	279.751	79.992	20.002	103.951	20.013	3.267	0.518
390.000	280.458	80.006	19.995	103.949	20.017	3.037	0.485
391.500	281.249	80.002	19.998	103.947	20.012	3.376	0.507
393.000	281.958	80.003	19.995	103.942	20.014	3.212	0.471
394.500	282.730	80.006	19.994	103.948	20.012	3.327	0.498
396.000	283.488	80.014	19.992	103.960	20.012	3.368	0.511
397.500	284.226	80.010	19.996	103.946	20.012	3.368	0.499
399.000	284.995	80.021	19.994	103.948	20.011	3.434	0.509
400.500	285.737	80.006	19.998	103.954	20.011	3.428	0.482
402.000	286.487	80.012	19.993	103.946	20.014	3.216	0.533
403.500	287.233	79.994	19.994	103.949	20.012	3.342	0.483
405.000	288.053	80.007	19.991	103.947	20.012	3.344	0.529
406.500	288.776	80.011	19.999	103.945	20.013	3.299	0.475
408.000	289.559	80.006	19.992	103.947	20.012	3.317	0.522
409.500	290.315	80.004	19.991	103.949	20.007	3.698	0.502
411.000	291.062	80.014	19.989	103.942	20.011	3.432	0.495
412.500	291.850	79.994	19.992	103.951	20.006	3.758	0.530
414.000	292.610	80.016	19.997	103.961	20.011	3.436	0.498
415.500	293.379	80.008	19.986	103.955	20.014	3.242	0.509
417.000	294.125	80.013	19.991	103.951	20.008	3.616	0.491
418.500	294.897	79.996	19.994	103.929	20.005	3.845	0.518
420.000	295.613	80.004	19.991	103.930	20.007	3.686	0.498
421.500	296.422	80.013	19.994	103.941	20.007	3.701	0.507
423.000	297.138	80.001	19.996	103.935	20.010	3.507	0.476
424.500	297.912	80.007	19.994	103.938	20.009	3.543	0.499
426.000	298.676	80.009	19.995	103.947	20.006	3.767	0.522
427.500	299.439	80.004	19.994	103.936	20.009	3.586	0.516
429.000	300.152	80.013	19.994	103.913	20.005	3.826	0.470
430.500	300.966	80.001	19.993	103.920	20.005	3.836	0.524
432.000	301.712	80.011	19.995	103.935	20.004	3.906	0.493
433.500	302.471	80.014	19.990	103.928	19.999	4.232	0.510
435.000	303.205	79.996	19.993	103.924	20.003	3.984	0.474
436.500	303.981	80.001	20.001	103.922	20.003	3.991	0.509
438.000	304.707	79.999	19.998	103.932	20.003	3.978	0.468
439.500	305.473	80.008	19.994	103.943	20.001	4.104	0.523
441.000	306.247	80.004	19.998	103.927	19.997	4.362	0.534
442.500	306.976	80.012	19.995	103.928	19.999	4.217	0.487
444.000	307.738	79.999	19.996	103.937	20.000	4.167	0.478
445.500	308.541	80.010	19.991	103.928	19.996	4.418	0.516
447.000	309.265	80.005	19.995	103.937	19.997	4.358	0.491
448.500	310.024	80.007	19.990	103.941	19.996	4.455	0.510
450.000	310.804	80.007	19.995	103.945	20.000	4.166	0.500
451.500	311.565	80.009	19.996	103.934	19.995	4.529	0.498
453.000	312.318	80.003	19.991	103.934	19.994	4.619	0.512
454.500	313.106	80.006	19.994	103.947	19.994	4.604	0.543
456.000	313.874	79.985	19.997	103.944	19.990	4.856	0.507
457.500	314.615	80.006	19.995	103.923	19.990	4.827	0.493
459.000	315.379	80.008	19.992	103.941	19.990	4.842	0.492
460.500	316.128	80.002	19.995	103.933	19.987	5.038	0.511
462.000	316.876	80.000	19.993	103.920	19.986	5.125	0.472
463.500	317.630	80.006	19.999	103.925	19.983	5.336	0.502
465.000	318.405	80.002	19.996	103.914	19.982	5.411	0.537
466.500	319.160	80.007	19.993	103.917	19.984	5.275	0.504
468.000	319.902	80.006	19.995	103.930	19.982	5.378	0.488
469.500	320.699	80.010	19.993	103.931	19.983	5.352	0.511
471.000	321.396	80.007	19.995	103.935	19.978	5.715	0.482
472.500	322.155	79.991	19.995	103.939	19.977	5.728	0.511
474.000	322.930	80.007	19.993	103.944	19.976	5.807	0.526
475.500	323.696	80.006	19.993	103.950	19.975	5.886	0.501
477.000	324.405	80.008	19.992	103.928	19.972	6.103	0.484
478.500	325.153	79.996	19.994	103.921	19.973	6.044	0.505
480.000	325.930	80.007	19.997	103.925	19.970	6.242	0.494
481.500	326.674	80.003	19.996	103.934	19.971	6.178	0.493
483.000	327.442	80.009	19.994	103.928	19.966	6.479	0.508
484.500	328.189	79.991	19.997	103.921	19.972	6.101	0.519
486.000	328.916	79.997	19.996	103.919	19.962	6.778	0.482
487.500	329.716	80.007	19.995	103.930	19.963	6.724	0.546
489.000	330.450	80.008	19.993	103.914	19.961	6.883	0.480
490.500	331.245	80.008	19.998	103.916	19.958	7.064	0.525
492.000	331.957	80.008	19.994	103.932	19.954	7.324	0.493
493.500	332.736	80.008	19.995	103.923	19.953	7.380	0.515
495.000	333.526	80.004	19.996	103.914	19.950	7.614	0.524
496.500	334.290	80.003	19.996	103.934	19.946	7.881	0.504
498.000	335.040	80.005	19.992	103.929	19.946	7.881	0.500
499.500	335.830	79.998	19.999	103.916	19.944	8.040	0.547
501.000	336.542	80.001	19.993	103.916	19.942	8.184	0.487
502.500	337.293	80.005	19.997	103.919	19.938	8.432	0.493
504.000	338.062	80.002	19.991	103.917	19.932	8.850	0.524
505.500	338.818	80.009	19.994	103.922	19.925	9.334	0.512
507.000	339.573	79.995	19.994	103.918	19.923	9.449	0.508
508.500	340.297	79.997	19.994	103.916	19.917	9.867	0.480
510.000	341.119	80.007	19.993	103.922	19.910	10.369	0.537
511.500	341.860	79.998	19.995	103.922	19.909	10.454	0.488
513.000	342.661	80.003	19.998	103.909	19.898	11.184	0.519
514.500	343.422	80.011	19.996	103.911	19.892	11.620	0.508
516.000	344.160	79.998	19.994	103.924	19.887	11.916	0.493
517.500	344.902	80.009	19.990	103.937	19.881	12.368	0.499
519.000	345.678	80.015	19.994	103.934	19.875	12.791	0.537
520.500	346.417	79.995	19.999	103.938	19.869	13.142	0.494
522.000	347.202	80.017	19.993	103.922	19.859	13.839	0.537
523.500	347.992	79.997	19.993	103.927	19.849	14.516	0.546
525.000	348.760	80.004	19.992	103.926	19.847	14.717	0.522
526.500	349.600	79.999	19.990	103.932	19.837	15.394	0.547
528.000	350.336	80.011	19.993	103.940	19.833	15.637	0.500
529.500	351.122	80.006	19.993	103.944	19.827	16.040	0.513
531.000	351.864	80.003	19.997	103.930	19.822	16.406	0.491
532.500	352.681	80.007	19.992	103.933	19.818	16.696	0.520
534.000	353.454	79.996	19.993	103.935	19.817	16.734	0.524
535.500	354.318	80.014	19.991	103.929	19.812	17.081	0.564
537.000	355.078	80.003	19.994	103.934	19.805	17.557	0.491
538.500	355.841	80.014	19.991	103.937	19.800	17.894	0.490
540.000	356.627	80.009	19.994	103.932	19.793	18.376	0.543
541.500	357.363	80.001	19.995	103.926	19.788	18.766	0.506
543.000	358.176	80.024	19.992	103.932	19.781	19.242	0.543
544.500	358.951	80.006	19.995	103.954	19.772	19.822	0.518
546.000	359.733	80.014	19.994	103.932	19.762	20.557	0.519
547.500	360.518	80.002	19.994	103.921	19.754	21.066	0.534
549.000	361.266	80.009	19.993	103.928	19.744	21.768	0.480
550.500	362.021	79.999	19.999	103.932	19.732	22.613	0.510
552.000	362.806	80.009	19.990	103.935	19.722	23.293	0.532
553.500	363.535	80.013	19.991	103.942	19.708	24.260	0.475
555.000	364.329	80.009	19.996	103.940	19.691	25.437	0.535
556.500	365.112	80.013	19.994	103.940	19.679	26.259	0.519
558.000	365.878	80.002	19.991	103.935	19.661	27.457	0.512
559.500	366.614	80.001	19.996	103.926	19.645	28.551	0.509
561.000	367.333	79.997	19.998	103.920	19.627	29.766	0.462
562.500	368.140	80.012	19.996	103.936	19.612	30.828	0.539
564.000	368.901	80.006	19.992	103.952	19.591	32.313	0.494
565.500	369.663	80.016	19.992	103.948	19.573	33.529	0.510
567.000	370.421	80.025	19.992	103.948	19.550	35.077	0.513
568.500	371.155	80.010	19.992	103.937	19.527	36.694	0.487
570.000	371.959	80.019	19.992	103.929	19.504	38.255	0.525
571.500	372.676	80.009	20.000	103.930	19.478	40.072	0.496
573.000	373.441	80.023	19.992	103.940	19.454	41.690	0.515
574.500	374.237	79.995	19.995	103.958	19.424	43.732	0.543
576.000	374.989	80.006	19.992	103.959	19.398	45.577	0.505
577.500	375.689	80.001	19.990	103.958	19.364	47.901	0.450
579.000	376.468	80.017	19.992	103.947	19.334	49.961	0.524
580.500	377.212	79.999	19.993	103.948	19.297	52.504	0.512
582.000	377.971	80.005	19.998	103.956	19.261	54.951	0.501
583.500	378.690	80.012	19.998	103.955	19.219	57.848	0.465
585.000	379.427	80.013	19.992	103.959	19.184	60.235	0.492
586.500	380.170	80.000	19.997	103.963	19.142	63.159	0.495
588.000	380.947	80.003	19.996	103.953	19.103	65.861	0.507
589.500	381.686	79.999	19.996	103.951	19.056	69.088	0.489
591.000	382.442	80.021	19.990	103.951	19.011	72.119	0.494
592.500	383.146	80.003	19.994	103.956	18.965	75.335	0.478
594.000	383.923	79.991	19.995	103.958	18.915	78.762	0.527
595.500	384.685	80.010	19.993	103.960	18.857	82.738	0.499
597.000	385.375	80.010	19.993	103.978	18.803	86.501	0.477
598.500	386.167	80.004	19.993	103.995	18.741	90.741	0.526
600.000	386.896	80.005	19.996	103.992	18.683	94.720	0.480
601.500	387.691	80.009	19.995	103.975	18.620	99.099	0.544
603.000	388.472	80.018	19.992	103.973	18.557	103.413	0.517
604.500	389.207	80.014	19.990	103.995	18.489	108.083	0.492
606.000	389.968	80.004	19.993	103.995	18.427	112.343	0.500
607.500	390.709	80.007	19.991	103.999	18.369	116.306	0.516
609.000	391.488	79.995	19.994	103.999	18.301	121.051	0.524
610.500	392.237	80.002	19.996	103.996	18.231	125.790	0.517
612.000	392.982	80.001	19.996	104.016	18.152	131.265	0.504
613.500	393.768	80.017	19.992	104.029	18.062	137.438	0.542
615.000	394.539	80.002	19.992	104.043	17.973	143.639	0.491
616.500	395.277	80.005	19.991	104.053	17.878	150.201	0.488
618.000	396.054	80.010	19.993	104.046	17.787	156.484	0.523
619.500	396.805	80.004	19.994	104.033	17.688	163.234	0.514
621.000	397.558	80.011	19.993	104.032	17.597	169.474	0.517
622.500	398.296	79.997	19.994	104.024	17.511	175.451	0.486
624.000	399.074	80.003	19.993	104.035	17.410	182.190	0.522
625.500	399.855	80.010	19.994	104.051	17.296	189.827	0.521
627.000	400.580	80.022	19.989	104.079	17.172	198.268	0.492
628.500	401.335	80.007	19.994	104.098	17.034	207.934	0.502
630.000	402.127	79.998	19.992	104.099	16.843	221.450	0.525
631.500	402.929	80.010	19.994	104.083	16.652	235.133	0.575
633.000	403.668	80.013	19.994	104.104	16.551	242.176	0.493
634.500	404.419	80.002	19.993	104.034	16.503	245.106	0.504
636.000	405.239	80.001	19.994	103.903	16.472	246.924	0.533
637.500	406.035	80.013	19.990	103.814	16.415	250.782	0.532
639.000	406.794	80.011	19.993	103.881	16.330	256.634	0.507
640.500	407.550	80.005	20.000	104.032	16.219	264.267	0.532
642.000	408.345	80.012	19.997	104.290	16.106	272.087	0.509
643.500	409.133	80.008	19.994	104.412	15.977	280.919	0.522
645.000	409.929	80.000	19.994	104.277	15.833	290.950	0.515
646.500	410.697	80.004	19.997	104.128	15.692	300.758	0.520
648.000	411.479	79.990	19.996	104.080	15.557	310.098	0.536
649.500	412.285	80.017	19.991	104.054	15.431	318.645	0.542
651.000	413.030	80.008	19.996	104.062	15.303	327.390	0.494
652.500	413.808	80.009	19.997	104.079	15.170	336.547	0.519
654.000	414.549	79.999	19.995	104.076	15.028	346.343	0.491
655.500	415.317	79.988	19.997	104.093	14.888	355.962	0.517
657.000	416.109	80.010	19.993	104.138	14.755	365.145	0.546
658.500	416.887	80.005	19.998	104.160	14.625	374.086	0.530
660.000	417.594	80.005	19.996	104.127	14.488	383.640	0.459
661.500	418.398	80.005	19.998	104.108	14.354	392.935	0.534
663.000	419.141	79.997	19.996	104.108	14.230	401.522	0.486
664.500	419.868	80.007	19.991	104.111	14.125	408.689	0.487
666.000	420.698	80.003	19.995	104.108	14.033	414.857	0.535
667.500	421.403	79.994	19.996	104.111	13.939	421.357	0.480
669.000	422.166	80.001	19.986	104.114	13.853	427.213	0.517
670.500	422.920	80.004	19.997	104.133	13.767	433.205	0.506
672.000	423.676	79.992	19.992	104.155	13.692	438.529	0.508
673.500	424.448	80.009	19.992	104.181	13.637	442.466	0.513
675.000	425.171	80.000	20.000	104.162	13.599	445.139	0.514
676.500	425.945	80.001	19.998	104.140	13.587	445.944	0.518
678.000	426.709	80.004	19.996	104.104	13.593	445.498	0.509
679.500	427.471	80.004	19.996	104.120	13.615	444.031	0.513
681.000	428.235	80.007	19.995	104.115	13.651	441.618	0.505
682.500	429.022	79.991	19.998	104.161	13.703	438.048	0.518
684.000	429.744	80.001	19.995	104.192	13.778	432.908	0.471
685.500	430.516	80.007	19.996	104.212	13.862	427.110	0.499
687.000	431.304	80.006	19.992	104.217	13.964	420.192	0.530
688.500	432.073	80.028	19.992	104.197	14.083	411.997	0.517
690.000	432.835	80.001	19.993	104.204	14.222	402.371	0.503
691.500	433.646	80.004	19.993	104.218	14.371	392.054	0.549
693.000	434.434	80.002	19.997	104.222	14.541	380.295	0.518
694.500	435.210	80.015	19.993	104.236	14.724	367.674	0.513
696.000	435.968	80.000	19.992	104.230	14.920	354.252	0.533
697.500	436.773	80.019	19.992	104.249	15.127	339.889	0.517
699.000	437.550	80.004	19.995	104.266	15.341	325.122	0.500
700.500	438.307	79.999	19.995	104.254	15.573	309.166	0.508
702.000	439.115	79.990	19.997	104.256	15.798	293.598	0.522
703.500	439.894	80.004	19.996	104.236	16.029	277.602	0.528
705.000	440.698	80.004	19.990	104.230	16.265	261.304	0.543
706.500	441.506	80.001	19.991	104.243	16.500	245.150	0.550
708.000	442.282	80.003	20.000	104.236	16.730	229.253	0.536
709.500	443.103	80.002	19.993	104.216	16.959	213.392	0.579
711.000	443.878	80.008	19.993	104.212	17.184	197.888	0.507
712.500	444.661	80.007	19.999	104.199	17.395	183.373	0.517
714.000	445.504	80.002	19.995	104.184	17.598	169.350	0.576
715.500	446.289	80.014	19.996	104.162	17.794	155.899	0.524
717.000	447.068	80.017	19.996	104.147	17.974	143.477	0.512
718.500	447.889	80.005	19.995	104.136	18.151	131.313	0.548
720.000	448.686	80.007	19.994	104.104	18.310	120.382	0.518
721.500	449.501	80.009	19.993	104.078	18.461	109.971	0.547
723.000	450.260	80.023	19.990	104.060	18.602	100.250	0.512
724.500	451.101	80.015	19.991	104.043	18.730	91.502	0.544
726.000	451.892	79.998	19.993	104.038	18.849	83.259	0.548
727.500	452.679	80.014	19.992	104.031	18.952	76.219	0.524
729.000	453.459	80.001	19.988	104.013	19.050	69.471	0.513
730.500	454.272	80.008	19.995	104.006	19.139	63.375	0.546
732.000	455.064	80.011	19.993	103.994	19.218	57.887	0.521
733.500	455.884	80.016	19.995	103.987	19.291	52.900	0.543
735.000	456.662	80.010	19.991	103.992	19.357	48.378	0.525
736.500	457.450	80.003	19.995	103.976	19.420	44.017	0.525
738.000	458.234	80.010	19.995	103.962	19.470	40.602	0.531
739.500	459.036	80.011	19.993	103.965	19.515	37.453	0.552
741.000	459.806	80.005	19.994	103.960	19.560	34.389	0.515
742.500	460.590	80.009	19.995	103.943	19.599	31.742	0.530
744.000	461.298	80.001	19.997	103.922	19.630	29.554	0.489
745.500	462.140	80.011	19.995	103.933	19.668	26.985	0.566
747.000	462.892	80.004	19.996	103.926	19.697	25.007	0.502
748.500	463.654	80.001	19.995	103.907	19.723	23.186	0.499
750.000	464.431	80.000	19.995	103.901	19.748	21.472	0.527
751.500	465.167	80.011	19.997	103.904	19.768	20.098	0.500
753.000	465.969	80.007	19.994	103.902	19.788	18.713	0.535
754.500	466.720	80.005	19.993	103.897	19.808	17.361	0.481
756.000	467.460	80.006	19.995	103.897	19.826	16.097	0.490
757.500	468.232	80.006	19.996	103.905	19.838	15.307	0.515
759.000	469.000	80.003	19.997	103.901	19.856	14.072	0.507
760.500	469.764	80.010	19.994	103.895	19.869	13.195	0.519
762.000	470.507	80.005	19.993	103.886	19.882	12.268	0.524
763.500	471.305	80.012	19.992	103.884	19.892	11.557	0.541
765.000	472.032	80.001	19.994	103.882	19.908	10.470	0.485
766.500	472.802	80.006	19.994	103.879	19.921	9.626	0.495
768.000	473.591	80.005	19.995	103.877	19.936	8.554	0.516
769.500	474.337	80.005	19.994	103.874	19.948	7.741	0.510
771.000	475.122	80.005	19.996	103.875	19.966	6.497	0.511
772.500	475.878	80.002	19.997	103.881	19.977	5.775	0.507
774.000	476.670	80.004	19.996	103.884	19.991	4.821	0.511
775.500	477.414	80.003	19.994	103.870	20.003	3.972	0.500
777.000	478.192	80.006	19.993	103.873	20.011	3.398	0.516
778.500	478.933	80.000	19.991	103.879	20.023	2.619	0.494
780.000	479.693	80.008	19.989	103.875	20.029	2.156	0.491
781.500	480.441	79.999	19.995	103.880	20.037	1.601	0.479
783.000	481.211	80.008	19.985	103.878	20.043	1.210	0.521
784.500	481.952	80.008	19.991	103.881	20.048	0.862	0.490
786.000	482.714	80.009	19.993	103.869	20.049	0.826	0.509
787.500	483.509	80.006	19.995	103.866	20.053	0.512	0.520
789.000	484.232	80.008	19.992	103.867	20.052	0.615	0.505
790.500	484.980	80.002	19.999	103.865	20.052	0.625	0.484
792.000	485.776	80.008	19.990	103.870	20.057	0.245	0.544
793.500	486.498	80.001	19.995	103.870	20.062	-0.081	0.478
795.000	487.289	80.006	19.989	103.859	20.060	0.055	0.498
796.500	488.029	80.004	19.988	103.867	20.062	-0.068	0.491
798.000	488.785	80.002	19.993	103.868	20.061	-0.036	0.478
799.500	489.538	80.002	19.999	103.867	20.063	-0.171	0.496
801.000	490.321	80.011	19.991	103.865	20.063	-0.179	0.513
802.500	491.055	80.007	19.996	103.865	20.064	-0.254	0.507
804.000	491.816	80.012	19.990	103.879	20.065	-0.312	0.505
805.500	492.566	80.000	19.994	103.877	20.065	-0.275	0.506
807.000	493.380	80.004	19.996	103.871	20.061	-0.021	0.552
808.500	494.151	80.012	19.994	103.871	20.066	-0.374	0.510
810.000	494.927	80.003	19.995	103.873	20.067	-0.423	0.519
811.500	495.674	80.007	19.994	103.877	20.065	-0.316	0.498
813.000	496.417	80.005	19.994	103.878	20.067	-0.395	0.490
814.500	497.222	80.006	19.993	103.869	20.066	-0.342	0.533
816.000	497.988	80.008	19.992	103.871	20.067	-0.446	0.520
817.500	498.766	80.008	19.992	103.875	20.066	-0.335	0.521
819.000	499.562	80.003	19.995	103.877	20.066	-0.367	0.529
820.500	500.307	80.014	19.991	103.873	20.067	-0.418	0.485
822.000	501.077	80.004	19.994	103.881	20.067	-0.423	0.506
823.500	501.898	79.982	19.996	103.886	20.067	-0.416	0.544
825.000	502.642	80.001	19.999	103.880	20.066	-0.344	0.491
826.500	503.421	80.003	19.995	103.876	20.069	-0.546	0.518
828.000	504.184	80.006	19.995	103.873	20.068	-0.465	0.518
829.500	504.921	80.005	19.993	103.876	20.070	-0.608	0.481
831.000	505.737	80.007	19.993	103.874	20.069	-0.576	0.545
832.500	506.496	80.006	19.995	103.876	20.068	-0.508	0.506
834.000	507.277	80.008	19.994	103.874	20.067	-0.416	0.509
835.500	508.021	80.004	19.994	103.874	20.067	-0.455	0.496
837.000	508.784	80.003	19.997	103.878	20.070	-0.638	0.504
838.500	509.553	80.003	19.993	103.873	20.065	-0.295	0.529
840.000	510.339	79.999	19.997	103.871	20.069	-0.563	0.524
841.500	511.071	80.006	19.995	103.879	20.070	-0.608	0.491
843.000	511.850	80.006	19.992	103.881	20.067	-0.427	0.514
844.500	512.641	80.001	20.001	103.870	20.066	-0.382	0.510
846.000	513.417	80.002	19.994	103.871	20.064	-0.192	0.525
847.500	514.194	80.014	19.992	103.881	20.067	-0.446	0.516
849.000	514.986	80.006	19.993	103.881	20.068	-0.478	0.538
850.500	515.739	80.006	19.993	103.885	20.068	-0.478	0.500
852.000	516.533	80.002	19.997	103.887	20.066	-0.357	0.520
853.500	517.305	80.004	19.992	103.872	20.065	-0.307	0.526
855.000	518.094	80.005	19.996	103.879	20.069	-0.580	0.537
856.500	518.839	80.002	19.991	103.890	20.068	-0.510	0.501
858.000	519.625	80.003	19.991	103.879	20.068	-0.504	0.513
859.500	520.380	79.998	19.998	103.882	20.068	-0.476	0.507
861.000	521.169	80.013	19.994	103.884	20.067	-0.406	0.529
862.500	521.927	80.008	19.994	103.880	20.070	-0.611	0.493
864.000	522.711	80.006	19.996	103.877	20.070	-0.617	0.517
865.500	523.474	80.002	19.996	103.880	20.071	-0.722	0.500
867.000	524.216	80.003	19.994	103.881	20.072	-0.775	0.498
868.500	525.019	80.002	19.997	103.876	20.067	-0.457	0.535
870.000	525.815	80.013	19.993	103.876	20.071	-0.692	0.548
871.500	526.580	80.001	20.002	103.876	20.068	-0.484	0.514
873.000	527.355	80.010	19.994	103.870	20.071	-0.708	0.515
874.500	528.103	80.015	19.993	103.869	20.072	-0.738	0.493
876.000	528.905	80.005	19.996	103.871	20.071	-0.736	0.533
877.500	529.688	80.010	19.995	103.872	20.074	-0.877	0.524
879.000	530.512	80.004	19.992	103.873	20.076	-1.022	0.539
880.500	531.278	79.999	19.998	103.876	20.073	-0.845	0.510
882.000	532.055	80.005	19.995	103.874	20.072	-0.796	0.512
883.500	532.806	80.005	19.994	103.880	20.072	-0.779	0.496
885.000	533.606	80.011	19.989	103.894	20.074	-0.877	0.525
886.500	534.391	80.006	19.986	103.883	20.071	-0.730	0.518
888.000	535.180	80.006	19.996	103.877	20.069	-0.598	0.500
889.500	535.959	80.006	19.993	103.879	20.072	-0.796	0.512
891.000	536.750	80.009	19.992	103.897	20.079	-1.253	0.533
892.500	537.533	80.002	19.992	103.885	20.076	-1.014	0.510
894.000	538.258	80.009	19.993	103.883	20.071	-0.724	0.486
895.500	539.063	80.008	19.996	103.886	20.074	-0.879	0.529
897.000	539.829	80.001	19.997	103.886	20.072	-0.790	0.528
898.500	540.617	80.008	19.994	103.879	20.073	-0.869	0.541
900.000	541.401	80.010	19.989	103.888	20.070	-0.655	0.521
901.500	542.145	80.004	19.996	103.883	20.072	-0.788	0.502
903.000	542.948	80.009	19.991	103.877	20.071	-0.679	0.521
904.500	543.709	80.006	19.994	103.880	20.072	-0.743	0.512
906.000	544.475	80.003	19.994	103.875	20.073	-0.815	0.490
907.500	545.238	80.011	19.995	103.877	20.070	-0.608	0.504
909.000	545.995	80.002	19.992	103.882	20.075	-0.990	0.509
910.500	546.786	80.005	19.993	103.877	20.074	-0.905	0.526
912.000	547.546	80.002	19.994	103.878	20.073	-0.832	0.505
913.500	548.312	80.009	19.995	103.878	20.073	-0.850	0.517
915.000	549.071	80.002	19.997	103.876	20.070	-0.640	0.496
916.500	549.857	80.000	19.994	103.876	20.074	-0.901	0.520
918.000	550.671	80.002	19.994	103.876	20.071	-0.706	0.538
919.500	551.407	80.005	19.993	103.880	20.073	-0.824	0.475
921.000	552.179	80.004	19.993	103.889	20.072	-0.758	0.508
922.500	552.927	80.006	19.994	103.888	20.073	-0.807	0.485
924.000	553.767	80.006	19.993	103.878	20.075	-0.960	0.566
925.500	554.544	80.011	19.993	103.875	20.070	-0.658	0.534
927.000	555.271	80.006	19.992	103.875	20.076	-1.031	0.492
928.500	556.051	80.003	19.993	103.882	20.072	-0.794	0.522
930.000	556.840	80.004	19.994	103.876	20.072	-0.790	0.526
931.500	557.573	80.004	19.994	103.873	20.076	-1.059	0.471
933.000	558.380	80.007	19.994	103.877	20.076	-1.057	0.527
934.500	559.155	80.005	19.995	103.879	20.072	-0.790	0.519
936.000	559.916	80.002	19.995	103.874	20.070	-0.651	0.541
937.500	560.669	80.005	19.994	103.869	20.075	-1.005	0.509
939.000	561.455	80.004	19.996	103.875	20.072	-0.756	0.524
940.500	562.224	80.006	19.993	103.868	20.076	-1.065	0.515
942.000	562.982	80.006	19.993	103.873	20.070	-0.653	0.503
943.500	563.759	80.007	19.997	103.875	20.072	-0.794	0.509
945.000	564.528	80.005	19.995	103.876	20.075	-0.969	0.525
946.500	565.264	80.006	19.993	103.877	20.076	-1.018	0.485
948.000	566.044	80.008	19.996	103.876	20.075	-0.948	0.524
949.500	566.831	80.009	19.995	103.874	20.077	-1.131	0.507
951.000	567.575	80.004	19.994	103.876	20.075	-0.946	0.521
952.500	568.351	80.004	19.996	103.872	20.074	-0.882	0.526
954.000	569.117	80.006	19.995	103.870	20.073	-0.856	0.518
955.500	569.903	80.007	19.995	103.874	20.074	-0.881	0.522
957.000	570.678	80.006	19.995	103.879	20.070	-0.662	0.521
958.500	571.448	80.003	19.995	103.876	20.077	-1.106	0.529
960.000	572.219	80.003	19.995	103.871	20.075	-0.988	0.505
961.500	572.977	80.002	19.996	103.874	20.073	-0.820	0.508
963.000	573.771	80.004	19.995	103.870	20.077	-1.093	0.529
964.500	574.590	80.005	19.995	103.872	20.075	-0.950	0.525
966.000	575.363	80.002	19.995	103.874	20.074	-0.882	0.527
967.500	576.105	80.006	19.993	103.876	20.073	-0.864	0.500
969.000	576.890	80.007	19.992	103.875	20.074	-0.892	0.517
970.500	577.676	80.006	19.995	103.876	20.074	-0.937	0.503
972.000	578.424	80.005	19.994	103.876	20.077	-1.084	0.517
973.500	579.225	80.005	19.997	103.875	20.076	-1.039	0.531
975.000	579.979	80.008	19.993	103.875	20.076	-1.061	0.512
976.500	580.763	80.008	19.993	103.870	20.075	-0.978	0.547
978.000	581.516	80.013	19.991	103.875	20.074	-0.903	0.507
979.500	582.280	80.003	19.996	103.879	20.076	-1.031	0.511
981.000	583.026	80.006	19.994	103.877	20.074	-0.935	0.495
982.500	583.809	80.006	19.989	103.875	20.075	-1.001	0.525
984.000	584.579	80.004	19.994	103.879	20.079	-1.231	0.514
985.500	585.342	80.007	19.993	103.880	20.079	-1.221	0.520
987.000	586.144	80.006	19.993	103.877	20.077	-1.118	0.544
988.500	586.909	80.004	19.994	103.876	20.079	-1.234	0.507
990.000	587.647	80.001	19.996	103.878	20.075	-0.946	0.515
991.500	588.450	79.998	19.998	103.877	20.077	-1.116	0.538
993.000	589.219	80.003	19.992	103.873	20.077	-1.121	0.525
994.500	589.966	80.006	19.992	103.875	20.076	-1.027	0.523
996.000	590.781	80.006	19.993	103.877	20.078	-1.170	0.529
997.500	591.550	80.002	19.995	103.878	20.077	-1.097	0.510
999.000	592.305	80.003	19.993	103.874	20.077	-1.084	0.511
1000.500	593.086	80.008	19.993	103.871	20.078	-1.204	0.529
1002.000	593.840	80.003	19.995	103.874	20.078	-1.167	0.503
1003.500	594.625	80.009	19.992	103.874	20.078	-1.163	0.526
1005.000	595.406	80.006	19.993	103.877	20.080	-1.310	0.524
1006.500	596.182	80.007	19.994	103.881	20.074	-0.888	0.506
1008.000	596.921	80.006	19.992	103.873	20.076	-1.029	0.510
1009.500	597.734	80.002	19.993	103.870	20.076	-1.035	0.530
1011.000	598.455	80.008	19.993	103.877	20.079	-1.236	0.506
1012.500	599.205	80.003	19.995	103.877	20.078	-1.200	0.513
1014.000	600.006	80.001	19.999	103.871	20.080	-1.311	0.528
1015.500	600.775	80.002	19.995	103.876	20.079	-1.229	0.526
1017.000	601.543	80.003	19.996	103.880	20.082	-1.479	0.505
1018.500	602.328	80.007	19.993	103.875	20.079	-1.264	0.543
1020.000	603.034	80.005	19.996	103.874	20.080	-1.321	0.501
1021.500	603.813	80.005	19.994	103.873	20.081	-1.409	0.528
1023.000	604.554	80.008	19.994	103.873	20.078	-1.197	0.503
1024.500	605.367	80.006	19.996	103.874	20.080	-1.321	0.548
1026.000	606.112	80.010	19.993	103.872	20.078	-1.195	0.494
1027.500	606.890	80.006	19.998	103.874	20.081	-1.409	0.512
1029.000	607.660	80.007	19.994	103.874	20.083	-1.535	0.512
1030.500	608.415	80.007	19.996	103.878	20.083	-1.548	0.503
1032.000	609.180	80.000	19.995	103.875	20.081	-1.417	0.520
1033.500	609.976	80.009	19.993	103.874	20.080	-1.351	0.525
1035.000	610.747	80.004	19.995	103.875	20.077	-1.148	0.522
1036.500	611.507	80.005	19.993	103.874	20.079	-1.285	0.491
1038.000	612.298	80.006	19.992	103.880	20.079	-1.261	0.524
1039.500	613.069	80.010	19.991	103.881	20.079	-1.274	0.520
1041.000	613.864	80.002	19.992	103.878	20.080	-1.353	0.526
1042.500	614.580	80.007	19.996	103.875	20.082	-1.436	0.484
1044.000	615.367	80.003	19.993	103.876	20.081	-1.360	0.520
1045.500	616.161	80.005	19.993	103.877	20.082	-1.479	0.534
1047.000	616.919	80.005	19.995	103.876	20.080	-1.294	0.525
1048.500	617.697	80.009	19.993	103.876	20.079	-1.223	0.514
1050.000	618.464	80.002	19.997	103.882	20.084	-1.629	0.513
1051.500	619.256	80.005	19.993	103.877	20.080	-1.313	0.502
1053.000	620.015	80.007	19.997	103.876	20.080	-1.293	0.502
1054.500	620.795	80.009	19.990	103.875	20.079	-1.227	0.535
1056.000	621.582	80.006	19.995	103.875	20.084	-1.577	0.528
1057.500	622.325	80.008	19.992	103.871	20.081	-1.381	0.495
1059.000	623.059	80.006	19.994	103.870	20.078	-1.191	0.471
1060.500	623.815	80.003	19.995	103.873	20.080	-1.294	0.527
1062.000	624.574	80.004	19.993	103.874	20.083	-1.528	0.482
1063.500	625.369	80.006	19.994	103.875	20.082	-1.447	0.537
1065.000	626.122	80.006	19.993	103.873	20.080	-1.308	0.495
1066.500	626.913	80.005	19.996	103.872	20.082	-1.481	0.518
1068.000	627.678	80.001	19.994	103.868	20.082	-1.424	0.514
1069.500	628.482	80.009	19.993	103.870	20.080	-1.323	0.533
1071.000	629.219	80.004	19.994	103.869	20.076	-1.065	0.506
1072.500	629.971	80.002	19.994	103.874	20.081	-1.370	0.491
1074.000	630.751	80.004	19.994	103.875	20.083	-1.535	0.530
1075.500	631.586	80.006	19.994	103.873	20.087	-1.776	0.531
1077.000	632.311	80.006	19.993	103.873	20.086	-1.736	0.514
1078.500	633.076	80.008	19.990	103.875	20.083	-1.548	0.500
1080.001	633.902	80.006	19.993	103.888	20.078	-1.193	0.549
1081.500	634.597	80.006	19.994	103.866	20.081	-1.371	0.482
1083.000	635.496	80.007	19.994	103.851	20.084	-1.586	0.562
1084.500	636.240	80.008	19.994	103.877	20.080	-1.336	0.565
1086.000	636.943	80.005	19.994	103.882	20.081	-1.392	0.594
1087.500	637.616	80.005	19.993	103.874	20.078	-1.163	0.385
1089.000	637.732	80.006	19.993	103.860	20.079	-1.259	-0.074
1090.500	638.695	80.005	19.994	103.860	20.078	-1.178	0.969
1092.000	639.943	80.005	19.992	103.864	20.078	-1.151	0.604
1093.500	640.753	80.004	19.994	103.866	20.080	-1.287	0.506
1095.000	641.568	80.006	19.994	103.873	20.079	-1.234	0.558
1096.500	642.391	80.006	19.994	103.877	20.080	-1.351	0.585
1098.000	643.163	80.005	19.994	103.875	20.080	-1.328	0.514
1099.500	643.920	80.006	19.994	103.878	20.082	-1.481	0.494
1101.000	644.715	80.005	19.993	103.878	20.079	-1.283	0.525
1102.500	645.520	80.006	19.993	103.875	20.081	-1.373	0.516
1104.000	646.274	80.007	19.993	103.871	20.077	-1.142	0.503
1105.500	647.133	80.009	19.994	103.873	20.074	-0.901	0.562
1107.000	647.929	80.009	19.993	103.871	20.080	-1.302	0.573
1108.500	648.757	80.008	19.994	103.869	20.085	-1.684	0.508
1110.000	649.539	80.006	19.994	103.871	20.078	-1.166	0.526
1111.500	650.295	80.006	19.994	103.864	20.081	-1.400	0.553
1113.000	651.169	80.006	19.994	103.869	20.078	-1.157	0.512
1114.500	651.926	80.005	19.994	103.874	20.079	-1.285	0.479
1116.000	652.915	80.006	19.995	103.872	20.079	-1.244	0.599
1117.500	653.380	80.004	19.995	103.876	20.081	-1.413	0.393
1119.000	653.870	80.006	19.994	103.873	20.078	-1.191	0.715
1120.500	655.219	80.008	19.993	103.868	20.075	-1.005	1.508
1122.000	656.343	80.007	19.995	103.877	20.079	-1.268	0.706
1123.500	656.560	80.007	19.994	103.875	20.080	-1.328	0.282
1125.001	657.588	80.005	19.995	103.874	20.080	-1.300	0.580
1126.500	658.341	80.006	19.995	103.865	20.077	-1.125	0.518
1128.000	659.095	80.008	19.995	103.863	20.079	-1.238	0.527
1129.500	659.932	80.009	19.995	103.870	20.078	-1.215	0.573
1131.000	660.777	80.007	19.994	103.862	20.080	-1.328	0.572
1132.500	661.532	80.008	19.995	103.859	20.077	-1.097	0.483
1134.001	662.304	80.008	19.996	103.851	20.083	-1.511	0.524
1135.501	663.109	80.007	19.994	103.857	20.079	-1.272	0.561
1137.000	663.887	80.007	19.994	103.868	20.080	-1.309	0.526
1138.500	664.699	80.004	19.995	103.875	20.083	-1.500	0.546
1140.000	665.494	80.009	19.994	103.871	20.081	-1.375	0.519
1141.500	666.260	80.008	19.995	103.870	20.080	-1.341	0.526
1143.001	667.060	80.006	19.993	103.862	20.082	-1.447	0.533
1144.500	667.834	80.005	19.995	103.852	20.081	-1.373	0.514
1146.000	668.590	80.004	19.997	103.860	20.082	-1.426	0.532
1147.500	669.397	80.005	19.996	103.858	20.081	-1.409	0.546
1149.000	670.197	80.004	19.994	103.869	20.079	-1.264	0.529
1150.500	670.958	80.004	19.996	103.872	20.081	-1.373	0.525
1152.000	671.763	80.004	19.994	103.870	20.079	-1.243	0.527
1153.500	672.543	80.005	19.995	103.864	20.080	-1.298	0.495
1155.000	673.372	80.004	19.994	103.857	20.079	-1.281	0.549
1156.500	674.151	80.006	19.993	103.861	20.082	-1.475	0.518
1158.000	674.937	80.005	19.994	103.873	20.082	-1.432	0.539
1159.501	675.732	80.006	19.992	103.875	20.080	-1.313	0.529
1161.001	676.494	80.005	19.995	103.869	20.081	-1.418	0.510
1162.500	677.284	80.004	19.997	103.857	20.081	-1.358	0.531
1164.000	678.066	80.006	19.993	103.868	20.082	-1.434	0.511
1165.500	678.824	80.006	19.995	103.869	20.082	-1.488	0.527
1167.000	679.646	80.006	19.993	103.875	20.079	-1.259	0.545
1168.500	680.404	80.005	19.995	103.881	20.082	-1.434	0.497
1170.000	681.198	80.007	19.995	103.857	20.082	-1.473	0.515
1171.500	681.968	80.006	19.995	103.857	20.082	-1.492	0.505
1173.000	682.713	80.004	19.994	103.868	20.082	-1.454	0.511
1174.500	683.499	80.005	19.995	103.865	20.084	-1.567	0.539
1176.000	684.292	80.004	19.994	103.855	20.082	-1.479	0.535
1177.501	685.116	80.005	19.995	103.870	20.083	-1.509	0.540
1179.000	685.845	80.003	19.995	103.876	20.082	-1.488	0.463
1180.500	686.631	80.006	19.994	103.876	20.080	-1.325	0.513
1182.000	687.395	80.006	19.993	103.877	20.085	-1.682	0.506
1183.500	688.163	80.006	19.993	103.876	20.080	-1.296	0.514
1185.000	688.996	80.004	19.994	103.868	20.079	-1.276	0.543
1186.500	689.759	80.006	19.994	103.871	20.082	-1.473	0.509
1188.000	690.482	80.008	19.994	103.877	20.085	-1.639	0.485
1189.500	691.272	80.007	19.994	103.875	20.080	-1.330	0.537
1191.000	692.052	80.008	19.992	103.873	20.082	-1.471	0.498
1192.500	692.706	80.006	19.995	103.869	20.082	-1.477	0.443
1194.000	693.990	80.006	19.994	103.863	20.081	-1.404	0.749
1195.501	694.432	80.004	19.994	103.867	20.081	-1.402	0.354
1197.000	695.134	80.006	19.996	103.873	20.083	-1.547	0.479
1198.501	695.874	80.006	19.995	103.873	20.084	-1.597	0.299
1200.000	696.655	80.007	19.994	103.874	20.084	-1.571	0.515
1201.500	697.408	80.007	19.994	103.876	20.081	-1.422	0.494
1203.000	698.171	80.006	19.994	103.871	20.081	-1.390	0.498
1204.500	698.953	80.007	19.995	103.869	20.083	-1.520	0.528
1206.000	699.725	80.005	19.996	103.875	20.079	-1.258	0.519
1207.500	700.487	80.008	19.994	103.871	20.081	-1.400	0.505
1209.000	701.251	80.006	19.994	103.866	20.080	-1.330	0.519
1210.500	701.972	80.008	19.993	103.854	20.083	-1.505	0.494
1212.000	702.711	80.007	19.994	103.859	20.084	-1.561	0.495
1213.500	703.483	80.007	19.996	103.869	20.083	-1.550	0.536
1215.000	704.144	80.008	19.995	103.870	20.084	-1.567	0.434
1216.500	704.963	80.008	19.994	103.855	20.079	-1.270	0.596
1218.000	705.732	80.008	19.994	103.849	20.081	-1.422	0.534
1219.500	706.443	80.007	19.995	103.858	20.083	-1.529	0.465
1221.000	707.230	80.008	19.993	103.855	20.083	-1.501	0.506
1222.500	707.974	80.008	19.993	103.855	20.085	-1.640	0.480
1224.000	708.730	80.006	19.993	103.868	20.083	-1.520	0.512
1225.500	709.514	80.005	19.995	103.865	20.084	-1.618	0.511
1227.000	710.217	80.005	19.995	103.866	20.082	-1.488	0.481
1228.500	710.961	80.004	19.994	103.873	20.079	-1.268	0.480
1230.000	711.732	80.005	19.995	103.866	20.081	-1.400	0.499
1231.500	712.471	80.004	19.995	103.850	20.079	-1.259	0.510
1233.000	713.237	80.004	19.995	103.852	20.080	-1.298	0.499
1234.500	714.012	80.005	19.995	103.864	20.081	-1.381	0.518
1236.000	714.753	80.004	19.995	103.870	20.079	-1.285	0.493
1237.500	715.504	80.006	19.996	103.871	20.085	-1.682	0.521
1239.000	716.301	80.004	19.996	103.866	20.080	-1.306	0.533
1240.500	717.053	80.004	19.995	103.865	20.081	-1.387	0.487
1242.000	717.845	80.005	19.996	103.871	20.085	-1.691	0.521
1243.500	718.545	80.003	19.994	103.875	20.082	-1.458	0.486
1245.000	719.279	80.003	19.995	103.873	20.083	-1.541	0.481
1246.500	720.055	80.006	19.995	103.876	20.081	-1.400	0.534
1248.000	720.836	80.005	19.993	103.863	20.080	-1.354	0.538
1249.500	721.550	80.005	19.994	103.851	20.081	-1.364	0.493
1251.000	722.319	80.005	19.993	103.869	20.081	-1.362	0.526
1252.500	723.072	80.007	19.995	103.876	20.079	-1.260	0.498
1254.000	723.816	80.004	19.994	103.864	20.083	-1.514	0.496
1255.500	724.621	80.005	19.995	103.866	20.079	-1.240	0.541
1257.000	725.353	80.008	19.995	103.870	20.082	-1.435	0.499
1258.501	726.081	80.008	19.994	103.850	20.079	-1.283	0.467
1260.000	726.818	80.004	19.994	103.842	20.082	-1.471	0.486
1261.500	727.584	80.004	19.994	103.840	20.080	-1.352	0.510
1263.000	728.354	80.006	19.994	103.854	20.079	-1.245	0.489
1264.500	729.120	80.008	19.994	103.865	20.076	-1.059	0.511
1266.000	729.918	80.006	19.994	103.855	20.077	-1.132	0.530
1267.500	730.640	80.006	19.993	103.851	20.078	-1.208	0.489
1269.000	731.436	80.006	19.993	103.857	20.080	-1.288	0.527
1270.500	732.192	80.007	19.997	103.860	20.078	-1.213	0.507
1272.000	732.953	80.008	19.994	103.843	20.084	-1.603	0.511
1273.500	733.746	80.008	19.994	103.841	20.079	-1.253	0.514
1275.000	734.471	80.006	19.994	103.849	20.080	-1.334	0.499
1276.500	735.233	80.006	19.994	103.852	20.084	-1.567	0.486
1278.000	735.986	80.006	19.993	103.847	20.080	-1.339	0.498
1279.501	736.732	80.006	19.993	103.838	20.081	-1.401	0.501
1281.000	737.511	80.007	19.993	103.850	20.077	-1.132	0.527
1282.500	738.262	80.007	19.994	103.865	20.078	-1.210	0.509
1284.000	739.016	80.007	19.993	103.853	20.080	-1.294	0.484
1285.500	739.788	80.007	19.993	103.844	20.079	-1.278	0.503
1287.000	740.590	80.007	19.994	103.856	20.082	-1.434	0.514
1288.500	741.356	80.008	19.993	103.848	20.077	-1.104	0.503
1290.000	742.117	80.007	19.994	103.850	20.079	-1.270	0.516
1291.500	742.912	80.004	19.995	103.851	20.080	-1.296	0.527
1292.500	743.417	80.007	19.995	103.859	20.082	-1.465	0.517