File: 01_Data/Nylon_Carpet_Low_Pile/MCC/Nylon_Carpet_Low_Pile_MCC_30K_min_211028_R1.txt
Sample ID:	C:\MCC\MCC Cal\Test\Nylon_Carpet_LowPile_MCC_30K_min_211028_R1.txt
Sample Weight (mg):	4.7
Heating Rate (C/s):	0.5
Combustor Temp (C):	900
N2 Flow Rate (cc/min):	80
O2 Flow Rate (cc/min):	20
Calibration File:	C:\MCC\MCC Cal\Coeff1 JN10440_30_210304.txt.txt
T Correction Coefficients:	0	1.024463	0
Time Shift (s):	14
*
Time (s)	Temperature (C)	N2 flow rate (cc/min)	O2 flow rate (cc/min)	Flow Rate (cc/min)	Oxygen (%)	HRR (W/g)	Heating rate (C/s)
0.000	109.149	79.998	19.995	102.960	20.069	0.102	-0.029
2.000	109.169	79.998	19.995	102.960	20.069	0.102	-0.016
4.000	109.160	79.998	19.996	102.960	20.071	-0.043	-0.003
6.000	109.130	79.999	19.994	102.960	20.069	0.070	-0.002
8.000	109.126	80.000	19.994	102.963	20.067	0.213	0.001
10.000	109.148	79.995	19.995	102.967	20.070	-0.002	-0.014
12.000	109.123	79.998	19.994	102.961	20.067	0.207	-0.009
14.000	109.104	80.002	19.994	102.962	20.070	0.008	-0.020
16.000	109.092	79.999	19.995	102.962	20.069	0.092	0.007
18.000	109.027	79.998	19.994	102.964	20.067	0.175	-0.028
20.000	109.036	79.997	19.994	102.962	20.068	0.172	-0.021
22.000	109.000	79.998	19.993	102.966	20.070	0.009	-0.013
24.000	109.025	79.997	19.995	102.973	20.069	0.085	0.001
26.000	108.978	79.997	19.994	102.970	20.068	0.170	-0.007
28.000	109.038	79.999	19.995	102.968	20.070	0.025	0.019
30.000	108.985	79.999	19.994	102.965	20.063	0.478	-0.026
32.000	108.985	79.999	19.994	102.975	20.059	0.739	0.008
34.000	108.952	79.998	19.995	103.100	20.047	1.584	-0.004
36.000	109.035	80.000	19.994	103.185	20.040	2.030	0.010
38.000	109.127	80.000	19.993	103.200	20.034	2.497	0.045
40.000	109.289	79.998	19.994	103.221	20.028	2.888	0.093
42.000	109.495	80.001	19.994	103.244	20.023	3.228	0.118
44.000	109.725	79.996	19.995	103.248	20.020	3.449	0.132
46.000	110.023	80.000	19.994	103.236	20.019	3.509	0.142
48.000	110.350	80.002	19.994	103.237	20.016	3.719	0.164
50.000	110.750	79.995	19.995	103.236	20.018	3.547	0.167
52.000	111.168	79.997	19.995	103.234	20.015	3.762	0.199
54.000	111.619	79.998	19.995	103.232	20.017	3.659	0.210
56.000	112.056	79.996	19.995	103.232	20.018	3.564	0.221
58.000	112.586	79.997	19.996	103.233	20.013	3.910	0.255
60.000	113.070	79.994	19.994	103.233	20.017	3.632	0.258
62.000	113.663	79.996	19.996	103.221	20.017	3.628	0.305
64.001	114.230	79.998	19.995	103.232	20.015	3.745	0.281
66.001	114.841	79.996	19.995	103.228	20.020	3.445	0.327
68.000	115.429	79.996	19.995	103.225	20.017	3.628	0.310
70.000	116.063	79.997	19.995	103.233	20.015	3.761	0.346
72.000	116.668	79.997	19.995	103.232	20.016	3.729	0.308
74.000	117.356	79.997	19.996	103.232	20.016	3.693	0.320
76.000	118.063	79.997	19.996	103.231	20.013	3.906	0.366
78.000	118.735	79.998	19.996	103.233	20.015	3.797	0.340
80.000	119.510	79.998	19.996	103.236	20.018	3.549	0.368
82.000	120.251	79.994	19.997	103.240	20.016	3.698	0.360
84.001	120.969	79.997	19.996	103.249	20.016	3.732	0.376
86.000	121.740	79.999	19.997	103.236	20.015	3.783	0.384
88.000	122.511	79.999	19.996	103.239	20.012	4.006	0.396
90.000	123.364	79.999	19.995	103.233	20.013	3.876	0.454
92.000	124.121	79.996	19.995	103.235	20.017	3.666	0.371
94.000	124.987	79.998	19.993	103.236	20.012	3.944	0.416
96.000	125.809	79.998	19.995	103.232	20.013	3.890	0.399
98.000	126.663	79.997	19.994	103.237	20.013	3.876	0.423
100.000	127.490	80.001	19.994	103.238	20.015	3.766	0.425
102.000	128.376	79.999	19.996	103.242	20.011	4.018	0.449
104.000	129.193	79.998	19.994	103.239	20.016	3.723	0.422
106.000	130.104	79.999	19.996	103.251	20.013	3.904	0.445
108.000	130.981	80.000	19.994	103.240	20.015	3.776	0.426
110.000	131.898	79.999	19.995	103.242	20.014	3.872	0.454
112.000	132.846	79.999	19.995	103.239	20.015	3.772	0.513
114.000	133.768	79.999	19.994	103.249	20.014	3.827	0.459
116.000	134.672	80.002	19.994	103.238	20.013	3.906	0.473
118.000	135.593	80.002	19.995	103.236	20.014	3.867	0.472
120.000	136.540	79.998	19.996	103.239	20.017	3.649	0.468
122.001	137.509	80.000	19.994	103.236	20.016	3.672	0.466
124.000	138.416	79.999	19.994	103.244	20.015	3.763	0.464
126.000	139.395	79.996	19.996	103.238	20.013	3.929	0.479
128.000	140.407	79.998	19.996	103.237	20.013	3.923	0.495
130.000	141.361	79.998	19.995	103.239	20.015	3.749	0.479
132.000	142.340	79.996	19.995	103.237	20.013	3.912	0.481
134.000	143.342	79.999	19.995	103.235	20.016	3.717	0.515
136.000	144.289	79.998	19.995	103.235	20.012	3.993	0.489
138.000	145.294	79.998	19.997	103.236	20.014	3.831	0.505
140.000	146.258	79.996	19.996	103.236	20.013	3.933	0.471
142.000	147.254	79.998	19.995	103.234	20.010	4.103	0.499
144.000	148.267	79.997	19.995	103.235	20.014	3.825	0.501
146.000	149.270	79.994	19.995	103.235	20.014	3.868	0.509
148.000	150.244	79.995	19.997	103.236	20.012	3.957	0.475
150.001	151.248	80.000	19.995	103.239	20.012	3.947	0.511
152.000	152.253	79.996	19.995	103.234	20.014	3.838	0.496
154.000	153.252	79.998	19.995	103.235	20.017	3.634	0.492
156.000	154.254	79.997	19.995	103.232	20.017	3.634	0.486
158.000	155.279	79.998	19.994	103.222	20.017	3.626	0.536
160.000	156.269	79.996	19.996	103.228	20.016	3.732	0.542
162.000	157.253	79.997	19.995	103.223	20.015	3.743	0.503
164.000	158.266	79.997	19.995	103.224	20.016	3.726	0.516
166.000	159.294	79.997	19.996	103.232	20.016	3.669	0.525
168.000	160.289	79.998	19.995	103.224	20.018	3.536	0.477
170.000	161.285	79.998	19.996	103.211	20.016	3.714	0.523
172.000	162.268	79.998	19.996	103.224	20.017	3.663	0.477
174.000	163.335	79.999	19.996	103.207	20.017	3.621	0.514
176.000	164.286	79.997	19.996	103.208	20.017	3.606	0.503
178.000	165.351	79.998	19.997	103.197	20.015	3.738	0.494
180.000	166.317	79.997	19.996	103.194	20.019	3.523	0.494
182.000	167.342	79.998	19.996	103.193	20.020	3.408	0.492
184.000	168.314	79.998	19.995	103.193	20.017	3.650	0.497
186.000	169.350	80.000	19.994	103.193	20.021	3.391	0.528
188.000	170.326	79.997	19.993	103.197	20.021	3.374	0.468
190.000	171.286	79.998	19.994	103.193	20.019	3.476	0.482
192.000	172.297	80.000	19.995	103.192	20.017	3.633	0.459
194.000	173.319	80.001	19.995	103.193	20.019	3.523	0.488
196.000	174.338	80.000	19.995	103.193	20.018	3.572	0.482
198.000	175.295	80.000	19.995	103.194	20.018	3.536	0.493
200.000	176.327	79.997	19.996	103.192	20.018	3.563	0.515
202.000	177.270	79.997	19.996	103.193	20.018	3.553	0.476
204.000	178.275	80.001	19.994	103.198	20.020	3.423	0.478
206.000	179.278	79.997	19.996	103.196	20.022	3.277	0.461
208.000	180.254	79.994	19.995	103.194	20.023	3.251	0.501
210.000	181.236	79.988	19.997	103.194	20.024	3.153	0.495
212.000	182.258	79.997	19.995	103.189	20.024	3.132	0.503
214.000	183.248	80.001	19.993	103.192	20.025	3.083	0.516
216.000	184.177	79.996	19.993	103.193	20.025	3.075	0.486
218.000	185.202	79.982	19.996	103.193	20.027	2.968	0.527
220.000	186.272	79.998	19.993	103.195	20.025	3.075	0.533
222.000	187.244	79.998	19.994	103.194	20.026	2.996	0.489
224.000	188.256	79.999	19.995	103.197	20.027	2.917	0.502
226.000	189.215	79.998	19.994	103.196	20.027	2.935	0.495
228.000	190.235	79.996	19.994	103.193	20.026	3.034	0.486
230.000	191.225	79.998	19.994	103.195	20.025	3.098	0.510
232.000	192.202	79.997	19.995	103.197	20.027	2.983	0.503
234.000	193.157	79.997	19.994	103.199	20.027	2.969	0.447
236.000	194.148	79.995	19.996	103.197	20.025	3.084	0.478
238.000	195.172	79.996	19.996	103.191	20.025	3.073	0.456
240.000	196.101	79.996	19.996	103.181	20.024	3.122	0.467
242.000	197.078	80.000	19.997	103.185	20.027	2.944	0.491
244.000	198.044	79.998	19.997	103.187	20.025	3.097	0.485
246.000	199.023	79.996	19.996	103.181	20.028	2.909	0.510
248.000	200.026	80.000	19.996	103.172	20.023	3.195	0.471
250.000	200.953	80.002	19.997	103.179	20.026	2.999	0.485
252.001	201.972	80.001	19.997	103.178	20.024	3.186	0.507
254.000	202.926	79.998	19.996	103.170	20.025	3.067	0.466
256.000	203.900	80.000	19.995	103.180	20.027	2.939	0.487
258.000	204.851	79.999	19.996	103.178	20.029	2.810	0.458
260.000	205.887	79.998	19.997	103.164	20.026	3.009	0.527
262.000	206.883	79.998	19.997	103.177	20.026	2.997	0.494
264.000	207.855	79.999	19.996	103.177	20.028	2.858	0.497
266.000	208.790	79.999	19.998	103.163	20.023	3.249	0.451
268.000	209.825	79.999	19.996	103.181	20.026	3.046	0.519
270.000	210.815	79.999	19.996	103.172	20.022	3.278	0.508
272.000	211.863	79.998	19.996	103.179	20.024	3.150	0.542
274.000	212.815	80.000	19.995	103.169	20.023	3.248	0.496
276.000	213.816	80.001	19.995	103.176	20.023	3.212	0.506
278.000	214.831	80.000	19.993	103.169	20.027	2.971	0.514
280.000	215.796	80.001	19.994	103.163	20.025	3.054	0.494
282.000	216.795	80.000	19.993	103.171	20.027	2.950	0.492
284.000	217.779	80.001	19.995	103.176	20.026	3.041	0.507
286.000	218.755	79.998	19.994	103.163	20.023	3.199	0.459
288.000	219.765	79.998	19.996	103.165	20.024	3.131	0.491
290.000	220.713	79.998	19.993	103.160	20.026	2.984	0.498
292.000	221.746	79.998	19.995	103.161	20.028	2.874	0.489
294.000	222.774	79.997	19.995	103.163	20.027	2.952	0.506
296.000	223.775	79.998	19.996	103.165	20.028	2.883	0.490
298.000	224.748	79.998	19.994	103.165	20.027	2.929	0.492
300.000	225.783	79.999	19.996	103.163	20.027	2.921	0.510
302.000	226.742	79.998	19.995	103.160	20.026	2.991	0.516
304.000	227.758	79.999	19.995	103.158	20.029	2.795	0.505
306.000	228.759	79.999	19.994	103.156	20.029	2.802	0.509
308.000	229.718	79.998	19.994	103.155	20.028	2.855	0.493
310.000	230.748	79.998	19.995	103.156	20.029	2.842	0.507
312.000	231.697	79.998	19.994	103.157	20.029	2.787	0.475
314.000	232.683	79.997	19.995	103.156	20.026	3.002	0.449
316.000	233.688	79.998	19.994	103.150	20.024	3.152	0.485
318.000	234.691	80.000	19.994	103.151	20.030	2.753	0.519
320.000	235.607	79.999	19.995	103.153	20.029	2.783	0.499
322.000	236.614	79.998	19.994	103.155	20.032	2.576	0.514
324.000	237.560	79.997	19.996	103.153	20.031	2.677	0.493
326.000	238.515	79.998	19.997	103.156	20.030	2.776	0.472
328.000	239.433	79.998	19.995	103.156	20.029	2.797	0.454
330.000	240.405	79.998	19.996	103.156	20.026	3.036	0.454
332.000	241.391	80.001	19.995	103.158	20.027	2.925	0.502
334.000	242.401	79.998	19.995	103.154	20.026	3.035	0.493
336.000	243.375	79.999	19.996	103.148	20.028	2.846	0.493
338.000	244.321	79.998	19.995	103.156	20.029	2.784	0.471
340.000	245.281	80.000	19.995	103.152	20.029	2.802	0.500
342.000	246.273	79.998	19.995	103.149	20.027	2.961	0.494
344.000	247.194	80.001	19.994	103.155	20.026	3.021	0.468
346.000	248.215	79.998	19.995	103.156	20.030	2.759	0.489
348.000	249.201	79.998	19.995	103.157	20.030	2.776	0.505
350.000	250.227	79.998	19.995	103.156	20.029	2.812	0.514
352.000	251.223	79.998	19.995	103.152	20.025	3.053	0.508
354.000	252.259	79.999	19.996	103.156	20.025	3.114	0.531
356.000	253.240	79.999	19.995	103.145	20.028	2.906	0.519
358.000	254.193	79.999	19.996	103.152	20.027	2.957	0.455
360.000	255.197	80.000	19.994	103.151	20.027	2.965	0.499
362.000	256.262	80.000	19.995	103.156	20.025	3.055	0.526
364.000	257.213	79.998	19.994	103.156	20.029	2.814	0.490
366.000	258.198	79.997	19.996	103.155	20.028	2.914	0.494
368.000	259.233	79.997	19.996	103.153	20.028	2.878	0.530
370.000	260.269	79.999	19.995	103.155	20.031	2.706	0.506
372.000	261.271	79.997	19.995	103.155	20.025	3.095	0.541
374.000	262.276	79.996	19.994	103.153	20.026	3.017	0.499
376.000	263.306	79.997	19.994	103.155	20.026	3.042	0.526
378.000	264.364	79.997	19.995	103.153	20.028	2.851	0.527
380.000	265.370	79.997	19.995	103.154	20.027	2.919	0.516
382.000	266.424	79.997	19.995	103.153	20.028	2.847	0.521
384.000	267.464	79.999	19.995	103.149	20.027	2.930	0.510
386.000	268.491	79.997	19.995	103.152	20.025	3.098	0.517
388.000	269.548	79.998	19.996	103.147	20.026	3.026	0.518
390.000	270.597	79.999	19.995	103.149	20.029	2.832	0.548
392.000	271.671	79.998	19.995	103.147	20.029	2.790	0.576
394.000	272.711	80.000	19.996	103.139	20.026	3.030	0.523
396.000	273.708	80.000	19.994	103.146	20.026	3.006	0.516
398.000	274.773	79.999	19.995	103.142	20.027	2.921	0.520
400.000	275.803	79.997	19.995	103.139	20.023	3.196	0.512
402.000	276.867	79.999	19.995	103.128	20.029	2.809	0.524
404.000	277.899	79.996	19.995	103.136	20.025	3.103	0.534
406.000	278.934	79.997	19.994	103.139	20.027	2.930	0.514
408.000	279.970	79.999	19.995	103.146	20.030	2.713	0.516
410.000	281.014	79.997	19.995	103.135	20.027	2.973	0.537
412.000	282.024	80.001	19.994	103.130	20.028	2.898	0.499
414.000	283.040	79.999	19.995	103.127	20.028	2.845	0.510
416.000	284.103	79.998	19.996	103.124	20.031	2.698	0.529
418.000	285.092	80.000	19.994	103.119	20.025	3.066	0.485
420.000	286.130	79.999	19.995	103.123	20.028	2.858	0.501
422.000	287.208	80.000	19.995	103.123	20.031	2.707	0.533
424.000	288.180	79.997	19.996	103.128	20.031	2.663	0.491
426.000	289.210	79.998	19.995	103.123	20.025	3.060	0.546
428.000	290.223	79.997	19.994	103.121	20.029	2.805	0.498
430.000	291.277	80.000	19.994	103.120	20.026	3.011	0.516
432.000	292.255	79.997	19.995	103.120	20.026	3.037	0.492
434.000	293.287	80.000	19.995	103.115	20.025	3.081	0.527
436.000	294.332	79.999	19.995	103.116	20.025	3.103	0.517
438.000	295.347	80.000	19.994	103.120	20.024	3.173	0.522
440.000	296.333	80.000	19.996	103.115	20.023	3.215	0.499
442.000	297.337	80.000	19.995	103.114	20.023	3.232	0.487
444.000	298.382	80.000	19.995	103.114	20.018	3.530	0.511
446.000	299.394	80.000	19.996	103.113	20.017	3.656	0.512
448.000	300.388	79.997	19.996	103.115	20.018	3.588	0.509
450.000	301.375	79.997	19.996	103.114	20.014	3.834	0.514
452.000	302.390	79.997	19.995	103.114	20.013	3.937	0.507
454.000	303.416	79.997	19.997	103.118	20.012	3.979	0.505
456.000	304.415	79.998	19.995	103.115	20.009	4.191	0.539
458.000	305.422	79.999	19.995	103.115	20.009	4.153	0.514
460.000	306.382	79.996	19.996	103.117	20.009	4.198	0.485
462.000	307.457	79.998	19.995	103.116	20.004	4.519	0.535
464.000	308.444	79.998	19.995	103.115	20.005	4.472	0.522
466.000	309.410	79.997	19.996	103.121	20.003	4.561	0.489
468.000	310.436	79.998	19.994	103.118	19.998	4.910	0.503
470.000	311.444	80.000	19.994	103.118	20.000	4.827	0.506
472.000	312.505	79.998	19.996	103.107	19.997	5.032	0.516
474.000	313.551	79.997	19.995	103.118	19.993	5.263	0.544
476.000	314.511	79.997	19.995	103.118	19.992	5.314	0.490
478.000	315.461	79.997	19.995	103.120	19.992	5.330	0.492
480.000	316.465	79.997	19.995	103.120	19.986	5.750	0.508
482.000	317.481	79.996	19.995	103.117	19.982	6.015	0.500
484.000	318.471	79.996	19.995	103.113	19.981	6.117	0.506
486.000	319.436	79.997	19.994	103.118	19.977	6.369	0.494
488.000	320.442	79.996	19.995	103.112	19.974	6.590	0.528
490.000	321.426	79.998	19.995	103.119	19.969	6.884	0.504
492.000	322.388	79.998	19.994	103.115	19.966	7.154	0.466
494.000	323.347	79.998	19.994	103.104	19.962	7.411	0.503
496.000	324.308	79.999	19.994	103.112	19.956	7.796	0.486
498.000	325.275	79.999	19.995	103.114	19.952	8.066	0.513
500.000	326.246	79.998	19.995	103.116	19.948	8.334	0.483
502.000	327.206	80.000	19.995	103.113	19.942	8.771	0.515
504.000	328.183	79.998	19.996	103.114	19.938	9.030	0.485
506.000	329.170	79.998	19.995	103.116	19.933	9.402	0.502
508.000	330.150	79.997	19.996	103.116	19.926	9.853	0.506
510.000	331.104	79.998	19.996	103.113	19.920	10.238	0.471
512.000	332.087	79.998	19.995	103.110	19.912	10.833	0.480
514.000	333.100	79.998	19.996	103.109	19.906	11.224	0.512
516.000	334.116	79.999	19.995	103.116	19.900	11.671	0.517
518.000	335.111	80.000	19.996	103.114	19.892	12.175	0.524
520.000	336.114	80.000	19.995	103.112	19.887	12.554	0.485
522.000	337.050	79.999	19.995	103.114	19.876	13.308	0.500
524.000	338.050	80.000	19.995	103.103	19.869	13.763	0.514
526.000	339.009	80.000	19.994	103.110	19.860	14.410	0.473
528.000	339.969	79.997	19.995	103.113	19.850	15.029	0.495
530.000	341.021	79.998	19.995	103.113	19.838	15.903	0.526
532.000	341.968	79.996	19.995	103.117	19.829	16.506	0.480
534.000	342.939	79.996	19.996	103.118	19.824	16.811	0.478
536.000	343.879	79.996	19.996	103.117	19.811	17.747	0.445
538.000	344.883	79.997	19.995	103.117	19.797	18.720	0.494
540.000	345.872	79.997	19.996	103.117	19.789	19.264	0.497
542.000	346.847	79.997	19.996	103.117	19.777	20.075	0.501
544.000	347.838	79.995	19.996	103.116	19.765	20.855	0.481
546.001	348.825	79.997	19.996	103.117	19.750	21.902	0.501
548.000	349.836	79.996	19.995	103.119	19.741	22.558	0.507
550.000	350.856	79.996	19.995	103.120	19.724	23.721	0.483
552.000	351.841	79.997	19.995	103.132	19.708	24.793	0.507
554.000	352.875	79.997	19.994	103.129	19.696	25.616	0.520
556.000	353.906	79.997	19.994	103.127	19.679	26.796	0.504
558.000	354.875	79.997	19.995	103.120	19.665	27.756	0.485
560.000	355.920	79.998	19.994	103.120	19.649	28.840	0.516
562.000	356.878	79.996	19.996	103.121	19.633	29.904	0.486
564.000	357.910	79.996	19.995	103.121	19.614	31.230	0.524
566.000	358.938	79.996	19.996	103.120	19.595	32.491	0.509
568.000	359.923	79.996	19.996	103.122	19.576	33.851	0.493
570.000	360.943	79.997	19.996	103.114	19.556	35.217	0.525
572.000	361.979	79.998	19.995	103.114	19.533	36.750	0.502
574.000	362.957	79.998	19.995	103.116	19.508	38.502	0.514
576.000	363.979	80.000	19.994	103.115	19.484	40.144	0.487
578.000	365.050	80.000	19.994	103.116	19.461	41.705	0.508
580.000	366.055	80.001	19.994	103.116	19.438	43.281	0.493
582.000	367.033	79.998	19.994	103.116	19.415	44.866	0.512
584.000	368.096	79.998	19.996	103.118	19.391	46.503	0.545
586.000	369.057	79.998	19.995	103.116	19.371	47.855	0.481
588.000	370.070	79.997	19.995	103.116	19.347	49.473	0.503
590.000	371.045	79.998	19.994	103.118	19.323	51.147	0.490
592.000	372.059	79.999	19.995	103.119	19.298	52.843	0.508
594.000	373.091	79.998	19.995	103.122	19.277	54.296	0.513
596.000	374.115	80.000	19.995	103.134	19.250	56.138	0.500
598.000	375.129	79.999	19.994	103.127	19.218	58.346	0.484
600.000	376.115	79.999	19.995	103.127	19.190	60.245	0.489
602.000	377.158	79.999	19.994	103.137	19.164	62.040	0.528
604.000	378.152	80.000	19.994	103.130	19.133	64.172	0.487
606.000	379.160	79.999	19.995	103.137	19.107	65.926	0.499
608.000	380.159	79.997	19.995	103.139	19.074	68.198	0.532
610.000	381.162	79.998	19.996	103.146	19.042	70.396	0.500
612.000	382.162	79.999	19.995	103.144	19.010	72.561	0.476
614.000	383.139	79.997	19.994	103.145	18.976	74.893	0.483
616.000	384.165	79.998	19.996	103.145	18.942	77.256	0.497
618.000	385.174	79.997	19.995	103.145	18.906	79.686	0.516
620.000	386.147	79.998	19.995	103.145	18.870	82.176	0.491
622.000	387.144	79.998	19.995	103.150	18.838	84.377	0.483
624.000	388.183	79.997	19.997	103.154	18.796	87.221	0.515
626.000	389.181	79.998	19.996	103.141	18.760	89.692	0.507
628.000	390.180	79.998	19.996	103.152	18.718	92.585	0.519
630.000	391.177	79.998	19.996	103.144	18.681	95.112	0.495
632.000	392.099	79.997	19.997	103.136	18.648	97.348	0.476
634.000	393.090	79.998	19.996	103.128	18.610	99.971	0.517
636.000	394.098	79.997	19.995	103.128	18.576	102.296	0.516
638.000	395.102	79.996	19.997	103.133	18.547	104.240	0.503
640.000	396.103	79.997	19.996	103.136	18.514	106.485	0.502
642.000	397.073	79.997	19.995	103.133	18.490	108.182	0.489
644.000	398.096	79.998	19.994	103.124	18.463	110.001	0.504
646.000	399.093	79.999	19.995	103.120	18.440	111.566	0.498
648.000	400.063	79.998	19.995	103.121	18.422	112.803	0.497
650.000	401.108	79.998	19.996	103.118	18.410	113.609	0.506
652.000	402.138	79.997	19.996	103.116	18.402	114.140	0.509
654.000	403.181	80.001	19.994	103.106	18.392	114.841	0.500
656.000	404.272	80.001	19.994	103.107	18.395	114.562	0.505
658.000	405.346	80.000	19.994	103.088	18.404	113.991	0.539
660.000	406.382	79.999	19.994	103.080	18.412	113.434	0.514
662.000	407.461	79.999	19.995	103.078	18.434	111.899	0.553
664.000	408.530	79.999	19.995	103.075	18.464	109.828	0.562
666.000	409.619	79.999	19.995	103.062	18.501	107.314	0.524
668.000	410.703	79.998	19.994	103.042	18.547	104.166	0.542
670.000	411.798	79.998	19.995	103.044	18.597	100.729	0.546
672.000	412.836	79.998	19.994	103.040	18.652	97.028	0.526
674.000	413.925	80.000	19.995	103.038	18.714	92.725	0.509
676.000	414.993	79.999	19.995	103.038	18.779	88.338	0.509
678.000	416.077	79.999	19.994	103.036	18.846	83.701	0.543
680.000	417.212	79.999	19.994	103.040	18.913	79.158	0.541
682.000	418.368	80.001	19.994	103.041	18.976	74.808	0.614
684.000	419.410	80.000	19.994	103.041	19.040	70.443	0.551
686.000	420.509	80.000	19.994	103.045	19.088	67.152	0.539
688.000	421.602	80.000	19.995	103.042	19.145	63.312	0.524
690.000	422.689	79.997	19.996	103.042	19.194	59.947	0.547
692.000	423.778	79.998	19.996	103.051	19.231	57.416	0.549
694.000	424.910	79.999	19.996	103.052	19.267	54.973	0.575
696.000	425.990	79.998	19.995	103.057	19.296	52.961	0.573
698.000	427.080	79.998	19.997	103.048	19.322	51.171	0.559
700.000	428.124	79.997	19.995	103.054	19.340	49.929	0.528
702.000	429.219	79.998	19.995	103.054	19.361	48.482	0.538
704.000	430.318	79.998	19.995	103.060	19.375	47.532	0.531
706.000	431.334	80.000	19.995	103.064	19.386	46.783	0.526
708.000	432.456	79.998	19.996	103.065	19.398	45.991	0.554
710.000	433.537	79.999	19.996	103.062	19.404	45.542	0.554
712.000	434.618	79.999	19.995	103.059	19.408	45.271	0.516
714.000	435.693	79.999	19.996	103.051	19.412	45.041	0.526
716.000	436.756	79.998	19.995	103.042	19.419	44.533	0.528
718.000	437.822	79.997	19.995	103.039	19.421	44.418	0.543
720.000	438.846	79.998	19.995	103.041	19.424	44.169	0.538
722.000	439.908	79.999	19.996	103.042	19.422	44.329	0.521
724.000	440.927	79.998	19.996	103.046	19.424	44.190	0.505
726.000	441.954	79.999	19.996	103.043	19.423	44.285	0.524
728.000	443.024	79.997	19.996	103.043	19.420	44.472	0.531
730.000	444.049	79.996	19.997	103.044	19.420	44.446	0.533
732.000	445.093	79.998	19.996	103.045	19.415	44.783	0.532
734.000	446.137	80.000	19.995	103.040	19.416	44.706	0.511
736.000	447.162	79.998	19.994	103.040	19.414	44.878	0.509
738.000	448.201	79.998	19.995	103.040	19.409	45.195	0.515
740.000	449.228	80.000	19.994	103.042	19.408	45.263	0.519
742.000	450.268	79.998	19.994	103.040	19.404	45.546	0.539
744.000	451.289	79.999	19.994	103.040	19.401	45.761	0.567
746.000	452.282	79.998	19.996	103.039	19.397	46.058	0.477
748.000	453.321	79.997	19.995	103.041	19.395	46.155	0.519
750.000	454.345	79.999	19.995	103.035	19.390	46.510	0.494
752.000	455.356	79.999	19.994	103.023	19.386	46.792	0.526
754.000	456.403	80.000	19.995	103.028	19.385	46.854	0.520
756.000	457.421	80.000	19.994	103.015	19.381	47.115	0.509
758.000	458.446	79.999	19.995	103.009	19.376	47.467	0.509
760.000	459.446	80.000	19.994	103.013	19.371	47.805	0.518
762.000	460.466	80.001	19.994	103.010	19.372	47.708	0.449
764.000	461.491	80.003	19.994	103.001	19.365	48.187	0.490
766.000	462.514	80.002	19.995	103.000	19.366	48.115	0.490
768.000	463.483	80.002	19.995	102.998	19.363	48.370	0.487
770.000	464.525	79.999	19.994	102.998	19.366	48.162	0.495
772.000	465.491	79.999	19.995	102.998	19.361	48.489	0.475
774.000	466.538	80.000	19.995	103.000	19.366	48.135	0.480
776.000	467.568	79.999	19.995	102.999	19.364	48.283	0.541
778.000	468.531	79.998	19.994	102.992	19.364	48.244	0.468
780.000	469.542	79.999	19.995	102.991	19.367	48.039	0.493
782.000	470.572	79.998	19.994	102.992	19.371	47.781	0.492
784.000	471.552	79.999	19.996	102.986	19.380	47.171	0.501
786.000	472.580	79.999	19.995	102.996	19.385	46.853	0.513
788.000	473.560	79.998	19.996	102.987	19.392	46.327	0.529
790.000	474.582	80.000	19.996	102.985	19.408	45.229	0.520
792.000	475.576	79.999	19.995	102.985	19.424	44.200	0.477
794.000	476.626	79.999	19.995	102.992	19.447	42.602	0.494
796.000	477.606	80.000	19.995	102.969	19.473	40.789	0.490
798.000	478.653	79.998	19.995	102.978	19.502	38.839	0.521
800.000	479.659	79.998	19.995	102.971	19.535	36.568	0.484
802.000	480.619	79.999	19.995	102.981	19.576	33.803	0.528
804.000	481.652	79.998	19.996	102.985	19.620	30.769	0.496
806.000	482.671	79.997	19.996	102.991	19.665	27.733	0.520
808.000	483.633	79.997	19.995	102.963	19.710	24.608	0.493
810.000	484.654	79.997	19.996	102.958	19.761	21.154	0.494
812.000	485.671	79.999	19.995	103.059	19.806	18.096	0.500
814.000	486.721	79.998	19.997	103.022	19.847	15.267	0.508
816.000	487.720	79.999	19.995	103.036	19.885	12.643	0.534
818.000	488.746	79.999	19.996	103.040	19.919	10.310	0.508
820.000	489.764	79.999	19.996	103.042	19.948	8.341	0.530
822.000	490.798	80.000	19.995	103.043	19.973	6.607	0.517
824.000	491.821	79.999	19.995	103.049	19.988	5.621	0.512
826.000	492.864	80.000	19.996	103.063	20.007	4.298	0.530
828.000	493.881	79.999	19.995	103.074	20.020	3.413	0.507
830.000	494.913	79.999	19.994	103.068	20.026	3.035	0.507
832.000	495.958	80.001	19.994	103.069	20.032	2.572	0.543
834.000	496.910	80.000	19.996	103.067	20.037	2.266	0.483
836.000	497.957	80.000	19.995	103.073	20.042	1.939	0.513
838.000	498.987	80.000	19.995	103.070	20.047	1.604	0.544
840.000	500.009	80.001	19.996	103.066	20.045	1.683	0.479
842.000	501.069	80.003	19.995	103.060	20.050	1.392	0.547
844.000	502.038	80.001	19.995	103.068	20.048	1.485	0.477
846.000	503.119	80.001	19.995	103.070	20.060	0.708	0.499
848.000	504.067	80.001	19.995	103.059	20.045	1.717	0.461
850.000	505.120	79.999	19.995	103.071	20.060	0.706	0.474
852.000	506.150	79.998	19.995	103.065	20.051	1.298	0.488
854.000	507.098	79.999	19.994	103.067	20.054	1.066	0.452
856.000	508.183	79.998	19.995	103.076	20.057	0.917	0.558
858.000	509.261	79.998	19.995	103.064	20.057	0.887	0.602
860.001	510.365	79.998	19.994	103.068	20.056	0.962	0.417
862.000	511.117	79.999	19.994	103.077	20.054	1.132	0.743
864.000	512.196	79.998	19.995	103.075	20.059	0.781	0.172
866.000	513.207	79.998	19.994	103.075	20.058	0.808	0.348
868.000	514.248	79.998	19.994	103.077	20.057	0.872	0.439
870.000	515.283	79.999	19.995	103.079	20.058	0.792	0.509
872.000	516.359	79.999	19.995	103.072	20.060	0.700	0.493
874.000	517.465	79.999	19.995	103.074	20.058	0.811	0.504
876.000	518.405	79.998	19.995	103.074	20.060	0.658	0.474
878.000	519.528	79.999	19.996	103.074	20.058	0.790	0.490
880.000	520.484	79.999	19.996	103.077	20.058	0.819	0.493
882.000	521.445	80.000	19.996	103.067	20.058	0.807	0.522
884.000	522.494	79.999	19.996	103.059	20.060	0.657	0.502
886.000	523.511	79.998	19.996	103.057	20.059	0.764	0.546
888.000	524.493	79.998	19.996	103.062	20.063	0.502	0.474
890.000	525.477	79.999	19.995	103.054	20.059	0.760	0.492
892.000	526.476	79.999	19.996	103.046	20.061	0.628	0.515
894.000	527.443	79.999	19.996	103.068	20.064	0.434	0.471
896.000	528.427	80.000	19.995	103.062	20.061	0.626	0.515
898.000	529.402	79.999	19.996	103.054	20.064	0.419	0.486
900.000	530.383	80.001	19.996	103.067	20.061	0.621	0.470
902.000	531.358	80.000	19.996	103.063	20.061	0.607	0.515
904.000	532.377	80.002	19.996	103.064	20.058	0.845	0.521
906.000	533.343	80.000	19.996	103.066	20.061	0.606	0.506
908.000	534.376	80.001	19.996	103.057	20.062	0.568	0.535
910.000	535.403	79.999	19.996	103.070	20.063	0.489	0.512
912.000	536.372	80.000	19.996	103.069	20.063	0.494	0.510
914.000	537.391	80.001	19.995	103.059	20.062	0.553	0.491
916.000	538.394	80.000	19.994	103.070	20.064	0.402	0.506
918.000	539.366	80.001	19.995	103.071	20.063	0.506	0.514
920.000	540.404	80.002	19.995	103.071	20.065	0.368	0.506
922.000	541.386	80.001	19.995	103.071	20.066	0.289	0.491
924.000	542.422	80.000	19.995	103.066	20.066	0.249	0.487
926.000	543.405	80.001	19.995	103.070	20.065	0.370	0.482
928.000	544.418	80.000	19.994	103.075	20.063	0.502	0.513
930.000	545.437	80.000	19.994	103.072	20.063	0.487	0.512
932.000	546.458	79.998	19.996	103.071	20.062	0.534	0.511
934.000	547.442	79.998	19.996	103.071	20.064	0.438	0.522
936.000	548.454	79.999	19.995	103.075	20.065	0.364	0.484
938.000	549.473	79.998	19.995	103.077	20.061	0.596	0.532
940.000	550.468	79.998	19.996	103.078	20.067	0.221	0.500
942.000	551.453	79.998	19.995	103.074	20.066	0.292	0.502
944.000	552.464	79.998	19.995	103.077	20.065	0.375	0.476
946.000	553.468	80.000	19.995	103.068	20.063	0.491	0.490
948.000	554.480	79.998	19.996	103.066	20.066	0.294	0.530
950.000	555.531	79.999	19.994	103.070	20.064	0.411	0.527
952.000	556.523	80.001	19.994	103.071	20.062	0.530	0.532
954.000	557.503	79.999	19.995	103.071	20.065	0.319	0.498
956.000	558.526	79.999	19.995	103.069	20.065	0.379	0.496
958.000	559.554	80.000	19.995	103.073	20.062	0.528	0.490
960.000	560.543	79.998	19.995	103.068	20.065	0.341	0.508
962.000	561.553	79.997	19.995	103.070	20.065	0.315	0.492
964.000	562.540	79.998	19.996	103.075	20.065	0.347	0.502
966.000	563.542	79.996	19.997	103.077	20.064	0.385	0.496
968.000	564.512	79.998	19.997	103.076	20.062	0.540	0.496
970.000	565.486	79.998	19.996	103.074	20.062	0.519	0.490
972.000	566.506	79.999	19.995	103.065	20.065	0.349	0.494
974.000	567.509	79.998	19.994	103.071	20.066	0.274	0.486
976.000	568.489	80.000	19.996	103.068	20.065	0.349	0.492
978.000	569.495	80.001	19.994	103.068	20.065	0.330	0.483
980.000	570.501	80.000	19.995	103.074	20.064	0.392	0.482
982.000	571.458	79.999	19.995	103.074	20.062	0.540	0.498
984.000	572.482	79.999	19.995	103.076	20.063	0.468	0.504
986.000	573.504	79.998	19.997	103.076	20.063	0.509	0.502
988.000	574.558	80.000	19.995	103.078	20.064	0.417	0.544
990.000	575.604	79.998	19.996	103.078	20.061	0.638	0.509
992.000	576.591	79.998	19.997	103.077	20.059	0.742	0.487
994.000	577.672	79.998	19.996	103.077	20.060	0.694	0.522
996.000	578.709	79.999	19.995	103.078	20.060	0.700	0.527
998.000	579.778	79.998	19.995	103.077	20.059	0.760	0.550
1000.000	580.825	80.000	19.995	103.077	20.060	0.708	0.515
1002.000	581.891	79.999	19.995	103.075	20.059	0.759	0.540
1004.000	582.957	80.001	19.995	103.074	20.057	0.883	0.549
1006.000	584.011	80.001	19.995	103.075	20.063	0.506	0.538
1008.000	585.045	79.999	19.996	103.077	20.066	0.304	0.531
1010.000	586.146	79.998	19.994	103.077	20.061	0.621	0.515
1012.000	587.230	79.997	19.995	103.079	20.060	0.672	0.571
1014.000	588.306	79.998	19.995	103.076	20.059	0.766	0.534
1016.000	589.415	79.998	19.995	103.076	20.061	0.642	0.521
1018.000	590.486	79.998	19.995	103.076	20.060	0.711	0.547
1020.000	591.610	79.999	19.995	103.077	20.061	0.609	0.535
1022.000	592.670	79.998	19.996	103.075	20.064	0.394	0.543
1024.000	593.760	79.999	19.995	103.081	20.067	0.242	0.533
1026.000	594.862	79.999	19.995	103.078	20.065	0.328	0.555
1028.000	595.955	79.997	19.995	103.081	20.059	0.774	0.579
1030.000	597.029	79.998	19.996	103.078	20.064	0.442	0.553
1032.001	598.099	79.999	19.995	103.077	20.061	0.594	0.554
1034.000	599.204	79.999	19.995	103.082	20.062	0.572	0.535
1036.000	600.288	79.999	19.997	103.077	20.056	0.979	0.551
1038.000	601.333	79.998	19.996	103.080	20.059	0.777	0.520
1040.000	602.356	79.999	19.994	103.078	20.062	0.549	0.504
1042.000	603.412	79.999	19.995	103.079	20.061	0.615	0.531
1044.000	604.475	79.998	19.995	103.079	20.059	0.723	0.540
1046.000	605.521	79.997	19.996	103.081	20.062	0.585	0.507
1048.000	606.579	79.998	19.995	103.084	20.061	0.621	0.521
1050.000	607.619	79.998	19.995	103.085	20.059	0.734	0.526
1052.000	608.669	80.000	19.996	103.086	20.058	0.791	0.526
1054.000	609.703	79.998	19.995	103.089	20.061	0.625	0.519
1056.000	610.768	80.000	19.995	103.081	20.058	0.836	0.553
1058.000	611.794	80.000	19.996	103.079	20.060	0.655	0.523
1060.001	612.844	79.998	19.995	103.089	20.056	0.930	0.526
1062.000	613.906	80.001	19.996	103.082	20.060	0.666	0.516
1064.000	614.907	79.999	19.995	103.088	20.059	0.774	0.495
1066.000	615.961	79.998	19.995	103.081	20.063	0.496	0.489
1068.000	616.999	79.999	19.995	103.083	20.058	0.842	0.538
1070.000	618.014	79.998	19.995	103.093	20.059	0.761	0.508
1072.000	619.055	79.999	19.994	103.092	20.061	0.602	0.514
1074.000	620.079	79.999	19.996	103.089	20.058	0.843	0.515
1076.000	621.093	80.001	19.996	103.090	20.060	0.659	0.492
1078.000	622.138	79.999	19.995	103.084	20.062	0.562	0.513
1080.000	623.136	80.001	19.996	103.090	20.058	0.859	0.503
1082.000	624.161	80.001	19.996	103.092	20.060	0.689	0.495
1084.000	625.175	80.002	19.995	103.088	20.055	1.046	0.519
1086.000	626.174	79.999	19.995	103.086	20.056	0.963	0.492
1088.000	627.149	80.000	19.997	103.078	20.058	0.849	0.474
1090.000	628.193	79.998	19.996	103.078	20.059	0.761	0.484
1092.000	629.232	79.998	19.996	103.081	20.055	1.061	0.515
1094.000	630.211	79.998	19.996	103.104	20.056	0.976	0.507
1096.000	631.238	79.999	19.996	103.107	20.056	0.961	0.498
1098.001	632.270	79.999	19.995	103.102	20.058	0.832	0.509
1100.001	633.238	79.998	19.996	103.105	20.057	0.880	0.488
1102.000	634.295	79.999	19.994	103.103	20.055	1.053	0.527
1104.000	635.351	80.000	19.995	103.111	20.054	1.123	0.518
1106.000	636.349	80.017	20.000	103.114	20.057	0.868	0.489
1108.000	637.326	80.000	19.997	103.120	20.058	0.804	0.492
1110.000	638.376	79.998	19.996	103.117	20.057	0.904	0.512
1112.000	639.391	79.997	19.995	103.116	20.055	1.027	0.530
1114.000	640.409	79.999	19.995	103.117	20.053	1.168	0.512
1116.000	641.404	79.998	19.995	103.116	20.050	1.344	0.517
1118.000	642.393	80.000	19.995	103.117	20.052	1.227	0.486
1120.000	643.437	79.997	19.996	103.117	20.051	1.297	0.521
1122.001	644.458	79.998	19.995	103.115	20.055	0.999	0.501
1124.000	645.446	79.998	19.994	103.118	20.055	1.025	0.505
1126.000	646.438	79.996	19.995	103.120	20.050	1.397	0.498
1128.000	647.411	79.997	19.996	103.119	20.050	1.389	0.490
1130.000	648.412	79.998	19.994	103.120	20.049	1.474	0.471
1132.001	649.463	79.998	19.995	103.122	20.052	1.216	0.541
1134.000	650.451	80.000	19.996	103.121	20.052	1.261	0.489
1136.000	651.457	79.999	19.995	103.118	20.050	1.388	0.504
1138.000	652.440	80.001	19.995	103.119	20.049	1.448	0.485
1140.000	653.459	80.000	19.995	103.118	20.048	1.535	0.512
1142.000	654.472	80.000	19.995	103.138	20.048	1.499	0.515
1144.000	655.473	79.999	19.995	103.138	20.048	1.514	0.503
1146.000	656.455	79.999	19.996	103.144	20.048	1.518	0.482
1148.000	657.513	79.999	19.996	103.132	20.050	1.346	0.514
1150.000	658.470	79.999	19.996	103.142	20.055	1.063	0.487
1152.001	659.461	79.998	19.996	103.147	20.047	1.554	0.508
1154.000	660.478	80.000	19.996	103.143	20.047	1.556	0.508
1156.000	661.479	80.000	19.996	103.151	20.047	1.613	0.528
1158.000	662.436	80.001	19.996	103.152	20.044	1.815	0.485
1160.000	663.360	80.001	19.995	103.152	20.045	1.722	0.521
1162.000	665.095	80.003	19.995	103.151	20.043	1.834	0.843
1164.000	665.447	80.001	19.994	103.150	20.043	1.849	1.205
1166.000	666.647	80.002	19.997	103.153	20.042	1.915	0.350
1168.000	667.516	80.001	19.995	103.155	20.039	2.144	0.438
1170.000	668.551	79.998	19.995	103.168	20.039	2.119	0.502
1172.000	669.512	79.998	19.995	103.166	20.038	2.206	0.464
1174.000	670.571	79.998	19.997	103.161	20.039	2.159	0.498
1176.000	671.576	79.999	19.997	103.169	20.037	2.288	0.489
1178.000	672.597	79.997	19.998	103.184	20.034	2.478	0.512
1180.000	673.587	79.999	19.996	103.192	20.036	2.365	0.506
1182.000	674.644	79.998	19.996	103.192	20.036	2.335	0.503
1184.000	675.700	79.998	19.995	103.193	20.032	2.577	0.518
1186.000	676.739	79.997	19.997	103.190	20.033	2.519	0.537
1188.001	677.759	79.998	19.994	103.195	20.028	2.849	0.515
1190.000	678.792	79.998	19.994	103.197	20.033	2.556	0.570
1192.000	679.814	79.999	19.994	103.202	20.030	2.737	0.473
1194.000	680.829	79.999	19.994	103.198	20.030	2.715	0.501
1196.000	681.923	79.998	19.995	103.209	20.030	2.761	0.531
1198.001	682.957	79.998	19.995	103.207	20.028	2.884	0.512
1200.000	684.011	79.998	19.996	103.197	20.030	2.717	0.522
1202.000	684.998	79.998	19.995	103.199	20.028	2.855	0.496
1204.000	686.088	79.997	19.995	103.201	20.027	2.961	0.516
1206.000	687.097	79.998	19.994	103.214	20.024	3.167	0.503
1208.001	688.145	79.997	19.995	103.229	20.024	3.139	0.499
1210.001	689.203	79.998	19.995	103.230	20.027	2.958	0.513
1212.001	690.226	79.999	19.995	103.232	20.025	3.056	0.523
1214.000	691.214	79.999	19.995	103.230	20.021	3.391	0.526
1216.000	692.268	80.000	19.995	103.232	20.021	3.340	0.487
1218.000	693.294	80.001	19.995	103.234	20.024	3.144	0.527
1220.000	694.287	80.000	19.996	103.236	20.022	3.267	0.495
1222.000	695.347	80.000	19.995	103.235	20.022	3.276	0.493
1224.000	696.375	79.999	19.995	103.244	20.020	3.442	0.542
1226.001	697.356	79.999	19.996	103.244	20.019	3.505	0.503
1228.000	698.401	80.000	19.995	103.265	20.020	3.462	0.533
1230.001	699.370	80.000	19.994	103.271	20.016	3.702	0.506
1232.000	700.448	79.999	19.995	103.270	20.017	3.639	0.511
1234.000	701.487	79.999	19.995	103.270	20.016	3.715	0.501
1236.000	702.459	80.000	19.996	103.272	20.018	3.593	0.504
1238.001	703.469	80.001	19.995	103.279	20.014	3.810	0.515
1240.000	704.487	80.001	19.995	103.278	20.018	3.578	0.482
1242.001	705.464	80.001	19.996	103.275	20.016	3.707	0.476
1244.000	706.470	80.000	19.995	103.283	20.016	3.692	0.496
1246.000	707.425	80.000	19.996	103.285	20.014	3.815	0.461
1248.000	708.485	80.000	19.995	103.299	20.016	3.701	0.538
1250.000	709.482	80.000	19.995	103.302	20.013	3.900	0.491
1252.000	710.485	79.997	19.996	103.308	20.014	3.825	0.503
1254.000	711.484	79.998	19.995	103.310	20.016	3.730	0.516
1256.000	712.521	79.998	19.996	103.314	20.010	4.096	0.526
1258.000	713.460	79.996	19.995	103.315	20.009	4.194	0.500
1260.001	714.458	79.997	19.995	103.316	20.015	3.808	0.497
1262.000	715.457	79.998	19.995	103.325	20.010	4.128	0.493
1264.001	716.473	79.997	19.996	103.327	20.009	4.206	0.474
1266.000	717.534	79.997	19.996	103.333	20.010	4.115	0.514
1268.000	718.476	79.998	19.996	103.344	20.011	4.066	0.486
1270.000	719.508	79.997	19.996	103.341	20.010	4.119	0.512
1272.000	720.497	79.998	19.997	103.343	20.009	4.200	0.509
1274.000	721.502	79.999	19.995	103.348	20.010	4.131	0.493
1276.000	722.473	79.999	19.997	103.348	20.009	4.167	0.484
1278.000	723.436	79.998	19.996	103.349	20.006	4.396	0.489
1280.001	724.419	79.998	19.995	103.349	20.008	4.282	0.496
1282.000	725.403	79.999	19.996	103.351	20.006	4.392	0.503
1284.000	726.409	79.997	19.996	103.359	20.010	4.123	0.505
1286.000	727.413	79.998	19.997	103.368	20.010	4.118	0.507
1288.000	728.421	79.996	19.995	103.376	20.008	4.274	0.494
1290.000	729.452	79.998	19.995	103.370	20.007	4.335	0.488
1292.000	730.425	79.998	19.995	103.372	20.008	4.244	0.500
1294.000	731.420	79.998	19.996	103.370	20.008	4.259	0.492
1296.000	732.421	79.999	19.995	103.368	20.008	4.243	0.509
1298.000	733.443	80.000	19.996	103.363	20.007	4.354	0.512
1300.001	734.456	80.000	19.996	103.357	20.009	4.183	0.525
1302.000	735.437	79.998	19.995	103.377	20.008	4.290	0.537
1304.000	736.414	79.997	19.995	103.354	20.010	4.108	0.500
1306.000	737.413	79.998	19.995	103.351	20.011	4.064	0.489
1308.000	738.435	79.997	19.994	103.333	20.009	4.156	0.506
1310.000	739.469	79.998	19.995	103.342	20.015	3.808	0.536
1312.000	740.462	79.998	19.996	103.331	20.010	4.138	0.533
1314.000	741.477	80.000	19.995	103.321	20.014	3.835	0.497
1316.000	742.507	80.002	19.996	103.316	20.016	3.671	0.527
1318.000	743.561	80.000	19.995	103.307	20.015	3.772	0.529