File: 01_Data/Bamboo_Rug_Bamboo/STA/N2/30K_min/Bamboo_Rug_A_STA_N2_30KData_220121_R2.csv
##Temp./Â°C,Time/min,Mass loss(subtr.2)/mg,DSC(subtr.2)/(mW/mg),Sensit./(uV/mW)
48.468,10.00917,-0.00757,0.00889408,1.06964
49.168,10.55008,-0.006654069,0.05444377,1.06958
49.868,10.67561,-0.004833532,0.0882437,1.06951
50.568,10.7654,-0.00314456,0.12114,1.06945
51.268,10.83797,-0.004729923,0.14804,1.06939
51.968,10.9008,-0.00536171,0.17763,1.06932
52.668,10.95764,-0.00721962,0.20097,1.06925
53.368,11.00949,-0.008011043,0.22134,1.06918
54.068,11.05725,-0.008135299,0.2446,1.06911
54.768,11.102,-0.00780883,0.2642,1.06904
55.468,11.14476,-0.00707419,0.28345,1.06896
56.168,11.18527,-0.006915747,0.30172,1.06889
56.868,11.2239,-0.00749592,0.31891,1.06881
57.568,11.26141,-0.006549525,0.33619,1.06874
58.268,11.29749,-0.00677062,0.35193,1.06866
58.968,11.33262,-0.007107849,0.36564,1.06858
59.668,11.36683,-0.00740336,0.38044,1.0685
60.368,11.4002,-0.007490918,0.39376,1.06841
61.068,11.43255,-0.008254546,0.40999,1.06833
61.768,11.46405,-0.009256379,0.42331,1.06824
62.468,11.49545,-0.00835389,0.43416,1.06815
63.168,11.5268,-0.007759306,0.44625,1.06807
63.868,11.55747,-0.007704236,0.45857,1.06798
64.568,11.58733,-0.009235683,0.46879,1.06789
65.268,11.6167,-0.007959468,0.48029,1.06779
65.968,11.64583,-0.007933235,0.49036,1.0677
66.668,11.67464,-0.008920365,0.50042,1.0676
67.368,11.70309,-0.008873473,0.51136,1.06751
68.068,11.7312,-0.00815979,0.51875,1.06741
68.768,11.75896,-0.008130687,0.53074,1.06731
69.468,11.7866,-0.008860768,0.54004,1.06721
70.168,11.81398,-0.009088753,0.54922,1.06711
70.868,11.84112,-0.008635522,0.55575,1.067
71.568,11.86801,-0.008915957,0.5636,1.0669
72.268,11.89487,-0.00899917,0.57069,1.06679
72.968,11.92154,-0.008384645,0.57791,1.06669
73.668,11.94802,-0.008636466,0.58732,1.06658
74.368,11.97439,-0.00914636,0.59633,1.06647
75.068,12.0007,-0.009201756,0.60236,1.06636
75.768,12.02697,-0.008751011,0.61029,1.06624
76.468,12.05301,-0.009832549,0.61448,1.06613
77.168,12.07875,-0.009569246,0.623,1.06602
77.868,12.10449,-0.009761673,0.63021,1.0659
78.568,12.1301,-0.009861627,0.63557,1.06578
79.268,12.15564,-0.01032588,0.64007,1.06566
79.968,12.18107,-0.01018346,0.6493,1.06554
80.668,12.2063,-0.009794381,0.65369,1.06542
81.368,12.23151,-0.009918389,0.66064,1.0653
82.068,12.25672,-0.009407696,0.66784,1.06517
82.768,12.28173,-0.009545491,0.673,1.06505
83.468,12.30666,-0.01114038,0.6772,1.06492
84.168,12.3315,-0.01107513,0.68485,1.06479
84.868,12.35636,-0.01116817,0.69089,1.06466
85.568,12.3811,-0.01155069,0.69628,1.06453
86.268,12.40588,-0.01310933,0.70138,1.0644
86.968,12.43051,-0.01315125,0.70583,1.06426
87.668,12.455,-0.01428476,0.71221,1.06413
88.368,12.4795,-0.01305272,0.71747,1.06399
89.068,12.5037,-0.01255048,0.72139,1.06385
89.768,12.52801,-0.01305276,0.72773,1.06372
90.468,12.55234,-0.01306979,0.73255,1.06357
91.168,12.57649,-0.01350682,0.7367,1.06343
91.868,12.60058,-0.01296765,0.74322,1.06329
92.568,12.62465,-0.0142889,0.74636,1.06315
93.268,12.64867,-0.01316082,0.75065,1.063
93.968,12.67272,-0.01392075,0.75658,1.06285
94.668,12.6968,-0.01317453,0.7617,1.06271
95.368,12.72077,-0.01317943,0.76394,1.06256
96.068,12.7448,-0.01454018,0.76584,1.06241
96.768,12.76874,-0.01383348,0.77055,1.06225
97.468,12.79265,-0.01450008,0.77436,1.0621
98.168,12.81661,-0.01447396,0.77713,1.06195
98.868,12.84037,-0.01584448,0.78056,1.06179
99.568,12.86407,-0.01578546,0.78406,1.06163
100.268,12.88771,-0.01547455,0.78676,1.06148
100.968,12.91136,-0.01577968,0.7922,1.06132
101.668,12.93486,-0.0157823,0.79406,1.06116
102.368,12.95861,-0.01707482,0.79604,1.06099
103.068,12.9823,-0.01711677,0.79937,1.06083
103.768,13.0059,-0.01711006,0.80211,1.06067
104.468,13.02983,-0.01711162,0.80364,1.0605
105.168,13.05358,-0.01733476,0.80481,1.06033
105.868,13.07723,-0.01844083,0.80699,1.06016
106.568,13.10096,-0.01837691,0.81014,1.05999
107.268,13.1246,-0.01917929,0.81001,1.05982
107.968,13.1482,-0.01842858,0.81042,1.05965
108.668,13.17193,-0.01842249,0.81145,1.05948
109.368,13.1954,-0.01807581,0.81213,1.0593
110.068,13.21885,-0.01710728,0.81246,1.05913
110.768,13.2423,-0.01711539,0.81321,1.05895
111.468,13.26571,-0.01608678,0.81632,1.05877
112.168,13.28925,-0.01580075,0.81639,1.05859
112.868,13.31279,-0.01523897,0.81772,1.05841
113.568,13.33632,-0.01648676,0.81691,1.05823
114.268,13.3598,-0.01646111,0.8185,1.05804
114.968,13.38315,-0.01665228,0.81609,1.05786
115.668,13.40652,-0.01774056,0.81912,1.05767
116.368,13.42995,-0.01875996,0.81588,1.05748
117.068,13.45336,-0.01912201,0.81665,1.0573
117.768,13.47674,-0.02008192,0.81634,1.05711
118.468,13.50012,-0.02041829,0.81803,1.05692
119.168,13.52339,-0.02052949,0.81766,1.05672
119.868,13.54679,-0.0204628,0.81682,1.05653
120.568,13.57015,-0.02039885,0.81927,1.05633
121.268,13.5935,-0.02039983,0.81823,1.05614
121.968,13.61691,-0.0204,0.81918,1.05594
122.668,13.6402,-0.0203999,0.81886,1.05574
123.368,13.66344,-0.02039385,0.82012,1.05554
124.068,13.6865,-0.02150301,0.82222,1.05534
124.768,13.7096,-0.02171173,0.8217,1.05514
125.468,13.73272,-0.02171048,0.82393,1.05494
126.168,13.7558,-0.02170991,0.82102,1.05473
126.868,13.77895,-0.0217098,0.82202,1.05453
127.568,13.80204,-0.02110548,0.82398,1.05432
128.268,13.82497,-0.02042162,0.82171,1.05411
128.968,13.848,-0.02040013,0.82211,1.0539
129.668,13.871,-0.02040915,0.82516,1.05369
130.368,13.8939,-0.02083264,0.82403,1.05348
131.068,13.9169,-0.02172318,0.82546,1.05326
131.768,13.9398,-0.02171995,0.82715,1.05305
132.468,13.9627,-0.0217197,0.82693,1.05283
133.168,13.98555,-0.02171436,0.82693,1.05262
133.868,14.00847,-0.02142597,0.82895,1.0524
134.568,14.03125,-0.02178412,0.83035,1.05218
135.268,14.054,-0.02172532,0.83181,1.05196
135.968,14.0768,-0.02172019,0.83276,1.05174
136.668,14.0995,-0.02171999,0.83235,1.05152
137.368,14.1222,-0.02171845,0.83639,1.05129
138.068,14.1449,-0.02168494,0.83786,1.05107
138.768,14.1676,-0.0220608,0.8403,1.05084
139.468,14.1902,-0.02204871,0.84056,1.05061
140.168,14.2128,-0.02199737,0.84322,1.05038
140.868,14.2354,-0.02271718,0.84404,1.05015
141.568,14.25794,-0.02303921,0.84777,1.04992
142.268,14.2805,-0.02302952,0.85083,1.04969
142.968,14.30303,-0.02302994,0.85128,1.04946
143.668,14.3254,-0.02303,0.85502,1.04922
144.368,14.34791,-0.02303,0.85599,1.04899
145.068,14.3703,-0.02303,0.85919,1.04875
145.768,14.39269,-0.02303,0.85939,1.04851
146.468,14.41531,-0.02302996,0.86295,1.04827
147.168,14.43764,-0.02302967,0.86619,1.04803
147.868,14.46005,-0.02303401,0.86576,1.04779
148.568,14.4824,-0.02329994,0.87014,1.04755
149.268,14.5046,-0.02435613,0.87352,1.0473
149.968,14.52692,-0.02435022,0.87582,1.04706
150.668,14.54915,-0.02435,0.87797,1.04681
151.368,14.57145,-0.02435007,0.8815,1.04656
152.068,14.5938,-0.02435183,0.88328,1.04631
152.768,14.61605,-0.02437781,0.88702,1.04606
153.468,14.63841,-0.0252867,0.88877,1.04581
154.168,14.6607,-0.02534529,0.89203,1.04556
154.868,14.68276,-0.02534055,0.89416,1.04531
155.568,14.705,-0.02534006,0.89795,1.04505
156.268,14.7272,-0.02534029,0.90033,1.0448
156.968,14.7494,-0.0253394,0.9024,1.04454
157.668,14.77179,-0.02519087,0.90635,1.04428
158.368,14.7939,-0.0247023,0.90749,1.04402
159.068,14.81596,-0.0248449,0.91144,1.04376
159.768,14.8381,-0.02568241,0.91542,1.0435
160.468,14.8601,-0.02566943,0.9171,1.04324
161.168,14.8822,-0.02566996,0.9199,1.04297
161.868,14.90419,-0.02567094,0.92293,1.04271
162.568,14.9262,-0.02568357,0.92499,1.04244
163.268,14.94832,-0.02626019,0.92777,1.04218
163.968,14.97044,-0.02697169,0.93084,1.04191
164.668,14.99257,-0.02697694,0.93644,1.04164
165.368,15.01457,-0.02693883,0.9366,1.04137
166.068,15.03656,-0.02844213,0.93992,1.0411
166.768,15.0585,-0.02862747,0.94494,1.04082
167.468,15.0806,-0.02862777,0.94502,1.04055
168.168,15.10265,-0.02852375,0.94925,1.04028
168.868,15.12464,-0.02830847,0.95215,1.04
169.568,15.14661,-0.02830127,0.95518,1.03972
170.268,15.1685,-0.02830496,0.95813,1.03944
170.968,15.19033,-0.02905686,0.9611,1.03916
171.668,15.21215,-0.02960683,0.96244,1.03888
172.368,15.234,-0.02961903,0.96698,1.0386
173.068,15.2559,-0.02961943,0.96842,1.03832
173.768,15.27781,-0.02961548,0.97269,1.03804
174.468,15.29974,-0.03096971,0.97508,1.03775
175.168,15.3216,-0.03094619,0.97941,1.03746
175.868,15.34346,-0.03094034,0.98123,1.03718
176.568,15.36527,-0.03093747,0.98376,1.03689
177.268,15.38701,-0.0309103,0.98634,1.0366
177.968,15.40881,-0.03127214,0.99008,1.03631
178.668,15.43051,-0.03126958,0.99497,1.03602
179.368,15.4523,-0.03126996,0.99831,1.03572
180.068,15.47405,-0.03127011,0.99765,1.03543
180.768,15.4958,-0.03127163,1.00092,1.03514
181.468,15.5175,-0.03147335,1.00482,1.03484
182.168,15.53919,-0.03257968,1.00775,1.03454
182.868,15.5608,-0.03257746,1.01068,1.03425
183.568,15.58245,-0.03254547,1.01267,1.03395
184.268,15.60406,-0.03362949,1.01488,1.03365
184.968,15.62566,-0.03390417,1.02142,1.03334
185.668,15.6472,-0.03439994,1.02288,1.03304
186.368,15.6688,-0.03521285,1.02623,1.03274
187.068,15.69041,-0.03520943,1.02876,1.03243
187.768,15.712,-0.03520993,1.03301,1.03213
188.468,15.73359,-0.03520999,1.03625,1.03182
189.168,15.75509,-0.03520996,1.03806,1.03151
189.868,15.7767,-0.03520954,1.0405,1.03121
190.568,15.7981,-0.0352064,1.04369,1.0309
191.268,15.81959,-0.03523598,1.0455,1.03059
191.968,15.8411,-0.03653569,1.05149,1.03027
192.668,15.86255,-0.03653406,1.05522,1.02996
193.368,15.8841,-0.0365974,1.05931,1.02965
194.068,15.9056,-0.03584506,1.06353,1.02933
194.768,15.92705,-0.03665389,1.06567,1.02901
195.468,15.94851,-0.03719082,1.06966,1.0287
196.168,15.96976,-0.0371892,1.07384,1.02838
196.868,15.9912,-0.03771373,1.07843,1.02806
197.568,16.0126,-0.03848418,1.08184,1.02774
198.268,16.03404,-0.03875261,1.08512,1.02742
198.968,16.05556,-0.03985709,1.08897,1.0271
199.668,16.07695,-0.03981542,1.09214,1.02677
200.368,16.09839,-0.04108069,1.09799,1.02645
201.068,16.11985,-0.04113421,1.09878,1.02612
201.768,16.14128,-0.04264899,1.10333,1.0258
202.468,16.16266,-0.04252635,1.10727,1.02547
203.168,16.18401,-0.0435083,1.11167,1.02514
203.868,16.20515,-0.04493542,1.11506,1.02481
204.568,16.22655,-0.04478532,1.11976,1.02448
205.268,16.24788,-0.0461707,1.1214,1.02415
205.968,16.26923,-0.04618188,1.12709,1.02382
206.668,16.29072,-0.04765506,1.12932,1.02348
207.368,16.31206,-0.04763731,1.13268,1.02315
208.068,16.3335,-0.04902769,1.13627,1.02281
208.768,16.3547,-0.04894937,1.1415,1.02248
209.468,16.37601,-0.0493252,1.14548,1.02214
210.168,16.3973,-0.05026992,1.14879,1.0218
210.868,16.41866,-0.05085805,1.15258,1.02146
211.568,16.44012,-0.05155581,1.15688,1.02112
212.268,16.46136,-0.05165101,1.15826,1.02078
212.968,16.48248,-0.05293655,1.16245,1.02044
213.668,16.5036,-0.05325295,1.16616,1.02009
214.368,16.5249,-0.0540117,1.1696,1.01975
215.068,16.5463,-0.0533755,1.17234,1.0194
215.768,16.56782,-0.05431179,1.17378,1.01905
216.468,16.5893,-0.05430051,1.17836,1.01871
217.168,16.61056,-0.05566913,1.18242,1.01836
217.868,16.63178,-0.05557899,1.1861,1.01801
218.568,16.65302,-0.05836382,1.18803,1.01766
219.268,16.67424,-0.0592739,1.19157,1.01731
219.968,16.69545,-0.05963014,1.19263,1.01695
220.668,16.7167,-0.06190431,1.19543,1.0166
221.368,16.73803,-0.06284325,1.20029,1.01625
222.068,16.75933,-0.06341123,1.20274,1.01589
222.768,16.78065,-0.06505019,1.20531,1.01554
223.468,16.80194,-0.06669438,1.2066,1.01518
224.168,16.8232,-0.06741686,1.20814,1.01482
224.868,16.84442,-0.06807479,1.21183,1.01446
225.568,16.86571,-0.06913615,1.21552,1.0141
226.268,16.88691,-0.06957874,1.21646,1.01374
226.968,16.9082,-0.07125979,1.21975,1.01338
227.668,16.92942,-0.07295035,1.22421,1.01301
228.368,16.95071,-0.0734311,1.22394,1.01265
229.068,16.972,-0.07434499,1.22505,1.01229
229.768,16.99319,-0.07594176,1.22563,1.01192
230.468,17.01446,-0.07754374,1.22794,1.01155
231.168,17.03567,-0.07919087,1.22937,1.01119
231.868,17.05686,-0.08024343,1.23135,1.01082
232.568,17.0781,-0.08118961,1.23567,1.01045
233.268,17.09931,-0.08248193,1.2344,1.01008
233.968,17.12053,-0.08426426,1.23624,1.0097
234.668,17.14181,-0.08554523,1.23882,1.00933
235.368,17.16301,-0.08658335,1.24018,1.00896
236.068,17.18424,-0.0875576,1.24127,1.00858
236.768,17.2054,-0.08927718,1.2443,1.00821
237.468,17.22654,-0.09100594,1.24425,1.00783
238.168,17.24778,-0.09284759,1.24588,1.00746
238.868,17.26898,-0.09465334,1.25081,1.00708
239.568,17.29016,-0.09585318,1.25173,1.0067
240.268,17.31138,-0.0967993,1.25263,1.00632
240.968,17.33259,-0.09797731,1.25943,1.00594
241.668,17.35376,-0.09944416,1.25945,1.00556
242.368,17.37499,-0.10081,1.2639,1.00517
243.068,17.3962,-0.10267,1.26779,1.00479
243.768,17.41733,-0.10494,1.27157,1.00441
244.468,17.4385,-0.10691,1.27596,1.00402
245.168,17.4597,-0.10885,1.27812,1.00364
245.868,17.48091,-0.11081,1.2838,1.00325
246.568,17.50206,-0.11275,1.28893,1.00286
247.268,17.52321,-0.11446,1.29396,1.00247
247.968,17.5444,-0.1158,1.29649,1.00208
248.668,17.5656,-0.11751,1.3022,1.00169
249.368,17.5868,-0.11962,1.30424,1.0013
250.068,17.608,-0.12157,1.30311,1.00091
250.768,17.6292,-0.12351,1.30322,1.00051
251.468,17.65033,-0.12494,1.29921,1.00012
252.168,17.6716,-0.12642,1.29598,0.99973
252.868,17.69271,-0.12794,1.29271,0.99933
253.568,17.71384,-0.12993,1.2865,0.99893
254.268,17.73493,-0.13211,1.28,0.99854
254.968,17.75592,-0.13467,1.27651,0.99814
255.668,17.77711,-0.13733,1.26866,0.99774
256.368,17.7982,-0.13983,1.26546,0.99734
257.068,17.81928,-0.14183,1.26074,0.99694
257.768,17.84054,-0.1437,1.25562,0.99653
258.468,17.86161,-0.1446,1.2537,0.99613
259.168,17.88276,-0.14668,1.25267,0.99573
259.868,17.9039,-0.14894,1.24754,0.99532
260.568,17.9251,-0.15136,1.24646,0.99492
261.268,17.94622,-0.1544,1.24633,0.99451
261.968,17.9674,-0.15706,1.24082,0.9941
262.668,17.98854,-0.16026,1.24075,0.9937
263.368,18.00968,-0.16274,1.24022,0.99329
264.068,18.03079,-0.16549,1.23747,0.99288
264.768,18.05187,-0.16849,1.23789,0.99247
265.468,18.07304,-0.17187,1.23826,0.99206
266.168,18.0942,-0.1757,1.23563,0.99164
266.868,18.1153,-0.17898,1.2341,0.99123
267.568,18.1364,-0.18344,1.23388,0.99082
268.268,18.1575,-0.18616,1.23308,0.9904
268.968,18.1786,-0.18913,1.23218,0.98999
269.668,18.1997,-0.19189,1.22974,0.98957
270.368,18.22079,-0.19558,1.22953,0.98915
271.068,18.2419,-0.19994,1.22687,0.98874
271.768,18.26301,-0.20388,1.22586,0.98832
272.468,18.28416,-0.20739,1.22497,0.9879
273.168,18.30526,-0.21079,1.22535,0.98748
273.868,18.32641,-0.21516,1.22162,0.98706
274.568,18.3475,-0.21991,1.21999,0.98663
275.268,18.36865,-0.22487,1.22053,0.98621
275.968,18.38982,-0.22981,1.2169,0.98579
276.668,18.41098,-0.23308,1.21552,0.98536
277.368,18.43212,-0.2375,1.21215,0.98494
278.068,18.4532,-0.24274,1.20953,0.98451
278.768,18.47427,-0.24912,1.20654,0.98409
279.468,18.49536,-0.25491,1.20758,0.98366
280.168,18.51649,-0.26081,1.20323,0.98323
280.868,18.53761,-0.2649,1.20067,0.9828
281.568,18.55878,-0.2706,1.19625,0.98237
282.268,18.57998,-0.2744,1.19301,0.98194
282.968,18.60109,-0.28097,1.19039,0.98151
283.668,18.62227,-0.28651,1.18689,0.98108
284.368,18.64336,-0.29346,1.18162,0.98064
285.068,18.66451,-0.29914,1.17754,0.98021
285.768,18.68565,-0.306,1.17267,0.97977
286.468,18.70681,-0.31277,1.17155,0.97934
287.168,18.72798,-0.3203,1.16448,0.9789
287.868,18.74907,-0.32736,1.16063,0.97847
288.568,18.7702,-0.33582,1.15659,0.97803
289.268,18.79133,-0.34297,1.15146,0.97759
289.968,18.81241,-0.34992,1.14715,0.97715
290.668,18.83354,-0.35829,1.14324,0.97671
291.368,18.85466,-0.36586,1.13736,0.97627
292.068,18.87578,-0.37458,1.13164,0.97583
292.768,18.89687,-0.38193,1.12538,0.97539
293.468,18.91806,-0.39142,1.1204,0.97494
294.168,18.9392,-0.3994,1.11481,0.9745
294.868,18.9604,-0.40966,1.10972,0.97405
295.568,18.98153,-0.4182,1.10267,0.97361
296.268,19.00265,-0.42885,1.09883,0.97316
296.968,19.0238,-0.43734,1.09332,0.97272
297.668,19.0449,-0.44785,1.08814,0.97227
298.368,19.06607,-0.45702,1.08067,0.97182
299.068,19.08721,-0.46761,1.07542,0.97137
299.768,19.10834,-0.47743,1.0685,0.97092
300.468,19.12947,-0.488,1.06127,0.97047
301.168,19.15063,-0.49827,1.05501,0.97002
301.868,19.1718,-0.50829,1.05053,0.96957
302.568,19.19285,-0.51953,1.04384,0.96912
303.268,19.214,-0.5303,1.03769,0.96866
303.968,19.23499,-0.54295,1.03228,0.96821
304.668,19.2561,-0.55407,1.02387,0.96775
305.368,19.27733,-0.56705,1.0179,0.9673
306.068,19.29855,-0.57801,1.01263,0.96684
306.768,19.3198,-0.59246,1.00648,0.96639
307.468,19.3411,-0.60411,0.99975,0.96593
308.168,19.36228,-0.61765,0.99443,0.96547
308.868,19.38343,-0.62883,0.98732,0.96501
309.568,19.40462,-0.64257,0.98141,0.96455
310.268,19.4257,-0.6546,0.97594,0.96409
310.968,19.44685,-0.66868,0.97081,0.96363
311.668,19.468,-0.68142,0.96519,0.96317
312.368,19.4892,-0.69477,0.95894,0.9627
313.068,19.51035,-0.70781,0.95263,0.96224
313.768,19.53155,-0.72096,0.94983,0.96178
314.468,19.5527,-0.73518,0.94597,0.96131
315.168,19.57391,-0.74815,0.94076,0.96085
315.868,19.59516,-0.76337,0.93514,0.96038
316.568,19.61639,-0.77687,0.93151,0.95992
317.268,19.63764,-0.79312,0.92821,0.95945
317.968,19.6588,-0.80595,0.92379,0.95898
318.668,19.68003,-0.82245,0.92148,0.95851
319.368,19.7012,-0.83534,0.91751,0.95804
320.068,19.72235,-0.8517,0.9139,0.95757
320.768,19.7436,-0.86534,0.91098,0.9571
321.468,19.7648,-0.88154,0.90915,0.95663
322.168,19.78601,-0.89533,0.90529,0.95616
322.868,19.80733,-0.91039,0.90547,0.95568
323.568,19.82858,-0.92441,0.90474,0.95521
324.268,19.84982,-0.93953,0.89944,0.95474
324.968,19.87108,-0.95478,0.90083,0.95426
325.668,19.8923,-0.969,0.89935,0.95379
326.368,19.91354,-0.98449,0.90102,0.95331
327.068,19.93479,-0.99933,0.90283,0.95284
327.768,19.95606,-1.01636,0.89988,0.95236
328.468,19.97733,-1.02992,0.90209,0.95188
329.168,19.99866,-1.04679,0.90379,0.9514
329.868,20.01995,-1.06021,0.90397,0.95092
330.568,20.04127,-1.07621,0.90542,0.95044
331.268,20.06259,-1.08825,0.90391,0.94996
331.968,20.08384,-1.10337,0.90832,0.94948
332.668,20.10514,-1.11651,0.91075,0.949
333.368,20.12645,-1.13203,0.91603,0.94852
334.068,20.1478,-1.1459,0.91657,0.94803
334.768,20.16909,-1.16077,0.91914,0.94755
335.468,20.19047,-1.1756,0.9215,0.94707
336.168,20.2118,-1.1899,0.92482,0.94658
336.868,20.2331,-1.2051,0.92915,0.9461
337.568,20.2545,-1.21908,0.93393,0.94561
338.268,20.27587,-1.23655,0.93937,0.94512
338.968,20.2972,-1.24966,0.94252,0.94464
339.668,20.31855,-1.26557,0.94889,0.94415
340.368,20.33994,-1.27859,0.95408,0.94366
341.068,20.36125,-1.29559,0.95997,0.94317
341.768,20.38269,-1.30892,0.96433,0.94268
342.468,20.40411,-1.32521,0.97129,0.94219
343.168,20.42548,-1.33865,0.97815,0.9417
343.868,20.44697,-1.35392,0.98505,0.94121
344.568,20.46837,-1.36748,0.99217,0.94072
345.268,20.4898,-1.38252,1.00126,0.94022
345.968,20.51127,-1.39822,1.00818,0.93973
346.668,20.53268,-1.41263,1.01567,0.93924
347.368,20.55414,-1.42737,1.02373,0.93874
348.068,20.57554,-1.44134,1.03299,0.93825
348.768,20.597,-1.45853,1.04212,0.93775
349.468,20.61835,-1.47319,1.05256,0.93725
350.168,20.63982,-1.4911,1.06386,0.93676
350.868,20.6614,-1.50502,1.07353,0.93626
351.568,20.68283,-1.52214,1.08259,0.93576
352.268,20.70436,-1.53679,1.0961,0.93526
352.968,20.72586,-1.55502,1.10648,0.93477
353.668,20.74736,-1.5708,1.11818,0.93427
354.368,20.76882,-1.58749,1.13346,0.93377
355.068,20.79039,-1.60444,1.14873,0.93326
355.768,20.81196,-1.62149,1.16223,0.93276
356.468,20.83351,-1.63996,1.17747,0.93226
357.168,20.85514,-1.65687,1.19399,0.93176
357.868,20.8767,-1.6752,1.21037,0.93126
358.568,20.89819,-1.69268,1.22895,0.93075
359.268,20.91972,-1.71445,1.24652,0.93025
359.968,20.94121,-1.73156,1.26523,0.92974
360.668,20.9627,-1.75278,1.28353,0.92924
361.368,20.98424,-1.77229,1.30573,0.92873
362.068,21.0058,-1.79449,1.32497,0.92823
362.768,21.02733,-1.81528,1.34613,0.92772
363.468,21.04896,-1.8374,1.36982,0.92721
364.168,21.0705,-1.85936,1.39211,0.9267
364.868,21.0921,-1.88262,1.41921,0.9262
365.568,21.1137,-1.90815,1.44123,0.92569
366.268,21.1353,-1.93126,1.46646,0.92518
366.968,21.15692,-1.95948,1.49198,0.92467
367.668,21.17849,-1.98383,1.5155,0.92416
368.368,21.2001,-2.01419,1.53883,0.92365
369.068,21.22178,-2.03924,1.55935,0.92313
369.768,21.24341,-2.07064,1.58169,0.92262
370.468,21.2651,-2.09788,1.6001,0.92211
371.168,21.28669,-2.13006,1.61217,0.9216
371.868,21.30827,-2.15994,1.62168,0.92108
372.568,21.32991,-2.19234,1.62793,0.92057
373.268,21.35156,-2.22513,1.62428,0.92005
373.968,21.37324,-2.25615,1.61697,0.91954
374.668,21.39494,-2.29194,1.60051,0.91902
375.368,21.41656,-2.32265,1.5735,0.91851
376.068,21.43818,-2.35878,1.53929,0.91799
376.768,21.45978,-2.38767,1.49779,0.91747
377.468,21.4814,-2.4235,1.44853,0.91695
378.168,21.50306,-2.4521,1.3945,0.91644
378.868,21.5247,-2.48431,1.33134,0.91592
379.568,21.54639,-2.51078,1.26305,0.9154
380.268,21.56808,-2.53893,1.19309,0.91488
380.968,21.5897,-2.5641,1.11992,0.91436
381.668,21.61129,-2.58787,1.04652,0.91384
382.368,21.6329,-2.61218,0.97648,0.91332
383.068,21.65452,-2.63133,0.90841,0.9128
383.768,21.67611,-2.65215,0.841,0.91227
384.468,21.69774,-2.66793,0.78024,0.91175
385.168,21.71927,-2.68496,0.72236,0.91123
385.868,21.74087,-2.69749,0.66789,0.9107
386.568,21.76233,-2.71175,0.61847,0.91018
387.268,21.78394,-2.72203,0.57391,0.90966
387.968,21.80555,-2.73247,0.53337,0.90913
388.668,21.82714,-2.74109,0.497,0.90861
389.368,21.84894,-2.74987,0.46435,0.90808
390.068,21.87045,-2.75746,0.43535,0.90755
390.768,21.8921,-2.76398,0.40816,0.90703
391.468,21.91374,-2.77126,0.38412,0.9065
392.168,21.93534,-2.777,0.36201,0.90597
392.868,21.95704,-2.78307,0.34272,0.90544
393.568,21.97861,-2.78744,0.32296,0.90492
394.268,22.0002,-2.79245,0.30628,0.90439
394.968,22.0218,-2.79625,0.2905,0.90386
395.668,22.04351,-2.80008,0.2774,0.90333
396.368,22.06523,-2.8036,0.26321,0.9028
397.068,22.08691,-2.80743,0.25133,0.90227
397.768,22.1086,-2.81005,0.23959,0.90173
398.468,22.13029,-2.81339,0.22752,0.9012
399.168,22.15193,-2.81723,0.21783,0.90067
399.868,22.17361,-2.82047,0.20923,0.90014
400.568,22.19523,-2.82338,0.20197,0.89961
401.268,22.2169,-2.8258,0.19087,0.89907
401.968,22.23855,-2.82881,0.18357,0.89854
402.668,22.26024,-2.83213,0.17213,0.898
403.368,22.28205,-2.83639,0.16914,0.89747
404.068,22.3038,-2.83868,0.15858,0.89693
404.768,22.3256,-2.84049,0.14983,0.8964
405.468,22.34737,-2.8429,0.14497,0.89586
406.168,22.3691,-2.84546,0.13774,0.89533
406.868,22.39082,-2.84847,0.13138,0.89479
407.568,22.41253,-2.85102,0.12482,0.89425
408.268,22.43423,-2.85398,0.11585,0.89371
408.968,22.4559,-2.85643,0.11136,0.89318
409.668,22.4777,-2.85876,0.10681,0.89264
410.368,22.4995,-2.86098,0.09837299,0.8921
411.068,22.5213,-2.86341,0.094062,0.89156
411.768,22.543,-2.86562,0.08754556,0.89102
412.468,22.56475,-2.86898,0.08114703,0.89048
413.168,22.5865,-2.8711,0.0746454,0.88994
413.868,22.60824,-2.87354,0.06991445,0.8894
414.568,22.63009,-2.8761,0.06256044,0.88886
415.268,22.65193,-2.87836,0.05899308,0.88832
415.968,22.67385,-2.88132,0.05273381,0.88778
416.668,22.69574,-2.88384,0.04672226,0.88723
417.368,22.7176,-2.88618,0.04178982,0.88669
418.068,22.73939,-2.88895,0.03844246,0.88615
418.768,22.76115,-2.89111,0.0322534,0.8856
419.468,22.78296,-2.89342,0.02822638,0.88506
420.168,22.80479,-2.89578,0.02364106,0.88452
420.868,22.82666,-2.89857,0.01832405,0.88397
421.568,22.84858,-2.90071,0.0165071,0.88343
422.268,22.8704,-2.90263,0.0083151,0.88288
422.968,22.89224,-2.90283,0.004801015,0.88234
423.668,22.91413,-2.90508,-0.0004529449,0.88179
424.368,22.93593,-2.90776,-0.004346968,0.88124
425.068,22.9578,-2.91014,-0.008383409,0.8807
425.768,22.97973,-2.91157,-0.01121413,0.88015
426.468,23.0016,-2.91312,-0.01590904,0.8796
427.168,23.02357,-2.9151,-0.02073378,0.87905
427.868,23.0455,-2.91735,-0.02321848,0.87851
428.568,23.06745,-2.92013,-0.02489336,0.87796
429.268,23.08936,-2.92282,-0.02913436,0.87741
429.968,23.11121,-2.92407,-0.03415375,0.87686
430.668,23.13317,-2.92557,-0.03633134,0.87631
431.368,23.15506,-2.92728,-0.03984582,0.87576
432.068,23.17701,-2.92878,-0.04208823,0.87521
432.768,23.19896,-2.93124,-0.04622823,0.87466
433.468,23.22081,-2.93373,-0.05038471,0.87411
434.168,23.2427,-2.93581,-0.04923015,0.87356
434.868,23.26473,-2.93644,-0.05400019,0.873
435.568,23.28675,-2.93801,-0.05418021,0.87245
436.268,23.30885,-2.94,-0.05367553,0.8719
436.968,23.33088,-2.94176,-0.05662448,0.87135
437.668,23.35282,-2.94369,-0.06111515,0.8708
438.368,23.37477,-2.94567,-0.06153826,0.87024
439.068,23.3967,-2.94766,-0.06131588,0.86969
439.768,23.4187,-2.94944,-0.06494825,0.86913
440.468,23.4406,-2.95123,-0.06479807,0.86858
441.168,23.46264,-2.95308,-0.06729698,0.86803
441.868,23.48466,-2.95438,-0.06873042,0.86747
442.568,23.50667,-2.95619,-0.06986912,0.86692
443.268,23.52873,-2.9583,-0.06818563,0.86636
443.968,23.55074,-2.96067,-0.07042484,0.8658
444.668,23.5727,-2.9628,-0.07067705,0.86525
445.368,23.5947,-2.9644,-0.07101451,0.86469
446.068,23.61674,-2.96625,-0.07095042,0.86414
446.768,23.63879,-2.96687,-0.06959668,0.86358
447.468,23.66084,-2.96863,-0.06770181,0.86302
448.168,23.6829,-2.97038,-0.07000816,0.86246
448.868,23.70492,-2.97206,-0.0694705,0.86191
449.568,23.72701,-2.97377,-0.0689421,0.86135
450.268,23.74919,-2.97556,-0.06783003,0.86079
450.968,23.77127,-2.97838,-0.06646594,0.86023
451.668,23.79337,-2.98089,-0.06632811,0.85967
452.368,23.81539,-2.98256,-0.06486378,0.85911
453.068,23.83739,-2.98328,-0.06145845,0.85855
453.768,23.85951,-2.98436,-0.06255989,0.85799
454.468,23.88162,-2.98608,-0.06262059,0.85743
455.168,23.90373,-2.98913,-0.0593437,0.85687
455.868,23.9258,-2.99146,-0.05769914,0.85631
456.568,23.94789,-2.99381,-0.05665432,0.85575
457.268,23.96996,-2.99536,-0.05501322,0.85519
457.968,23.9921,-2.99724,-0.04938381,0.85463
458.668,24.0142,-2.99914,-0.04990203,0.85406
459.368,24.03639,-3.0004,-0.0488817,0.8535
460.068,24.0585,-3.00163,-0.04439478,0.85294
460.768,24.08061,-3.00167,-0.04249276,0.85238
461.468,24.1027,-3.00348,-0.03854958,0.85181
462.168,24.12485,-3.00514,-0.03708804,0.85125
462.868,24.14699,-3.00693,-0.03664085,0.85069
463.568,24.1691,-3.00825,-0.03356978,0.85012
464.268,24.19126,-3.00935,-0.03223814,0.84956
464.968,24.21337,-3.00962,-0.02669988,0.849
465.668,24.2355,-3.01097,-0.02635835,0.84843
466.368,24.25767,-3.01259,-0.02176004,0.84787
467.068,24.27979,-3.01369,-0.02144069,0.8473
467.768,24.30195,-3.01482,-0.01936974,0.84674
468.468,24.32413,-3.01651,-0.0157888,0.84617
469.168,24.34633,-3.01881,-0.01248144,0.84561
469.868,24.3686,-3.02096,-0.009631439,0.84504
470.568,24.39078,-3.02252,-0.008095587,0.84447
471.268,24.413,-3.02329,-0.00743564,0.84391
471.968,24.43525,-3.02335,-0.00288083,0.84334
472.668,24.45741,-3.02415,-3.83547e-05,0.84277
473.368,24.47962,-3.02529,0.00230612,0.84221
474.068,24.5018,-3.02667,0.003307019,0.84164
474.768,24.52391,-3.02826,0.00345272,0.84107
475.468,24.5461,-3.03054,0.008770276,0.8405
476.168,24.5683,-3.03197,0.009541234,0.83994
476.868,24.5905,-3.03354,0.01426473,0.83937
477.568,24.61279,-3.03468,0.01528019,0.8388
478.268,24.63501,-3.0363,0.01664697,0.83823
478.968,24.65726,-3.03693,0.0189305,0.83766
479.668,24.67954,-3.03832,0.02210966,0.83709
480.368,24.70179,-3.04028,0.02482236,0.83652
481.068,24.72405,-3.04106,0.02693791,0.83595
481.768,24.74631,-3.04255,0.03106621,0.83538
482.468,24.76857,-3.04423,0.03062123,0.83481
483.168,24.7909,-3.04459,0.03160775,0.83424
483.868,24.81319,-3.04578,0.03475296,0.83367
484.568,24.83553,-3.047,0.03536894,0.8331
485.268,24.85784,-3.04827,0.03773186,0.83253
485.968,24.88012,-3.04984,0.03658823,0.83196
486.668,24.90245,-3.05128,0.03917625,0.83139
487.368,24.92478,-3.05269,0.04060037,0.83082
488.068,24.94709,-3.05394,0.04456527,0.83024
488.768,24.96947,-3.05478,0.04431482,0.82967
489.468,24.9918,-3.05631,0.04468718,0.8291
490.168,25.014,-3.05626,0.04713247,0.82853
490.868,25.0364,-3.05757,0.04617527,0.82796
491.568,25.05868,-3.058,0.04665396,0.82738
492.268,25.08103,-3.05922,0.05072304,0.82681
492.968,25.10334,-3.06026,0.05015183,0.82624
493.668,25.12561,-3.0607,0.05293758,0.82566
494.368,25.14793,-3.06278,0.05433873,0.82509
495.068,25.17023,-3.06323,0.05181008,0.82452
495.768,25.19265,-3.06466,0.05656403,0.82394
496.468,25.2151,-3.0659,0.05478684,0.82337
497.168,25.2375,-3.06666,0.05500139,0.8228
497.868,25.25989,-3.06772,0.05805838,0.82222
498.568,25.28227,-3.06908,0.05791584,0.82165
499.268,25.30464,-3.06929,0.0588966,0.82107
499.968,25.327,-3.07058,0.05861088,0.8205
500.668,25.34933,-3.07199,0.06209941,0.81992
501.368,25.3718,-3.07209,0.06004777,0.81935
502.068,25.39416,-3.07358,0.06189962,0.81877
502.768,25.41657,-3.07488,0.06286133,0.8182
503.468,25.43901,-3.07547,0.06320593,0.81762
504.168,25.46138,-3.07666,0.06298684,0.81705
504.868,25.48372,-3.0775,0.06048947,0.81647
505.568,25.50618,-3.07802,0.0626437,0.81589
506.268,25.52861,-3.07895,0.06508843,0.81532
506.968,25.55094,-3.07933,0.06557988,0.81474
507.668,25.57346,-3.08019,0.06450365,0.81416
508.368,25.59591,-3.08094,0.06551059,0.81359
509.068,25.61838,-3.08242,0.06481048,0.81301
509.768,25.6409,-3.08289,0.06419434,0.81243
510.468,25.66329,-3.08368,0.06484614,0.81186
511.168,25.68574,-3.08474,0.06596873,0.81128
511.868,25.70815,-3.08528,0.06494908,0.8107
512.568,25.7306,-3.08681,0.06786433,0.81012
513.268,25.75318,-3.08713,0.06630798,0.80955
513.968,25.7757,-3.08824,0.06702673,0.80897
514.668,25.79821,-3.08879,0.06788406,0.80839
515.368,25.82069,-3.0896,0.07046297,0.80781
516.068,25.84313,-3.0909,0.07125551,0.80723
516.768,25.86561,-3.09141,0.06893631,0.80666
517.468,25.88815,-3.0925,0.06966775,0.80608
518.168,25.9107,-3.09388,0.07032204,0.8055
518.868,25.93327,-3.09402,0.069989,0.80492
519.568,25.9558,-3.09515,0.07051312,0.80434
520.268,25.9783,-3.09659,0.06939328,0.80376
520.968,26.0008,-3.09667,0.06809271,0.80318
521.668,26.0232,-3.09819,0.06890789,0.8026
522.368,26.04575,-3.09819,0.06954676,0.80202
523.068,26.0683,-3.09953,0.06961739,0.80144
523.768,26.09085,-3.10034,0.06892761,0.80086
524.468,26.11324,-3.10106,0.0680846,0.80028
525.168,26.13579,-3.10243,0.06865606,0.79971
525.868,26.15839,-3.10237,0.06998537,0.79913
526.568,26.1809,-3.10316,0.06593943,0.79855
527.268,26.20361,-3.10368,0.0658358,0.79796
527.968,26.22612,-3.10528,0.0659101,0.79738
528.668,26.24863,-3.1067,0.06971163,0.7968
529.368,26.2712,-3.10749,0.0662033,0.79622
530.068,26.29375,-3.10855,0.0677114,0.79564
530.768,26.31632,-3.10884,0.06540157,0.79506
531.468,26.3388,-3.10946,0.06530223,0.79448
532.168,26.36133,-3.11014,0.0664625,0.7939
532.868,26.38393,-3.11015,0.06865952,0.79332
533.568,26.4065,-3.11015,0.06761138,0.79274
534.268,26.4292,-3.11048,0.06711465,0.79216
534.968,26.45184,-3.11145,0.06560105,0.79158
535.668,26.47447,-3.11203,0.06608,0.79099
536.368,26.49714,-3.11416,0.06667108,0.79041
537.068,26.5198,-3.11526,0.07000157,0.78983
537.768,26.5424,-3.1156,0.06790135,0.78925
538.468,26.56509,-3.11675,0.06768913,0.78867
539.168,26.58772,-3.11694,0.06833526,0.78809
539.868,26.61037,-3.11699,0.0712439,0.7875
540.568,26.63304,-3.11832,0.06835482,0.78692
541.268,26.6556,-3.11826,0.06879119,0.78634
541.968,26.67827,-3.11923,0.06995646,0.78576
542.668,26.7009,-3.11894,0.0680777,0.78518
543.368,26.7235,-3.11931,0.07125959,0.78459
544.068,26.7462,-3.12025,0.0693703,0.78401
544.768,26.76877,-3.12025,0.06904234,0.78343
545.468,26.79143,-3.12138,0.07292255,0.78285
546.168,26.81411,-3.12147,0.07441706,0.78226
546.868,26.83677,-3.12294,0.0713721,0.78168
547.568,26.85946,-3.12298,0.07147568,0.7811
548.268,26.88219,-3.12384,0.07117345,0.78052
548.968,26.90493,-3.12407,0.07238167,0.77993
549.668,26.9277,-3.12508,0.07138178,0.77935
550.368,26.9504,-3.12511,0.07636138,0.77877
551.068,26.97297,-3.12643,0.07276524,0.77818
551.768,26.9956,-3.12629,0.07400741,0.7776
552.468,27.0182,-3.12769,0.07574856,0.77702
553.168,27.04086,-3.12777,0.07651694,0.77643
553.868,27.0635,-3.12906,0.07715189,0.77585
554.568,27.0862,-3.12896,0.07680022,0.77527
555.268,27.10887,-3.13032,0.07802312,0.77468
555.968,27.1315,-3.13054,0.0777623,0.7741
556.668,27.1542,-3.13296,0.0771765,0.77352
557.368,27.1769,-3.13336,0.07897364,0.77293
558.068,27.1996,-3.13384,0.08211701,0.77235
558.768,27.22229,-3.13384,0.08161643,0.77177
559.468,27.245,-3.13384,0.07836323,0.77118
560.168,27.2677,-3.13382,0.08103123,0.7706
560.868,27.2904,-3.13415,0.0802961,0.77002
561.568,27.3131,-3.13515,0.08157981,0.76943
562.268,27.3358,-3.13551,0.07896702,0.76885
562.968,27.35861,-3.13643,0.08090256,0.76826
563.668,27.38134,-3.13681,0.08048466,0.76768
564.368,27.404,-3.13725,0.07839704,0.7671
565.068,27.42672,-3.13813,0.07833536,0.76651
565.768,27.44947,-3.13881,0.08050907,0.76593
566.468,27.47229,-3.13961,0.07778509,0.76534
567.168,27.4951,-3.14083,0.07631723,0.76476
567.868,27.51795,-3.14102,0.08012404,0.76418
568.568,27.5406,-3.14252,0.07641175,0.76359
569.268,27.5634,-3.14256,0.07509752,0.76301
569.968,27.5861,-3.14388,0.07816638,0.76242
570.668,27.60885,-3.14382,0.07396534,0.76184
571.368,27.63161,-3.14468,0.07601979,0.76126
572.068,27.6543,-3.14513,0.07336277,0.76067
572.768,27.677,-3.14514,0.0721571,0.76009
573.468,27.69977,-3.14516,0.07312038,0.7595
574.168,27.72257,-3.14651,0.07504481,0.75892
574.868,27.7454,-3.14648,0.07226807,0.75833
575.568,27.76819,-3.14703,0.07095417,0.75775
576.268,27.791,-3.14775,0.06845327,0.75717
576.968,27.81383,-3.1474,0.06921512,0.75658
577.668,27.83655,-3.14782,0.06897581,0.756
578.368,27.85936,-3.14812,0.06490034,0.75541
579.068,27.88216,-3.14917,0.06371419,0.75483
579.768,27.9049,-3.15013,0.06478013,0.75424
580.468,27.9277,-3.1505,0.06467976,0.75366
581.168,27.95048,-3.1506,0.06475029,0.75308
581.868,27.9732,-3.15184,0.06033798,0.75249
582.568,27.996,-3.15183,0.06034255,0.75191
583.268,28.01875,-3.15183,0.06083034,0.75132
583.968,28.0415,-3.15268,0.05872027,0.75074
584.668,28.06427,-3.15313,0.06020518,0.75015
585.368,28.0871,-3.15314,0.05758903,0.74957
586.068,28.10988,-3.15313,0.05554849,0.74898
586.768,28.13277,-3.15409,0.05645405,0.7484
587.468,28.1557,-3.15445,0.0557155,0.74782
588.168,28.17858,-3.15446,0.05568856,0.74723
588.868,28.2015,-3.15586,0.0537382,0.74665
589.568,28.2242,-3.15578,0.05309301,0.74606
590.268,28.2469,-3.1557,0.04988529,0.74548
590.968,28.26965,-3.15709,0.0489394,0.74489
591.668,28.29235,-3.15706,0.04809938,0.74431
592.368,28.31529,-3.15725,0.04597929,0.74373
593.068,28.3381,-3.1571,0.04543901,0.74314
593.768,28.36102,-3.1571,0.04416154,0.74256
594.468,28.38387,-3.15797,0.04242852,0.74197
595.168,28.40669,-3.15853,0.03898165,0.74139
595.868,28.4296,-3.15991,0.0410288,0.7408
596.568,28.45242,-3.16112,0.03874329,0.74022
597.268,28.47533,-3.16125,0.03730827,0.73964
597.968,28.49822,-3.16249,0.03781491,0.73905
598.668,28.521,-3.16248,0.03651787,0.73847
599.368,28.54396,-3.16387,0.03632714,0.73788
600.068,28.56685,-3.16374,0.0346809,0.7373
600.768,28.58975,-3.16512,0.03278208,0.73672
601.468,28.6125,-3.1651,0.02803833,0.73613
602.168,28.63542,-3.1651,0.03007014,0.73555
602.868,28.65836,-3.16511,0.02869977,0.73496
603.568,28.6813,-3.16576,0.02754607,0.73438
604.268,28.70438,-3.16545,0.02865215,0.7338
604.968,28.72734,-3.16544,0.025771,0.73321
605.668,28.75027,-3.1668,0.02235725,0.73263
606.368,28.77325,-3.16672,0.02368455,0.73205
607.068,28.7962,-3.16801,0.02142125,0.73146
607.768,28.8192,-3.16818,0.02092054,0.73088
608.468,28.84217,-3.16873,0.01668164,0.73029
609.168,28.8651,-3.17046,0.01696553,0.72971
609.868,28.8881,-3.17047,0.0140821,0.72913
610.568,28.91109,-3.17047,0.01345653,0.72854
611.268,28.9341,-3.17048,0.01442013,0.72796
611.968,28.957,-3.17095,0.01319237,0.72738
612.668,28.98002,-3.17178,0.0113279,0.72679
613.368,29.003,-3.17181,0.01115812,0.72621
614.068,29.026,-3.17246,0.01042742,0.72563
614.768,29.04895,-3.17311,0.00749478,0.72504
615.468,29.07195,-3.17311,0.0087188,0.72446
616.168,29.09494,-3.17302,0.005429471,0.72388
616.868,29.11794,-3.17441,0.00653381,0.7233
617.568,29.14102,-3.17439,0.004705206,0.72271
618.268,29.16396,-3.17567,0.00267099,0.72213
618.968,29.18696,-3.17574,0.00274904,0.72155
619.668,29.20995,-3.17573,-0.00021234,0.72096
620.368,29.23297,-3.1753,-0.002018569,0.72038
621.068,29.2561,-3.17573,-0.001427608,0.7198
621.768,29.27905,-3.17574,-0.003593115,0.71922
622.468,29.3021,-3.1767,-0.005026837,0.71863
623.168,29.32504,-3.17669,-0.003711276,0.71805
623.868,29.34801,-3.17707,-0.005480792,0.71747
624.568,29.3711,-3.17702,-0.004287275,0.71689
625.268,29.39408,-3.17831,-0.009725586,0.7163
625.968,29.41712,-3.17837,-0.008570262,0.71572
626.668,29.44015,-3.17974,-0.008951375,0.71514
627.368,29.46317,-3.1797,-0.0111608,0.71456
628.068,29.48619,-3.17983,-0.01123236,0.71398
628.768,29.50923,-3.18101,-0.01516115,0.71339
629.468,29.53227,-3.18101,-0.01361284,0.71281
630.168,29.55521,-3.18205,-0.01383733,0.71223
630.868,29.5782,-3.18243,-0.01956115,0.71165
631.568,29.6013,-3.18395,-0.0200679,0.71107
632.268,29.62432,-3.18387,-0.02091767,0.71049
632.968,29.6475,-3.18386,-0.01812822,0.7099
633.668,29.67052,-3.18386,-0.01928923,0.70932
634.368,29.69352,-3.18464,-0.02182055,0.70874
635.068,29.71657,-3.18517,-0.02369509,0.70816
635.768,29.73958,-3.18518,-0.02580479,0.70758
636.468,29.7627,-3.18521,-0.02510005,0.707
637.168,29.7858,-3.18656,-0.02479013,0.70642
637.868,29.80885,-3.18649,-0.02692261,0.70584
638.568,29.83202,-3.1871,-0.02815509,0.70526
639.268,29.85507,-3.18779,-0.02754326,0.70468
639.968,29.8781,-3.18781,-0.02742263,0.70409
640.668,29.9012,-3.18781,-0.03072478,0.70351
641.368,29.9241,-3.18781,-0.0329301,0.70293
642.068,29.94718,-3.18782,-0.03269635,0.70235
642.768,29.9703,-3.18856,-0.03079933,0.70177
643.468,29.9934,-3.18912,-0.03199288,0.70119
644.168,30.01652,-3.18913,-0.03568236,0.70061
644.868,30.0396,-3.18913,-0.03621243,0.70003
645.568,30.06267,-3.18912,-0.03368655,0.69945
646.268,30.08575,-3.18874,-0.03707049,0.69887
646.968,30.10885,-3.18779,-0.03830035,0.69829
647.668,30.132,-3.18913,-0.03766455,0.69771
648.368,30.15506,-3.18912,-0.04062899,0.69714
649.068,30.1782,-3.18913,-0.0362874,0.69656
649.768,30.20123,-3.18995,-0.04328571,0.69598
650.468,30.22433,-3.19043,-0.04237476,0.6954
651.168,30.24744,-3.19044,-0.04133205,0.69482
651.868,30.27052,-3.19045,-0.04392392,0.69424
652.568,30.2937,-3.18993,-0.04460807,0.69366
653.268,30.31679,-3.18977,-0.04517485,0.69308
653.968,30.3399,-3.19119,-0.04542068,0.6925
654.668,30.36304,-3.19266,-0.04500381,0.69192
655.368,30.38614,-3.19369,-0.04596733,0.69135
656.068,30.4093,-3.19328,-0.04812826,0.69077
656.768,30.43243,-3.19265,-0.04793367,0.69019
657.468,30.45556,-3.193,-0.04801791,0.68961
658.168,30.47867,-3.19395,-0.05308787,0.68903
658.868,30.50173,-3.19397,-0.04926517,0.68846
659.568,30.52488,-3.19535,-0.04998257,0.68788
660.268,30.548,-3.19526,-0.05042874,0.6873
660.968,30.57112,-3.19446,-0.05225224,0.68672
661.668,30.59425,-3.19553,-0.05139586,0.68615
662.368,30.6173,-3.19559,-0.05391861,0.68557
663.068,30.64044,-3.19559,-0.05185083,0.68499
663.768,30.66358,-3.19559,-0.0560909,0.68441
664.468,30.68672,-3.19559,-0.05813963,0.68384
665.168,30.7099,-3.19559,-0.05565168,0.68326
665.868,30.733,-3.19555,-0.06046946,0.68268
666.568,30.75615,-3.19677,-0.05792271,0.68211
667.268,30.77931,-3.19691,-0.05995772,0.68153
667.968,30.80242,-3.19754,-0.06050987,0.68095
668.668,30.8256,-3.19936,-0.06260855,0.68038
669.368,30.8488,-3.19954,-0.06219111,0.6798
670.068,30.87193,-3.19976,-0.06265602,0.67923
670.768,30.89507,-3.20087,-0.06520972,0.67865
671.468,30.91817,-3.20086,-0.06279755,0.67807
672.168,30.9413,-3.20086,-0.06582795,0.6775
672.868,30.9645,-3.20085,-0.06445142,0.67692
673.568,30.98762,-3.20079,-0.06392031,0.67635
674.268,31.01083,-3.20218,-0.06832049,0.67577
674.968,31.03394,-3.20217,-0.06821527,0.6752
675.668,31.057,-3.20333,-0.06795335,0.67462
676.368,31.08013,-3.20342,-0.07171923,0.67405
677.068,31.1033,-3.20253,-0.07489318,0.67347
677.768,31.12647,-3.20245,-0.07293944,0.6729
678.468,31.14974,-3.20384,-0.07473682,0.67233
679.168,31.1729,-3.20382,-0.0749801,0.67175
679.868,31.19608,-3.20382,-0.07606488,0.67118
680.568,31.21929,-3.20382,-0.07788537,0.6706
681.268,31.24248,-3.20382,-0.07899836,0.67003
681.968,31.2657,-3.20382,-0.08148708,0.66946
682.668,31.2889,-3.20382,-0.08305581,0.66888
683.368,31.3121,-3.205,-0.08421355,0.66831
684.068,31.33522,-3.20514,-0.08710147,0.66774
684.768,31.3584,-3.20514,-0.08628198,0.66716
685.468,31.38155,-3.20458,-0.08897133,0.66659
686.168,31.40468,-3.20384,-0.08891271,0.66602
686.868,31.4278,-3.20382,-0.0933797,0.66544
687.568,31.45099,-3.2038,-0.0946488,0.66487
688.268,31.47421,-3.20493,-0.09360727,0.6643
688.968,31.49744,-3.20521,-0.09463629,0.66373
689.668,31.5207,-3.2066,-0.09558982,0.66316
690.368,31.5438,-3.20658,-0.09491162,0.66258
691.068,31.567,-3.20704,-0.09834819,0.66201
691.768,31.59015,-3.20787,-0.09834553,0.66144
692.468,31.61332,-3.20775,-0.10328,0.66087
693.168,31.6365,-3.2074,-0.10239,0.6603
693.868,31.6597,-3.20625,-0.10096,0.65973
694.568,31.6829,-3.20624,-0.10382,0.65915
695.268,31.7061,-3.20624,-0.10719,0.65858
695.968,31.7293,-3.20624,-0.1086,0.65801
696.668,31.7526,-3.20624,-0.10826,0.65744
697.368,31.77583,-3.20636,-0.11339,0.65687
698.068,31.7991,-3.20755,-0.11283,0.6563
698.768,31.8223,-3.20742,-0.11694,0.65573
699.468,31.8455,-3.20596,-0.11739,0.65516
700.168,31.86865,-3.20602,-0.11843,0.65459
700.868,31.89185,-3.20602,-0.12125,0.65402
701.568,31.91511,-3.20711,-0.12068,0.65345
702.268,31.9384,-3.20756,-0.12271,0.65288
702.968,31.9616,-3.20871,-0.12838,0.65231
703.668,31.9849,-3.20889,-0.12486,0.65175
704.368,32.00805,-3.20977,-0.12861,0.65118
705.068,32.0313,-3.21102,-0.13211,0.65061
705.768,32.05454,-3.21149,-0.1335,0.65004
706.468,32.07775,-3.2115,-0.13267,0.64947
707.168,32.1011,-3.21146,-0.13219,0.6489
707.868,32.12427,-3.21275,-0.13406,0.64834
708.568,32.14751,-3.21281,-0.13492,0.64777
709.268,32.17078,-3.21281,-0.13949,0.6472
709.968,32.19404,-3.21281,-0.13756,0.64663
710.668,32.21733,-3.21281,-0.14016,0.64607
711.368,32.24061,-3.21281,-0.13994,0.6455
712.068,32.26382,-3.21281,-0.14315,0.64493
712.768,32.28705,-3.21281,-0.14702,0.64436
713.468,32.3103,-3.21281,-0.14576,0.6438
714.168,32.3335,-3.21277,-0.14871,0.64323
714.868,32.35675,-3.21403,-0.15229,0.64267
715.568,32.3799,-3.21414,-0.15059,0.6421
716.268,32.4032,-3.21292,-0.15127,0.64153
716.968,32.42651,-3.21282,-0.15313,0.64097
717.668,32.44984,-3.21282,-0.15516,0.6404
718.368,32.47317,-3.21282,-0.15717,0.63984
719.068,32.49642,-3.21284,-0.15919,0.63927
719.768,32.5197,-3.21385,-0.15684,0.63871
720.468,32.54302,-3.21414,-0.16229,0.63814
721.168,32.5663,-3.21414,-0.16353,0.63758
721.868,32.58964,-3.21414,-0.16031,0.63701
722.568,32.61292,-3.21414,-0.1635,0.63645
723.268,32.6362,-3.21408,-0.16738,0.63588
723.968,32.6593,-3.21512,-0.16705,0.63532
724.668,32.6825,-3.2151,-0.16689,0.63476
725.368,32.70575,-3.21547,-0.16739,0.63419
726.068,32.72911,-3.21545,-0.16897,0.63363
726.768,32.7526,-3.21616,-0.17061,0.63307
727.468,32.776,-3.21558,-0.17301,0.6325
728.168,32.79934,-3.21545,-0.17216,0.63194
728.868,32.82258,-3.21543,-0.17654,0.63138
729.568,32.84576,-3.21725,-0.17517,0.63081
730.268,32.869,-3.21808,-0.17458,0.63025
730.968,32.89226,-3.21808,-0.17909,0.62969
731.668,32.91555,-3.21808,-0.18033,0.62913
732.368,32.93886,-3.21807,-0.17946,0.62857
733.068,32.96218,-3.21804,-0.18268,0.628
733.768,32.9855,-3.21808,-0.18242,0.62744
734.468,33.00881,-3.21808,-0.18363,0.62688
735.168,33.03222,-3.21808,-0.18374,0.62632
735.868,33.05555,-3.21798,-0.18782,0.62576
736.568,33.07888,-3.2194,-0.18552,0.6252
737.268,33.10228,-3.2194,-0.19006,0.62464
737.968,33.12562,-3.2194,-0.18717,0.62408
738.668,33.14893,-3.2194,-0.1953,0.62352
739.368,33.1723,-3.2194,-0.19441,0.62296
740.068,33.19558,-3.2194,-0.19758,0.6224
740.768,33.21891,-3.21939,-0.19852,0.62184
741.468,33.2423,-3.22076,-0.20169,0.62128
742.168,33.26566,-3.22072,-0.20177,0.62072
742.868,33.28902,-3.22072,-0.20062,0.62016
743.568,33.31239,-3.2201,-0.20207,0.6196
744.268,33.3358,-3.22144,-0.20187,0.61905
744.968,33.35921,-3.22137,-0.20539,0.61849
745.668,33.3825,-3.22137,-0.20538,0.61793
746.368,33.40589,-3.22127,-0.20227,0.61737
747.068,33.42931,-3.22269,-0.2011,0.61681
747.768,33.45275,-3.22269,-0.20529,0.61626
748.468,33.47625,-3.22269,-0.20589,0.6157
749.168,33.49968,-3.22269,-0.20805,0.61514
749.868,33.52304,-3.22245,-0.20763,0.61458
750.568,33.5465,-3.22205,-0.20893,0.61403
751.268,33.56994,-3.22204,-0.20869,0.61347
751.968,33.59332,-3.22206,-0.21349,0.61291
752.668,33.61681,-3.22279,-0.21565,0.61236
753.368,33.6402,-3.22335,-0.21242,0.6118
754.068,33.66363,-3.22335,-0.21445,0.61125
754.768,33.6871,-3.22335,-0.21727,0.61069
755.468,33.71038,-3.22334,-0.21638,0.61014
756.168,33.73375,-3.22437,-0.22203,0.60958
756.868,33.75718,-3.22464,-0.21744,0.60903
757.568,33.7806,-3.22357,-0.21504,0.60847
758.268,33.80421,-3.22335,-0.21431,0.60792
758.968,33.82767,-3.22335,-0.21902,0.60736
759.668,33.8511,-3.22345,-0.21569,0.60681
760.368,33.8745,-3.22463,-0.21914,0.60626
761.068,33.8979,-3.22566,-0.22275,0.6057
761.768,33.92138,-3.22565,-0.22344,0.60515
762.468,33.9448,-3.22565,-0.22218,0.60459
763.168,33.9683,-3.22565,-0.22438,0.60404
763.868,33.99176,-3.22565,-0.22082,0.60349
764.568,34.01525,-3.22565,-0.22504,0.60294
765.268,34.03872,-3.22564,-0.22612,0.60238
765.968,34.06216,-3.22597,-0.22395,0.60183
766.668,34.08559,-3.22599,-0.2241,0.60128
767.368,34.10907,-3.22663,-0.22511,0.60073
768.068,34.1326,-3.22729,-0.22498,0.60018
768.768,34.15607,-3.2273,-0.22615,0.59962
769.468,34.17953,-3.22729,-0.22924,0.59907
770.168,34.20301,-3.22626,-0.22828,0.59852
770.868,34.22647,-3.22495,-0.23291,0.59797
771.568,34.25,-3.22571,-0.23124,0.59742
772.268,34.2735,-3.22647,-0.22786,0.59687
772.968,34.29697,-3.22741,-0.22925,0.59632
773.668,34.3205,-3.22785,-0.2313,0.59577
774.368,34.344,-3.2287,-0.23136,0.59522
775.068,34.36752,-3.22873,-0.23135,0.59467
775.768,34.39115,-3.22954,-0.22817,0.59412
776.468,34.41474,-3.23003,-0.2321,0.59357
777.168,34.4384,-3.23004,-0.22964,0.59303
777.868,34.46192,-3.23004,-0.23435,0.59248
778.568,34.4855,-3.23004,-0.23436,0.59193
779.268,34.50898,-3.23004,-0.23246,0.59138
779.968,34.53246,-3.23007,-0.23266,0.59083
780.668,34.556,-3.22886,-0.23837,0.59029
781.368,34.57949,-3.22872,-0.23495,0.58974
782.068,34.60304,-3.22872,-0.23801,0.58919
782.768,34.62662,-3.22872,-0.23905,0.58864
783.468,34.6502,-3.22872,-0.23549,0.5881
784.168,34.6738,-3.22863,-0.23807,0.58755
784.868,34.69729,-3.23002,-0.23906,0.587
785.568,34.7209,-3.23003,-0.24217,0.58646
786.268,34.74439,-3.23003,-0.23895,0.58591
786.968,34.76781,-3.23003,-0.24003,0.58537
787.668,34.79136,-3.23003,-0.24021,0.58482
788.368,34.81491,-3.23003,-0.23833,0.58428
789.068,34.83848,-3.23003,-0.23758,0.58373
789.768,34.86224,-3.23144,-0.23653,0.58319
790.468,34.88579,-3.23136,-0.23933,0.58264
791.168,34.90933,-3.23135,-0.23726,0.5821
791.868,34.93292,-3.23231,-0.23748,0.58155
792.568,34.95648,-3.23266,-0.23591,0.58101
793.268,34.98008,-3.23267,-0.23683,0.58047
793.768,34.99687,-3.23267,-0.24165,0.58008