File: 01_Data/Overstuffed_Chair_Polyester_Batting/FTIR/IS/Overstuffed_Chair_Polyester_Batting_IS_REFLECT_MEAS_210623_R1.dpt
5996.41,0.17967
5992.55,0.17975
5988.69,0.18685
5984.84,0.18640
5980.98,0.18664
5977.12,0.18512
5973.27,0.19124
5969.41,0.18587
5965.55,0.18318
5961.69,0.18621
5957.84,0.19204
5953.98,0.19962
5950.12,0.19871
5946.26,0.18928
5942.41,0.19205
5938.55,0.19566
5934.69,0.19352
5930.83,0.20081
5926.98,0.19819
5923.12,0.21281
5919.26,0.21286
5915.4,0.21060
5911.55,0.21378
5907.69,0.21751
5903.83,0.21937
5899.97,0.21503
5896.12,0.21314
5892.26,0.22068
5888.4,0.21731
5884.54,0.21832
5880.69,0.21289
5876.83,0.21265
5872.97,0.21376
5869.11,0.21276
5865.26,0.20803
5861.4,0.20858
5857.54,0.21225
5853.68,0.21286
5849.83,0.21300
5845.97,0.21547
5842.11,0.20966
5838.25,0.21052
5834.4,0.20649
5830.54,0.21016
5826.68,0.21477
5822.82,0.20782
5818.97,0.20717
5815.11,0.20832
5811.25,0.20929
5807.39,0.20604
5803.54,0.21263
5799.68,0.21398
5795.82,0.20840
5791.96,0.21312
5788.11,0.21006
5784.25,0.20519
5780.39,0.20898
5776.53,0.21420
5772.68,0.21590
5768.82,0.20955
5764.96,0.21149
5761.11,0.21792
5757.25,0.21783
5753.39,0.21839
5749.53,0.21815
5745.68,0.22453
5741.82,0.22489
5737.96,0.22165
5734.1,0.22283
5730.25,0.22929
5726.39,0.22898
5722.53,0.22871
5718.67,0.22349
5714.82,0.22394
5710.96,0.22581
5707.1,0.22551
5703.24,0.22779
5699.39,0.22579
5695.53,0.22831
5691.67,0.22706
5687.81,0.22979
5683.96,0.22776
5680.1,0.22494
5676.24,0.23241
5672.38,0.22920
5668.53,0.23122
5664.67,0.22581
5660.81,0.22585
5656.95,0.22609
5653.1,0.22447
5649.24,0.22668
5645.38,0.22944
5641.52,0.22879
5637.67,0.22518
5633.81,0.23016
5629.95,0.23582
5626.09,0.23499
5622.24,0.23535
5618.38,0.23883
5614.52,0.23699
5610.66,0.23029
5606.81,0.23370
5602.95,0.23859
5599.09,0.23411
5595.23,0.23128
5591.38,0.23186
5587.52,0.23200
5583.66,0.23279
5579.8,0.23307
5575.95,0.22342
5572.09,0.22673
5568.23,0.23116
5564.38,0.23183
5560.52,0.23100
5556.66,0.23090
5552.8,0.22491
5548.95,0.22482
5545.09,0.22893
5541.23,0.23256
5537.37,0.23505
5533.52,0.23307
5529.66,0.22931
5525.8,0.22704
5521.94,0.22781
5518.09,0.23203
5514.23,0.22979
5510.37,0.22844
5506.51,0.22806
5502.66,0.22817
5498.8,0.22778
5494.94,0.22586
5491.08,0.22678
5487.23,0.23035
5483.37,0.22906
5479.51,0.22678
5475.65,0.22821
5471.8,0.22973
5467.94,0.22822
5464.08,0.22967
5460.22,0.22934
5456.37,0.23209
5452.51,0.23373
5448.65,0.22964
5444.79,0.22862
5440.94,0.23258
5437.08,0.23490
5433.22,0.23523
5429.36,0.23082
5425.51,0.23159
5421.65,0.23650
5417.79,0.23576
5413.93,0.22950
5410.08,0.23267
5406.22,0.22983
5402.36,0.22864
5398.5,0.23615
5394.65,0.23644
5390.79,0.23563
5386.93,0.23300
5383.07,0.23184
5379.22,0.23269
5375.36,0.23180
5371.5,0.23582
5367.65,0.23295
5363.79,0.23198
5359.93,0.23765
5356.07,0.23424
5352.22,0.22468
5348.36,0.22722
5344.5,0.22708
5340.64,0.22819
5336.79,0.22847
5332.93,0.22876
5329.07,0.23037
5325.21,0.22921
5321.36,0.22865
5317.5,0.23068
5313.64,0.23367
5309.78,0.23410
5305.93,0.23318
5302.07,0.23327
5298.21,0.22908
5294.35,0.22938
5290.5,0.22579
5286.64,0.22478
5282.78,0.22346
5278.92,0.22163
5275.07,0.22233
5271.21,0.21852
5267.35,0.21372
5263.49,0.20954
5259.64,0.21070
5255.78,0.21433
5251.92,0.21519
5248.06,0.21159
5244.21,0.21133
5240.35,0.21357
5236.49,0.21452
5232.63,0.21283
5228.78,0.21318
5224.92,0.21674
5221.06,0.21804
5217.2,0.21660
5213.35,0.21532
5209.49,0.21917
5205.63,0.22313
5201.77,0.22350
5197.92,0.22327
5194.06,0.22573
5190.2,0.22654
5186.34,0.22689
5182.49,0.22595
5178.63,0.22400
5174.77,0.22580
5170.91,0.22694
5167.06,0.22574
5163.2,0.22261
5159.34,0.22225
5155.49,0.22142
5151.63,0.22243
5147.77,0.22214
5143.91,0.22075
5140.06,0.22111
5136.2,0.22128
5132.34,0.22039
5128.48,0.21915
5124.63,0.21993
5120.77,0.21866
5116.91,0.21797
5113.05,0.21670
5109.2,0.21647
5105.34,0.21910
5101.48,0.22237
5097.62,0.22366
5093.77,0.22473
5089.91,0.22497
5086.05,0.22943
5082.19,0.22942
5078.34,0.23191
5074.48,0.23396
5070.62,0.23065
5066.76,0.23205
5062.91,0.23314
5059.05,0.22834
5055.19,0.22941
5051.33,0.23264
5047.48,0.23258
5043.62,0.23388
5039.76,0.23167
5035.9,0.23363
5032.05,0.23248
5028.19,0.23148
5024.33,0.23225
5020.47,0.22928
5016.62,0.22931
5012.76,0.23040
5008.9,0.23326
5005.04,0.23475
5001.19,0.23169
4997.33,0.22978
4993.47,0.23301
4989.61,0.23207
4985.76,0.23287
4981.9,0.23341
4978.04,0.23196
4974.18,0.23003
4970.33,0.22982
4966.47,0.23146
4962.61,0.23048
4958.76,0.22987
4954.9,0.23186
4951.04,0.23094
4947.18,0.22855
4943.33,0.22875
4939.47,0.22941
4935.61,0.22950
4931.75,0.22871
4927.9,0.22890
4924.04,0.22779
4920.18,0.22559
4916.32,0.22813
4912.47,0.22908
4908.61,0.22841
4904.75,0.22847
4900.89,0.22719
4897.04,0.22611
4893.18,0.22584
4889.32,0.22483
4885.46,0.22496
4881.61,0.22556
4877.75,0.22441
4873.89,0.22595
4870.03,0.22286
4866.18,0.22531
4862.32,0.22582
4858.46,0.22359
4854.6,0.22338
4850.75,0.22521
4846.89,0.22408
4843.03,0.22415
4839.17,0.22110
4835.32,0.21895
4831.46,0.21653
4827.6,0.21576
4823.74,0.21659
4819.89,0.21356
4816.03,0.21128
4812.17,0.21370
4808.31,0.21295
4804.46,0.21099
4800.6,0.20947
4796.74,0.21000
4792.88,0.20965
4789.03,0.20968
4785.17,0.20975
4781.31,0.20981
4777.45,0.21037
4773.6,0.21258
4769.74,0.21461
4765.88,0.21272
4762.02,0.21106
4758.17,0.20864
4754.31,0.20733
4750.45,0.20762
4746.6,0.20267
4742.74,0.19908
4738.88,0.19705
4735.02,0.19555
4731.17,0.19168
4727.31,0.18468
4723.45,0.17814
4719.59,0.17783
4715.74,0.17818
4711.88,0.17492
4708.02,0.17378
4704.16,0.16994
4700.31,0.16432
4696.45,0.15766
4692.59,0.15312
4688.73,0.15119
4684.88,0.15182
4681.02,0.16040
4677.16,0.16844
4673.3,0.17187
4669.45,0.17758
4665.59,0.17863
4661.73,0.17955
4657.87,0.18203
4654.02,0.18242
4650.16,0.17853
4646.3,0.17457
4642.44,0.16890
4638.59,0.16408
4634.73,0.16214
4630.87,0.16542
4627.01,0.17239
4623.16,0.17943
4619.3,0.18574
4615.44,0.19143
4611.58,0.19422
4607.73,0.19620
4603.87,0.19632
4600.01,0.19341
4596.15,0.18902
4592.3,0.18549
4588.44,0.18221
4584.58,0.17974
4580.72,0.18007
4576.87,0.18026
4573.01,0.18435
4569.15,0.19148
4565.29,0.19662
4561.44,0.19922
4557.58,0.20036
4553.72,0.20070
4549.87,0.20016
4546.01,0.20033
4542.15,0.19870
4538.29,0.19968
4534.44,0.19917
4530.58,0.19895
4526.72,0.19715
4522.86,0.19635
4519.01,0.19221
4515.15,0.18951
4511.29,0.18898
4507.43,0.18571
4503.58,0.18168
4499.72,0.17749
4495.86,0.17139
4492,0.16533
4488.15,0.16104
4484.29,0.15637
4480.43,0.15407
4476.57,0.15028
4472.72,0.14733
4468.86,0.14116
4465,0.13123
4461.14,0.12328
4457.29,0.11860
4453.43,0.11886
4449.57,0.12000
4445.71,0.11746
4441.86,0.11353
4438,0.11289
4434.14,0.11281
4430.28,0.11387
4426.43,0.11512
4422.57,0.11826
4418.71,0.12201
4414.85,0.12475
4411,0.12668
4407.14,0.12679
4403.28,0.12777
4399.42,0.12979
4395.57,0.13262
4391.71,0.13425
4387.85,0.13649
4383.99,0.13931
4380.14,0.13885
4376.28,0.13697
4372.42,0.13860
4368.56,0.13983
4364.71,0.13761
4360.85,0.13641
4356.99,0.13633
4353.14,0.13549
4349.28,0.13486
4345.42,0.13275
4341.56,0.13087
4337.71,0.13029
4333.85,0.12991
4329.99,0.13090
4326.13,0.13189
4322.28,0.13203
4318.42,0.13092
4314.56,0.13007
4310.7,0.12849
4306.85,0.12415
4302.99,0.12121
4299.13,0.11892
4295.27,0.11693
4291.42,0.11637
4287.56,0.11650
4283.7,0.11815
4279.84,0.11976
4275.99,0.12032
4272.13,0.12212
4268.27,0.12339
4264.41,0.12446
4260.56,0.12550
4256.7,0.12606
4252.84,0.12560
4248.98,0.12533
4245.13,0.12250
4241.27,0.12333
4237.41,0.12461
4233.55,0.12467
4229.7,0.12352
4225.84,0.12550
4221.98,0.12631
4218.12,0.12737
4214.27,0.13093
4210.41,0.13269
4206.55,0.13189
4202.69,0.13287
4198.84,0.13401
4194.98,0.13415
4191.12,0.13353
4187.26,0.13208
4183.41,0.12747
4179.55,0.12391
4175.69,0.12445
4171.83,0.12731
4167.98,0.13051
4164.12,0.13322
4160.26,0.13557
4156.4,0.13742
4152.55,0.13735
4148.69,0.13898
4144.83,0.13762
4140.98,0.13432
4137.12,0.13231
4133.26,0.12999
4129.4,0.12827
4125.55,0.12847
4121.69,0.12727
4117.83,0.12544
4113.97,0.12433
4110.12,0.12062
4106.26,0.11585
4102.4,0.10954
4098.54,0.10127
4094.69,0.09225
4090.83,0.08680
4086.97,0.08895
4083.11,0.09489
4079.26,0.10203
4075.4,0.11089
4071.54,0.11801
4067.68,0.12163
4063.83,0.12518
4059.97,0.12812
4056.11,0.13080
4052.25,0.13351
4048.4,0.13467
4044.54,0.13534
4040.68,0.13857
4036.82,0.14037
4032.97,0.14202
4029.11,0.14342
4025.25,0.14493
4021.39,0.14479
4017.54,0.14398
4013.68,0.14519
4009.82,0.14452
4005.96,0.14455
4002.11,0.14467
3998.25,0.14560
3994.39,0.14784
3990.53,0.14874
3986.68,0.14908
3982.82,0.14925
3978.96,0.15064
3975.1,0.15066
3971.25,0.15080
3967.39,0.15096
3963.53,0.15059
3959.67,0.15168
3955.82,0.15362
3951.96,0.15531
3948.1,0.15646
3944.25,0.15674
3940.39,0.15790
3936.53,0.15858
3932.67,0.15843
3928.82,0.15887
3924.96,0.15933
3921.1,0.16030
3917.24,0.15879
3913.39,0.15896
3909.53,0.16082
3905.67,0.16300
3901.81,0.16499
3897.96,0.16716
3894.1,0.16860
3890.24,0.16997
3886.38,0.17198
3882.53,0.17265
3878.67,0.17176
3874.81,0.17265
3870.95,0.17367
3867.1,0.17411
3863.24,0.17268
3859.38,0.17361
3855.52,0.17450
3851.67,0.17641
3847.81,0.17507
3843.95,0.17359
3840.09,0.17340
3836.24,0.17469
3832.38,0.17429
3828.52,0.17366
3824.66,0.17368
3820.81,0.17271
3816.95,0.17080
3813.09,0.16716
3809.23,0.16531
3805.38,0.16510
3801.52,0.16644
3797.66,0.16847
3793.8,0.16988
3789.95,0.17038
3786.09,0.17073
3782.23,0.17015
3778.37,0.16857
3774.52,0.16740
3770.66,0.16595
3766.8,0.16392
3762.94,0.16162
3759.09,0.15949
3755.23,0.16053
3751.37,0.16557
3747.51,0.16958
3743.66,0.16702
3739.8,0.16839
3735.94,0.16425
3732.09,0.16067
3728.23,0.16104
3724.37,0.16398
3720.51,0.16673
3716.66,0.16876
3712.8,0.16805
3708.94,0.16240
3705.08,0.15730
3701.23,0.15083
3697.37,0.14438
3693.51,0.13737
3689.65,0.12577
3685.8,0.11735
3681.94,0.11572
3678.08,0.11646
3674.22,0.11500
3670.37,0.10957
3666.51,0.10287
3662.65,0.09751
3658.79,0.09196
3654.94,0.08792
3651.08,0.08587
3647.22,0.08203
3643.36,0.07820
3639.51,0.07544
3635.65,0.07377
3631.79,0.07342
3627.93,0.07379
3624.08,0.07494
3620.22,0.07652
3616.36,0.07784
3612.5,0.07928
3608.65,0.08049
3604.79,0.08039
3600.93,0.08126
3597.07,0.08201
3593.22,0.08169
3589.36,0.08045
3585.5,0.07838
3581.64,0.07634
3577.79,0.07338
3573.93,0.06982
3570.07,0.06699
3566.21,0.06416
3562.36,0.06233
3558.5,0.06020
3554.64,0.05814
3550.78,0.05856
3546.93,0.06002
3543.07,0.06036
3539.21,0.06062
3535.36,0.06202
3531.5,0.06401
3527.64,0.06681
3523.78,0.06898
3519.93,0.07109
3516.07,0.07376
3512.21,0.07572
3508.35,0.07763
3504.5,0.07906
3500.64,0.08066
3496.78,0.08134
3492.92,0.08248
3489.07,0.08429
3485.21,0.08449
3481.35,0.08286
3477.49,0.08316
3473.64,0.08273
3469.78,0.08076
3465.92,0.07858
3462.06,0.07510
3458.21,0.07066
3454.35,0.06627
3450.49,0.06110
3446.63,0.05660
3442.78,0.05161
3438.92,0.04649
3435.06,0.04208
3431.2,0.03926
3427.35,0.04170
3423.49,0.04765
3419.63,0.05604
3415.77,0.06399
3411.92,0.07153
3408.06,0.07895
3404.2,0.08516
3400.34,0.09013
3396.49,0.09315
3392.63,0.09674
3388.77,0.09935
3384.91,0.10013
3381.06,0.10098
3377.2,0.10221
3373.34,0.10327
3369.48,0.10375
3365.63,0.10267
3361.77,0.10029
3357.91,0.09796
3354.05,0.09608
3350.2,0.09350
3346.34,0.08992
3342.48,0.08655
3338.63,0.08541
3334.77,0.08509
3330.91,0.08675
3327.05,0.08898
3323.2,0.09142
3319.34,0.09328
3315.48,0.09314
3311.62,0.09290
3307.77,0.09172
3303.91,0.08971
3300.05,0.08842
3296.19,0.08898
3292.34,0.09081
3288.48,0.09196
3284.62,0.09338
3280.76,0.09509
3276.91,0.09593
3273.05,0.09601
3269.19,0.09654
3265.33,0.09571
3261.48,0.09522
3257.62,0.09615
3253.76,0.09511
3249.9,0.09406
3246.05,0.09289
3242.19,0.09236
3238.33,0.09116
3234.47,0.09064
3230.62,0.09125
3226.76,0.09153
3222.9,0.09271
3219.04,0.09415
3215.19,0.09474
3211.33,0.09522
3207.47,0.09575
3203.61,0.09425
3199.76,0.09327
3195.9,0.09207
3192.04,0.09216
3188.18,0.09169
3184.33,0.09132
3180.47,0.09073
3176.61,0.09061
3172.75,0.09049
3168.9,0.08917
3165.04,0.08780
3161.18,0.08703
3157.32,0.08548
3153.47,0.08448
3149.61,0.08233
3145.75,0.08073
3141.89,0.07865
3138.04,0.07516
3134.18,0.07200
3130.32,0.06919
3126.47,0.06776
3122.61,0.06749
3118.75,0.06660
3114.89,0.06364
3111.04,0.05875
3107.18,0.05435
3103.32,0.05138
3099.46,0.05253
3095.61,0.05467
3091.75,0.05477
3087.89,0.05129
3084.03,0.04685
3080.18,0.04484
3076.32,0.04461
3072.46,0.04389
3068.6,0.04346
3064.75,0.04369
3060.89,0.04271
3057.03,0.03910
3053.17,0.03907
3049.32,0.04502
3045.46,0.05424
3041.6,0.05885
3037.74,0.05954
3033.89,0.05775
3030.03,0.05478
3026.17,0.04950
3022.31,0.04272
3018.46,0.03595
3014.6,0.03077
3010.74,0.02909
3006.88,0.02847
3003.03,0.02690
2999.17,0.02589
2995.31,0.02539
2991.45,0.02363
2987.6,0.02219
2983.74,0.01946
2979.88,0.01654
2976.02,0.01581
2972.17,0.01533
2968.31,0.01450
2964.45,0.01485
2960.59,0.01559
2956.74,0.01660
2952.88,0.01725
2949.02,0.01930
2945.16,0.02329
2941.31,0.02693
2937.45,0.02969
2933.59,0.03147
2929.74,0.03234
2925.88,0.03114
2922.02,0.02902
2918.16,0.02650
2914.31,0.02417
2910.45,0.02184
2906.59,0.02091
2902.73,0.02374
2898.88,0.02631
2895.02,0.02833
2891.16,0.02877
2887.3,0.02964
2883.45,0.03129
2879.59,0.03272
2875.73,0.03469
2871.87,0.03654
2868.02,0.03804
2864.16,0.03863
2860.3,0.04000
2856.44,0.04165
2852.59,0.04281
2848.73,0.04646
2844.87,0.05408
2841.01,0.06157
2837.16,0.06688
2833.3,0.07144
2829.44,0.07498
2825.58,0.07814
2821.73,0.07957
2817.87,0.07895
2814.01,0.07806
2810.15,0.07689
2806.3,0.07723
2802.44,0.07905
2798.58,0.08143
2794.72,0.08515
2790.87,0.08849
2787.01,0.09144
2783.15,0.09387
2779.29,0.09611
2775.44,0.09772
2771.58,0.09944
2767.72,0.10081
2763.86,0.10123
2760.01,0.10140
2756.15,0.10144
2752.29,0.10149
2748.43,0.10106
2744.58,0.10162
2740.72,0.10372
2736.86,0.10719
2733.01,0.11050
2729.15,0.11355
2725.29,0.11610
2721.43,0.11786
2717.58,0.11974
2713.72,0.12165
2709.86,0.12281
2706,0.12521
2702.15,0.12724
2698.29,0.12830
2694.43,0.12923
2690.57,0.12990
2686.72,0.13019
2682.86,0.12946
2679,0.12951
2675.14,0.13002
2671.29,0.13024
2667.43,0.13040
2663.57,0.13020
2659.71,0.12867
2655.86,0.12712
2652,0.12496
2648.14,0.12309
2644.28,0.12003
2640.43,0.11490
2636.57,0.11028
2632.71,0.10784
2628.85,0.10713
2625,0.10753
2621.14,0.10900
2617.28,0.10972
2613.42,0.10945
2609.57,0.10858
2605.71,0.10736
2601.85,0.10603
2597.99,0.10438
2594.14,0.10187
2590.28,0.09933
2586.42,0.09769
2582.56,0.09690
2578.71,0.09759
2574.85,0.09839
2570.99,0.09797
2567.13,0.09731
2563.28,0.09654
2559.42,0.09581
2555.56,0.09578
2551.7,0.09590
2547.85,0.09496
2543.99,0.09432
2540.13,0.09425
2536.27,0.09424
2532.42,0.09438
2528.56,0.09548
2524.7,0.09764
2520.85,0.09969
2516.99,0.10211
2513.13,0.10301
2509.27,0.10381
2505.42,0.10437
2501.56,0.10480
2497.7,0.10595
2493.84,0.10824
2489.99,0.11101
2486.13,0.11408
2482.27,0.11719
2478.41,0.11986
2474.56,0.12232
2470.7,0.12390
2466.84,0.12508
2462.98,0.12565
2459.13,0.12583
2455.27,0.12485
2451.41,0.12346
2447.55,0.12294
2443.7,0.12124
2439.84,0.11812
2435.98,0.11413
2432.12,0.10981
2428.27,0.10642
2424.41,0.10255
2420.55,0.09849
2416.69,0.09469
2412.84,0.09165
2408.98,0.08876
2405.12,0.08608
2401.26,0.08354
2397.41,0.08184
2393.55,0.08028
2389.69,0.07899
2385.83,0.07768
2381.98,0.07534
2378.12,0.07226
2374.26,0.06993
2370.4,0.06677
2366.55,0.06489
2362.69,0.06453
2358.83,0.06839
2354.97,0.07616
2351.12,0.07822
2347.26,0.08117
2343.4,0.08414
2339.54,0.08119
2335.69,0.08159
2331.83,0.08529
2327.97,0.08907
2324.12,0.09307
2320.26,0.09924
2316.4,0.10315
2312.54,0.10581
2308.69,0.10707
2304.83,0.10660
2300.97,0.10398
2297.11,0.09970
2293.26,0.09566
2289.4,0.09316
2285.54,0.09271
2281.68,0.09259
2277.83,0.09313
2273.97,0.09370
2270.11,0.09307
2266.25,0.09210
2262.4,0.09133
2258.54,0.09203
2254.68,0.09327
2250.82,0.09493
2246.97,0.09807
2243.11,0.10162
2239.25,0.10416
2235.39,0.10585
2231.54,0.10806
2227.68,0.10928
2223.82,0.11020
2219.96,0.11156
2216.11,0.11244
2212.25,0.11257
2208.39,0.11481
2204.53,0.11825
2200.68,0.12051
2196.82,0.12170
2192.96,0.12176
2189.1,0.12149
2185.25,0.11998
2181.39,0.11771
2177.53,0.11471
2173.67,0.11121
2169.82,0.10805
2165.96,0.10385
2162.1,0.09850
2158.24,0.09355
2154.39,0.08979
2150.53,0.08605
2146.67,0.08286
2142.81,0.08000
2138.96,0.07793
2135.1,0.07612
2131.24,0.07390
2127.38,0.07079
2123.53,0.06829
2119.67,0.06602
2115.81,0.06470
2111.96,0.06383
2108.1,0.06417
2104.24,0.06468
2100.38,0.06560
2096.53,0.06624
2092.67,0.06761
2088.81,0.06956
2084.95,0.07244
2081.1,0.07578
2077.24,0.07963
2073.38,0.08372
2069.52,0.08813
2065.67,0.09350
2061.81,0.09892
2057.95,0.10361
2054.09,0.10767
2050.24,0.11071
2046.38,0.11322
2042.52,0.11465
2038.66,0.11421
2034.81,0.11361
2030.95,0.11162
2027.09,0.10819
2023.23,0.10455
2019.38,0.09997
2015.52,0.09600
2011.66,0.09229
2007.8,0.08854
2003.95,0.08411
2000.09,0.07983
1996.23,0.07574
1992.37,0.07199
1988.52,0.06839
1984.66,0.06434
1980.8,0.06093
1976.94,0.05736
1973.09,0.05274
1969.23,0.04692
1965.37,0.04082
1961.51,0.03675
1957.66,0.03651
1953.8,0.03956
1949.94,0.04279
1946.08,0.04687
1942.23,0.05153
1938.37,0.05558
1934.51,0.05990
1930.65,0.06427
1926.8,0.06877
1922.94,0.07281
1919.08,0.07621
1915.23,0.07842
1911.37,0.08087
1907.51,0.08288
1903.65,0.08434
1899.8,0.08610
1895.94,0.08720
1892.08,0.08841
1888.22,0.08869
1884.37,0.08738
1880.51,0.08634
1876.65,0.08496
1872.79,0.08310
1868.94,0.08082
1865.08,0.07520
1861.22,0.07038
1857.36,0.06568
1853.51,0.05914
1849.65,0.05300
1845.79,0.04839
1841.93,0.04266
1838.08,0.03889
1834.22,0.03577
1830.36,0.03356
1826.5,0.03166
1822.65,0.03062
1818.79,0.03019
1814.93,0.02981
1811.07,0.02944
1807.22,0.02853
1803.36,0.02826
1799.5,0.02829
1795.64,0.02745
1791.79,0.02622
1787.93,0.02393
1784.07,0.02288
1780.21,0.02202
1776.36,0.02012
1772.5,0.01832
1768.64,0.01582
1764.78,0.01377
1760.93,0.01177
1757.07,0.01020
1753.21,0.00907
1749.35,0.00736
1745.5,0.00556
1741.64,0.00595
1737.78,0.00751
1733.92,0.01082
1730.07,0.01423
1726.21,0.01711
1722.35,0.02047
1718.5,0.02434
1714.64,0.02442
1710.78,0.02114
1706.92,0.01908
1703.07,0.01780
1699.21,0.01799
1695.35,0.01667
1691.49,0.01546
1687.64,0.01574
1683.78,0.01714
1679.92,0.01733
1676.06,0.01794
1672.21,0.02019
1668.35,0.02215
1664.49,0.02368
1660.63,0.02670
1656.78,0.02870
1652.92,0.03255
1649.06,0.03288
1645.2,0.03268
1641.35,0.03305
1637.49,0.03417
1633.63,0.03354
1629.77,0.03301
1625.92,0.03409
1622.06,0.03323
1618.2,0.03029
1614.34,0.02622
1610.49,0.02634
1606.63,0.02981
1602.77,0.03451
1598.91,0.03847
1595.06,0.03900
1591.2,0.03555
1587.34,0.02945
1583.48,0.02225
1579.63,0.01778
1575.77,0.02009
1571.91,0.02496
1568.05,0.03086
1564.2,0.03299
1560.34,0.03783
1556.48,0.04014
1552.62,0.03764
1548.77,0.03643
1544.91,0.03799
1541.05,0.04023
1537.19,0.03628
1533.34,0.03348
1529.48,0.02997
1525.62,0.02841
1521.76,0.02836
1517.91,0.02779
1514.05,0.02349
1510.19,0.01841
1506.34,0.01384
1502.48,0.01447
1498.62,0.02168
1494.76,0.02850
1490.91,0.02871
1487.05,0.02364
1483.19,0.01846
1479.33,0.01526
1475.48,0.01382
1471.62,0.01354
1467.76,0.01262
1463.9,0.01229
1460.05,0.01210
1456.19,0.01215
1452.33,0.01082
1448.47,0.01030
1444.62,0.01063
1440.76,0.01127
1436.9,0.01205
1433.04,0.01275
1429.19,0.01416
1425.33,0.01335
1421.47,0.01119
1417.61,0.00875
1413.76,0.00809
1409.9,0.00880
1406.04,0.00945
1402.18,0.00970
1398.33,0.01061
1394.47,0.01056
1390.61,0.01000
1386.75,0.01025
1382.9,0.01024
1379.04,0.00960
1375.18,0.00990
1371.32,0.00978
1367.47,0.00896
1363.61,0.00919
1359.75,0.00941
1355.89,0.00936
1352.04,0.00835
1348.18,0.00846
1344.32,0.01102
1340.46,0.01252
1336.61,0.01160
1332.75,0.01084
1328.89,0.00928
1325.03,0.00768
1321.18,0.00699
1317.32,0.00641
1313.46,0.00613
1309.61,0.00603
1305.75,0.00538
1301.89,0.00578
1298.03,0.00645
1294.18,0.00798
1290.32,0.01055
1286.46,0.01444
1282.6,0.01840
1278.75,0.02220
1274.89,0.02514
1271.03,0.02785
1267.17,0.02955
1263.32,0.03091
1259.46,0.03148
1255.6,0.03211
1251.74,0.03223
1247.89,0.03178
1244.03,0.03066
1240.17,0.02826
1236.31,0.02609
1232.46,0.02404
1228.6,0.02168
1224.74,0.02100
1220.88,0.02061
1217.03,0.02109
1213.17,0.02106
1209.31,0.02079
1205.45,0.02178
1201.6,0.02221
1197.74,0.02294
1193.88,0.02285
1190.02,0.02117
1186.17,0.01937
1182.31,0.01739
1178.45,0.01542
1174.59,0.01387
1170.74,0.01429
1166.88,0.01418
1163.02,0.01282
1159.16,0.01137
1155.31,0.00907
1151.45,0.00944
1147.59,0.00873
1143.73,0.00849
1139.88,0.00941
1136.02,0.01311
1132.16,0.01739
1128.3,0.02052
1124.45,0.02056
1120.59,0.01982
1116.73,0.01920
1112.88,0.01950
1109.02,0.01916
1105.16,0.01962
1101.3,0.02058
1097.45,0.02142
1093.59,0.01969
1089.73,0.01956
1085.87,0.01949
1082.02,0.01928
1078.16,0.01935
1074.3,0.01984
1070.44,0.02169
1066.59,0.02297
1062.73,0.02415
1058.87,0.02206
1055.01,0.02094
1051.16,0.01862
1047.3,0.01710
1043.44,0.01671
1039.58,0.01649
1035.73,0.01626
1031.87,0.01598
1028.01,0.01427
1024.15,0.01556
1020.3,0.01765
1016.44,0.01767
1012.58,0.02147
1008.72,0.02851
1004.87,0.03404
1001.01,0.03571
997.151,0.03645
993.294,0.03339
989.437,0.02927
985.579,0.02767
981.722,0.02457
977.864,0.02087
974.007,0.01969
970.149,0.02152
966.292,0.02495
962.434,0.02955
958.577,0.03463
954.719,0.04035
950.862,0.04339
947.005,0.04457
943.147,0.04593
939.29,0.04693
935.432,0.04635
931.575,0.04680
927.717,0.04778
923.86,0.04811
920.002,0.04748
916.145,0.04439
912.287,0.03839
908.43,0.03242
904.573,0.02631
900.715,0.02350
896.858,0.02318
893,0.02324
889.143,0.02261
885.285,0.02075
881.428,0.01733
877.57,0.01449
873.713,0.01451
869.856,0.01711
865.998,0.01867
862.141,0.01886
858.283,0.01897
854.426,0.01708
850.568,0.01679
846.711,0.01849
842.853,0.01945
838.996,0.02041
835.138,0.02335
831.281,0.02709
827.424,0.03121
823.566,0.03363
819.709,0.03371
815.851,0.03292
811.994,0.03352
808.136,0.03209
804.279,0.03090
800.421,0.02924
796.564,0.02507
792.706,0.02442
788.849,0.02754
784.992,0.03371
781.134,0.03935
777.277,0.04375
773.419,0.04886
769.562,0.05059
765.704,0.05255
761.847,0.05273
757.989,0.04901
754.132,0.04434
750.274,0.03817
746.417,0.02745
742.56,0.01558
738.702,0.01087
734.845,0.01108
730.987,0.01564
727.13,0.02325
723.272,0.02473
719.415,0.02492
715.557,0.02873
711.7,0.03212
707.843,0.03534
703.985,0.04025
700.128,0.05038
696.27,0.06404
692.413,0.07043
688.555,0.06981
684.698,0.06569
680.84,0.06114
676.983,0.06217
673.125,0.06733
669.268,0.08283
665.411,0.08132
661.553,0.08213
657.696,0.08072
653.838,0.08186
649.981,0.08866
646.123,0.09262
642.266,0.09202
638.408,0.08754
634.551,0.07497
630.693,0.07212
626.836,0.08872
622.979,0.09662
619.121,0.09979
615.264,0.10063
611.406,0.10101
607.549,0.10291
603.691,0.10266
599.834,0.10118
595.976,0.10206
592.119,0.10111
588.261,0.09825
584.404,0.09680
580.547,0.09616
576.689,0.09295
572.832,0.08790
568.974,0.08313
565.117,0.08043
561.259,0.07947
557.402,0.07784
553.544,0.07378
549.687,0.06864
545.83,0.06198
541.972,0.06026
538.115,0.05675
534.257,0.05039
530.4,0.04650
526.542,0.04140
522.685,0.03687
518.827,0.03733
514.97,0.03610
511.112,0.03047
507.255,0.02490
503.398,0.02779
499.54,0.03089
495.683,0.03153
491.825,0.03921
487.968,0.04823
484.11,0.04904
480.253,0.04599
476.395,0.04648
472.538,0.04680
468.68,0.04794
464.823,0.04500
460.966,0.04592
457.108,0.04569
453.251,0.04827
449.393,0.03837
445.536,0.03783
441.678,0.03953
437.821,0.02989
433.963,0.03055
430.106,0.02580
426.248,0.03050
422.391,0.03082
418.534,0.03159
414.676,0.04095
410.819,0.04226
406.961,0.03323
403.104,0.01547
399.246,0.00749