File: 01_Data/Overstuffed_Chair_Polyester_Batting/FTIR/IS/Overstuffed_Chair_Polyester_Batting_IS_REFLECT_BL_210623_R1.dpt
5996.41,0.02391
5992.55,0.02538
5988.69,0.02189
5984.84,0.01347
5980.98,0.01696
5977.12,0.02249
5973.27,0.02133
5969.41,0.02263
5965.55,0.02423
5961.69,0.02461
5957.84,0.02097
5953.98,0.02688
5950.12,0.02407
5946.26,0.02702
5942.41,0.02859
5938.55,0.02137
5934.69,0.02420
5930.83,0.02481
5926.98,0.02446
5923.12,0.01753
5919.26,0.02527
5915.4,0.03044
5911.55,0.03284
5907.69,0.02811
5903.83,0.02672
5899.97,0.02466
5896.12,0.02635
5892.26,0.02499
5888.4,0.02175
5884.54,0.02160
5880.69,0.02696
5876.83,0.01752
5872.97,0.01672
5869.11,0.01973
5865.26,0.01544
5861.4,0.02041
5857.54,0.02190
5853.68,0.02469
5849.83,0.02254
5845.97,0.02050
5842.11,0.01624
5838.25,0.01602
5834.4,0.01416
5830.54,0.02150
5826.68,0.02090
5822.82,0.02188
5818.97,0.01524
5815.11,0.02399
5811.25,0.02575
5807.39,0.01722
5803.54,0.01151
5799.68,0.01504
5795.82,0.01779
5791.96,0.02342
5788.11,0.02125
5784.25,0.02491
5780.39,0.02295
5776.53,0.02676
5772.68,0.02434
5768.82,0.01876
5764.96,0.02128
5761.11,0.02515
5757.25,0.02491
5753.39,0.02364
5749.53,0.01989
5745.68,0.02165
5741.82,0.01855
5737.96,0.01662
5734.1,0.02543
5730.25,0.02470
5726.39,0.02336
5722.53,0.02354
5718.67,0.02619
5714.82,0.02363
5710.96,0.02839
5707.1,0.02679
5703.24,0.02088
5699.39,0.01760
5695.53,0.01887
5691.67,0.01692
5687.81,0.01748
5683.96,0.01420
5680.1,0.01652
5676.24,0.01997
5672.38,0.01790
5668.53,0.02095
5664.67,0.01769
5660.81,0.01999
5656.95,0.02025
5653.1,0.01565
5649.24,0.00980
5645.38,0.01562
5641.52,0.02111
5637.67,0.02370
5633.81,0.02333
5629.95,0.02066
5626.09,0.02079
5622.24,0.02124
5618.38,0.02279
5614.52,0.02257
5610.66,0.01841
5606.81,0.01712
5602.95,0.01942
5599.09,0.02039
5595.23,0.01846
5591.38,0.02017
5587.52,0.01786
5583.66,0.01716
5579.8,0.01711
5575.95,0.01544
5572.09,0.01597
5568.23,0.01888
5564.38,0.01476
5560.52,0.01721
5556.66,0.01927
5552.8,0.02329
5548.95,0.02084
5545.09,0.02184
5541.23,0.01744
5537.37,0.01916
5533.52,0.02017
5529.66,0.02045
5525.8,0.01865
5521.94,0.01901
5518.09,0.01755
5514.23,0.01977
5510.37,0.02262
5506.51,0.02210
5502.66,0.01961
5498.8,0.01796
5494.94,0.01707
5491.08,0.01399
5487.23,0.01133
5483.37,0.01225
5479.51,0.01314
5475.65,0.01792
5471.8,0.02052
5467.94,0.02021
5464.08,0.01613
5460.22,0.01663
5456.37,0.02227
5452.51,0.02124
5448.65,0.01654
5444.79,0.01680
5440.94,0.01580
5437.08,0.01339
5433.22,0.01573
5429.36,0.01641
5425.51,0.01396
5421.65,0.01725
5417.79,0.01717
5413.93,0.01677
5410.08,0.01993
5406.22,0.01621
5402.36,0.01378
5398.5,0.01420
5394.65,0.01437
5390.79,0.01435
5386.93,0.01562
5383.07,0.01751
5379.22,0.01850
5375.36,0.01928
5371.5,0.02066
5367.65,0.01726
5363.79,0.01566
5359.93,0.01924
5356.07,0.01877
5352.22,0.01734
5348.36,0.01742
5344.5,0.01702
5340.64,0.01408
5336.79,0.01771
5332.93,0.01880
5329.07,0.01585
5325.21,0.01713
5321.36,0.01552
5317.5,0.01405
5313.64,0.01153
5309.78,0.01565
5305.93,0.01428
5302.07,0.01588
5298.21,0.01589
5294.35,0.01893
5290.5,0.01879
5286.64,0.01617
5282.78,0.01712
5278.92,0.01737
5275.07,0.01721
5271.21,0.01803
5267.35,0.01700
5263.49,0.01842
5259.64,0.01487
5255.78,0.01437
5251.92,0.01778
5248.06,0.01887
5244.21,0.01778
5240.35,0.01453
5236.49,0.01348
5232.63,0.01879
5228.78,0.02036
5224.92,0.01848
5221.06,0.01742
5217.2,0.01972
5213.35,0.01794
5209.49,0.01595
5205.63,0.01846
5201.77,0.01714
5197.92,0.01536
5194.06,0.01554
5190.2,0.01604
5186.34,0.01546
5182.49,0.01511
5178.63,0.01630
5174.77,0.01649
5170.91,0.01555
5167.06,0.01936
5163.2,0.01731
5159.34,0.01725
5155.49,0.01988
5151.63,0.02013
5147.77,0.02266
5143.91,0.01893
5140.06,0.01763
5136.2,0.01574
5132.34,0.01622
5128.48,0.01833
5124.63,0.01666
5120.77,0.01592
5116.91,0.02000
5113.05,0.01897
5109.2,0.01866
5105.34,0.02029
5101.48,0.01626
5097.62,0.01556
5093.77,0.01720
5089.91,0.01516
5086.05,0.01663
5082.19,0.01727
5078.34,0.01786
5074.48,0.01727
5070.62,0.01524
5066.76,0.01604
5062.91,0.01546
5059.05,0.01552
5055.19,0.01575
5051.33,0.01531
5047.48,0.01402
5043.62,0.01742
5039.76,0.01775
5035.9,0.01890
5032.05,0.01755
5028.19,0.01379
5024.33,0.01650
5020.47,0.01635
5016.62,0.01585
5012.76,0.01491
5008.9,0.01411
5005.04,0.01470
5001.19,0.01508
4997.33,0.01440
4993.47,0.01551
4989.61,0.01581
4985.76,0.01603
4981.9,0.01521
4978.04,0.01741
4974.18,0.01622
4970.33,0.01614
4966.47,0.01614
4962.61,0.01558
4958.76,0.01876
4954.9,0.02053
4951.04,0.01936
4947.18,0.01762
4943.33,0.01797
4939.47,0.01675
4935.61,0.01564
4931.75,0.01725
4927.9,0.01821
4924.04,0.01947
4920.18,0.01945
4916.32,0.01818
4912.47,0.01674
4908.61,0.01579
4904.75,0.01698
4900.89,0.01564
4897.04,0.01617
4893.18,0.01414
4889.32,0.01543
4885.46,0.01548
4881.61,0.01639
4877.75,0.01522
4873.89,0.01578
4870.03,0.01724
4866.18,0.01759
4862.32,0.01713
4858.46,0.01626
4854.6,0.01570
4850.75,0.01617
4846.89,0.01754
4843.03,0.01632
4839.17,0.01509
4835.32,0.01773
4831.46,0.01754
4827.6,0.01786
4823.74,0.01726
4819.89,0.01632
4816.03,0.01758
4812.17,0.01809
4808.31,0.01743
4804.46,0.01646
4800.6,0.01629
4796.74,0.01699
4792.88,0.01603
4789.03,0.01638
4785.17,0.01639
4781.31,0.01653
4777.45,0.01724
4773.6,0.01735
4769.74,0.01756
4765.88,0.01742
4762.02,0.01673
4758.17,0.01569
4754.31,0.01392
4750.45,0.01523
4746.6,0.01710
4742.74,0.01783
4738.88,0.01818
4735.02,0.01734
4731.17,0.01503
4727.31,0.01537
4723.45,0.01547
4719.59,0.01736
4715.74,0.01565
4711.88,0.01472
4708.02,0.01141
4704.16,0.01350
4700.31,0.01546
4696.45,0.01664
4692.59,0.01612
4688.73,0.01677
4684.88,0.01482
4681.02,0.01687
4677.16,0.01714
4673.3,0.01739
4669.45,0.01495
4665.59,0.01548
4661.73,0.01806
4657.87,0.01755
4654.02,0.01700
4650.16,0.01733
4646.3,0.01815
4642.44,0.01711
4638.59,0.01493
4634.73,0.01488
4630.87,0.01637
4627.01,0.01423
4623.16,0.01508
4619.3,0.01649
4615.44,0.01577
4611.58,0.01618
4607.73,0.01638
4603.87,0.01610
4600.01,0.01553
4596.15,0.01822
4592.3,0.01691
4588.44,0.01629
4584.58,0.01684
4580.72,0.01634
4576.87,0.01530
4573.01,0.01466
4569.15,0.01383
4565.29,0.01522
4561.44,0.01541
4557.58,0.01561
4553.72,0.01552
4549.87,0.01626
4546.01,0.01554
4542.15,0.01459
4538.29,0.01405
4534.44,0.01590
4530.58,0.01566
4526.72,0.01612
4522.86,0.01645
4519.01,0.01572
4515.15,0.01495
4511.29,0.01578
4507.43,0.01523
4503.58,0.01718
4499.72,0.01613
4495.86,0.01499
4492,0.01465
4488.15,0.01525
4484.29,0.01508
4480.43,0.01597
4476.57,0.01583
4472.72,0.01466
4468.86,0.01472
4465,0.01611
4461.14,0.01609
4457.29,0.01490
4453.43,0.01474
4449.57,0.01597
4445.71,0.01630
4441.86,0.01608
4438,0.01547
4434.14,0.01552
4430.28,0.01631
4426.43,0.01593
4422.57,0.01548
4418.71,0.01407
4414.85,0.01416
4411,0.01431
4407.14,0.01532
4403.28,0.01655
4399.42,0.01561
4395.57,0.01600
4391.71,0.01526
4387.85,0.01651
4383.99,0.01552
4380.14,0.01538
4376.28,0.01535
4372.42,0.01449
4368.56,0.01432
4364.71,0.01757
4360.85,0.01607
4356.99,0.01371
4353.14,0.01503
4349.28,0.01521
4345.42,0.01640
4341.56,0.01521
4337.71,0.01384
4333.85,0.01497
4329.99,0.01627
4326.13,0.01654
4322.28,0.01644
4318.42,0.01609
4314.56,0.01534
4310.7,0.01558
4306.85,0.01538
4302.99,0.01449
4299.13,0.01473
4295.27,0.01466
4291.42,0.01437
4287.56,0.01425
4283.7,0.01571
4279.84,0.01498
4275.99,0.01501
4272.13,0.01607
4268.27,0.01675
4264.41,0.01617
4260.56,0.01653
4256.7,0.01622
4252.84,0.01436
4248.98,0.01498
4245.13,0.01576
4241.27,0.01514
4237.41,0.01488
4233.55,0.01554
4229.7,0.01555
4225.84,0.01445
4221.98,0.01523
4218.12,0.01495
4214.27,0.01591
4210.41,0.01620
4206.55,0.01545
4202.69,0.01570
4198.84,0.01447
4194.98,0.01396
4191.12,0.01460
4187.26,0.01520
4183.41,0.01484
4179.55,0.01410
4175.69,0.01377
4171.83,0.01387
4167.98,0.01506
4164.12,0.01665
4160.26,0.01522
4156.4,0.01405
4152.55,0.01446
4148.69,0.01466
4144.83,0.01454
4140.98,0.01456
4137.12,0.01484
4133.26,0.01499
4129.4,0.01345
4125.55,0.01345
4121.69,0.01347
4117.83,0.01395
4113.97,0.01509
4110.12,0.01574
4106.26,0.01523
4102.4,0.01401
4098.54,0.01471
4094.69,0.01532
4090.83,0.01567
4086.97,0.01428
4083.11,0.01369
4079.26,0.01658
4075.4,0.01632
4071.54,0.01440
4067.68,0.01466
4063.83,0.01519
4059.97,0.01517
4056.11,0.01415
4052.25,0.01370
4048.4,0.01414
4044.54,0.01497
4040.68,0.01492
4036.82,0.01450
4032.97,0.01371
4029.11,0.01390
4025.25,0.01434
4021.39,0.01442
4017.54,0.01467
4013.68,0.01463
4009.82,0.01535
4005.96,0.01430
4002.11,0.01412
3998.25,0.01393
3994.39,0.01414
3990.53,0.01357
3986.68,0.01200
3982.82,0.01213
3978.96,0.01285
3975.1,0.01465
3971.25,0.01407
3967.39,0.01282
3963.53,0.01275
3959.67,0.01169
3955.82,0.01200
3951.96,0.01296
3948.1,0.01478
3944.25,0.01196
3940.39,0.00776
3936.53,0.00982
3932.67,0.01356
3928.82,0.01139
3924.96,0.01052
3921.1,0.00900
3917.24,0.00985
3913.39,0.01140
3909.53,0.00816
3905.67,0.00802
3901.81,0.00986
3897.96,0.01132
3894.1,0.00925
3890.24,0.00475
3886.38,0.00897
3882.53,0.01214
3878.67,0.00788
3874.81,0.00576
3870.95,0.00793
3867.1,0.01041
3863.24,0.00998
3859.38,0.00767
3855.52,0.00736
3851.67,0.00949
3847.81,0.01365
3843.95,0.01092
3840.09,0.00827
3836.24,0.00834
3832.38,0.01106
3828.52,0.01481
3824.66,0.01542
3820.81,0.01388
3816.95,0.01208
3813.09,0.01371
3809.23,0.01406
3805.38,0.00987
3801.52,0.01064
3797.66,0.01123
3793.8,0.01029
3789.95,0.00932
3786.09,0.00503
3782.23,0.00471
3778.37,0.00633
3774.52,0.00777
3770.66,0.00504
3766.8,0.00709
3762.94,0.00994
3759.09,0.00952
3755.23,0.01079
3751.37,0.01134
3747.51,0.00825
3743.66,0.00916
3739.8,0.01238
3735.94,0.01229
3732.09,0.01518
3728.23,0.01222
3724.37,0.00864
3720.51,0.01117
3716.66,0.01251
3712.8,0.00823
3708.94,0.00767
3705.08,0.00852
3701.23,0.01265
3697.37,0.01456
3693.51,0.01206
3689.65,0.01033
3685.8,0.00621
3681.94,0.00599
3678.08,0.01138
3674.22,0.01246
3670.37,0.01217
3666.51,0.00907
3662.65,0.00649
3658.79,0.00944
3654.94,0.00826
3651.08,0.00799
3647.22,0.00852
3643.36,0.00899
3639.51,0.01065
3635.65,0.01108
3631.79,0.01093
3627.93,0.01127
3624.08,0.01012
3620.22,0.00895
3616.36,0.01103
3612.5,0.01156
3608.65,0.01265
3604.79,0.01129
3600.93,0.00822
3597.07,0.01103
3593.22,0.01342
3589.36,0.01297
3585.5,0.01171
3581.64,0.01130
3577.79,0.01050
3573.93,0.01221
3570.07,0.01238
3566.21,0.01293
3562.36,0.01174
3558.5,0.01072
3554.64,0.01165
3550.78,0.01182
3546.93,0.01141
3543.07,0.01156
3539.21,0.01225
3535.36,0.01151
3531.5,0.01299
3527.64,0.01348
3523.78,0.01285
3519.93,0.01246
3516.07,0.01210
3512.21,0.01229
3508.35,0.01229
3504.5,0.01256
3500.64,0.01302
3496.78,0.01256
3492.92,0.01237
3489.07,0.01282
3485.21,0.01270
3481.35,0.01187
3477.49,0.01185
3473.64,0.01278
3469.78,0.01312
3465.92,0.01270
3462.06,0.01200
3458.21,0.01187
3454.35,0.01214
3450.49,0.01230
3446.63,0.01286
3442.78,0.01258
3438.92,0.01271
3435.06,0.01333
3431.2,0.01198
3427.35,0.01219
3423.49,0.01242
3419.63,0.01181
3415.77,0.01228
3411.92,0.01287
3408.06,0.01315
3404.2,0.01274
3400.34,0.01301
3396.49,0.01315
3392.63,0.01325
3388.77,0.01276
3384.91,0.01325
3381.06,0.01346
3377.2,0.01338
3373.34,0.01326
3369.48,0.01316
3365.63,0.01229
3361.77,0.01275
3357.91,0.01297
3354.05,0.01296
3350.2,0.01349
3346.34,0.01317
3342.48,0.01293
3338.63,0.01243
3334.77,0.01334
3330.91,0.01331
3327.05,0.01269
3323.2,0.01254
3319.34,0.01311
3315.48,0.01379
3311.62,0.01336
3307.77,0.01324
3303.91,0.01331
3300.05,0.01301
3296.19,0.01307
3292.34,0.01415
3288.48,0.01451
3284.62,0.01267
3280.76,0.01270
3276.91,0.01310
3273.05,0.01316
3269.19,0.01374
3265.33,0.01340
3261.48,0.01285
3257.62,0.01311
3253.76,0.01294
3249.9,0.01314
3246.05,0.01266
3242.19,0.01269
3238.33,0.01252
3234.47,0.01238
3230.62,0.01326
3226.76,0.01324
3222.9,0.01366
3219.04,0.01362
3215.19,0.01348
3211.33,0.01300
3207.47,0.01278
3203.61,0.01335
3199.76,0.01349
3195.9,0.01295
3192.04,0.01317
3188.18,0.01291
3184.33,0.01352
3180.47,0.01347
3176.61,0.01365
3172.75,0.01368
3168.9,0.01335
3165.04,0.01379
3161.18,0.01387
3157.32,0.01293
3153.47,0.01303
3149.61,0.01339
3145.75,0.01299
3141.89,0.01307
3138.04,0.01334
3134.18,0.01285
3130.32,0.01304
3126.47,0.01380
3122.61,0.01327
3118.75,0.01300
3114.89,0.01308
3111.04,0.01288
3107.18,0.01332
3103.32,0.01378
3099.46,0.01295
3095.61,0.01235
3091.75,0.01259
3087.89,0.01255
3084.03,0.01265
3080.18,0.01246
3076.32,0.01210
3072.46,0.01062
3068.6,0.00855
3064.75,0.00779
3060.89,0.00679
3057.03,0.00666
3053.17,0.00680
3049.32,0.00671
3045.46,0.00389
3041.6,0.00384
3037.74,0.00670
3033.89,0.00554
3030.03,0.00451
3026.17,0.00346
3022.31,0.00371
3018.46,0.00416
3014.6,0.00541
3010.74,0.00705
3006.88,0.00621
3003.03,0.00295
2999.17,0.00534
2995.31,0.00733
2991.45,0.00620
2987.6,0.00575
2983.74,0.00540
2979.88,0.00657
2976.02,0.00767
2972.17,0.00883
2968.31,0.00993
2964.45,0.01063
2960.59,0.01105
2956.74,0.01145
2952.88,0.01132
2949.02,0.01137
2945.16,0.01234
2941.31,0.01285
2937.45,0.01337
2933.59,0.01376
2929.74,0.01294
2925.88,0.01370
2922.02,0.01344
2918.16,0.01307
2914.31,0.01371
2910.45,0.01333
2906.59,0.01319
2902.73,0.01359
2898.88,0.01323
2895.02,0.01264
2891.16,0.01315
2887.3,0.01280
2883.45,0.01274
2879.59,0.01243
2875.73,0.01295
2871.87,0.01354
2868.02,0.01387
2864.16,0.01389
2860.3,0.01412
2856.44,0.01403
2852.59,0.01417
2848.73,0.01468
2844.87,0.01482
2841.01,0.01345
2837.16,0.01301
2833.3,0.01254
2829.44,0.01348
2825.58,0.01299
2821.73,0.01273
2817.87,0.01297
2814.01,0.01308
2810.15,0.01317
2806.3,0.01362
2802.44,0.01342
2798.58,0.01321
2794.72,0.01378
2790.87,0.01377
2787.01,0.01327
2783.15,0.01330
2779.29,0.01335
2775.44,0.01347
2771.58,0.01330
2767.72,0.01312
2763.86,0.01335
2760.01,0.01296
2756.15,0.01369
2752.29,0.01368
2748.43,0.01316
2744.58,0.01292
2740.72,0.01323
2736.86,0.01357
2733.01,0.01364
2729.15,0.01341
2725.29,0.01282
2721.43,0.01301
2717.58,0.01237
2713.72,0.01257
2709.86,0.01317
2706,0.01305
2702.15,0.01345
2698.29,0.01302
2694.43,0.01269
2690.57,0.01357
2686.72,0.01337
2682.86,0.01327
2679,0.01387
2675.14,0.01408
2671.29,0.01353
2667.43,0.01349
2663.57,0.01332
2659.71,0.01352
2655.86,0.01379
2652,0.01319
2648.14,0.01373
2644.28,0.01373
2640.43,0.01342
2636.57,0.01323
2632.71,0.01343
2628.85,0.01315
2625,0.01329
2621.14,0.01303
2617.28,0.01300
2613.42,0.01330
2609.57,0.01309
2605.71,0.01299
2601.85,0.01350
2597.99,0.01369
2594.14,0.01308
2590.28,0.01378
2586.42,0.01342
2582.56,0.01346
2578.71,0.01347
2574.85,0.01313
2570.99,0.01309
2567.13,0.01345
2563.28,0.01341
2559.42,0.01315
2555.56,0.01305
2551.7,0.01343
2547.85,0.01347
2543.99,0.01321
2540.13,0.01340
2536.27,0.01333
2532.42,0.01343
2528.56,0.01381
2524.7,0.01328
2520.85,0.01316
2516.99,0.01295
2513.13,0.01310
2509.27,0.01310
2505.42,0.01323
2501.56,0.01371
2497.7,0.01341
2493.84,0.01289
2489.99,0.01265
2486.13,0.01293
2482.27,0.01347
2478.41,0.01342
2474.56,0.01334
2470.7,0.01324
2466.84,0.01339
2462.98,0.01329
2459.13,0.01416
2455.27,0.01367
2451.41,0.01330
2447.55,0.01327
2443.7,0.01339
2439.84,0.01321
2435.98,0.01348
2432.12,0.01355
2428.27,0.01302
2424.41,0.01300
2420.55,0.01333
2416.69,0.01352
2412.84,0.01325
2408.98,0.01290
2405.12,0.01114
2401.26,0.00838
2397.41,0.00565
2393.55,0.00383
2389.69,0.00234
2385.83,0.00191
2381.98,0.00235
2378.12,0.00386
2374.26,0.00946
2370.4,0.01866
2366.55,0.01892
2362.69,0.02147
2358.83,0.02411
2354.97,0.01657
2351.12,0.00972
2347.26,0.01270
2343.4,0.02212
2339.54,0.02716
2335.69,0.02906
2331.83,0.03275
2327.97,0.03363
2324.12,0.03175
2320.26,0.02762
2316.4,0.02339
2312.54,0.02083
2308.69,0.01804
2304.83,0.01645
2300.97,0.01453
2297.11,0.01372
2293.26,0.01295
2289.4,0.01255
2285.54,0.01212
2281.68,0.01186
2277.83,0.01272
2273.97,0.01306
2270.11,0.01321
2266.25,0.01340
2262.4,0.01325
2258.54,0.01303
2254.68,0.01310
2250.82,0.01302
2246.97,0.01306
2243.11,0.01309
2239.25,0.01275
2235.39,0.01307
2231.54,0.01296
2227.68,0.01290
2223.82,0.01229
2219.96,0.01244
2216.11,0.01276
2212.25,0.01299
2208.39,0.01242
2204.53,0.01279
2200.68,0.01318
2196.82,0.01351
2192.96,0.01305
2189.1,0.01248
2185.25,0.01252
2181.39,0.01285
2177.53,0.01295
2173.67,0.01310
2169.82,0.01292
2165.96,0.01274
2162.1,0.01260
2158.24,0.01266
2154.39,0.01310
2150.53,0.01299
2146.67,0.01256
2142.81,0.01267
2138.96,0.01249
2135.1,0.01231
2131.24,0.01227
2127.38,0.01250
2123.53,0.01294
2119.67,0.01292
2115.81,0.01272
2111.96,0.01231
2108.1,0.01232
2104.24,0.01185
2100.38,0.01211
2096.53,0.01231
2092.67,0.01200
2088.81,0.01216
2084.95,0.01251
2081.1,0.01220
2077.24,0.01269
2073.38,0.01356
2069.52,0.01309
2065.67,0.01299
2061.81,0.01278
2057.95,0.01255
2054.09,0.01283
2050.24,0.01272
2046.38,0.01308
2042.52,0.01331
2038.66,0.01245
2034.81,0.01249
2030.95,0.01258
2027.09,0.01219
2023.23,0.01178
2019.38,0.01166
2015.52,0.01140
2011.66,0.01105
2007.8,0.01162
2003.95,0.01213
2000.09,0.01274
1996.23,0.01269
1992.37,0.01262
1988.52,0.01213
1984.66,0.01195
1980.8,0.01276
1976.94,0.01318
1973.09,0.01299
1969.23,0.01304
1965.37,0.01192
1961.51,0.01095
1957.66,0.01180
1953.8,0.01272
1949.94,0.01266
1946.08,0.01271
1942.23,0.01188
1938.37,0.01169
1934.51,0.01169
1930.65,0.01202
1926.8,0.01145
1922.94,0.01202
1919.08,0.01278
1915.23,0.01258
1911.37,0.01140
1907.51,0.01091
1903.65,0.01152
1899.8,0.01195
1895.94,0.01214
1892.08,0.01211
1888.22,0.00937
1884.37,0.00929
1880.51,0.01172
1876.65,0.01188
1872.79,0.01213
1868.94,0.01195
1865.08,0.01073
1861.22,0.00955
1857.36,0.01137
1853.51,0.01199
1849.65,0.01070
1845.79,0.00891
1841.93,0.01034
1838.08,0.01224
1834.22,0.01212
1830.36,0.01125
1826.5,0.01069
1822.65,0.01102
1818.79,0.00933
1814.93,0.00884
1811.07,0.00832
1807.22,0.00911
1803.36,0.01095
1799.5,0.01024
1795.64,0.00980
1791.79,0.00823
1787.93,0.00716
1784.07,0.00966
1780.21,0.00961
1776.36,0.00848
1772.5,0.00865
1768.64,0.00749
1764.78,0.00655
1760.93,0.00713
1757.07,0.00766
1753.21,0.00726
1749.35,0.00607
1745.5,0.00874
1741.64,0.01150
1737.78,0.01047
1733.92,0.00636
1730.07,0.00741
1726.21,0.01062
1722.35,0.00894
1718.5,0.00648
1714.64,0.00492
1710.78,0.00707
1706.92,0.00935
1703.07,0.00707
1699.21,0.00536
1695.35,0.00813
1691.49,0.00784
1687.64,0.00659
1683.78,0.00780
1679.92,0.00898
1676.06,0.00909
1672.21,0.00742
1668.35,0.00449
1664.49,0.00623
1660.63,0.00720
1656.78,0.01000
1652.92,0.00686
1649.06,0.00801
1645.2,0.01053
1641.35,0.00941
1637.49,0.00951
1633.63,0.00859
1629.77,0.00903
1625.92,0.01080
1622.06,0.01023
1618.2,0.01062
1614.34,0.01126
1610.49,0.01084
1606.63,0.01061
1602.77,0.01099
1598.91,0.01146
1595.06,0.01016
1591.2,0.00724
1587.34,0.00816
1583.48,0.00827
1579.63,0.00891
1575.77,0.00550
1571.91,0.00440
1568.05,0.00717
1564.2,0.00833
1560.34,0.00676
1556.48,0.00385
1552.62,0.00506
1548.77,0.00657
1544.91,0.00773
1541.05,0.00678
1537.19,0.00486
1533.34,0.00533
1529.48,0.00655
1525.62,0.00653
1521.76,0.00419
1517.91,0.00700
1514.05,0.00897
1510.19,0.00813
1506.34,0.00815
1502.48,0.00683
1498.62,0.00987
1494.76,0.01020
1490.91,0.00735
1487.05,0.00506
1483.19,0.00693
1479.33,0.00772
1475.48,0.00746
1471.62,0.00418
1467.76,0.00601
1463.9,0.00821
1460.05,0.00811
1456.19,0.00676
1452.33,0.00404
1448.47,0.00259
1444.62,0.00194
1440.76,0.00128
1436.9,0.00093
1433.04,0.00086
1429.19,0.00142
1425.33,0.00153
1421.47,0.00120
1417.61,0.00096
1413.76,0.00038
1409.9,0.00066
1406.04,0.00251
1402.18,0.00402
1398.33,0.00458
1394.47,0.00505
1390.61,0.00402
1386.75,0.00346
1382.9,0.00308
1379.04,0.00357
1375.18,0.00439
1371.32,0.00524
1367.47,0.00559
1363.61,0.00623
1359.75,0.00727
1355.89,0.00775
1352.04,0.00701
1348.18,0.00804
1344.32,0.00910
1340.46,0.00999
1336.61,0.01026
1332.75,0.00961
1328.89,0.00984
1325.03,0.01002
1321.18,0.01054
1317.32,0.01013
1313.46,0.01003
1309.61,0.01062
1305.75,0.01100
1301.89,0.01088
1298.03,0.01083
1294.18,0.01133
1290.32,0.01166
1286.46,0.01093
1282.6,0.01069
1278.75,0.01121
1274.89,0.01067
1271.03,0.01006
1267.17,0.01099
1263.32,0.01098
1259.46,0.01137
1255.6,0.01203
1251.74,0.01139
1247.89,0.01113
1244.03,0.01095
1240.17,0.01098
1236.31,0.01154
1232.46,0.01182
1228.6,0.01092
1224.74,0.01046
1220.88,0.01041
1217.03,0.01073
1213.17,0.01129
1209.31,0.01089
1205.45,0.00949
1201.6,0.00895
1197.74,0.00868
1193.88,0.00829
1190.02,0.00710
1186.17,0.00694
1182.31,0.00465
1178.45,0.00461
1174.59,0.00369
1170.74,0.00346
1166.88,0.00209
1163.02,0.00137
1159.16,0.00016
1155.31,0.00059
1151.45,0.00164
1147.59,0.00078
1143.73,0.00012
1139.88,0.00017
1136.02,0.00006
1132.16,0.00101
1128.3,0.00069
1124.45,0.00164
1120.59,0.00369
1116.73,0.00563
1112.88,0.00573
1109.02,0.00622
1105.16,0.00674
1101.3,0.00616
1097.45,0.00779
1093.59,0.00864
1089.73,0.00899
1085.87,0.00947
1082.02,0.00953
1078.16,0.01031
1074.3,0.01097
1070.44,0.01016
1066.59,0.01083
1062.73,0.01069
1058.87,0.01125
1055.01,0.01204
1051.16,0.01250
1047.3,0.01198
1043.44,0.01170
1039.58,0.01181
1035.73,0.01220
1031.87,0.01057
1028.01,0.00985
1024.15,0.01199
1020.3,0.01262
1016.44,0.01318
1012.58,0.01369
1008.72,0.01304
1004.87,0.01141
1001.01,0.01159
997.151,0.01137
993.294,0.01163
989.437,0.00929
985.579,0.00818
981.722,0.00751
977.864,0.00505
974.007,0.00319
970.149,0.00288
966.292,0.00175
962.434,0.00139
958.577,0.00162
954.719,0.00170
950.862,0.00197
947.005,0.00062
943.147,0.00069
939.29,0.00186
935.432,0.00182
931.575,0.00206
927.717,0.00356
923.86,0.00561
920.002,0.00771
916.145,0.00881
912.287,0.00787
908.43,0.00907
904.573,0.01033
900.715,0.00905
896.858,0.00743
893,0.00630
889.143,0.00621
885.285,0.00866
881.428,0.00845
877.57,0.00729
873.713,0.00622
869.856,0.00786
865.998,0.00806
862.141,0.00802
858.283,0.00700
854.426,0.00992
850.568,0.01170
846.711,0.01108
842.853,0.00976
838.996,0.01015
835.138,0.01166
831.281,0.01123
827.424,0.01188
823.566,0.01113
819.709,0.01110
815.851,0.01091
811.994,0.01048
808.136,0.00918
804.279,0.01061
800.421,0.01317
796.564,0.01084
792.706,0.01075
788.849,0.01140
784.992,0.01039
781.134,0.01030
777.277,0.01073
773.419,0.01147
769.562,0.01146
765.704,0.01002
761.847,0.00941
757.989,0.00990
754.132,0.00972
750.274,0.00955
746.417,0.00944
742.56,0.01031
738.702,0.01104
734.845,0.00985
730.987,0.00951
727.13,0.00941
723.272,0.01067
719.415,0.01139
715.557,0.01029
711.7,0.00903
707.843,0.01030
703.985,0.01163
700.128,0.01020
696.27,0.00992
692.413,0.01089
688.555,0.00965
684.698,0.00965
680.84,0.00900
676.983,0.00858
673.125,0.00779
669.268,0.01296
665.411,0.00921
661.553,0.00794
657.696,0.00970
653.838,0.01185
649.981,0.01147
646.123,0.01236
642.266,0.01226
638.408,0.01172
634.551,0.01165
630.693,0.01134
626.836,0.00841
622.979,0.00924
619.121,0.00844
615.264,0.00993
611.406,0.01344
607.549,0.01027
603.691,0.00897
599.834,0.00731
595.976,0.00499
592.119,0.00800
588.261,0.00987
584.404,0.00824
580.547,0.00859
576.689,0.00813
572.832,0.01047
568.974,0.01100
565.117,0.00534
561.259,0.00726
557.402,0.00629
553.544,0.00998
549.687,0.00985
545.83,0.00833
541.972,0.00880
538.115,0.00979
534.257,0.01356
530.4,0.01387
526.542,0.01228
522.685,0.00906
518.827,0.01149
514.97,0.01092
511.112,0.00907
507.255,0.01084
503.398,0.01039
499.54,0.00149
495.683,0.00343
491.825,0.00543
487.968,0.00561
484.11,0.00472
480.253,0.00006
476.395,0.00514
472.538,0.00539
468.68,0.00577
464.823,0.01037
460.966,0.00009
457.108,0.01087
453.251,0.01254
449.393,0.00608
445.536,0.01218
441.678,0.01728
437.821,0.00771
433.963,0.00703
430.106,0.01118
426.248,0.02151
422.391,0.01731
418.534,0.01316
414.676,0.00003
410.819,0.00171
406.961,0.03851
403.104,0.04199
399.246,0.05784