File: 01_Data/Polyester_Fabric/STA/N2/10K_min/Polyester_Fabric_STA_N2_10KData_220204_R2.csv
##Temp./Â°C,Time/min,Mass(subtr.2)/%,DSC(subtr.2)/(mW/mg),Sensit./(uV/mW)
49.404,10.01,100.691,0.00706443,1.07446
50.104,10.77021,100.778,0.04332014,1.07441
50.804,10.97035,100.73,0.06980855,1.07436
51.504,11.12185,100.797,0.09194094,1.07431
52.204,11.2502,100.7858,0.10888,1.07426
52.904,11.3651,100.775,0.12197,1.07421
53.604,11.47114,100.8271,0.13601,1.07416
54.304,11.5703,100.848,0.14642,1.0741
55.004,11.66438,100.8484,0.15516,1.07404
55.704,11.75525,100.812,0.16255,1.07399
56.404,11.84338,100.83,0.16947,1.07393
57.104,11.9292,100.811,0.17404,1.07387
57.804,12.01375,100.813,0.18213,1.07381
58.504,12.096,100.835,0.1838,1.07374
59.204,12.1775,100.834,0.18732,1.07368
59.904,12.25807,100.833,0.19251,1.07362
60.604,12.33814,100.836,0.19588,1.07355
61.304,12.417,100.838,0.19956,1.07348
62.004,12.49558,100.828,0.20042,1.07342
62.704,12.57372,100.786,0.20264,1.07335
63.404,12.65141,100.77,0.20412,1.07328
64.104,12.72819,100.769,0.20603,1.0732
64.804,12.80482,100.806,0.207,1.07313
65.504,12.88103,100.806,0.20997,1.07306
66.204,12.95748,100.806,0.21105,1.07298
66.904,13.0338,100.823,0.21251,1.07291
67.604,13.10945,100.8393,0.21584,1.07283
68.304,13.18474,100.8394,0.21523,1.07275
69.004,13.26014,100.84,0.21736,1.07267
69.704,13.33474,100.8384,0.2188,1.07259
70.404,13.40996,100.839,0.21903,1.07251
71.104,13.4848,100.8751,0.22219,1.07243
71.804,13.55921,100.872,0.22246,1.07234
72.504,13.6332,100.906,0.22313,1.07226
73.204,13.70721,100.873,0.22676,1.07217
73.904,13.7811,100.906,0.22644,1.07208
74.604,13.8547,100.906,0.22752,1.072
75.304,13.92806,100.935,0.2312,1.07191
76.004,14.00136,100.907,0.23321,1.07182
76.704,14.07441,100.873,0.2319,1.07172
77.404,14.14732,100.9077,0.23276,1.07163
78.104,14.21984,100.915,0.23411,1.07154
78.804,14.2925,100.907,0.23672,1.07144
79.504,14.3647,100.915,0.23618,1.07134
80.204,14.4367,100.91,0.23777,1.07125
80.904,14.50855,100.926,0.24158,1.07115
81.604,14.57975,100.898,0.24076,1.07105
82.304,14.65135,100.907,0.24318,1.07095
83.004,14.7229,100.913,0.24464,1.07085
83.704,14.79471,100.941,0.24567,1.07074
84.404,14.8659,100.94,0.24778,1.07064
85.104,14.9367,100.9407,0.24811,1.07053
85.804,15.0078,100.941,0.24802,1.07043
86.504,15.07855,100.974,0.2482,1.07032
87.204,15.1494,100.94,0.25052,1.07021
87.904,15.21982,100.974,0.25155,1.0701
88.604,15.2902,100.94,0.25287,1.06999
89.304,15.36,100.957,0.25068,1.06988
90.004,15.43002,100.957,0.25016,1.06976
90.704,15.50017,100.974,0.25511,1.06965
91.404,15.57042,100.974,0.25569,1.06953
92.104,15.6404,100.941,0.25737,1.06941
92.804,15.7098,100.974,0.2577,1.0693
93.504,15.7796,101.007,0.257,1.06918
94.204,15.8491,100.973,0.25724,1.06906
94.904,15.9187,100.974,0.26129,1.06894
95.604,15.9879,101.003,0.25949,1.06881
96.304,16.0571,100.974,0.26145,1.06869
97.004,16.12643,101.005,0.26203,1.06857
97.704,16.19567,101.007,0.2656,1.06844
98.404,16.26483,101.009,0.26457,1.06831
99.104,16.33369,101.007,0.26498,1.06819
99.804,16.4026,101.041,0.26914,1.06806
100.504,16.47146,101.007,0.26977,1.06793
101.204,16.54034,101.008,0.2712,1.06779
101.904,16.60918,101.007,0.27128,1.06766
102.604,16.67783,101.0408,0.27009,1.06753
103.304,16.7464,101.006,0.27038,1.06739
104.004,16.81498,101,0.27421,1.06726
104.704,16.88345,101.007,0.27344,1.06712
105.404,16.95213,101.007,0.27612,1.06698
106.104,17.02049,101.007,0.27758,1.06684
106.804,17.0888,101.055,0.27982,1.0667
107.504,17.15719,101.041,0.2808,1.06656
108.204,17.2255,101.041,0.28249,1.06642
108.904,17.29368,101.041,0.28188,1.06628
109.604,17.36197,101.007,0.28358,1.06613
110.304,17.43048,101.007,0.28681,1.06599
111.004,17.49925,101.041,0.28868,1.06584
111.704,17.56767,101.04,0.28782,1.06569
112.404,17.636,101.007,0.28784,1.06554
113.104,17.70413,101.042,0.28859,1.06539
113.804,17.7725,101.007,0.28952,1.06524
114.504,17.8407,101.0074,0.29092,1.06509
115.204,17.9091,101.007,0.29012,1.06493
115.904,17.97748,101.041,0.29313,1.06478
116.604,18.04562,101.0544,0.29463,1.06462
117.304,18.11392,101.075,0.29377,1.06447
118.004,18.1822,101.041,0.29565,1.06431
118.704,18.25054,101.024,0.29584,1.06415
119.404,18.3188,101.007,0.29865,1.06399
120.104,18.3871,101.007,0.29991,1.06383
120.804,18.4555,101.0156,0.30208,1.06367
121.504,18.52369,101.016,0.30457,1.0635
122.204,18.59186,101.016,0.30573,1.06334
122.904,18.6597,101.007,0.3099,1.06317
123.604,18.72781,101.042,0.31031,1.063
124.304,18.79583,101.024,0.31138,1.06284
125.004,18.864,101.024,0.31398,1.06267
125.704,18.93188,101.024,0.31774,1.0625
126.404,18.99975,101.033,0.31914,1.06233
127.104,19.06781,101.003,0.32051,1.06215
127.804,19.13576,100.999,0.32861,1.06198
128.504,19.20362,100.998,0.32744,1.06181
129.204,19.2713,101.007,0.33162,1.06163
129.904,19.3386,101.041,0.33499,1.06145
130.604,19.40641,101.044,0.33689,1.06128
131.304,19.47418,101.077,0.33898,1.0611
132.004,19.5421,101.041,0.34111,1.06092
132.704,19.60973,101.041,0.33888,1.06074
133.404,19.67729,101.005,0.33706,1.06056
134.104,19.74504,101.044,0.33581,1.06037
134.804,19.8128,101.044,0.32864,1.06019
135.504,19.88065,101.044,0.32385,1.06
136.204,19.94838,101.044,0.31569,1.05982
136.904,20.0162,101.0149,0.31386,1.05963
137.604,20.0838,101.01,0.30836,1.05944
138.304,20.1516,100.985,0.30607,1.05925
139.004,20.2192,101.024,0.30543,1.05906
139.704,20.28677,101.024,0.30099,1.05887
140.404,20.3541,101.024,0.29866,1.05868
141.104,20.42174,101.051,0.29927,1.05848
141.804,20.48931,101.049,0.29912,1.05829
142.504,20.55687,101.016,0.29774,1.05809
143.204,20.6243,101.036,0.29949,1.05789
143.904,20.69174,101.049,0.29784,1.05769
144.604,20.7594,101.016,0.29855,1.0575
145.304,20.82714,101.041,0.30002,1.0573
146.004,20.89471,101.041,0.3027,1.05709
146.704,20.96216,101.042,0.30292,1.05689
147.404,21.0294,101.034,0.30429,1.05669
148.104,21.0967,101.049,0.30528,1.05648
148.804,21.16392,101.068,0.30416,1.05628
149.504,21.23124,101.083,0.30629,1.05607
150.204,21.2987,101.049,0.30727,1.05586
150.904,21.3661,101.082,0.30724,1.05565
151.604,21.43365,101.101,0.30816,1.05544
152.304,21.501,101.116,0.31,1.05523
153.004,21.56837,101.083,0.30736,1.05502
153.704,21.6352,101.083,0.30966,1.05481
154.404,21.7024,101.083,0.31014,1.05459
155.104,21.76969,101.099,0.31213,1.05438
155.804,21.83746,101.091,0.31328,1.05416
156.504,21.90476,101.091,0.31503,1.05394
157.204,21.97214,101.093,0.31597,1.05373
157.904,22.03949,101.125,0.31572,1.05351
158.604,22.10686,101.116,0.31633,1.05329
159.304,22.174,101.098,0.31881,1.05306
160.004,22.24113,101.117,0.31767,1.05284
160.704,22.30808,101.117,0.32062,1.05262
161.404,22.37539,101.141,0.31931,1.05239
162.104,22.4423,101.142,0.31983,1.05217
162.804,22.50979,101.142,0.32025,1.05194
163.504,22.57692,101.142,0.32038,1.05171
164.204,22.64419,101.143,0.32278,1.05148
164.904,22.71128,101.116,0.32539,1.05125
165.604,22.77842,101.117,0.324,1.05102
166.304,22.8456,101.15,0.32342,1.05079
167.004,22.91275,101.15,0.32662,1.05056
167.704,22.97964,101.15,0.32723,1.05032
168.404,23.04648,101.126,0.32588,1.05009
169.104,23.11349,101.15,0.32766,1.04985
169.804,23.18036,101.15,0.32913,1.04961
170.504,23.24746,101.15,0.32874,1.04937
171.204,23.31409,101.152,0.32756,1.04914
171.904,23.3811,101.15,0.32879,1.04889
172.604,23.44745,101.15,0.3307,1.04865
173.304,23.5144,101.143,0.33115,1.04841
174.004,23.5813,101.125,0.33213,1.04817
174.704,23.64855,101.125,0.33323,1.04792
175.404,23.71526,101.132,0.33235,1.04768
176.104,23.78227,101.1568,0.33372,1.04743
176.804,23.84905,101.184,0.33465,1.04718
177.504,23.91589,101.1667,0.3358,1.04693
178.204,23.9829,101.15,0.33717,1.04668
178.904,24.05,101.15,0.33682,1.04643
179.604,24.11705,101.16,0.33686,1.04618
180.304,24.1841,101.183,0.33547,1.04593
181.004,24.2511,101.183,0.3359,1.04567
181.704,24.31808,101.15,0.34012,1.04542
182.404,24.38501,101.15,0.33887,1.04516
183.104,24.45188,101.184,0.33822,1.04491
183.804,24.51901,101.184,0.33903,1.04465
184.504,24.58587,101.184,0.33833,1.04439
185.204,24.65288,101.184,0.33955,1.04413
185.904,24.7199,101.217,0.33876,1.04387
186.604,24.7872,101.216,0.339,1.04361
187.304,24.85444,101.183,0.33974,1.04334
188.004,24.9212,101.183,0.34216,1.04308
188.704,24.98799,101.183,0.34369,1.04281
189.404,25.0545,101.183,0.34261,1.04255
190.104,25.12136,101.183,0.34368,1.04228
190.804,25.1883,101.158,0.34454,1.04201
191.504,25.25532,101.1558,0.34516,1.04174
192.204,25.32231,101.192,0.34689,1.04147
192.904,25.38924,101.192,0.3481,1.0412
193.604,25.45624,101.183,0.34833,1.04093
194.304,25.52307,101.184,0.34896,1.04066
195.004,25.59,101.15,0.3502,1.04038
195.704,25.65644,101.15,0.35035,1.04011
196.404,25.72338,101.15,0.35232,1.03983
197.104,25.78996,101.15,0.35142,1.03955
197.804,25.85706,101.133,0.35292,1.03928
198.504,25.92375,101.133,0.3547,1.039
199.204,25.99105,101.133,0.35533,1.03872
199.904,26.05807,101.158,0.35682,1.03843
200.604,26.12529,101.158,0.35953,1.03815
201.304,26.19214,101.142,0.35955,1.03787
202.004,26.2589,101.142,0.362,1.03758
202.704,26.32572,101.15,0.36326,1.0373
203.404,26.39252,101.15,0.36549,1.03701
204.104,26.45941,101.1573,0.36605,1.03673
204.804,26.52611,101.15,0.36882,1.03644
205.504,26.59308,101.15,0.36664,1.03615
206.204,26.66,101.15,0.36845,1.03586
206.904,26.72717,101.15,0.36896,1.03557
207.604,26.79397,101.155,0.37218,1.03528
208.304,26.86092,101.184,0.37234,1.03498
209.004,26.92762,101.184,0.37826,1.03469
209.704,26.9943,101.184,0.3754,1.03439
210.404,27.061,101.166,0.37782,1.0341
211.104,27.1277,101.167,0.37885,1.0338
211.804,27.19463,101.18,0.38247,1.0335
212.504,27.26166,101.184,0.38384,1.0332
213.204,27.32879,101.184,0.38386,1.0329
213.904,27.3956,101.184,0.38429,1.0326
214.604,27.4624,101.202,0.38881,1.0323
215.304,27.52918,101.1834,0.39233,1.032
216.004,27.59628,101.183,0.39437,1.03169
216.704,27.66307,101.183,0.3951,1.03139
217.404,27.72995,101.15,0.39791,1.03108
218.104,27.79683,101.15,0.40294,1.03077
218.804,27.86358,101.175,0.4046,1.03047
219.504,27.93058,101.209,0.4071,1.03016
220.204,27.99748,101.175,0.41116,1.02985
220.904,28.0646,101.174,0.4141,1.02954
221.604,28.1315,101.141,0.41911,1.02923
222.304,28.19855,101.141,0.41992,1.02891
223.004,28.2653,101.108,0.42609,1.0286
223.704,28.332,101.1414,0.42932,1.02829
224.404,28.3986,101.141,0.4329,1.02797
225.104,28.46523,101.075,0.43711,1.02765
225.804,28.53211,101.074,0.44149,1.02734
226.504,28.599,101.075,0.44265,1.02702
227.204,28.6661,101.108,0.44185,1.0267
227.904,28.73306,101.108,0.43913,1.02638
228.604,28.79996,101.074,0.4342,1.02606
229.304,28.8666,101.074,0.43152,1.02573
230.004,28.93308,101.074,0.42685,1.02541
230.704,28.9994,101.074,0.42498,1.02509
231.404,29.06602,101.074,0.42446,1.02476
232.104,29.13243,101.074,0.42318,1.02444
232.804,29.19898,101.074,0.42223,1.02411
233.504,29.2656,101.074,0.42368,1.02378
234.204,29.33202,101.041,0.4243,1.02345
234.904,29.39865,101.041,0.42645,1.02312
235.604,29.4653,101.048,0.42911,1.02279
236.304,29.5322,101.074,0.43044,1.02246
237.004,29.59889,101.041,0.43294,1.02213
237.704,29.6655,101.069,0.43727,1.02179
238.404,29.7317,101.073,0.4388,1.02146
239.104,29.79828,101.041,0.44286,1.02112
239.804,29.86475,101.013,0.44767,1.02079
240.504,29.93175,101.016,0.45134,1.02045
241.204,29.99863,101.015,0.45942,1.02011
241.904,30.0656,101.007,0.46386,1.01977
242.604,30.13237,100.982,0.47464,1.01943
243.304,30.19909,100.982,0.47563,1.01909
244.004,30.2659,100.982,0.4869,1.01875
244.704,30.3328,100.982,0.49656,1.01841
245.404,30.39967,100.982,0.50664,1.01806
246.104,30.46643,100.974,0.51999,1.01772
246.804,30.5333,100.973,0.53414,1.01737
247.504,30.60025,100.94,0.5508,1.01702
248.204,30.6673,100.94,0.57761,1.01668
248.904,30.73457,100.94,0.6267,1.01633
249.604,30.8018,100.9396,0.68593,1.01598
250.304,30.869,100.974,0.74716,1.01563
251.004,30.9364,100.94,0.8097,1.01528
251.704,31.00396,100.922,0.87588,1.01492
252.404,31.0717,100.923,0.94824,1.01457
253.104,31.1393,100.89,1.01749,1.01422
253.804,31.20707,100.89,1.07287,1.01386
254.504,31.27485,100.863,1.10903,1.01351
255.204,31.34255,100.892,1.11471,1.01315
255.904,31.4102,100.89,1.08338,1.01279
256.604,31.4777,100.856,1.02515,1.01243
257.304,31.54487,100.838,0.94993,1.01207
258.004,31.6118,100.8401,0.87594,1.01171
258.704,31.6787,100.814,0.80262,1.01135
259.404,31.7456,100.781,0.74124,1.01099
260.104,31.8123,100.78,0.68812,1.01063
260.804,31.87888,100.814,0.64571,1.01026
261.504,31.94541,100.814,0.6089,1.0099
262.204,32.01178,100.781,0.57875,1.00953
262.904,32.07842,100.781,0.55506,1.00917
263.604,32.14524,100.781,0.53218,1.0088
264.304,32.21222,100.781,0.51378,1.00843
265.004,32.27878,100.781,0.49917,1.00806
265.704,32.3453,100.745,0.48616,1.00769
266.404,32.41178,100.747,0.47206,1.00732
267.104,32.47847,100.739,0.466,1.00695
267.804,32.545,100.739,0.4594,1.00658
268.504,32.61185,100.772,0.45392,1.0062
269.204,32.67868,100.772,0.45004,1.00583
269.904,32.74562,100.772,0.44569,1.00545
270.604,32.81232,100.7385,0.44374,1.00508
271.304,32.879,100.73,0.44061,1.0047
272.004,32.94573,100.73,0.43919,1.00432
272.704,33.01259,100.73,0.43782,1.00394
273.404,33.0794,100.714,0.43706,1.00356
274.104,33.14624,100.697,0.43803,1.00318
274.804,33.2132,100.69,0.43835,1.0028
275.504,33.27989,100.663,0.43766,1.00242
276.204,33.34675,100.663,0.43912,1.00203
276.904,33.41352,100.656,0.43866,1.00165
277.604,33.48059,100.621,0.44002,1.00126
278.304,33.54748,100.621,0.43815,1.00088
279.004,33.61453,100.586,0.43762,1.00049
279.704,33.68153,100.621,0.43871,1.0001
280.404,33.74882,100.588,0.43815,0.99971
281.104,33.81593,100.588,0.43892,0.99932
281.804,33.88276,100.582,0.44135,0.99893
282.504,33.9493,100.554,0.44142,0.99854
283.204,34.01615,100.554,0.44437,0.99815
283.904,34.08291,100.554,0.44114,0.99776
284.604,34.15007,100.52,0.44064,0.99736
285.304,34.217,100.523,0.44119,0.99697
286.004,34.28398,100.5241,0.44233,0.99657
286.704,34.35102,100.459,0.44058,0.99618
287.404,34.41789,100.433,0.4423,0.99578
288.104,34.48495,100.425,0.44058,0.99538
288.804,34.55198,100.412,0.43898,0.99498
289.504,34.61922,100.383,0.44192,0.99458
290.204,34.68652,100.383,0.44099,0.99418
290.904,34.75363,100.3501,0.44172,0.99378
291.604,34.8206,100.35,0.44057,0.99338
292.304,34.88762,100.3162,0.44073,0.99298
293.004,34.95453,100.283,0.43957,0.99257
293.704,35.02165,100.266,0.43864,0.99217
294.404,35.08858,100.266,0.4395,0.99176
295.104,35.1556,100.268,0.44294,0.99136
295.804,35.22251,100.232,0.4402,0.99095
296.504,35.28958,100.182,0.43883,0.99054
297.204,35.35666,100.155,0.44116,0.99013
297.904,35.4238,100.148,0.44059,0.98972
298.604,35.4908,100.138,0.43818,0.98931
299.304,35.55766,100.09,0.43903,0.9889
300.004,35.62453,100.057,0.43739,0.98849
300.704,35.6915,100.056,0.43666,0.98807
301.404,35.75857,100.056,0.43493,0.98766
302.104,35.82548,100.047,0.43203,0.98725
302.804,35.8926,100.04,0.43277,0.98683
303.504,35.9595,100.0225,0.4327,0.98641
304.204,36.02689,99.98877,0.43108,0.986
304.904,36.09403,99.98878,0.42999,0.98558
305.604,36.16117,99.98878,0.42999,0.98516
306.304,36.22842,99.9885,0.42935,0.98474
307.004,36.29566,99.9563,0.42806,0.98432
307.704,36.363,99.9139,0.42698,0.9839
308.404,36.4303,99.91327,0.42904,0.98348
309.104,36.49732,99.8783,0.42913,0.98305
309.804,36.56455,99.8796,0.42933,0.98263
310.504,36.63171,99.8549,0.42963,0.9822
311.204,36.69887,99.85459,0.4294,0.98178
311.904,36.766,99.8545,0.42934,0.98135
312.604,36.83343,99.82938,0.4316,0.98093
313.304,36.90067,99.7956,0.42972,0.9805
314.004,36.96803,99.77521,0.43067,0.98007
314.704,37.0352,99.762,0.43082,0.97964
315.404,37.10242,99.72757,0.42883,0.97921
316.104,37.1697,99.71173,0.42972,0.97878
316.804,37.23695,99.71183,0.42863,0.97835
317.504,37.3041,99.67798,0.43476,0.97792
318.204,37.37153,99.64454,0.43337,0.97748
318.904,37.439,99.64464,0.43548,0.97705
319.604,37.5065,99.64464,0.43266,0.97661
320.304,37.57387,99.60851,0.43176,0.97618
321.004,37.6415,99.61097,0.43433,0.97574
321.704,37.70892,99.57681,0.4343,0.9753
322.404,37.77657,99.57731,0.43584,0.97487
323.104,37.84414,99.54369,0.4353,0.97443
323.804,37.91193,99.54388,0.4351,0.97399
324.504,37.9795,99.54388,0.43742,0.97355
325.204,38.04703,99.5106,0.43975,0.97311
325.904,38.11457,99.5102,0.44353,0.97266
326.604,38.18209,99.50787,0.44658,0.97222
327.304,38.24945,99.44311,0.44873,0.97178
328.004,38.3168,99.4438,0.44964,0.97133
328.704,38.38431,99.44309,0.45321,0.97089
329.404,38.4518,99.40971,0.45669,0.97044
330.104,38.51944,99.40947,0.45905,0.97
330.804,38.5871,99.37592,0.45965,0.96955
331.504,38.65459,99.3424,0.46201,0.9691
332.204,38.72191,99.3424,0.46753,0.96865
332.904,38.78927,99.3087,0.47266,0.9682
333.604,38.8566,99.30994,0.47243,0.96775
334.304,38.92436,99.2753,0.4756,0.9673
335.004,38.99181,99.2415,0.47759,0.96685
335.704,39.05944,99.23431,0.47955,0.9664
336.404,39.12688,99.20781,0.47962,0.96594
337.104,39.19435,99.18292,0.48122,0.96549
337.804,39.2618,99.1745,0.48009,0.96503
338.504,39.3296,99.14081,0.48308,0.96458
339.204,39.3975,99.07645,0.48122,0.96412
339.904,39.46515,99.04038,0.48162,0.96367
340.604,39.53265,99.0395,0.48148,0.96321
341.304,39.60025,98.93656,0.48192,0.96275
342.004,39.66818,98.93687,0.4804,0.96229
342.704,39.73599,98.90264,0.478,0.96183
343.404,39.80382,98.85119,0.47828,0.96137
344.104,39.8716,98.80205,0.47728,0.96091
344.804,39.93949,98.80235,0.47856,0.96044
345.504,40.00741,98.74766,0.47683,0.95998
346.204,40.0752,98.66081,0.4769,0.95952
346.904,40.1428,98.654,0.47854,0.95905
347.604,40.21047,98.62044,0.47727,0.95859
348.304,40.27839,98.55629,0.47994,0.95812
349.004,40.34645,98.49598,0.47844,0.95766
349.704,40.4144,98.45375,0.47849,0.95719
350.404,40.4824,98.4187,0.477,0.95672
351.104,40.5504,98.37737,0.4768,0.95625
351.804,40.61841,98.32991,0.47672,0.95578
352.504,40.6862,98.2744,0.47556,0.95531
353.204,40.75417,98.2424,0.47629,0.95484
353.904,40.82232,98.1772,0.4755,0.95437
354.604,40.8907,98.13897,0.47762,0.9539
355.304,40.95883,98.05184,0.4761,0.95342
356.004,41.0272,97.9991,0.47798,0.95295
356.704,41.0955,97.97452,0.47552,0.95247
357.404,41.16403,97.8934,0.47562,0.952
358.104,41.23242,97.8597,0.47675,0.95152
358.804,41.30077,97.78276,0.47596,0.95105
359.504,41.36916,97.74717,0.47412,0.95057
360.204,41.43748,97.64125,0.47493,0.95009
360.904,41.50597,97.56705,0.47632,0.94961
361.604,41.57428,97.56849,0.47479,0.94913
362.304,41.64264,97.45609,0.47283,0.94865
363.004,41.71093,97.38081,0.47295,0.94817
363.704,41.77939,97.3121,0.47476,0.94769
364.404,41.8477,97.24562,0.47647,0.94721
365.104,41.9161,97.1714,0.47573,0.94672
365.804,41.98426,97.10829,0.47336,0.94624
366.504,42.05249,97.0198,0.47413,0.94576
367.204,42.12059,96.938,0.47575,0.94527
367.904,42.18872,96.83505,0.47624,0.94478
368.604,42.25691,96.78894,0.47411,0.9443
369.304,42.32506,96.7394,0.47615,0.94381
370.004,42.39305,96.6738,0.47671,0.94332
370.704,42.46085,96.57336,0.47883,0.94283
371.404,42.5289,96.5288,0.47978,0.94235
372.104,42.59705,96.41444,0.47683,0.94186
372.804,42.66535,96.32874,0.47654,0.94136
373.504,42.73352,96.25673,0.47666,0.94087
374.204,42.8013,96.18332,0.47207,0.94038
374.904,42.86927,96.11006,0.47112,0.93989
375.604,42.93722,96.00195,0.47302,0.9394
376.304,43.00535,95.92307,0.47161,0.9389
377.004,43.0734,95.85171,0.47091,0.93841
377.704,43.14117,95.80045,0.4684,0.93791
378.404,43.20935,95.73263,0.46561,0.93742
379.104,43.2776,95.6374,0.46482,0.93692
379.804,43.34579,95.57443,0.46287,0.93642
380.504,43.4138,95.4938,0.46186,0.93592
381.204,43.48167,95.41215,0.45886,0.93543
381.904,43.5497,95.2942,0.45748,0.93493
382.604,43.61761,95.2278,0.45963,0.93443
383.304,43.68567,95.1805,0.45818,0.93393
384.004,43.75376,95.08952,0.45573,0.93342
384.704,43.82186,95.015,0.45817,0.93292
385.404,43.88989,94.93845,0.46008,0.93242
386.104,43.95767,94.77463,0.459,0.93192
386.804,44.02547,94.68421,0.46519,0.93141
387.504,44.09336,94.57344,0.46378,0.93091
388.204,44.16135,94.4787,0.46837,0.9304
388.904,44.22937,94.3857,0.47203,0.9299
389.604,44.29732,94.2563,0.4783,0.92939
390.304,44.3656,94.1354,0.48364,0.92888
391.004,44.43404,94.02458,0.48662,0.92838
391.704,44.50248,93.9005,0.4925,0.92787
392.404,44.5708,93.78312,0.49719,0.92736
393.104,44.63912,93.62291,0.49858,0.92685
393.804,44.7074,93.484,0.50407,0.92634
394.504,44.77563,93.31438,0.50791,0.92583
395.204,44.8437,93.1662,0.50888,0.92532
395.904,44.912,93.00854,0.51193,0.9248
396.604,44.98016,92.8142,0.51231,0.92429
397.304,45.04854,92.6555,0.50623,0.92378
398.004,45.11679,92.44251,0.47459,0.92326
398.704,45.18526,92.25785,0.46881,0.92275
399.404,45.2534,92.0485,0.46692,0.92223
400.104,45.32175,91.81557,0.462,0.92172
400.804,45.3898,91.581,0.46143,0.9212
401.504,45.45837,91.33025,0.46261,0.92069
402.204,45.52664,91.07414,0.45914,0.92017
402.904,45.59503,90.813,0.46641,0.91965
403.604,45.66319,90.5286,0.46404,0.91913
404.304,45.7316,90.266,0.46544,0.91861
405.004,45.8001,90.01037,0.47104,0.91809
405.704,45.86877,89.6819,0.47248,0.91757
406.404,45.93716,89.37054,0.46982,0.91705
407.104,46.00545,89.0595,0.4784,0.91653
407.804,46.07354,88.65675,0.48579,0.916
408.504,46.14177,88.33208,0.49263,0.91548
409.204,46.21017,87.95317,0.4984,0.91496
409.904,46.2787,87.52837,0.50255,0.91443
410.604,46.34718,87.11057,0.50977,0.91391
411.304,46.4157,86.64156,0.51673,0.91338
412.004,46.48421,86.15688,0.52503,0.91286
412.704,46.55267,85.6889,0.53623,0.91233
413.404,46.62086,85.22368,0.54477,0.9118
414.104,46.68945,84.67642,0.55496,0.91127
414.804,46.75801,84.12014,0.56395,0.91074
415.504,46.82679,83.54195,0.57402,0.91022
416.204,46.8951,82.93469,0.58834,0.90969
416.904,46.96342,82.2979,0.59953,0.90916
417.604,47.03203,81.6728,0.61177,0.90863
418.304,47.10072,81.00623,0.62896,0.90809
419.004,47.16952,80.2842,0.64189,0.90756
419.704,47.238,79.55284,0.65261,0.90703
420.404,47.30655,78.81184,0.66901,0.9065
421.104,47.3749,78.02289,0.68046,0.90596
421.804,47.44327,77.22598,0.68482,0.90543
422.504,47.51167,76.42826,0.69073,0.90489
423.204,47.58012,75.56276,0.70116,0.90436
423.904,47.6487,74.68592,0.71098,0.90382
424.604,47.71734,73.8517,0.72185,0.90328
425.304,47.78593,72.88746,0.73563,0.90275
426.004,47.85445,71.97555,0.73743,0.90221
426.704,47.92283,70.96777,0.74226,0.90167
427.404,47.9912,69.99978,0.74223,0.90113
428.104,48.05961,69.0179,0.74599,0.90059
428.804,48.12794,67.9996,0.74738,0.90005
429.504,48.19625,66.97073,0.75061,0.89951
430.204,48.26457,65.94703,0.75779,0.89897
430.904,48.33295,64.87136,0.75853,0.89843
431.604,48.40155,63.83752,0.76323,0.89789
432.304,48.4699,62.78409,0.76146,0.89735
433.004,48.5379,61.7021,0.76511,0.8968
433.704,48.60633,60.56991,0.76521,0.89626
434.404,48.6748,59.4461,0.76811,0.89571
435.104,48.7436,58.31873,0.76394,0.89517
435.804,48.81211,57.1164,0.76195,0.89462
436.504,48.88073,56.0303,0.75809,0.89408
437.204,48.94934,54.86345,0.75406,0.89353
437.904,49.01791,53.6828,0.74698,0.89298
438.604,49.08657,52.49337,0.73971,0.89244
439.304,49.15464,51.35953,0.73264,0.89189
440.004,49.223,50.1399,0.72179,0.89134
440.704,49.29149,48.90645,0.70978,0.89079
441.404,49.36047,47.74876,0.69644,0.89024
442.104,49.42928,46.5401,0.68331,0.88969
442.804,49.49796,45.3644,0.66554,0.88914
443.504,49.56657,44.18632,0.65185,0.88859
444.204,49.63505,43.05809,0.63328,0.88804
444.904,49.70357,41.9758,0.61637,0.88748
445.604,49.77215,40.921,0.59593,0.88693
446.304,49.8405,39.99281,0.57509,0.88638
447.004,49.90891,39.06544,0.55945,0.88582
447.704,49.97745,38.1931,0.53762,0.88527
448.404,50.04612,37.3709,0.51604,0.88471
449.104,50.11473,36.597,0.49823,0.88416
449.804,50.1832,35.888,0.4773,0.8836
450.504,50.25169,35.1804,0.45374,0.88305
451.204,50.32005,34.59082,0.43932,0.88249
451.904,50.3885,34.02213,0.42144,0.88193
452.604,50.45691,33.48017,0.40324,0.88137
453.304,50.5252,32.97191,0.38573,0.88082
454.004,50.59352,32.5107,0.37472,0.88026
454.704,50.66174,32.0843,0.36137,0.8797
455.404,50.73018,31.6495,0.3513,0.87914
456.104,50.79867,31.26025,0.33871,0.87858
456.804,50.86716,30.92235,0.33078,0.87802
457.504,50.93555,30.55005,0.32072,0.87745
458.204,51.00385,30.19857,0.30858,0.87689
458.904,51.0723,29.8744,0.29898,0.87633
459.604,51.14094,29.5934,0.29014,0.87577
460.304,51.20985,29.2445,0.28133,0.8752
461.004,51.27861,28.9947,0.26532,0.87464
461.704,51.34742,28.75739,0.25469,0.87407
462.404,51.41605,28.50217,0.24375,0.87351
463.104,51.485,28.21146,0.23591,0.87294
463.804,51.55415,27.9889,0.22349,0.87238
464.504,51.62322,27.7471,0.21039,0.87181
465.204,51.69207,27.52689,0.20224,0.87125
465.904,51.76099,27.2874,0.19384,0.87068
466.604,51.82954,27.04291,0.18336,0.87011
467.304,51.89884,26.8334,0.17416,0.86954
468.004,51.96798,26.6518,0.16386,0.86897
468.704,52.03767,26.5263,0.15362,0.8684
469.404,52.1066,26.36393,0.14278,0.86783
470.104,52.17595,26.22274,0.13385,0.86726
470.804,52.24527,26.06362,0.126,0.86669
471.504,52.3151,25.91166,0.11775,0.86612
472.204,52.38456,25.82186,0.11108,0.86555
472.904,52.45395,25.69969,0.10362,0.86498
473.604,52.52349,25.5747,0.09554486,0.86441
474.304,52.593,25.47271,0.09015603,0.86383
475.004,52.6625,25.35211,0.0870036,0.86326
475.704,52.73183,25.21728,0.08753172,0.86269
476.404,52.80098,25.12499,0.09353755,0.86211
477.104,52.87002,25.0693,0.10143,0.86154
477.804,52.93883,24.9669,0.11806,0.86096
478.504,53.00761,24.89781,0.13246,0.86039
479.204,53.0765,24.8597,0.1461,0.85981
479.904,53.14546,24.82355,0.15332,0.85924
480.604,53.21453,24.75659,0.15908,0.85866
481.304,53.2836,24.65823,0.1606,0.85808
482.004,53.3527,24.62706,0.1608,0.8575
482.704,53.4218,24.58053,0.16257,0.85692
483.404,53.49097,24.518,0.15879,0.85635
484.104,53.5601,24.4479,0.16013,0.85577
484.804,53.62934,24.3755,0.1595,0.85519
485.504,53.69848,24.34179,0.15595,0.85461
486.204,53.7676,24.30835,0.15473,0.85403
486.904,53.83664,24.2744,0.15354,0.85345
487.604,53.9057,24.24101,0.15074,0.85287
488.304,53.9749,24.20747,0.14872,0.85228
489.004,54.044,24.19237,0.14338,0.8517
489.704,54.1131,24.13567,0.13953,0.85112
490.404,54.1824,24.07099,0.13169,0.85054
491.104,54.2517,24.07047,0.12973,0.84995
491.804,54.32104,24.03666,0.12284,0.84937
492.504,54.39036,24.0031,0.11618,0.84878
493.204,54.45966,23.96961,0.11376,0.8482
493.904,54.52895,24.003,0.10621,0.84762
494.604,54.5983,23.92998,0.10248,0.84703
495.304,54.66763,23.86638,0.09443765,0.84644
496.004,54.7371,23.86608,0.08908761,0.84586
496.704,54.8064,23.83227,0.09670384,0.84527
497.404,54.8758,23.83204,0.09763252,0.84468
498.104,54.94497,23.8032,0.08835312,0.8441
498.804,55.0143,23.77242,0.08264723,0.84351
499.504,55.08328,23.77297,0.08055028,0.84292
500.204,55.15246,23.74006,0.07518892,0.84233
500.904,55.2218,23.70563,0.07177338,0.84174
501.604,55.29127,23.67336,0.0649545,0.84115
502.304,55.3608,23.67296,0.06284858,0.84056
503.004,55.4301,23.67296,0.06092846,0.83997
503.704,55.4997,23.6398,0.0358776,0.83938
504.404,55.5691,23.65604,0.04597281,0.83879
505.104,55.63851,23.6227,0.05345837,0.8382
505.804,55.7077,23.62271,0.05570865,0.83761
506.504,55.7771,23.6049,0.05440822,0.83702
507.204,55.84638,23.58904,0.0535336,0.83642
507.904,55.9156,23.5545,0.04990566,0.83583
508.604,55.9851,23.5556,0.04754476,0.83524
509.304,56.05438,23.53107,0.04384131,0.83464
510.004,56.12379,23.53036,0.04685827,0.83405
510.704,56.1929,23.5271,0.04450863,0.83345
511.404,56.2622,23.47541,0.04403873,0.83286
512.104,56.33185,23.4633,0.04454158,0.83226
512.804,56.40124,23.44378,0.04291437,0.83167
513.504,56.47068,23.42959,0.0433993,0.83107
514.204,56.53986,23.40447,0.04075063,0.83048
514.904,56.60926,23.37066,0.04190866,0.82988
515.604,56.6784,23.4043,0.03812716,0.82928
516.304,56.7478,23.39548,0.040539,0.82869
517.004,56.8173,23.36252,0.04096409,0.82809
517.704,56.8869,23.3522,0.0348821,0.82749
518.404,56.95624,23.32882,0.03571182,0.82689
519.104,57.0257,23.29596,0.03680131,0.82629
519.804,57.0952,23.29541,0.03700797,0.82569
520.504,57.16479,23.29541,0.03420011,0.82509
521.204,57.23418,23.29541,0.03261124,0.82449
521.904,57.30356,23.29541,0.03251145,0.82389
522.604,57.37294,23.29606,0.03050209,0.82329
523.304,57.44231,23.32882,0.03073454,0.82269
524.004,57.51191,23.32886,0.0318572,0.82209
524.704,57.5813,23.29509,0.03162321,0.82149
525.404,57.6509,23.22716,0.03264292,0.82089
526.104,57.7204,23.2373,0.03039446,0.82028
526.804,57.7898,23.27867,0.03418494,0.81968
527.504,57.85949,23.26148,0.03324991,0.81908
528.204,57.92901,23.22804,0.03065476,0.81847
528.904,57.9985,23.1946,0.03087603,0.81787
529.604,58.0678,23.19416,0.0331795,0.81727
530.304,58.1372,23.19439,0.03358944,0.81666
531.004,58.20689,23.19439,0.03256885,0.81606
531.704,58.2766,23.19439,0.03250761,0.81545
532.404,58.34626,23.19439,0.03303699,0.81485
533.104,58.4159,23.19439,0.03183986,0.81424
533.804,58.48555,23.19434,0.0325906,0.81364
534.504,58.55534,23.161,0.03196869,0.81303
535.204,58.62514,23.1338,0.03255199,0.81242
535.904,58.69477,23.12714,0.03308029,0.81182
536.604,58.76439,23.16098,0.03525738,0.81121
537.304,58.8341,23.1611,0.03341224,0.8106
538.004,58.9039,23.10183,0.03632272,0.80999
538.704,58.97367,23.10204,0.03747439,0.80938
539.404,59.0434,23.10204,0.03776079,0.80878
540.104,59.11329,23.10204,0.03823292,0.80817
540.804,59.18285,23.10228,0.03606101,0.80756
541.504,59.2529,23.09382,0.0396897,0.80695
542.204,59.3226,23.09098,0.04015416,0.80634
542.904,59.39294,23.0602,0.04095597,0.80573
543.604,59.4627,23.03337,0.04057673,0.80512
544.304,59.5326,23.0266,0.04305072,0.80451
545.004,59.60233,23.00157,0.04817961,0.8039
545.704,59.67194,23.00153,0.04352271,0.80328
546.404,59.7417,22.99329,0.04376448,0.80267
547.104,59.8117,22.97229,0.04717332,0.80206
547.804,59.8818,22.96786,0.04708243,0.80145
548.504,59.95188,22.96706,0.04620046,0.80084
549.204,60.02151,22.96786,0.04746617,0.80022
549.904,60.09165,22.96786,0.05120677,0.79961
550.604,60.16155,22.96786,0.04842661,0.799
551.304,60.2316,22.96789,0.05125048,0.79838
552.004,60.30131,22.95913,0.05242835,0.79777
552.704,60.3711,22.95947,0.05415935,0.79716
553.404,60.44105,22.92601,0.05565698,0.79654
554.104,60.51093,22.89234,0.05584521,0.79593
554.804,60.581,22.89235,0.05799047,0.79531
555.504,60.6508,22.89235,0.06160356,0.7947
556.204,60.72064,22.91701,0.06079343,0.79408
556.904,60.79025,22.90063,0.06457852,0.79346
557.604,60.86003,22.89235,0.06358866,0.79285
558.304,60.9297,22.89236,0.0666135,0.79223
559.004,60.9996,22.8671,0.06937714,0.79161
559.704,61.06941,22.85866,0.06877625,0.791
560.404,61.13941,22.84187,0.06824857,0.79038
561.104,61.2094,22.851,0.07048945,0.78976
561.804,61.27936,22.82536,0.07211573,0.78914
562.504,61.349,22.82526,0.07327204,0.78853
563.204,61.41867,22.82526,0.07543233,0.78791
563.904,61.4884,22.82525,0.07658992,0.78729
564.604,61.55837,22.79725,0.07757247,0.78667
565.304,61.62836,22.79117,0.07887393,0.78605
566.004,61.6982,22.7926,0.08234925,0.78543
566.704,61.7681,22.7244,0.0827301,0.78481
567.404,61.83791,22.75396,0.08568637,0.78419
568.104,61.9077,22.7579,0.08748979,0.78357
568.804,61.9774,22.70721,0.08599729,0.78295
569.504,62.04719,22.67351,0.08947398,0.78233
570.204,62.117,22.67424,0.08889719,0.78171
570.904,62.18665,22.67419,0.08792833,0.78109
571.604,62.2566,22.64059,0.0899884,0.78047
572.304,62.32674,22.6419,0.08654078,0.77985
573.004,62.3971,22.632,0.0857169,0.77922
573.704,62.46683,22.63189,0.08738322,0.7786
574.404,62.53651,22.61308,0.08418235,0.77798
575.104,62.6063,22.56488,0.08461974,0.77736
575.804,62.6763,22.54805,0.08471002,0.77673
576.504,62.7464,22.53138,0.08151507,0.77611
577.204,62.81651,22.5277,0.08392862,0.77549
577.904,62.8866,22.51454,0.08109193,0.77486
578.604,62.9565,22.51449,0.08271986,0.77424
579.304,63.0264,22.48091,0.0784274,0.77362
580.004,63.0962,22.43844,0.07713976,0.77299
580.704,63.1663,22.4304,0.075674,0.77237
581.404,63.2362,22.4532,0.07963302,0.77174
582.104,63.3065,22.4472,0.07633383,0.77112
582.804,63.37659,22.41287,0.07749354,0.77049
583.504,63.4468,22.41313,0.08035781,0.76987
584.204,63.517,22.38058,0.07681256,0.76924
584.904,63.5875,22.41489,0.07688778,0.76862
585.604,63.6579,22.3801,0.08042083,0.76799
586.304,63.72824,22.3801,0.07634789,0.76736
587.004,63.7984,22.34639,0.07286338,0.76674
587.704,63.86865,22.31302,0.07462965,0.76611
588.404,63.9385,22.31297,0.07143906,0.76548
589.104,64.00829,22.34692,0.07056359,0.76486
589.804,64.07853,22.34669,0.07283829,0.76423
590.504,64.14921,22.34676,0.07445248,0.7636
591.204,64.21989,22.313,0.07091893,0.76298
591.904,64.29024,22.313,0.07177316,0.76235
592.604,64.36041,22.313,0.071392,0.76172
593.304,64.43094,22.27845,0.07149461,0.76109
594.004,64.50104,22.27959,0.07258672,0.76046
594.704,64.57138,22.27964,0.07318743,0.75983
595.404,64.64164,22.27228,0.06858763,0.7592
596.104,64.71191,22.2712,0.06825169,0.75858
596.804,64.7822,22.27226,0.0683749,0.75795
597.504,64.8523,22.2375,0.07094866,0.75732
598.204,64.92257,22.2375,0.06947401,0.75669
598.904,64.99262,22.2375,0.06979794,0.75606
599.604,65.06268,22.23166,0.06568818,0.75543
600.304,65.1328,22.21249,0.06349378,0.7548
601.004,65.20276,22.20402,0.0634259,0.75417
601.704,65.2727,22.20405,0.06325138,0.75354
602.404,65.34251,22.18731,0.06393599,0.75291
603.104,65.41264,22.20114,0.06309891,0.75228
603.804,65.4828,22.1786,0.06423413,0.75164
604.504,65.5532,22.17857,0.06158079,0.75101
605.204,65.62344,22.17945,0.06440699,0.75038
605.904,65.69374,22.145,0.0625394,0.74975
606.604,65.76388,22.17858,0.0618989,0.74912
607.304,65.83404,22.17961,0.05801696,0.74849
608.004,65.90424,22.14515,0.06023105,0.74785
608.704,65.97455,22.14485,0.05803986,0.74722
609.404,66.04475,22.1115,0.05659396,0.74659
610.104,66.11501,22.11148,0.06143162,0.74596
610.804,66.18515,22.11148,0.05781891,0.74532
611.504,66.25538,22.11148,0.05656723,0.74469
612.204,66.3254,22.11143,0.05594943,0.74406
612.904,66.3955,22.0781,0.0570366,0.74342
613.604,66.46556,22.07634,0.055966,0.74279
614.304,66.53566,22.07808,0.05669979,0.74216
615.004,66.6059,22.04424,0.05814231,0.74152
615.704,66.67626,22.07905,0.05335787,0.74089
616.404,66.74654,22.07806,0.05221037,0.74026
617.104,66.8167,22.07803,0.05442647,0.73962
617.804,66.88693,22.0611,0.05212065,0.73899
618.504,66.95725,22.0612,0.05238521,0.73835
619.204,67.02757,22.0612,0.05300871,0.73772
619.904,67.09775,22.0612,0.05372385,0.73708
620.604,67.16807,22.03141,0.05241268,0.73645
621.304,67.23839,22.02777,0.05231374,0.73581
622.004,67.30872,21.9941,0.05104545,0.73518
622.704,67.379,21.99413,0.04729936,0.73454
623.404,67.44946,21.99394,0.05180603,0.73391
624.104,67.51974,22.01097,0.04857927,0.73327
624.804,67.58989,21.97727,0.05231095,0.73264
625.504,67.65981,21.91891,0.05208749,0.732
626.204,67.73008,21.90168,0.05270947,0.73136
626.904,67.8004,21.91836,0.05140902,0.73073
627.604,67.8709,21.91837,0.05205299,0.73009
628.304,67.94125,21.91837,0.04954538,0.72946
629.004,68.0119,21.91836,0.04846326,0.72882
629.704,68.0827,21.88501,0.05018979,0.72818
630.404,68.1534,21.85292,0.05164645,0.72755
631.104,68.22371,21.8431,0.05199656,0.72691
631.804,68.29395,21.84311,0.0503175,0.72627
632.504,68.36424,21.83793,0.05049415,0.72563
633.204,68.4346,21.8176,0.0507778,0.725
633.904,68.50501,21.8176,0.04602407,0.72436
634.604,68.5753,21.7902,0.04639954,0.72372
635.304,68.64575,21.8179,0.04679413,0.72308
636.004,68.716,21.81786,0.05111716,0.72245
636.704,68.78631,21.81786,0.04759696,0.72181
637.404,68.85648,21.7824,0.04743979,0.72117
638.104,68.9267,21.78418,0.0466483,0.72053
638.804,68.9969,21.7851,0.04412018,0.71989
639.504,69.06707,21.75269,0.0458921,0.71926
640.204,69.13725,21.7528,0.04610942,0.71862
640.904,69.20729,21.71709,0.04613012,0.71798
641.604,69.27717,21.75217,0.04573352,0.71734
642.304,69.34767,21.7508,0.04566738,0.7167
643.004,69.41815,21.7508,0.04393418,0.71606
643.704,69.48904,21.75194,0.04268821,0.71542
644.404,69.55923,21.71709,0.04167473,0.71479
645.104,69.6296,21.71709,0.03873872,0.71415
645.804,69.69974,21.717,0.04154974,0.71351
646.504,69.77,21.68368,0.03986123,0.71287
647.204,69.84003,21.68371,0.0401752,0.71223
647.904,69.91022,21.70029,0.04018468,0.71159
648.604,69.98048,21.70026,0.03709491,0.71095
649.304,70.05091,21.68378,0.03787429,0.71031
650.004,70.12133,21.6811,0.04210339,0.70967
650.704,70.19166,21.6497,0.03948137,0.70903
651.404,70.26213,21.6497,0.03534778,0.70839
652.104,70.33265,21.6497,0.03712085,0.70775
652.804,70.40329,21.6514,0.03498633,0.70711
653.504,70.47383,21.58289,0.03477486,0.70647
654.204,70.54451,21.58049,0.03501719,0.70583
654.904,70.61537,21.61853,0.03779829,0.70519
655.604,70.68605,21.617,0.03552794,0.70455
656.304,70.7566,21.59974,0.03427233,0.70391
657.004,70.827,21.5998,0.03378598,0.70327
657.704,70.8977,21.566,0.03090378,0.70263
658.404,70.9682,21.566,0.03394816,0.70199
659.104,71.0389,21.5996,0.02841382,0.70135
659.804,71.10956,21.56607,0.03198508,0.70071
660.504,71.18033,21.56607,0.02973081,0.70007
661.204,71.25085,21.56607,0.02769397,0.69942
661.904,71.32137,21.56607,0.0271567,0.69878
662.604,71.3918,21.5666,0.02803832,0.69814
663.304,71.4623,21.54082,0.0306251,0.6975
664.004,71.53282,21.54082,0.02796836,0.69686
664.704,71.60342,21.5315,0.02998434,0.69622
665.404,71.674,21.5324,0.03145051,0.69558
666.104,71.74462,21.5654,0.02910721,0.69494
666.804,71.81528,21.53244,0.02825332,0.6943
667.504,71.88599,21.5325,0.0305316,0.69365
668.204,71.95665,21.50712,0.02982651,0.69301
668.904,72.02734,21.50714,0.02447284,0.69237
669.604,72.09791,21.50714,0.02740966,0.69173
670.304,72.1687,21.50714,0.02592275,0.69109
671.004,72.23912,21.53215,0.02423598,0.69045
671.704,72.3097,21.52384,0.02659789,0.6898
672.404,72.38006,21.49897,0.0251148,0.68916
673.104,72.45075,21.49898,0.02323792,0.68852
673.804,72.5213,21.50021,0.02142297,0.68788
674.504,72.59212,21.53246,0.02395277,0.68724
675.204,72.66292,21.4905,0.0276418,0.6866
675.904,72.7337,21.4906,0.02852624,0.68595
676.604,72.80417,21.4906,0.02919128,0.68531
677.304,72.87487,21.5242,0.03058353,0.68467
678.004,72.9458,21.5578,0.02622031,0.68403
678.704,73.01679,21.52265,0.0231634,0.68339
679.404,73.0876,21.52423,0.02727677,0.68274
680.104,73.15847,21.52421,0.02431283,0.6821
680.804,73.2296,21.49899,0.02647227,0.68146
681.504,73.30069,21.49898,0.02357103,0.68082
682.204,73.3719,21.49898,0.02524228,0.68017
682.904,73.44279,21.49898,0.02315264,0.67953
683.604,73.51366,21.49898,0.02290961,0.67889
684.304,73.58439,21.49898,0.02519779,0.67825
685.004,73.65584,21.517,0.02414098,0.67761
685.704,73.72711,21.50714,0.02341032,0.67696
686.404,73.79853,21.5159,0.02424633,0.67632
687.104,73.8695,21.45729,0.01960106,0.67568
687.804,73.9405,21.4569,0.01965823,0.67504
688.504,74.0112,21.4569,0.01845898,0.67439
689.204,74.0821,21.4306,0.01600051,0.67375
689.904,74.15313,21.46549,0.01391784,0.67311
690.604,74.2242,21.4653,0.01851882,0.67247
691.304,74.2949,21.46536,0.01597401,0.67182
692.004,74.36539,21.44945,0.01950236,0.67118
692.704,74.4361,21.42322,0.01996976,0.67054
693.404,74.50694,21.42322,0.01815977,0.6699
694.104,74.57802,21.42322,0.08423485,0.66925
694.804,74.64888,21.42322,0.02827933,0.66861
695.504,74.7196,21.42326,-0.001906862,0.66797
696.204,74.79038,21.42351,-0.01825026,0.66733
696.904,74.86117,21.4235,-0.01893628,0.66669
697.604,74.93209,21.4234,-0.01973785,0.66604
698.304,75.00275,21.4484,-0.02362828,0.6654
699.004,75.0733,21.41799,-0.02140556,0.66476
699.704,75.14378,21.41411,-0.02126675,0.66412
700.404,75.21422,21.42321,-0.0233884,0.66347
701.104,75.28483,21.42486,-0.02461402,0.66283
701.804,75.35557,21.40664,-0.02256074,0.66219
702.504,75.42627,21.40665,-0.02504421,0.66155
703.204,75.4969,21.37285,-0.02473228,0.6609
703.904,75.56738,21.36161,-0.02341514,0.66026
704.604,75.6379,21.37395,-0.0282379,0.65962
705.304,75.70859,21.3409,-0.02589365,0.65898
706.004,75.77916,21.37221,-0.02869692,0.65833
706.704,75.84979,21.37296,-0.03248654,0.65769
707.404,75.92027,21.37296,-0.03020819,0.65705
708.104,75.99077,21.3561,-0.03601926,0.65641
708.804,76.06101,21.33928,-0.03355244,0.65577
709.504,76.13128,21.33897,-0.03351305,0.65512
710.204,76.2017,21.37296,-0.03815319,0.65448
710.904,76.2722,21.37302,-0.03983365,0.65384
711.604,76.34272,21.33762,-0.03837262,0.6532
712.304,76.41328,21.33928,-0.03699423,0.65255
713.004,76.48375,21.3743,-0.03739392,0.65191
713.704,76.5543,21.37296,-0.03847163,0.65127
714.404,76.62495,21.37296,-0.04178857,0.65063
715.104,76.6958,21.37296,-0.04154292,0.64999
715.804,76.7667,21.373,-0.04317333,0.64934
716.504,76.83771,21.3392,-0.04355482,0.6487
717.204,76.9085,21.37301,-0.04658083,0.64806
717.904,76.97915,21.3389,-0.04621026,0.64742
718.604,77.04985,21.37274,-0.048501,0.64678
719.304,77.12075,21.33878,-0.04878544,0.64614
720.004,77.19159,21.35951,-0.04946688,0.64549
720.704,77.26245,21.3738,-0.05012326,0.64485
721.404,77.33328,21.32307,-0.04856325,0.64421
722.104,77.40425,21.30635,-0.04719042,0.64357
722.804,77.47511,21.3311,-0.05101152,0.64293
723.504,77.54584,21.3311,-0.05251039,0.64229
724.204,77.61667,21.3311,-0.05390553,0.64165
724.904,77.6876,21.29736,-0.05453191,0.641
725.604,77.7582,21.2973,-0.05994555,0.64036
726.304,77.82901,21.3311,-0.06016058,0.63972
727.004,77.90003,21.3311,-0.06273641,0.63908
727.704,77.9716,21.3065,-0.05891835,0.63844
728.404,78.04281,21.30586,-0.06029971,0.6378
729.104,78.1138,21.34062,-0.06192421,0.63716
729.804,78.18459,21.33849,-0.06434437,0.63652
730.504,78.2553,21.3477,-0.06489617,0.63588
731.204,78.32599,21.34771,-0.06408411,0.63523
731.904,78.39633,21.322,-0.0644645,0.63459
732.604,78.46693,21.35214,-0.06785624,0.63395
733.304,78.53739,21.36161,-0.0645436,0.63331
734.004,78.6082,21.33929,-0.0701495,0.63267
734.704,78.67902,21.338,-0.06654178,0.63203
735.404,78.74986,21.37298,-0.06816512,0.63139
736.104,78.8208,21.37296,-0.06871508,0.63075
736.804,78.89158,21.37296,-0.06704132,0.63011
737.504,78.9622,21.37296,-0.07195373,0.62947
738.204,79.0329,21.34841,-0.0707715,0.62883
738.904,79.1035,21.34771,-0.07227254,0.62819
739.604,79.17437,21.34771,-0.07519854,0.62755
740.304,79.24515,21.34771,-0.07685628,0.62691
741.004,79.31631,21.3477,-0.07726404,0.62627
741.704,79.38726,21.35605,-0.07690047,0.62563
742.404,79.45841,21.34771,-0.07637477,0.62499
743.104,79.52915,21.34655,-0.07808695,0.62435
743.804,79.6002,21.3727,-0.08274164,0.62371
744.504,79.67104,21.35523,-0.08191796,0.62307
745.204,79.7423,21.33771,-0.08351778,0.62243
745.904,79.81345,21.37314,-0.08017444,0.62179
746.604,79.88459,21.367,-0.08302168,0.62115
747.304,79.95538,21.30545,-0.08477521,0.62052
748.004,80.02631,21.2773,-0.08238902,0.61988
748.704,80.0972,21.30586,-0.08934169,0.61924
749.404,80.16815,21.3059,-0.08948212,0.6186
750.104,80.23898,21.3293,-0.09295005,0.61796
750.804,80.31004,21.29745,-0.0917507,0.61732
751.504,80.38077,21.26378,-0.0900026,0.61668
752.204,80.45175,21.26416,-0.09278303,0.61604
752.904,80.52265,21.26378,-0.09043777,0.61541
753.604,80.5939,21.26377,-0.09405284,0.61477
754.304,80.6647,21.2801,-0.09440178,0.61413
755.004,80.73574,21.25536,-0.09757263,0.61349
755.704,80.8066,21.25536,-0.09810337,0.61285
756.404,80.8778,21.25506,-0.09919837,0.61222
757.104,80.94821,21.22169,-0.10187,0.61158
757.804,81.01901,21.22255,-0.10607,0.61094
758.504,81.08951,21.188,-0.10272,0.6103
759.204,81.16081,21.188,-0.10469,0.60967
759.904,81.23164,21.19642,-0.10172,0.60903
760.604,81.30274,21.22628,-0.10727,0.60839
761.304,81.37343,21.19511,-0.11017,0.60775
762.004,81.4445,21.16304,-0.11028,0.60712
762.704,81.5154,21.16292,-0.11095,0.60648
763.404,81.58645,21.19383,-0.11307,0.60584
764.104,81.65722,21.16301,-0.11523,0.60521
764.804,81.7281,21.16301,-0.11524,0.60457
765.504,81.79875,21.16301,-0.11467,0.60393
766.204,81.86941,21.16301,-0.1152,0.6033
766.904,81.94019,21.16301,-0.11716,0.60266
767.604,82.0112,21.18777,-0.1184,0.60203
768.304,82.08232,21.1549,-0.12253,0.60139
769.004,82.15348,21.15485,-0.1238,0.60075
769.704,82.2248,21.15485,-0.12499,0.60012
770.404,82.29606,21.15469,-0.12586,0.59948
771.104,82.36721,21.1883,-0.12562,0.59885
771.804,82.43818,21.18826,-0.12334,0.59821
772.504,82.50914,21.18826,-0.12624,0.59758
773.204,82.58012,21.19669,-0.12747,0.59694
773.904,82.6512,21.23046,-0.12562,0.59631
774.604,82.72224,21.26321,-0.13062,0.59567
775.304,82.7932,21.26376,-0.12893,0.59504
776.004,82.86395,21.2976,-0.12798,0.5944
776.704,82.9349,21.3242,-0.12708,0.59377
777.404,83.00588,21.3311,-0.12657,0.59313
778.104,83.07653,21.33115,-0.126,0.5925
778.804,83.1475,21.36437,-0.12167,0.59187
779.504,83.21835,21.3645,-0.12454,0.59123
780.204,83.2898,21.39819,-0.12781,0.5906
780.904,83.3609,21.39821,-0.12642,0.58996
781.604,83.43207,21.3644,-0.12193,0.58933
782.304,83.50323,21.33069,-0.12263,0.5887
783.004,83.57436,21.33086,-0.12522,0.58806
783.704,83.6457,21.34777,-0.12761,0.58743
784.404,83.71684,21.36695,-0.12804,0.5868
785.104,83.78803,21.33108,-0.13365,0.58617
785.804,83.85919,21.29753,-0.13183,0.58553
786.504,83.93039,21.2464,-0.13021,0.5849
787.204,84.0016,21.23035,-0.13337,0.58427
787.904,84.0727,21.22188,-0.13371,0.58364
788.604,84.14389,21.19707,-0.13562,0.58301
789.304,84.21494,21.18843,-0.13705,0.58237
790.004,84.28615,21.15495,-0.13254,0.58174
790.704,84.35736,21.1863,-0.13773,0.58111
791.404,84.42854,21.15454,-0.13779,0.58048
792.104,84.49961,21.12043,-0.13984,0.57985
792.804,84.5706,21.15483,-0.14274,0.57922
793.504,84.6414,21.11984,-0.14205,0.57859
794.204,84.7123,21.0886,-0.14183,0.57796
794.904,84.78313,21.0445,-0.14548,0.57732
795.604,84.85419,21.02125,-0.14318,0.57669
796.304,84.9251,21.0455,-0.14319,0.57606
797.004,84.99579,21.01202,-0.14746,0.57543