File: 01_Data/Oak_HWF/Oak_HWF_MCC_60K_min_211104_R1.txt
Sample ID:	C:\MCC\MCC Cal\Test\HWF_MCC_30K_min_211104_R1.txt
Sample Weight (mg):	4.4
Heating Rate (C/s):	1
Combustor Temp (C):	900
N2 Flow Rate (cc/min):	80
O2 Flow Rate (cc/min):	20
Calibration File:	C:\MCC\MCC Cal\Coeff1 JN10440_30_210304.txt.txt
T Correction Coefficients:	0	1.024463	0
Time Shift (s):	14
*
Time (s)	Temperature (C)	N2 flow rate (cc/min)	O2 flow rate (cc/min)	Flow Rate (cc/min)	Oxygen (%)	HRR (W/g)	Heating rate (C/s)
0.000	106.139	80.012	19.994	103.005	20.014	-0.139	0.028
1.000	106.148	80.011	19.993	103.007	20.013	-0.071	0.001
2.000	106.134	80.009	19.993	103.013	20.012	-0.008	-0.024
3.000	106.150	80.010	19.995	103.015	20.012	-0.018	0.027
4.000	106.157	80.011	19.997	103.014	20.014	-0.104	0.008
5.000	106.129	80.008	19.995	103.014	20.011	0.055	-0.029
6.000	106.139	80.010	19.994	103.014	20.009	0.235	0.019
7.000	106.114	80.009	19.995	103.028	20.009	0.257	-0.033
8.000	106.100	80.009	19.994	103.046	20.003	0.663	0.008
9.000	106.106	80.008	19.994	103.074	19.998	1.003	-0.016
10.000	106.158	80.007	19.994	103.118	20.000	0.909	0.038
11.000	106.154	80.008	19.993	103.171	19.992	1.468	0.007
12.000	106.187	80.006	19.995	103.207	19.987	1.822	0.042
13.001	106.272	80.006	19.995	103.220	19.983	2.156	0.065
14.000	106.323	80.006	19.994	103.233	19.980	2.372	0.050
15.000	106.438	80.005	19.995	103.233	19.978	2.529	0.094
16.000	106.493	80.006	19.994	103.237	19.972	2.970	0.079
17.000	106.577	80.010	19.995	103.256	19.972	2.929	0.092
18.000	106.697	80.008	19.995	103.271	19.965	3.432	0.095
19.000	106.800	80.008	19.994	103.279	19.963	3.629	0.108
20.000	106.939	80.008	19.993	103.284	19.960	3.830	0.133
21.000	107.091	80.007	19.995	103.292	19.961	3.767	0.150
22.000	107.233	80.005	19.995	103.296	19.956	4.088	0.143
23.001	107.418	80.008	19.996	103.310	19.956	4.114	0.166
24.000	107.631	80.008	19.994	103.330	19.958	3.967	0.201
25.000	107.815	80.009	19.994	103.348	19.948	4.714	0.210
26.000	108.045	80.009	19.995	103.353	19.946	4.863	0.213
27.000	108.252	80.011	19.994	103.357	19.945	4.902	0.209
28.000	108.487	80.011	19.995	103.372	19.943	5.070	0.241
29.000	108.779	80.007	19.992	103.390	19.935	5.630	0.260
30.000	109.004	80.008	19.994	103.402	19.937	5.495	0.235
31.000	109.280	80.008	19.993	103.408	19.939	5.354	0.262
32.000	109.571	80.007	19.994	103.409	19.934	5.717	0.306
33.001	109.931	80.009	19.994	103.424	19.936	5.590	0.330
34.000	110.245	80.010	19.994	103.437	19.930	6.046	0.324
35.000	110.539	80.008	19.995	103.443	19.930	5.999	0.317
36.000	110.900	80.008	19.994	103.443	19.929	6.078	0.339
37.000	111.257	80.007	19.994	103.444	19.929	6.111	0.364
38.000	111.684	80.009	19.995	103.435	19.928	6.166	0.402
39.001	112.048	80.006	19.995	103.424	19.926	6.337	0.384
40.000	112.468	80.007	19.995	103.419	19.926	6.298	0.391
41.000	112.862	80.006	19.995	103.431	19.926	6.303	0.404
42.001	113.267	80.005	19.996	103.441	19.925	6.390	0.416
43.000	113.722	80.006	19.995	103.434	19.926	6.306	0.440
44.001	114.198	80.006	19.996	103.432	19.927	6.221	0.455
45.000	114.659	80.008	19.995	103.437	19.925	6.420	0.485
46.000	115.148	80.006	19.996	103.444	19.923	6.526	0.451
47.000	115.591	80.007	19.996	103.441	19.925	6.400	0.484
48.000	116.109	80.007	19.996	103.440	19.923	6.503	0.486
49.000	116.588	80.006	19.995	103.442	19.924	6.487	0.494
50.000	117.121	80.007	19.996	103.446	19.924	6.460	0.511
51.000	117.651	80.007	19.995	103.440	19.921	6.653	0.536
52.000	118.185	80.007	19.997	103.439	19.927	6.238	0.535
53.000	118.751	80.008	19.996	103.443	19.924	6.481	0.550
54.000	119.249	80.006	19.994	103.448	19.924	6.481	0.501
55.000	119.796	80.007	19.996	103.448	19.926	6.294	0.568
56.000	120.376	80.008	19.996	103.449	19.921	6.687	0.559
57.000	120.986	80.009	19.996	103.449	19.924	6.496	0.573
58.000	121.554	80.009	19.994	103.450	19.923	6.546	0.609
59.000	122.152	80.007	19.996	103.450	19.923	6.541	0.586
60.000	122.803	80.007	19.996	103.454	19.923	6.555	0.626
61.000	123.392	80.009	19.996	103.454	19.923	6.561	0.598
62.001	123.977	80.008	19.996	103.457	19.918	6.938	0.602
63.000	124.638	80.007	19.995	103.465	19.915	7.115	0.652
64.000	125.285	80.008	19.995	103.477	19.917	6.971	0.649
65.000	125.914	80.008	19.996	103.475	19.919	6.863	0.611
66.000	126.600	80.008	19.995	103.472	19.914	7.208	0.687
67.000	127.278	80.007	19.995	103.473	19.913	7.235	0.667
68.000	127.941	80.009	19.996	103.467	19.921	6.648	0.682
69.001	128.639	80.007	19.995	103.457	19.918	6.870	0.670
70.000	129.307	80.006	19.996	103.459	19.920	6.726	0.687
71.000	130.034	80.007	19.996	103.465	19.918	6.924	0.721
72.000	130.691	80.007	19.995	103.464	19.920	6.771	0.655
73.000	131.391	80.008	19.996	103.465	19.916	7.025	0.726
74.000	132.108	80.008	19.997	103.468	19.920	6.769	0.684
75.000	132.855	80.007	19.996	103.465	19.919	6.820	0.730
76.000	133.534	80.008	19.997	103.467	19.919	6.849	0.707
77.000	134.281	80.007	19.995	103.470	19.919	6.835	0.734
78.001	135.081	80.006	19.995	103.473	19.923	6.532	0.776
79.001	135.801	80.006	19.996	103.474	19.917	6.974	0.764
80.000	136.535	80.008	19.996	103.471	19.917	6.941	0.717
81.000	137.310	80.007	19.995	103.462	19.915	7.147	0.782
82.000	138.070	80.008	19.994	103.458	19.917	6.998	0.755
83.000	138.840	80.010	19.994	103.460	19.918	6.929	0.772
84.000	139.669	80.009	19.995	103.465	19.916	7.038	0.792
85.000	140.454	80.010	19.994	103.469	19.913	7.246	0.800
86.001	141.234	80.009	19.995	103.464	19.917	6.999	0.784
87.000	142.046	80.011	19.996	103.455	19.920	6.766	0.792
88.000	142.819	80.008	19.994	103.446	19.916	7.051	0.790
89.000	143.599	80.010	19.995	103.448	19.923	6.522	0.799
90.000	144.423	80.010	19.994	103.449	19.921	6.660	0.809
91.000	145.292	80.009	19.994	103.450	19.920	6.719	0.852
92.000	146.123	80.008	19.996	103.448	19.921	6.658	0.837
93.000	146.907	80.008	19.995	103.448	19.919	6.863	0.788
94.000	147.735	80.009	19.994	103.454	19.919	6.833	0.820
95.000	148.587	80.008	19.996	103.458	19.924	6.432	0.853
96.000	149.399	80.006	19.996	103.460	19.920	6.786	0.826
97.000	150.261	80.007	19.994	103.457	19.918	6.910	0.862
98.000	151.091	80.005	19.995	103.456	19.922	6.633	0.818
99.000	151.936	80.008	19.996	103.452	19.918	6.904	0.846
100.000	152.797	80.009	19.995	103.450	19.919	6.864	0.864
101.000	153.663	80.007	19.995	103.453	19.919	6.846	0.851
102.000	154.494	80.007	19.994	103.458	19.918	6.878	0.858
103.000	155.389	80.007	19.996	103.456	19.917	6.978	0.870
104.000	156.213	80.008	19.994	103.458	19.913	7.289	0.838
105.000	157.110	80.007	19.996	103.455	19.916	7.049	0.877
106.000	157.990	80.009	19.996	103.457	19.917	6.998	0.892
107.000	158.845	80.007	19.995	103.451	19.921	6.695	0.860
108.000	159.704	80.008	19.996	103.453	19.917	6.982	0.870
109.000	160.628	80.008	19.996	103.453	19.918	6.876	0.902
110.000	161.514	80.008	19.996	103.453	19.915	7.130	0.895
111.000	162.391	80.008	19.995	103.449	19.922	6.579	0.888
112.000	163.312	80.007	19.995	103.446	19.916	7.022	0.904
113.000	164.235	80.007	19.996	103.446	19.918	6.937	0.909
114.000	165.129	80.008	19.996	103.449	19.922	6.613	0.912
115.000	166.070	80.008	19.994	103.448	19.918	6.912	0.920
116.000	167.013	80.006	19.995	103.449	19.919	6.833	0.942
117.000	167.895	80.007	19.994	103.446	19.921	6.687	0.906
118.000	168.823	80.008	19.995	103.447	19.921	6.681	0.909
119.001	169.762	80.005	19.995	103.447	19.921	6.691	0.937
120.000	170.636	80.008	19.993	103.447	19.920	6.790	0.904
121.000	171.608	80.006	19.994	103.447	19.919	6.860	0.929
122.000	172.558	80.007	19.994	103.448	19.923	6.542	0.969
123.000	173.472	80.006	19.995	103.449	19.916	7.028	0.931
124.001	174.464	80.007	19.995	103.449	19.916	7.045	0.960
125.001	175.403	80.007	19.995	103.451	19.918	6.870	0.950
126.001	176.336	80.008	19.995	103.451	19.919	6.829	0.922
127.000	177.274	80.007	19.994	103.450	19.919	6.843	0.922
128.000	178.249	80.004	19.994	103.449	19.917	6.970	0.984
129.000	179.225	80.009	19.995	103.449	19.922	6.583	0.992
130.000	180.165	80.008	19.995	103.449	19.919	6.837	0.947
131.000	181.122	80.007	19.993	103.449	19.919	6.862	0.957
132.000	182.127	80.009	19.995	103.450	19.919	6.797	0.983
133.000	183.047	80.006	19.994	103.450	19.923	6.567	0.939
134.000	184.061	80.008	19.995	103.450	19.920	6.755	1.001
135.000	185.040	80.007	19.996	103.451	19.920	6.783	0.970
136.000	186.026	80.007	19.997	103.450	19.917	6.956	0.997
137.000	187.035	80.006	19.994	103.448	19.917	6.997	1.001
138.000	188.017	80.006	19.996	103.447	19.916	7.062	1.013
139.000	189.050	80.007	19.994	103.445	19.920	6.760	0.978
140.000	190.028	80.007	19.995	103.446	19.918	6.882	0.977
141.000	191.033	80.009	19.995	103.448	19.920	6.772	1.020
142.000	191.988	80.008	19.996	103.449	19.918	6.902	0.978
143.000	193.013	80.008	19.996	103.447	19.917	6.988	1.011
144.000	193.969	80.010	19.996	103.443	19.920	6.789	0.970
145.000	195.039	80.008	19.996	103.437	19.920	6.734	1.056
146.000	196.001	80.007	19.995	103.437	19.922	6.607	0.969
147.000	196.992	80.007	19.995	103.438	19.918	6.906	0.998
148.000	197.970	80.009	19.996	103.434	19.919	6.840	0.973
149.000	199.023	80.008	19.995	103.434	19.914	7.158	1.031
150.000	199.991	80.007	19.995	103.419	19.915	7.121	0.990
151.000	201.019	80.009	19.995	103.418	19.913	7.231	1.006
152.000	202.050	80.009	19.994	103.416	19.917	6.998	1.028
153.000	203.074	80.009	19.996	103.420	19.916	7.062	1.022
154.000	204.093	80.008	19.996	103.415	19.916	7.050	1.020
155.000	205.118	80.011	19.995	103.416	19.914	7.159	1.016
156.000	206.128	80.010	19.996	103.416	19.910	7.519	1.033
157.000	207.151	80.008	19.997	103.428	19.917	6.976	1.036
158.000	208.221	80.009	19.998	103.423	19.910	7.478	1.033
159.000	209.198	80.010	19.996	103.413	19.913	7.272	1.012
160.000	210.280	80.009	19.995	103.407	19.908	7.667	1.039
161.000	211.291	80.009	19.994	103.407	19.909	7.541	1.012
162.000	212.321	80.010	19.997	103.413	19.906	7.750	1.040
163.000	213.370	80.009	19.998	103.414	19.910	7.451	1.043
164.000	214.333	80.010	19.995	103.408	19.910	7.475	0.983
165.000	215.356	80.009	19.996	103.411	19.909	7.534	1.026
166.000	216.388	80.008	19.996	103.420	19.910	7.490	1.031
167.000	217.441	80.008	19.997	103.419	19.907	7.681	1.044
168.000	218.463	80.010	19.996	103.411	19.908	7.609	1.030
169.000	219.493	80.009	19.996	103.404	19.900	8.210	1.039
170.000	220.516	80.010	19.996	103.407	19.905	7.848	1.026
171.000	221.573	80.009	19.995	103.408	19.902	8.076	1.031
172.000	222.578	80.010	19.995	103.406	19.891	8.890	1.029
173.000	223.584	80.009	19.995	103.407	19.895	8.558	1.008
174.000	224.635	80.011	19.997	103.408	19.894	8.654	1.035
175.000	225.688	80.008	19.995	103.410	19.890	8.943	1.026
176.000	226.711	80.009	19.997	103.408	19.884	9.397	1.058
177.000	227.742	80.006	19.994	103.407	19.884	9.385	1.000
178.000	228.786	80.007	19.995	103.412	19.885	9.324	1.070
179.000	229.833	80.008	19.995	103.418	19.877	9.941	1.033
180.000	230.830	80.008	19.996	103.416	19.877	9.876	1.036
181.000	231.920	80.007	19.996	103.407	19.875	10.029	1.044
182.000	232.868	80.007	19.994	103.407	19.870	10.422	0.981
183.000	233.913	80.007	19.995	103.412	19.868	10.585	1.044
184.000	234.948	80.007	19.994	103.412	19.861	11.065	1.049
185.000	236.238	80.010	19.996	103.409	19.861	11.084	1.075
186.000	236.810	80.007	19.996	103.409	19.860	11.161	0.848
187.000	238.225	80.008	19.995	103.412	19.861	11.112	1.115
188.000	239.031	80.008	19.996	103.413	19.852	11.757	0.986
189.000	240.112	80.007	19.994	103.412	19.850	11.902	1.050
190.000	241.093	80.009	19.995	103.409	19.847	12.100	1.030
191.000	242.099	80.007	19.994	103.410	19.843	12.373	0.990
192.000	243.115	80.006	19.993	103.410	19.835	12.983	1.035
193.000	244.143	80.009	19.995	103.412	19.838	12.759	1.039
194.000	245.155	80.008	19.994	103.412	19.834	13.026	1.003
195.000	246.141	80.008	19.995	103.410	19.828	13.476	1.011
196.000	247.165	80.006	19.995	103.409	19.827	13.553	1.010
197.000	248.178	80.005	19.994	103.410	19.825	13.756	1.011
198.000	249.147	80.008	19.996	103.412	19.820	14.086	0.990
199.000	250.238	80.008	19.994	103.412	19.819	14.180	1.057
200.000	251.273	80.006	19.995	103.409	19.814	14.507	1.041
201.000	252.255	80.005	19.996	103.410	19.808	14.952	0.995
202.000	253.251	80.007	19.995	103.410	19.809	14.889	1.007
203.000	254.263	80.007	19.994	103.410	19.801	15.502	1.010
204.000	255.266	80.007	19.995	103.410	19.801	15.503	1.003
205.000	256.241	80.005	19.995	103.410	19.796	15.872	0.976
206.000	257.266	80.005	19.994	103.412	19.790	16.277	1.024
207.000	258.295	80.007	19.996	103.416	19.784	16.701	1.028
208.000	259.335	80.005	19.995	103.419	19.774	17.489	1.014
209.000	260.322	80.006	19.995	103.432	19.773	17.544	0.985
210.000	261.299	80.006	19.994	103.444	19.767	17.962	1.002
211.000	262.304	80.007	19.995	103.449	19.762	18.369	0.995
212.000	263.311	80.007	19.994	103.444	19.753	18.999	0.999
213.000	264.275	80.006	19.997	103.439	19.744	19.674	0.995
214.000	265.252	80.008	19.995	103.439	19.735	20.329	0.977
215.000	266.248	80.005	19.995	103.447	19.727	20.951	0.985
216.000	267.264	80.006	19.994	103.451	19.721	21.348	1.024
217.001	268.291	80.007	19.994	103.452	19.709	22.228	0.992
218.000	269.237	80.007	19.995	103.465	19.703	22.709	0.983
219.000	270.285	80.007	19.996	103.471	19.690	23.655	1.020
220.000	271.312	80.009	19.994	103.470	19.677	24.594	1.039
221.000	272.333	80.009	19.994	103.468	19.663	25.603	1.022
222.000	273.275	80.007	19.993	103.479	19.658	26.008	0.953
223.000	274.309	80.009	19.995	103.482	19.645	26.983	1.015
224.000	275.248	80.008	19.993	103.484	19.635	27.695	0.967
225.001	276.235	80.009	19.995	103.485	19.620	28.794	0.975
226.000	277.164	80.009	19.994	103.490	19.609	29.584	0.963
227.000	278.224	80.010	19.994	103.499	19.596	30.586	1.020
228.000	279.217	80.008	19.994	103.510	19.582	31.587	0.997
229.000	280.168	80.007	19.996	103.518	19.571	32.408	0.959
230.000	281.203	80.010	19.995	103.515	19.553	33.750	1.008
231.000	282.129	80.008	19.996	103.519	19.541	34.596	0.962
232.000	283.183	80.011	19.996	103.525	19.524	35.857	1.028
233.000	284.166	80.009	19.997	103.526	19.509	36.960	0.982
234.000	285.169	80.007	19.997	103.539	19.495	38.020	1.007
235.000	286.080	80.008	19.994	103.544	19.480	39.090	0.920
236.000	287.090	80.007	19.996	103.548	19.463	40.351	1.004
237.000	288.079	80.007	19.995	103.553	19.442	41.884	0.995
238.000	289.085	80.012	19.996	103.562	19.430	42.778	0.995
239.000	290.051	80.010	19.997	103.563	19.408	44.400	0.977
240.000	291.027	80.009	19.995	103.567	19.394	45.399	0.966
241.000	292.083	80.009	19.996	103.573	19.378	46.620	1.048
242.000	293.056	80.009	19.990	103.584	19.360	47.951	0.978
243.000	294.015	80.010	19.996	103.591	19.336	49.679	0.972
244.000	295.001	80.010	19.997	103.594	19.319	50.976	1.007
245.000	295.988	80.010	19.994	103.596	19.301	52.302	0.963
246.000	296.984	80.012	19.993	103.600	19.288	53.223	0.990
247.000	297.976	80.011	19.995	103.608	19.267	54.801	1.001
248.000	298.977	80.011	19.996	103.616	19.248	56.181	0.989
249.000	299.938	80.012	19.994	103.626	19.228	57.624	0.969
250.000	300.930	80.011	19.995	103.628	19.207	59.216	0.980
251.000	301.886	80.013	19.996	103.639	19.190	60.402	0.997
252.000	302.879	80.008	19.994	103.640	19.173	61.707	0.965
253.000	303.847	80.008	19.994	103.642	19.155	63.044	0.987
254.000	304.847	80.010	19.996	103.645	19.137	64.322	0.974
255.000	305.823	80.009	19.996	103.656	19.119	65.656	0.989
256.000	306.805	80.008	19.996	103.661	19.102	66.892	0.982
257.000	307.788	80.007	19.995	103.663	19.084	68.224	0.986
258.001	308.815	80.005	19.997	103.662	19.070	69.294	0.987
259.000	309.738	80.009	19.995	103.654	19.054	70.405	0.958
260.000	310.776	80.009	19.995	103.660	19.039	71.564	1.022
261.001	311.719	80.007	19.997	103.668	19.022	72.813	0.960
262.000	312.812	80.009	19.996	103.670	19.009	73.766	1.053
263.000	313.783	80.006	19.997	103.672	18.990	75.116	0.998
264.000	314.802	80.008	19.995	103.678	18.977	76.124	1.002
265.000	315.760	80.006	19.996	103.680	18.964	77.066	0.976
266.000	316.694	80.005	19.996	103.680	18.947	78.300	0.959
267.000	317.728	80.006	19.996	103.682	18.935	79.247	1.002
268.000	318.735	80.005	19.997	103.684	18.921	80.229	1.012
269.000	319.718	80.007	19.996	103.685	18.907	81.292	0.997
270.000	320.714	80.009	19.995	103.685	18.894	82.217	0.987
271.000	321.703	80.007	19.997	103.685	18.879	83.365	1.005
272.000	322.703	80.007	19.995	103.685	18.870	83.987	0.974
273.000	323.683	80.009	19.994	103.688	18.854	85.216	1.001
274.000	324.710	80.008	19.995	103.690	18.839	86.311	1.009
275.000	325.691	80.005	19.996	103.697	18.827	87.162	0.978
276.000	326.682	80.006	19.995	103.708	18.813	88.244	0.994
277.000	327.655	80.008	19.995	103.715	18.801	89.102	0.977
278.000	328.666	80.007	19.995	103.716	18.787	90.106	1.007
279.000	329.618	80.005	19.995	103.719	18.775	91.029	0.974
280.000	330.639	80.009	19.995	103.722	18.762	91.978	1.007
281.000	331.615	80.008	19.996	103.721	18.748	93.034	0.966
282.000	332.646	80.008	19.995	103.722	18.736	93.937	1.014
283.000	333.614	80.008	19.995	103.731	18.719	95.215	1.006
284.000	334.662	80.009	19.994	103.735	18.709	95.928	1.026
285.001	335.623	80.006	19.995	103.743	18.690	97.355	0.987
286.000	336.632	80.007	19.995	103.744	18.677	98.323	1.004
287.000	337.618	80.006	19.996	103.751	18.660	99.579	0.975
288.000	338.614	80.009	19.995	103.758	18.642	100.889	1.000
289.000	339.608	80.009	19.993	103.764	18.630	101.770	0.996
290.000	340.609	80.007	19.995	103.770	18.609	103.360	0.999
291.000	341.610	80.006	19.994	103.777	18.593	104.549	0.992
292.000	342.611	80.007	19.995	103.788	18.573	106.028	1.021
293.000	343.579	80.007	19.995	103.796	18.550	107.711	0.955
294.000	344.598	80.008	19.997	103.807	18.534	108.883	1.007
295.000	345.587	80.005	19.994	103.821	18.512	110.523	1.006
296.000	346.594	80.006	19.997	103.830	18.491	112.069	1.006
297.000	347.550	80.006	19.997	103.833	18.466	113.969	0.947
298.000	348.577	80.005	19.994	103.840	18.441	115.757	1.012
299.000	349.569	80.008	19.994	103.854	18.418	117.443	1.009
300.000	350.567	80.006	19.995	103.867	18.396	119.132	1.001
301.001	351.578	80.009	19.994	103.876	18.373	120.809	1.000
302.000	352.611	80.008	19.996	103.879	18.345	122.834	1.038
303.000	353.615	80.007	19.995	103.890	18.321	124.658	1.009
304.000	354.628	80.007	19.995	103.898	18.293	126.662	1.008
305.000	355.661	80.010	19.993	103.900	18.271	128.322	1.032
306.000	356.645	80.007	19.996	103.904	18.246	130.118	0.976
307.000	357.643	80.008	19.995	103.919	18.222	131.874	1.012
308.000	358.650	80.010	19.995	103.929	18.198	133.602	1.000
309.000	359.637	80.008	19.995	103.931	18.176	135.230	0.996
310.001	360.684	80.009	19.995	103.928	18.154	136.787	1.008
311.000	361.697	80.010	19.994	103.933	18.138	137.992	1.036
312.000	362.619	80.010	19.995	103.931	18.118	139.418	0.956
313.000	363.647	80.009	19.997	103.929	18.103	140.481	1.005
314.000	364.661	80.009	19.996	103.929	18.085	141.770	1.023
315.000	365.705	80.009	19.995	103.929	18.079	142.207	1.010
316.000	366.667	80.007	19.994	103.925	18.070	142.778	1.010
317.000	367.676	80.008	19.995	103.906	18.061	143.395	0.993
318.000	368.702	80.009	19.994	103.890	18.061	143.344	1.008
319.000	369.719	80.007	19.995	103.877	18.060	143.379	1.043
320.001	370.747	80.008	19.996	103.867	18.063	143.104	1.026
321.000	371.739	80.007	19.997	103.845	18.072	142.377	0.992
322.000	372.777	80.007	19.998	103.818	18.082	141.599	1.025
323.000	373.825	80.010	19.994	103.797	18.102	140.100	1.059
324.000	374.849	80.008	19.995	103.775	18.124	138.452	1.022
325.000	375.887	80.008	19.995	103.752	18.151	136.414	1.029
326.000	376.892	80.009	19.995	103.721	18.182	134.102	1.009
327.000	377.915	80.009	19.994	103.688	18.217	131.503	1.014
328.000	378.942	80.009	19.995	103.654	18.267	127.864	1.022
329.000	379.943	80.009	19.994	103.615	18.309	124.753	1.016
330.000	380.967	80.008	19.995	103.577	18.360	120.937	1.002
331.000	381.960	80.010	19.994	103.542	18.420	116.588	1.030
332.000	382.977	80.009	19.994	103.507	18.478	112.296	0.996
333.000	384.027	80.009	19.996	103.472	18.545	107.434	1.036
334.000	385.059	80.009	19.995	103.438	18.610	102.636	1.030
335.000	386.050	80.010	19.996	103.410	18.681	97.505	1.010
336.000	387.049	80.010	19.995	103.379	18.753	92.216	1.005
337.000	388.067	80.008	19.994	103.342	18.824	87.030	1.016
338.000	389.078	80.008	19.994	103.316	18.901	81.379	1.007
339.000	390.115	80.010	19.995	103.303	18.976	75.865	1.011
340.000	391.133	80.007	20.003	103.280	19.048	70.634	1.027
341.000	392.129	80.010	19.999	103.265	19.122	65.224	1.014
342.000	393.170	80.007	19.995	103.255	19.190	60.202	1.023
343.000	394.211	80.008	19.995	103.258	19.247	56.072	1.032
344.000	395.233	80.008	19.995	103.258	19.308	51.537	1.022
345.000	396.252	80.008	19.993	103.271	19.360	47.753	1.022
346.000	397.264	80.005	19.997	103.282	19.414	43.832	1.037
347.000	398.239	80.006	19.998	103.286	19.455	40.815	0.969
348.000	399.251	80.007	19.995	103.286	19.498	37.610	1.030
349.000	400.260	80.005	19.995	103.289	19.535	34.965	1.009
350.000	401.315	80.007	19.996	103.292	19.564	32.831	1.029
351.000	402.290	80.007	19.993	103.291	19.595	30.553	0.980
352.000	403.329	80.002	20.004	103.290	19.615	29.052	1.042
353.000	404.360	80.012	19.991	103.288	19.641	27.203	1.006
354.000	405.399	80.007	19.995	103.289	19.660	25.796	1.024
355.000	406.377	80.007	19.996	103.288	19.677	24.549	1.023
356.000	407.412	80.004	20.000	103.278	19.690	23.586	1.017
357.000	408.421	80.009	19.995	103.268	19.700	22.817	1.020
358.000	409.403	80.009	19.996	103.266	19.711	22.059	0.981
359.000	410.443	80.009	19.997	103.270	19.724	21.079	1.036
360.000	411.476	80.006	19.995	103.265	19.729	20.693	1.037
361.000	412.465	80.007	19.997	103.263	19.738	20.100	0.988
362.000	413.489	80.007	19.997	103.262	19.745	19.568	1.024
363.000	414.481	80.007	19.996	103.257	19.751	19.091	1.011
364.000	415.489	80.008	19.996	103.260	19.756	18.729	1.000
365.000	416.487	80.008	19.995	103.260	19.760	18.427	0.996
366.000	417.480	80.009	19.997	103.256	19.764	18.136	0.969
367.000	418.474	80.008	19.996	103.250	19.770	17.719	1.010
368.000	419.485	80.007	19.995	103.250	19.776	17.279	1.017
369.000	420.499	80.007	19.995	103.255	19.775	17.322	1.010
370.000	421.498	80.008	19.995	103.257	19.779	17.056	1.002
371.000	422.521	80.008	19.996	103.263	19.782	16.832	1.023
372.000	423.520	80.011	19.996	103.259	19.783	16.746	0.987
373.000	424.538	80.009	19.992	103.259	19.786	16.585	1.019
374.000	425.530	80.007	19.994	103.258	19.789	16.328	0.989
375.000	426.526	80.008	19.994	103.254	19.794	15.971	1.005
376.000	427.528	80.008	19.993	103.251	19.798	15.702	1.012
377.000	428.535	80.008	19.992	103.251	19.799	15.637	1.018
378.000	429.526	80.007	19.994	103.252	19.799	15.613	0.967
379.000	430.555	80.008	19.994	103.253	19.803	15.286	1.022
380.000	431.552	80.008	19.996	103.253	19.804	15.217	0.999
381.000	432.540	80.008	19.995	103.254	19.808	14.911	0.995
382.000	433.588	80.008	19.995	103.254	19.809	14.876	1.045
383.000	434.583	80.007	19.995	103.255	19.815	14.423	1.009
384.000	435.600	80.009	19.994	103.255	19.812	14.637	1.003
385.000	436.558	80.008	19.996	103.254	19.817	14.303	0.974
386.000	437.573	80.007	19.993	103.254	19.818	14.183	1.000
387.000	438.564	80.010	19.994	103.253	19.821	14.018	0.990
388.000	439.572	80.007	19.995	103.253	19.822	13.893	1.010
389.000	440.579	80.010	19.995	103.251	19.827	13.544	1.015
390.000	441.575	80.011	19.993	103.252	19.830	13.365	1.001
391.000	442.576	80.009	19.995	103.252	19.830	13.310	0.991
392.000	443.556	80.010	19.995	103.255	19.834	13.026	0.988
393.000	444.564	80.011	19.995	103.256	19.836	12.906	0.995
394.000	445.554	80.007	19.996	103.256	19.838	12.720	0.993
395.000	446.526	80.009	19.996	103.254	19.838	12.783	0.984
396.000	447.517	80.010	19.995	103.254	19.840	12.590	0.977
397.000	448.529	80.010	19.994	103.254	19.840	12.584	1.003
398.000	449.512	80.010	19.993	103.253	19.841	12.499	1.015
399.000	450.515	80.007	19.995	103.253	19.841	12.511	0.989
400.000	451.517	80.011	19.993	103.254	19.845	12.225	0.973
401.000	452.488	80.010	19.994	103.254	19.848	11.985	0.994
402.000	453.517	80.009	19.995	103.253	19.849	11.962	1.023
403.000	454.547	80.003	19.995	103.254	19.852	11.713	1.014
404.000	455.532	80.009	19.992	103.255	19.854	11.577	0.997
405.000	456.557	80.010	19.994	103.258	19.859	11.237	1.031
406.000	457.516	80.008	19.995	103.258	19.855	11.488	0.961
407.000	458.554	80.009	19.995	103.255	19.858	11.261	1.035
408.000	459.543	80.008	19.995	103.251	19.860	11.163	1.002
409.000	460.540	80.009	19.994	103.250	19.861	11.071	0.993
410.000	461.517	80.011	19.993	103.248	19.863	10.934	0.959
411.000	462.502	80.007	19.994	103.249	19.863	10.891	1.000
412.000	463.503	80.011	19.996	103.250	19.864	10.873	1.007
413.000	464.483	80.013	19.994	103.251	19.863	10.910	0.983
414.000	465.473	80.014	19.993	103.252	19.866	10.700	0.984
415.000	466.469	80.014	19.993	103.249	19.868	10.539	0.997
416.000	467.463	80.011	19.994	103.245	19.869	10.441	0.994
417.000	468.450	80.011	19.994	103.244	19.871	10.309	0.990
418.000	469.440	80.011	19.993	103.247	19.869	10.440	0.977
419.000	470.477	80.010	19.990	103.249	19.873	10.176	1.034
420.000	471.460	80.013	19.994	103.249	19.875	10.027	1.007
421.000	472.483	80.009	19.994	103.250	19.873	10.206	1.015
422.000	473.501	80.007	19.997	103.250	19.874	10.090	0.998
423.000	474.524	80.009	19.995	103.248	19.876	9.992	1.008
424.000	475.479	80.007	19.995	103.244	19.879	9.753	1.000
425.000	476.524	80.009	19.994	103.242	19.882	9.527	1.016
426.000	477.529	80.007	19.997	103.246	19.878	9.841	1.018
427.000	478.508	80.004	19.999	103.243	19.881	9.584	0.977
428.000	479.492	80.007	19.990	103.237	19.883	9.447	1.003
429.000	480.510	80.005	19.999	103.239	19.880	9.664	0.997
430.000	481.541	80.008	19.996	103.248	19.885	9.321	1.035
431.000	482.560	80.008	19.997	103.250	19.890	8.974	0.997
432.000	483.539	80.005	19.995	103.247	19.887	9.176	1.003
433.000	484.533	80.007	19.996	103.245	19.887	9.156	0.980
434.000	485.539	80.005	19.996	103.244	19.890	8.944	1.012
435.000	486.539	80.005	19.994	103.248	19.887	9.146	0.995
436.000	487.538	80.009	19.996	103.249	19.893	8.726	0.997
437.000	488.525	80.006	19.998	103.251	19.890	8.948	0.992
438.000	489.560	80.012	19.996	103.251	19.893	8.693	1.026
439.000	490.570	80.007	19.996	103.248	19.887	9.141	1.011
440.000	491.564	80.011	19.992	103.244	19.889	9.005	1.009
441.000	492.599	80.010	19.994	103.245	19.892	8.826	1.020
442.000	493.591	80.009	19.995	103.249	19.891	8.864	1.006
443.000	494.595	80.009	19.994	103.251	19.893	8.739	1.004
444.000	495.645	80.010	19.994	103.250	19.896	8.525	1.051
445.000	496.654	80.009	19.995	103.250	19.890	8.944	0.997
446.000	497.654	80.010	19.995	103.249	19.892	8.795	1.023
447.001	498.674	80.003	19.998	103.245	19.892	8.807	1.012
448.000	499.698	80.007	19.995	103.244	19.892	8.789	1.016
449.000	500.717	80.008	19.996	103.247	19.895	8.550	1.008
450.000	501.751	80.007	20.000	103.248	19.896	8.497	1.009
451.000	502.734	80.006	19.995	103.244	19.895	8.587	1.005
452.000	503.755	80.006	20.001	103.244	19.896	8.512	1.026
453.000	504.793	80.011	19.990	103.250	19.898	8.336	1.029
454.000	505.762	80.007	19.993	103.253	19.897	8.406	0.997
455.000	506.801	80.009	19.995	103.254	19.897	8.459	1.015
456.000	507.788	80.011	19.999	103.248	19.896	8.510	0.999
457.000	508.831	80.010	19.994	103.243	19.896	8.520	1.060
458.000	509.899	80.011	19.995	103.244	19.899	8.300	1.030
459.000	510.896	80.011	19.995	103.249	19.897	8.406	0.999
460.000	511.860	80.009	19.996	103.250	19.900	8.182	0.999
461.000	512.893	79.994	19.997	103.252	19.899	8.243	1.018
462.000	513.938	80.005	20.004	103.247	19.899	8.245	1.038
463.000	515.012	80.005	19.995	103.242	19.901	8.163	1.050
464.000	516.028	80.008	19.995	103.243	19.901	8.135	1.044
465.000	517.066	80.011	19.993	103.243	19.901	8.139	1.037
466.000	518.081	80.007	19.994	103.243	19.905	7.839	0.998
467.001	519.095	80.008	19.993	103.242	19.904	7.891	1.028
468.000	520.130	80.005	19.998	103.241	19.904	7.949	1.042
469.001	521.175	80.008	19.993	103.235	19.905	7.835	1.028
470.000	522.162	80.006	19.997	103.241	19.906	7.776	1.004
471.000	523.174	80.002	19.995	103.239	19.905	7.874	0.998
472.000	524.222	80.007	19.993	103.232	19.907	7.721	1.054
473.000	525.253	80.010	19.991	103.238	19.906	7.756	1.040
474.000	526.251	80.008	19.994	103.238	19.907	7.728	1.000
475.000	527.271	80.008	19.994	103.240	19.902	8.058	1.012
476.000	528.299	80.008	19.996	103.236	19.909	7.521	1.020
477.000	529.299	80.009	19.995	103.237	19.907	7.656	1.034
478.000	530.338	80.008	19.995	103.231	19.908	7.650	1.021
479.000	531.344	80.008	19.993	103.240	19.906	7.768	1.003
480.000	532.350	80.009	19.992	103.236	19.907	7.707	1.034
481.000	533.380	80.007	20.005	103.232	19.904	7.878	1.014
482.000	534.432	80.007	19.994	103.236	19.907	7.697	1.045
483.000	535.467	80.004	19.992	103.233	19.907	7.675	1.013
484.000	536.470	80.007	19.996	103.229	19.907	7.667	1.022
485.000	537.519	80.010	19.992	103.225	19.906	7.773	1.039
486.000	538.505	80.007	19.991	103.232	19.904	7.942	0.996
487.000	539.504	80.006	19.995	103.235	19.904	7.883	1.005
488.000	540.507	80.007	19.995	103.232	19.910	7.458	1.014
489.000	541.537	80.010	19.993	103.230	19.907	7.661	1.017
490.000	542.561	80.010	19.993	103.229	19.911	7.424	1.010
491.000	543.591	80.012	19.995	103.237	19.910	7.435	1.040
492.000	544.583	80.010	19.995	103.235	19.904	7.928	0.993
493.000	545.586	80.011	19.994	103.224	19.908	7.604	1.004
494.000	546.574	80.008	19.994	103.221	19.908	7.594	0.989
495.000	547.596	80.002	19.998	103.225	19.907	7.686	1.015
496.000	548.620	80.020	19.993	103.223	19.906	7.771	1.032
497.000	549.638	80.011	19.995	103.224	19.907	7.665	1.019
498.000	550.669	80.011	19.993	103.222	19.906	7.798	1.044
499.001	551.689	80.015	19.995	103.226	19.908	7.620	1.003
500.000	552.706	80.006	19.996	103.223	19.907	7.685	1.008
501.000	553.708	80.011	19.994	103.220	19.906	7.762	1.014
502.000	554.755	80.008	19.999	103.218	19.908	7.655	1.041
503.000	555.792	80.008	19.992	103.223	19.908	7.586	1.022
504.000	556.808	80.011	19.988	103.216	19.907	7.715	1.024
505.000	557.830	80.003	19.998	103.213	19.906	7.785	1.020
506.000	558.839	80.009	19.994	103.206	19.905	7.807	1.020
507.000	559.863	80.011	19.996	103.216	19.907	7.702	1.011
508.000	560.917	80.009	19.997	103.223	19.907	7.663	1.037
509.000	561.907	80.003	19.995	103.216	19.907	7.716	1.011
510.000	562.943	80.007	19.995	103.216	19.906	7.793	1.059
511.000	563.952	80.008	19.993	103.227	19.905	7.821	1.012
512.000	564.990	80.009	19.993	103.237	19.907	7.713	1.014
513.000	565.986	80.009	19.994	103.242	19.903	7.954	1.000
514.000	567.019	80.009	19.989	103.239	19.904	7.889	1.036
515.000	567.972	80.003	19.996	103.236	19.910	7.500	0.992
516.000	569.076	80.011	19.993	103.231	19.906	7.761	1.045
517.000	570.040	80.008	19.990	103.229	19.906	7.775	0.993
518.000	571.075	80.007	19.991	103.237	19.907	7.695	1.047
519.000	572.105	80.005	19.994	103.243	19.904	7.877	1.008
520.000	573.149	80.006	19.991	103.245	19.909	7.553	1.047
521.000	574.194	80.003	19.998	103.247	19.907	7.682	1.040
522.000	575.276	80.018	19.993	103.234	19.907	7.711	1.067
523.000	576.279	80.009	19.995	103.227	19.910	7.497	1.017
524.000	577.249	80.008	19.995	103.224	19.906	7.755	0.997
525.000	578.320	80.007	19.996	103.221	19.908	7.650	1.033
526.000	579.299	80.017	19.996	103.212	19.908	7.645	1.014
527.000	580.345	79.993	19.996	103.219	19.904	7.926	1.027
528.000	581.378	80.008	19.991	103.223	19.904	7.941	1.030
529.000	582.409	80.010	19.994	103.221	19.904	7.922	1.037
530.000	583.410	80.003	19.994	103.219	19.907	7.708	1.008
531.000	584.439	80.000	19.994	103.218	19.907	7.703	1.015
532.000	585.514	80.007	19.992	103.216	19.904	7.938	1.065
533.000	586.515	80.007	19.991	103.226	19.900	8.172	1.009
534.000	587.540	80.008	19.994	103.234	19.906	7.742	1.028
535.000	588.548	80.004	19.995	103.239	19.905	7.841	1.020
536.000	589.589	80.008	19.993	103.227	19.902	8.023	1.026
537.000	590.640	80.012	19.994	103.221	19.903	8.004	1.063
538.000	591.660	80.006	19.996	103.220	19.902	8.063	0.999
539.000	592.662	80.002	20.002	103.219	19.901	8.130	1.020
540.000	593.701	80.009	19.995	103.218	19.906	7.765	1.057
541.000	594.785	80.004	19.993	103.222	19.903	7.971	1.049
542.000	595.806	80.006	19.995	103.224	19.903	7.963	1.046
543.000	596.869	80.007	19.994	103.222	19.902	8.050	1.048
544.000	597.883	79.998	19.998	103.226	19.905	7.854	1.015
545.000	598.854	80.006	19.996	103.223	19.903	8.016	0.999
546.000	599.908	80.010	19.994	103.216	19.902	8.037	1.025
547.000	600.911	80.009	19.995	103.212	19.908	7.647	1.005
548.000	601.947	80.007	19.996	103.211	19.904	7.923	1.038
549.000	602.980	80.007	19.998	103.212	19.904	7.888	1.033
550.000	603.987	80.007	19.995	103.216	19.904	7.894	1.015
551.000	604.987	80.009	19.996	103.217	19.907	7.688	0.992
552.000	606.000	80.007	19.994	103.217	19.900	8.190	1.027
553.000	607.000	80.009	19.997	103.219	19.905	7.831	0.998
554.000	608.045	80.004	19.995	103.224	19.904	7.902	1.041
555.000	609.048	80.008	19.996	103.226	19.903	7.996	1.005
556.000	610.070	80.005	19.995	103.217	19.902	8.047	1.005
557.000	611.050	80.017	19.995	103.215	19.900	8.189	0.982
558.001	612.060	80.006	19.998	103.213	19.907	7.715	1.010
559.000	613.027	80.003	19.999	103.209	19.902	8.079	1.015
560.000	614.061	80.012	19.992	103.208	19.903	7.992	0.987
561.000	615.102	80.011	19.996	103.210	19.906	7.784	1.050
562.000	616.098	80.003	19.995	103.216	19.903	7.953	1.003
563.000	617.120	80.009	19.995	103.214	19.901	8.145	1.010
564.000	618.123	80.005	19.998	103.211	19.902	8.086	1.007
565.000	619.120	80.014	19.995	103.212	19.902	8.086	1.011
566.000	620.088	79.998	19.996	103.215	19.903	7.959	0.928
567.000	621.100	80.016	19.993	103.209	19.899	8.255	1.057
568.000	622.103	80.021	19.995	103.205	19.901	8.117	0.994
569.000	623.145	80.016	19.992	103.212	19.906	7.794	1.009
570.000	624.106	79.999	19.995	103.218	19.903	7.963	0.984
571.000	625.087	79.999	19.997	103.216	19.904	7.932	1.020
572.000	626.094	80.009	19.994	103.210	19.902	8.041	0.980
573.000	627.103	80.013	19.994	103.215	19.900	8.177	1.001
574.000	628.118	79.997	19.995	103.214	19.899	8.263	1.000
575.000	629.140	80.007	19.995	103.209	19.904	7.902	1.023
576.000	630.117	80.011	19.995	103.209	19.902	8.045	0.987
577.000	631.116	80.005	19.995	103.217	19.905	7.867	1.006
578.000	632.109	80.011	19.997	103.214	19.903	7.959	0.986
579.000	633.102	80.009	19.996	103.211	19.906	7.776	0.988
580.000	634.099	80.008	19.998	103.213	19.904	7.914	1.025
581.000	635.155	80.011	19.994	103.216	19.902	8.034	1.004
582.000	636.151	80.010	19.994	103.217	19.904	7.917	1.021
583.000	637.130	80.010	19.993	103.219	19.902	8.079	0.995
584.001	638.095	80.009	19.994	103.215	19.906	7.736	0.947
585.000	639.099	80.009	19.996	103.214	19.904	7.945	1.028
586.000	640.053	80.008	19.994	103.214	19.902	8.049	0.959
587.000	641.090	80.011	19.994	103.216	19.901	8.143	1.009
588.000	642.060	80.008	19.995	103.217	19.900	8.171	0.987
589.000	643.072	80.006	19.993	103.216	19.897	8.391	0.995
590.000	644.069	80.007	19.994	103.216	19.899	8.302	0.996
591.000	645.031	80.007	19.993	103.216	19.898	8.314	0.986
592.000	646.047	80.015	19.996	103.219	19.898	8.340	1.002
593.000	647.030	80.016	19.997	103.228	19.901	8.094	0.971
594.000	648.028	80.011	19.997	103.228	19.901	8.118	0.997
595.000	648.999	80.008	19.995	103.221	19.899	8.294	0.981
596.000	649.986	80.007	19.996	103.215	19.899	8.269	0.982
597.000	650.977	80.007	19.997	103.215	19.898	8.342	1.000
598.000	651.966	80.008	19.990	103.215	19.897	8.408	1.008
599.000	652.964	80.007	19.995	103.217	19.897	8.427	0.984
600.000	653.934	80.004	19.995	103.219	19.899	8.304	0.980
601.000	654.939	80.009	19.991	103.218	19.900	8.210	0.999
602.000	655.913	80.006	19.997	103.220	19.897	8.406	0.976
603.000	656.930	80.005	19.990	103.220	19.900	8.172	0.989
604.000	657.920	80.008	19.994	103.219	19.897	8.407	1.013
605.000	658.917	80.008	19.994	103.220	19.899	8.264	0.998
606.000	659.898	80.006	19.993	103.218	19.900	8.182	0.986
607.000	660.893	80.010	19.997	103.220	19.899	8.247	0.993
608.000	661.900	80.006	19.993	103.220	19.898	8.331	0.993
609.000	662.919	80.008	19.995	103.217	19.898	8.325	1.008
610.000	663.906	80.007	19.989	103.212	19.900	8.204	0.990
611.000	664.894	80.008	19.994	103.213	19.898	8.357	0.995
612.000	665.903	80.008	19.995	103.213	19.897	8.445	0.997
613.000	666.850	79.999	19.993	103.210	19.898	8.340	0.983
614.000	667.861	80.006	19.995	103.203	19.897	8.423	1.018
615.000	668.919	80.009	19.994	103.204	19.894	8.610	1.026
616.000	669.906	80.007	19.997	103.211	19.900	8.239	1.010
617.000	670.917	80.005	19.998	103.215	19.900	8.198	0.988
618.000	671.870	80.011	19.997	103.208	19.896	8.484	0.995
619.000	672.912	80.005	19.994	103.207	19.896	8.476	0.999
620.000	673.891	80.002	19.996	103.212	19.902	8.077	1.010
621.000	674.946	80.014	19.995	103.211	19.905	7.863	1.025
622.000	675.975	80.000	19.997	103.213	19.902	8.081	1.018
623.000	676.980	80.003	19.997	103.209	19.905	7.831	1.015
624.000	677.987	80.013	19.995	103.202	19.902	8.030	0.994
625.000	678.986	80.009	19.995	103.201	19.901	8.132	1.023
626.000	679.988	80.016	19.994	103.211	19.899	8.252	0.999
627.000	680.983	80.009	19.995	103.213	19.902	8.088	0.999
628.000	681.980	80.018	19.994	103.217	19.897	8.400	0.986
629.000	682.965	80.004	19.995	103.215	19.899	8.263	1.006
630.000	683.940	80.002	20.001	103.211	19.901	8.142	0.977
631.000	685.008	80.008	19.996	103.202	19.902	8.026	1.038
632.000	685.969	80.006	19.993	103.193	19.901	8.141	0.991
633.000	686.972	80.009	19.994	103.199	19.901	8.151	0.982
634.000	687.995	80.009	19.997	103.206	19.902	8.028	1.013
635.000	688.972	80.005	19.996	103.200	19.902	8.027	0.991
636.000	689.982	80.009	19.994	103.194	19.904	7.896	1.011
637.000	691.003	80.009	19.989	103.202	19.905	7.803	1.007
638.000	692.021	80.017	19.994	103.212	19.902	8.064	1.004
639.000	692.957	80.008	19.993	103.215	19.907	7.700	0.963
640.000	693.972	80.020	19.995	103.212	19.902	8.029	1.006
641.000	694.979	80.004	19.995	103.202	19.903	8.007	1.006
642.000	695.971	80.008	19.996	103.196	19.906	7.745	0.996
643.000	696.980	80.008	19.994	103.191	19.903	7.988	1.005
644.000	698.014	80.009	19.995	103.191	19.904	7.905	1.009
645.000	699.009	80.011	19.994	103.195	19.902	8.055	1.019
646.000	700.019	80.002	19.996	103.205	19.902	8.071	1.001
647.000	700.983	80.006	19.995	103.209	19.904	7.881	0.983
648.000	702.007	80.008	19.997	103.209	19.904	7.878	1.018
649.001	703.048	80.007	19.996	103.210	19.904	7.893	1.024
650.000	704.024	80.008	19.997	103.212	19.903	8.007	0.974
651.000	705.011	80.006	19.996	103.210	19.903	7.954	1.024
652.000	706.056	80.014	19.994	103.209	19.907	7.668	1.029
653.000	707.014	80.010	19.994	103.213	19.901	8.129	0.964
654.000	708.006	80.006	19.996	103.210	19.903	7.982	1.000
655.000	709.047	80.008	19.995	103.200	19.904	7.917	1.025
656.000	710.056	80.015	19.994	103.191	19.904	7.894	1.013
657.000	711.071	80.010	19.992	103.200	19.906	7.778	0.995
658.000	712.066	80.008	20.003	103.204	19.906	7.799	1.006
659.000	713.050	80.005	19.995	103.205	19.903	8.018	1.005
660.000	714.050	80.007	19.997	103.207	19.902	8.030	1.002
661.000	715.099	80.006	19.992	103.203	19.902	8.046	1.029
662.000	716.092	80.011	19.996	103.200	19.905	7.820	0.995
663.000	717.135	80.007	19.994	103.203	19.904	7.881	1.042
664.000	718.109	80.002	19.993	103.204	19.901	8.141	0.974
665.000	719.123	80.012	19.992	103.208	19.903	7.972	1.029
666.000	720.159	80.013	20.004	103.208	19.906	7.799	1.007
667.000	721.124	80.015	19.988	103.208	19.906	7.779	0.994
668.000	722.147	80.011	19.991	103.208	19.905	7.842	1.000
669.000	723.167	80.010	19.994	103.204	19.905	7.833	1.036
670.000	724.150	80.009	19.991	103.197	19.906	7.792	0.996
671.000	725.155	80.012	19.993	103.195	19.903	7.963	1.013
672.000	726.211	80.003	19.995	103.200	19.905	7.854	1.015
673.000	727.142	80.006	19.995	103.199	19.905	7.825	0.960
674.000	728.167	80.005	19.995	103.192	19.909	7.548	1.025
675.000	729.192	80.009	19.994	103.192	19.902	8.070	1.022
676.000	730.229	80.005	19.996	103.203	19.904	7.935	1.013
677.000	731.222	80.008	19.994	103.201	19.907	7.678	0.998
678.000	732.183	79.990	19.996	103.196	19.907	7.714	0.975
679.000	733.216	79.991	19.996	103.180	19.902	8.039	1.019
680.000	734.248	80.008	19.995	103.180	19.904	7.912	1.032
681.000	735.256	80.007	19.993	103.187	19.905	7.817	0.994
682.000	736.246	80.005	19.993	103.198	19.904	7.904	1.004
683.000	737.211	80.005	19.993	103.208	19.904	7.937	0.981
684.000	738.287	80.012	19.993	103.210	19.906	7.768	1.027
685.000	739.250	80.005	19.995	103.208	19.903	7.974	0.994
686.000	740.277	80.017	19.993	103.203	19.904	7.946	1.015