File: 01_Data/Oak_HWF/Oak_HWF_MCC_60K_min_211104_R2.txt
Sample ID:	C:\MCC\MCC Cal\Test\Oak_HWF_MCC_30K_min_211104_R2.txt
Sample Weight (mg):	4.83
Heating Rate (C/s):	1
Combustor Temp (C):	900
N2 Flow Rate (cc/min):	80
O2 Flow Rate (cc/min):	20
Calibration File:	C:\MCC\MCC Cal\Coeff1 JN10440_30_210304.txt.txt
T Correction Coefficients:	0	1.024463	0
Time Shift (s):	14
*
Time (s)	Temperature (C)	N2 flow rate (cc/min)	O2 flow rate (cc/min)	Flow Rate (cc/min)	Oxygen (%)	HRR (W/g)	Heating rate (C/s)
0.000	107.445	80.007	19.993	103.071	19.920	-0.338	0.001
1.000	107.438	80.007	19.993	103.072	19.914	0.088	-0.002
2.000	107.413	80.005	19.994	103.071	19.918	-0.214	-0.009
3.000	107.405	80.007	19.994	103.065	19.914	0.025	-0.010
4.000	107.439	80.006	19.994	103.061	19.915	-0.014	0.031
5.000	107.395	80.005	19.995	103.068	19.914	0.041	-0.039
6.000	107.390	80.005	19.996	103.070	19.912	0.161	-0.022
7.000	107.393	80.005	19.995	103.077	19.912	0.172	-0.006
8.001	107.365	80.005	19.995	103.092	19.912	0.179	-0.001
9.000	107.385	80.003	19.995	103.112	19.907	0.531	0.018
10.000	107.411	80.005	19.994	103.146	19.901	0.950	0.012
11.000	107.446	80.004	19.995	103.199	19.896	1.224	0.028
12.000	107.433	80.005	19.995	103.240	19.892	1.502	-0.014
13.000	107.525	80.006	19.995	103.258	19.884	2.051	0.071
14.000	107.538	80.004	19.995	103.284	19.881	2.282	0.045
15.000	107.623	80.005	19.995	103.320	19.878	2.438	0.059
16.000	107.671	80.005	19.995	103.344	19.874	2.735	0.052
17.000	107.748	80.003	19.995	103.359	19.869	3.066	0.069
18.000	107.837	80.003	19.995	103.366	19.868	3.125	0.118
19.000	107.980	80.005	19.995	103.370	19.865	3.330	0.123
20.000	108.091	80.005	19.995	103.369	19.864	3.407	0.106
21.000	108.269	80.005	19.995	103.373	19.863	3.441	0.144
22.000	108.416	80.004	19.995	103.384	19.862	3.524	0.170
23.000	108.578	80.006	19.995	103.396	19.863	3.476	0.162
24.000	108.739	80.006	19.995	103.395	19.860	3.694	0.161
25.000	108.978	80.007	19.996	103.398	19.857	3.895	0.206
26.000	109.184	80.004	19.995	103.407	19.856	3.954	0.223
27.000	109.388	80.005	19.995	103.401	19.851	4.295	0.224
28.000	109.614	80.003	19.995	103.400	19.851	4.247	0.198
29.000	109.872	80.006	19.996	103.404	19.853	4.158	0.264
30.000	110.127	80.006	19.994	103.416	19.850	4.324	0.241
31.000	110.404	80.005	19.994	103.421	19.847	4.532	0.268
32.000	110.684	80.006	19.995	103.428	19.845	4.639	0.301
33.001	110.947	80.006	19.994	103.434	19.851	4.280	0.282
34.000	111.304	80.004	19.994	103.446	19.846	4.604	0.322
35.000	111.610	80.006	19.995	103.453	19.845	4.680	0.299
36.000	111.970	80.004	19.994	103.462	19.839	5.097	0.354
37.000	112.305	80.006	19.994	103.461	19.840	4.993	0.336
38.001	112.652	80.004	19.994	103.459	19.836	5.261	0.329
39.001	112.981	80.004	19.994	103.470	19.836	5.277	0.340
40.000	113.406	80.006	19.994	103.484	19.844	4.740	0.402
41.000	113.804	80.005	19.994	103.484	19.836	5.285	0.417
42.000	114.217	80.008	19.995	103.483	19.834	5.374	0.402
43.001	114.620	80.005	19.994	103.483	19.837	5.211	0.388
44.000	115.041	80.006	19.994	103.487	19.832	5.529	0.434
45.001	115.469	80.005	19.993	103.496	19.834	5.423	0.426
46.000	115.869	80.006	19.994	103.502	19.832	5.543	0.429
47.001	116.403	80.007	19.995	103.502	19.834	5.437	0.478
48.000	116.849	80.006	19.995	103.505	19.833	5.439	0.477
49.001	117.368	80.007	19.994	103.516	19.830	5.654	0.479
50.000	117.831	80.006	19.994	103.522	19.830	5.688	0.479
51.000	118.332	80.008	19.995	103.523	19.829	5.720	0.511
52.000	118.840	80.007	19.994	103.523	19.830	5.697	0.528
53.000	119.361	80.007	19.995	103.524	19.833	5.477	0.513
54.000	119.930	80.008	19.994	103.529	19.827	5.861	0.548
55.000	120.523	80.007	19.995	103.529	19.827	5.858	0.570
56.000	121.082	80.007	19.993	103.527	19.828	5.838	0.568
57.001	121.634	80.006	19.995	103.523	19.826	5.946	0.552
58.001	122.219	80.007	19.994	103.523	19.825	6.031	0.593
59.000	122.820	80.007	19.994	103.523	19.828	5.781	0.592
60.000	123.430	80.006	19.993	103.524	19.825	6.018	0.617
61.000	124.041	80.007	19.995	103.526	19.828	5.792	0.601
62.000	124.702	80.007	19.995	103.531	19.825	5.976	0.644
63.000	125.338	80.007	19.994	103.531	19.826	5.939	0.626
64.000	125.971	80.006	19.994	103.533	19.824	6.073	0.639
65.001	126.610	80.006	19.994	103.535	19.822	6.226	0.644
66.000	127.297	80.008	19.994	103.550	19.824	6.059	0.660
67.000	127.989	80.007	19.995	103.552	19.827	5.866	0.687
68.000	128.606	80.007	19.995	103.560	19.827	5.899	0.651
69.000	129.301	80.007	19.994	103.561	19.827	5.854	0.694
70.000	129.972	80.006	19.994	103.563	19.827	5.855	0.684
71.000	130.674	80.008	19.993	103.560	19.823	6.150	0.688
72.000	131.395	80.007	19.993	103.557	19.826	5.951	0.710
73.000	132.135	80.008	19.993	103.554	19.824	6.042	0.726
74.000	132.865	80.007	19.993	103.559	19.826	5.971	0.728
75.001	133.571	80.008	19.994	103.552	19.821	6.271	0.720
76.000	134.347	80.009	19.994	103.555	19.823	6.122	0.743
77.001	135.097	80.008	19.993	103.557	19.823	6.139	0.761
78.000	135.851	80.008	19.994	103.545	19.820	6.310	0.757
79.000	136.581	80.007	19.994	103.543	19.820	6.351	0.748
80.000	137.417	80.008	19.994	103.548	19.824	6.080	0.796
81.001	138.219	80.007	19.995	103.557	19.821	6.252	0.800
82.000	138.932	80.008	19.995	103.555	19.823	6.128	0.750
83.000	139.770	80.007	19.993	103.550	19.826	5.962	0.823
84.001	140.587	80.007	19.995	103.546	19.825	6.012	0.802
85.000	141.397	80.006	19.994	103.554	19.822	6.218	0.798
86.000	142.211	80.007	19.994	103.559	19.824	6.070	0.830
87.000	142.990	80.006	19.994	103.558	19.825	6.028	0.800
88.000	143.871	80.005	19.995	103.555	19.821	6.243	0.847
89.000	144.677	80.005	19.994	103.553	19.821	6.272	0.812
90.000	145.552	80.005	19.995	103.555	19.820	6.333	0.857
91.000	146.364	80.005	19.995	103.556	19.819	6.399	0.843
92.000	147.167	80.006	19.995	103.555	19.824	6.084	0.807
93.000	148.048	80.006	19.994	103.550	19.823	6.169	0.875
94.000	148.963	80.006	19.994	103.550	19.822	6.239	0.891
95.000	149.860	80.006	19.994	103.550	19.820	6.314	0.894
96.000	150.732	80.005	19.995	103.557	19.821	6.307	0.861
97.000	151.585	80.005	19.993	103.556	19.822	6.178	0.894
98.000	152.502	80.007	19.995	103.553	19.823	6.165	0.878
99.000	153.382	80.007	19.995	103.549	19.824	6.055	0.888
100.000	154.288	80.006	19.996	103.551	19.822	6.179	0.893
101.000	155.147	80.005	19.995	103.555	19.824	6.046	0.889
102.000	156.008	80.005	19.994	103.552	19.827	5.885	0.865
103.000	156.971	80.005	19.994	103.550	19.820	6.328	0.932
104.000	157.884	80.005	19.994	103.542	19.823	6.138	0.923
105.000	158.765	80.005	19.995	103.534	19.822	6.229	0.891
106.000	159.719	80.005	19.995	103.534	19.823	6.130	0.927
107.000	160.661	80.006	19.994	103.539	19.826	5.937	0.957
108.000	161.583	80.006	19.994	103.538	19.825	5.983	0.928
109.000	162.504	80.007	19.996	103.535	19.829	5.743	0.911
110.001	163.453	80.004	19.995	103.527	19.826	5.908	0.964
111.000	164.418	80.006	19.994	103.522	19.824	6.092	0.951
112.001	165.420	80.006	19.995	103.522	19.828	5.834	0.987
113.001	166.352	80.006	19.995	103.523	19.826	5.954	0.946
114.000	167.308	80.006	19.996	103.524	19.826	5.940	0.971
115.000	168.263	80.006	19.995	103.523	19.824	6.053	0.952
116.001	169.262	80.006	19.996	103.523	19.827	5.871	0.988
117.000	170.190	80.005	19.994	103.523	19.826	5.913	0.930
118.000	171.210	80.005	19.996	103.523	19.827	5.904	1.006
119.000	172.118	80.005	19.996	103.522	19.828	5.775	0.924
120.000	173.142	80.005	19.995	103.520	19.828	5.786	1.008
121.000	174.147	80.007	19.995	103.519	19.830	5.669	1.019
122.000	175.107	80.005	19.995	103.518	19.828	5.834	0.944
123.000	176.105	80.007	19.995	103.513	19.830	5.682	1.011
124.000	177.108	80.005	19.994	103.513	19.827	5.884	0.980
125.000	178.090	80.005	19.995	103.516	19.829	5.735	0.995
126.000	179.111	80.007	19.994	103.522	19.831	5.597	1.020
127.000	180.087	80.006	19.995	103.523	19.830	5.690	0.989
128.000	181.089	80.007	19.994	103.521	19.829	5.758	1.005
129.000	182.124	80.005	19.993	103.517	19.826	5.940	1.015
130.000	183.130	80.006	19.995	103.514	19.826	5.926	0.999
131.000	184.150	80.008	19.994	103.510	19.826	5.917	1.008
132.000	185.168	80.008	19.994	103.508	19.827	5.859	1.034
133.000	186.207	80.008	19.994	103.505	19.831	5.602	1.019
134.000	187.241	80.007	19.994	103.509	19.827	5.876	1.049
135.000	188.274	80.008	19.995	103.502	19.826	5.956	1.020
136.000	189.297	80.007	19.994	103.502	19.831	5.587	1.049
137.000	190.346	80.007	19.994	103.499	19.826	5.919	1.031
138.000	191.357	80.008	19.994	103.494	19.826	5.963	1.024
139.000	192.419	80.008	19.994	103.490	19.831	5.632	1.023
140.000	193.416	80.008	19.994	103.487	19.831	5.628	1.022
141.000	194.466	80.007	19.994	103.485	19.828	5.776	1.048
142.000	195.469	80.008	19.994	103.484	19.828	5.827	1.001
143.000	196.470	80.006	19.994	103.484	19.827	5.837	1.018
144.000	197.498	80.006	19.994	103.487	19.828	5.830	1.035
145.000	198.566	80.005	19.995	103.487	19.829	5.760	1.029
146.000	199.576	80.006	19.995	103.487	19.833	5.493	1.022
147.000	200.611	80.007	19.995	103.488	19.829	5.758	1.037
148.000	201.649	80.007	19.995	103.487	19.830	5.699	1.049
149.000	202.721	80.008	19.993	103.487	19.831	5.618	1.045
150.000	203.746	80.007	19.995	103.483	19.831	5.575	1.046
151.000	204.763	80.008	19.994	103.478	19.827	5.855	1.027
152.000	205.812	80.006	19.993	103.474	19.834	5.392	1.047
153.000	206.893	80.008	19.994	103.476	19.826	5.906	1.065
154.000	207.946	80.008	19.994	103.471	19.829	5.750	1.037
155.000	208.972	80.009	19.994	103.462	19.827	5.858	1.039
156.000	209.994	80.009	19.994	103.467	19.824	6.085	1.043
157.000	211.054	80.009	19.994	103.466	19.827	5.865	1.054
158.001	212.071	80.008	19.994	103.459	19.828	5.811	1.027
159.000	213.137	80.009	19.994	103.460	19.825	5.970	1.054
160.000	214.196	80.010	19.993	103.464	19.822	6.214	1.067
161.000	215.225	80.009	19.993	103.458	19.819	6.395	1.022
162.000	216.249	80.009	19.993	103.446	19.820	6.350	1.033
163.000	217.293	80.010	19.994	103.448	19.820	6.312	1.042
164.000	218.356	80.009	19.993	103.448	19.819	6.380	1.053
165.000	219.390	80.008	19.994	103.451	19.814	6.733	1.040
166.000	220.430	80.009	19.995	103.452	19.818	6.490	1.026
167.000	221.455	80.009	19.993	103.449	19.819	6.436	1.019
168.000	222.496	80.008	19.994	103.448	19.814	6.731	1.057
169.000	223.561	80.006	19.994	103.449	19.809	7.061	1.066
170.000	224.546	80.006	19.994	103.449	19.806	7.288	1.006
171.000	225.612	80.007	19.996	103.449	19.806	7.283	1.032
172.000	226.600	80.006	19.995	103.453	19.803	7.466	1.008
173.000	227.599	80.007	19.994	103.453	19.802	7.514	1.000
174.000	228.690	80.006	19.994	103.448	19.798	7.822	1.086
175.000	229.741	80.006	19.994	103.448	19.796	7.937	1.030
176.000	230.748	80.006	19.994	103.449	19.793	8.119	1.042
177.000	231.793	80.005	19.995	103.452	19.789	8.390	1.029
178.000	232.796	80.006	19.995	103.451	19.784	8.720	0.998
179.000	233.848	80.005	19.995	103.452	19.783	8.820	1.055
180.000	234.919	80.005	19.995	103.450	19.780	9.031	1.068
181.000	235.915	80.006	19.996	103.451	19.775	9.369	1.011
182.000	236.948	80.004	19.995	103.455	19.773	9.504	1.030
183.000	237.979	80.007	19.994	103.453	19.764	10.095	1.020
184.001	238.997	80.005	19.994	103.456	19.764	10.098	1.021
185.000	239.948	80.007	19.995	103.453	19.762	10.234	0.977
186.000	241.011	80.006	19.994	103.453	19.764	10.107	1.031
187.000	241.988	80.007	19.996	103.454	19.757	10.550	1.002
188.000	242.995	80.007	19.995	103.459	19.754	10.738	1.021
189.000	244.019	80.006	19.995	103.463	19.748	11.181	1.009
190.000	245.035	80.006	19.994	103.457	19.742	11.525	1.015
191.000	246.076	80.006	19.994	103.451	19.742	11.535	1.011
192.000	247.055	80.007	19.995	103.451	19.739	11.742	0.986
193.000	248.035	80.008	19.995	103.454	19.735	12.019	1.000
194.000	249.073	80.007	19.995	103.453	19.728	12.486	1.017
195.000	250.098	80.007	19.994	103.450	19.729	12.432	1.040
196.000	251.132	80.005	19.994	103.451	19.720	13.033	1.007
197.000	252.116	80.007	19.994	103.454	19.718	13.182	1.015
198.000	253.098	80.006	19.993	103.454	19.715	13.337	0.989
199.000	254.057	80.005	19.994	103.457	19.710	13.668	0.957
200.000	255.074	80.006	19.995	103.460	19.705	14.038	1.018
201.000	256.093	80.006	19.993	103.464	19.700	14.391	1.008
202.000	257.103	80.006	19.995	103.460	19.699	14.455	1.008
203.000	258.091	80.006	19.995	103.469	19.689	15.109	0.986
204.000	259.106	80.004	19.995	103.479	19.684	15.455	1.025
205.000	260.040	80.004	19.996	103.485	19.679	15.798	0.955
206.000	261.014	80.005	19.996	103.483	19.673	16.163	0.953
207.000	261.968	80.004	19.995	103.479	19.665	16.702	0.966
208.000	263.005	80.004	19.995	103.481	19.654	17.414	1.024
209.000	263.976	80.004	19.996	103.489	19.644	18.108	0.969
210.000	264.909	80.004	19.996	103.498	19.646	17.963	0.954
211.000	265.905	80.003	19.995	103.506	19.629	19.115	0.981
212.000	266.968	80.004	19.996	103.506	19.618	19.827	1.036
213.000	267.922	80.007	19.996	103.505	19.607	20.598	0.958
214.000	268.877	80.007	19.995	103.515	19.600	21.048	0.994
215.000	269.924	80.007	19.995	103.526	19.594	21.457	0.996
216.000	270.906	80.007	19.995	103.525	19.582	22.275	1.002
217.000	271.880	80.007	19.994	103.526	19.569	23.111	0.991
218.000	272.891	80.007	19.995	103.528	19.556	24.027	1.021
219.000	273.856	80.007	19.994	103.528	19.546	24.664	0.943
220.000	274.865	80.007	19.994	103.535	19.532	25.650	0.995
221.000	275.887	80.008	19.995	103.545	19.513	26.892	0.967
222.000	276.701	80.009	19.994	103.549	19.502	27.656	0.907
223.000	277.526	80.007	19.994	103.554	19.485	28.765	0.957
224.000	278.751	80.008	19.994	103.561	19.472	29.661	1.190
225.000	279.801	80.008	19.994	103.562	19.459	30.541	0.929
226.000	280.638	80.008	19.994	103.573	19.442	31.668	0.855
227.000	281.577	80.007	19.995	103.583	19.426	32.709	0.994
228.000	282.625	80.007	19.994	103.592	19.409	33.878	0.963
229.000	283.594	80.008	19.994	103.594	19.394	34.863	0.973
230.000	284.542	80.008	19.995	103.600	19.383	35.615	0.973
231.000	285.501	80.008	19.994	103.602	19.362	37.052	0.942
232.000	286.518	80.006	19.994	103.606	19.341	38.402	1.004
233.000	287.488	80.008	19.995	103.617	19.326	39.431	0.981
234.000	288.440	80.008	19.995	103.624	19.308	40.644	0.963
235.000	289.369	80.006	19.994	103.630	19.292	41.735	0.961
236.000	290.392	80.008	19.994	103.632	19.272	43.053	1.000
237.000	291.363	80.007	19.995	103.646	19.259	43.935	0.931
238.000	292.317	80.009	19.995	103.652	19.233	45.676	1.005
239.000	293.309	80.011	19.995	103.661	19.215	46.900	0.968
240.000	294.284	80.009	19.995	103.667	19.197	48.112	0.955
241.000	295.238	80.008	19.995	103.673	19.173	49.699	1.003
242.000	296.209	80.009	19.994	103.677	19.160	50.595	0.949
243.000	297.164	80.009	19.994	103.678	19.138	52.032	0.960
244.000	298.178	80.008	19.994	103.678	19.122	53.109	0.999
245.000	299.099	80.009	19.994	103.679	19.102	54.442	0.962
246.000	300.077	80.008	19.993	103.683	19.085	55.603	0.972
247.000	301.098	80.008	19.994	103.693	19.067	56.830	0.999
248.000	302.046	80.008	19.994	103.707	19.042	58.497	0.957
249.000	302.979	80.008	19.994	103.719	19.026	59.578	0.956
250.000	304.001	80.008	19.995	103.717	19.005	60.982	0.991
251.000	304.969	80.008	19.996	103.714	18.987	62.203	0.974
252.000	305.959	80.006	19.995	103.721	18.971	63.236	0.973
253.000	306.954	80.008	19.994	103.728	18.957	64.191	0.978
254.000	307.865	80.006	19.995	103.737	18.939	65.427	0.955
255.000	308.875	80.006	19.994	103.737	18.918	66.833	0.999
256.000	309.849	80.007	19.994	103.736	18.903	67.825	0.976
257.000	310.835	80.006	19.995	103.738	18.886	68.975	0.997
258.000	311.862	80.008	19.994	103.739	18.868	70.138	0.987
259.000	312.836	80.007	19.994	103.751	18.856	70.957	0.985
260.000	313.844	80.007	19.994	103.756	18.841	71.973	1.008
261.000	314.818	80.006	19.995	103.756	18.821	73.306	0.987
262.000	315.756	80.007	19.993	103.760	18.809	74.113	0.950
263.000	316.793	80.006	19.994	103.762	18.795	75.109	1.012
264.000	317.775	80.006	19.993	103.763	18.778	76.219	0.963
265.000	318.716	80.007	19.992	103.765	18.767	76.951	0.965
266.000	319.745	80.006	19.994	103.764	18.750	78.094	1.002
267.000	320.714	80.007	19.994	103.762	18.738	78.936	0.985
268.000	321.686	80.005	19.993	103.762	18.725	79.804	0.976
269.000	322.659	80.006	19.995	103.764	18.711	80.758	0.978
270.000	323.655	80.007	19.995	103.768	18.695	81.839	0.991
271.000	324.619	80.007	19.995	103.781	18.684	82.529	0.977
272.000	325.629	80.006	19.995	103.788	18.671	83.443	0.996
273.000	326.588	80.007	19.994	103.789	18.654	84.573	1.009
274.000	327.591	80.006	19.995	103.795	18.645	85.171	0.961
275.000	328.596	80.008	19.995	103.800	18.636	85.811	1.004
276.001	329.586	80.006	19.995	103.800	18.617	87.050	0.997
277.000	330.586	80.007	19.995	103.805	18.604	87.953	0.997
278.000	331.544	80.006	19.995	103.820	18.586	89.184	0.979
279.000	332.565	80.006	19.995	103.833	18.574	89.976	0.990
280.000	333.580	80.006	19.995	103.823	18.557	91.141	1.029
281.000	334.572	80.006	19.995	103.821	18.541	92.253	0.980
282.000	335.588	80.006	19.995	103.835	18.525	93.299	1.015
283.000	336.599	80.005	19.994	103.847	18.509	94.398	1.009
284.000	337.572	80.005	19.994	103.850	18.493	95.466	0.985
285.000	338.599	80.006	19.995	103.859	18.470	97.008	1.021
286.000	339.606	80.008	19.996	103.870	18.445	98.689	1.003
287.000	340.595	80.007	19.995	103.874	18.429	99.795	1.002
288.000	341.621	80.005	19.995	103.875	18.405	101.435	1.004
289.000	342.622	80.005	19.995	103.888	18.387	102.642	1.012
290.000	343.584	80.005	19.995	103.904	18.361	104.430	0.990
291.000	344.596	80.005	19.994	103.916	18.338	105.958	0.982
292.000	345.612	80.006	19.995	103.926	18.315	107.528	1.014
293.000	346.590	80.006	19.995	103.938	18.288	109.319	0.991
294.000	347.641	80.007	19.995	103.947	18.262	111.076	1.029
295.000	348.620	80.007	19.995	103.955	18.234	112.960	1.001
296.000	349.643	80.006	19.995	103.971	18.206	114.805	0.999
297.000	350.641	80.007	19.995	103.979	18.178	116.708	1.006
298.000	351.641	80.008	19.997	103.983	18.153	118.385	1.009
299.000	352.673	80.008	19.996	103.987	18.118	120.761	1.002
300.000	353.695	80.007	19.994	104.001	18.092	122.513	1.041
301.000	354.708	80.007	19.995	104.016	18.064	124.370	1.026
302.000	355.719	80.008	19.996	104.026	18.037	126.176	1.015
303.000	356.731	80.008	19.995	104.028	18.009	128.009	1.007
304.000	357.721	80.007	19.994	104.028	17.983	129.757	1.004
305.000	358.765	80.007	19.995	104.029	17.959	131.342	1.030
306.000	359.755	80.006	19.996	104.029	17.935	132.897	1.000
307.000	360.761	80.005	19.995	104.030	17.911	134.485	0.984
308.000	361.764	80.008	19.996	104.030	17.889	135.991	1.009
309.000	362.782	80.007	19.996	104.029	17.873	137.020	1.034
310.000	363.781	80.007	19.996	104.028	17.855	138.170	0.980
311.000	364.790	80.007	19.994	104.026	17.844	138.872	1.008
312.000	365.826	80.007	19.996	104.024	17.830	139.782	1.030
313.000	366.827	80.008	19.996	104.015	17.821	140.324	1.029
314.000	367.833	80.008	19.995	103.999	17.814	140.749	0.995
315.000	368.862	80.008	19.995	103.977	17.816	140.552	1.019
316.000	369.870	80.007	19.994	103.958	17.825	139.904	0.996
317.000	370.872	80.009	19.995	103.942	17.833	139.296	1.011
318.000	371.878	80.007	19.994	103.923	17.845	138.436	1.016
319.000	372.901	80.006	19.993	103.897	17.858	137.529	1.034
320.000	373.961	80.009	19.994	103.874	17.879	136.062	1.033
321.001	374.982	80.007	19.993	103.845	17.907	134.170	1.011
322.000	375.961	80.010	19.994	103.816	17.941	131.805	1.005
323.000	376.995	80.008	19.992	103.784	17.985	128.882	1.044
324.000	378.017	80.009	19.992	103.751	18.029	125.892	1.001
325.000	379.036	80.008	19.994	103.711	18.079	122.513	1.017
326.000	380.032	80.009	19.993	103.667	18.128	119.254	1.009
327.000	381.090	80.009	19.994	103.627	18.187	115.290	1.045
328.000	382.059	80.008	19.993	103.587	18.258	110.538	0.983
329.000	383.082	80.008	19.994	103.552	18.330	105.748	1.010
330.000	384.093	80.008	19.993	103.516	18.403	100.917	1.020
331.000	385.102	80.010	19.994	103.468	18.477	95.935	1.017
332.000	386.138	80.009	19.995	103.424	18.557	90.625	1.031
333.000	387.185	80.008	19.993	103.388	18.634	85.474	1.004
334.000	388.166	80.007	19.994	103.369	18.717	79.944	1.021
335.000	389.186	80.005	19.993	103.348	18.797	74.620	1.021
336.000	390.175	80.006	19.995	103.323	18.881	68.995	1.005
337.000	391.215	80.006	19.994	103.309	18.949	64.500	1.043
338.000	392.242	80.007	19.995	103.300	19.028	59.188	1.017
339.000	393.280	80.006	19.994	103.301	19.097	54.610	1.028
340.000	394.290	80.005	19.993	103.308	19.159	50.438	1.027
341.000	395.350	80.006	19.994	103.318	19.222	46.263	1.045
342.000	396.370	80.007	19.994	103.321	19.277	42.577	0.998
343.000	397.393	80.005	19.993	103.324	19.326	39.290	1.027
344.000	398.365	80.006	19.994	103.330	19.372	36.246	0.997
345.000	399.395	80.006	19.993	103.332	19.417	33.208	1.019
346.000	400.412	80.006	19.994	103.334	19.450	31.046	1.031
347.000	401.430	80.007	19.995	103.335	19.480	28.987	1.025
348.000	402.441	80.006	19.994	103.335	19.504	27.400	1.000
349.000	403.435	80.007	19.995	103.333	19.535	25.353	0.984
350.000	404.466	80.008	19.995	103.332	19.554	24.056	1.027
351.000	405.463	80.007	19.994	103.319	19.573	22.790	1.005
352.000	406.466	80.008	19.994	103.314	19.581	22.254	1.018
353.000	407.456	80.006	19.994	103.307	19.603	20.788	0.982
354.000	408.503	80.007	19.993	103.313	19.613	20.125	1.054
355.000	409.512	80.007	19.993	103.311	19.625	19.324	0.990
356.000	410.477	80.008	19.994	103.313	19.633	18.787	0.995
357.000	411.514	80.009	19.993	103.315	19.643	18.125	1.022
358.000	412.580	80.006	19.992	103.317	19.657	17.222	1.025
359.000	413.530	80.008	19.994	103.309	19.655	17.340	0.992
360.000	414.503	80.006	19.993	103.297	19.664	16.719	0.967
361.000	415.498	80.007	19.994	103.292	19.672	16.190	1.001
362.000	416.494	80.007	19.993	103.301	19.675	16.010	0.996
363.000	417.514	80.007	19.993	103.311	19.682	15.525	1.034
364.000	418.518	80.007	19.994	103.315	19.686	15.283	0.986
365.000	419.511	80.007	19.995	103.306	19.693	14.771	0.987
366.000	420.497	80.006	19.993	103.308	19.700	14.328	0.979
367.000	421.484	80.006	19.995	103.315	19.696	14.629	1.012
368.000	422.504	80.006	19.994	103.322	19.702	14.207	1.008
369.000	423.505	80.007	19.994	103.322	19.711	13.634	1.006
370.000	424.479	80.006	19.995	103.316	19.705	13.988	0.985
371.000	425.525	80.006	19.994	103.320	19.711	13.607	1.025
372.000	426.534	80.007	19.995	103.323	19.718	13.143	1.011
373.000	427.516	80.006	19.995	103.317	19.720	12.984	0.994
374.000	428.524	80.006	19.996	103.314	19.721	12.945	0.995
375.000	429.526	80.008	19.995	103.308	19.724	12.763	1.001
376.000	430.556	80.008	19.996	103.306	19.731	12.242	1.009
377.000	431.542	80.007	19.994	103.300	19.726	12.595	0.998
378.000	432.555	80.009	19.994	103.303	19.734	12.092	1.004
379.000	433.537	80.007	19.995	103.304	19.731	12.248	1.003
380.000	434.621	80.010	19.995	103.308	19.738	11.817	1.060
381.000	435.606	80.007	19.994	103.307	19.741	11.599	1.000
382.000	436.593	80.007	19.995	103.297	19.743	11.490	0.991
383.000	437.636	80.009	19.996	103.289	19.744	11.402	1.024
384.000	438.577	80.007	19.995	103.291	19.746	11.261	0.987
385.000	439.580	80.008	19.995	103.291	19.747	11.219	1.001
386.000	440.640	80.008	19.993	103.292	19.747	11.225	0.995
387.000	441.585	80.008	19.995	103.291	19.751	10.903	0.993
388.000	442.562	80.008	19.993	103.295	19.750	10.987	0.972
389.000	443.562	80.008	19.994	103.294	19.760	10.338	1.026
390.000	444.571	80.008	19.996	103.292	19.756	10.628	0.993
391.000	445.532	80.007	19.994	103.289	19.760	10.359	0.954
392.000	446.523	80.007	19.995	103.290	19.762	10.173	1.014
393.000	447.513	80.006	19.995	103.292	19.764	10.086	0.947
394.000	448.489	80.008	19.995	103.292	19.770	9.694	1.007
395.000	449.499	80.007	19.996	103.290	19.767	9.882	0.995
396.001	450.497	80.006	19.995	103.288	19.771	9.591	0.995
397.000	451.461	80.008	19.995	103.289	19.774	9.371	0.972
398.000	452.461	80.008	19.996	103.289	19.776	9.256	1.000
399.000	453.452	80.007	19.995	103.290	19.780	8.974	0.985
400.000	454.452	80.007	19.995	103.290	19.776	9.241	0.992
401.000	455.411	80.007	19.996	103.290	19.778	9.112	0.979
402.000	456.380	80.007	19.996	103.288	19.785	8.656	0.970
403.000	457.390	80.009	19.996	103.288	19.787	8.499	1.012
404.000	458.342	80.009	19.996	103.288	19.789	8.396	0.982
405.000	459.431	80.009	19.994	103.289	19.790	8.360	1.034
406.000	460.422	80.009	19.996	103.289	19.792	8.183	0.998
407.000	461.342	80.009	19.994	103.290	19.794	8.078	0.928
408.000	462.345	80.008	19.996	103.289	19.793	8.124	0.992
409.000	463.358	80.010	19.995	103.289	19.794	8.061	1.024
410.000	464.326	80.008	19.995	103.289	19.796	7.897	0.970
411.000	465.280	80.009	19.995	103.283	19.799	7.745	0.945
412.000	466.269	80.009	19.993	103.278	19.801	7.563	1.005
413.000	467.271	80.009	19.994	103.274	19.799	7.711	0.995
414.000	468.239	80.007	19.994	103.279	19.801	7.583	0.967
415.000	469.241	80.008	19.994	103.285	19.806	7.259	0.991
416.000	470.191	80.009	19.995	103.286	19.803	7.441	0.958
417.000	471.208	80.007	19.994	103.284	19.808	7.146	1.015
418.001	472.202	80.007	19.994	103.285	19.805	7.327	0.984
419.000	473.183	80.006	19.995	103.285	19.807	7.198	0.982
420.000	474.210	80.008	19.995	103.284	19.804	7.361	1.024
421.000	475.200	80.006	19.994	103.284	19.813	6.803	0.988
422.000	476.178	80.007	19.994	103.283	19.812	6.846	1.007
423.000	477.242	80.006	19.995	103.284	19.809	7.053	1.036
424.000	478.156	80.007	19.994	103.285	19.813	6.797	0.938
425.000	479.164	80.007	19.994	103.288	19.818	6.461	1.042
426.000	480.185	80.006	19.994	103.289	19.815	6.674	0.977
427.000	481.207	80.006	19.994	103.289	19.820	6.340	1.033
428.000	482.243	80.006	19.995	103.289	19.817	6.520	1.019
429.000	483.259	80.008	19.994	103.289	19.819	6.364	1.000
430.000	484.248	80.007	19.995	103.289	19.824	6.035	1.015
431.000	485.255	80.007	19.995	103.287	19.820	6.345	1.003
432.000	486.297	80.007	19.994	103.287	19.826	5.895	1.053
433.000	487.351	80.007	19.994	103.287	19.822	6.166	1.011
434.000	488.338	80.006	19.994	103.287	19.822	6.211	1.009
435.001	489.354	80.008	19.994	103.284	19.825	6.000	1.019
436.000	490.421	80.008	19.995	103.285	19.827	5.857	1.069
437.000	491.433	80.008	19.995	103.285	19.824	6.054	0.998
438.000	492.440	80.007	19.994	103.284	19.823	6.095	1.020
439.000	493.489	80.008	19.995	103.278	19.829	5.716	1.026
440.000	494.555	80.007	19.994	103.277	19.828	5.800	1.070
441.000	495.576	80.007	19.995	103.277	19.829	5.719	1.035
442.000	496.620	80.007	19.994	103.284	19.830	5.664	1.033
443.000	497.652	80.008	19.994	103.283	19.832	5.546	1.032
444.000	498.673	80.006	19.994	103.281	19.833	5.450	1.035
445.000	499.713	80.008	19.994	103.278	19.828	5.795	1.050
446.000	500.732	80.007	19.994	103.280	19.831	5.600	1.007
447.000	501.762	80.007	19.994	103.283	19.836	5.280	1.046
448.000	502.793	80.008	19.995	103.283	19.838	5.131	1.005
449.000	503.794	80.007	19.995	103.282	19.837	5.216	1.014
450.000	504.853	80.006	19.995	103.280	19.834	5.400	1.058
451.000	505.832	80.006	19.995	103.283	19.834	5.363	1.018
452.000	506.874	80.007	19.993	103.285	19.831	5.619	1.007
453.000	507.944	80.007	19.995	103.285	19.837	5.168	1.058
454.000	508.970	80.006	19.995	103.285	19.839	5.050	1.027
455.000	510.043	80.007	19.994	103.289	19.838	5.113	1.066
456.000	511.052	80.007	19.995	103.287	19.841	4.934	1.021
457.000	512.085	80.005	19.995	103.287	19.839	5.032	1.043
458.000	513.082	80.005	19.994	103.289	19.846	4.612	0.993
459.000	514.133	80.006	19.995	103.286	19.839	5.085	1.041
460.000	515.210	80.008	19.994	103.271	19.842	4.840	1.065
461.000	516.217	80.007	19.994	103.262	19.842	4.840	1.017
462.000	517.310	80.008	19.995	103.265	19.841	4.944	1.080
463.001	518.326	80.008	19.996	103.278	19.839	5.041	1.051
464.000	519.362	80.009	19.995	103.271	19.841	4.923	1.025
465.000	520.402	80.007	19.995	103.267	19.843	4.767	1.040
466.000	521.430	80.008	19.995	103.272	19.842	4.876	1.013
467.000	522.463	80.008	19.996	103.283	19.844	4.726	1.025
468.000	523.507	80.008	19.995	103.276	19.843	4.758	1.060
469.000	524.559	80.008	19.994	103.265	19.840	5.011	1.033
470.000	525.589	80.008	19.995	103.257	19.845	4.664	1.043
471.000	526.583	80.008	19.995	103.259	19.843	4.792	1.018
472.000	527.630	80.009	19.995	103.259	19.846	4.561	1.053
473.000	528.679	80.007	19.994	103.263	19.845	4.626	1.032
474.000	529.685	80.007	19.994	103.265	19.846	4.583	1.012
475.000	530.677	80.008	19.995	103.260	19.843	4.760	0.992
476.000	531.719	80.007	19.995	103.257	19.845	4.670	1.033
477.000	532.745	80.008	19.995	103.258	19.847	4.499	1.039
478.000	533.794	80.008	19.994	103.258	19.846	4.578	1.026
479.000	534.808	80.008	19.994	103.261	19.844	4.713	1.028
480.000	535.843	80.008	19.994	103.270	19.847	4.498	1.028
481.000	536.865	80.008	19.994	103.275	19.850	4.352	1.022
482.000	537.878	80.007	19.994	103.262	19.848	4.434	1.018
483.000	538.883	80.008	19.995	103.253	19.849	4.386	1.010
484.000	539.904	80.008	19.996	103.255	19.852	4.179	1.020
485.000	540.868	80.009	19.995	103.254	19.845	4.657	0.975
486.000	541.893	80.010	19.995	103.251	19.852	4.170	1.015
487.000	542.924	80.008	19.997	103.251	19.851	4.280	1.021
488.000	543.915	80.008	19.995	103.263	19.846	4.559	0.996
489.000	544.905	80.009	19.997	103.263	19.855	4.018	1.007
490.000	545.941	80.008	19.996	103.252	19.852	4.162	1.005
491.000	546.947	80.009	19.994	103.248	19.851	4.245	1.016
492.000	547.957	80.009	19.995	103.249	19.854	4.052	1.015
493.000	548.985	80.010	19.995	103.249	19.849	4.388	1.025
494.000	549.954	80.010	19.996	103.248	19.848	4.431	0.989
495.000	550.990	80.010	19.995	103.248	19.853	4.132	1.008
496.000	551.998	80.009	19.994	103.246	19.850	4.295	1.003
497.000	553.018	80.009	19.995	103.247	19.850	4.320	1.042
498.001	554.028	80.007	19.995	103.249	19.852	4.157	0.988
499.000	555.003	80.006	19.996	103.250	19.857	3.834	0.997
500.000	556.008	80.006	19.995	103.248	19.857	3.855	1.015
501.000	557.030	80.007	19.996	103.247	19.859	3.735	1.007
502.000	557.994	80.005	19.995	103.250	19.859	3.702	0.970
503.000	559.022	80.007	19.995	103.251	19.857	3.823	1.028
504.000	560.013	80.006	19.996	103.250	19.859	3.698	0.995
505.000	560.998	80.007	19.994	103.249	19.859	3.750	0.965
506.000	562.000	80.006	19.995	103.253	19.854	4.088	1.015
507.001	562.998	80.008	19.995	103.253	19.850	4.334	0.997
508.000	563.998	80.006	19.994	103.250	19.853	4.104	1.006
509.000	564.941	80.006	19.995	103.250	19.854	4.036	0.966
510.000	566.001	80.008	19.995	103.254	19.855	4.004	1.020
511.000	566.968	80.005	19.995	103.254	19.857	3.828	0.986
512.000	567.982	80.007	19.993	103.252	19.860	3.662	1.017
513.000	569.027	80.009	19.995	103.253	19.856	3.900	1.034
514.000	570.036	80.007	19.994	103.253	19.860	3.682	1.007
515.000	571.035	80.007	19.995	103.253	19.856	3.937	1.012
516.000	572.051	80.008	19.994	103.250	19.858	3.775	1.004
517.000	573.020	80.007	19.994	103.251	19.856	3.919	0.985
518.000	574.037	80.007	19.994	103.251	19.855	3.957	1.005
519.000	575.032	80.006	19.995	103.252	19.857	3.823	1.008
520.000	576.074	80.008	19.994	103.252	19.854	4.038	1.025
521.000	577.034	80.007	19.995	103.252	19.855	3.984	0.981
522.000	578.057	80.007	19.994	103.251	19.856	3.909	1.014
523.000	579.068	80.006	19.994	103.251	19.855	3.991	1.009
524.000	580.068	80.008	19.995	103.251	19.859	3.752	1.005
525.000	581.067	80.008	19.994	103.252	19.855	3.961	0.993
526.000	582.111	80.006	19.994	103.248	19.855	3.982	1.035
527.000	583.109	80.008	19.994	103.248	19.856	3.900	0.987
528.000	584.096	80.007	19.994	103.246	19.857	3.878	0.989
529.000	585.088	80.008	19.995	103.251	19.853	4.109	1.011
530.000	586.101	80.006	19.995	103.252	19.860	3.686	1.010
531.000	587.090	80.006	19.994	103.254	19.853	4.109	0.996
532.000	588.116	80.007	19.995	103.254	19.854	4.023	0.994
533.000	589.085	80.006	19.995	103.253	19.857	3.834	0.994
534.000	590.083	80.007	19.994	103.253	19.855	3.959	0.986
535.000	591.063	80.007	19.995	103.253	19.858	3.821	0.999
536.000	592.083	80.006	19.994	103.254	19.856	3.952	1.011
537.000	593.114	80.007	19.994	103.254	19.852	4.200	1.020
538.000	594.142	80.006	19.994	103.254	19.850	4.341	1.018
539.000	595.155	80.007	19.996	103.252	19.852	4.159	1.023
540.000	596.144	80.006	19.994	103.252	19.855	4.009	1.002
541.000	597.121	80.007	19.994	103.255	19.855	4.016	0.994
542.000	598.165	80.006	19.995	103.256	19.857	3.880	1.014
543.000	599.160	80.008	19.994	103.255	19.855	4.009	1.011
544.000	600.115	80.008	19.994	103.260	19.855	3.975	0.963
545.000	601.140	80.007	19.994	103.259	19.857	3.832	1.015
546.000	602.156	80.008	19.994	103.257	19.856	3.902	1.014
547.000	603.179	80.009	19.995	103.258	19.859	3.751	1.008
548.000	604.162	80.008	19.994	103.257	19.860	3.646	1.013
549.000	605.167	80.009	19.994	103.253	19.857	3.863	0.994
550.000	606.181	80.009	19.995	103.250	19.857	3.863	0.993
551.000	607.149	80.008	19.994	103.251	19.858	3.766	0.985
552.000	608.133	80.009	19.995	103.249	19.859	3.744	0.996
553.000	609.173	80.008	19.993	103.246	19.858	3.782	1.030
554.000	610.160	80.009	19.995	103.246	19.859	3.750	0.988
555.000	611.179	80.008	19.994	103.244	19.859	3.739	0.998
556.000	612.206	80.008	19.995	103.246	19.855	3.973	1.034
557.000	613.201	80.007	19.995	103.249	19.857	3.883	1.031
558.000	614.203	80.007	19.995	103.246	19.858	3.758	0.984
559.000	615.231	80.006	19.995	103.238	19.857	3.830	1.002
560.000	616.252	80.007	19.995	103.231	19.856	3.946	1.037
561.000	617.236	80.007	19.996	103.233	19.855	3.973	1.012
562.000	618.288	80.009	19.996	103.244	19.857	3.850	1.023
563.000	619.294	80.007	19.995	103.247	19.857	3.875	0.995
564.000	620.287	80.008	19.995	103.247	19.861	3.610	1.001
565.000	621.318	80.008	19.996	103.247	19.859	3.753	1.004
566.000	622.304	80.008	19.994	103.248	19.858	3.758	1.029
567.000	623.310	80.007	19.995	103.245	19.858	3.776	0.952
568.000	624.326	80.010	19.996	103.240	19.858	3.798	1.061
569.000	625.307	80.008	19.995	103.236	19.856	3.941	0.995
570.000	626.371	80.009	19.994	103.241	19.859	3.705	1.024
571.000	627.352	80.008	19.993	103.247	19.852	4.210	1.008
572.000	628.403	80.009	19.995	103.248	19.855	4.012	1.030
573.000	629.376	80.010	19.994	103.248	19.858	3.792	0.992
574.000	630.402	80.008	19.994	103.247	19.855	3.973	1.014
575.000	631.401	80.010	19.994	103.247	19.855	4.012	1.000
576.000	632.403	80.008	19.995	103.246	19.857	3.841	1.019
577.000	633.433	80.009	19.994	103.243	19.856	3.934	1.021
578.000	634.492	80.008	19.994	103.241	19.855	3.973	1.041
579.000	635.533	80.009	19.994	103.241	19.853	4.141	1.040
580.000	636.520	80.007	19.995	103.242	19.860	3.634	1.018
581.000	637.571	80.008	19.995	103.241	19.855	3.978	1.033
582.000	638.555	80.007	19.994	103.242	19.857	3.848	0.985
583.000	639.609	80.007	19.994	103.244	19.855	3.998	1.042
584.000	640.577	80.006	19.994	103.245	19.857	3.887	1.004
585.000	641.598	80.006	19.996	103.241	19.857	3.831	0.997
586.000	642.557	80.007	19.995	103.241	19.855	3.991	0.985
587.000	643.626	80.005	19.994	103.250	19.857	3.836	1.051
588.000	644.643	80.006	19.995	103.250	19.855	4.012	1.004
589.000	645.631	80.006	19.995	103.251	19.856	3.899	0.993
590.000	646.669	80.006	19.995	103.251	19.858	3.787	1.028
591.000	647.660	80.006	19.995	103.251	19.856	3.899	0.998
592.000	648.703	80.004	19.996	103.249	19.857	3.879	1.012
593.000	649.689	80.007	19.995	103.246	19.856	3.940	1.021
594.001	650.747	80.006	19.995	103.242	19.854	4.078	1.045
595.000	651.779	80.006	19.995	103.236	19.857	3.837	1.034
596.000	652.758	80.006	19.995	103.234	19.857	3.881	0.998
597.000	653.791	80.007	19.996	103.241	19.857	3.833	1.020
598.000	654.834	80.007	19.994	103.251	19.855	4.012	1.030
599.000	655.819	80.007	19.995	103.240	19.858	3.767	0.984
600.000	656.822	80.008	19.995	103.237	19.857	3.837	1.039
601.000	657.839	80.007	19.995	103.241	19.858	3.794	1.016
602.000	658.881	80.007	19.994	103.240	19.856	3.915	1.023
603.000	659.906	80.007	19.994	103.230	19.856	3.928	1.000
604.000	660.881	80.006	19.994	103.231	19.857	3.833	0.990
605.000	661.879	80.007	19.993	103.243	19.856	3.894	1.023
606.000	662.915	80.008	19.994	103.242	19.857	3.874	1.015
607.000	663.888	80.006	19.994	103.229	19.854	4.046	0.969
608.000	664.904	80.008	19.994	103.231	19.860	3.658	1.024
609.000	665.884	80.008	19.994	103.247	19.859	3.744	0.992
610.000	666.917	80.008	19.994	103.248	19.859	3.704	1.008
611.000	667.901	80.007	19.993	103.233	19.857	3.850	1.010
612.000	668.946	80.008	19.994	103.229	19.857	3.826	1.024
613.000	669.937	80.006	19.994	103.239	19.855	3.985	1.012
614.000	670.973	80.006	19.995	103.245	19.858	3.765	1.000
615.000	671.960	80.007	19.994	103.239	19.857	3.824	0.997
616.000	672.965	80.006	19.995	103.240	19.858	3.772	1.005
617.000	673.992	80.006	19.994	103.237	19.858	3.813	1.028
618.000	675.000	80.006	19.994	103.238	19.858	3.790	1.016
619.000	675.987	80.006	19.995	103.238	19.860	3.647	1.005
620.000	677.035	80.006	19.994	103.229	19.858	3.797	1.029
621.000	678.004	80.008	19.995	103.219	19.855	4.021	0.978
622.000	679.052	80.008	19.995	103.220	19.855	4.017	1.051
623.000	680.041	80.007	19.995	103.223	19.853	4.096	0.967
624.000	681.053	80.007	19.996	103.225	19.856	3.944	1.020
625.000	682.045	80.006	19.994	103.223	19.854	4.047	0.976
626.000	683.074	80.008	19.994	103.225	19.852	4.160	1.024
627.000	684.078	80.007	19.995	103.226	19.853	4.106	1.027
628.000	685.051	80.008	19.994	103.228	19.856	3.942	0.975
629.000	686.084	80.009	19.994	103.225	19.855	3.990	1.038
630.000	687.108	80.009	19.994	103.228	19.855	3.970	1.031
631.001	688.146	80.010	19.995	103.229	19.856	3.909	1.012
632.000	689.119	80.009	19.994	103.229	19.854	4.040	0.983
633.000	690.157	80.008	19.994	103.230	19.854	4.022	1.038
634.000	691.146	80.010	19.994	103.231	19.858	3.815	1.004
635.000	692.164	80.010	19.994	103.230	19.856	3.933	1.016
636.000	693.181	80.008	19.995	103.227	19.858	3.784	1.005
637.000	694.219	80.009	19.994	103.228	19.856	3.920	1.035
638.000	695.229	80.008	19.995	103.233	19.857	3.869	1.017
639.000	696.254	80.008	19.994	103.229	19.860	3.627	1.012
640.000	697.277	80.008	19.993	103.220	19.863	3.477	1.047
641.000	698.291	80.007	19.993	103.216	19.857	3.888	0.986
642.000	699.337	80.009	19.993	103.217	19.858	3.798	1.047
643.000	700.336	80.008	19.993	103.216	19.858	3.759	0.997
644.000	701.393	80.009	19.994	103.221	19.856	3.908	1.051
645.000	702.424	80.008	19.994	103.228	19.858	3.790	1.033
646.000	703.413	80.008	19.994	103.224	19.857	3.868	1.036
647.000	704.444	80.010	19.995	103.221	19.857	3.886	1.019
648.000	705.551	80.008	19.994	103.221	19.856	3.932	1.067
649.000	706.528	80.008	19.995	103.230	19.858	3.800	1.009
650.000	707.605	80.008	19.994	103.229	19.858	3.806	1.066
651.000	708.626	80.008	19.994	103.220	19.857	3.838	1.028
652.000	709.667	80.010	19.995	103.213	19.853	4.129	1.056
653.000	710.706	80.009	19.995	103.214	19.857	3.864	1.029
654.000	711.797	80.010	19.994	103.216	19.853	4.099	1.061
655.001	712.823	80.009	19.995	103.226	19.854	4.040	1.041
656.000	713.881	80.010	19.994	103.228	19.857	3.868	1.037
657.000	714.903	80.009	19.995	103.222	19.856	3.915	1.036
658.000	715.949	80.010	19.994	103.213	19.857	3.856	1.049
659.000	716.996	80.009	19.994	103.216	19.858	3.757	1.060
660.000	718.046	80.009	19.994	103.218	19.860	3.688	1.039
661.000	719.086	80.009	19.995	103.220	19.857	3.868	1.037
662.000	720.110	80.008	19.994	103.220	19.860	3.661	1.034
663.000	721.142	80.008	19.994	103.214	19.856	3.904	1.034
664.000	722.145	80.006	19.994	103.212	19.858	3.791	1.015
665.000	723.190	80.007	19.995	103.213	19.859	3.711	1.031
666.000	724.177	80.007	19.995	103.213	19.857	3.857	1.022
667.000	725.217	80.007	19.995	103.215	19.857	3.832	1.016
668.000	726.230	80.009	19.993	103.216	19.860	3.682	1.002
669.000	727.219	80.006	19.994	103.217	19.860	3.664	0.999
670.000	728.245	80.006	19.994	103.214	19.861	3.591	1.020
671.000	729.271	80.006	19.996	103.216	19.863	3.486	1.030
672.000	730.296	80.006	19.995	103.214	19.862	3.552	1.024
673.000	731.256	80.005	19.995	103.211	19.863	3.437	0.968
674.000	732.314	80.007	19.993	103.212	19.864	3.395	1.026
675.001	733.279	80.007	19.995	103.217	19.861	3.564	0.996
676.001	734.281	80.008	19.995	103.217	19.860	3.645	1.006
677.000	735.273	80.008	19.994	103.214	19.858	3.789	0.990
678.000	736.273	80.007	19.995	103.212	19.862	3.550	0.999
679.000	737.234	80.005	19.995	103.212	19.863	3.443	0.962