File: 01_Data/PC/STA/N2/10K_min/PC_STA_N2_10KData_211609_R2.csv
##Temp./Â°C,Time/min,DSC(subtr.2)/mW,Mass loss(subtr.2)/mg,DTG(subtr.2)/(mg/min),Sensit./(uV/mW)
49.845,10.00917,-0.00589233,-0.06778,0.0,1.03584
50.545,11.53837,0.09897461,-0.06876121,-0.00228896,1.03581
51.245,11.92109,0.15803,-0.06894154,-0.000417245,1.03577
51.945,12.2051,0.21084,-0.06834248,-3.11736e-05,1.03573
52.645,12.4411,0.24289,-0.06918302,-0.002025538,1.03569
53.345,12.64574,0.28573,-0.06838313,-0.002341654,1.03565
54.045,12.8338,0.30814,-0.07078976,-0.0006292542,1.03561
54.745,13.0054,0.33081,-0.07022507,-0.000528874,1.03556
55.445,13.1668,0.35241,-0.06988863,-0.001499057,1.03551
56.145,13.32175,0.37731,-0.06944411,-0.001150339,1.03546
56.845,13.46918,0.38906,-0.07052009,0.0002301411,1.03541
57.545,13.6114,0.40054,-0.06891165,0.0009430993,1.03535
58.245,13.74875,0.42159,-0.06884181,0.0003245802,1.0353
58.945,13.88095,0.43743,-0.0703597,-0.0006298927,1.03524
59.645,14.01031,0.45274,-0.06931208,-0.000813284,1.03517
60.345,14.13589,0.46222,-0.07092746,-0.0002301798,1.03511
61.045,14.25881,0.46863,-0.07073819,0.0002811971,1.03505
61.745,14.3779,0.48326,-0.06929962,4.50426e-05,1.03498
62.445,14.4947,0.49811,-0.06996822,-0.000817567,1.03491
63.145,14.6093,0.51612,-0.0695373,-0.00166597,1.03484
63.845,14.72176,0.52485,-0.07060319,-0.00203666,1.03476
64.545,14.83221,0.53673,-0.06952205,-0.001957479,1.03469
65.245,14.9397,0.54888,-0.07105668,-0.00173502,1.03461
65.945,15.0455,0.56155,-0.07096771,-0.001620632,1.03453
66.645,15.1499,0.57535,-0.07093722,-0.001632535,1.03445
67.345,15.25221,0.57948,-0.07045489,-0.001583653,1.03436
68.045,15.35321,0.59008,-0.07119484,-0.001320547,1.03428
68.745,15.45307,0.60807,-0.07139765,-0.000925584,1.03419
69.445,15.5515,0.61768,-0.07115772,-0.0006353,1.0341
70.145,15.6485,0.63876,-0.07150032,-0.0005483553,1.034
70.845,15.74469,0.63611,-0.07151205,-0.000481621,1.03391
71.545,15.84017,0.65141,-0.07169274,-0.0001415371,1.03381
72.245,15.93423,0.6568,-0.07202845,0.0005540658,1.03371
72.945,16.02696,0.66955,-0.07200558,0.00134143,1.03361
73.645,16.1185,0.6673,-0.07201314,0.001779044,1.03351
74.345,16.2091,0.68286,-0.07204985,0.001546562,1.03341
75.045,16.29938,0.69918,-0.06921255,0.000639908,1.0333
75.745,16.389,0.71468,-0.07051352,-0.000607433,1.03319
76.445,16.4772,0.71973,-0.07169584,-0.00169639,1.03308
77.145,16.56449,0.7317,-0.06979372,-0.002261743,1.03297
77.845,16.65129,0.72798,-0.07222882,-0.002226853,1.03285
78.545,16.7376,0.74419,-0.07296064,-0.001810114,1.03273
79.245,16.82328,0.75099,-0.0714318,-0.00135687,1.03262
79.945,16.90764,0.7562,-0.07096681,-0.001096749,1.03249
80.645,16.99083,0.76154,-0.07237084,-0.001008136,1.03237
81.345,17.07388,0.76387,-0.07130464,-0.000885774,1.03225
82.045,17.15784,0.7755,-0.07363831,-0.0004992671,1.03212
82.745,17.2411,0.77176,-0.07269737,0.0002196743,1.03199
83.445,17.32295,0.77589,-0.07273609,0.0010981,1.03186
84.145,17.40421,0.76563,-0.07267938,0.001830024,1.03173
84.845,17.48499,0.7796,-0.07282289,0.00212663,1.03159
85.545,17.5651,0.79551,-0.07115336,0.001883591,1.03146
86.245,17.64465,0.7943,-0.07117849,0.001234099,1.03132
86.945,17.72401,0.79926,-0.07127286,0.0004546283,1.03118
87.645,17.8026,0.7944,-0.07141088,-0.0001767473,1.03103
88.345,17.8809,0.79388,-0.07139788,-0.000522844,1.03089
89.045,17.9584,0.80809,-0.0724476,-0.0005956885,1.03074
89.745,18.0357,0.81734,-0.07112448,-0.0005078704,1.03059
90.445,18.1128,0.82862,-0.07198533,-0.0003901011,1.03044
91.145,18.1896,0.82841,-0.07084924,-0.000350451,1.03029
91.845,18.26591,0.8438,-0.07289496,-0.0004654186,1.03014
92.545,18.34127,0.84354,-0.07222186,-0.0007799652,1.02998
93.245,18.41684,0.85311,-0.07106001,-0.001309459,1.02982
93.945,18.49235,0.85689,-0.07120701,-0.00200994,1.02966
94.645,18.56757,0.86237,-0.07227974,-0.0027699,1.0295
95.345,18.64218,0.86408,-0.07225297,-0.00342665,1.02933
96.045,18.71629,0.87232,-0.07265359,-0.003808706,1.02917
96.745,18.79039,0.87885,-0.07225223,-0.00377812,1.029
97.445,18.864,0.87719,-0.07354921,-0.00328619,1.02883
98.145,18.93756,0.87739,-0.07360802,-0.00242041,1.02866
98.845,19.01069,0.88661,-0.07484938,-0.00141585,1.02849
99.545,19.08354,0.8891,-0.07491024,-0.0005700678,1.02831
100.245,19.15606,0.8882,-0.07342409,-0.0001238015,1.02813
100.945,19.22864,0.90614,-0.07216129,-0.000144036,1.02795
101.645,19.30079,0.90087,-0.07347573,-0.0004915599,1.02777
102.345,19.37296,0.90972,-0.0722073,-0.0008975547,1.02759
103.045,19.44492,0.90827,-0.07457328,-0.00110404,1.0274
103.745,19.5168,0.91717,-0.07486871,-0.000996811,1.02722
104.445,19.58843,0.92277,-0.07634597,-0.0006434507,1.02703
105.145,19.65942,0.93012,-0.07501291,-0.0002313595,1.02684
105.845,19.73055,0.94027,-0.07315035,5.57908e-05,1.02664
106.545,19.80176,0.93524,-0.07360208,0.00011125,1.02645
107.245,19.8727,0.93916,-0.07345136,-6.628262e-05,1.02625
107.945,19.94331,0.95317,-0.0745595,-0.0004086598,1.02606
108.645,20.01384,0.95549,-0.07314007,-0.000836866,1.02586
109.345,20.08458,0.94616,-0.07458309,-0.0012911,1.02565
110.045,20.1551,0.95507,-0.07367542,-0.00172596,1.02545
110.745,20.2253,0.9645,-0.07323751,-0.002109968,1.02524
111.445,20.29494,0.95903,-0.07457917,-0.002419203,1.02504
112.145,20.3648,0.97105,-0.07458096,-0.002646339,1.02483
112.845,20.43455,0.97706,-0.07568724,-0.0027917,1.02462
113.545,20.50427,0.98813,-0.07566631,-0.002858645,1.0244
114.245,20.5738,0.98534,-0.0747277,-0.002839403,1.02419
114.945,20.64325,0.99419,-0.07503466,-0.00271713,1.02397
115.645,20.71259,0.98865,-0.07569589,-0.002485158,1.02375
116.345,20.7818,1.00743,-0.07730473,-0.00216935,1.02353
117.045,20.85059,1.00217,-0.07721978,-0.001832585,1.02331
117.745,20.9196,1.00044,-0.07436075,-0.001547443,1.02309
118.445,20.9884,1.01529,-0.07569425,-0.001370036,1.02286
119.145,21.05728,1.02694,-0.07940954,-0.001306735,1.02263
119.845,21.12564,1.02521,-0.0749101,-0.001317056,1.02241
120.545,21.194,1.03239,-0.07625507,-0.00133782,1.02217
121.245,21.26209,1.02456,-0.07731114,-0.00131746,1.02194
121.945,21.33009,1.03435,-0.07753528,-0.001234139,1.02171
122.645,21.39803,1.04178,-0.07720998,-0.001088094,1.02147
123.345,21.46572,1.04166,-0.07582331,-0.000879798,1.02123
124.045,21.53342,1.04083,-0.0773068,-0.000596708,1.02099
124.745,21.60079,1.0505,-0.07577506,-0.000234407,1.02075
125.445,21.6681,1.04818,-0.07613169,0.0001738035,1.02051
126.145,21.73535,1.04804,-0.08174649,0.000535608,1.02026
126.845,21.8028,1.06123,-0.07579131,0.0007282247,1.02002
127.545,21.87005,1.06168,-0.07494091,0.0006566259,1.01977
128.245,21.93696,1.06869,-0.07676836,0.0003189512,1.01952
128.945,22.00366,1.06952,-0.07577409,-0.000189744,1.01926
129.645,22.06984,1.07404,-0.07707527,-0.0007156924,1.01901
130.345,22.13658,1.08251,-0.07569538,-0.001122368,1.01875
131.045,22.20284,1.08639,-0.07721034,-0.001313551,1.0185
131.745,22.26942,1.0826,-0.07721,-0.001273678,1.01824
132.445,22.3357,1.09461,-0.07720122,-0.00104367,1.01798
133.145,22.40204,1.09948,-0.07721629,-0.0006996596,1.01771
133.845,22.46803,1.1012,-0.07749771,-0.0003327264,1.01745
134.545,22.53386,1.10054,-0.07757135,-2.944099e-05,1.01718
135.245,22.5997,1.11151,-0.07816652,0.0001362326,1.01692
135.945,22.6654,1.11028,-0.07721012,0.0001143174,1.01665
136.645,22.7311,1.12191,-0.07721139,-0.000105495,1.01638
137.345,22.7966,1.12077,-0.07589518,-0.0004853234,1.0161
138.045,22.86212,1.1182,-0.07719285,-0.00094633,1.01583
138.745,22.92772,1.12062,-0.0761925,-0.0013874,1.01555
139.445,22.99305,1.12234,-0.07717632,-0.001711748,1.01527
140.145,23.05848,1.13774,-0.07856508,-0.001863426,1.01499
140.845,23.12366,1.14005,-0.07721159,-0.001837887,1.01471
141.545,23.18869,1.13708,-0.07853476,-0.001686341,1.01443
142.245,23.25364,1.15367,-0.07885674,-0.00149394,1.01415
142.945,23.31847,1.16516,-0.07853648,-0.001347412,1.01386
143.645,23.38336,1.163,-0.07720308,-0.001297826,1.01357
144.345,23.44799,1.17688,-0.07720933,-0.00133655,1.01328
145.045,23.51274,1.1892,-0.07820445,-0.00139525,1.01299
145.745,23.57734,1.1954,-0.07728971,-0.001373279,1.0127
146.445,23.64196,1.21583,-0.07863125,-0.001181748,1.0124
147.145,23.70656,1.23307,-0.08000059,-0.0007845349,1.01211
147.845,23.77086,1.24145,-0.07853457,-0.0002241075,1.01181
148.545,23.83534,1.25965,-0.07856831,0.000393317,1.01151
149.245,23.89944,1.28962,-0.07995046,0.0009129891,1.01121
149.945,23.96366,1.31317,-0.07917256,0.001197769,1.01091
150.645,24.02799,1.34472,-0.07785854,0.00116182,1.0106
151.345,24.0921,1.37128,-0.07657529,0.0008143067,1.0103
152.045,24.15648,1.3767,-0.07787432,0.00025732,1.00999
152.745,24.22074,1.39097,-0.07764,-0.0003373003,1.00968
153.445,24.28477,1.39928,-0.07786012,-0.0007931314,1.00937
154.145,24.3489,1.38363,-0.07882707,-0.0009885019,1.00906
154.845,24.41299,1.38867,-0.0791194,-0.00088254,1.00874
155.545,24.4769,1.38228,-0.07957408,-0.0005220702,1.00843
156.245,24.54095,1.38782,-0.07917899,-7.854435e-06,1.00811
156.945,24.60482,1.38239,-0.07787141,0.0005347129,1.00779
157.645,24.6688,1.37908,-0.07918045,0.001000447,1.00747
158.345,24.7327,1.38635,-0.07924713,0.001319355,1.00715
159.045,24.79608,1.39337,-0.07787008,0.00147217,1.00683
159.745,24.8598,1.3877,-0.07787,0.0014915,1.0065
160.445,24.92344,1.39387,-0.07787533,0.001441011,1.00618
161.145,24.98757,1.39501,-0.07655154,0.001394306,1.00585
161.845,25.0511,1.39137,-0.07918873,0.00140549,1.00552
162.545,25.11476,1.39523,-0.07786682,0.00148392,1.00519
163.245,25.1784,1.4022,-0.07785983,0.00159169,1.00486
163.945,25.24215,1.40789,-0.07786671,0.00165831,1.00452
164.645,25.3059,1.41179,-0.07785807,0.001607305,1.00419
165.345,25.3695,1.41621,-0.07655035,0.00138416,1.00385
166.045,25.433,1.41893,-0.07654962,0.000973055,1.00351
166.745,25.4966,1.42137,-0.07785728,0.000400544,1.00317
167.445,25.56038,1.41955,-0.076546,-0.0002662653,1.00283
168.145,25.62397,1.4199,-0.07655,-0.0009236753,1.00249
168.845,25.68765,1.42693,-0.07655812,-0.001463446,1.00214
169.545,25.75105,1.4214,-0.07655793,-0.001790747,1.0018
170.245,25.8145,1.43569,-0.07786829,-0.001866206,1.00145
170.945,25.8781,1.4324,-0.07786645,-0.001717231,1.0011
171.645,25.9417,1.43397,-0.07917741,-0.001437927,1.00075
172.345,26.0051,1.44441,-0.07781759,-0.001152926,1.0004
173.045,26.06834,1.43129,-0.07769199,-0.0009587501,1.00004
173.745,26.13156,1.44172,-0.07743561,-0.0008776834,0.99969
174.445,26.19473,1.44067,-0.07743,-0.000846432,0.99933
175.145,26.25807,1.44207,-0.07743,-0.000748397,0.99897
175.845,26.32132,1.44842,-0.07743504,-0.0004822096,0.99861
176.545,26.38474,1.44815,-0.07896478,-2.97314e-05,0.99825
177.245,26.4481,1.45253,-0.07953009,0.0005052745,0.99789
177.945,26.5113,1.45165,-0.08010748,0.0009271678,0.99753
178.645,26.57439,1.45668,-0.0779726,0.001030049,0.99716
179.345,26.6374,1.45327,-0.07618303,0.000692302,0.99679
180.045,26.7001,1.4655,-0.07752718,-5.65656e-05,0.99642
180.745,26.76271,1.46849,-0.07480777,-0.00103929,0.99606
181.445,26.82565,1.47234,-0.07755924,-0.001998063,0.99568
182.145,26.8886,1.46887,-0.07754055,-0.002660085,0.99531
182.845,26.9521,1.46924,-0.07884608,-0.002843693,0.99494
183.545,27.0152,1.4752,-0.08027648,-0.002498222,0.99456
184.245,27.0785,1.47871,-0.07896954,-0.00170619,0.99419
184.945,27.1416,1.47337,-0.07850857,-0.0006475383,0.99381
185.645,27.20457,1.47936,-0.07896635,0.0004621964,0.99343
186.345,27.2673,1.4839,-0.08028485,0.00141603,0.99305
187.045,27.32992,1.48636,-0.07924122,0.002051333,0.99267
187.745,27.39268,1.48782,-0.07743186,0.002268244,0.99228
188.445,27.45523,1.49381,-0.0775399,0.00204134,0.9919
189.145,27.51786,1.48186,-0.07698913,0.00141957,0.99151
189.845,27.58055,1.49831,-0.07753085,0.000506272,0.99112
190.545,27.6434,1.50214,-0.07850377,-0.0005672333,0.99073
191.245,27.70611,1.49057,-0.07819571,-0.00164974,0.99034
191.945,27.7689,1.49565,-0.07754,-0.002605989,0.98995
192.645,27.8313,1.49767,-0.07753999,-0.003298647,0.98956
193.345,27.89384,1.49799,-0.07745293,-0.003627522,0.98916
194.045,27.95628,1.51532,-0.07994657,-0.003527708,0.98877
194.745,28.0189,1.50606,-0.08018008,-0.00300883,0.98837
195.445,28.0816,1.50909,-0.07885441,-0.002169747,0.98797
196.145,28.14408,1.52317,-0.08017021,-0.001196313,0.98757
196.845,28.2066,1.51354,-0.08148908,-0.000304319,0.98717
197.545,28.26894,1.51674,-0.08018325,0.0003184162,0.98677
198.245,28.33127,1.51822,-0.07870257,0.0005748281,0.98636
198.945,28.39375,1.5139,-0.07754004,0.000481373,0.98596
199.645,28.45625,1.51366,-0.07795378,0.000148769,0.98555
200.345,28.519,1.52262,-0.07982955,-0.0002730185,0.98514
201.045,28.5815,1.53338,-0.0809789,-0.000649261,0.98473
201.745,28.6441,1.53216,-0.07984095,-0.0009116552,0.98432
202.445,28.70648,1.53432,-0.07993011,-0.00104534,0.98391
203.145,28.76912,1.52744,-0.07853034,-0.001067682,0.9835
203.845,28.8315,1.54771,-0.07983914,-0.0009948331,0.98308
204.545,28.89388,1.54762,-0.07984,-0.000831546,0.98267
205.245,28.9563,1.5483,-0.07984,-0.00058194,0.98225
205.945,29.0187,1.55337,-0.07984,-0.0002706969,0.98183
206.645,29.0811,1.5564,-0.07983835,4.39073e-05,0.98141
207.345,29.14353,1.55066,-0.08082565,0.00027899,0.98099
208.045,29.2057,1.55564,-0.08082807,0.000358066,0.98057
208.745,29.268,1.55467,-0.07951006,0.0002520339,0.98015
209.445,29.33015,1.55825,-0.07784591,1.548666e-06,0.97972
210.145,29.39221,1.55514,-0.07783698,-0.0002903772,0.9793
210.845,29.45495,1.55804,-0.08064153,-0.0005038478,0.97887
211.545,29.51745,1.56948,-0.08049554,-0.0005511445,0.97844
212.245,29.5801,1.5713,-0.07918106,-0.0004352267,0.97801
212.945,29.64268,1.57268,-0.08153255,-0.0002487757,0.97758
213.645,29.70513,1.57609,-0.08153893,-0.000131148,0.97715
214.345,29.76779,1.57592,-0.07863856,-0.0001994437,0.97672
215.045,29.83085,1.57741,-0.07863,-0.000494991,0.97628
215.745,29.8937,1.58471,-0.07862395,-0.0009569911,0.97585
216.445,29.9566,1.5834,-0.07994902,-0.00146206,0.97541
217.145,30.01913,1.576,-0.07995004,-0.001880172,0.97497
217.845,30.08166,1.58437,-0.08126731,-0.00213891,0.97454
218.545,30.1441,1.58117,-0.07996586,-0.00224063,0.9741
219.245,30.2065,1.58891,-0.08138287,-0.00224951,0.97365
219.945,30.2689,1.59444,-0.08007146,-0.00224903,0.97321
220.645,30.3316,1.58871,-0.08137763,-0.002295717,0.97277
221.345,30.3942,1.58529,-0.07879334,-0.00238742,0.97232
222.045,30.45689,1.60146,-0.08187449,-0.00245917,0.97188
222.745,30.5194,1.60254,-0.08050438,-0.002405576,0.97143
223.445,30.5819,1.60095,-0.08198575,-0.002122186,0.97098
224.145,30.64446,1.60353,-0.08189804,-0.00154774,0.97053
224.845,30.7069,1.6093,-0.08192377,-0.0007009083,0.97008
225.545,30.7695,1.60011,-0.08293986,0.0003128034,0.96963
226.245,30.8319,1.6037,-0.08325402,0.001306017,0.96918
226.945,30.8945,1.5992,-0.08258696,0.002078575,0.96872
227.645,30.95672,1.60465,-0.08074956,0.002450286,0.96827
228.345,31.01942,1.60925,-0.08061501,0.00234209,0.96781
229.045,31.0821,1.6116,-0.08061004,0.001786984,0.96735
229.745,31.1449,1.60609,-0.07925776,0.000928712,0.96689
230.445,31.20738,1.60331,-0.07930138,-2.233084e-05,0.96643
231.145,31.2699,1.62095,-0.08060822,-0.000874126,0.96597
231.845,31.33255,1.62082,-0.0819182,-0.001487315,0.96551
232.545,31.3953,1.61843,-0.08175975,-0.001800606,0.96505
233.245,31.458,1.61939,-0.08038465,-0.00182535,0.96458
233.945,31.52052,1.62191,-0.08170377,-0.00162806,0.96412
234.645,31.583,1.63157,-0.08040892,-0.00130883,0.96365
235.345,31.6455,1.62747,-0.08191943,-0.0009895759,0.96319
236.045,31.70798,1.6367,-0.08313221,-0.0007959534,0.96272
236.745,31.77062,1.64325,-0.08180755,-0.0008291922,0.96225
237.445,31.8333,1.63839,-0.08180932,-0.00112275,0.96178
238.145,31.89588,1.64175,-0.08025801,-0.001611212,0.96131
238.845,31.95863,1.64598,-0.08049383,-0.002144711,0.96083
239.545,32.02134,1.63399,-0.08178832,-0.00253506,0.96036
240.245,32.08419,1.64702,-0.08297823,-0.002639034,0.95988
240.945,32.14695,1.65201,-0.08385665,-0.002415909,0.95941
241.645,32.20932,1.65324,-0.08302181,-0.00194641,0.95893
242.345,32.27189,1.65125,-0.08302996,-0.00137964,0.95845
243.045,32.33452,1.66117,-0.08300444,-0.000881348,0.95797
243.745,32.39748,1.66196,-0.08170983,-0.0005715004,0.95749
244.445,32.46031,1.65411,-0.08173769,-0.000500793,0.95701
245.145,32.52295,1.6573,-0.0846624,-0.000643724,0.95653
245.845,32.58572,1.66098,-0.08195578,-0.000926068,0.95605
246.545,32.64865,1.66562,-0.08193,-0.001247815,0.95556
247.245,32.7115,1.65629,-0.08194214,-0.001502643,0.95508
247.945,32.7743,1.65915,-0.08324047,-0.001601942,0.95459
248.645,32.83704,1.66157,-0.08320207,-0.001490508,0.95411
249.345,32.8997,1.66661,-0.08476221,-0.001157016,0.95362
250.045,32.9626,1.66436,-0.08349522,-0.000636061,0.95313
250.745,33.02544,1.66824,-0.08224792,-1.37234e-05,0.95264
251.445,33.08817,1.66593,-0.08341261,0.0005885873,0.95215
252.145,33.151,1.66797,-0.08478003,0.001036485,0.95166
252.845,33.21375,1.6624,-0.08473136,0.001211134,0.95116
253.545,33.27667,1.67362,-0.08197311,0.00105185,0.95067
254.245,33.3395,1.66673,-0.08215063,0.0005831032,0.95018
254.945,33.40247,1.6618,-0.08214998,-8.990332e-05,0.94968
255.645,33.46516,1.66506,-0.08207886,-0.000803514,0.94918
256.345,33.52792,1.66872,-0.08377356,-0.001409374,0.94869
257.045,33.59065,1.66979,-0.08280081,-0.001807378,0.94819
257.745,33.65356,1.6773,-0.08413033,-0.00197372,0.94769
258.445,33.71656,1.67116,-0.08432629,-0.001942914,0.94719
259.145,33.77943,1.67378,-0.08434016,-0.00177374,0.94669
259.845,33.84247,1.68323,-0.0830435,-0.001509417,0.94618
260.545,33.90552,1.67383,-0.08303001,-0.001167195,0.94568
261.245,33.96846,1.67395,-0.08303953,-0.000756619,0.94518
261.945,34.03135,1.6799,-0.08429792,-0.000314376,0.94467
262.645,34.09424,1.67277,-0.08565289,7.08701e-05,0.94416
263.345,34.15704,1.66649,-0.08412854,0.0002687118,0.94366
264.045,34.22009,1.67167,-0.0841243,0.0001576514,0.94315
264.745,34.28294,1.68094,-0.08345917,-0.0003076554,0.94264
265.445,34.34608,1.67615,-0.08208477,-0.00105451,0.94213
266.145,34.4093,1.68046,-0.08235122,-0.001886396,0.94162
266.845,34.47226,1.68137,-0.0832919,-0.002550668,0.94111
267.545,34.53518,1.68415,-0.08436499,-0.002842458,0.9406
268.245,34.59807,1.67524,-0.085831,-0.002681243,0.94009
268.945,34.661,1.68349,-0.08728823,-0.002137874,0.93957
269.645,34.7241,1.67853,-0.08588618,-0.001396224,0.93906
270.345,34.78698,1.68166,-0.08451782,-0.0006779653,0.93854
271.045,34.85001,1.68675,-0.08389782,-0.0001415782,0.93803
271.745,34.9131,1.68184,-0.08390063,0.0001515422,0.93751
272.445,34.97606,1.69787,-0.0852143,0.0002361549,0.93699
273.145,35.03901,1.69689,-0.08520994,0.0001978255,0.93647
273.845,35.10196,1.69642,-0.08487765,0.000114994,0.93595
274.545,35.16507,1.70677,-0.08413272,2.518062e-05,0.93543
275.245,35.22834,1.69405,-0.08523443,-7.925508e-05,0.93491
275.945,35.2917,1.70382,-0.08521999,-0.000229448,0.93439
276.645,35.35498,1.70252,-0.08522049,-0.0004451407,0.93386
277.345,35.41767,1.69659,-0.08390906,-0.0007050385,0.93334
278.045,35.48056,1.69821,-0.08390003,-0.0009485502,0.93282
278.745,35.5438,1.7026,-0.08531369,-0.001090454,0.93229
279.445,35.60737,1.70512,-0.08527044,-0.001066761,0.93176
280.145,35.6708,1.7004,-0.08061288,-0.000884208,0.93124
280.845,35.73375,1.70547,-0.09209114,-0.0006352637,0.93071
281.545,35.79673,1.69868,-0.08357976,-0.0004584508,0.93018
282.245,35.85992,1.70418,-0.08412288,-0.0004813862,0.92965
282.945,35.9233,1.70443,-0.08444627,-0.00075762,0.92912
283.645,35.98656,1.70898,-0.08412176,-0.0012301,0.92859
284.345,36.0498,1.70828,-0.08542948,-0.001752849,0.92806
285.045,36.11312,1.71171,-0.08543,-0.00214343,0.92753
285.745,36.1765,1.71336,-0.08543338,-0.002247443,0.92699
286.445,36.23966,1.70896,-0.08724816,-0.001994418,0.92646
287.145,36.30301,1.71729,-0.08401402,-0.00141601,0.92593
287.845,36.36633,1.70796,-0.08985524,-0.0006354438,0.92539
288.545,36.4298,1.71726,-0.08587594,0.000180673,0.92485
289.245,36.4932,1.72118,-0.08587,0.0008709688,0.92432
289.945,36.55655,1.71195,-0.08587109,0.001339106,0.92378
290.645,36.6196,1.70714,-0.08487888,0.001562521,0.92324
291.345,36.68315,1.7037,-0.08522899,0.00157933,0.9227
292.045,36.7466,1.71064,-0.08588469,0.001445705,0.92216
292.745,36.81009,1.70654,-0.08594949,0.00120621,0.92162
293.445,36.87355,1.70733,-0.08464471,0.0008782491,0.92108
294.145,36.93687,1.71221,-0.084554,0.0004615836,0.92054
294.845,37.0004,1.71367,-0.08588185,-4.60605e-05,0.92
295.545,37.06385,1.71846,-0.08456179,-0.000626401,0.91945
296.245,37.12735,1.72392,-0.08457961,-0.00124021,0.91891
296.945,37.19081,1.7272,-0.0858799,-0.001826475,0.91837
297.645,37.25431,1.71939,-0.08588012,-0.002311214,0.91782
298.345,37.31785,1.72024,-0.08524452,-0.00261391,0.91727
299.045,37.3815,1.7299,-0.08521998,-0.002664905,0.91673
299.745,37.44502,1.72975,-0.08616692,-0.002430951,0.91618
300.445,37.50865,1.73498,-0.08781766,-0.00193763,0.91563
301.145,37.57204,1.74594,-0.08758769,-0.00127882,0.91508
301.845,37.63557,1.73615,-0.08784926,-0.0005835309,0.91454
302.545,37.69905,1.72969,-0.08631899,1.54613e-05,0.91399
303.245,37.76254,1.73037,-0.08499102,0.000432181,0.91344
303.945,37.82614,1.73444,-0.08599461,0.000642297,0.91288
304.645,37.88977,1.74413,-0.08733092,0.0006711672,0.91233
305.345,37.9533,1.73439,-0.08735859,0.0005670682,0.91178
306.045,38.017,1.73614,-0.08639956,0.000374798,0.91123
306.745,38.08054,1.74436,-0.08598001,0.000127632,0.91067
307.445,38.1441,1.73869,-0.08581773,-0.0001515973,0.91012
308.145,38.2078,1.74763,-0.0856497,-0.0004439818,0.90956
308.845,38.27134,1.74636,-0.08697599,-0.000730163,0.90901
309.545,38.3349,1.73859,-0.08742805,-0.000992793,0.90845
310.245,38.3984,1.75487,-0.08670158,-0.001211427,0.9079
310.945,38.46205,1.74421,-0.08564997,-0.001362636,0.90734
311.645,38.5258,1.75025,-0.08681425,-0.001419865,0.90678
312.345,38.58944,1.75359,-0.08696998,-0.001367225,0.90622
313.045,38.65312,1.75743,-0.08818985,-0.001211721,0.90566
313.745,38.7166,1.75213,-0.08696637,-0.0009888102,0.9051
314.445,38.78053,1.75749,-0.08697,-0.0007518137,0.90454
315.145,38.84445,1.76188,-0.08697484,-0.0005646828,0.90398
315.845,38.90851,1.76065,-0.08630167,-0.0004798358,0.90342
316.545,38.9724,1.76264,-0.08764361,-0.0005275906,0.90286
317.245,39.03629,1.75644,-0.08697874,-0.0007056176,0.9023
317.945,39.10026,1.76644,-0.08753689,-0.0009749292,0.90174
318.645,39.16411,1.76106,-0.08564327,-0.001260836,0.90117
319.345,39.22783,1.78803,-0.08633686,-0.001474442,0.90061
320.045,39.2915,1.77215,-0.08707998,-0.00154721,0.90004
320.745,39.35533,1.7854,-0.08865568,-0.001466331,0.89948
321.445,39.41915,1.78148,-0.08829,-0.001294395,0.89891
322.145,39.483,1.78052,-0.08829,-0.001153047,0.89835
322.845,39.54705,1.78308,-0.08829041,-0.00117256,0.89778
323.545,39.61112,1.79161,-0.08697431,-0.001428765,0.89721
324.245,39.6749,1.78062,-0.08698,-0.001895416,0.89665
324.945,39.73847,1.78706,-0.08698003,-0.00244773,0.89608
325.645,39.80242,1.78839,-0.08780637,-0.002914368,0.89551
326.345,39.8665,1.78967,-0.08929776,-0.003126876,0.89494
327.045,39.93085,1.79144,-0.08927,-0.002993527,0.89437
327.745,39.99505,1.77891,-0.08927,-0.002533271,0.8938
328.445,40.05908,1.78429,-0.08926998,-0.00186647,0.89323
329.145,40.12307,1.78534,-0.09059739,-0.0011653,0.89266
329.845,40.18719,1.79112,-0.08928003,-0.0005991039,0.89209
330.545,40.2511,1.79021,-0.0884519,-0.0002902822,0.89152
331.245,40.3151,1.79002,-0.08934692,-0.0002760366,0.89094
331.945,40.3791,1.78743,-0.08927,-0.0005157063,0.89037
332.645,40.44348,1.78774,-0.08927,-0.000916145,0.8898
333.345,40.50763,1.78411,-0.08925659,-0.001368756,0.88922
334.045,40.57177,1.78825,-0.0832748,-0.00180438,0.88865
334.745,40.6357,1.80539,-0.09504645,-0.002208594,0.88807
335.445,40.69958,1.79906,-0.09003867,-0.002611104,0.8875
336.145,40.76382,1.79424,-0.08861326,-0.003038851,0.88692
336.845,40.82793,1.80492,-0.08993957,-0.00345944,0.88635
337.545,40.89192,1.79556,-0.08994123,-0.003773985,0.88577
338.245,40.95616,1.79414,-0.08526524,-0.003845163,0.88519
338.945,41.0204,1.80279,-0.09517976,-0.003557668,0.88462
339.645,41.08483,1.80011,-0.09096267,-0.002882485,0.88404
340.345,41.14927,1.81266,-0.09223809,-0.001902854,0.88346
341.045,41.21347,1.8083,-0.09222465,-0.0007876987,0.88288
341.745,41.27789,1.80213,-0.09091835,0.000282801,0.8823
342.445,41.34216,1.81103,-0.09209079,0.001145602,0.88172
343.145,41.40654,1.8112,-0.09093352,0.00170475,0.88114
343.845,41.47103,1.81365,-0.09092,0.001914069,0.88056
344.545,41.5351,1.81612,-0.09092,0.001767734,0.87998
345.245,41.59953,1.80889,-0.09092,0.001281133,0.8794
345.945,41.66395,1.82131,-0.09100705,0.0004924717,0.87882
346.645,41.72865,1.81098,-0.08961001,-0.000537487,0.87824
347.345,41.79326,1.81517,-0.08962136,-0.00170349,0.87766
348.045,41.8579,1.81589,-0.09092084,-0.002873746,0.87708
348.745,41.9225,1.81189,-0.09092,-0.00388985,0.87649
349.445,41.98728,1.81084,-0.09092,-0.004599195,0.87591
350.145,42.05202,1.82385,-0.09092008,-0.004876936,0.87533
350.845,42.11671,1.82407,-0.09227352,-0.00467026,0.87474
351.545,42.18123,1.82343,-0.09366045,-0.004025425,0.87416
352.245,42.24581,1.82317,-0.09366,-0.003083893,0.87357
352.945,42.31047,1.81272,-0.09366,-0.002056355,0.87299
353.645,42.3752,1.81249,-0.09365999,-0.001164247,0.8724
354.345,42.43992,1.81217,-0.09326271,-0.0005739227,0.87182
355.045,42.50481,1.80488,-0.09234015,-0.000345865,0.87123
355.745,42.56943,1.82183,-0.09101564,-0.0004342304,0.87065
356.445,42.634,1.81876,-0.09403425,-0.0007197716,0.87006
357.145,42.69875,1.82436,-0.09329364,-0.001074798,0.86947
357.845,42.76356,1.81601,-0.09287082,-0.001412509,0.86889
358.545,42.82853,1.82506,-0.09327443,-0.001717866,0.8683
359.245,42.89332,1.82669,-0.09392334,-0.002035898,0.86771
359.945,42.95769,1.80244,-0.0943223,-0.002432582,0.86712
360.645,43.02256,1.82443,-0.09288545,-0.00295167,0.86654
361.345,43.08737,1.81559,-0.09289,-0.00356213,0.86595
362.045,43.15248,1.82641,-0.09289894,-0.004171152,0.86536
362.745,43.2172,1.82496,-0.09483289,-0.004642689,0.86477
363.445,43.28208,1.82604,-0.09363032,-0.004868957,0.86418
364.145,43.34704,1.83197,-0.09623092,-0.004797302,0.86359
364.845,43.41193,1.83332,-0.09618999,-0.004447737,0.863
365.545,43.4768,1.83245,-0.09618837,-0.00389362,0.86241
366.245,43.54152,1.83073,-0.09487819,-0.003231228,0.86182
366.945,43.60635,1.84593,-0.09640732,-0.002546314,0.86123
367.645,43.67127,1.84125,-0.09683997,-0.00191323,0.86064
368.345,43.73639,1.83983,-0.09684,-0.001390424,0.86005
369.045,43.8015,1.834,-0.09682685,-0.001025428,0.85946
369.745,43.86645,1.85233,-0.09586117,-0.000845625,0.85886
370.445,43.93127,1.85859,-0.09669518,-0.0008491937,0.85827
371.145,43.9962,1.84354,-0.09684831,-0.00100335,0.85768
371.845,44.0612,1.85705,-0.09571545,-0.00124706,0.85709
372.545,44.1264,1.84856,-0.09682838,-0.00150302,0.85649
373.245,44.19165,1.84775,-0.0954944,-0.001697218,0.8559
373.945,44.25693,1.84669,-0.09815874,-0.001776539,0.85531
374.645,44.32228,1.85708,-0.09822532,-0.001719878,0.85472
375.345,44.38759,1.86342,-0.09584391,-0.001542156,0.85412
376.045,44.45303,1.85736,-0.09717669,-0.001292706,0.85353
376.745,44.5184,1.85051,-0.09848681,-0.001050486,0.85294
377.445,44.58368,1.8634,-0.09848,-0.0009042264,0.85234
378.145,44.64907,1.85859,-0.0984801,-0.0009228855,0.85175
378.845,44.71454,1.86505,-0.09619073,-0.001124935,0.85115
379.545,44.78002,1.87438,-0.09724462,-0.001460765,0.85056
380.245,44.8459,1.86254,-0.09706811,-0.00183177,0.84996
380.945,44.91147,1.86964,-0.09837508,-0.002126027,0.84937
381.645,44.977,1.86244,-0.09837,-0.00228151,0.84877
382.345,45.04207,1.86069,-0.09836989,-0.00230532,0.84818
383.045,45.10753,1.8667,-0.09871102,-0.00226234,0.84758
383.745,45.173,1.86001,-0.0987,-0.002232637,0.84699
384.445,45.23887,1.87278,-0.0987,-0.0022664,0.84639
385.145,45.3045,1.86744,-0.09781046,-0.002358259,0.8458
385.845,45.3699,1.87997,-0.09811111,-0.002459935,0.8452
386.545,45.4356,1.88079,-0.09869228,-0.00252023,0.8446
387.245,45.50091,1.87925,-0.09981521,-0.002518821,0.84401
387.945,45.56654,1.86955,-0.10102,-0.002473706,0.84341
388.645,45.6321,1.86554,-0.09966905,-0.002412951,0.84281
389.345,45.6977,1.8759,-0.09837986,-0.00233476,0.84222
390.045,45.76339,1.8881,-0.09837414,-0.002191009,0.84162
390.745,45.82884,1.8833,-0.10126,-0.001912514,0.84102
391.445,45.8944,1.88246,-0.10013,-0.00145687,0.84043
392.145,45.95987,1.88109,-0.10054,-0.00085587,0.83983
392.845,46.02561,1.87819,-0.10178,-0.000208073,0.83923
393.545,46.09053,1.89177,-0.10025,0.000343404,0.83863
394.245,46.15611,1.89893,-0.09953573,0.0007059547,0.83804
394.945,46.22153,1.89046,-0.0988577,0.000830464,0.83744
395.645,46.28775,1.88594,-0.10019,0.00072966,0.83684
396.345,46.35367,1.89103,-0.10024,0.000431318,0.83624
397.045,46.4195,1.90273,-0.10024,-6.79753e-05,0.83565
397.745,46.48527,1.89668,-0.10027,-0.000825211,0.83505
398.445,46.55104,1.89155,-0.10024,-0.00192379,0.83445
399.145,46.61674,1.89051,-0.09892669,-0.003419728,0.83385
399.845,46.6826,1.89456,-0.09888421,-0.005293275,0.83325
400.545,46.7483,1.90901,-0.10024,-0.007403034,0.83265
401.245,46.8138,1.90748,-0.10024,-0.00951395,0.83206
401.945,46.87942,1.91156,-0.10024,-0.01134822,0.83146
402.645,46.9454,1.92201,-0.10288,-0.01265084,0.83086
403.345,47.01169,1.91127,-0.10415,-0.01324003,0.83026
404.045,47.07765,1.91209,-0.10551,-0.01309532,0.82966
404.745,47.14338,1.92563,-0.10543,-0.01237163,0.82906
405.445,47.20923,1.92011,-0.10813,-0.01133196,0.82846
406.145,47.2751,1.91973,-0.10857,-0.01027166,0.82787
406.845,47.34104,1.93032,-0.11095,-0.009405961,0.82727
407.545,47.40702,1.93079,-0.10474,-0.008806767,0.82667
408.245,47.47311,1.93391,-0.10898,-0.008389881,0.82607
408.945,47.5391,1.92522,-0.10978,-0.0079915,0.82547
409.645,47.605,1.93211,-0.11056,-0.007470846,0.82487
410.345,47.67086,1.93876,-0.11052,-0.006789939,0.82427
411.045,47.73684,1.92714,-0.11295,-0.00602859,0.82367
411.745,47.80295,1.93958,-0.1114,-0.00533823,0.82308
412.445,47.86895,1.93692,-0.11176,-0.00486268,0.82248
413.145,47.9351,1.9308,-0.11176,-0.004668209,0.82188
413.845,48.001,1.92952,-0.11034,-0.00472938,0.82128
414.545,48.06693,1.92851,-0.11186,-0.004947412,0.82068
415.245,48.1329,1.93985,-0.11329,-0.005195175,0.82008
415.945,48.1991,1.92535,-0.11318,-0.00535667,0.81948
416.645,48.26543,1.93719,-0.11219,-0.005356989,0.81888
417.345,48.33161,1.92719,-0.1134,-0.00518623,0.81828
418.045,48.3979,1.92711,-0.11637,-0.004904518,0.81768
418.745,48.4642,1.93644,-0.11584,-0.004626811,0.81709
419.445,48.53093,1.92747,-0.11534,-0.004481418,0.81649
420.145,48.5976,1.93823,-0.11395,-0.004563986,0.81589
420.845,48.66407,1.92622,-0.11526,-0.004898343,0.81529
421.545,48.7303,1.93343,-0.11538,-0.005440876,0.81469
422.245,48.79676,1.93394,-0.11672,-0.006116639,0.81409
422.945,48.8632,1.93205,-0.1167,-0.006839631,0.81349
423.645,48.9298,1.93608,-0.1167,-0.00753083,0.8129
424.345,48.9963,1.92539,-0.11666,-0.008103391,0.8123
425.045,49.06278,1.93093,-0.1167,-0.00848018,0.8117
425.745,49.12923,1.92735,-0.11944,-0.008616882,0.8111
426.445,49.19558,1.9179,-0.1206,-0.008548911,0.8105
427.145,49.26204,1.91453,-0.11945,-0.008422565,0.8099
427.845,49.3285,1.92245,-0.12076,-0.008475608,0.8093
428.545,49.39515,1.91837,-0.12685,-0.008954518,0.80871
429.245,49.46174,1.90973,-0.11613,-0.009992364,0.80811
429.945,49.52833,1.90402,-0.12163,-0.01151261,0.80751
430.645,49.59507,1.89913,-0.12163,-0.01322043,0.80691
431.345,49.66178,1.89477,-0.123,-0.01469458,0.80631
432.045,49.72849,1.9003,-0.12254,-0.01558432,0.80572
432.745,49.7954,1.88952,-0.13057,-0.01578599,0.80512
433.445,49.86213,1.89365,-0.13027,-0.01551697,0.80452
434.145,49.92905,1.8762,-0.13008,-0.01523478,0.80392
434.845,49.99573,1.87906,-0.12854,-0.01542644,0.80333
435.545,50.06273,1.87418,-0.12857,-0.01638706,0.80273
436.245,50.1295,1.8707,-0.12854,-0.01808926,0.80213
436.945,50.19627,1.85897,-0.13082,-0.02023726,0.80154
437.645,50.26292,1.85004,-0.13417,-0.02242477,0.80094
438.345,50.3292,1.83593,-0.13545,-0.02430955,0.80034
439.045,50.39622,1.84287,-0.13859,-0.02575901,0.79974
439.745,50.46297,1.83266,-0.13865,-0.02678178,0.79915
440.445,50.53034,1.82443,-0.13971,-0.02756011,0.79855
441.145,50.59697,1.83349,-0.1437,-0.02830738,0.79796
441.845,50.66377,1.82575,-0.14638,-0.02925313,0.79736
442.545,50.73049,1.81766,-0.14578,-0.03055655,0.79676
443.245,50.7973,1.80498,-0.14743,-0.03230506,0.79617
443.945,50.86407,1.80487,-0.15026,-0.03449852,0.79557
444.645,50.93087,1.79858,-0.15269,-0.03708188,0.79498
445.345,50.9977,1.79893,-0.15496,-0.03997181,0.79438
446.045,51.064,1.80111,-0.15729,-0.0430629,0.79379
446.745,51.13067,1.79793,-0.16062,-0.04633781,0.79319
447.445,51.19724,1.78679,-0.1641,-0.04972278,0.7926
448.145,51.26441,1.78772,-0.16744,-0.0532158,0.792
448.845,51.3312,1.77599,-0.17016,-0.05672396,0.79141
449.545,51.3981,1.77029,-0.17502,-0.06022643,0.79081
450.245,51.4649,1.75965,-0.17898,-0.06365391,0.79022
450.945,51.5315,1.77366,-0.1827,-0.06694417,0.78962
451.645,51.59814,1.76353,-0.18703,-0.07005824,0.78903
452.345,51.6648,1.75976,-0.19288,-0.07296007,0.78844
453.045,51.73169,1.7558,-0.19794,-0.0756684,0.78784
453.745,51.7984,1.75611,-0.203,-0.07822999,0.78725
454.445,51.86538,1.74634,-0.20878,-0.08079762,0.78665
455.145,51.93224,1.74332,-0.21371,-0.08355366,0.78606
455.845,51.99906,1.73856,-0.21958,-0.0867408,0.78547
456.545,52.06585,1.72045,-0.22618,-0.09059381,0.78488
457.245,52.1327,1.72383,-0.23126,-0.09528247,0.78428
457.945,52.19989,1.71376,-0.23682,-0.10085,0.78369
458.645,52.2669,1.72878,-0.24226,-0.1071,0.7831
459.345,52.3341,1.73146,-0.2508,-0.11373,0.78251
460.045,52.401,1.73872,-0.25781,-0.12025,0.78192
460.745,52.4681,1.73002,-0.26693,-0.12634,0.78132
461.445,52.53516,1.74692,-0.27665,-0.13175,0.78073
462.145,52.6024,1.74877,-0.28508,-0.13652,0.78014
462.845,52.66946,1.75505,-0.29763,-0.14087,0.77955
463.545,52.73666,1.76367,-0.3048,-0.14519,0.77896
464.245,52.80367,1.78779,-0.31509,-0.14981,0.77837
464.945,52.8708,1.79422,-0.32288,-0.15502,0.77778
465.645,52.93781,1.79771,-0.33469,-0.16086,0.77719
466.345,53.0049,1.80812,-0.34495,-0.16733,0.7766
467.045,53.07215,1.845,-0.35631,-0.17432,0.77601
467.745,53.1394,1.83999,-0.36869,-0.18169,0.77542
468.445,53.20658,1.87197,-0.38107,-0.18932,0.77483
469.145,53.2737,1.87616,-0.39357,-0.19711,0.77425
469.845,53.3407,1.91679,-0.40645,-0.20497,0.77366
470.545,53.40794,1.92033,-0.42185,-0.21283,0.77307
471.245,53.47518,1.95331,-0.43698,-0.22066,0.77248
471.945,53.5429,2.01705,-0.45083,-0.22853,0.77189
472.645,53.6106,1.99982,-0.46643,-0.23647,0.77131
473.345,53.67833,2.02856,-0.48278,-0.2446,0.77072
474.045,53.7455,2.03626,-0.50015,-0.253,0.77013
474.745,53.81281,2.06027,-0.51717,-0.26183,0.76955
475.445,53.88032,2.12405,-0.53464,-0.27108,0.76896
476.145,53.94798,2.1702,-0.55167,-0.28066,0.76838
476.845,54.01563,2.23517,-0.57249,-0.29032,0.76779
477.545,54.0832,2.26935,-0.59245,-0.2998,0.7672
478.245,54.1507,2.27476,-0.61307,-0.30888,0.76662
478.945,54.2184,2.35795,-0.63273,-0.31744,0.76603
479.645,54.28609,2.43044,-0.65843,-0.32542,0.76545
480.345,54.35374,2.37435,-0.68042,-0.33291,0.76487
481.045,54.4212,2.3421,-0.70302,-0.33999,0.76428
481.745,54.489,2.40842,-0.72463,-0.34676,0.7637
482.445,54.5566,2.42435,-0.7472,-0.35318,0.76312
483.145,54.62445,2.45617,-0.7742,-0.35928,0.76253
483.845,54.69205,2.48199,-0.79967,-0.36507,0.76195
484.545,54.75991,2.42277,-0.82575,-0.37088,0.76137
485.245,54.82753,2.35184,-0.84627,-0.37706,0.76079
485.945,54.8952,2.32124,-0.87547,-0.38409,0.7602
486.645,54.9627,2.35882,-0.90002,-0.39224,0.75962
487.345,55.03004,2.41413,-0.92267,-0.40152,0.75904
488.045,55.09746,2.41054,-0.95055,-0.41171,0.75846
488.745,55.16499,2.48182,-0.98003,-0.42229,0.75788
489.445,55.2329,2.5548,-1.008,-0.43273,0.7573
490.145,55.30072,2.56287,-1.04087,-0.44251,0.75672
490.845,55.36866,2.54321,-1.07311,-0.45152,0.75614
491.545,55.43655,2.52316,-1.10038,-0.45988,0.75556
492.245,55.5049,2.50166,-1.13479,-0.4681,0.75498
492.945,55.5731,2.50935,-1.16641,-0.47663,0.75441
493.645,55.6413,2.5032,-1.19847,-0.48597,0.75383
494.345,55.709,2.56442,-1.23169,-0.49627,0.75325
495.045,55.77685,2.58737,-1.26109,-0.50749,0.75267
495.745,55.8448,2.6039,-1.29716,-0.51922,0.7521
496.445,55.91274,2.73642,-1.33516,-0.53083,0.75152
497.145,55.98073,2.7612,-1.37065,-0.5418,0.75094
497.845,56.0488,2.74026,-1.41296,-0.55183,0.75037
498.545,56.11693,2.7108,-1.44637,-0.56091,0.74979
499.245,56.185,2.68915,-1.48778,-0.56925,0.74922
499.945,56.25283,2.66945,-1.52678,-0.57712,0.74864
500.645,56.32094,2.6601,-1.56408,-0.58476,0.74807
501.345,56.38912,2.65071,-1.60325,-0.59217,0.74749
502.045,56.4575,2.67938,-1.64689,-0.5992,0.74692
502.745,56.52545,2.6827,-1.68901,-0.60555,0.74635
503.445,56.59352,2.68533,-1.7271,-0.61112,0.74577
504.145,56.6613,2.67648,-1.77192,-0.61583,0.7452
504.845,56.72925,2.6814,-1.81513,-0.61978,0.74463
505.545,56.7974,2.6778,-1.85565,-0.62305,0.74406
506.245,56.8654,2.66274,-1.89872,-0.62562,0.74349
506.945,56.93385,2.6591,-1.94141,-0.6273,0.74292
507.645,57.0021,2.61645,-1.986,-0.62772,0.74235
508.345,57.07066,2.58967,-2.02419,-0.62651,0.74178
509.045,57.1388,2.56725,-2.074,-0.62343,0.74121
509.745,57.20705,2.52413,-2.11683,-0.61844,0.74064
510.445,57.2754,2.49002,-2.15969,-0.61168,0.74007
511.145,57.34364,2.42404,-2.19811,-0.60336,0.7395
511.845,57.41208,2.40001,-2.23975,-0.59354,0.73893
512.545,57.4804,2.32443,-2.28204,-0.58223,0.73836
513.245,57.5489,2.25037,-2.32403,-0.5693,0.7378
513.945,57.6171,2.18957,-2.36236,-0.55476,0.73723
514.645,57.68529,2.1097,-2.39638,-0.5385,0.73666
515.345,57.75342,2.02726,-2.44214,-0.52058,0.7361
516.045,57.82159,1.93662,-2.47313,-0.50102,0.73553
516.745,57.88969,1.85073,-2.50259,-0.47997,0.73497
517.445,57.9578,1.75926,-2.53829,-0.45759,0.7344
518.145,58.0259,1.67011,-2.5712,-0.43422,0.73384
518.845,58.09401,1.56801,-2.5974,-0.41013,0.73327
519.545,58.1622,1.46816,-2.62374,-0.3857,0.73271
520.245,58.23047,1.38679,-2.64896,-0.36122,0.73215
520.945,58.29863,1.29705,-2.67511,-0.33712,0.73158
521.645,58.36701,1.21341,-2.69573,-0.31361,0.73102
522.345,58.43529,1.13843,-2.71675,-0.29106,0.73046
523.045,58.50375,1.0659,-2.73394,-0.2696,0.7299
523.745,58.5722,0.98683,-2.75093,-0.24937,0.72934
524.445,58.6407,0.92469,-2.7677,-0.23028,0.72878
525.145,58.70913,0.86857,-2.78118,-0.21229,0.72822
525.845,58.7774,0.82601,-2.79664,-0.1953,0.72766
526.545,58.8458,0.77114,-2.80927,-0.17925,0.7271
527.245,58.914,0.74637,-2.82129,-0.1643,0.72654
527.945,58.98251,0.70887,-2.82853,-0.15044,0.72598
528.645,59.05089,0.669,-2.83743,-0.13784,0.72543
529.345,59.1195,0.64408,-2.84858,-0.12643,0.72487
530.045,59.18804,0.60349,-2.8548,-0.11633,0.72431
530.745,59.2566,0.58591,-2.86669,-0.10756,0.72376
531.445,59.3252,0.57343,-2.87067,-0.10019,0.7232
532.145,59.3936,0.54537,-2.87418,-0.09424292,0.72265
532.845,59.4619,0.54487,-2.885,-0.08953268,0.72209
533.545,59.53031,0.52108,-2.88719,-0.08566553,0.72154
534.245,59.5986,0.5063,-2.88766,-0.08213886,0.72098
534.945,59.66718,0.48416,-2.90056,-0.07842298,0.72043
535.645,59.7354,0.49983,-2.90405,-0.07422445,0.71988
536.345,59.80396,0.48036,-2.90944,-0.06945874,0.71932
537.045,59.87239,0.46512,-2.91552,-0.06437189,0.71877
537.745,59.9409,0.46303,-2.92164,-0.05933252,0.71822
538.445,60.0094,0.44746,-2.92258,-0.05472724,0.71767
539.145,60.07775,0.45262,-2.92248,-0.05078568,0.71712
539.845,60.14625,0.42666,-2.92734,-0.04752037,0.71657
540.545,60.2145,0.43302,-2.9317,-0.04485179,0.71602
541.245,60.283,0.42679,-2.93508,-0.0426278,0.71547
541.945,60.3513,0.4182,-2.93852,-0.04078262,0.71492
542.645,60.4199,0.419,-2.93811,-0.0392847,0.71438
543.345,60.48845,0.40833,-2.94061,-0.03816938,0.71383
544.045,60.55699,0.40571,-2.94521,-0.03745238,0.71328
544.745,60.6254,0.4003,-2.94873,-0.03709834,0.71274
545.445,60.69386,0.42379,-2.94908,-0.03698015,0.71219
546.145,60.76235,0.41384,-2.95077,-0.03687368,0.71164
546.845,60.83106,0.41152,-2.95352,-0.03649579,0.7111
547.545,60.8997,0.40354,-2.95856,-0.03560601,0.71055
548.245,60.96838,0.40587,-2.9597,-0.03412275,0.71001
548.945,61.0365,0.41064,-2.96382,-0.03220284,0.70947
549.645,61.10461,0.40826,-2.96633,-0.03015461,0.70892
550.345,61.17266,0.40327,-2.96653,-0.02834019,0.70838
551.045,61.24142,0.40013,-2.96722,-0.02700924,0.70784
551.745,61.3104,0.40478,-2.96813,-0.02625338,0.7073
552.445,61.37934,0.38742,-2.97107,-0.02596151,0.70676
553.145,61.4481,0.40149,-2.97265,-0.02591937,0.70622
553.845,61.51684,0.39316,-2.97633,-0.02592702,0.70568
554.545,61.58625,0.39581,-2.97653,-0.02586548,0.70514
555.245,61.6556,0.38932,-2.9792,-0.02570226,0.7046
555.945,61.7249,0.40652,-2.9799,-0.02545591,0.70406
556.645,61.79367,0.40006,-2.9814,-0.02515208,0.70353
557.345,61.8624,0.41921,-2.98412,-0.02479126,0.70299
558.045,61.931,0.40962,-2.98543,-0.02435316,0.70245
558.745,61.9998,0.39662,-2.98674,-0.02381389,0.70192
559.445,62.06875,0.39706,-2.98829,-0.02318199,0.70138
560.145,62.1378,0.37715,-2.99018,-0.02252527,0.70085
560.845,62.20669,0.39543,-2.99168,-0.02197968,0.70031
561.545,62.27561,0.39618,-2.99388,-0.02170648,0.69978
562.245,62.3445,0.37936,-2.99433,-0.02182826,0.69925
562.945,62.4134,0.37308,-2.99462,-0.02235327,0.69871
563.645,62.48225,0.36474,-2.99737,-0.02314694,0.69818
564.345,62.5513,0.3659,-2.99724,-0.02397001,0.69765
565.045,62.62045,0.37055,-3.00145,-0.02456474,0.69712
565.745,62.6894,0.37142,-3.00421,-0.02475696,0.69659
566.445,62.7586,0.36345,-3.00485,-0.02451909,0.69606
567.145,62.8275,0.36483,-3.00626,-0.02395992,0.69553
567.845,62.8963,0.36559,-3.008,-0.02326865,0.695
568.545,62.96507,0.37002,-3.00949,-0.02263651,0.69447
569.245,63.03397,0.37863,-3.01223,-0.02219774,0.69395
569.945,63.10315,0.36545,-3.01235,-0.02198831,0.69342
570.645,63.172,0.39373,-3.01224,-0.02193775,0.69289
571.345,63.2407,0.37194,-3.01621,-0.02189832,0.69237
572.045,63.30959,0.36994,-3.01636,-0.02171545,0.69184
572.745,63.3782,0.36945,-3.01779,-0.02130349,0.69132
573.445,63.44712,0.37651,-3.02164,-0.02068487,0.69079
574.145,63.516,0.39157,-3.02314,-0.01999387,0.69027
574.845,63.585,0.38564,-3.02249,-0.01940853,0.68975
575.545,63.6538,0.37971,-3.02316,-0.01907943,0.68922
576.245,63.72279,0.39051,-3.02493,-0.01906256,0.6887
576.945,63.79184,0.39631,-3.02644,-0.01931145,0.68818
577.645,63.86099,0.38902,-3.02911,-0.01969106,0.68766
578.345,63.92994,0.41454,-3.02835,-0.02001875,0.68714
579.045,63.9992,0.43003,-3.0304,-0.02012318,0.68662
579.745,64.0684,0.43651,-3.033,-0.01988964,0.6861
580.445,64.1378,0.44076,-3.03519,-0.01930446,0.68558
581.145,64.20705,0.41488,-3.0349,-0.01847232,0.68507
581.845,64.27641,0.41653,-3.03617,-0.01758387,0.68455
582.545,64.34568,0.42457,-3.03763,-0.01687668,0.68403
583.245,64.41494,0.40898,-3.03792,-0.01656732,0.68352
583.945,64.4842,0.41481,-3.04054,-0.01679608,0.683
584.645,64.55335,0.4415,-3.03991,-0.01757256,0.68249
585.345,64.62269,0.43852,-3.03996,-0.01874961,0.68197
586.045,64.6921,0.42902,-3.04132,-0.02002302,0.68146
586.745,64.76161,0.43785,-3.04354,-0.02100262,0.68095
587.445,64.83094,0.43275,-3.04662,-0.02132729,0.68043
588.145,64.90025,0.42879,-3.04689,-0.02080345,0.67992
588.845,64.9696,0.44362,-3.05125,-0.01947497,0.67941
589.545,65.03886,0.43824,-3.05256,-0.01763109,0.6789
590.245,65.1082,0.39681,-3.0519,-0.01570519,0.67839
590.945,65.17749,0.44477,-3.05298,-0.01415026,0.67788
591.645,65.2469,0.43402,-3.05401,-0.01327759,0.67737
592.345,65.31614,0.4487,-3.05358,-0.01318526,0.67686
593.045,65.38551,0.45543,-3.054,-0.0137447,0.67636
593.745,65.45464,0.44509,-3.0553,-0.01468056,0.67585
594.445,65.52376,0.45542,-3.0557,-0.01569973,0.67534
595.145,65.593,0.4504,-3.0597,-0.01658841,0.67484
595.845,65.6622,0.44192,-3.0598,-0.01724889,0.67433
596.545,65.7317,0.46452,-3.06153,-0.01767575,0.67383
597.245,65.80083,0.44638,-3.06111,-0.01787342,0.67333
597.945,65.87031,0.46387,-3.06188,-0.01780812,0.67282
598.645,65.9398,0.48282,-3.06517,-0.01739196,0.67232
599.345,66.00957,0.48407,-3.0666,-0.01653156,0.67182
600.045,66.0792,0.49088,-3.06725,-0.01521403,0.67132
600.745,66.14883,0.49423,-3.06857,-0.0135436,0.67082
601.445,66.21847,0.49721,-3.07094,-0.01175086,0.67032
602.145,66.28828,0.48839,-3.07132,-0.0101348,0.66982
602.845,66.35799,0.49717,-3.06979,-0.00899,0.66932
603.545,66.42766,0.49937,-3.07108,-0.00849701,0.66882
604.245,66.49745,0.49048,-3.06977,-0.008689094,0.66832
604.945,66.56734,0.48641,-3.07109,-0.009463137,0.66783
605.645,66.63725,0.49963,-3.0724,-0.01062569,0.66733
606.345,66.70704,0.49087,-3.07369,-0.01195154,0.66683
607.045,66.7766,0.49247,-3.0726,-0.0132238,0.66634
607.745,66.84636,0.52144,-3.07397,-0.01426222,0.66584
608.445,66.9161,0.5494,-3.07536,-0.01490772,0.66535
609.145,66.98613,0.51624,-3.078,-0.01506545,0.66486
609.845,67.05544,0.51276,-3.07861,-0.01472418,0.66437
610.545,67.1249,0.54464,-3.08013,-0.01395933,0.66387
611.245,67.19458,0.51229,-3.08064,-0.01291468,0.66338
611.945,67.26445,0.51843,-3.08187,-0.01177137,0.66289
612.645,67.33421,0.52545,-3.08176,-0.01071425,0.6624
613.345,67.40371,0.51761,-3.08323,-0.009882947,0.66191
614.045,67.47329,0.51316,-3.08315,-0.009350145,0.66142
614.745,67.543,0.51562,-3.08452,-0.009137649,0.66094
615.445,67.6126,0.50565,-3.08316,-0.009229527,0.66045
616.145,67.68221,0.51813,-3.08622,-0.009587386,0.65996
616.845,67.75185,0.50894,-3.08697,-0.01014341,0.65948
617.545,67.82165,0.51094,-3.08473,-0.0107735,0.65899
618.245,67.89146,0.49737,-3.08347,-0.01128267,0.65851
618.945,67.96087,0.50632,-3.08974,-0.01145239,0.65802
619.645,68.02996,0.49062,-3.08974,-0.01114591,0.65754
620.345,68.0992,0.49926,-3.08974,-0.01037725,0.65706
621.045,68.16874,0.48181,-3.09259,-0.009327496,0.65657
621.745,68.23877,0.48245,-3.09229,-0.008266643,0.65609
622.445,68.30904,0.48291,-3.09116,-0.00744576,0.65561
623.145,68.37942,0.48665,-3.0902,-0.00699141,0.65513
623.845,68.44968,0.47273,-3.09172,-0.00690308,0.65465
624.545,68.51975,0.49582,-3.09445,-0.007115702,0.65417
625.245,68.5898,0.47553,-3.09341,-0.00756589,0.65369
625.945,68.6601,0.48248,-3.09433,-0.008207945,0.65322
626.645,68.73015,0.49024,-3.09406,-0.008982829,0.65274
627.345,68.8004,0.49707,-3.09489,-0.009812339,0.65226
628.045,68.87046,0.51864,-3.09601,-0.01058934,0.65179
628.745,68.94068,0.50783,-3.09753,-0.01121627,0.65131
629.445,69.01082,0.51917,-3.09753,-0.01160635,0.65084
630.145,69.0809,0.52293,-3.0972,-0.01170091,0.65037
630.845,69.15083,0.54615,-3.09873,-0.01147698,0.64989
631.545,69.22054,0.54621,-3.10137,-0.0109635,0.64942
632.245,69.29055,0.58118,-3.10272,-0.01023151,0.64895
632.945,69.3605,0.56549,-3.1026,-0.00937082,0.64848
633.645,69.4306,0.57484,-3.10137,-0.008442511,0.64801
634.345,69.50055,0.57382,-3.10272,-0.00744267,0.64754
635.045,69.5705,0.5751,-3.10258,-0.0063467,0.64707
635.745,69.64035,0.59789,-3.10466,-0.00515672,0.6466
636.445,69.7098,0.58444,-3.10705,-0.003973,0.64613
637.145,69.77941,0.59096,-3.10187,-0.002769165,0.64567
637.845,69.84916,0.59951,-3.10356,-0.001663411,0.6452
638.545,69.91956,0.59435,-3.10476,-0.0018173,0.64473
639.245,69.9902,0.59821,-3.10477,-0.000479305,0.64427