File: 01_Data/PC/STA/N2/10K_min/PC_STA_N2_10KData_211709_R3.csv
##Temp./Â°C,Time/min,DSC(subtr.2)/mW,Mass loss(subtr.2)/mg,DTG(subtr.2)/(mg/min),Sensit./(uV/mW)
49.778,10.01,-0.002946155,-0.03544,-0.01010374,1.03584
50.478,11.51469,0.08346878,-0.03957652,-0.009778385,1.03581
51.178,11.90172,0.13018,-0.04048184,0.005777571,1.03578
51.878,12.18334,0.18817,-0.04212001,0.003436582,1.03574
52.578,12.41943,0.22911,-0.04151461,-0.003327317,1.0357
53.278,12.62452,0.25963,-0.04334334,-0.03438563,1.03566
53.978,12.8119,0.28835,-0.04275873,0.03476786,1.03561
54.678,12.98542,0.31038,-0.04240727,-0.02978458,1.03556
55.378,13.1481,0.3328,-0.04313941,0.01014859,1.03552
56.078,13.29749,0.34359,-0.04147552,0.02171529,1.03547
56.778,13.44615,0.37568,-0.04454634,-0.03062869,1.03541
57.478,13.59283,0.39305,-0.04396795,-0.00693562,1.03536
58.178,13.72901,0.40469,-0.04314751,0.002541757,1.0353
58.878,13.86231,0.42213,-0.04425486,0.000890569,1.03524
59.578,13.9915,0.43683,-0.04662944,0.004277598,1.03518
60.278,14.11692,0.44639,-0.04492037,-0.03857335,1.03512
60.978,14.2397,0.45256,-0.04608557,0.01737662,1.03505
61.678,14.3593,0.47662,-0.04596765,-0.01414242,1.03498
62.378,14.47582,0.49149,-0.04611047,0.00546009,1.03491
63.078,14.5894,0.50933,-0.04615391,-0.04295084,1.03484
63.778,14.702,0.50812,-0.04619074,0.005778105,1.03477
64.478,14.81281,0.52407,-0.04770081,-0.01812418,1.03469
65.178,14.92104,0.53614,-0.0466715,-0.004497548,1.03462
65.878,15.0268,0.54332,-0.04746786,-0.00320711,1.03454
66.578,15.1311,0.56084,-0.04892016,-0.01420265,1.03445
67.278,15.23417,0.57354,-0.04772981,0.007938604,1.03437
67.978,15.3357,0.5834,-0.04615496,0.01178901,1.03428
68.678,15.436,0.58053,-0.04911551,-0.02096015,1.0342
69.378,15.53435,0.59962,-0.04995081,0.01403212,1.03411
70.078,15.63105,0.6133,-0.04775477,-0.00645101,1.03401
70.778,15.72675,0.61869,-0.04785231,-0.01623128,1.03392
71.478,15.82194,0.63084,-0.04752161,0.005528764,1.03382
72.178,15.9165,0.65221,-0.04745532,0.0003579021,1.03372
72.878,16.00924,0.65678,-0.0487914,-0.02535922,1.03362
73.578,16.10047,0.65938,-0.05035079,0.01613385,1.03352
74.278,16.19145,0.67982,-0.04979976,-0.01431674,1.03342
74.978,16.28228,0.67784,-0.05061567,0.02144812,1.03331
75.678,16.3715,0.68955,-0.04823571,-0.01282306,1.0332
76.378,16.45984,0.69927,-0.04991915,-0.006434319,1.03309
77.078,16.54761,0.70651,-0.05104832,-0.02739737,1.03298
77.778,16.6347,0.71576,-0.05095544,0.02623152,1.03286
78.478,16.72092,0.72379,-0.05095319,0.005564311,1.03275
79.178,16.80633,0.73282,-0.05136131,-0.00158515,1.03263
79.878,16.89142,0.74207,-0.05132073,0.004224927,1.03251
80.578,16.97573,0.74022,-0.05112154,0.002300839,1.03238
81.278,17.05858,0.74214,-0.0526786,-0.009904608,1.03226
81.978,17.14067,0.74792,-0.05122866,0.005358689,1.03213
82.678,17.22231,0.75531,-0.05314434,-0.02345332,1.032
83.378,17.3042,0.76006,-0.05285981,0.01483039,1.03187
84.078,17.38551,0.76356,-0.05255283,-0.001290866,1.03174
84.778,17.46617,0.77365,-0.05141741,0.01228989,1.03161
85.478,17.54683,0.77257,-0.0529317,-0.01987716,1.03147
86.178,17.62663,0.78293,-0.05392272,-0.00312323,1.03133
86.878,17.70562,0.78775,-0.05243961,0.00134316,1.03119
87.578,17.78451,0.78415,-0.05374873,-0.01040684,1.03105
88.278,17.863,0.78595,-0.05387164,-0.00718519,1.0309
88.978,17.9413,0.80361,-0.05385972,0.007947665,1.03076
89.678,18.01892,0.80936,-0.05413624,-0.01560272,1.03061
90.378,18.0959,0.80542,-0.05405232,0.0121207,1.03046
91.078,18.17253,0.81014,-0.0531465,0.009014939,1.03031
91.778,18.24876,0.81901,-0.05452529,-0.0340637,1.03015
92.478,18.3246,0.833,-0.05462237,-0.00274203,1.02999
93.178,18.39997,0.83416,-0.05529259,0.01958073,1.02984
93.878,18.4752,0.83992,-0.05566823,0.01037229,1.02968
94.578,18.55069,0.84544,-0.05576949,0.02111048,1.02951
95.278,18.62602,0.85281,-0.05582194,-0.02386955,1.02935
95.978,18.70058,0.86633,-0.05588055,-0.005444592,1.02918
96.678,18.77467,0.8648,-0.05608921,-0.01580836,1.02902
97.378,18.84846,0.87441,-0.05591683,0.00296744,1.02885
98.078,18.92213,0.87637,-0.05612925,-0.01904563,1.02868
98.778,18.9956,0.87808,-0.05611415,0.02152703,1.0285
99.478,19.06856,0.88994,-0.05496809,-0.01333982,1.02833
100.178,19.14153,0.88798,-0.056065,-0.01153504,1.02815
100.878,19.2139,0.89507,-0.0560113,-0.01658686,1.02797
101.578,19.28592,0.90145,-0.05876728,-0.0178063,1.02779
102.278,19.3577,0.89817,-0.05736919,0.01311733,1.02761
102.978,19.42963,0.9058,-0.0560586,-0.01202735,1.02742
103.678,19.50179,0.91221,-0.0568784,-0.00823622,1.02723
104.378,19.5733,0.91431,-0.05736538,-0.01640331,1.02705
105.078,19.64401,0.92664,-0.05728436,0.02049042,1.02686
105.778,19.7144,0.92763,-0.05739616,-0.007384039,1.02666
106.478,19.78511,0.93217,-0.05696136,0.001487675,1.02647
107.178,19.85664,0.94302,-0.05740263,0.01724264,1.02627
107.878,19.92824,0.93842,-0.05757548,-0.02332746,1.02607
108.578,19.99953,0.95623,-0.0586686,0.01801687,1.02587
109.278,20.07013,0.95364,-0.05714972,0.00966634,1.02567
109.978,20.14027,0.95615,-0.05583982,-0.01055697,1.02547
110.678,20.20992,0.96735,-0.05716119,-0.01964054,1.02526
111.378,20.27991,0.96164,-0.05846997,-0.007617414,1.02506
112.078,20.34974,0.96874,-0.05846604,0.01300717,1.02485
112.778,20.42,0.96798,-0.05847,0.01618402,1.02464
113.478,20.48955,0.97636,-0.05715001,0.000158079,1.02442
114.178,20.55913,0.97781,-0.05847806,-0.01679442,1.02421
114.878,20.62852,0.99001,-0.05846976,5.98873e-05,1.02399
115.578,20.69766,0.98756,-0.05825341,0.003195373,1.02377
116.278,20.76644,0.99574,-0.05846653,-0.0075865,1.02355
116.978,20.83546,1.0009,-0.05977688,-0.008754556,1.02333
117.678,20.90438,0.99602,-0.05977276,0.004981767,1.02311
118.378,20.97351,0.99098,-0.0584839,0.01361226,1.02288
119.078,21.04196,1.00547,-0.05843257,-0.01933829,1.02266
119.778,21.11034,1.00544,-0.05978998,-0.004185333,1.02243
120.478,21.1784,1.01476,-0.0610921,-0.00472609,1.0222
121.178,21.2467,1.01734,-0.06005318,-0.01413991,1.02196
121.878,21.315,1.02884,-0.05969252,-0.0004472854,1.02173
122.578,21.38308,1.03603,-0.05996814,-0.008420516,1.02149
123.278,21.45095,1.0296,-0.06175145,-0.005275559,1.02126
123.978,21.51834,1.03887,-0.06095635,-0.005030418,1.02102
124.678,21.58526,1.04617,-0.05963689,0.006569984,1.02077
125.378,21.65202,1.04868,-0.06098919,-0.00339135,1.02053
126.078,21.71902,1.05298,-0.06099001,0.000824151,1.02029
126.778,21.78615,1.04995,-0.05971054,-0.003369928,1.02004
127.478,21.8534,1.0606,-0.06099112,-0.00992422,1.01979
128.178,21.9202,1.059,-0.06230976,-0.003576853,1.01954
128.878,21.987,1.06562,-0.06095857,0.01825581,1.01929
129.578,22.0534,1.07565,-0.0606991,0.007764732,1.01903
130.278,22.11981,1.08131,-0.06098995,-0.004956755,1.01878
130.978,22.1862,1.08631,-0.06238843,-0.0147105,1.01852
131.678,22.25301,1.0784,-0.06241363,0.01635035,1.01826
132.378,22.31951,1.08301,-0.06109828,-0.01891061,1.018
133.078,22.38565,1.09065,-0.06233432,-0.01559919,1.01774
133.778,22.45172,1.09552,-0.06250204,-0.002944902,1.01748
134.478,22.51765,1.08608,-0.06251188,-0.01065112,1.01721
135.178,22.58349,1.09447,-0.06351032,-0.000783203,1.01694
135.878,22.6497,1.09668,-0.06351845,0.02161678,1.01667
136.578,22.71575,1.10743,-0.0635378,-0.02373134,1.0164
137.278,22.78182,1.11734,-0.06280579,-0.00476039,1.01613
137.978,22.84746,1.11942,-0.06360726,0.01431106,1.01585
138.678,22.91304,1.11699,-0.062301,0.00305811,1.01558
139.378,22.97805,1.11789,-0.06229705,-0.00807571,1.0153
140.078,23.04314,1.13325,-0.06362389,-0.0068959,1.01502
140.778,23.1082,1.13285,-0.06238118,0.02274604,1.01474
141.478,23.17372,1.13417,-0.06327222,-0.02444727,1.01446
142.178,23.2388,1.14363,-0.06363758,-0.01521522,1.01417
142.878,23.3038,1.13935,-0.0649392,-0.002254065,1.01389
143.578,23.36872,1.14661,-0.06366681,0.01960651,1.0136
144.278,23.43354,1.16044,-0.06365065,0.004960193,1.01331
144.978,23.49815,1.16966,-0.06364236,-0.01194694,1.01302
145.678,23.56264,1.17061,-0.06463078,-0.02423307,1.01273
146.378,23.62717,1.18239,-0.06516836,0.00326014,1.01243
147.078,23.6918,1.20538,-0.06593021,-0.0009909901,1.01214
147.778,23.7564,1.22617,-0.06593001,-2.158772e-06,1.01184
148.478,23.82086,1.24163,-0.06591515,-0.01548114,1.01154
149.178,23.88495,1.2622,-0.06700355,0.00743615,1.01124
149.878,23.94918,1.29531,-0.06461447,0.02046692,1.01094
150.578,24.01369,1.32894,-0.06585613,-0.03341835,1.01063
151.278,24.0783,1.35076,-0.06588975,0.01674159,1.01033
151.978,24.14205,1.36327,-0.06713572,-0.0056224,1.01002
152.678,24.20628,1.37906,-0.06583163,0.002649672,1.00971
153.378,24.27038,1.37859,-0.0658104,-0.00406529,1.0094
154.078,24.33493,1.37532,-0.06713044,-0.000931504,1.00909
154.778,24.39902,1.35687,-0.06713,-1.86659e-08,1.00877
155.478,24.46314,1.37488,-0.06712856,0.002414869,1.00846
156.178,24.52736,1.36939,-0.06678676,-0.004833356,1.00814
156.878,24.5915,1.37259,-0.06829475,-0.0227597,1.00782
157.578,24.65541,1.36926,-0.06733013,0.02457985,1.0075
158.278,24.71947,1.36709,-0.06692001,3.102159e-05,1.00718
158.978,24.78337,1.37459,-0.06691996,5.394394e-05,1.00686
159.678,24.84742,1.37364,-0.06650824,0.01169688,1.00654
160.378,24.9113,1.38179,-0.06624438,-0.00693394,1.00621
161.078,24.97516,1.38158,-0.06680007,-0.0002474911,1.00588
161.778,25.03908,1.38111,-0.06780404,-0.0290387,1.00555
162.478,25.1031,1.38124,-0.06833998,-9.7944e-05,1.00522
163.178,25.16695,1.39939,-0.06834,-4.13286e-08,1.00489
163.878,25.23076,1.39423,-0.06833976,0.001953397,1.00455
164.578,25.29448,1.39517,-0.06702393,0.01399829,1.00422
165.278,25.3583,1.40064,-0.06981139,-0.03763486,1.00388
165.978,25.42217,1.4092,-0.06849074,0.02857465,1.00354
166.678,25.4858,1.4061,-0.06728501,0.02399314,1.0032
167.378,25.54908,1.41062,-0.06819744,-0.02272116,1.00286
168.078,25.61255,1.41273,-0.06822989,-0.0004602466,1.00252
168.778,25.67601,1.41583,-0.06936484,-0.009340784,1.00217
169.478,25.74004,1.4119,-0.06854999,0.001224286,1.00183
170.178,25.8038,1.40237,-0.06857585,0.00538582,1.00148
170.878,25.86733,1.41853,-0.06822989,0.000201353,1.00113
171.578,25.9307,1.42089,-0.06825414,-0.02114265,1.00078
172.278,25.99404,1.41966,-0.06817831,0.01935718,1.00043
172.978,26.05738,1.43383,-0.06823343,0.007685727,1.00008
173.678,26.12077,1.42892,-0.06690798,0.004346513,0.99972
174.378,26.18436,1.43378,-0.06821341,-0.01912845,0.99936
175.078,26.2477,1.43003,-0.06950973,0.00807852,0.99901
175.778,26.3111,1.42918,-0.06801054,0.001381114,0.99865
176.478,26.37443,1.4422,-0.06930793,-0.01248238,0.99829
177.178,26.4375,1.43973,-0.06900178,-0.0008201105,0.99792
177.878,26.50057,1.44652,-0.06932712,-0.004871058,0.99756
178.578,26.5637,1.44303,-0.06931982,0.01169999,0.99719
179.278,26.62697,1.44964,-0.06800774,0.00542374,0.99683
179.978,26.69033,1.45459,-0.06800718,-0.01641359,0.99646
180.678,26.7536,1.44927,-0.06932537,-0.0124631,0.99609
181.378,26.81677,1.44894,-0.07196343,-0.02619097,0.99572
182.078,26.87987,1.45875,-0.07196714,0.02352352,0.99535
182.778,26.9428,1.45297,-0.07063969,-4.05277e-05,0.99497
183.478,27.00553,1.45712,-0.07196313,0.003259085,0.9946
184.178,27.0682,1.45585,-0.06932505,0.01210846,0.99422
184.878,27.1311,1.46582,-0.06930228,-0.01423921,0.99384
185.578,27.1939,1.47198,-0.06930562,-0.0088007,0.99346
186.278,27.25672,1.46922,-0.07074826,0.0006567912,0.99308
186.978,27.31927,1.46804,-0.06943342,0.0165971,0.9927
187.678,27.382,1.47338,-0.06940206,-0.01759232,0.99232
188.378,27.4446,1.4857,-0.06938881,0.01789527,0.99193
189.078,27.5074,1.4738,-0.06943517,-0.02257925,0.99155
189.778,27.57041,1.47553,-0.07206365,-0.01837413,0.99116
190.478,27.63321,1.47791,-0.07196125,0.001640437,0.99077
191.178,27.6958,1.47831,-0.07085434,0.0235762,0.99038
191.878,27.7583,1.48799,-0.07147557,-0.02473516,0.98999
192.578,27.8209,1.49328,-0.07195792,0.01019708,0.9896
193.278,27.8834,1.49854,-0.07053556,0.008011976,0.9892
193.978,27.946,1.49059,-0.07054007,-0.0001155825,0.9888
194.678,28.0085,1.50094,-0.07107483,-0.02456034,0.98841
195.378,28.071,1.49967,-0.07185005,0.0002580759,0.98801
196.078,28.1333,1.51063,-0.07065658,0.02337733,0.98761
196.778,28.19572,1.51527,-0.07180411,-0.02587253,0.98721
197.478,28.25804,1.51377,-0.07326651,0.005194843,0.98681
198.178,28.32061,1.51348,-0.0718498,0.00281795,0.9864
198.878,28.383,1.51808,-0.07052284,0.01926422,0.986
199.578,28.44567,1.52658,-0.07052635,-0.0067966,0.98559
200.278,28.50805,1.52568,-0.07203736,-0.03497465,0.98518
200.978,28.5706,1.52528,-0.07317066,0.01439856,0.98477
201.678,28.63318,1.52771,-0.07185791,4.74097e-05,0.98436
202.378,28.69568,1.52986,-0.07217942,-0.000837509,0.98395
203.078,28.75821,1.5358,-0.07197696,0.02356029,0.98354
203.778,28.82065,1.52858,-0.07221261,-0.02217276,0.98312
204.478,28.88321,1.54507,-0.07185941,0.00440191,0.98271
205.178,28.94571,1.54218,-0.07185001,1.528256e-07,0.98229
205.878,29.0082,1.55459,-0.07185588,0.00836822,0.98187
206.578,29.0707,1.5364,-0.07086071,0.004106502,0.98146
207.278,29.1333,1.54379,-0.07122535,-0.005909559,0.98103
207.978,29.19603,1.54553,-0.07118993,-0.000457573,0.98061
208.678,29.2584,1.55373,-0.07210997,-0.01632777,0.98019
209.378,29.32088,1.54866,-0.07086692,0.0204345,0.97977
210.078,29.3833,1.55569,-0.07085247,0.01324545,0.97934
210.778,29.44592,1.55718,-0.0695495,-0.001990886,0.97891
211.478,29.5083,1.56539,-0.07226258,-0.0457541,0.97849
212.178,29.57093,1.56707,-0.07298095,0.01336605,0.97806
212.878,29.63355,1.56588,-0.07239998,0.000221501,0.97763
213.578,29.6961,1.56351,-0.07180953,0.02486904,0.97719
214.278,29.75855,1.56341,-0.07130315,-0.02454562,0.97676
214.978,29.82071,1.57426,-0.07311971,-0.02515232,0.97633
215.678,29.88304,1.57323,-0.07371995,0.000154189,0.97589
216.378,29.9454,1.57111,-0.07281244,0.02480901,0.97545
217.078,30.008,1.56927,-0.07217968,0.01844778,0.97502
217.778,30.0706,1.5702,-0.07141022,-0.00774114,0.97458
218.478,30.13328,1.57431,-0.07273561,-0.00611863,0.97414
219.178,30.19595,1.57803,-0.07141531,0.01707738,0.9737
219.878,30.2586,1.56846,-0.07142117,-0.004434329,0.97325
220.578,30.3212,1.58142,-0.07272918,-0.01499619,0.97281
221.278,30.3837,1.57281,-0.07410221,-0.02034626,0.97237
221.978,30.4463,1.58218,-0.07404995,0.0001273661,0.97192
222.678,30.50875,1.58653,-0.07349634,0.03293853,0.97147
223.378,30.57123,1.59067,-0.07245945,-0.01010815,0.97102
224.078,30.63383,1.59058,-0.0736169,-0.02391382,0.97057
224.778,30.69636,1.60279,-0.07379079,0.01171722,0.97012
225.478,30.7591,1.59441,-0.07306231,0.006207278,0.96967
226.178,30.8219,1.60013,-0.07253776,-0.02319852,0.96922
226.878,30.88454,1.59986,-0.07508039,-0.02030372,0.96877
227.578,30.9473,1.61195,-0.07507781,0.02095725,0.96831
228.278,31.0099,1.60175,-0.07371001,0.00137789,0.96785
228.978,31.07265,1.5984,-0.07386219,-0.01266799,0.9674
229.678,31.13508,1.6114,-0.07436991,-9.169564e-05,0.96694
230.378,31.19775,1.61404,-0.07436968,-0.0008474977,0.96648
231.078,31.2604,1.61423,-0.07502677,-0.01931852,0.96602
231.778,31.3231,1.62513,-0.07638616,0.01091315,0.96556
232.478,31.3859,1.621,-0.07503082,0.00225413,0.96509
233.178,31.4485,1.62199,-0.07503,2.198766e-08,0.96463
233.878,31.5114,1.62743,-0.07502996,4.427831e-05,0.96416
234.578,31.57392,1.63275,-0.07469345,0.02167883,0.9637
235.278,31.63663,1.6244,-0.07503497,-0.01633297,0.96323
235.978,31.69915,1.62752,-0.07502994,0.0003507357,0.96276
236.678,31.7618,1.62727,-0.07391146,0.02447387,0.96229
237.378,31.82462,1.6331,-0.07370977,-0.0005979395,0.96182
238.078,31.8873,1.63245,-0.07490676,-0.03109259,0.96135
238.778,31.95005,1.63403,-0.07635017,-0.004146669,0.96088
239.478,32.01271,1.6404,-0.07503178,0.01240038,0.9604
240.178,32.07523,1.64554,-0.07504836,-0.00821969,0.95993
240.878,32.1378,1.64539,-0.07568935,-0.00123993,0.95945
241.578,32.20046,1.65632,-0.07499176,0.02002151,0.95898
242.278,32.26311,1.64658,-0.07503188,-0.003561044,0.9585
242.978,32.32582,1.66086,-0.07502951,-0.00103773,0.95802
243.678,32.3884,1.65393,-0.07633026,-0.02181124,0.95754
244.378,32.45102,1.66549,-0.07634,-5.630549e-06,0.95706
245.078,32.51389,1.65053,-0.07634,2.02746e-10,0.95658
245.778,32.57665,1.66211,-0.07634,-6.61009e-11,0.95609
246.478,32.6395,1.65872,-0.07634,-4.755694e-08,0.95561
247.178,32.70232,1.65514,-0.07633678,-0.01600271,0.95513
247.878,32.76502,1.6649,-0.07759685,0.02017122,0.95464
248.578,32.8277,1.67244,-0.07634978,0.0006100014,0.95415
249.278,32.89047,1.67271,-0.07635054,-0.02409448,0.95367
249.978,32.95333,1.66788,-0.0789766,-0.003697307,0.95318
250.678,33.016,1.675,-0.07654657,0.03270231,0.95269
251.378,33.07887,1.6734,-0.07667401,-0.0236023,0.9522
252.078,33.1417,1.67042,-0.07799035,-0.001442713,0.9517
252.778,33.2046,1.68258,-0.07788757,-0.01298181,0.95121
253.478,33.26743,1.68429,-0.07865063,0.0001209023,0.95072
254.178,33.3303,1.67658,-0.07864999,1.88274e-05,0.95022
254.878,33.3932,1.68304,-0.07845912,0.01268995,0.94973
255.578,33.45597,1.68248,-0.07808725,0.02167571,0.94923
256.278,33.5189,1.68496,-0.07668002,0.00110055,0.94873
256.978,33.58162,1.67948,-0.07668,-1.290783e-09,0.94823
257.678,33.6445,1.68373,-0.07667997,5.109617e-06,0.94773
258.378,33.70722,1.68017,-0.07658834,-0.02236894,0.94723
259.078,33.76999,1.677,-0.0780005,0.0226069,0.94673
259.778,33.83294,1.68935,-0.07665905,-0.004812136,0.94623
260.478,33.896,1.68662,-0.07701017,-0.0003135483,0.94573
261.178,33.95893,1.69062,-0.07727748,-0.01832468,0.94522
261.878,34.0222,1.69135,-0.07798993,-0.0001740625,0.94472
262.578,34.08521,1.68736,-0.07798824,0.01095389,0.94421
263.278,34.1481,1.69599,-0.07666744,0.005993,0.94371
263.978,34.21091,1.69594,-0.07667,7.45903e-08,0.9432
264.678,34.2737,1.69639,-0.07667003,-3.310087e-05,0.94269
265.378,34.33683,1.69853,-0.07690466,-0.00634917,0.94218
266.078,34.39974,1.70226,-0.07699226,-0.02355559,0.94167
266.778,34.4627,1.70361,-0.07972396,-0.009356438,0.94116
267.478,34.52551,1.70166,-0.08001574,-0.01773168,0.94065
268.178,34.58831,1.71576,-0.07976228,0.02375889,0.94013
268.878,34.65129,1.71449,-0.08002858,-0.02273593,0.93962
269.578,34.7142,1.70977,-0.07997005,1.777588e-06,0.93911
270.278,34.7772,1.71107,-0.0800037,0.006320485,0.93859
270.978,34.84017,1.71114,-0.07808382,0.02904235,0.93807
271.678,34.90334,1.70654,-0.07781522,0.0076289,0.93756
272.378,34.96633,1.71085,-0.07810861,-0.002399551,0.93704
273.078,35.02955,1.71684,-0.07811,-1.277315e-08,0.93652
273.778,35.09255,1.71782,-0.07811,5.589887e-07,0.936
274.478,35.15551,1.71529,-0.07809633,0.01298802,0.93548
275.178,35.2185,1.71706,-0.07680606,-0.01229081,0.93496
275.878,35.28163,1.72102,-0.07812034,-0.02450512,0.93444
276.578,35.34451,1.71799,-0.07943257,-0.01328098,0.93391
277.278,35.40741,1.72222,-0.08074024,0.007260984,0.93339
277.978,35.47035,1.72225,-0.07942037,0.00492055,0.93287
278.678,35.53362,1.7217,-0.0794201,-0.00155188,0.93234
279.378,35.59688,1.7264,-0.08080061,-0.02007583,0.93181
280.078,35.6603,1.73253,-0.08073995,0.001448408,0.93129
280.778,35.72359,1.71946,-0.0791464,0.03477764,0.93076
281.478,35.78699,1.72168,-0.0781049,-0.001469223,0.93023
282.178,35.85026,1.72571,-0.07942007,-0.007499544,0.9297
282.878,35.9136,1.72964,-0.07941998,2.79803e-06,0.92917
283.578,35.97702,1.7222,-0.07936319,-0.03991273,0.92864
284.278,36.04027,1.72973,-0.08205012,-0.003063663,0.92811
284.978,36.10383,1.73814,-0.08203077,0.0180734,0.92758
285.678,36.16729,1.7388,-0.07943573,0.01295719,0.92705
286.378,36.23069,1.74063,-0.08073932,-0.01384441,0.92651
287.078,36.2943,1.74146,-0.08064733,-0.008479904,0.92598
287.778,36.3576,1.74185,-0.08073434,0.01310953,0.92544
288.478,36.42116,1.7433,-0.07940972,0.006996697,0.92491
289.178,36.48428,1.73745,-0.07941,-3.09877e-08,0.92437
289.878,36.54788,1.72974,-0.07941,-4.877228e-07,0.92383
290.578,36.6117,1.74116,-0.07940156,0.0119352,0.92329
291.278,36.67552,1.73887,-0.07838746,0.00164977,0.92275
291.978,36.73928,1.71581,-0.06960502,0.44788,0.92221
292.678,36.80284,1.70217,-0.04962793,-0.27004,0.92167
293.378,36.86588,1.71522,-0.07456967,-0.21302,0.92113
294.078,36.92928,1.73159,-0.08009694,0.00686751,0.92059
294.778,36.99289,1.73714,-0.07877383,-0.02357497,0.92005
295.478,37.05693,1.72854,-0.08124689,-0.02524622,0.91951
296.178,37.12063,1.74594,-0.08149926,-0.005340458,0.91896
296.878,37.18437,1.74161,-0.08280824,-0.01126795,0.91842
297.578,37.24788,1.75465,-0.083462,-0.08384345,0.91787
298.278,37.31151,1.76966,-0.09932642,-0.17293,0.91733
298.978,37.37505,1.77977,-0.09424926,-0.01986284,0.91678
299.678,37.43875,1.79103,-0.11069,0.3419,0.91623
300.378,37.50203,1.76864,-0.06435625,0.03093814,0.91569
301.078,37.56521,1.77125,-0.08189193,-0.41625,0.91514
301.778,37.62842,1.79132,-0.1069,0.20271,0.91459
302.478,37.69226,1.76394,-0.08063182,0.50997,0.91404
303.178,37.7562,1.7435,-0.05521669,-0.22232,0.91349
303.878,37.82038,1.73545,-0.07437702,-0.07426624,0.91294
304.578,37.8842,1.74754,-0.0756879,-0.02427659,0.91239
305.278,37.94801,1.75141,-0.07782847,-0.02110274,0.91183
305.978,38.0118,1.75996,-0.07834682,-0.01536873,0.91128
306.678,38.07542,1.76156,-0.07983678,-0.02735944,0.91073
307.378,38.13916,1.76251,-0.08007334,-0.00602306,0.91017
308.078,38.20272,1.7725,-0.08138809,-0.01524053,0.90962
308.778,38.26625,1.77952,-0.08436619,-0.06959664,0.90906
309.478,38.32983,1.78518,-0.08752944,-0.0265455,0.90851
310.178,38.3936,1.79374,-0.08884848,-0.002875945,0.90795
310.878,38.45743,1.79648,-0.087549,0.02245663,0.90739
311.578,38.5214,1.79443,-0.08752898,-0.01473168,0.90684
312.278,38.58526,1.81721,-0.09162885,-0.04679955,0.90628
312.978,38.64913,1.81608,-0.09490619,-0.08051931,0.90572
313.678,38.713,1.81474,-0.09437183,0.10143,0.90516
314.378,38.77681,1.81587,-0.08711919,0.08669675,0.9046
315.078,38.84067,1.804,-0.08353871,0.04247656,0.90404
315.778,38.90466,1.79988,-0.08202926,0.02419932,0.90348
316.478,38.96862,1.80615,-0.08204131,-0.04601915,0.90292
317.178,39.0325,1.81088,-0.08229311,0.01579369,0.90235
317.878,39.0963,1.80213,-0.0822194,-0.02019036,0.90179
318.578,39.16024,1.80475,-0.08358018,0.002730119,0.90123
319.278,39.22448,1.8054,-0.0826486,0.007098006,0.90066
319.978,39.28853,1.80696,-0.0826,8.986096e-07,0.9001
320.678,39.35253,1.80981,-0.08259173,-0.01256668,0.89953
321.378,39.4163,1.8116,-0.08358913,-0.00190163,0.89897
322.078,39.4803,1.80307,-0.08358989,0.001878776,0.8984
322.778,39.54438,1.80421,-0.082263,0.01834137,0.89784
323.478,39.60824,1.80464,-0.08219787,-0.02285148,0.89727
324.178,39.6723,1.80664,-0.08359003,-0.0006844972,0.8967
324.878,39.73633,1.80808,-0.08358993,0.0001265584,0.89613
325.578,39.80053,1.82453,-0.08288554,0.0247979,0.89556
326.278,39.86457,1.82367,-0.08229313,-0.01403848,0.895
326.978,39.92861,1.81647,-0.08359013,-0.003647159,0.89443
327.678,39.99262,1.82415,-0.08359052,-0.00190534,0.89386
328.378,40.05693,1.81499,-0.0849423,-0.01830347,0.89328
329.078,40.12109,1.81802,-0.08491138,0.005593285,0.89271
329.778,40.18468,1.81774,-0.08359169,0.01102973,0.89214
330.478,40.24836,1.82254,-0.08358508,-0.009786682,0.89157
331.178,40.3125,1.81072,-0.08491044,-0.006298744,0.891
331.878,40.37704,1.81298,-0.08491,1.46055e-07,0.89043
332.578,40.44184,1.81914,-0.08491248,0.0156738,0.88985
333.278,40.506,1.82583,-0.08359094,0.001760139,0.88928
333.978,40.5702,1.82578,-0.08492323,-0.04259195,0.8887
334.678,40.63427,1.82971,-0.08489306,0.01791763,0.88813
335.378,40.6985,1.81868,-0.0849,-1.66539e-07,0.88755
336.078,40.7626,1.82921,-0.0849003,0.0008983779,0.88698
336.778,40.82683,1.82218,-0.08279289,0.04069199,0.8864
337.478,40.89097,1.82011,-0.08266227,-0.03874745,0.88583
338.178,40.9553,1.83017,-0.08522869,-0.002859959,0.88525
338.878,41.01952,1.82928,-0.0845642,0.009717319,0.88467
339.578,41.0839,1.83412,-0.08578597,-0.02370403,0.88409
340.278,41.14828,1.82219,-0.08589534,-0.00533088,0.88352
340.978,41.21275,1.82913,-0.08588091,0.01404571,0.88294
341.678,41.27721,1.83583,-0.08456554,0.002693889,0.88236
342.378,41.34163,1.81953,-0.08490761,-0.01332245,0.88178
343.078,41.406,1.82496,-0.08622037,-0.004649243,0.8812
343.778,41.47032,1.81957,-0.08622,-0.000975875,0.88062
344.478,41.53464,1.83222,-0.08721262,0.004214087,0.88004
345.178,41.5991,1.83144,-0.08518932,-0.006237145,0.87946
345.878,41.66361,1.83677,-0.08618477,0.005035272,0.87888
346.578,41.7281,1.83558,-0.08622,-1.05769e-06,0.8783
347.278,41.79282,1.8321,-0.08622,2.840953e-10,0.87771
347.978,41.8574,1.83459,-0.08622,-8.446844e-10,0.87713
348.678,41.9221,1.83879,-0.08621999,-0.0002506922,0.87655
349.378,41.98675,1.83759,-0.08727036,-0.02364224,0.87597
350.078,42.05146,1.84074,-0.08618592,0.02122588,0.87538
350.778,42.1162,1.83108,-0.08736567,-0.01537341,0.8748
351.478,42.1809,1.83429,-0.0862113,-0.009686066,0.87421
352.178,42.24564,1.84866,-0.08753915,-0.002318583,0.87363
352.878,42.3103,1.84727,-0.08754001,-2.82752e-05,0.87305
353.578,42.37506,1.84972,-0.08800264,-0.02139728,0.87246
354.278,42.4396,1.86248,-0.08742886,0.01600604,0.87187
354.978,42.50435,1.85979,-0.08743,3.076217e-07,0.87129
355.678,42.56917,1.86377,-0.08743082,-0.01365161,0.8707
356.378,42.6342,1.86313,-0.08873817,-0.003391603,0.87012
357.078,42.699,1.86345,-0.08874,-2.87205e-08,0.86953
357.778,42.76382,1.86391,-0.08873999,9.20992e-07,0.86894
358.478,42.82874,1.87009,-0.08873204,0.01514967,0.86836
359.178,42.89376,1.86928,-0.08743102,0.00282927,0.86777
359.878,42.95881,1.87082,-0.08743,1.98982e-08,0.86718
360.578,43.02373,1.8692,-0.08743,4.42916e-08,0.86659
361.278,43.08867,1.86491,-0.08742966,-0.006863613,0.866
361.978,43.15365,1.86908,-0.08874502,-0.004109009,0.86541
362.678,43.21865,1.85827,-0.08429385,0.12488,0.86483
363.378,43.28365,1.87495,-0.08692618,-0.22235,0.86424
364.078,43.3486,1.86535,-0.09211708,0.05288831,0.86365
364.778,43.41352,1.87715,-0.09074505,0.02879358,0.86306
365.478,43.47858,1.88152,-0.08885047,0.002316819,0.86247
366.178,43.54356,1.86818,-0.08884016,0.01151376,0.86188
366.878,43.60865,1.87637,-0.08753907,0.004541627,0.86129
367.578,43.67375,1.87601,-0.08825191,-0.02474841,0.86069
368.278,43.73881,1.87538,-0.08885025,-0.00186818,0.8601
368.978,43.80409,1.86956,-0.0894933,-0.006509157,0.85951
369.678,43.86932,1.86059,-0.08949982,-0.00165819,0.85892
370.378,43.93458,1.87205,-0.09082686,-0.01820121,0.85833
371.078,43.99967,1.87431,-0.09082002,-0.00025399,0.85774
371.778,44.0648,1.86783,-0.09154786,-0.01146672,0.85714
372.478,44.13015,1.86141,-0.09147991,0.01541927,0.85655
373.178,44.1954,1.8757,-0.08883779,0.01480744,0.85596
373.878,44.26072,1.87546,-0.08884952,-0.004413419,0.85537
374.578,44.32612,1.88187,-0.09016014,-0.01253276,0.85477
375.278,44.39139,1.89133,-0.09016577,-0.003790654,0.85418
375.978,44.45671,1.88716,-0.09147874,-0.009669439,0.85359
376.678,44.52194,1.88389,-0.09148,-3.591062e-09,0.85299
377.378,44.5872,1.88626,-0.09148095,-0.00313503,0.8524
378.078,44.65238,1.89897,-0.09278783,-0.01449214,0.8518
378.778,44.71782,1.89488,-0.0928,-4.971346e-07,0.85121
379.478,44.78325,1.89711,-0.0928,1.185275e-10,0.85061
380.178,44.84871,1.90285,-0.0928,1.382045e-08,0.85002
380.878,44.91425,1.90063,-0.09280084,-0.002281168,0.84943
381.578,44.97971,1.89831,-0.09411248,-0.01623934,0.84883
382.278,45.0451,1.89253,-0.09410855,-0.004782759,0.84823
382.978,45.11042,1.89713,-0.09575667,-0.01734278,0.84764
383.678,45.1759,1.90871,-0.09576374,0.006869671,0.84704
384.378,45.24146,1.89784,-0.09443703,0.01688394,0.84645
385.078,45.30699,1.8995,-0.09311584,0.00717067,0.84585
385.778,45.3727,1.90904,-0.09168299,0.01055979,0.84526
386.478,45.43846,1.90867,-0.09313766,-0.00887881,0.84466
387.178,45.5041,1.91357,-0.09263325,0.0121822,0.84406
387.878,45.56957,1.9014,-0.09247,9.98376e-06,0.84347
388.578,45.63501,1.91289,-0.09248548,0.01384754,0.84287
389.278,45.70053,1.91058,-0.09147991,0.00116766,0.84227
389.978,45.76623,1.92733,-0.09148003,-2.185825e-06,0.84168
390.678,45.83202,1.91759,-0.09137001,0.0126217,0.84108
391.378,45.8979,1.91988,-0.09081959,-0.001255337,0.84048
392.078,45.96382,1.91872,-0.0917814,-0.01326395,0.83989
392.778,46.02965,1.92231,-0.09353872,-0.04702132,0.83929
393.478,46.09548,1.9248,-0.0950687,-0.02682564,0.83869
394.178,46.1611,1.92253,-0.09561154,0.01190264,0.83809
394.878,46.22674,1.92573,-0.09564972,-0.000890485,0.8375
395.578,46.29229,1.92175,-0.09701441,-0.02071748,0.8369
396.278,46.35797,1.93133,-0.09573216,0.02321022,0.8363
396.978,46.42382,1.9292,-0.09564999,-1.686794e-06,0.8357
397.678,46.48969,1.92656,-0.09565271,-0.0209043,0.8351
398.378,46.55551,1.92993,-0.09828756,-0.01282142,0.83451
399.078,46.62141,1.92674,-0.09829049,0.002351364,0.83391
399.778,46.68776,1.9262,-0.09763327,0.005788267,0.83331
400.478,46.75414,1.92341,-0.09730948,0.004228875,0.83271
401.178,46.82,1.92451,-0.0973,2.341131e-09,0.83211
401.878,46.88603,1.92828,-0.097328,-0.02665005,0.83152
402.578,46.95193,1.93195,-0.09992844,-0.006812705,0.83092
403.278,47.0182,1.9418,-0.09992994,0.0001923287,0.83032
403.978,47.0842,1.94486,-0.09915945,-0.005310097,0.82972
404.678,47.1502,1.93979,-0.10026,0.00042401,0.82912
405.378,47.21611,1.9487,-0.09933711,0.01730134,0.82852
406.078,47.28204,1.94685,-0.10041,-0.04641971,0.82792
406.778,47.348,1.94298,-0.1019,-0.0005975352,0.82732
407.478,47.4139,1.94592,-0.10182,0.004008502,0.82673
408.178,47.48016,1.94126,-0.10191,-0.01565162,0.82613
408.878,47.54623,1.93957,-0.09900399,0.08736455,0.82553
409.578,47.6125,1.94585,-0.1019,-0.20771,0.82493
410.278,47.67836,1.95444,-0.11058,0.10788,0.82433
410.978,47.7444,1.94655,-0.10226,-0.0021495,0.82373
411.678,47.8105,1.94406,-0.10486,-0.01672129,0.82313
412.378,47.8765,1.94757,-0.1052,-0.000848811,0.82253
413.078,47.94238,1.93955,-0.10388,0.07631764,0.82193
413.778,48.00821,1.94366,-0.10238,-0.17607,0.82134
414.478,48.0742,1.9553,-0.10934,0.0733424,0.82074
415.178,48.14075,1.95046,-0.10552,0.00805982,0.82014
415.878,48.20729,1.96057,-0.10672,-0.02346143,0.81954
416.578,48.27384,1.9545,-0.10684,-0.002190536,0.81894
417.278,48.34018,1.9634,-0.10816,-0.01464724,0.81834
417.978,48.40647,1.95804,-0.1068,0.008694234,0.81774
418.678,48.47286,1.96253,-0.10927,-0.02534353,0.81714
419.378,48.53903,1.96016,-0.10838,0.008146781,0.81654
420.078,48.6055,1.94931,-0.10838,0.002404469,0.81595
420.778,48.67185,1.93382,-0.10451,0.0959894,0.81535
421.478,48.7383,1.95291,-0.11122,-0.22494,0.81475
422.178,48.80449,1.94638,-0.11429,0.06607166,0.81415
422.878,48.8709,1.94688,-0.11145,0.009271934,0.81355
423.578,48.93735,1.9344,-0.11034,0.0209288,0.81295
424.278,49.00391,1.92943,-0.11165,-0.01735953,0.81235
424.978,49.07014,1.93137,-0.11233,-0.01567567,0.81176
425.678,49.1365,1.91215,-0.11364,-0.007969024,0.81116
426.378,49.2028,1.91704,-0.11497,-0.01938921,0.81056
427.078,49.26928,1.92333,-0.11496,1.13261e-07,0.80996
427.778,49.3358,1.91548,-0.11496,-0.00336425,0.80936
428.478,49.4022,1.91119,-0.11627,-0.01820926,0.80876
429.178,49.46865,1.89853,-0.1178,-0.01238519,0.80817
429.878,49.53505,1.89858,-0.11775,-0.009175058,0.80757
430.578,49.60157,1.88212,-0.11814,0.001111227,0.80697
431.278,49.6681,1.87716,-0.11815,-0.01477938,0.80637
431.978,49.7346,1.87337,-0.12026,-0.02745555,0.80577
432.678,49.80107,1.85904,-0.12077,-0.000542863,0.80518
433.378,49.86764,1.85839,-0.12264,-0.0652916,0.80458
434.078,49.93401,1.84094,-0.12483,-0.002538832,0.80398
434.778,50.0004,1.82627,-0.12617,-0.02384645,0.80338
435.478,50.0668,1.81997,-0.1272,-0.01661833,0.80279
436.178,50.13328,1.80486,-0.12745,-0.02507051,0.80219
436.878,50.19986,1.80073,-0.13031,-0.02033567,0.80159
437.578,50.26643,1.81043,-0.13133,-0.0386022,0.801
438.278,50.3331,1.8098,-0.13457,-0.02804899,0.8004
438.978,50.39989,1.79904,-0.1358,-0.03420778,0.7998
439.678,50.46692,1.79203,-0.13712,-0.005786721,0.79921
440.378,50.53387,1.78611,-0.1386,-0.04364474,0.79861
441.078,50.6007,1.78425,-0.14131,-0.03719945,0.79801
441.778,50.6676,1.77577,-0.14415,-0.0479383,0.79742
442.478,50.7344,1.76861,-0.14707,-0.02197009,0.79682
443.178,50.8014,1.76326,-0.14999,-0.0639362,0.79622
443.878,50.8682,1.75128,-0.15213,-0.01300338,0.79563
444.578,50.93497,1.75086,-0.15464,-0.0499965,0.79503
445.278,51.00195,1.75854,-0.15769,-0.04724117,0.79444
445.978,51.06875,1.75083,-0.16119,-0.06656034,0.79384
446.678,51.13582,1.74017,-0.16487,-0.03011047,0.79325
447.378,51.20254,1.73543,-0.16769,-0.05161756,0.79265
448.078,51.26955,1.7201,-0.17272,-0.08312776,0.79206
448.778,51.33651,1.71853,-0.17715,-0.04219825,0.79146
449.478,51.40347,1.71497,-0.18053,-0.0925463,0.79087
450.178,51.47075,1.69662,-0.18665,-0.09009202,0.79027
450.878,51.5381,1.71122,-0.19279,-0.07778148,0.78968
451.578,51.6053,1.6898,-0.19648,-0.05339293,0.78909
452.278,51.67207,1.69352,-0.20141,-0.09076701,0.78849
452.978,51.7385,1.68664,-0.20694,-0.09089946,0.7879
453.678,51.80565,1.6913,-0.21389,-0.05285713,0.7873
454.378,51.87299,1.68637,-0.21941,-0.15523,0.78671
455.078,51.94057,1.68326,-0.22726,-0.06766402,0.78612
455.778,52.00768,1.70636,-0.2338,-0.09322705,0.78553
456.478,52.07478,1.63938,-0.23957,-0.11831,0.78493
457.178,52.14177,1.61086,-0.24649,-0.06515918,0.78434
457.878,52.20897,1.61267,-0.25282,-0.10937,0.78375
458.578,52.27606,1.62261,-0.2591,-0.08614406,0.78316
459.278,52.34325,1.63374,-0.26636,-0.16362,0.78256
459.978,52.41028,1.69104,-0.27655,-0.12678,0.78197
460.678,52.4775,1.65869,-0.28655,-0.13277,0.78138
461.378,52.5446,1.63562,-0.29469,-0.13011,0.78079
462.078,52.6114,1.63479,-0.3048,-0.14793,0.7802
462.778,52.6787,1.65075,-0.31183,-0.12904,0.77961
463.478,52.74596,1.71878,-0.32561,-0.20251,0.77902
464.178,52.81363,1.78016,-0.33701,-0.16945,0.77843
464.878,52.881,1.75194,-0.34984,-0.18758,0.77784
465.578,52.9482,1.73541,-0.36023,-0.16259,0.77725
466.278,53.0155,1.77122,-0.37366,-0.21007,0.77666
466.978,53.08266,1.76661,-0.3875,-0.20564,0.77607
467.678,53.14986,1.7639,-0.40143,-0.19141,0.77548
468.378,53.2171,1.80241,-0.4138,-0.19724,0.77489
469.078,53.28454,1.8541,-0.42947,-0.22851,0.7743
469.778,53.35191,1.86023,-0.44381,-0.21038,0.77371
470.478,53.4193,1.91332,-0.4599,-0.23508,0.77313
471.178,53.4866,1.94792,-0.47611,-0.27051,0.77254
471.878,53.55386,2.00007,-0.49335,-0.26477,0.77195
472.578,53.62112,1.9835,-0.51168,-0.28791,0.77136
473.278,53.68851,2.01961,-0.52951,-0.23555,0.77078
473.978,53.7561,2.08851,-0.54784,-0.30232,0.77019
474.678,53.8237,2.18158,-0.56749,-0.32368,0.7696
475.378,53.8914,2.19875,-0.58972,-0.31941,0.76902
476.078,53.95887,2.16465,-0.61248,-0.30532,0.76843
476.778,54.02641,2.28403,-0.63243,-0.32249,0.76785
477.478,54.0938,2.37175,-0.65728,-0.37538,0.76726
478.178,54.16106,2.34112,-0.68018,-0.33455,0.76668
478.878,54.22841,2.39828,-0.70373,-0.36043,0.76609
479.578,54.29583,2.4142,-0.7291,-0.36606,0.76551
480.278,54.36309,2.34675,-0.7543,-0.36092,0.76492
480.978,54.4304,2.3881,-0.77862,-0.35299,0.76434
481.678,54.4981,2.44856,-0.80206,-0.42462,0.76375
482.378,54.5661,2.42491,-0.82983,-0.38448,0.76317
483.078,54.63397,2.45035,-0.8591,-0.40465,0.76259
483.778,54.7017,2.50271,-0.88545,-0.40525,0.76201
484.478,54.76953,2.64857,-0.91306,-0.45849,0.76142
485.178,54.8371,2.78459,-0.94553,-0.4635,0.76084
485.878,54.9048,2.91241,-0.9792,-0.51021,0.76026
486.578,54.9726,2.92909,-1.01435,-0.53549,0.75968
487.278,55.04054,2.80591,-1.04863,-0.49588,0.7591
487.978,55.10836,2.69304,-1.08375,-0.43,0.75852
488.678,55.1761,2.60112,-1.11068,-0.44386,0.75794
489.378,55.24385,2.55476,-1.14157,-0.4556,0.75736
490.078,55.3116,2.46715,-1.17357,-0.44962,0.75678
490.778,55.3788,2.39977,-1.20194,-0.46139,0.7562
491.478,55.4464,2.37026,-1.23513,-0.48544,0.75562
492.178,55.5138,2.48159,-1.26602,-0.49761,0.75504
492.878,55.58178,2.47778,-1.30135,-0.46956,0.75446
493.578,55.64949,2.46257,-1.33476,-0.54015,0.75388
494.278,55.71714,2.41046,-1.36942,-0.46594,0.75331
494.978,55.7848,2.38179,-1.40162,-0.50497,0.75273
495.678,55.8526,2.42667,-1.43529,-0.51843,0.75215
496.378,55.92065,2.44857,-1.47137,-0.54402,0.75157
497.078,55.98881,2.49238,-1.51062,-0.56413,0.751
497.778,56.0569,2.60549,-1.54616,-0.55107,0.75042
498.478,56.12503,2.59794,-1.58676,-0.59205,0.74985
499.178,56.19325,2.67696,-1.62661,-0.56482,0.74927
499.878,56.2613,2.70669,-1.66578,-0.6367,0.7487
500.578,56.3294,2.65657,-1.71004,-0.61384,0.74812
501.278,56.3973,2.63333,-1.75095,-0.5969,0.74755
501.978,56.46519,2.62133,-1.79062,-0.61695,0.74698
502.678,56.5331,2.60813,-1.83166,-0.58841,0.7464
503.378,56.60105,2.57948,-1.8733,-0.61636,0.74583
504.078,56.669,2.56227,-1.91379,-0.60709,0.74526
504.778,56.73685,2.53157,-1.95675,-0.61192,0.74468
505.478,56.80494,2.50896,-1.99968,-0.61092,0.74411
506.178,56.87304,2.48653,-2.04088,-0.6218,0.74354
506.878,56.9412,2.46583,-2.08319,-0.63666,0.74297
507.578,57.0091,2.4333,-2.1257,-0.6134,0.7424
508.278,57.0769,2.3932,-2.16982,-0.62384,0.74183
508.978,57.14501,2.34997,-2.20873,-0.57136,0.74126
509.678,57.21318,2.3139,-2.25063,-0.62244,0.74069
510.378,57.28148,2.2701,-2.29015,-0.59633,0.74012
511.078,57.34964,2.21741,-2.33062,-0.55318,0.73955
511.778,57.41796,2.17406,-2.36971,-0.58372,0.73899
512.478,57.4863,2.10868,-2.40874,-0.53828,0.73842
513.178,57.55465,2.03452,-2.44554,-0.54674,0.73785
513.878,57.62302,1.94788,-2.48028,-0.50131,0.73728
514.578,57.6912,1.8599,-2.51437,-0.49035,0.73672
515.278,57.7592,1.75995,-2.54937,-0.47453,0.73615
515.978,57.8272,1.67749,-2.5774,-0.42861,0.73559
516.678,57.8954,1.575,-2.60712,-0.41307,0.73502
517.378,57.96349,1.47192,-2.63762,-0.42304,0.73446
518.078,58.03176,1.36494,-2.66081,-0.3505,0.73389
518.778,58.10005,1.28682,-2.68635,-0.33901,0.73333
519.478,58.1682,1.19771,-2.70787,-0.29283,0.73276
520.178,58.2363,1.12148,-2.72971,-0.32561,0.7322
520.878,58.3044,1.04708,-2.7496,-0.27516,0.73164
521.578,58.3729,0.97676,-2.76692,-0.22758,0.73108
522.278,58.4412,0.90761,-2.78243,-0.26848,0.73051
522.978,58.50956,0.85776,-2.79923,-0.21392,0.72995
523.678,58.5778,0.80347,-2.81311,-0.19064,0.72939
524.378,58.6462,0.75621,-2.82639,-0.19506,0.72883
525.078,58.71451,0.71309,-2.84078,-0.17022,0.72827
525.778,58.78291,0.68615,-2.84936,-0.1547,0.72771
526.478,58.8512,0.6482,-2.86205,-0.14849,0.72715
527.178,58.91955,0.61095,-2.87008,-0.14023,0.7266
527.878,58.98786,0.59765,-2.87779,-0.08135391,0.72604
528.578,59.0562,0.56815,-2.88461,-0.1167,0.72548
529.278,59.1248,0.54691,-2.89529,-0.13285,0.72492
529.978,59.1934,0.52609,-2.90193,-0.1019,0.72437
530.678,59.26205,0.52131,-2.90955,-0.07651752,0.72381
531.378,59.33064,0.4959,-2.91253,-0.06109265,0.72325
532.078,59.3992,0.47636,-2.91877,-0.07318276,0.7227
532.778,59.46774,0.48197,-2.92202,-0.0857148,0.72214
533.478,59.53611,0.47051,-2.92836,-0.07270174,0.72159
534.178,59.6047,0.45229,-2.93442,-0.0672761,0.72104
534.878,59.6731,0.44982,-2.93767,-0.05959519,0.72048
535.578,59.74171,0.4385,-2.94167,-0.04518976,0.71993
536.278,59.8101,0.43495,-2.94551,-0.06170889,0.71938
536.978,59.87855,0.43634,-2.94839,-0.04374543,0.71883
537.678,59.947,0.42871,-2.95224,-0.06708913,0.71827
538.378,60.01563,0.43264,-2.95733,-0.08679234,0.71772
539.078,60.08426,0.41487,-2.96084,0.02272992,0.71717
539.778,60.15285,0.41593,-2.96128,-0.06252982,0.71662
540.478,60.22121,0.41185,-2.96538,-0.05305558,0.71607
541.178,60.2898,0.4245,-2.96722,-0.03188796,0.71552
541.878,60.3583,0.42141,-2.97072,-0.05939123,0.71498
542.578,60.42691,0.40765,-2.97465,-0.04371681,0.71443
543.278,60.49547,0.40164,-2.97651,-0.02731037,0.71388
543.978,60.5642,0.39195,-2.97832,-0.0247331,0.71333
544.678,60.6326,0.40277,-2.97883,-0.03242091,0.71279
545.378,60.7012,0.4152,-2.9818,-0.04580722,0.71224
546.078,60.7699,0.39434,-2.98588,-0.02600786,0.7117
546.778,60.8387,0.39289,-2.9864,-0.04008741,0.71115
547.478,60.9072,0.40812,-2.98992,-0.03617629,0.71061
548.178,60.97576,0.40263,-2.99116,-0.01697063,0.71006
548.878,61.0443,0.40605,-2.99306,-0.02804849,0.70952
549.578,61.11315,0.42232,-2.99394,-0.02190886,0.70898
550.278,61.182,0.43048,-2.99678,-0.0226274,0.70843
550.978,61.25095,0.41523,-2.99806,-0.02168793,0.70789
551.678,61.31965,0.41607,-2.99949,-0.04154961,0.70735
552.378,61.38825,0.42085,-3.00236,-0.02378338,0.70681
553.078,61.45705,0.41521,-3.00398,-0.05085548,0.70627
553.778,61.52579,0.39528,-3.00834,-0.02112263,0.70573
554.478,61.5945,0.40848,-3.00806,-0.02088178,0.70519
555.178,61.66325,0.40948,-3.01042,-0.02730592,0.70465
555.878,61.73203,0.40405,-3.01203,-0.03611731,0.70412
556.578,61.801,0.41915,-3.01416,-0.02962584,0.70358
557.278,61.8701,0.37427,-3.01606,-0.005638464,0.70304
557.978,61.93929,0.35904,-3.01648,-0.01952448,0.7025
558.678,62.00838,0.35705,-3.01909,-0.03263567,0.70197
559.378,62.0774,0.34354,-3.02075,-0.04403661,0.70143
560.078,62.1463,0.33445,-3.02222,-0.02666215,0.7009
560.778,62.21544,0.31765,-3.02414,0.00359729,0.70036
561.478,62.28455,0.32921,-3.02514,-0.03763107,0.69983
562.178,62.35383,0.31802,-3.02635,-0.00436529,0.6993
562.878,62.42301,0.31018,-3.02777,-0.04233013,0.69876
563.578,62.49207,0.32682,-3.03064,-0.02061316,0.69823
564.278,62.56114,0.31047,-3.03198,-0.0217967,0.6977
564.978,62.63035,0.32503,-3.03264,-0.02562567,0.69717
565.678,62.69944,0.32844,-3.03459,-0.0201103,0.69664
566.378,62.76845,0.31771,-3.03591,-0.03051682,0.69611
567.078,62.83738,0.31742,-3.0384,-0.03007069,0.69558
567.778,62.9064,0.31755,-3.03962,-0.00658679,0.69505
568.478,62.9755,0.31392,-3.03962,-0.001132392,0.69452
569.178,63.04456,0.31945,-3.04108,-0.04607337,0.694
569.878,63.1137,0.32241,-3.04414,-0.01081501,0.69347
570.578,63.1829,0.3369,-3.04398,-0.01969072,0.69294
571.278,63.25219,0.31873,-3.04501,-0.00286793,0.69242
571.978,63.3215,0.31829,-3.04703,-0.04392377,0.69189
572.678,63.39068,0.32707,-3.0483,-0.01198041,0.69137
573.378,63.46,0.31474,-3.05104,-0.02821254,0.69084
574.078,63.5291,0.30444,-3.05105,-0.01732038,0.69032
574.778,63.59822,0.31256,-3.05235,-0.01132818,0.6898
575.478,63.6673,0.30232,-3.05393,-0.02901739,0.68927
576.178,63.7365,0.3094,-3.0555,-0.01880528,0.68875
576.878,63.80562,0.30964,-3.05605,-0.02093884,0.68823
577.578,63.8748,0.33582,-3.05712,-0.02523483,0.68771
578.278,63.9439,0.32164,-3.05868,-0.02405481,0.68719
578.978,64.01305,0.32574,-3.05981,-0.01790938,0.68667
579.678,64.08207,0.336,-3.06211,-0.01360364,0.68615
580.378,64.1512,0.34371,-3.06348,-0.02291079,0.68563
581.078,64.22012,0.33855,-3.06343,-0.01216029,0.68512
581.778,64.289,0.33146,-3.06483,-0.0210986,0.6846
582.478,64.35821,0.33979,-3.06641,-0.0424022,0.68408
583.178,64.4276,0.33397,-3.06707,0.02221549,0.68357
583.878,64.49707,0.35088,-3.06705,-0.02179291,0.68305
584.578,64.56622,0.34479,-3.06809,-0.02324002,0.68254
585.278,64.63555,0.35395,-3.07021,-0.02664702,0.68202
585.978,64.705,0.35853,-3.07283,-0.05982598,0.68151
586.678,64.7744,0.34932,-3.07517,-0.003771063,0.681
587.378,64.8439,0.34786,-3.07647,-0.02877357,0.68048
588.078,64.91329,0.3714,-3.07779,-6.080959e-05,0.67997
588.778,64.98266,0.36424,-3.07814,-0.02730638,0.67946
589.478,65.0519,0.37792,-3.07944,-0.0002860755,0.67895
590.178,65.1213,0.37867,-3.07944,-0.001492192,0.67844
590.878,65.19068,0.37843,-3.08175,-0.04467398,0.67793
591.578,65.26003,0.38516,-3.08339,-0.02795722,0.67742
592.278,65.32935,0.37623,-3.08435,-0.02335844,0.67691
592.978,65.39888,0.3707,-3.0857,0.003280078,0.67641
593.678,65.4682,0.3869,-3.08562,-0.01253584,0.6759
594.378,65.53743,0.3799,-3.08569,-0.007715407,0.67539
595.078,65.6066,0.38116,-3.08701,-0.0056563,0.67489
595.778,65.67604,0.39098,-3.08798,-0.02557048,0.67438
596.478,65.7457,0.38339,-3.08972,-0.04472929,0.67388
597.178,65.81509,0.37818,-3.09259,0.004476568,0.67337
597.878,65.88478,0.37622,-3.09135,-0.02233467,0.67287
598.578,65.9542,0.38947,-3.09337,-0.02218919,0.67237
599.278,66.0239,0.37416,-3.09262,-0.000295823,0.67187
599.978,66.093,0.3775,-3.09393,-0.01603131,0.67136
600.678,66.16241,0.39797,-3.09525,-0.01503397,0.67086
601.378,66.2317,0.34053,-3.09657,-0.01462429,0.67036
602.078,66.30123,0.40089,-3.09787,-0.006371111,0.66986
602.778,66.37048,0.41671,-3.09919,-0.01055552,0.66937
603.478,66.43981,0.44351,-3.09919,-0.0009341953,0.66887
604.178,66.50921,0.44968,-3.10052,-0.0257227,0.66837
604.878,66.5787,0.45487,-3.10182,-0.005627675,0.66787
605.578,66.6482,0.45316,-3.10182,-0.004448223,0.66738
606.278,66.71762,0.46832,-3.10513,-0.04967904,0.66688
606.978,66.78706,0.48466,-3.10544,7.128086e-06,0.66639
607.678,66.85639,0.47125,-3.10544,0.00215432,0.66589
608.378,66.92594,0.49055,-3.10417,-0.001369628,0.6654
609.078,66.99548,0.47594,-3.10544,-0.001831801,0.6649
609.778,67.06532,0.46938,-3.10651,-0.02388279,0.66441
610.478,67.13511,0.47,-3.10674,-0.007753751,0.66392
611.178,67.20464,0.47874,-3.10807,-0.00529746,0.66343
611.878,67.27426,0.47602,-3.10884,-0.02490226,0.66294
612.578,67.34379,0.45598,-3.10932,-0.0202532,0.66245
613.278,67.41365,0.49347,-3.10974,0.01695851,0.66196
613.978,67.48343,0.49803,-3.11138,-0.03645593,0.66147
614.678,67.55319,0.51125,-3.11428,-0.03817361,0.66098
615.378,67.6229,0.50567,-3.11609,-0.008995837,0.6605
616.078,67.69248,0.5062,-3.11608,0.000451265,0.66001
616.778,67.76218,0.51191,-3.11472,0.02182686,0.65952
617.478,67.83182,0.52895,-3.11342,-0.001532935,0.65904
618.178,67.90164,0.54101,-3.1164,-0.03984697,0.65855
618.878,67.97135,0.53615,-3.11779,-0.01651528,0.65807
619.578,68.04122,0.53276,-3.1197,-0.0104116,0.65758
620.278,68.111,0.53248,-3.12069,-0.01451093,0.6571
620.978,68.18075,0.54177,-3.11972,0.0112135,0.65662
621.678,68.2506,0.53898,-3.11972,-0.02242583,0.65614
622.378,68.32046,0.52959,-3.12101,-0.000708056,0.65566
623.078,68.3905,0.53781,-3.12235,-0.04629862,0.65518
623.778,68.46044,0.54394,-3.12386,-0.002045184,0.6547
624.478,68.5303,0.55197,-3.12386,-2.80666e-05,0.65422
625.178,68.60011,0.53562,-3.12486,-0.034575,0.65374
625.878,68.67011,0.52679,-3.12661,0.009351154,0.65326
626.578,68.74027,0.54463,-3.1263,-0.02161809,0.65279
627.278,68.81035,0.52008,-3.12598,-0.008835775,0.65231
627.978,68.88025,0.51264,-3.12661,-0.001731452,0.65183
628.678,68.95022,0.51868,-3.1276,-0.015241,0.65136
629.378,69.02026,0.48354,-3.12924,-0.01782589,0.65088
630.078,69.09019,0.43523,-3.12924,6.235398e-08,0.65041
630.778,69.1601,0.4308,-3.12924,-0.0002926283,0.64994
631.478,69.22999,0.42879,-3.13067,-0.02948401,0.64947
632.178,69.3001,0.43377,-3.13199,-0.007578765,0.64899
632.878,69.37023,0.45449,-3.13199,3.19802e-07,0.64852
633.578,69.43992,0.48269,-3.13199,-0.01831342,0.64805
634.278,69.50956,0.48535,-3.13198,0.007729586,0.64758
634.978,69.5788,0.47875,-3.13198,-0.004564797,0.64711
635.678,69.6485,0.47412,-3.13331,-0.02365541,0.64664
636.378,69.71845,0.46257,-3.13466,0.01988067,0.64618
637.078,69.7887,0.45364,-3.13385,-0.02470844,0.64571
637.778,69.85897,0.45563,-3.13592,-0.02154103,0.64524
638.478,69.9289,0.46713,-3.13593,-0.001229586,0.64478
639.178,69.99897,0.441,-3.13738,-0.05868929,0.64431