File: 01_Data/PC/STA/N2/10K_min/PC_STA_N2_10KData_211609_R1.csv
##Temp./Â°C,Time/min,DSC(subtr.2)/mW,Mass loss(subtr.2)/mg,DTG(subtr.2)/(mg/min),Sensit./(uV/mW)
49.381,10.01,0.29608,-0.04969,-0.00632783,1.03586
50.081,11.48397,0.37712,-0.05237414,0.0005057046,1.03583
50.781,11.88171,0.43986,-0.05323521,-0.006907081,1.0358
51.481,12.1676,0.47814,-0.05445268,-0.009601019,1.03576
52.181,12.40513,0.51882,-0.05403246,-0.008079501,1.03572
52.881,12.61177,0.55197,-0.05564497,-0.01654205,1.03568
53.581,12.79979,0.58633,-0.0546377,0.02483413,1.03564
54.281,12.97367,0.61164,-0.05599979,0.02329194,1.03559
54.981,13.13778,0.62812,-0.05501131,-0.004191834,1.03554
55.681,13.29292,0.65078,-0.05604327,0.006410045,1.03549
56.381,13.4415,0.6585,-0.05631422,-0.01616846,1.03544
57.081,13.58319,0.68328,-0.05638843,-0.002785556,1.03539
57.781,13.721,0.70254,-0.05647923,-0.008429749,1.03533
58.481,13.85377,0.72883,-0.05632336,-0.0186031,1.03528
59.181,13.9827,0.73982,-0.05602238,-0.00926248,1.03522
59.881,14.10866,0.74477,-0.05658218,0.01266453,1.03515
60.581,14.2318,0.76693,-0.05653463,0.000247389,1.03509
61.281,14.3514,0.78221,-0.05724029,0.00649103,1.03502
61.981,14.46824,0.80324,-0.05660097,-0.003754528,1.03495
62.681,14.58298,0.81334,-0.05775444,-0.00012184,1.03488
63.381,14.69501,0.82558,-0.0581873,-0.01189163,1.03481
64.081,14.80481,0.83408,-0.05832813,-0.00383379,1.03474
64.781,14.9127,0.84761,-0.05804595,0.009086432,1.03466
65.481,15.01939,0.8618,-0.05669223,-0.0102775,1.03458
66.181,15.1242,0.88296,-0.05812141,-0.00362451,1.0345
66.881,15.22715,0.88802,-0.05814065,-0.0246756,1.03442
67.581,15.3285,0.89266,-0.05835944,-0.0002782318,1.03433
68.281,15.4286,0.90493,-0.05966578,0.02091091,1.03425
68.981,15.5276,0.9162,-0.05869721,0.0004724991,1.03416
69.681,15.62525,0.93718,-0.0586972,-0.01359634,1.03407
70.381,15.72148,0.93901,-0.05991621,-0.01717795,1.03397
71.081,15.817,0.9474,-0.05915067,0.01468223,1.03388
71.781,15.91112,0.96404,-0.0596131,0.0006162285,1.03378
72.481,16.00381,0.97435,-0.05854131,0.003088555,1.03368
73.181,16.09593,0.98353,-0.05900134,-0.007893107,1.03358
73.881,16.1869,0.9892,-0.06042816,-0.00871957,1.03348
74.581,16.27674,1.00782,-0.05912866,0.0006079776,1.03337
75.281,16.36655,1.02355,-0.06050239,-0.003315977,1.03326
75.981,16.4556,1.01735,-0.06046118,-0.01443565,1.03315
76.681,16.5433,1.02851,-0.06062571,0.02145404,1.03304
77.381,16.63051,1.03929,-0.05911499,-0.01417266,1.03293
78.081,16.7162,1.04695,-0.05915349,-0.01095915,1.03281
78.781,16.80183,1.0485,-0.0591313,-0.01933092,1.03269
79.481,16.88724,1.056,-0.06032064,0.00336363,1.03258
80.181,16.97204,1.06866,-0.06041329,-0.00592875,1.03245
80.881,17.05578,1.06486,-0.0603736,-0.02506062,1.03233
81.581,17.13874,1.07063,-0.0604419,0.002640378,1.0322
82.281,17.22096,1.06993,-0.06037696,0.0215004,1.03208
82.981,17.30291,1.07882,-0.06038623,-0.001707723,1.03195
83.681,17.38407,1.08573,-0.06166609,-0.02313433,1.03182
84.381,17.46489,1.08208,-0.06169027,-0.009538484,1.03168
85.081,17.5453,1.08907,-0.06044561,0.0118011,1.03155
85.781,17.62527,1.09325,-0.06014895,-0.001955764,1.03141
86.481,17.70439,1.10249,-0.05914318,0.01215422,1.03127
87.181,17.78293,1.11145,-0.06037181,-0.03372286,1.03113
87.881,17.86147,1.10797,-0.06051431,0.0009262533,1.03099
88.581,17.9396,1.12226,-0.06088343,-0.01466644,1.03084
89.281,18.0169,1.12044,-0.06240333,-0.0012568,1.03069
89.981,18.09393,1.13044,-0.06050289,-0.000227874,1.03054
90.681,18.1706,1.12723,-0.06186691,0.006725106,1.03039
91.381,18.247,1.13622,-0.06186588,0.003425086,1.03024
92.081,18.32242,1.14414,-0.06056959,-0.01462041,1.03008
92.781,18.39787,1.1518,-0.06186109,-0.01076463,1.02993
93.481,18.473,1.15781,-0.06132137,0.01965981,1.02977
94.181,18.54809,1.15994,-0.06199367,-0.01898096,1.02961
94.881,18.6227,1.16393,-0.06197224,-0.00220887,1.02944
95.581,18.69688,1.16893,-0.06197972,0.000133949,1.02928
96.281,18.7709,1.18401,-0.06197208,-0.00830727,1.02911
96.981,18.84434,1.18265,-0.0622106,-0.0136233,1.02894
97.681,18.91763,1.19227,-0.06334626,0.0210771,1.02877
98.381,18.99085,1.19268,-0.06196192,-0.00673675,1.0286
99.081,19.06396,1.20785,-0.06201186,-0.01694585,1.02843
99.781,19.13654,1.20353,-0.06197506,0.006575762,1.02825
100.481,19.20908,1.20846,-0.06330337,0.0005119224,1.02807
101.181,19.28134,1.21257,-0.06407916,-0.10497,1.02789
101.881,19.3535,1.21546,-0.07115872,0.15151,1.02771
102.581,19.42522,1.22532,-0.05472521,-0.03866401,1.02753
103.281,19.49695,1.23557,-0.06184585,-0.04272799,1.02734
103.981,19.56833,1.23137,-0.06969293,0.01498552,1.02715
104.681,19.63968,1.24265,-0.05722456,-0.00170986,1.02696
105.381,19.71111,1.24511,-0.06415993,-0.0453708,1.02677
106.081,19.78225,1.25453,-0.0638675,0.03339881,1.02658
106.781,19.85321,1.26337,-0.06271195,0.02054465,1.02638
107.481,19.92373,1.26579,-0.06273597,-0.01334556,1.02619
108.181,19.99399,1.26454,-0.06279161,-0.02309717,1.02599
108.881,20.06407,1.26802,-0.06373097,0.01309795,1.02579
109.581,20.13441,1.27679,-0.06275314,0.01114041,1.02558
110.281,20.2045,1.28751,-0.06274173,-0.01045382,1.02538
110.981,20.2745,1.28479,-0.06331451,-0.00175524,1.02517
111.681,20.34435,1.29266,-0.0640618,-0.002257532,1.02497
112.381,20.41372,1.29528,-0.06405104,0.00551644,1.02476
113.081,20.48348,1.30192,-0.06532197,0.007868929,1.02454
113.781,20.5532,1.30384,-0.06260088,0.04105161,1.02433
114.481,20.62342,1.31278,-0.06134276,-0.02532358,1.02412
115.181,20.69266,1.31108,-0.06403364,-0.01962562,1.0239
115.881,20.76135,1.3286,-0.06407116,0.00731757,1.02368
116.581,20.82955,1.31656,-0.06275179,0.02116701,1.02346
117.281,20.89773,1.32214,-0.06275,-3.00566e-07,1.02324
117.981,20.966,1.32553,-0.06274821,0.00335,1.02301
118.681,21.03454,1.33149,-0.06244936,-0.01294688,1.02279
119.381,21.10298,1.33782,-0.06273994,7.790656e-05,1.02256
120.081,21.17162,1.34439,-0.06163279,0.02370519,1.02233
120.781,21.24033,1.34282,-0.06141577,0.01257739,1.0221
121.481,21.3089,1.34856,-0.05944466,0.04441791,1.02186
122.181,21.37721,1.35163,-0.05664863,0.0264289,1.02163
122.881,21.4448,1.37155,-0.05352747,0.04334147,1.02139
123.581,21.51229,1.37229,-0.0542173,-0.07822378,1.02115
124.281,21.5798,1.37066,-0.06054807,-0.04168822,1.02091
124.981,21.64724,1.36921,-0.06121007,-0.00023732,1.02067
125.681,21.71453,1.37389,-0.06121,-8.078731e-09,1.02042
126.381,21.7817,1.37513,-0.06120991,-0.000392093,1.02018
127.081,21.84851,1.38216,-0.06247321,-0.02288731,1.01993
127.781,21.9156,1.38684,-0.06178723,0.01039422,1.01968
128.481,21.98255,1.39431,-0.06282388,-0.02445251,1.01943
129.181,22.04941,1.39466,-0.06545273,-0.02528278,1.01918
129.881,22.11584,1.40111,-0.06581626,-0.0186927,1.01892
130.581,22.18199,1.40512,-0.06549632,0.03034255,1.01867
131.281,22.24802,1.40466,-0.0635072,0.02002733,1.01841
131.981,22.31397,1.41046,-0.0621632,-0.01043483,1.01815
132.681,22.38019,1.41204,-0.06351994,-0.0147172,1.01789
133.381,22.4463,1.43299,-0.06212825,0.01945733,1.01763
134.081,22.51223,1.42565,-0.06356428,-0.02119119,1.01736
134.781,22.57788,1.43035,-0.06352023,0.00104349,1.01709
135.481,22.64337,1.4264,-0.06214498,0.003938895,1.01683
136.181,22.70886,1.42685,-0.0635096,-0.001938804,1.01656
136.881,22.77431,1.43504,-0.06272976,0.02405716,1.01628
137.581,22.8396,1.4361,-0.06350834,-0.02129806,1.01601
138.281,22.905,1.43816,-0.06360707,0.02422978,1.01574
138.981,22.97008,1.44401,-0.06231666,-0.02345536,1.01546
139.681,23.0351,1.45947,-0.06329662,0.0178342,1.01518
140.381,23.1,1.45461,-0.06197,0.000684124,1.0149
141.081,23.16466,1.46378,-0.06273272,-0.02094224,1.01462
141.781,23.2298,1.47069,-0.06460347,-0.02258242,1.01434
142.481,23.29477,1.47799,-0.06462527,0.01389308,1.01405
143.181,23.3596,1.48914,-0.06329781,0.00329243,1.01376
143.881,23.42419,1.49355,-0.06458427,-0.01479635,1.01347
144.581,23.4884,1.5137,-0.06376656,0.02495518,1.01318
145.281,23.5531,1.51578,-0.06328999,-0.0002322343,1.01289
145.981,23.61769,1.52132,-0.06443093,-0.01161674,1.0126
146.681,23.68267,1.5354,-0.06329184,0.00391454,1.0123
147.381,23.74683,1.55982,-0.06369043,-0.02422683,1.01201
148.081,23.81115,1.57098,-0.06384151,0.03890716,1.01171
148.781,23.8753,1.59477,-0.06326264,-0.000639696,1.01141
149.481,23.9396,1.63098,-0.06326691,0.00227354,1.01111
150.181,24.00379,1.6516,-0.06197903,0.001939939,1.01081
150.881,24.06795,1.67946,-0.06165382,0.003507945,1.0105
151.581,24.1322,1.69554,-0.06164979,-0.000602457,1.01019
152.281,24.19614,1.72007,-0.0629312,-0.02304137,1.00989
152.981,24.26031,1.72309,-0.06296999,0.000996328,1.00958
153.681,24.3244,1.7148,-0.06155392,0.01977759,1.00927
154.381,24.3883,1.71301,-0.06310539,-0.02075661,1.00895
155.081,24.4522,1.70667,-0.06297962,0.02132626,1.00864
155.781,24.51599,1.70793,-0.06335194,-0.03354702,1.00832
156.481,24.57987,1.69765,-0.06461016,-0.003504232,1.008
157.181,24.6437,1.69604,-0.06228178,0.04460248,1.00769
157.881,24.7076,1.70854,-0.06193497,-0.02089408,1.00737
158.581,24.77139,1.71078,-0.0632871,0.0004372935,1.00704
159.281,24.8349,1.70899,-0.06330313,-0.00313863,1.00672
159.981,24.89845,1.70721,-0.06463834,-0.01778642,1.00639
160.681,24.96193,1.7052,-0.06326028,-0.000779715,1.00607
161.381,25.0257,1.71519,-0.06460941,0.001832354,1.00574
162.081,25.08935,1.70864,-0.06328421,0.01638664,1.00541
162.781,25.15312,1.71565,-0.06420568,-0.02309193,1.00508
163.481,25.2167,1.71742,-0.06322616,0.02011805,1.00474
164.181,25.28029,1.72971,-0.06329,3.855519e-07,1.00441
164.881,25.34358,1.73198,-0.06328729,-0.00563611,1.00407
165.581,25.40708,1.72718,-0.06438917,0.001028408,1.00374
166.281,25.47043,1.72301,-0.06397639,-0.02359589,1.0034
166.981,25.53406,1.73151,-0.06527004,-0.000512799,1.00306
167.681,25.59761,1.73397,-0.06526932,0.0006329646,1.00271
168.381,25.66102,1.73728,-0.0659774,0.004607715,1.00237
169.081,25.7244,1.73871,-0.06461018,0.002362964,1.00202
169.781,25.7877,1.75384,-0.06347257,0.01751248,1.00168
170.481,25.85088,1.75468,-0.06428047,-0.00564952,1.00133
171.181,25.9142,1.75141,-0.06428003,-5.16165e-06,1.00098
171.881,25.97716,1.76073,-0.06437226,0.02234018,1.00063
172.581,26.04058,1.76269,-0.06295999,0.0008831635,1.00028
173.281,26.10395,1.75754,-0.06296,-6.72934e-09,0.99992
173.981,26.16723,1.76008,-0.06296004,-7.77711e-05,0.99957
174.681,26.2303,1.76711,-0.06329841,0.01021024,0.99921
175.381,26.2933,1.76573,-0.06197215,0.0003526118,0.99885
176.081,26.3563,1.77042,-0.06306328,-0.008119582,0.99849
176.781,26.4195,1.7677,-0.06341028,-0.00400587,0.99813
177.481,26.4826,1.77845,-0.06341,6.096972e-07,0.99777
178.181,26.5457,1.78182,-0.06339632,0.01118895,0.9974
178.881,26.60878,1.77681,-0.06342105,-0.01412716,0.99704
179.581,26.67186,1.78411,-0.06339999,-1.625169e-06,0.99667
180.281,26.7347,1.78337,-0.0634,4.959623e-09,0.9963
180.981,26.79772,1.78087,-0.06339994,0.000177176,0.99593
181.681,26.8605,1.78368,-0.06269803,0.01354984,0.99556
182.381,26.92328,1.78757,-0.06340057,-0.00575957,0.99519
183.081,26.98593,1.79022,-0.06338118,0.00835572,0.99481
183.781,27.04863,1.78147,-0.06275033,0.00127077,0.99444
184.481,27.1115,1.78674,-0.06280869,-0.02249943,0.99406
185.181,27.1743,1.77724,-0.06333018,0.01083636,0.99368
185.881,27.23694,1.7926,-0.06338693,0.01400329,0.9933
186.581,27.29927,1.79878,-0.06207952,0.004408165,0.99292
187.281,27.3616,1.79926,-0.0621418,-0.02299579,0.99254
187.981,27.4243,1.79831,-0.06298905,0.01833826,0.99215
188.681,27.48702,1.8032,-0.06241009,7.8992e-05,0.99177
189.381,27.54965,1.80451,-0.06241188,-0.004907685,0.99138
190.081,27.6127,1.80144,-0.0627425,-0.007799358,0.99099
190.781,27.67523,1.82027,-0.06373396,-0.00535034,0.9906
191.481,27.7378,1.80452,-0.06370776,-0.01041688,0.99021
192.181,27.8,1.81288,-0.06373126,0.01171358,0.98982
192.881,27.86243,1.81606,-0.06372998,1.791439e-06,0.98942
193.581,27.92475,1.8247,-0.06373002,-3.628484e-06,0.98903
194.281,27.98722,1.82319,-0.0637949,0.009148474,0.98863
194.981,28.0497,1.82665,-0.06403844,-0.0260635,0.98824
195.681,28.1121,1.83167,-0.06471911,0.008721183,0.98784
196.381,28.1747,1.83112,-0.06339208,0.00971569,0.98744
197.081,28.2371,1.83519,-0.06274223,0.01174146,0.98703
197.781,28.2995,1.83862,-0.06210073,0.00680101,0.98663
198.481,28.3619,1.83608,-0.06208999,2.21015e-06,0.98623
199.181,28.42421,1.83906,-0.06208422,-0.01735975,0.98582
199.881,28.48667,1.83402,-0.06340858,-0.002424037,0.98541
200.581,28.549,1.84128,-0.06246841,-0.003206115,0.98501
201.281,28.6113,1.84559,-0.06481774,-0.02573312,0.9846
201.981,28.67346,1.8427,-0.06505469,0.01676741,0.98419
202.681,28.73573,1.84193,-0.06372209,0.0071183,0.98377
203.381,28.79812,1.84594,-0.06339986,-0.0007414413,0.98336
204.081,28.8605,1.85282,-0.06472197,-0.02036697,0.98294
204.781,28.92285,1.84915,-0.06354409,0.02421415,0.98253
205.481,28.98528,1.85331,-0.06340001,3.75731e-05,0.98211
206.181,29.04778,1.86833,-0.0633989,0.005378981,0.98169
206.881,29.11022,1.85353,-0.06110383,0.02886014,0.98127
207.581,29.1724,1.85346,-0.06120326,-0.02334894,0.98085
208.281,29.2348,1.85765,-0.06237244,-0.02002176,0.98043
208.981,29.2973,1.85432,-0.06372934,-0.001663002,0.98001
209.681,29.3599,1.85823,-0.06275224,0.02482529,0.97958
210.381,29.4223,1.85692,-0.06240687,-0.01589887,0.97916
211.081,29.4847,1.86588,-0.0637282,-0.003241525,0.97873
211.781,29.5473,1.86628,-0.06373,-8.865183e-08,0.9783
212.481,29.6098,1.87174,-0.06373,-0.0001528109,0.97787
213.181,29.6722,1.86915,-0.06426821,-0.02456022,0.97744
213.881,29.7343,1.86967,-0.06415651,0.03262699,0.97701
214.581,29.79658,1.87418,-0.06242601,0.00810287,0.97657
215.281,29.8589,1.86723,-0.06241975,-0.00157295,0.97614
215.981,29.9211,1.87696,-0.06370395,0.0023688,0.9757
216.681,29.98358,1.87499,-0.06242106,-0.001835383,0.97527
217.381,30.0461,1.88222,-0.06373484,-0.01425032,0.97483
218.081,30.10881,1.88251,-0.06240691,0.007512827,0.97439
218.781,30.1712,1.882,-0.06402781,-0.01229225,0.97395
219.481,30.23357,1.8816,-0.06299919,0.02505623,0.97351
220.181,30.29585,1.88281,-0.06263006,7.112088e-05,0.97306
220.881,30.3581,1.89017,-0.06262997,-6.43449e-06,0.97262
221.581,30.42047,1.89055,-0.06266062,-0.0123671,0.97217
222.281,30.4829,1.89326,-0.06297006,0.004573451,0.97173
222.981,30.54519,1.9017,-0.06164326,0.01682295,0.97128
223.681,30.6076,1.88833,-0.0629531,-0.02236849,0.97083
224.381,30.66981,1.90274,-0.06296994,-0.001754556,0.97038
225.081,30.7324,1.89845,-0.06428639,-0.01951846,0.96993
225.781,30.795,1.90237,-0.06431334,0.005709068,0.96948
226.481,30.85776,1.91333,-0.06394992,0.0001958511,0.96902
227.181,30.9205,1.9072,-0.06395,-7.217401e-10,0.96857
227.881,30.98286,1.9141,-0.06395015,0.0004833668,0.96811
228.581,31.04522,1.91877,-0.06287764,0.01986642,0.96766
229.281,31.10752,1.9096,-0.06361186,-0.008992694,0.9672
229.981,31.1699,1.91461,-0.0636188,0.01470829,0.96674
230.681,31.23242,1.92556,-0.0631968,-0.02135114,0.96628
231.381,31.29484,1.91836,-0.06262339,0.01787406,0.96582
232.081,31.3575,1.91778,-0.06262363,-0.009196857,0.96536
232.781,31.4199,1.92853,-0.06394998,-0.007682271,0.96489
233.481,31.48256,1.91974,-0.06395,3.121286e-08,0.96443
234.181,31.545,1.91903,-0.06395006,-4.917241e-05,0.96396
234.881,31.6076,1.92095,-0.06424395,0.00213183,0.9635
235.581,31.67016,1.92523,-0.06264239,0.01788827,0.96303
236.281,31.73279,1.93034,-0.06264001,2.09373e-06,0.96256
236.981,31.79535,1.92847,-0.06264086,-0.0083989,0.96209
237.681,31.8582,1.9305,-0.0626149,0.01153832,0.96162
238.381,31.92115,1.93627,-0.06263011,0.0005057603,0.96115
239.081,31.98418,1.9342,-0.06140387,0.02357486,0.96067
239.781,32.0469,1.93579,-0.06145154,-0.03347788,0.9602
240.481,32.10941,1.94164,-0.06362071,-0.00565671,0.95972
241.181,32.17204,1.94292,-0.06395169,-0.0009840088,0.95925
241.881,32.2348,1.93098,-0.06259191,0.01947739,0.95877
242.581,32.29787,1.93598,-0.06263999,-1.87674e-06,0.95829
243.281,32.36068,1.92963,-0.06263979,0.008032388,0.95781
243.981,32.42355,1.93269,-0.06139791,-0.01314543,0.95733
244.681,32.4863,1.93879,-0.06327882,-0.01715914,0.95685
245.381,32.54913,1.9357,-0.06332823,0.01954268,0.95637
246.081,32.61181,1.94183,-0.06263034,0.00174123,0.95589
246.781,32.6749,1.94511,-0.062543,-0.01795244,0.9554
247.481,32.7378,1.94906,-0.06329297,0.00405491,0.95492
248.181,32.80038,1.9432,-0.06328999,0.00101341,0.95443
248.881,32.86314,1.94557,-0.06187439,0.02169395,0.95394
249.581,32.9259,1.94475,-0.06308837,-0.02391858,0.95345
250.281,32.9887,1.94779,-0.06328992,0.0001816656,0.95296
250.981,33.05171,1.94096,-0.06257932,0.0121301,0.95247
251.681,33.11453,1.94637,-0.06262395,-0.01758751,0.95198
252.381,33.17752,1.94437,-0.06394819,0.0008404794,0.95149
253.081,33.2405,1.9551,-0.06263384,0.01627728,0.951
253.781,33.3037,1.95432,-0.061431,0.02295972,0.9505
254.481,33.3666,1.96301,-0.06164301,-0.004836375,0.95001
255.181,33.42957,1.96032,-0.06264792,-0.01511839,0.94951
255.881,33.49261,1.96816,-0.06264007,-7.293981e-05,0.94902
256.581,33.55546,1.95757,-0.06321932,-0.01314836,0.94852
257.281,33.61844,1.96084,-0.0632899,0.0001274735,0.94802
257.981,33.6813,1.96453,-0.06329,3.904513e-09,0.94752
258.681,33.74414,1.96847,-0.06329002,-3.781584e-06,0.94702
259.381,33.807,1.96386,-0.06335905,0.01187949,0.94652
260.081,33.86994,1.96943,-0.06262999,0.0002721598,0.94601
260.781,33.93278,1.97555,-0.06263121,-0.002128119,0.94551
261.481,33.99557,1.97813,-0.06335553,-0.008124766,0.94501
262.181,34.05831,1.97554,-0.06339899,0.00269895,0.9445
262.881,34.12113,1.97389,-0.06230461,0.03076103,0.94399
263.581,34.1839,1.96645,-0.06142013,0.000182528,0.94349
264.281,34.24661,1.96753,-0.06142218,-0.00290551,0.94298
264.981,34.30955,1.97521,-0.06176538,0.001492987,0.94247
265.681,34.3725,1.97153,-0.06175999,1.982953e-06,0.94196
266.381,34.43555,1.97802,-0.06176,-5.35339e-10,0.94145
267.081,34.4985,1.98263,-0.06176,-3.96443e-09,0.94094
267.781,34.56136,1.98656,-0.06175993,-0.000370104,0.94043
268.481,34.62435,1.98087,-0.0627712,-0.0221711,0.93991
269.181,34.6872,1.98329,-0.06274681,0.01419404,0.9394
269.881,34.75007,1.98035,-0.06143008,0.00533741,0.93888
270.581,34.8129,1.9736,-0.06052868,0.02457832,0.93837
271.281,34.87611,1.98473,-0.06011105,-0.00273466,0.93785
271.981,34.93911,1.97952,-0.06143825,-0.01681893,0.93733
272.681,35.00204,1.98672,-0.06151145,-0.02301787,0.93682
273.381,35.06512,1.97558,-0.06274025,-0.000669792,0.9363
274.081,35.12816,1.97751,-0.06273988,0.000286119,0.93578
274.781,35.1915,1.9703,-0.0616777,0.01824479,0.93526
275.481,35.25456,1.97672,-0.06180464,-0.02333037,0.93473
276.181,35.31762,1.96768,-0.06307023,-0.000620749,0.93421
276.881,35.3806,1.97998,-0.06307941,0.01840773,0.93369
277.581,35.44377,1.97645,-0.06175013,0.002117144,0.93316
278.281,35.5068,1.98177,-0.06174314,-0.01915175,0.93264
278.981,35.56982,1.97019,-0.06306901,0.002946497,0.93211
279.681,35.6329,1.97523,-0.06273459,0.01333314,0.93159
280.381,35.69596,1.9794,-0.06142634,0.003312527,0.93106
281.081,35.7592,1.97635,-0.06143177,0.00166094,0.93053
281.781,35.8223,1.97252,-0.06143084,-0.008982921,0.93
282.481,35.88542,1.97659,-0.06274601,-0.007284749,0.92947
283.181,35.94858,1.97542,-0.0622078,0.02097422,0.92894
283.881,36.01177,1.98283,-0.06272979,-0.01458712,0.92841
284.581,36.075,1.98502,-0.0627222,0.008137436,0.92788
285.281,36.13837,1.99069,-0.06208042,0.00133639,0.92735
285.981,36.2016,1.98637,-0.06208,-2.20228e-08,0.92681
286.681,36.2646,1.98293,-0.06207999,3.513384e-05,0.92628
287.381,36.32777,1.98581,-0.06191067,0.02418147,0.92575
288.081,36.39063,1.99135,-0.06077005,0.0003449422,0.92521
288.781,36.4539,1.98695,-0.06094668,-0.01596444,0.92467
289.481,36.51708,1.98556,-0.061421,0.001670223,0.92414
290.181,36.58031,1.99167,-0.06009361,0.02326808,0.9236
290.881,36.64359,1.98456,-0.06010977,-0.000546851,0.92306
291.581,36.7068,1.98942,-0.06128313,-0.02363198,0.92252
292.281,36.77003,1.98105,-0.06143,-1.609183e-05,0.92198
292.981,36.83338,1.98036,-0.06143253,0.005591426,0.92144
293.681,36.89675,1.98755,-0.06011898,0.01155679,0.9209
294.381,36.96,1.98456,-0.05944712,0.02480587,0.92036
295.081,37.02337,1.98494,-0.05880767,-0.01312852,0.91981
295.781,37.08672,1.97802,-0.06010996,-0.005110387,0.91927
296.481,37.15016,1.9873,-0.06076829,-0.01310788,0.91873
297.181,37.21379,1.97526,-0.0620107,-0.02608187,0.91818
297.881,37.2774,1.97612,-0.06164031,0.02420967,0.91764
298.581,37.34085,1.98696,-0.06037339,0.0246871,0.91709
299.281,37.40447,1.97859,-0.06011001,4.856995e-05,0.91654
299.981,37.46798,1.96903,-0.06010997,-5.66486e-06,0.916
300.681,37.53161,1.97541,-0.06022491,-0.02410626,0.91545
301.381,37.59513,1.98111,-0.06143489,0.00411203,0.9149
302.081,37.6586,1.96933,-0.0607687,0.00337772,0.91435
302.781,37.7222,1.97229,-0.06077469,-0.02561488,0.9138
303.481,37.78565,1.97744,-0.06191939,0.0117199,0.91325
304.181,37.8493,1.97973,-0.06164001,2.28458e-05,0.9127
304.881,37.91275,1.97545,-0.06164,-2.152837e-09,0.91215
305.581,37.9764,1.97353,-0.06164,-6.119322e-13,0.91159
306.281,38.04013,1.97886,-0.06164,6.3233e-18,0.91104
306.981,38.10406,1.98052,-0.06164,3.312558e-15,0.91049
307.681,38.16749,1.97969,-0.06164,9.824807e-12,0.90993
308.381,38.23105,1.98108,-0.06164,-2.109161e-08,0.90938
309.081,38.29484,1.98155,-0.06164115,-0.002202697,0.90882
309.781,38.3589,1.97854,-0.0629371,-0.01805472,0.90827
310.481,38.4225,1.98612,-0.06295909,0.002407883,0.90771
311.181,38.4861,1.98593,-0.06163436,0.01119336,0.90715
311.881,38.5498,1.98767,-0.06306904,-0.0120772,0.90659
312.581,38.61373,1.9865,-0.06306884,0.009846695,0.90604
313.281,38.67753,1.9883,-0.06175991,0.01404718,0.90548
313.981,38.74143,1.99037,-0.06043757,0.00838445,0.90492
314.681,38.8052,1.9894,-0.06037525,-0.02332607,0.90436
315.381,38.86895,1.97991,-0.06273269,0.006174339,0.9038
316.081,38.9328,1.97778,-0.06151362,-0.0032261,0.90323
316.781,38.9967,1.98308,-0.06175997,-2.94811e-05,0.90267
317.481,39.06068,1.98353,-0.06175775,0.006502824,0.90211
318.181,39.12475,1.98914,-0.06110127,0.00153042,0.90155
318.881,39.18877,1.99825,-0.06232718,-0.02380007,0.90098
319.581,39.25273,1.97989,-0.06241003,-1.275398e-06,0.90042
320.281,39.3166,1.99049,-0.06240305,-0.008675323,0.89985
320.981,39.3808,1.98652,-0.06372993,-0.00410694,0.89929
321.681,39.445,1.99066,-0.06087716,0.03459832,0.89872
322.381,39.50911,1.99084,-0.06229786,-0.009726423,0.89816
323.081,39.5732,1.97711,-0.06213236,0.01816194,0.89759
323.781,39.6372,1.99063,-0.06130983,0.0004957698,0.89702
324.481,39.7014,1.98176,-0.06022731,0.01970302,0.89645
325.181,39.76542,1.99148,-0.06130722,-0.01328557,0.89589
325.881,39.8297,1.98884,-0.06262947,-0.01200854,0.89532
326.581,39.8938,1.99534,-0.06130624,0.00703086,0.89475
327.281,39.95769,1.99162,-0.0613106,-0.001226277,0.89418
327.981,40.0214,1.99268,-0.06164165,-0.00286757,0.89361
328.681,40.0852,1.98977,-0.06164,1.9578e-07,0.89304
329.381,40.14918,1.99458,-0.06164,1.15074e-11,0.89247
330.081,40.21311,1.99109,-0.06164,1.424392e-10,0.8919
330.781,40.27715,1.98923,-0.06164,5.862577e-07,0.89132
331.481,40.34117,1.98374,-0.06164557,-0.01169372,0.89075
332.181,40.40538,1.98942,-0.06295979,-0.00389443,0.89018
332.881,40.4696,1.99705,-0.06233179,0.02777848,0.8896
333.581,40.5339,1.99118,-0.06095618,0.01926651,0.88903
334.281,40.59795,1.99652,-0.06033164,-0.0127248,0.88846
334.981,40.662,1.98817,-0.06163703,-0.02115668,0.88788
335.681,40.726,1.99574,-0.06307424,0.0182029,0.8873
336.381,40.79002,1.98581,-0.06044014,0.01782024,0.88673
337.081,40.85422,1.98447,-0.06044001,1.070093e-06,0.88615
337.781,40.91831,1.99573,-0.06044037,-0.01017339,0.88558
338.481,40.9829,1.98081,-0.06306344,-0.02251316,0.885
339.181,41.04725,1.97576,-0.06212836,0.01694548,0.88442
339.881,41.1119,1.98629,-0.06210947,0.01704795,0.88384
340.581,41.17634,1.98847,-0.06217908,-0.02764364,0.88327
341.281,41.24106,1.99101,-0.06207138,0.007338316,0.88269
341.981,41.30575,1.99785,-0.06183428,-0.004883407,0.88211
342.681,41.37045,1.99637,-0.06209,-1.288688e-05,0.88153
343.381,41.43509,1.99867,-0.06208992,-0.0003949077,0.88095
344.081,41.4995,1.99469,-0.06306362,-0.01920016,0.88037
344.781,41.56406,1.99372,-0.06201099,0.01336612,0.87979
345.481,41.62857,1.99504,-0.06330192,-0.01537679,0.87921
346.181,41.69285,2.00484,-0.063304,0.01639434,0.87863
346.881,41.75679,1.99886,-0.06198094,0.001708892,0.87804
347.581,41.82096,1.99378,-0.06332496,-0.02186634,0.87746
348.281,41.88496,2.00293,-0.06330002,2.351935e-06,0.87688
348.981,41.94934,1.99119,-0.0633,4.16707e-07,0.8763
349.681,42.0142,1.99729,-0.06334311,0.01904591,0.87571
350.381,42.07926,1.99667,-0.06198092,-0.002723164,0.87513
351.081,42.14424,2.00296,-0.06297762,-0.00712409,0.87455
351.781,42.20895,1.99353,-0.06297035,-0.001374433,0.87396
352.481,42.2735,1.99446,-0.06330255,-0.002497784,0.87338
353.181,42.3382,1.99451,-0.0633,7.671811e-08,0.87279
353.881,42.4031,1.99417,-0.0633,-1.99396e-07,0.87221
354.581,42.46772,2.00934,-0.06330591,0.01972109,0.87162
355.281,42.53222,2.006,-0.06197958,0.00136376,0.87104
355.981,42.5967,2.006,-0.06198013,-0.0002117036,0.87045
356.681,42.66142,2.00775,-0.06307462,-0.02455976,0.86986
357.381,42.7264,2.00452,-0.06329999,-2.59424e-05,0.86928
358.081,42.79103,2.00649,-0.0633,6.97166e-11,0.86869
358.781,42.85553,2.00647,-0.0633,4.457246e-14,0.8681
359.481,42.92014,1.99727,-0.0633,4.783168e-17,0.86751
360.181,42.98503,2.0063,-0.0633,5.339532e-12,0.86693
360.881,43.05,1.99909,-0.0633,3.884438e-11,0.86634
361.581,43.11476,2.00463,-0.0633006,-0.0008989513,0.86575
362.281,43.17944,2.01148,-0.06361912,-0.00313113,0.86516
362.981,43.24409,2.00107,-0.063622,-0.005461077,0.86457
363.681,43.30874,2.00839,-0.06362828,0.002865683,0.86398
364.381,43.37373,2.00292,-0.06459591,-0.009130211,0.86339
365.081,43.43862,2.01083,-0.06489417,-0.00270425,0.8628
365.781,43.50349,2.00839,-0.06363391,0.0136275,0.86221
366.481,43.56831,2.00692,-0.06361727,-0.008192366,0.86162
367.181,43.63312,2.00464,-0.06493429,-0.003835496,0.86103
367.881,43.69778,2.01113,-0.06394331,-0.008887377,0.86044
368.581,43.76233,2.00766,-0.06622794,-0.01673839,0.85985
369.281,43.82714,2.00645,-0.06506421,0.02331882,0.85926
369.981,43.8922,2.01049,-0.06493998,3.82771e-06,0.85866
370.681,43.9574,2.01409,-0.06494,-8.653842e-10,0.85807
371.381,44.02259,2.01254,-0.06494,-2.05812e-13,0.85748
372.081,44.08753,2.00907,-0.06494,-1.677692e-09,0.85689
372.781,44.15266,1.99821,-0.06493996,5.23197e-05,0.8563
373.481,44.21759,2.00597,-0.06440807,0.0729477,0.8557
374.181,44.28266,2.01185,-0.0632405,-0.16272,0.85511
374.881,44.34755,2.01027,-0.06819732,0.04920606,0.85452
375.581,44.4127,2.02009,-0.06610657,0.00797687,0.85392
376.281,44.47785,2.01158,-0.0650974,0.01885081,0.85333
376.981,44.54292,2.01246,-0.06505949,-0.009156416,0.85273
377.681,44.60807,2.00917,-0.06603045,-0.003133018,0.85214
378.381,44.67328,2.01773,-0.06603,-2.457909e-08,0.85155
379.081,44.7386,2.00929,-0.06603,-1.420944e-11,0.85095
379.781,44.80404,2.01126,-0.06603,6.87951e-07,0.85036
380.481,44.86934,2.01916,-0.06603025,0.02366899,0.84976
381.181,44.93468,2.01433,-0.06531714,-0.02346404,0.84917
381.881,44.99995,2.0023,-0.06548595,0.06578495,0.84857
382.581,45.0653,2.0126,-0.06497649,-0.20003,0.84798
383.281,45.13077,2.0277,-0.07144194,0.09787621,0.84738
383.981,45.19612,2.01364,-0.06691748,0.030727,0.84679
384.681,45.26147,2.02086,-0.06657997,9.570094e-06,0.84619
385.381,45.32697,2.01528,-0.06658,-5.713408e-09,0.84559
386.081,45.39237,2.01222,-0.06657991,-0.0002007507,0.845
386.781,45.45758,2.02137,-0.06693594,-0.01152948,0.8444
387.481,45.52285,2.02236,-0.06801947,-0.030982,0.84381
388.181,45.5882,2.01616,-0.06922016,0.0002377647,0.84321
388.881,45.65376,2.03075,-0.06817022,0.01806595,0.84261
389.581,45.7192,2.02004,-0.06789385,0.01722366,0.84202
390.281,45.7849,2.01802,-0.06658094,0.002508451,0.84142
390.981,45.85073,2.01767,-0.06658,-1.458205e-08,0.84082
391.681,45.91648,2.01618,-0.06658049,-0.00145592,0.84022
392.381,45.98188,2.01206,-0.06723465,-0.007425719,0.83963
393.081,46.04722,2.02162,-0.06724,-3.263476e-07,0.83903
393.781,46.1128,2.02503,-0.06724001,-1.309033e-06,0.83843
394.481,46.17859,2.02771,-0.06725658,-0.01704057,0.83783
395.181,46.2442,2.02624,-0.06855986,-0.002011192,0.83724
395.881,46.30995,2.02528,-0.06855941,0.009916002,0.83664
396.581,46.3757,2.02862,-0.06789966,0.0005404662,0.83604
397.281,46.44171,2.02892,-0.06802172,-0.03003776,0.83544
397.981,46.50748,2.01228,-0.07056247,-0.02556252,0.83485
398.681,46.57335,2.02665,-0.07184986,-0.002207262,0.83425
399.381,46.63917,2.03292,-0.07185,-1.468013e-07,0.83365
400.081,46.7051,2.03668,-0.07183698,0.0125635,0.83305
400.781,46.771,2.03374,-0.07096142,-0.04418151,0.83245
401.481,46.83692,2.04075,-0.07327027,-0.0008515011,0.83185
402.181,46.90266,2.04064,-0.073271,-0.009269919,0.83126
402.881,46.9685,2.0466,-0.07459232,0.001017775,0.83066
403.581,47.03431,2.04359,-0.07326319,0.008024926,0.83006
404.281,47.10011,2.05305,-0.07393304,0.001293673,0.82946
404.981,47.16621,2.0423,-0.07177652,0.02167022,0.82886
405.681,47.23207,2.04972,-0.07048794,0.02124608,0.82826
406.381,47.29802,2.05509,-0.0710252,-0.02470811,0.82766
407.081,47.3636,2.05541,-0.0718311,0.01322665,0.82707
407.781,47.42918,2.06377,-0.07144734,-0.02180657,0.82647
408.481,47.49474,2.05954,-0.07309731,-0.02862273,0.82587
409.181,47.56055,2.05726,-0.07449081,-0.000374238,0.82527
409.881,47.62652,2.04114,-0.0730568,0.006305019,0.82467
410.581,47.69267,2.05639,-0.07306,-1.102328e-06,0.82407
411.281,47.75867,2.06556,-0.073076,-0.01695156,0.82347
411.981,47.82502,2.06062,-0.07436987,-0.001819326,0.82287
412.681,47.8915,2.04758,-0.07437006,-7.650538e-05,0.82227
413.381,47.9581,2.05785,-0.07570673,-0.09370646,0.82168
414.081,48.02452,2.05897,-0.08150571,0.02582543,0.82108
414.781,48.0908,2.06559,-0.07806519,0.0357892,0.82048
415.481,48.157,2.05593,-0.07591596,-0.006029614,0.81988
416.181,48.22318,2.03771,-0.07688994,0.008724678,0.81928
416.881,48.2892,2.03875,-0.07558515,-0.01117279,0.81868
417.581,48.35519,2.04114,-0.07697785,-0.01802795,0.81808
418.281,48.42122,2.03672,-0.07688963,0.006640418,0.81748
418.981,48.48731,2.01583,-0.07689001,-8.10323e-05,0.81688
419.681,48.5534,2.02638,-0.07756641,-0.02495829,0.81629
420.381,48.61973,2.0159,-0.07821,-2.8001e-05,0.81569
421.081,48.686,2.0208,-0.07820328,-0.01858816,0.81509
421.781,48.7523,2.0144,-0.07953044,-0.00134836,0.81449
422.481,48.81858,2.00784,-0.07953063,-0.003559197,0.81389
423.181,48.88492,2.01044,-0.08082693,-0.01261819,0.81329
423.881,48.95142,1.99918,-0.08084,1.997496e-07,0.81269
424.581,49.01793,1.99305,-0.08084,2.09545e-08,0.81209
425.281,49.08437,1.99543,-0.08084097,-0.002450078,0.8115
425.981,49.1509,1.99631,-0.08333542,-0.03617477,0.8109
426.681,49.21736,1.9856,-0.08237629,0.00634993,0.8103
427.381,49.28375,1.9948,-0.08237286,-0.01204876,0.8097
428.081,49.35013,1.97934,-0.07785325,0.1449,0.8091
428.781,49.4163,1.97747,-0.077482,-0.10576,0.8085
429.481,49.4829,1.97842,-0.0812942,-0.01679033,0.80791
430.181,49.54914,1.97686,-0.08259996,-0.004695446,0.80731
430.881,49.61564,1.97248,-0.08385763,-0.04064013,0.80671
431.581,49.6819,1.98255,-0.08604948,-0.02748021,0.80611
432.281,49.7484,1.97107,-0.08752074,-0.00637445,0.80552
432.981,49.8146,1.96605,-0.08628607,-0.005047832,0.80492
433.681,49.88127,1.96968,-0.08731959,-0.00146284,0.80432
434.381,49.948,1.96804,-0.08732149,-0.004190213,0.80372
435.081,50.01457,1.96711,-0.08866022,-0.02824412,0.80313
435.781,50.08115,1.95891,-0.09019974,-0.01985175,0.80253
436.481,50.14741,1.95305,-0.09259999,-0.04279814,0.80193
437.181,50.21392,1.94597,-0.09331257,0.00480295,0.80133
437.881,50.2806,1.95091,-0.09400014,-0.00725991,0.80074
438.581,50.34709,1.93678,-0.09399311,-0.01932165,0.80014
439.281,50.41352,1.93184,-0.09560092,-0.013878,0.79954
439.981,50.4799,1.93755,-0.0966325,-0.03859494,0.79895
440.681,50.54613,1.92489,-0.09927411,-0.01496748,0.79835
441.381,50.61249,1.93081,-0.10166,-0.07467184,0.79775
442.081,50.67866,1.92518,-0.10012,0.12707,0.79716
442.781,50.74505,1.90822,-0.09812255,-0.03603112,0.79656
443.481,50.81163,1.92251,-0.10115,-0.02813095,0.79597
444.181,50.87857,1.9221,-0.10371,-0.02840493,0.79537
444.881,50.94505,1.907,-0.10408,-0.01478655,0.79478
445.581,51.01169,1.90868,-0.10809,-0.05837491,0.79418
446.281,51.0777,1.89355,-0.11035,-0.05105988,0.79358
446.981,51.1444,1.89103,-0.11399,-0.03550321,0.79299
447.681,51.21107,1.87554,-0.11598,-0.0437804,0.79239
448.381,51.278,1.87827,-0.11906,-0.03312322,0.7918
449.081,51.34473,1.87329,-0.12056,-0.01366903,0.79121
449.781,51.4116,1.86981,-0.12247,-0.06408864,0.79061
450.481,51.4786,1.86585,-0.12655,-0.05255176,0.79002
451.181,51.54555,1.85962,-0.13093,-0.06091037,0.78942
451.881,51.61215,1.85739,-0.13397,-0.0439917,0.78883
452.581,51.6788,1.85725,-0.13904,-0.13059,0.78823
453.281,51.74558,1.85323,-0.1391,0.14547,0.78764
453.981,51.81259,1.85339,-0.141,-0.1658,0.78705
454.681,51.87958,1.84689,-0.14822,-0.03768393,0.78645
455.381,51.94663,1.84252,-0.15121,-0.07089758,0.78586
456.081,52.0135,1.83994,-0.15602,-0.05378883,0.78527
456.781,52.08057,1.83461,-0.15988,-0.08244539,0.78468
457.481,52.1475,1.8437,-0.16685,-0.08338253,0.78408
458.181,52.2145,1.85283,-0.17086,-0.08060354,0.78349
458.881,52.28153,1.84493,-0.17617,-0.09634107,0.7829
459.581,52.34854,1.84355,-0.18371,-0.07613428,0.78231
460.281,52.4155,1.85794,-0.18815,-0.10677,0.78172
460.981,52.48261,1.84233,-0.19579,-0.10051,0.78113
461.681,52.54984,1.8004,-0.20236,-0.092706,0.78053
462.381,52.61708,1.78158,-0.20781,-0.08161968,0.77994
463.081,52.68421,1.78436,-0.21428,-0.09301989,0.77935
463.781,52.7514,1.7867,-0.21997,-0.10145,0.77876
464.481,52.8185,1.81768,-0.22723,-0.1389,0.77817
465.181,52.8857,1.83583,-0.2382,-0.15561,0.77758
465.881,52.95281,1.89186,-0.24514,-0.09633821,0.77699
466.581,53.0198,1.84345,-0.25346,-0.11547,0.7764
467.281,53.08721,1.84203,-0.26099,-0.11863,0.77581
467.981,53.15444,1.87963,-0.26998,-0.1496,0.77523
468.681,53.22172,1.89458,-0.28082,-0.17303,0.77464
469.381,53.2889,1.86647,-0.29034,-0.13583,0.77405
470.081,53.35625,1.86043,-0.30528,-0.24576,0.77346
470.781,53.42377,1.86319,-0.30709,0.08777226,0.77287
471.481,53.49142,1.89272,-0.31765,-0.26303,0.77228
472.181,53.5591,1.94847,-0.32893,-0.16777,0.7717
472.881,53.62693,1.99979,-0.34458,-0.23479,0.77111
473.581,53.6946,2.03007,-0.35803,-0.18123,0.77052
474.281,53.7621,1.99565,-0.37101,-0.19346,0.76994
474.981,53.82979,1.98142,-0.38573,-0.2033,0.76935
475.681,53.8973,2.06384,-0.39722,-0.20183,0.76876
476.381,53.9649,2.11581,-0.41281,-0.22283,0.76818
477.081,54.03238,2.14565,-0.42972,-0.28841,0.76759
477.781,54.1002,2.1277,-0.44899,-0.26289,0.76701
478.481,54.16809,2.12009,-0.46622,-0.22955,0.76642
479.181,54.23595,2.24075,-0.48022,-0.24056,0.76584
479.881,54.3033,2.18507,-0.4987,-0.25844,0.76525
480.581,54.3708,2.16704,-0.51663,-0.27899,0.76467
481.281,54.4385,2.25005,-0.53499,-0.29307,0.76409
481.981,54.50669,2.36433,-0.55622,-0.30719,0.7635
482.681,54.5747,2.33361,-0.57745,-0.29837,0.76292
483.381,54.64241,2.32438,-0.59669,-0.2975,0.76234
484.081,54.71017,2.49432,-0.61737,-0.33254,0.76175
484.781,54.7777,2.61913,-0.64396,-0.37299,0.76117
485.481,54.84528,2.68053,-0.66842,-0.40128,0.76059
486.181,54.91287,2.654,-0.6941,-0.39037,0.76001
486.881,54.98052,2.56421,-0.71978,-0.33505,0.75943
487.581,55.0483,2.47803,-0.74454,-0.38559,0.75885
488.281,55.116,2.38706,-0.76782,-0.3552,0.75827
488.981,55.18359,2.34199,-0.7898,-0.30066,0.75769
489.681,55.2513,2.32423,-0.8139,-0.35551,0.75711
490.381,55.3189,2.32349,-0.83815,-0.38016,0.75653
491.081,55.3866,2.35775,-0.862,-0.35609,0.75595
491.781,55.4545,2.40658,-0.89041,-0.41948,0.75537
492.481,55.52245,2.41888,-0.91727,-0.43044,0.75479
493.181,55.59052,2.54512,-0.94768,-0.43569,0.75421
493.881,55.65854,2.73211,-0.98017,-0.48434,0.75363
494.581,55.7264,2.83205,-1.01403,-0.50753,0.75306
495.281,55.7943,2.84675,-1.04787,-0.52181,0.75248
495.981,55.86205,2.78259,-1.08288,-0.48981,0.7519
496.681,55.92989,2.70534,-1.11699,-0.49977,0.75133
497.381,55.99775,2.62648,-1.15093,-0.50725,0.75075
498.081,56.06553,2.56729,-1.18384,-0.49748,0.75017
498.781,56.13341,2.54403,-1.2186,-0.48529,0.7496
499.481,56.20109,2.541,-1.25091,-0.52674,0.74902
500.181,56.2688,2.55237,-1.28771,-0.52005,0.74845
500.881,56.33628,2.70489,-1.32436,-0.57687,0.74787
501.581,56.40406,2.69799,-1.36406,-0.58007,0.7473
502.281,56.47201,2.67887,-1.40363,-0.59376,0.74673
502.981,56.5398,2.7274,-1.44349,-0.55981,0.74615
503.681,56.6071,2.7924,-1.48428,-0.65176,0.74558
504.381,56.6748,2.7462,-1.52751,-0.62411,0.74501
505.081,56.743,2.70255,-1.56813,-0.61292,0.74444
505.781,56.81142,2.64624,-1.61224,-0.614,0.74387
506.481,56.8795,2.61398,-1.65294,-0.64345,0.74329
507.181,56.94751,2.58117,-1.69605,-0.6266,0.74272
507.881,57.01562,2.55023,-1.73983,-0.63706,0.74215
508.581,57.0839,2.54829,-1.7836,-0.66043,0.74158
509.281,57.15203,2.5344,-1.82827,-0.63201,0.74101
509.981,57.2206,2.53424,-1.87235,-0.64308,0.74044
510.681,57.28917,2.49671,-1.91903,-0.6858,0.73988
511.381,57.3578,2.47974,-1.96336,-0.62618,0.73931
512.081,57.4261,2.45133,-2.00564,-0.67147,0.73874
512.781,57.49442,2.42466,-2.05341,-0.66061,0.73817
513.481,57.5626,2.40029,-2.09914,-0.6898,0.73761
514.181,57.63074,2.37386,-2.14367,-0.67748,0.73704
514.881,57.69905,2.31219,-2.18853,-0.63107,0.73647
515.581,57.7675,2.26502,-2.23418,-0.65031,0.73591
516.281,57.836,2.20025,-2.27568,-0.63289,0.73534
516.981,57.90413,2.1286,-2.31811,-0.58698,0.73478
517.681,57.97225,2.04552,-2.35933,-0.57261,0.73421
518.381,58.0405,1.95473,-2.39886,-0.61338,0.73365
519.081,58.1087,1.87632,-2.43494,-0.49436,0.73308
519.781,58.1768,1.77843,-2.47078,-0.51812,0.73252
520.481,58.2447,1.6929,-2.50454,-0.50646,0.73196
521.181,58.31267,1.58133,-2.53589,-0.44392,0.7314
521.881,58.38075,1.49437,-2.56646,-0.43029,0.73083
522.581,58.44911,1.37925,-2.59485,-0.39228,0.73027
523.281,58.5174,1.2956,-2.62241,-0.34947,0.72971
523.981,58.58569,1.20783,-2.64344,-0.38512,0.72915
524.681,58.654,1.11951,-2.67075,-0.31963,0.72859
525.381,58.72221,1.04411,-2.68969,-0.27845,0.72803
526.081,58.7905,0.96962,-2.71007,-0.28394,0.72747
526.781,58.85872,0.9117,-2.72539,-0.21188,0.72691
527.481,58.9269,0.84988,-2.741,-0.21781,0.72635
528.181,58.99533,0.79956,-2.75686,-0.21393,0.7258
528.881,59.0637,0.74916,-2.76857,-0.18356,0.72524
529.581,59.13221,0.71716,-2.78199,-0.19164,0.72468
530.281,59.20038,0.6812,-2.7931,-0.1418,0.72413
530.981,59.2687,0.65199,-2.80313,-0.15745,0.72357
531.681,59.33716,0.61245,-2.81329,-0.08808974,0.72301
532.381,59.4059,0.58096,-2.81866,-0.13407,0.72246
533.081,59.47466,0.55837,-2.82954,-0.09975517,0.7219
533.781,59.5432,0.5405,-2.83464,-0.08882327,0.72135
534.481,59.61165,0.51772,-2.84167,-0.11729,0.7208
535.181,59.67994,0.50213,-2.84865,-0.07087418,0.72024
535.881,59.7483,0.48385,-2.85216,-0.05472858,0.71969
536.581,59.81646,0.46747,-2.85788,-0.10689,0.71914
537.281,59.88488,0.45616,-2.86341,-0.06863719,0.71859
537.981,59.9535,0.44416,-2.86921,-0.07725763,0.71804
538.681,60.02219,0.44008,-2.87303,-0.04485353,0.71748
539.381,60.09065,0.43242,-2.87586,-0.07069496,0.71693
540.081,60.159,0.43954,-2.88146,-0.05405124,0.71638
540.781,60.22753,0.41792,-2.88459,-0.04143182,0.71584
541.481,60.29622,0.41358,-2.89024,-0.07005734,0.71529
542.181,60.36501,0.42204,-2.89189,-0.0317495,0.71474
542.881,60.4337,0.41689,-2.8957,-0.05768899,0.71419
543.581,60.50232,0.42315,-2.8985,-0.03807577,0.71364
544.281,60.57057,0.41352,-2.8994,-0.01168042,0.7131
544.981,60.63921,0.4175,-2.9036,-0.0665615,0.71255
545.681,60.7078,0.39977,-2.90557,-0.02143597,0.71201
546.381,60.7768,0.40791,-2.91042,-0.06548691,0.71146
547.081,60.84571,0.41914,-2.91318,-0.04826181,0.71092
547.781,60.91446,0.41278,-2.91591,-0.02179439,0.71037
548.481,60.98315,0.39757,-2.91937,-0.05999538,0.70983
549.181,61.0518,0.40054,-2.91997,0.01130555,0.70928
549.881,61.12089,0.39427,-2.91871,-0.04116989,0.70874
550.581,61.18985,0.39542,-2.92915,0.008235324,0.7082
551.281,61.2588,0.386,-2.91757,-0.02957182,0.70766
551.981,61.3273,0.39318,-2.92731,-0.07699664,0.70712
552.681,61.3961,0.38359,-2.92732,0.003456195,0.70658
553.381,61.46493,0.38572,-2.93057,-0.04749664,0.70604
554.081,61.53396,0.37985,-2.93195,-0.03350328,0.7055
554.781,61.6027,0.38059,-2.93414,-0.04205488,0.70496
555.481,61.67156,0.37669,-2.9373,-0.02532494,0.70442
556.181,61.7404,0.36255,-2.93861,-0.0226607,0.70388
556.881,61.80947,0.37024,-2.94165,-0.04419596,0.70335
557.581,61.87837,0.37122,-2.943,-0.00733397,0.70281
558.281,61.9474,0.3626,-2.94523,-0.04224358,0.70227
558.981,62.0163,0.36095,-2.94666,0.01714013,0.70174
559.681,62.08554,0.36567,-2.94744,-0.05194281,0.7012
560.381,62.1543,0.36474,-2.95058,-0.03126674,0.70067
561.081,62.2234,0.37039,-2.9519,-0.01619563,0.70013
561.781,62.29245,0.36457,-2.95411,-0.02638074,0.6996
562.481,62.3619,0.3705,-2.95539,-0.02179885,0.69907
563.181,62.431,0.36347,-2.95682,-0.05047293,0.69853
563.881,62.4998,0.37039,-2.96482,0.04850495,0.698
564.581,62.56859,0.36506,-2.95726,-0.01585712,0.69747
565.281,62.63769,0.36706,-2.96033,-0.01696977,0.69694
565.981,62.707,0.36516,-2.96231,-0.04214135,0.69641
566.681,62.77621,0.35774,-2.9643,-0.02223113,0.69588
567.381,62.84534,0.3525,-2.96587,-0.02599667,0.69535
568.081,62.91446,0.36192,-2.96691,-0.01163643,0.69482
568.781,62.9835,0.35852,-2.96827,-0.0351944,0.6943
569.481,63.0525,0.36509,-2.97167,-0.03330734,0.69377
570.181,63.12157,0.35664,-2.97249,-0.002177557,0.69324
570.881,63.19056,0.37107,-2.9738,-0.03114468,0.69272
571.581,63.25988,0.35149,-2.97764,-0.04699511,0.69219
572.281,63.3291,0.34656,-2.97744,0.009457294,0.69166
572.981,63.39821,0.36254,-2.97743,-0.02104665,0.69114
573.681,63.4672,0.36458,-2.98023,-0.05045206,0.69062
574.381,63.53609,0.36158,-2.98311,-0.02245187,0.69009
575.081,63.6051,0.35902,-2.98446,-0.002530459,0.68957
575.781,63.674,0.36387,-2.98317,-0.0003441649,0.68905
576.481,63.7428,0.35227,-2.98539,-0.05483162,0.68853
577.181,63.8119,0.36858,-2.98861,-0.01206251,0.68801
577.881,63.8808,0.36738,-2.9873,-0.008473481,0.68749
578.581,63.94993,0.35987,-2.99123,-0.15024,0.68697
579.281,64.0189,0.36767,-2.99407,0.2306,0.68645
579.981,64.08804,0.37396,-2.98873,-0.11548,0.68593
580.681,64.15725,0.37563,-2.99241,-0.04766273,0.68541
581.381,64.2264,0.38595,-2.99509,-0.005409945,0.68489
582.081,64.29566,0.37703,-2.99658,-0.03223001,0.68437
582.781,64.3647,0.37196,-2.99795,-0.0131226,0.68386
583.481,64.43398,0.38421,-2.99926,-0.002776395,0.68334
584.181,64.50322,0.36458,-2.99937,-0.04899834,0.68283
584.881,64.57256,0.36267,-3.00363,-0.01080278,0.68231
585.581,64.64169,0.37365,-3.00207,8.11709e-05,0.6818
586.281,64.71092,0.37012,-3.00468,-0.04655331,0.68129
586.981,64.78014,0.36316,-3.00738,-0.02739394,0.68077
587.681,64.84945,0.37419,-3.0087,-0.02197156,0.68026
588.381,64.91888,0.36031,-3.01001,-0.001121361,0.67975
589.081,64.9884,0.3591,-3.00999,0.01444924,0.67924
589.781,65.0578,0.38551,-3.00939,-0.01926006,0.67873
590.481,65.12715,0.38313,-3.01067,-0.02152014,0.67822
591.181,65.19643,0.37582,-3.01335,-0.01498985,0.67771
591.881,65.2658,0.37689,-3.01546,-0.028263,0.6772
592.581,65.33541,0.37304,-3.01581,0.01638977,0.67669
593.281,65.40469,0.37951,-3.0161,-0.02001709,0.67619
593.981,65.4738,0.38681,-3.0176,-0.03725256,0.67568
594.681,65.5427,0.40768,-3.01879,-0.002429475,0.67517
595.381,65.61189,0.40533,-3.01964,-0.01121529,0.67467
596.081,65.68129,0.42827,-3.02009,-0.03849743,0.67416
596.781,65.7506,0.42312,-3.02274,-0.008870671,0.67366
597.481,65.82008,0.42393,-3.02207,0.006246441,0.67316
598.181,65.8897,0.42521,-3.02438,-0.02204208,0.67265
598.881,65.9592,0.44725,-3.0257,-0.01417504,0.67215
599.581,66.0287,0.4616,-3.02706,-0.000998374,0.67165
600.281,66.09812,0.43837,-3.02712,-0.00107005,0.67115
600.981,66.16805,0.44796,-3.02762,-0.02470844,0.67065
601.681,66.2381,0.46784,-3.02924,-0.0282429,0.67015
602.381,66.30798,0.481,-3.03106,-0.01059137,0.66965
603.081,66.37734,0.46054,-3.03107,-0.001311307,0.66915
603.781,66.44706,0.47751,-3.03253,-0.034051,0.66865
604.481,66.5168,0.4681,-3.03391,0.02402377,0.66815
605.181,66.58666,0.4862,-3.03332,-0.03793896,0.66766
605.881,66.65611,0.49484,-3.03493,-0.01732686,0.66716
606.581,66.72564,0.48348,-3.03621,0.008034811,0.66667
607.281,66.7953,0.48323,-3.03627,-0.03564697,0.66617
607.981,66.86503,0.48293,-3.03776,0.0005084889,0.66568
608.681,66.93488,0.47271,-3.03641,0.007078949,0.66518
609.381,67.00469,0.46711,-3.03776,-0.00264482,0.66469
610.081,67.07464,0.47649,-3.03926,-0.05107757,0.6642
610.781,67.1445,0.47664,-3.04173,-0.02353722,0.66371
611.481,67.21436,0.48584,-3.04181,-0.000120474,0.66322
612.181,67.2842,0.48811,-3.04182,-9.649103e-06,0.66273
612.881,67.35416,0.48868,-3.04183,-0.01485373,0.66224
613.581,67.42404,0.49132,-3.04441,-0.01719256,0.66175
614.281,67.49413,0.4838,-3.04456,-0.01146822,0.66126
614.981,67.5642,0.46315,-3.0461,-0.004089302,0.66077
615.681,67.6345,0.47445,-3.0461,-1.696113e-06,0.66028
616.381,67.70464,0.47015,-3.04602,-0.01560618,0.6598
617.081,67.77467,0.4605,-3.04753,-0.0134491,0.65931
617.781,67.84466,0.47258,-3.04747,-0.0193419,0.65883
618.481,67.91462,0.4656,-3.04891,-0.03437335,0.65834
619.181,67.98464,0.46178,-3.04996,0.01474404,0.65786
619.881,68.05468,0.45299,-3.04988,-0.01934772,0.65738
620.581,68.12477,0.45559,-3.05126,-0.01317467,0.65689
621.281,68.19466,0.4377,-3.05261,0.01053324,0.65641
621.981,68.2646,0.45164,-3.05257,-0.006753485,0.65593
622.681,68.3344,0.44059,-3.05389,-0.01829278,0.65545
623.381,68.40439,0.44322,-3.05489,-0.02438545,0.65497
624.081,68.47435,0.45216,-3.05593,-0.01116536,0.65449
624.781,68.54435,0.44518,-3.05421,0.02524454,0.65401
625.481,68.6142,0.44324,-3.0547,-0.02450598,0.65353
626.181,68.68412,0.42688,-3.05564,-0.006006034,0.65306
626.881,68.7538,0.41425,-3.05697,-0.009803163,0.65258
627.581,68.82369,0.41257,-3.05808,0.006537846,0.6521
628.281,68.8935,0.4204,-3.05729,0.0001010602,0.65163
628.981,68.96342,0.40813,-3.05721,-0.01847261,0.65115
629.681,69.03336,0.41228,-3.05843,-0.0237534,0.65068
630.381,69.10346,0.40595,-3.05952,-0.0177459,0.65021
631.081,69.17352,0.39166,-3.05959,0.01127089,0.64973
631.781,69.2436,0.39313,-3.05961,-0.01342057,0.64926
632.481,69.31351,0.39648,-3.06091,-0.0118787,0.64879
633.181,69.3836,0.40953,-3.06222,-0.00353896,0.64832
633.881,69.45352,0.42033,-3.06127,0.02373961,0.64785
634.581,69.5236,0.41517,-3.06222,-0.024536,0.64738
635.281,69.5937,0.44443,-3.06353,-0.02402004,0.64691
635.981,69.664,0.45728,-3.06487,-0.0046555,0.64644
636.681,69.7343,0.46884,-3.06485,0.001385103,0.64597
637.381,69.80474,0.4536,-3.06485,-2.061041e-06,0.64551
638.081,69.87523,0.46206,-3.06457,0.02359104,0.64504
638.781,69.9456,0.48149,-3.06494,-0.0217381,0.64458
639.281,69.99579,0.47649,-3.06523,-0.008178535,0.64424