File: 01_Data/Particleboard/STA/N2/3K_min/Particleboard_STA_N2_3KData_220418_R1.csv
##Temp./Â°C,Time/min,Mass loss(subtr.2)/mg,DSC(subtr.2)/(mW/mg),Sensit./(uV/mW)
50.308,10.0158,-0.00461,0.01517862,1.0503
51.008,11.14578,-0.004779874,0.0400293,1.05017
51.708,11.53828,-0.0057804,0.0545839,1.05005
52.408,11.85655,-0.00665514,0.06291972,1.04993
53.108,12.1463,-0.008203388,0.06749936,1.0498
53.808,12.42421,-0.007406752,0.07181069,1.04967
54.508,12.6934,-0.00637034,0.07518448,1.04954
55.208,12.95635,-0.004868532,0.0760257,1.04942
55.908,13.21747,-0.004719106,0.07914806,1.04929
56.608,13.4761,-0.005048088,0.08028659,1.04916
57.308,13.7325,-0.00306996,0.0794209,1.04903
58.008,13.9846,-0.002442641,0.08229154,1.04889
58.708,14.23515,-0.003733078,0.08235275,1.04876
59.408,14.48214,-0.003070181,0.08214341,1.04863
60.108,14.72858,-0.003078187,0.08416486,1.04849
60.808,14.9724,-0.00307045,0.08597894,1.04836
61.508,15.21544,-0.005038518,0.08760423,1.04822
62.208,15.45594,-0.005405706,0.0888133,1.04809
62.908,15.69586,-0.005699932,0.09162729,1.04795
63.608,15.9341,-0.00730483,0.09327205,1.04781
64.308,16.1743,-0.00771017,0.09332595,1.04767
65.008,16.41265,-0.006690055,0.09421095,1.04754
65.708,16.65051,-0.007995511,0.0953613,1.0474
66.408,16.88785,-0.006625865,0.0961381,1.04725
67.108,17.12602,-0.00768017,0.09729597,1.04711
67.808,17.36293,-0.009002836,0.09803193,1.04697
68.508,17.59694,-0.00934288,0.09744375,1.04683
69.208,17.83026,-0.00952296,0.09610363,1.04668
69.908,18.06615,-0.009655984,0.097566,1.04654
70.608,18.3032,-0.00931826,0.09753211,1.04639
71.308,18.53835,-0.01033636,0.0971115,1.04625
72.008,18.77066,-0.009330006,0.09953447,1.0461
72.708,19.00388,-0.00998994,0.09901251,1.04595
73.408,19.2397,-0.009331301,0.0972947,1.0458
74.108,19.47511,-0.00929541,0.09674027,1.04565
74.808,19.70926,-0.01096997,0.09569585,1.0455
75.508,19.94259,-0.00968582,0.09601541,1.04535
76.208,20.1764,-0.00934586,0.0958756,1.0452
76.908,20.40973,-0.01064,0.09510542,1.04505
77.608,20.6423,-0.01155395,0.09737803,1.04489
78.308,20.87452,-0.0113,0.0954008,1.04474
79.008,21.11027,-0.01095662,0.096625,1.04459
79.708,21.34694,-0.0122389,0.0967935,1.04443
80.408,21.5844,-0.01090303,0.09439928,1.04427
81.108,21.81796,-0.01064608,0.09623801,1.04412
81.808,22.05011,-0.0113,0.09600622,1.04396
82.508,22.28368,-0.01297452,0.09312713,1.0438
83.208,22.51776,-0.01195946,0.09368657,1.04364
83.908,22.75244,-0.01196,0.09362931,1.04348
84.608,22.9855,-0.01165253,0.09206626,1.04332
85.308,23.218,-0.01032,0.09206583,1.04316
86.008,23.4509,-0.01031916,0.09151783,1.04299
86.708,23.68386,-0.01162945,0.08971916,1.04283
87.408,23.91764,-0.01160825,0.0910492,1.04267
88.108,24.15075,-0.01295178,0.08789225,1.0425
88.808,24.3844,-0.01251663,0.08941501,1.04233
89.508,24.61744,-0.01260992,0.09127692,1.04217
90.208,24.84999,-0.01063942,0.09015965,1.042
90.908,25.0819,-0.01194801,0.0894024,1.04183
91.608,25.31342,-0.01065401,0.08734029,1.04166
92.308,25.54534,-0.01196001,0.08714666,1.04149
93.008,25.77808,-0.01295341,0.08894704,1.04132
93.708,26.01005,-0.01163,0.08675651,1.04115
94.408,26.2427,-0.01260111,0.0865406,1.04098
95.108,26.4746,-0.01164836,0.08538457,1.04081
95.808,26.70767,-0.0114462,0.08190703,1.04063
96.508,26.94009,-0.01034385,0.0822865,1.04046
97.208,27.1729,-0.0110857,0.08384007,1.04028
97.908,27.4048,-0.01261861,0.08488459,1.04011
98.608,27.6373,-0.01194362,0.08450072,1.03993
99.308,27.8683,-0.0116067,0.08409577,1.03975
100.008,28.0995,-0.01031984,0.08360636,1.03958
100.708,28.3287,-0.01098458,0.08432111,1.0394
101.408,28.56121,-0.01097095,0.08341939,1.03922
102.108,28.79415,-0.01129996,0.08066216,1.03904
102.808,29.0272,-0.01097234,0.08303581,1.03886
103.508,29.2576,-0.0110353,0.08476903,1.03867
104.208,29.48845,-0.01096506,0.08421521,1.03849
104.908,29.71823,-0.01158087,0.0841044,1.03831
105.608,29.9489,-0.01162903,0.0850316,1.03812
106.308,30.17778,-0.009249257,0.08218429,1.03794
107.008,30.40833,-0.01066282,0.08407422,1.03775
107.708,30.64045,-0.01064,0.08381038,1.03756
108.408,30.87323,-0.01193311,0.08373545,1.03738
109.108,31.1056,-0.01102242,0.08365773,1.03719
109.808,31.33558,-0.01163229,0.08485984,1.037
110.508,31.5671,-0.01130628,0.08514764,1.03681
111.208,31.7991,-0.01228998,0.0845909,1.03662
111.908,32.0319,-0.01229001,0.08573789,1.03643
112.608,32.26312,-0.01228687,0.0849409,1.03623
113.308,32.49449,-0.01189898,0.08404637,1.03604
114.008,32.72612,-0.01195817,0.08528662,1.03585
114.708,32.95865,-0.01261514,0.0881378,1.03565
115.408,33.18999,-0.01337312,0.08647374,1.03546
116.108,33.42176,-0.01388959,0.08721607,1.03526
116.808,33.65348,-0.01392998,0.08658837,1.03507
117.508,33.88443,-0.01460001,0.08798236,1.03487
118.208,34.1146,-0.01326131,0.08887549,1.03467
118.908,34.34517,-0.01397357,0.08487497,1.03447
119.608,34.5769,-0.0152498,0.0868785,1.03427
120.308,34.80831,-0.01394001,0.08736529,1.03407
121.008,35.0388,-0.0141337,0.08763174,1.03387
121.708,35.2697,-0.01392996,0.08829469,1.03367
122.408,35.5009,-0.01524992,0.09052753,1.03346
123.108,35.73129,-0.01490141,0.08736499,1.03326
123.808,35.96071,-0.01492169,0.08977988,1.03305
124.508,36.18983,-0.01500712,0.08844824,1.03285
125.208,36.42029,-0.01492682,0.09137021,1.03264
125.908,36.65121,-0.01504762,0.08998267,1.03244
126.608,36.88243,-0.01623765,0.09137086,1.03223
127.308,37.1125,-0.01541309,0.09076943,1.03202
128.008,37.3423,-0.01524928,0.08884811,1.03181
128.708,37.57248,-0.01527514,0.08956721,1.0316
129.408,37.80304,-0.01623975,0.09082492,1.03139
130.108,38.03363,-0.01524841,0.09353221,1.03118
130.808,38.26319,-0.0152028,0.08953457,1.03097
131.508,38.4931,-0.01700699,0.09273614,1.03075
132.208,38.72283,-0.01591,0.09374722,1.03054
132.908,38.9529,-0.01589168,0.09369002,1.03032
133.608,39.183,-0.01655476,0.09453585,1.03011
134.308,39.41317,-0.01513038,0.09599124,1.02989
135.008,39.64297,-0.0139396,0.09400532,1.02968
135.708,39.87267,-0.01462938,0.0912379,1.02946
136.408,40.10159,-0.01591141,0.09585407,1.02924
137.108,40.3294,-0.01393974,0.09497154,1.02902
137.808,40.55842,-0.01261105,0.09709362,1.0288
138.508,40.78823,-0.01335108,0.09699775,1.02858
139.208,41.01959,-0.01332303,0.09587425,1.02836
139.908,41.24966,-0.01330919,0.09706879,1.02813
140.608,41.47927,-0.01196811,0.09784125,1.02791
141.308,41.7097,-0.01235172,0.09865402,1.02769
142.008,41.9395,-0.01049863,0.09826248,1.02746
142.708,42.16973,-0.0093414,0.09918714,1.02724
143.408,42.39929,-0.01052921,0.09960719,1.02701
144.108,42.62789,-0.01184947,0.10045,1.02678
144.808,42.857,-0.01052988,0.10013,1.02656
145.508,43.08549,-0.009367505,0.10033,1.02633
146.208,43.31528,-0.01119856,0.10138,1.0261
146.908,43.54375,-0.01054,0.10268,1.02587
147.608,43.77299,-0.01148944,0.10222,1.02564
148.308,44.0013,-0.009879939,0.10161,1.02541
149.008,44.23055,-0.01251222,0.10471,1.02517
149.708,44.45926,-0.01184925,0.10576,1.02494
150.408,44.68812,-0.01428435,0.10689,1.02471
151.108,44.91625,-0.01578038,0.11112,1.02447
151.808,45.14433,-0.01581424,0.10908,1.02424
152.508,45.37277,-0.01764143,0.11156,1.024
153.208,45.60112,-0.01971849,0.11223,1.02376
153.908,45.82898,-0.02106012,0.11395,1.02353
154.608,46.0554,-0.0223855,0.11523,1.02329
155.308,46.28344,-0.02369987,0.11488,1.02305
156.008,46.5129,-0.02402937,0.11586,1.02281
156.708,46.74286,-0.02500289,0.11565,1.02257
157.408,46.97027,-0.02665467,0.11465,1.02232
158.108,47.19768,-0.02705693,0.11644,1.02208
158.808,47.42742,-0.02562013,0.11891,1.02184
159.508,47.65815,-0.02842599,0.11996,1.0216
160.208,47.88708,-0.02896002,0.11808,1.02135
160.908,48.11544,-0.02830002,0.12298,1.02111
161.608,48.3438,-0.02763636,0.12451,1.02086
162.308,48.57293,-0.02765904,0.12466,1.02061
163.008,48.8018,-0.02842141,0.12444,1.02036
163.708,49.03082,-0.0296166,0.12453,1.02012
164.408,49.25971,-0.02897557,0.12752,1.01987
165.108,49.488,-0.02994045,0.12966,1.01962
165.808,49.71575,-0.03158556,0.132,1.01937
166.508,49.9442,-0.03288324,0.1324,1.01911
167.208,50.17199,-0.0322315,0.13236,1.01886
167.908,50.39995,-0.03261204,0.13574,1.01861
168.608,50.62745,-0.0335547,0.13704,1.01835
169.308,50.8555,-0.03355628,0.1392,1.0181
170.008,51.08358,-0.03383807,0.13861,1.01784
170.708,51.31132,-0.03519482,0.14037,1.01759
171.408,51.53915,-0.03699328,0.14186,1.01733
172.108,51.76643,-0.03554193,0.14444,1.01707
172.808,51.99378,-0.03888034,0.14568,1.01682
173.508,52.2211,-0.03951676,0.14553,1.01656
174.208,52.45007,-0.04146853,0.14377,1.0163
174.908,52.67994,-0.04211999,0.14864,1.01604
175.608,52.90948,-0.04081782,0.14765,1.01577
176.308,53.1381,-0.04487918,0.152,1.01551
177.008,53.36529,-0.0447515,0.15439,1.01525
177.708,53.593,-0.04621868,0.15607,1.01498
178.408,53.8206,-0.04784352,0.15638,1.01472
179.108,54.0488,-0.0505586,0.15713,1.01445
179.808,54.27714,-0.04929071,0.15809,1.01419
180.508,54.50504,-0.05095496,0.15844,1.01392
181.208,54.7324,-0.05473003,0.15839,1.01365
181.908,54.95904,-0.05538949,0.16174,1.01339
182.608,55.1853,-0.05781941,0.16392,1.01312
183.308,55.41004,-0.05934484,0.1645,1.01285
184.008,55.63759,-0.05936358,0.16524,1.01258
184.708,55.8655,-0.06066002,0.16497,1.0123
185.408,56.0959,-0.06265736,0.16464,1.01203
186.108,56.324,-0.06278022,0.16418,1.01176
186.808,56.5517,-0.06398392,0.16591,1.01149
187.508,56.78025,-0.06592657,0.1651,1.01121
188.208,57.008,-0.06710417,0.1648,1.01094
188.908,57.2371,-0.06922384,0.16921,1.01066
189.608,57.4647,-0.07020203,0.16983,1.01038
190.308,57.6928,-0.07151985,0.1667,1.01011
191.008,57.9195,-0.07282848,0.1676,1.00983
191.708,58.14637,-0.07404846,0.16684,1.00955
192.408,58.3729,-0.07615157,0.16937,1.00927
193.108,58.5997,-0.07580951,0.17135,1.00899
193.808,58.82603,-0.07841785,0.16922,1.00871
194.508,59.0522,-0.08106153,0.16707,1.00843
195.208,59.27896,-0.08375119,0.16818,1.00814
195.908,59.5059,-0.08607513,0.16862,1.00786
196.608,59.7336,-0.08698779,0.17189,1.00757
197.308,59.96114,-0.08766461,0.16793,1.00729
198.008,60.1883,-0.0902769,0.16834,1.007
198.708,60.41559,-0.09256864,0.17005,1.00672
199.408,60.6426,-0.09671568,0.17163,1.00643
200.108,60.87008,-0.09549457,0.1695,1.00614
200.808,61.0977,-0.09817691,0.16779,1.00585
201.508,61.3257,-0.10079,0.16674,1.00556
202.208,61.5536,-0.10403,0.16964,1.00527
202.908,61.78125,-0.10341,0.16754,1.00498
203.608,62.00994,-0.10475,0.16542,1.00469
204.308,62.23887,-0.10751,0.1631,1.0044
205.008,62.46765,-0.11013,0.16399,1.0041
205.708,62.695,-0.11281,0.16548,1.00381
206.408,62.9222,-0.11144,0.1645,1.00352
207.108,63.14891,-0.11309,0.16211,1.00322
207.808,63.37595,-0.11574,0.16467,1.00292
208.508,63.60383,-0.11704,0.16244,1.00263
209.208,63.83133,-0.11998,0.16159,1.00233
209.908,64.05864,-0.12135,0.16125,1.00203
210.608,64.2851,-0.12394,0.16107,1.00173
211.308,64.51034,-0.12525,0.16368,1.00143
212.008,64.7368,-0.12788,0.16166,1.00113
212.708,64.9633,-0.13032,0.16135,1.00083
213.408,65.1905,-0.13197,0.16127,1.00053
214.108,65.41757,-0.1359,0.16144,1.00022
214.808,65.64463,-0.13931,0.16181,0.99992
215.508,65.87221,-0.14085,0.16405,0.99961
216.208,66.0988,-0.14347,0.16443,0.99931
216.908,66.32633,-0.14644,0.16265,0.999
217.608,66.5543,-0.14904,0.16485,0.9987
218.308,66.7819,-0.1517,0.16309,0.99839
219.008,67.0085,-0.15576,0.16144,0.99808
219.708,67.23484,-0.15819,0.16301,0.99777
220.408,67.46137,-0.15954,0.16521,0.99746
221.108,67.68774,-0.16238,0.16485,0.99715
221.808,67.91433,-0.16616,0.1692,0.99684
222.508,68.1407,-0.17026,0.16828,0.99653
223.208,68.3677,-0.17277,0.16758,0.99621
223.908,68.59496,-0.17672,0.16518,0.9959
224.608,68.82303,-0.1808,0.16802,0.99559
225.308,69.05045,-0.18328,0.16845,0.99527
226.008,69.27685,-0.18588,0.16873,0.99496
226.708,69.50347,-0.18914,0.16898,0.99464
227.408,69.73002,-0.19367,0.1686,0.99432
228.108,69.95713,-0.19637,0.17018,0.994
228.808,70.1837,-0.19907,0.16924,0.99368
229.508,70.4104,-0.20312,0.17019,0.99336
230.208,70.63764,-0.20556,0.16935,0.99304
230.908,70.86424,-0.207,0.16869,0.99272
231.608,71.09251,-0.21089,0.16931,0.9924
232.308,71.32037,-0.21498,0.16668,0.99208
233.008,71.5488,-0.21982,0.16604,0.99176
233.708,71.77502,-0.22277,0.16829,0.99143
234.408,72.00182,-0.22679,0.168,0.99111
235.108,72.2284,-0.22922,0.16826,0.99078
235.808,72.45575,-0.23327,0.1675,0.99046
236.508,72.6823,-0.23857,0.16943,0.99013
237.208,72.90954,-0.24071,0.16947,0.9898
237.908,73.136,-0.24658,0.16952,0.98947
238.608,73.36322,-0.24774,0.16844,0.98914
239.308,73.58938,-0.25299,0.17002,0.98881
240.008,73.816,-0.257,0.16742,0.98848
240.708,74.04326,-0.26143,0.16778,0.98815
241.408,74.27083,-0.26563,0.16838,0.98782
242.108,74.49825,-0.26962,0.16717,0.98749
242.808,74.72553,-0.27515,0.1688,0.98715
243.508,74.95311,-0.27949,0.16748,0.98682
244.208,75.1798,-0.28354,0.17002,0.98648
244.908,75.40547,-0.29025,0.16987,0.98615
245.608,75.63056,-0.29375,0.16906,0.98581
246.308,75.85851,-0.29965,0.16689,0.98548
247.008,76.08546,-0.30487,0.16727,0.98514
247.708,76.31228,-0.30922,0.16789,0.9848
248.408,76.53756,-0.31554,0.16791,0.98446
249.108,76.76496,-0.32276,0.17077,0.98412
249.808,76.99382,-0.32914,0.16948,0.98378
250.508,77.22126,-0.33352,0.16759,0.98344
251.208,77.44763,-0.33961,0.16654,0.98309
251.908,77.6742,-0.3464,0.16571,0.98275
252.608,77.90204,-0.35179,0.16552,0.98241
253.308,78.13027,-0.35798,0.16732,0.98206
254.008,78.35771,-0.36698,0.16714,0.98172
254.708,78.58514,-0.37404,0.16925,0.98137
255.408,78.81161,-0.37951,0.16648,0.98102
256.108,79.03665,-0.38695,0.16779,0.98068
256.808,79.26093,-0.39369,0.16597,0.98033
257.508,79.48573,-0.40074,0.16533,0.97998
258.208,79.71162,-0.40769,0.16632,0.97963
258.908,79.9385,-0.41685,0.16414,0.97928
259.608,80.16632,-0.42394,0.16538,0.97893
260.308,80.39426,-0.43211,0.16648,0.97858
261.008,80.62178,-0.43994,0.16223,0.97823
261.708,80.8483,-0.44839,0.1615,0.97787
262.408,81.07483,-0.45544,0.15888,0.97752
263.108,81.30173,-0.4654,0.15915,0.97716
263.808,81.52877,-0.47249,0.15672,0.97681
264.508,81.75669,-0.48248,0.15395,0.97645
265.208,81.98467,-0.48985,0.15153,0.97609
265.908,82.2135,-0.50078,0.14977,0.97574
266.608,82.44198,-0.51108,0.14563,0.97538
267.308,82.67084,-0.52055,0.14433,0.97502
268.008,82.89913,-0.5288,0.14156,0.97466
268.708,83.1266,-0.53923,0.14064,0.9743
269.408,83.35373,-0.54971,0.14052,0.97394
270.108,83.57958,-0.56019,0.13981,0.97358
270.808,83.8061,-0.57038,0.13856,0.97321
271.508,84.03099,-0.58051,0.13679,0.97285
272.208,84.25776,-0.59067,0.13953,0.97249
272.908,84.4839,-0.59991,0.13783,0.97212
273.608,84.7112,-0.61302,0.13485,0.97176
274.308,84.93731,-0.62529,0.13209,0.97139
275.008,85.164,-0.63634,0.13089,0.97102
275.708,85.39115,-0.64756,0.12925,0.97066
276.408,85.61843,-0.6578,0.13095,0.97029
277.108,85.8451,-0.67126,0.1277,0.96992
277.808,86.07088,-0.68211,0.1268,0.96955
278.508,86.29871,-0.69441,0.12678,0.96918
279.208,86.5273,-0.70622,0.12377,0.96881
279.908,86.75746,-0.71764,0.12266,0.96843
280.608,86.9861,-0.73347,0.12315,0.96806
281.308,87.214,-0.7457,0.12212,0.96769
282.008,87.44145,-0.75823,0.1239,0.96731
282.708,87.66826,-0.77128,0.12359,0.96694
283.408,87.89556,-0.78711,0.12568,0.96656
284.108,88.12265,-0.79974,0.12345,0.96619
284.808,88.34936,-0.81344,0.12321,0.96581
285.508,88.57683,-0.82736,0.12179,0.96543
286.208,88.804,-0.84127,0.12348,0.96506
286.908,89.02975,-0.85558,0.12248,0.96468
287.608,89.25619,-0.87062,0.12403,0.9643
288.308,89.48284,-0.88409,0.12776,0.96392
289.008,89.71174,-0.90008,0.12658,0.96354
289.708,89.93936,-0.91624,0.12612,0.96315
290.408,90.1674,-0.93176,0.12572,0.96277
291.108,90.39543,-0.94808,0.12549,0.96239
291.808,90.62289,-0.96198,0.12682,0.962
292.508,90.85021,-0.98133,0.12814,0.96162
293.208,91.07693,-0.99511,0.12954,0.96123
293.908,91.30416,-1.01287,0.1316,0.96085
294.608,91.5322,-1.0307,0.1277,0.96046
295.308,91.75997,-1.04671,0.12844,0.96007
296.008,91.98784,-1.06565,0.13093,0.95968
296.708,92.21531,-1.08344,0.13136,0.9593
297.408,92.44306,-1.1007,0.13143,0.95891
298.108,92.67129,-1.12035,0.1324,0.95852
298.808,92.89751,-1.13909,0.13307,0.95813
299.508,93.1244,-1.15707,0.13284,0.95773
300.208,93.35259,-1.17762,0.13674,0.95734
300.908,93.5821,-1.19686,0.13602,0.95695
301.608,93.81164,-1.21796,0.13617,0.95655
302.308,94.0398,-1.23799,0.13492,0.95616
303.008,94.2694,-1.25841,0.13283,0.95576
303.708,94.49839,-1.27973,0.13667,0.95537
304.408,94.727,-1.29988,0.13856,0.95497
305.108,94.95465,-1.32194,0.13896,0.95457
305.808,95.18195,-1.34428,0.13845,0.95418
306.508,95.4087,-1.36497,0.14061,0.95378
307.208,95.63481,-1.38947,0.13786,0.95338
307.908,95.8617,-1.41144,0.13989,0.95298
308.608,96.08841,-1.43273,0.14032,0.95258
309.308,96.3153,-1.4579,0.14189,0.95218
310.008,96.54222,-1.48066,0.13925,0.95177
310.708,96.7697,-1.5033,0.14035,0.95137
311.408,96.99726,-1.52631,0.14093,0.95097
312.108,97.22501,-1.55031,0.13776,0.95056
312.808,97.45355,-1.57511,0.13623,0.95016
313.508,97.6828,-1.60004,0.13489,0.94975
314.208,97.91208,-1.62341,0.13457,0.94935
314.908,98.1408,-1.64891,0.1373,0.94894
315.608,98.36978,-1.6751,0.13551,0.94853
316.308,98.59881,-1.70119,0.13673,0.94812
317.008,98.82814,-1.72484,0.13527,0.94772
317.708,99.0566,-1.75016,0.13503,0.94731
318.408,99.28485,-1.77406,0.13462,0.9469
319.108,99.5127,-1.79999,0.13231,0.94648
319.808,99.74095,-1.82593,0.1358,0.94607
320.508,99.96896,-1.85053,0.12951,0.94566
321.208,100.197,-1.87278,0.12945,0.94525
321.908,100.424,-1.89861,0.12577,0.94483
322.608,100.652,-1.92252,0.12695,0.94442
323.308,100.88,-1.94779,0.12425,0.944
324.008,101.108,-1.97217,0.12034,0.94359
324.708,101.3357,-1.99682,0.12003,0.94317
325.408,101.563,-2.01866,0.11944,0.94275
326.108,101.791,-2.04174,0.11616,0.94234
326.808,102.019,-2.06603,0.11507,0.94192
327.508,102.248,-2.08725,0.11071,0.9415
328.208,102.477,-2.10907,0.10716,0.94108
328.908,102.705,-2.13175,0.1079,0.94066
329.608,102.934,-2.15294,0.10384,0.94024
330.308,103.163,-2.17298,0.09939123,0.93982
331.008,103.392,-2.19376,0.09838231,0.93939
331.708,103.62,-2.21529,0.09499801,0.93897
332.408,103.8484,-2.23242,0.09160367,0.93855
333.108,104.0749,-2.24931,0.08906847,0.93812
333.808,104.303,-2.26981,0.0875363,0.9377
334.508,104.532,-2.2863,0.08443644,0.93727
335.208,104.762,-2.30241,0.08541957,0.93684
335.908,104.991,-2.31816,0.08091554,0.93642
336.608,105.219,-2.33315,0.07598652,0.93599
337.308,105.448,-2.3461,0.07356184,0.93556
338.008,105.675,-2.36041,0.07224144,0.93513
338.708,105.903,-2.37265,0.06968487,0.9347
339.408,106.132,-2.38816,0.06626921,0.93427
340.108,106.361,-2.39959,0.06451035,0.93384
340.808,106.59,-2.41082,0.06134477,0.93341
341.508,106.819,-2.42091,0.05842045,0.93297
342.208,107.049,-2.43184,0.05696628,0.93254
342.908,107.278,-2.43916,0.05745961,0.93211
343.608,107.506,-2.44976,0.05256542,0.93167
344.308,107.734,-2.45912,0.05247323,0.93124
345.008,107.963,-2.46978,0.05414074,0.9308
345.708,108.191,-2.47377,0.05050784,0.93036
346.408,108.42,-2.48172,0.04647741,0.92993
347.108,108.649,-2.48986,0.04631907,0.92949
347.808,108.878,-2.49669,0.04471281,0.92905
348.508,109.107,-2.50047,0.04140294,0.92861
349.208,109.336,-2.50729,0.04017963,0.92817
349.908,109.565,-2.51388,0.03767098,0.92773
350.608,109.794,-2.51853,0.03938633,0.92729
351.308,110.024,-2.52321,0.03812767,0.92685
352.008,110.253,-2.52782,0.03882423,0.92641
352.708,110.483,-2.53353,0.03851806,0.92596
353.408,110.711,-2.53748,0.03677784,0.92552
354.108,110.941,-2.54186,0.03352024,0.92508
354.808,111.17,-2.54553,0.03490576,0.92463
355.508,111.3993,-2.54845,0.03385987,0.92418
356.208,111.629,-2.55349,0.03439081,0.92374
356.908,111.859,-2.55508,0.02965708,0.92329
357.608,112.088,-2.55825,0.03491266,0.92284
358.308,112.318,-2.56237,0.03316328,0.92239
359.008,112.547,-2.56765,0.0322772,0.92195
359.708,112.777,-2.56899,0.02977855,0.9215
360.408,113.005,-2.57388,0.03204821,0.92105
361.108,113.2337,-2.57653,0.03070496,0.92059
361.808,113.462,-2.57819,0.03268135,0.92014
362.508,113.693,-2.58343,0.02889722,0.91969
363.208,113.923,-2.58585,0.03008716,0.91924
363.908,114.152,-2.58836,0.03123958,0.91878
364.608,114.382,-2.59111,0.03037672,0.91833
365.308,114.612,-2.59364,0.03156495,0.91788
366.008,114.842,-2.59693,0.02954998,0.91742
366.708,115.071,-2.59902,0.02640177,0.91696
367.408,115.301,-2.60409,0.02769141,0.91651
368.108,115.53,-2.60485,0.02885421,0.91605
368.808,115.76,-2.60793,0.02874887,0.91559
369.508,115.99,-2.61221,0.02834303,0.91513
370.208,116.219,-2.61523,0.02922509,0.91467
370.908,116.448,-2.61579,0.02774512,0.91421
371.608,116.678,-2.61711,0.02675036,0.91375
372.308,116.909,-2.62105,0.02771682,0.91329
373.008,117.14,-2.62303,0.02731405,0.91283
373.708,117.371,-2.62603,0.02819216,0.91237
374.408,117.601,-2.62831,0.02531952,0.91191
375.108,117.829,-2.62963,0.0264043,0.91144
375.808,118.057,-2.63342,0.02598011,0.91098
376.508,118.286,-2.6349,0.02782332,0.91051
377.208,118.517,-2.6393,0.02551144,0.91005
377.908,118.747,-2.63904,0.02556839,0.90958
378.608,118.978,-2.64432,0.02248907,0.90911
379.308,119.208,-2.64716,0.02277365,0.90865
380.008,119.438,-2.6492,0.02259712,0.90818
380.708,119.668,-2.65091,0.02355569,0.90771
381.408,119.897,-2.65346,0.02383025,0.90724
382.108,120.125,-2.65796,0.02224622,0.90677
382.808,120.352,-2.66204,0.0263807,0.9063
383.508,120.578,-2.66355,0.02674828,0.90583
384.208,120.809,-2.6678,0.02582654,0.90536
384.908,121.0399,-2.66735,0.02687432,0.90489
385.608,121.271,-2.67129,0.02560329,0.90441
386.308,121.5,-2.67525,0.02804238,0.90394
387.008,121.73,-2.68002,0.02627631,0.90346
387.708,121.959,-2.67766,0.02393076,0.90299
388.408,122.188,-2.6816,0.02200001,0.90251
389.108,122.415,-2.68717,0.02476474,0.90204
389.808,122.644,-2.68975,0.02226457,0.90156
390.508,122.873,-2.68956,0.02109893,0.90108
391.208,123.103,-2.69225,0.02129485,0.90061
391.908,123.332,-2.69619,0.02530255,0.90013
392.608,123.5621,-2.69787,0.02530794,0.89965
393.308,123.791,-2.69807,0.02435977,0.89917
394.008,124.02,-2.70027,0.02356072,0.89869
394.708,124.248,-2.70372,0.02539838,0.89821
395.408,124.477,-2.70438,0.0254956,0.89773
396.108,124.705,-2.70705,0.0264505,0.89724
396.808,124.933,-2.70969,0.026225,0.89676
397.508,125.161,-2.71002,0.02547512,0.89628
398.208,125.39,-2.71262,0.02407518,0.89579
398.908,125.618,-2.7166,0.02479304,0.89531
399.608,125.848,-2.71759,0.02532014,0.89482
400.308,126.076,-2.72052,0.02768167,0.89434
401.008,126.305,-2.72278,0.02638866,0.89385
401.708,126.5337,-2.72449,0.02520029,0.89336
402.408,126.763,-2.7258,0.02502075,0.89288
403.108,126.993,-2.72845,0.02727367,0.89239
403.808,127.224,-2.73107,0.02813226,0.8919
404.508,127.455,-2.73368,0.02759679,0.89141
405.208,127.686,-2.73767,0.03054225,0.89092
405.908,127.915,-2.73766,0.02898744,0.89043
406.608,128.145,-2.73992,0.03085439,0.88994
407.308,128.375,-2.74289,0.03052172,0.88945
408.008,128.6056,-2.74684,0.03048221,0.88895
408.708,128.836,-2.74789,0.03002486,0.88846
409.408,129.0671,-2.74957,0.03310976,0.88797
410.108,129.298,-2.75082,0.03426936,0.88747
410.808,129.528,-2.75608,0.03325976,0.88698
411.508,129.759,-2.75737,0.03103825,0.88648
412.208,129.991,-2.75895,0.03328289,0.88599
412.908,130.222,-2.76,0.03434952,0.88549
413.608,130.4536,-2.76146,0.0355287,0.88499
414.308,130.685,-2.76409,0.03598815,0.88449
415.008,130.916,-2.76642,0.03654947,0.884
415.708,131.148,-2.76739,0.0377369,0.8835
416.408,131.379,-2.77132,0.03584371,0.883
417.108,131.608,-2.77252,0.04058179,0.8825
417.808,131.838,-2.77463,0.03838109,0.882
418.508,132.068,-2.77725,0.03880064,0.8815
419.208,132.298,-2.77852,0.04158001,0.88099
419.908,132.528,-2.77923,0.03854749,0.88049
420.608,132.759,-2.78077,0.04136925,0.87999
421.308,132.99,-2.78521,0.04167233,0.87948
422.008,133.221,-2.78487,0.03855723,0.87898
422.708,133.453,-2.78759,0.04075176,0.87848
423.408,133.685,-2.78877,0.04491924,0.87797
424.108,133.916,-2.79151,0.04562759,0.87746
424.808,134.147,-2.79149,0.04539646,0.87696
425.508,134.378,-2.79348,0.04777596,0.87645
426.208,134.609,-2.7974,0.04968426,0.87594
426.908,134.84,-2.80003,0.04893796,0.87544
427.608,135.071,-2.79875,0.0505518,0.87493
428.308,135.3014,-2.79922,0.05060604,0.87442
429.008,135.532,-2.80139,0.05104793,0.87391
429.708,135.763,-2.80536,0.05098922,0.8734
430.408,135.994,-2.80798,0.05284081,0.87289
431.108,136.225,-2.8082,0.0495591,0.87237
431.808,136.456,-2.81009,0.05224928,0.87186
432.508,136.687,-2.8097,0.04995859,0.87135
433.208,136.918,-2.81103,0.04956136,0.87084
433.908,137.149,-2.81367,0.05016633,0.87032
434.608,137.3806,-2.81367,0.05045381,0.86981
435.308,137.612,-2.81892,0.0523531,0.86929
436.008,137.844,-2.81892,0.05164688,0.86878
436.708,138.0749,-2.82025,0.05076767,0.86826
437.408,138.306,-2.82205,0.0515285,0.86775
438.108,138.536,-2.82288,0.05110493,0.86723
438.808,138.767,-2.82551,0.05168971,0.86671
439.508,138.998,-2.82551,0.05336296,0.86619
440.208,139.23,-2.82581,0.05231049,0.86567
440.908,139.461,-2.82877,0.05453525,0.86515
441.608,139.692,-2.83013,0.05308774,0.86463
442.308,139.923,-2.83374,0.05461926,0.86411
443.008,140.155,-2.83462,0.05459037,0.86359
443.708,140.387,-2.83362,0.05303501,0.86307
444.408,140.617,-2.83846,0.05472734,0.86255
445.108,140.849,-2.83912,0.05323278,0.86203
445.808,141.082,-2.83714,0.05443862,0.8615
446.508,141.314,-2.83952,0.05422048,0.86098
447.208,141.545,-2.84142,0.05376032,0.86045
447.908,141.775,-2.84079,0.05366374,0.85993
448.608,142.006,-2.84392,0.05576794,0.8594
449.308,142.237,-2.84668,0.05728282,0.85888
450.008,142.467,-2.84578,0.05356214,0.85835
450.708,142.699,-2.84845,0.05773963,0.85782
451.408,142.9312,-2.85002,0.05971889,0.8573
452.108,143.164,-2.8499,0.06027105,0.85677
452.808,143.395,-2.85089,0.05912603,0.85624
453.508,143.626,-2.85214,0.05901867,0.85571
454.208,143.858,-2.85075,0.05959685,0.85518
454.908,144.09,-2.85513,0.05852778,0.85465
455.608,144.324,-2.85387,0.05827493,0.85412
456.308,144.556,-2.8589,0.05985295,0.85359
457.008,144.788,-2.85841,0.06209406,0.85306
457.708,145.02,-2.85874,0.06845685,0.85253
458.408,145.252,-2.85974,0.06551972,0.85199
459.108,145.485,-2.86063,0.06787492,0.85146
459.808,145.716,-2.86271,0.0682767,0.85092
460.508,145.949,-2.8627,0.07253448,0.85039
461.208,146.181,-2.86404,0.07297415,0.84986
461.908,146.4136,-2.86504,0.06896804,0.84932
462.608,146.645,-2.86566,0.07635856,0.84878
463.308,146.878,-2.86598,0.07269302,0.84825
464.008,147.111,-2.86862,0.07561824,0.84771
464.708,147.344,-2.86802,0.07294476,0.84717
465.408,147.576,-2.86845,0.07269495,0.84663
466.108,147.809,-2.87057,0.07315032,0.8461
466.808,148.04,-2.87193,0.07596752,0.84556
467.508,148.272,-2.87599,0.07545015,0.84502
468.208,148.504,-2.87454,0.07445665,0.84448
468.908,148.736,-2.87583,0.07518614,0.84394
469.608,148.967,-2.87513,0.07973933,0.84339
470.308,149.199,-2.87852,0.07838343,0.84285
471.008,149.432,-2.88113,0.07350334,0.84231
471.708,149.666,-2.88112,0.07665426,0.84177
472.408,149.899,-2.87751,0.07357508,0.84122
473.108,150.131,-2.88238,0.07407393,0.84068
473.808,150.364,-2.88385,0.07383222,0.84014
474.508,150.596,-2.88626,0.07470077,0.83959
475.208,150.828,-2.88393,0.07228827,0.83905
475.908,151.059,-2.88529,0.07326362,0.8385
476.608,151.2905,-2.88623,0.07451112,0.83795
477.308,151.523,-2.8884,0.07356448,0.83741
478.008,151.754,-2.88907,0.07522612,0.83686
478.708,151.984,-2.88777,0.07505106,0.83631
479.408,152.214,-2.89308,0.07524398,0.83576
480.108,152.445,-2.89303,0.07253026,0.83522
480.808,152.679,-2.89179,0.07148928,0.83467
481.508,152.912,-2.89378,0.0733384,0.83412
482.208,153.145,-2.89637,0.07456533,0.83357
482.908,153.377,-2.89717,0.07368566,0.83302
483.608,153.6102,-2.89704,0.07366211,0.83246
484.308,153.843,-2.89835,0.07345428,0.83191
485.008,154.076,-2.89864,0.07456637,0.83136
485.708,154.3083,-2.89873,0.07249353,0.83081
486.408,154.541,-2.89974,0.07365341,0.83025
487.108,154.774,-2.90142,0.07133528,0.8297
487.808,155.0057,-2.90142,0.06956757,0.82915
488.508,155.238,-2.90272,0.07264981,0.82859
489.208,155.471,-2.90419,0.0706692,0.82804
489.908,155.704,-2.90603,0.06923319,0.82748
490.608,155.937,-2.90674,0.06383431,0.82692
491.308,156.171,-2.90408,0.06429806,0.82637
492.008,156.404,-2.90797,0.06414863,0.82581
492.708,156.636,-2.90805,0.06201512,0.82525
493.408,156.869,-2.908,0.06277302,0.82469
494.108,157.101,-2.908,0.06639437,0.82414
494.808,157.333,-2.91029,0.06497382,0.82358
495.508,157.565,-2.90767,0.06522143,0.82302
496.208,157.798,-2.91162,0.06187891,0.82246
496.908,158.029,-2.91162,0.06415515,0.8219
497.608,158.261,-2.91568,0.06009726,0.82134
498.308,158.493,-2.91426,0.06238668,0.82077
499.008,158.726,-2.9119,0.06372161,0.82021
499.708,158.961,-2.91514,0.06317791,0.81965
500.408,159.196,-2.91645,0.06261014,0.81909
501.108,159.4299,-2.91776,0.06270918,0.81852
501.808,159.663,-2.91908,0.06223414,0.81796
502.508,159.895,-2.92105,0.06064208,0.8174
503.208,160.127,-2.91565,0.06255763,0.81683
503.908,160.3595,-2.91975,0.0629917,0.81627
504.608,160.595,-2.92323,0.06175169,0.8157
505.308,160.832,-2.92332,0.0583957,0.81514
506.008,161.067,-2.92337,0.06271778,0.81457
506.708,161.3,-2.92138,0.06095337,0.814
507.408,161.533,-2.92467,0.05995943,0.81343
508.108,161.7661,-2.92665,0.06216055,0.81287
508.808,161.998,-2.92731,0.05657712,0.8123
509.508,162.231,-2.93003,0.05525382,0.81173
510.208,162.462,-2.92837,0.05727596,0.81116
510.908,162.692,-2.92861,0.05410567,0.81059
511.608,162.924,-2.92994,0.05055404,0.81002
512.308,163.156,-2.93158,0.05204304,0.80945
513.008,163.389,-2.9302,0.04664682,0.80888
513.708,163.624,-2.93252,0.04572021,0.80831
514.408,163.8586,-2.93522,0.04411194,0.80774
515.108,164.0927,-2.93388,0.04440195,0.80716
515.808,164.326,-2.93506,0.0419828,0.80659
516.508,164.56,-2.93586,0.04113887,0.80602
517.208,164.793,-2.93618,0.041409,0.80544
517.908,165.0266,-2.93621,0.03890407,0.80487
518.608,165.26,-2.93656,0.04037059,0.80429
519.308,165.493,-2.93737,0.04250973,0.80372
520.008,165.726,-2.93883,0.04074456,0.80314
520.708,165.958,-2.93751,0.03880927,0.80257
521.408,166.192,-2.94216,0.03964185,0.80199
522.108,166.426,-2.9405,0.04074848,0.80142
522.808,166.662,-2.94425,0.03746637,0.80084
523.508,166.897,-2.94279,0.03960741,0.80026
524.208,167.135,-2.94476,0.03713711,0.79968
524.908,167.373,-2.94376,0.0348673,0.7991
525.608,167.612,-2.94479,0.03437089,0.79852
526.308,167.85,-2.94477,0.03709314,0.79795
527.008,168.088,-2.94737,0.03587484,0.79737
527.708,168.324,-2.94895,0.03884256,0.79679
528.408,168.559,-2.94739,0.03481165,0.7962
529.108,168.792,-2.94715,0.03770668,0.79562
529.808,169.025,-2.94957,0.03746298,0.79504
530.508,169.257,-2.94822,0.03579766,0.79446
531.208,169.489,-2.94675,0.03793199,0.79388
531.908,169.722,-2.94825,0.03622115,0.7933
532.608,169.955,-2.94973,0.03936467,0.79271
533.308,170.189,-2.94958,0.03742459,0.79213
534.008,170.4223,-2.94904,0.03794977,0.79154
534.708,170.656,-2.95222,0.03695477,0.79096
535.408,170.888,-2.94978,0.03595372,0.79038
536.108,171.122,-2.9499,0.03846795,0.78979
536.808,171.357,-2.95708,0.03910994,0.7892
537.508,171.592,-2.95439,0.04307776,0.78862
538.208,171.826,-2.95567,0.04285047,0.78803
538.908,172.06,-2.95308,0.04187665,0.78745
539.608,172.294,-2.9571,0.04111829,0.78686
540.308,172.528,-2.95536,0.03983198,0.78627
541.008,172.763,-2.9569,0.03902129,0.78568
541.708,172.998,-2.95732,0.03978573,0.78509
542.408,173.2333,-2.95999,0.0392465,0.7845
543.108,173.4671,-2.95663,0.04128894,0.78392
543.808,173.7,-2.95731,0.04056567,0.78333
544.508,173.933,-2.95966,0.0426913,0.78274
545.208,174.167,-2.96225,0.04437422,0.78215
545.908,174.4,-2.95933,0.04170148,0.78155
546.608,174.633,-2.96164,0.04172291,0.78096
547.308,174.8643,-2.96356,0.04298895,0.78037
548.008,175.095,-2.95988,0.0422919,0.77978
548.708,175.326,-2.95961,0.04332805,0.77919
549.408,175.56,-2.9635,0.04225988,0.77859
550.108,175.794,-2.96232,0.04234167,0.778
550.808,176.029,-2.96229,0.04367039,0.77741
551.508,176.262,-2.9646,0.04177207,0.77681
552.208,176.498,-2.96489,0.04097129,0.77622
552.908,176.733,-2.96229,0.0384394,0.77562
553.608,176.969,-2.96907,0.03943616,0.77503
554.308,177.204,-2.96684,0.04176601,0.77443
555.008,177.44,-2.96548,0.03634888,0.77384
555.708,177.6763,-2.96825,0.03716097,0.77324
556.408,177.913,-2.96589,0.0388921,0.77265
557.108,178.148,-2.96943,0.03640907,0.77205
557.808,178.3819,-2.96913,0.037216,0.77145
558.508,178.615,-2.97166,0.0384367,0.77085
559.208,178.846,-2.9709,0.03624398,0.77025
559.908,179.079,-2.97041,0.03880688,0.76966
560.608,179.312,-2.97056,0.03705664,0.76906
561.308,179.547,-2.96865,0.04328219,0.76846
562.008,179.781,-2.97178,0.04216474,0.76786
562.708,180.016,-2.97162,0.04180547,0.76726
563.408,180.25,-2.97026,0.03942148,0.76666
564.108,180.484,-2.97294,0.04097245,0.76606
564.808,180.718,-2.97791,0.0398445,0.76546
565.508,180.953,-2.97469,0.04117586,0.76486
566.208,181.188,-2.97324,0.04103139,0.76425
566.908,181.423,-2.973,0.04498229,0.76365
567.608,181.657,-2.97637,0.04614125,0.76305
568.308,181.892,-2.97726,0.04148214,0.76245
569.008,182.127,-2.97722,0.04473929,0.76184
569.708,182.363,-2.9785,0.04421185,0.76124
570.408,182.6,-2.97788,0.0456162,0.76064
571.108,182.838,-2.97869,0.04610891,0.76003
571.808,183.074,-2.98149,0.04546116,0.75943
572.508,183.308,-2.98286,0.04559025,0.75882
573.208,183.541,-2.97829,0.04335207,0.75822
573.908,183.776,-2.97994,0.04803068,0.75761
574.608,184.01,-2.98188,0.04655143,0.757
575.308,184.243,-2.98144,0.04622493,0.7564
576.008,184.474,-2.98252,0.0473808,0.75579
576.708,184.707,-2.98106,0.0475545,0.75518
577.408,184.941,-2.98181,0.04740002,0.75458
578.108,185.175,-2.98521,0.04838934,0.75397
578.808,185.409,-2.9851,0.05170582,0.75336
579.508,185.642,-2.98478,0.04987702,0.75275
580.208,185.877,-2.98243,0.04742566,0.75214
580.908,186.112,-2.98786,0.04913674,0.75153
581.608,186.347,-2.98547,0.05074994,0.75093
582.308,186.583,-2.98577,0.05312237,0.75032
583.008,186.818,-2.9852,0.05108513,0.74971
583.708,187.0533,-2.98644,0.05165323,0.74909
584.408,187.288,-2.98871,0.05257636,0.74848
585.108,187.5224,-2.99199,0.05597597,0.74787
585.808,187.757,-2.98913,0.05432466,0.74726
586.508,187.99,-2.99309,0.05241003,0.74665
587.208,188.224,-2.99023,0.05543217,0.74604
587.908,188.4585,-2.99037,0.05512425,0.74543
588.608,188.693,-2.99168,0.05701649,0.74481
589.308,188.928,-2.99169,0.05629289,0.7442
590.008,189.162,-2.99267,0.05523017,0.74359
590.708,189.396,-2.9916,0.05987337,0.74297
591.408,189.632,-2.99224,0.06167441,0.74236
592.108,189.868,-2.9949,0.05961934,0.74174
592.808,190.103,-2.9962,0.06352927,0.74113
593.508,190.339,-2.99486,0.05793813,0.74052
594.208,190.575,-2.99781,0.06056966,0.7399
594.908,190.811,-2.9963,0.06051456,0.73928
595.608,191.045,-2.99762,0.06355012,0.73867
596.308,191.28,-2.997,0.06449586,0.73805
597.008,191.514,-2.99776,0.06351114,0.73744
597.708,191.748,-2.99786,0.06049086,0.73682
598.408,191.983,-2.99783,0.06222746,0.7362
599.108,192.218,-2.99816,0.06614982,0.73558
599.808,192.452,-2.99676,0.06826935,0.73497
600.508,192.686,-3.00077,0.06844058,0.73435
601.208,192.92,-2.99827,0.06985893,0.73373
601.908,193.155,-3.00222,0.06710925,0.73311
602.608,193.3907,-2.99813,0.06496903,0.73249
603.308,193.627,-2.99863,0.06872883,0.73187
604.008,193.863,-2.9986,0.07151888,0.73125
604.708,194.098,-2.998,0.0677561,0.73063
605.408,194.333,-2.99597,0.07122991,0.73001
606.108,194.568,-3.00643,0.07309396,0.72939
606.808,194.8038,-3.00101,0.06968709,0.72877
607.508,195.039,-3.0034,0.0687458,0.72815
608.208,195.274,-3.00333,0.06828773,0.72753
608.908,195.509,-3.00341,0.07158242,0.72691
609.608,195.743,-3.00332,0.07237213,0.72629
610.308,195.978,-3.00215,0.07654825,0.72567
611.008,196.212,-3.0039,0.07744611,0.72504
611.708,196.4448,-3.00464,0.0746638,0.72442
612.408,196.679,-3.00757,0.07388021,0.7238
613.108,196.914,-3.00681,0.07448026,0.72318
613.808,197.151,-3.00864,0.07394225,0.72255
614.508,197.388,-3.00225,0.07648268,0.72193
615.208,197.623,-3.00806,0.07465894,0.7213
615.908,197.858,-3.00884,0.0814509,0.72068
616.608,198.092,-3.0091,0.07809069,0.72006
617.308,198.327,-3.00755,0.07659253,0.71943
618.008,198.562,-3.0075,0.08002074,0.71881
618.708,198.797,-3.0072,0.08234381,0.71818
619.408,199.033,-3.01144,0.08622413,0.71755
620.108,199.269,-3.00749,0.08470259,0.71693
620.808,199.504,-3.01143,0.08798154,0.7163
621.508,199.74,-3.01029,0.08820135,0.71568
622.208,199.975,-3.00607,0.08632142,0.71505
622.908,200.209,-3.01021,0.08822895,0.71442
623.608,200.444,-3.0106,0.09033261,0.7138
624.308,200.679,-3.01558,0.09059141,0.71317
625.008,200.915,-3.01303,0.08913808,0.71254
625.708,201.151,-3.0146,0.09192945,0.71191
626.408,201.386,-3.01077,0.09072779,0.71128
627.108,201.622,-3.0112,0.09220216,0.71066
627.808,201.857,-3.01432,0.09379023,0.71003
628.508,202.092,-3.01566,0.09472051,0.7094
629.208,202.327,-3.01562,0.09393287,0.70877
629.908,202.562,-3.00999,0.09188768,0.70814
630.608,202.797,-3.0177,0.09636422,0.70751
631.308,203.033,-3.02394,0.10021,0.70688
632.008,203.269,-3.01498,0.09647795,0.70625
632.708,203.5043,-3.01609,0.09491089,0.70562
633.408,203.738,-3.0194,0.09338062,0.70499
634.108,203.972,-3.01587,0.09723141,0.70436
634.808,204.205,-3.02211,0.09684596,0.70373
635.508,204.439,-3.02219,0.0952626,0.7031
636.208,204.674,-3.02031,0.09732656,0.70246
636.908,204.91,-3.02172,0.09578454,0.70183
637.608,205.146,-3.02041,0.09723306,0.7012
638.308,205.38,-3.01986,0.09786228,0.70057
639.008,205.615,-3.02198,0.09997024,0.69994
639.708,205.852,-3.01997,0.09898376,0.6993
640.408,206.091,-3.02493,0.10067,0.69867
641.108,206.33,-3.02361,0.10333,0.69804
641.808,206.567,-3.01868,0.10276,0.6974
642.508,206.803,-3.01829,0.09981731,0.69677
643.208,207.037,-3.02253,0.09740473,0.69614
643.908,207.273,-3.02338,0.09545161,0.6955
644.608,207.508,-3.02339,0.09864267,0.69487
645.308,207.742,-3.02081,0.09934501,0.69423
646.008,207.976,-3.02355,0.09533537,0.6936
646.708,208.211,-3.02122,0.09868561,0.69296
647.408,208.447,-3.02514,0.10117,0.69233
648.108,208.682,-3.01935,0.101,0.69169
648.808,208.918,-3.02482,0.10326,0.69106
649.508,209.154,-3.02467,0.09448632,0.69042
650.208,209.391,-3.02154,0.09481393,0.68978
650.908,209.626,-3.02405,0.09819337,0.68915
651.608,209.862,-3.02449,0.09729907,0.68851
652.308,210.098,-3.02274,0.09698376,0.68788
653.008,210.334,-3.02434,0.09824503,0.68724
653.708,210.5693,-3.03038,0.09981485,0.6866
654.408,210.804,-3.02296,0.09788618,0.68596
655.108,211.039,-3.02447,0.09772407,0.68533
655.808,211.274,-3.02822,0.09632954,0.68469
656.508,211.51,-3.02624,0.09993219,0.68405
657.208,211.746,-3.02624,0.10067,0.68341
657.908,211.982,-3.02788,0.09560354,0.68278
658.608,212.218,-3.02922,0.09928822,0.68214
659.308,212.454,-3.03357,0.09775341,0.6815
660.008,212.689,-3.02884,0.098363,0.68086
660.708,212.924,-3.02867,0.10091,0.68022
661.408,213.158,-3.02866,0.09923641,0.67958
662.108,213.394,-3.0321,0.1004,0.67894
662.808,213.631,-3.02854,0.09894452,0.6783
663.508,213.869,-3.02671,0.09900458,0.67766
664.208,214.104,-3.02893,0.09464886,0.67702
664.908,214.338,-3.02551,0.09676391,0.67638
665.608,214.572,-3.0292,0.09950682,0.67574
666.308,214.805,-3.0292,0.09800039,0.6751
667.008,215.039,-3.02773,0.10225,0.67446
667.708,215.273,-3.0321,0.10339,0.67382
668.408,215.5086,-3.03361,0.10232,0.67318
669.108,215.7448,-3.02767,0.10313,0.67254
669.808,215.982,-3.02702,0.10435,0.6719
670.508,216.217,-3.02797,0.10459,0.67126
671.208,216.453,-3.03235,0.10646,0.67061
671.908,216.689,-3.03251,0.10841,0.66997
672.608,216.925,-3.0313,0.10872,0.66933
673.308,217.161,-3.0313,0.11145,0.66869
674.008,217.398,-3.03128,0.10774,0.66805
674.708,217.637,-3.03719,0.11203,0.6674
675.408,217.8748,-3.02776,0.10618,0.66676
676.108,218.112,-3.03414,0.10754,0.66612
676.808,218.348,-3.03319,0.11194,0.66547
677.508,218.584,-3.03523,0.11395,0.66483
678.208,218.819,-3.03209,0.11032,0.66419
678.908,219.052,-3.03008,0.11195,0.66354
679.608,219.287,-3.03692,0.11692,0.6629
680.308,219.5227,-3.03436,0.11709,0.66226
681.008,219.759,-3.0332,0.11686,0.66161
681.708,219.995,-3.03697,0.11924,0.66097
682.408,220.231,-3.03806,0.11326,0.66032
683.108,220.468,-3.03523,0.1132,0.65968
683.808,220.705,-3.0381,0.11463,0.65904
684.508,220.941,-3.03605,0.11526,0.65839
685.208,221.176,-3.04115,0.11973,0.65775
685.908,221.41,-3.03637,0.12114,0.6571
686.608,221.645,-3.03765,0.12148,0.65646
687.308,221.881,-3.03961,0.1243,0.65581
688.008,222.116,-3.03854,0.12363,0.65517
688.708,222.352,-3.03919,0.12404,0.65452
689.408,222.588,-3.03567,0.12263,0.65387
690.108,222.822,-3.03748,0.1246,0.65323
690.808,223.059,-3.03616,0.12552,0.65258
691.508,223.296,-3.03641,0.12591,0.65194
692.208,223.533,-3.03644,0.1258,0.65129
692.908,223.769,-3.03908,0.12619,0.65064
693.608,224.005,-3.0407,0.12413,0.65
694.308,224.2407,-3.03448,0.12173,0.64935
695.008,224.476,-3.03677,0.1237,0.64871
695.708,224.711,-3.03408,0.12815,0.64806
696.408,224.947,-3.04187,0.13019,0.64741
697.108,225.183,-3.04284,0.12486,0.64676
697.808,225.42,-3.03897,0.12694,0.64612
698.508,225.656,-3.03555,0.12301,0.64547
699.208,225.892,-3.04246,0.12525,0.64482
699.908,226.129,-3.04367,0.12946,0.64418
700.608,226.365,-3.03732,0.12383,0.64353
701.308,226.602,-3.04125,0.13027,0.64288
702.008,226.839,-3.04128,0.12809,0.64223
702.708,227.077,-3.0407,0.12633,0.64158
703.408,227.3153,-3.03928,0.12367,0.64094
704.108,227.553,-3.04074,0.12946,0.64029
704.808,227.789,-3.04324,0.12684,0.63964
705.508,228.025,-3.04068,0.12511,0.63899
706.208,228.261,-3.04362,0.12804,0.63834
706.908,228.498,-3.0416,0.12757,0.63769
707.608,228.7349,-3.0393,0.12677,0.63705
708.308,228.972,-3.04598,0.12602,0.6364
709.008,229.209,-3.04586,0.1248,0.63575
709.708,229.446,-3.04179,0.12426,0.6351
710.408,229.683,-3.04525,0.12503,0.63445
711.108,229.921,-3.04306,0.12188,0.6338
711.808,230.1588,-3.04325,0.12155,0.63315
712.508,230.397,-3.04056,0.1234,0.6325
713.208,230.634,-3.04592,0.12341,0.63185
713.908,230.87,-3.04203,0.12347,0.6312
714.608,231.104,-3.04606,0.12539,0.63055
715.308,231.338,-3.04656,0.12444,0.6299
716.008,231.572,-3.04592,0.1247,0.62926
716.708,231.8074,-3.04434,0.12305,0.62861
717.408,232.043,-3.04288,0.12331,0.62796
718.108,232.28,-3.04422,0.11829,0.62731
718.808,232.517,-3.0456,0.12522,0.62666
719.508,232.753,-3.04773,0.12392,0.62601
720.208,232.99,-3.04491,0.1251,0.62535
720.908,233.228,-3.04774,0.12301,0.6247
721.608,233.466,-3.04555,0.12504,0.62405
722.308,233.703,-3.04685,0.12103,0.6234
723.008,233.939,-3.04934,0.12936,0.62275
723.708,234.176,-3.04145,0.12722,0.6221
724.408,234.413,-3.04575,0.12544,0.62145
725.108,234.65,-3.04949,0.12575,0.6208
725.808,234.886,-3.0456,0.12378,0.62015
726.508,235.121,-3.0435,0.1248,0.6195
727.208,235.357,-3.04951,0.11986,0.61885
727.908,235.594,-3.04685,0.12387,0.6182
728.608,235.831,-3.04818,0.12087,0.61755
729.308,236.071,-3.0481,0.11806,0.6169
730.008,236.31,-3.04653,0.11799,0.61624
730.708,236.55,-3.04994,0.11747,0.61559
731.408,236.787,-3.0519,0.11437,0.61494
732.108,237.022,-3.05203,0.11632,0.61429
732.808,237.257,-3.04666,0.11554,0.61364
733.508,237.493,-3.04931,0.11386,0.61299
734.208,237.728,-3.05185,0.11579,0.61234
734.908,237.964,-3.04946,0.1143,0.61169
735.608,238.199,-3.0508,0.11651,0.61103
736.308,238.435,-3.04973,0.11587,0.61038
737.008,238.672,-3.04983,0.11792,0.60973
737.708,238.9084,-3.05355,0.11646,0.60908
738.408,239.146,-3.05015,0.11221,0.60843
739.108,239.382,-3.05254,0.11332,0.60778
739.808,239.619,-3.05074,0.1141,0.60712
740.508,239.857,-3.05153,0.11058,0.60647
741.208,240.095,-3.05222,0.10786,0.60582
741.908,240.333,-3.05224,0.10851,0.60517
742.608,240.571,-3.04812,0.10486,0.60452
743.308,240.808,-3.05384,0.1063,0.60386
744.008,241.044,-3.05309,0.10279,0.60321
744.708,241.281,-3.05347,0.105,0.60256
745.408,241.517,-3.05019,0.10464,0.60191
746.108,241.756,-3.04944,0.10295,0.60126
746.808,241.993,-3.05079,0.09910187,0.6006
747.508,242.23,-3.05431,0.09873284,0.59995
748.208,242.466,-3.05268,0.10102,0.5993
748.908,242.702,-3.05564,0.09776389,0.59865
749.608,242.939,-3.05532,0.09886169,0.59799
750.308,243.176,-3.0553,0.09457605,0.59734
751.008,243.413,-3.05433,0.09531974,0.59669
751.708,243.65,-3.05301,0.09360633,0.59604
752.408,243.887,-3.05699,0.09763429,0.59539
753.108,244.123,-3.05946,0.09852102,0.59473
753.808,244.358,-3.05257,0.09486481,0.59408
754.508,244.594,-3.05685,0.09656618,0.59343
755.208,244.831,-3.0567,0.095119,0.59278
755.908,245.068,-3.05663,0.097774,0.59212
756.608,245.307,-3.0565,0.09974937,0.59147
757.308,245.547,-3.05761,0.09517573,0.59082
758.008,245.785,-3.05923,0.09456151,0.59017
758.708,246.022,-3.05926,0.0948711,0.58951
759.408,246.258,-3.05794,0.09787339,0.58886
760.108,246.493,-3.05662,0.09906099,0.58821
760.808,246.7292,-3.06105,0.09638625,0.58756
761.508,246.9669,-3.05791,0.09512162,0.58691
762.208,247.206,-3.06038,0.0986149,0.58625
762.908,247.445,-3.05917,0.09634252,0.5856
763.608,247.683,-3.06021,0.09563601,0.58495
764.308,247.921,-3.06201,0.09442353,0.5843
765.008,248.158,-3.05935,0.09181852,0.58364
765.708,248.396,-3.06313,0.09366153,0.58299
766.408,248.633,-3.0609,0.08704853,0.58234
767.108,248.869,-3.05917,0.09028187,0.58169
767.808,249.105,-3.06054,0.08974197,0.58103
768.508,249.339,-3.06222,0.09415664,0.58038
769.208,249.575,-3.06024,0.09042357,0.57973
769.908,249.811,-3.06154,0.09519314,0.57908
770.608,250.0486,-3.06419,0.09255011,0.57843
771.308,250.286,-3.06156,0.090553,0.57777
772.008,250.523,-3.0603,0.08875327,0.57712
772.708,250.76,-3.06189,0.08798986,0.57647
773.408,250.997,-3.06189,0.08565369,0.57582
774.108,251.233,-3.06189,0.0821522,0.57517
774.808,251.4693,-3.0624,0.0787803,0.57451
775.508,251.707,-3.05682,0.08229974,0.57386
776.208,251.944,-3.06429,0.08014929,0.57321
776.908,252.182,-3.06913,0.08220392,0.57256
777.608,252.419,-3.06583,0.07950587,0.57191
778.308,252.657,-3.06716,0.07597068,0.57125
779.008,252.894,-3.05991,0.06977847,0.5706
779.708,253.13,-3.05762,0.07089897,0.56995
780.408,253.368,-3.07205,0.07510597,0.5693
781.108,253.606,-3.07613,0.07409695,0.56865
781.808,253.842,-3.06872,0.07466341,0.56799
782.508,254.078,-3.06707,0.07450523,0.56734
783.208,254.312,-3.06683,0.07582298,0.56669
783.908,254.547,-3.06851,0.07434102,0.56604
784.608,254.7842,-3.06619,0.07674843,0.56539
785.308,255.022,-3.06954,0.07374604,0.56474
786.008,255.26,-3.06609,0.07011292,0.56409
786.708,255.4979,-3.06837,0.07549279,0.56343
787.408,255.736,-3.06848,0.07134477,0.56278
788.108,255.975,-3.06568,0.07275571,0.56213
788.808,256.213,-3.06574,0.06708572,0.56148
789.508,256.451,-3.06975,0.06590173,0.56083
790.208,256.689,-3.0687,0.06660591,0.56018
790.908,256.925,-3.06844,0.06807677,0.55953
791.608,257.16,-3.06835,0.06820367,0.55888
792.308,257.396,-3.0669,0.06578513,0.55822
793.008,257.6335,-3.06732,0.06555646,0.55757
793.708,257.873,-3.0723,0.06633692,0.55692
794.408,258.11,-3.06673,0.0625996,0.55627
795.108,258.346,-3.07127,0.06022854,0.55562
795.808,258.581,-3.07011,0.05773069,0.55497
796.508,258.8174,-3.06824,0.04970272,0.55432
797.208,259.054,-3.07026,0.05089984,0.55367
797.908,259.29,-3.06896,0.04897007,0.55302
798.608,259.527,-3.07023,0.05003136,0.55237
799.308,259.765,-3.07297,0.05142983,0.55172
799.908,259.97,-3.07493,0.0473835,0.55116