File: 01_Data/Luan_Panel/FTIR/IS/Luan_Panel_IS_S_220914_R6.dpt
7497.02,0.84545
7491.24,0.85830
7485.45,0.83985
7479.66,0.84347
7473.88,0.84356
7468.09,0.84308
7462.3,0.83737
7456.52,0.83429
7450.73,0.83040
7444.95,0.82444
7439.16,0.83376
7433.37,0.82788
7427.59,0.82396
7421.8,0.82265
7416.01,0.81798
7410.23,0.82155
7404.44,0.81724
7398.66,0.81193
7392.87,0.81323
7387.08,0.81314
7381.3,0.80365
7375.51,0.81246
7369.73,0.81455
7363.94,0.80347
7358.15,0.80843
7352.37,0.80947
7346.58,0.80168
7340.79,0.80486
7335.01,0.79275
7329.22,0.79717
7323.44,0.79167
7317.65,0.78493
7311.86,0.79597
7306.08,0.79276
7300.29,0.79909
7294.5,0.78965
7288.72,0.78860
7282.93,0.79140
7277.15,0.79161
7271.36,0.78713
7265.57,0.78642
7259.79,0.79984
7254,0.78925
7248.21,0.78412
7242.43,0.77840
7236.64,0.78566
7230.86,0.78222
7225.07,0.78804
7219.28,0.78235
7213.5,0.77624
7207.71,0.78206
7201.92,0.77923
7196.14,0.77483
7190.35,0.77481
7184.57,0.78224
7178.78,0.77957
7172.99,0.76716
7167.21,0.76613
7161.42,0.76978
7155.63,0.76959
7149.85,0.75964
7144.06,0.76288
7138.28,0.76059
7132.49,0.75755
7126.7,0.75833
7120.92,0.75439
7115.13,0.74168
7109.34,0.73889
7103.56,0.73532
7097.77,0.73821
7091.99,0.73370
7086.2,0.72380
7080.41,0.71803
7074.63,0.71567
7068.84,0.71589
7063.06,0.71505
7057.27,0.70301
7051.48,0.70536
7045.7,0.69911
7039.91,0.69140
7034.12,0.68636
7028.34,0.68240
7022.55,0.68173
7016.77,0.67834
7010.98,0.67376
7005.19,0.67293
6999.41,0.67360
6993.62,0.67064
6987.83,0.66904
6982.05,0.66760
6976.26,0.65864
6970.48,0.65943
6964.69,0.65639
6958.9,0.65599
6953.12,0.65093
6947.33,0.64615
6941.54,0.65552
6935.76,0.64349
6929.97,0.65004
6924.19,0.64767
6918.4,0.64817
6912.61,0.65056
6906.83,0.64115
6901.04,0.64285
6895.25,0.64350
6889.47,0.63960
6883.68,0.64666
6877.9,0.64056
6872.11,0.64487
6866.32,0.64486
6860.54,0.64534
6854.75,0.63872
6848.96,0.63645
6843.18,0.63753
6837.39,0.64406
6831.61,0.64257
6825.82,0.63870
6820.03,0.63875
6814.25,0.63638
6808.46,0.63334
6802.67,0.63433
6796.89,0.63504
6791.1,0.64145
6785.32,0.63627
6779.53,0.63256
6773.74,0.63029
6767.96,0.62748
6762.17,0.63061
6756.38,0.63198
6750.6,0.62469
6744.81,0.62794
6739.03,0.63070
6733.24,0.62565
6727.45,0.62395
6721.67,0.63047
6715.88,0.62634
6710.1,0.62196
6704.31,0.62513
6698.52,0.62864
6692.74,0.62680
6686.95,0.62489
6681.16,0.62853
6675.38,0.62807
6669.59,0.62625
6663.81,0.63091
6658.02,0.62764
6652.23,0.62828
6646.45,0.62945
6640.66,0.63140
6634.87,0.63286
6629.09,0.62946
6623.3,0.63201
6617.52,0.63541
6611.73,0.63692
6605.94,0.64106
6600.16,0.63750
6594.37,0.63761
6588.58,0.64264
6582.8,0.64441
6577.01,0.64304
6571.23,0.64535
6565.44,0.64787
6559.65,0.65083
6553.87,0.65227
6548.08,0.64377
6542.29,0.64747
6536.51,0.64988
6530.72,0.65554
6524.94,0.65019
6519.15,0.65660
6513.36,0.65491
6507.58,0.65260
6501.79,0.65541
6496,0.65642
6490.22,0.65677
6484.43,0.65364
6478.65,0.65932
6472.86,0.65222
6467.07,0.65580
6461.29,0.65548
6455.5,0.65478
6449.71,0.66192
6443.93,0.66198
6438.14,0.65697
6432.36,0.65938
6426.57,0.65936
6420.78,0.65875
6415,0.66398
6409.21,0.65957
6403.43,0.66568
6397.64,0.66259
6391.85,0.66477
6386.07,0.66338
6380.28,0.66505
6374.49,0.66466
6368.71,0.66710
6362.92,0.66417
6357.14,0.66545
6351.35,0.66559
6345.56,0.66825
6339.78,0.66785
6333.99,0.66670
6328.2,0.67094
6322.42,0.67309
6316.63,0.67093
6310.85,0.67400
6305.06,0.67352
6299.27,0.67220
6293.49,0.67556
6287.7,0.67275
6281.91,0.67899
6276.13,0.67589
6270.34,0.67967
6264.56,0.67788
6258.77,0.67977
6252.98,0.68243
6247.2,0.68447
6241.41,0.68161
6235.62,0.68621
6229.84,0.68820
6224.05,0.68994
6218.27,0.69269
6212.48,0.69481
6206.69,0.69376
6200.91,0.69538
6195.12,0.69850
6189.33,0.69856
6183.55,0.70304
6177.76,0.70002
6171.98,0.69972
6166.19,0.70649
6160.4,0.70823
6154.62,0.70847
6148.83,0.70882
6143.04,0.70860
6137.26,0.70797
6131.47,0.70751
6125.69,0.70917
6119.9,0.71075
6114.11,0.71068
6108.33,0.71182
6102.54,0.71491
6096.76,0.71301
6090.97,0.71032
6085.18,0.70871
6079.4,0.70831
6073.61,0.71157
6067.82,0.70833
6062.04,0.70689
6056.25,0.70737
6050.47,0.70266
6044.68,0.70640
6038.89,0.70138
6033.11,0.70204
6027.32,0.69977
6021.53,0.69995
6015.75,0.69903
6009.96,0.69621
6004.18,0.69672
5998.39,0.69603
5992.6,0.69403
5986.82,0.69073
5981.03,0.69313
5975.24,0.69196
5969.46,0.68885
5963.67,0.69201
5957.89,0.69054
5952.1,0.69128
5946.31,0.68976
5940.53,0.69026
5934.74,0.68861
5928.95,0.69142
5923.17,0.68873
5917.38,0.68866
5911.6,0.68845
5905.81,0.68813
5900.02,0.68453
5894.24,0.68456
5888.45,0.68544
5882.66,0.68254
5876.88,0.68069
5871.09,0.68153
5865.31,0.68112
5859.52,0.68228
5853.73,0.67983
5847.95,0.68178
5842.16,0.68026
5836.37,0.68175
5830.59,0.68237
5824.8,0.67994
5819.02,0.67654
5813.23,0.67745
5807.44,0.67721
5801.66,0.67479
5795.87,0.67281
5790.08,0.67459
5784.3,0.67431
5778.51,0.67693
5772.73,0.67637
5766.94,0.67902
5761.15,0.67906
5755.37,0.68035
5749.58,0.68148
5743.8,0.67977
5738.01,0.68130
5732.22,0.68095
5726.44,0.68097
5720.65,0.67975
5714.86,0.68342
5709.08,0.68444
5703.29,0.68117
5697.51,0.68167
5691.72,0.68141
5685.93,0.68152
5680.15,0.68135
5674.36,0.68084
5668.57,0.68068
5662.79,0.68171
5657,0.68193
5651.22,0.68252
5645.43,0.68231
5639.64,0.68157
5633.86,0.68167
5628.07,0.68269
5622.28,0.68291
5616.5,0.68422
5610.71,0.68328
5604.93,0.68145
5599.14,0.68128
5593.35,0.68315
5587.57,0.68204
5581.78,0.68332
5575.99,0.68437
5570.21,0.68327
5564.42,0.68499
5558.64,0.68530
5552.85,0.68694
5547.06,0.68743
5541.28,0.68748
5535.49,0.68864
5529.7,0.68773
5523.92,0.69053
5518.13,0.68730
5512.35,0.68824
5506.56,0.68938
5500.77,0.68680
5494.99,0.68848
5489.2,0.68884
5483.41,0.68763
5477.63,0.68840
5471.84,0.69197
5466.06,0.69094
5460.27,0.68932
5454.48,0.69269
5448.7,0.69282
5442.91,0.69498
5437.13,0.69500
5431.34,0.69530
5425.55,0.69648
5419.77,0.69784
5413.98,0.69686
5408.19,0.69895
5402.41,0.69880
5396.62,0.70115
5390.84,0.70018
5385.05,0.70072
5379.26,0.69992
5373.48,0.69890
5367.69,0.70137
5361.9,0.69876
5356.12,0.69859
5350.33,0.69964
5344.55,0.69902
5338.76,0.69822
5332.97,0.69628
5327.19,0.69159
5321.4,0.69220
5315.61,0.68898
5309.83,0.68372
5304.04,0.67856
5298.26,0.67472
5292.47,0.66949
5286.68,0.66290
5280.9,0.65677
5275.11,0.64631
5269.32,0.63603
5263.54,0.62860
5257.75,0.61974
5251.97,0.61039
5246.18,0.60290
5240.39,0.59794
5234.61,0.59102
5228.82,0.58634
5223.03,0.58014
5217.25,0.58004
5211.46,0.57626
5205.68,0.57326
5199.89,0.57251
5194.1,0.57173
5188.32,0.57275
5182.53,0.57183
5176.74,0.57120
5170.96,0.57209
5165.17,0.57340
5159.39,0.57428
5153.6,0.57519
5147.81,0.57689
5142.03,0.57733
5136.24,0.57854
5130.46,0.57813
5124.67,0.57861
5118.88,0.57681
5113.1,0.57385
5107.31,0.57284
5101.52,0.56930
5095.74,0.56665
5089.95,0.56434
5084.17,0.56185
5078.38,0.56122
5072.59,0.56234
5066.81,0.56234
5061.02,0.56438
5055.23,0.56606
5049.45,0.56950
5043.66,0.57196
5037.88,0.57391
5032.09,0.57591
5026.3,0.57903
5020.52,0.58054
5014.73,0.58390
5008.94,0.58405
5003.16,0.58469
4997.37,0.58687
4991.59,0.58540
4985.8,0.58648
4980.01,0.58665
4974.23,0.58452
4968.44,0.58132
4962.65,0.57879
4956.87,0.57427
4951.08,0.57149
4945.3,0.56711
4939.51,0.56250
4933.72,0.55891
4927.94,0.55629
4922.15,0.55162
4916.36,0.54986
4910.58,0.54692
4904.79,0.54277
4899.01,0.54082
4893.22,0.53688
4887.43,0.53472
4881.65,0.53133
4875.86,0.52844
4870.07,0.52529
4864.29,0.52227
4858.5,0.51892
4852.72,0.51605
4846.93,0.51304
4841.14,0.50983
4835.36,0.50713
4829.57,0.50357
4823.78,0.50200
4818,0.49857
4812.21,0.49674
4806.43,0.49577
4800.64,0.49449
4794.85,0.49264
4789.07,0.49254
4783.28,0.49165
4777.5,0.49210
4771.71,0.49045
4765.92,0.49104
4760.14,0.48880
4754.35,0.48939
4748.56,0.48858
4742.78,0.48934
4736.99,0.48888
4731.21,0.48872
4725.42,0.48914
4719.63,0.48978
4713.85,0.48978
4708.06,0.48948
4702.27,0.48852
4696.49,0.48891
4690.7,0.48845
4684.92,0.48884
4679.13,0.48913
4673.34,0.49026
4667.56,0.49044
4661.77,0.49156
4655.98,0.49240
4650.2,0.49383
4644.41,0.49450
4638.63,0.49489
4632.84,0.49601
4627.05,0.49834
4621.27,0.49921
4615.48,0.50201
4609.69,0.50401
4603.91,0.50603
4598.12,0.50760
4592.34,0.50990
4586.55,0.51107
4580.76,0.51292
4574.98,0.51329
4569.19,0.51370
4563.4,0.51456
4557.62,0.51498
4551.83,0.51557
4546.05,0.51574
4540.26,0.51658
4534.47,0.51699
4528.69,0.51675
4522.9,0.51802
4517.11,0.51895
4511.33,0.51971
4505.54,0.51910
4499.76,0.51743
4493.97,0.51674
4488.18,0.51428
4482.4,0.51098
4476.61,0.50656
4470.83,0.50124
4465.04,0.49524
4459.25,0.48948
4453.47,0.48237
4447.68,0.47686
4441.89,0.47010
4436.11,0.46342
4430.32,0.45621
4424.54,0.45037
4418.75,0.44433
4412.96,0.43916
4407.18,0.43582
4401.39,0.43393
4395.6,0.43362
4389.82,0.43602
4384.03,0.43686
4378.25,0.43946
4372.46,0.44293
4366.67,0.44674
4360.89,0.44919
4355.1,0.45146
4349.31,0.45189
4343.53,0.45163
4337.74,0.45133
4331.96,0.44892
4326.17,0.44774
4320.38,0.44633
4314.6,0.44443
4308.81,0.44249
4303.02,0.44181
4297.24,0.43985
4291.45,0.43729
4285.67,0.43650
4279.88,0.43577
4274.09,0.43537
4268.31,0.43657
4262.52,0.43853
4256.73,0.43967
4250.95,0.44094
4245.16,0.44222
4239.38,0.44283
4233.59,0.44368
4227.8,0.44359
4222.02,0.44448
4216.23,0.44414
4210.44,0.44376
4204.66,0.44466
4198.87,0.44385
4193.09,0.44516
4187.3,0.44507
4181.51,0.44614
4175.73,0.44821
4169.94,0.44984
4164.16,0.45173
4158.37,0.45198
4152.58,0.45120
4146.8,0.44976
4141.01,0.44877
4135.22,0.44530
4129.44,0.44206
4123.65,0.43849
4117.87,0.43483
4112.08,0.43090
4106.29,0.42636
4100.51,0.42122
4094.72,0.41677
4088.93,0.41218
4083.15,0.40642
4077.36,0.40128
4071.58,0.39585
4065.79,0.39086
4060,0.38467
4054.22,0.37887
4048.43,0.37376
4042.64,0.36925
4036.86,0.36544
4031.07,0.36149
4025.29,0.35869
4019.5,0.35705
4013.71,0.35577
4007.93,0.35580
4002.14,0.35662
3996.35,0.35792
3990.57,0.36028
3984.78,0.36185
3979,0.36348
3973.21,0.36627
3967.42,0.36790
3961.64,0.37099
3955.85,0.37351
3950.06,0.37597
3944.28,0.37874
3938.49,0.38203
3932.71,0.38359
3926.92,0.38695
3921.13,0.38982
3915.35,0.39164
3909.56,0.39377
3903.77,0.39660
3897.99,0.39906
3892.2,0.40112
3886.42,0.40332
3880.63,0.40491
3874.84,0.40748
3869.06,0.41018
3863.27,0.41338
3857.48,0.41672
3851.7,0.42002
3845.91,0.42411
3840.13,0.42628
3834.34,0.42880
3828.55,0.43010
3822.77,0.43161
3816.98,0.43155
3811.2,0.43236
3805.41,0.43391
3799.62,0.43405
3793.84,0.43361
3788.05,0.43374
3782.26,0.43314
3776.48,0.43341
3770.69,0.43226
3764.91,0.43103
3759.12,0.42966
3753.33,0.42795
3747.55,0.42577
3741.76,0.42352
3735.97,0.42005
3730.19,0.41659
3724.4,0.41235
3718.62,0.40704
3712.83,0.40135
3707.04,0.39428
3701.26,0.38477
3695.47,0.37407
3689.68,0.36153
3683.9,0.34585
3678.11,0.32878
3672.33,0.30843
3666.54,0.28795
3660.75,0.26850
3654.97,0.25014
3649.18,0.23203
3643.39,0.21599
3637.61,0.20179
3631.82,0.18920
3626.04,0.17647
3620.25,0.16481
3614.46,0.15320
3608.68,0.14238
3602.89,0.13175
3597.1,0.12279
3591.32,0.11405
3585.53,0.10576
3579.75,0.09900
3573.96,0.09311
3568.17,0.08731
3562.39,0.08257
3556.6,0.07798
3550.81,0.07470
3545.03,0.07123
3539.24,0.06725
3533.46,0.06437
3527.67,0.06174
3521.88,0.05868
3516.1,0.05647
3510.31,0.05426
3504.53,0.05185
3498.74,0.04989
3492.95,0.04846
3487.17,0.04653
3481.38,0.04603
3475.59,0.04423
3469.81,0.04361
3464.02,0.04319
3458.24,0.04217
3452.45,0.04220
3446.66,0.04180
3440.88,0.04170
3435.09,0.04078
3429.3,0.04097
3423.52,0.04095
3417.73,0.04124
3411.95,0.04122
3406.16,0.04060
3400.37,0.04098
3394.59,0.04063
3388.8,0.04067
3383.01,0.04018
3377.23,0.04063
3371.44,0.04174
3365.66,0.04075
3359.87,0.04096
3354.08,0.04186
3348.3,0.04202
3342.51,0.04278
3336.72,0.04324
3330.94,0.04419
3325.15,0.04478
3319.37,0.04601
3313.58,0.04653
3307.79,0.04680
3302.01,0.04715
3296.22,0.04829
3290.43,0.04858
3284.65,0.04996
3278.86,0.05064
3273.08,0.05135
3267.29,0.05284
3261.5,0.05377
3255.72,0.05516
3249.93,0.05640
3244.14,0.05837
3238.36,0.05907
3232.57,0.06062
3226.79,0.06205
3221,0.06308
3215.21,0.06421
3209.43,0.06510
3203.64,0.06690
3197.86,0.06907
3192.07,0.07055
3186.28,0.07130
3180.5,0.07432
3174.71,0.07641
3168.92,0.07864
3163.14,0.08118
3157.35,0.08352
3151.57,0.08568
3145.78,0.08796
3139.99,0.08986
3134.21,0.09153
3128.42,0.09396
3122.63,0.09512
3116.85,0.09657
3111.06,0.09858
3105.28,0.10025
3099.49,0.10244
3093.7,0.10315
3087.92,0.10453
3082.13,0.10562
3076.34,0.10559
3070.56,0.10724
3064.77,0.10864
3058.99,0.10956
3053.2,0.11127
3047.41,0.11185
3041.63,0.11352
3035.84,0.11408
3030.05,0.11454
3024.27,0.11363
3018.48,0.11308
3012.7,0.11137
3006.91,0.10891
3001.12,0.10684
2995.34,0.10530
2989.55,0.10359
2983.76,0.09926
2977.98,0.09334
2972.19,0.08690
2966.41,0.08140
2960.62,0.07781
2954.83,0.07469
2949.05,0.07204
2943.26,0.06915
2937.47,0.06865
2931.69,0.06895
2925.9,0.06908
2920.12,0.06831
2914.33,0.06868
2908.54,0.07060
2902.76,0.07113
2896.97,0.07204
2891.18,0.07374
2885.4,0.07500
2879.61,0.07603
2873.83,0.07637
2868.04,0.07832
2862.25,0.08020
2856.47,0.08208
2850.68,0.08339
2844.9,0.08864
2839.11,0.09445
2833.32,0.10181
2827.54,0.10973
2821.75,0.11743
2815.96,0.12353
2810.18,0.12910
2804.39,0.13403
2798.61,0.13823
2792.82,0.14182
2787.03,0.14436
2781.25,0.14640
2775.46,0.14811
2769.67,0.14955
2763.89,0.15139
2758.1,0.15287
2752.32,0.15334
2746.53,0.15367
2740.74,0.15412
2734.96,0.15498
2729.17,0.15552
2723.38,0.15754
2717.6,0.15938
2711.81,0.16137
2706.03,0.16440
2700.24,0.16692
2694.45,0.16992
2688.67,0.17188
2682.88,0.17390
2677.09,0.17666
2671.31,0.17861
2665.52,0.18028
2659.74,0.18139
2653.95,0.18281
2648.16,0.18486
2642.38,0.18643
2636.59,0.18858
2630.8,0.19100
2625.02,0.19339
2619.23,0.19557
2613.45,0.19723
2607.66,0.19918
2601.87,0.20053
2596.09,0.20216
2590.3,0.20420
2584.51,0.20596
2578.73,0.20730
2572.94,0.20868
2567.16,0.20965
2561.37,0.21071
2555.58,0.21173
2549.8,0.21238
2544.01,0.21346
2538.23,0.21444
2532.44,0.21642
2526.65,0.21827
2520.87,0.22037
2515.08,0.22234
2509.29,0.22484
2503.51,0.22767
2497.72,0.23096
2491.94,0.23429
2486.15,0.23658
2480.36,0.23922
2474.58,0.24150
2468.79,0.24377
2463,0.24529
2457.22,0.24745
2451.43,0.24931
2445.65,0.25166
2439.86,0.25404
2434.07,0.25749
2428.29,0.26094
2422.5,0.26409
2416.71,0.26802
2410.93,0.27162
2405.14,0.27532
2399.36,0.27903
2393.57,0.28183
2387.78,0.28518
2382,0.28818
2376.21,0.29111
2370.42,0.29388
2364.64,0.29604
2358.85,0.29859
2353.07,0.30097
2347.28,0.30319
2341.49,0.30533
2335.71,0.30662
2329.92,0.30819
2324.13,0.30899
2318.35,0.30969
2312.56,0.31009
2306.78,0.31026
2300.99,0.31013
2295.2,0.30955
2289.42,0.31006
2283.63,0.31035
2277.84,0.31012
2272.06,0.30903
2266.27,0.30683
2260.49,0.30481
2254.7,0.30275
2248.91,0.30109
2243.13,0.30007
2237.34,0.29988
2231.56,0.30037
2225.77,0.30134
2219.98,0.30210
2214.2,0.30271
2208.41,0.30258
2202.62,0.30130
2196.84,0.29964
2191.05,0.29619
2185.27,0.29275
2179.48,0.28900
2173.69,0.28535
2167.91,0.28167
2162.12,0.27847
2156.33,0.27649
2150.55,0.27492
2144.76,0.27362
2138.98,0.27298
2133.19,0.27283
2127.4,0.27365
2121.62,0.27490
2115.83,0.27595
2110.04,0.27726
2104.26,0.27914
2098.47,0.28076
2092.69,0.28228
2086.9,0.28317
2081.11,0.28310
2075.33,0.28138
2069.54,0.28016
2063.75,0.27922
2057.97,0.27864
2052.18,0.27915
2046.4,0.28006
2040.61,0.28169
2034.82,0.28441
2029.04,0.28745
2023.25,0.29068
2017.46,0.29437
2011.68,0.29798
2005.89,0.30091
2000.11,0.30274
1994.32,0.30445
1988.53,0.30606
1982.75,0.30660
1976.96,0.30765
1971.17,0.30729
1965.39,0.30739
1959.6,0.30733
1953.82,0.30839
1948.03,0.31013
1942.24,0.31331
1936.46,0.31685
1930.67,0.32051
1924.89,0.32345
1919.1,0.32590
1913.31,0.32696
1907.53,0.32766
1901.74,0.32777
1895.95,0.32733
1890.17,0.32613
1884.38,0.32531
1878.6,0.32391
1872.81,0.32234
1867.02,0.32061
1861.24,0.31821
1855.45,0.31570
1849.66,0.31273
1843.88,0.30936
1838.09,0.30555
1832.31,0.30109
1826.52,0.29604
1820.73,0.29025
1814.95,0.28347
1809.16,0.27564
1803.37,0.26673
1797.59,0.25598
1791.8,0.24468
1786.02,0.23100
1780.23,0.21252
1774.44,0.18913
1768.66,0.15666
1762.87,0.12527
1757.08,0.10204
1751.3,0.08893
1745.51,0.08139
1739.73,0.07822
1733.94,0.07974
1728.15,0.08412
1722.37,0.08907
1716.58,0.09147
1710.79,0.08993
1705.01,0.08450
1699.22,0.07539
1693.44,0.06542
1687.65,0.05720
1681.86,0.04997
1676.08,0.04717
1670.29,0.04608
1664.5,0.04639
1658.72,0.04884
1652.93,0.05171
1647.15,0.05468
1641.36,0.05626
1635.57,0.05645
1629.79,0.05583
1624,0.05592
1618.21,0.05632
1612.43,0.05668
1606.64,0.05640
1600.86,0.05631
1595.07,0.05703
1589.28,0.06148
1583.5,0.06955
1577.71,0.07854
1571.93,0.08551
1566.14,0.08835
1560.35,0.08788
1554.57,0.08524
1548.78,0.08309
1542.99,0.08111
1537.21,0.07841
1531.42,0.07504
1525.64,0.06955
1519.85,0.06045
1514.06,0.05361
1508.28,0.05203
1502.49,0.05498
1496.7,0.06083
1490.92,0.06597
1485.13,0.06685
1479.35,0.06255
1473.56,0.05545
1467.77,0.04915
1461.99,0.04886
1456.2,0.04976
1450.41,0.05179
1444.63,0.05364
1438.84,0.05355
1433.06,0.05108
1427.27,0.05025
1421.48,0.05239
1415.7,0.05588
1409.91,0.05938
1404.12,0.06071
1398.34,0.06009
1392.55,0.05778
1386.77,0.05381
1380.98,0.04985
1375.19,0.04828
1369.41,0.04951
1363.62,0.05138
1357.83,0.05291
1352.05,0.05377
1346.26,0.05316
1340.48,0.05107
1334.69,0.04999
1328.9,0.05017
1323.12,0.05125
1317.33,0.05263
1311.54,0.05492
1305.76,0.05709
1299.97,0.05753
1294.19,0.05686
1288.4,0.05383
1282.61,0.05085
1276.83,0.04946
1271.04,0.04788
1265.26,0.04739
1259.47,0.04764
1253.68,0.04804
1247.9,0.04689
1242.11,0.04654
1236.32,0.04610
1230.54,0.04734
1224.75,0.04851
1218.97,0.05026
1213.18,0.05256
1207.39,0.05273
1201.61,0.05294
1195.82,0.05309
1190.03,0.05132
1184.25,0.04839
1178.46,0.04379
1172.68,0.03932
1166.89,0.03994
1161.1,0.04331
1155.32,0.04528
1149.53,0.04493
1143.74,0.04294
1137.96,0.04009
1132.17,0.03817
1126.39,0.03918
1120.6,0.04116
1114.81,0.04157
1109.03,0.04394
1103.24,0.04609
1097.45,0.04524
1091.67,0.04376
1085.88,0.04204
1080.1,0.04218
1074.31,0.04552
1068.52,0.04840
1062.74,0.05394
1056.95,0.05885
1051.16,0.06074
1045.38,0.06095
1039.59,0.06205
1033.81,0.06568
1028.02,0.06883
1022.23,0.07025
1016.45,0.07204
1010.66,0.07473
1004.87,0.07733
999.089,0.07989
993.302,0.08105
987.516,0.08666
981.73,0.09577
975.944,0.10253
970.157,0.10716
964.371,0.11194
958.585,0.11920
952.799,0.12781
947.013,0.13330
941.226,0.13502
935.44,0.13513
929.654,0.13497
923.868,0.13502
918.081,0.13268
912.295,0.12904
906.509,0.12392
900.723,0.11695
894.937,0.11774
889.15,0.12487
883.364,0.13007
877.578,0.13161
871.792,0.13346
866.005,0.13481
860.219,0.13368
854.433,0.13330
848.647,0.13218
842.86,0.13082
837.074,0.12790
831.288,0.12564
825.502,0.12631
819.716,0.12634
813.929,0.12652
808.143,0.12566
802.357,0.12644
796.571,0.12525
790.784,0.12368
784.998,0.12165
779.212,0.11839
773.426,0.11595
767.64,0.11199
761.853,0.10991
756.067,0.10599
750.281,0.10232
744.495,0.09940
738.708,0.09684
732.922,0.09417
727.136,0.08957
721.35,0.08739
715.563,0.08489
709.777,0.08530
703.991,0.08476
698.205,0.08240
692.419,0.08228
686.632,0.07874
680.846,0.07747
675.06,0.07204
669.274,0.07117
663.487,0.07331
657.701,0.07305
651.915,0.07351
646.129,0.07224
640.343,0.07079
634.556,0.06694
628.77,0.06739
622.984,0.06545
617.198,0.06487
611.411,0.06519
605.625,0.06855
599.839,0.06942