File: 01_Data/Luan_Panel/FTIR/IS/Luan_Panel_IS_S_220914_R3.dpt
7497.02,0.84840
7491.24,0.84741
7485.45,0.83768
7479.66,0.83887
7473.88,0.84805
7468.09,0.83497
7462.3,0.83108
7456.52,0.84344
7450.73,0.82750
7444.95,0.81874
7439.16,0.83285
7433.37,0.82342
7427.59,0.81522
7421.8,0.82040
7416.01,0.81622
7410.23,0.81714
7404.44,0.82279
7398.66,0.82236
7392.87,0.82076
7387.08,0.81650
7381.3,0.81709
7375.51,0.81873
7369.73,0.81234
7363.94,0.80445
7358.15,0.80431
7352.37,0.80229
7346.58,0.79669
7340.79,0.80694
7335.01,0.79855
7329.22,0.79128
7323.44,0.79106
7317.65,0.79159
7311.86,0.78930
7306.08,0.78440
7300.29,0.79508
7294.5,0.78495
7288.72,0.77456
7282.93,0.78883
7277.15,0.78412
7271.36,0.78829
7265.57,0.78614
7259.79,0.78650
7254,0.77826
7248.21,0.76858
7242.43,0.77398
7236.64,0.78434
7230.86,0.78086
7225.07,0.77790
7219.28,0.77821
7213.5,0.77745
7207.71,0.77955
7201.92,0.77103
7196.14,0.77542
7190.35,0.77817
7184.57,0.76203
7178.78,0.77023
7172.99,0.77537
7167.21,0.76718
7161.42,0.76158
7155.63,0.76056
7149.85,0.75816
7144.06,0.75535
7138.28,0.74792
7132.49,0.74618
7126.7,0.74066
7120.92,0.73554
7115.13,0.74057
7109.34,0.73926
7103.56,0.72935
7097.77,0.72965
7091.99,0.72300
7086.2,0.71903
7080.41,0.71996
7074.63,0.70957
7068.84,0.70279
7063.06,0.69762
7057.27,0.69631
7051.48,0.69492
7045.7,0.69531
7039.91,0.68748
7034.12,0.68889
7028.34,0.68346
7022.55,0.67536
7016.77,0.67072
7010.98,0.67466
7005.19,0.66960
6999.41,0.66352
6993.62,0.66192
6987.83,0.66208
6982.05,0.65975
6976.26,0.65897
6970.48,0.64809
6964.69,0.64664
6958.9,0.64499
6953.12,0.64507
6947.33,0.64825
6941.54,0.64709
6935.76,0.65135
6929.97,0.64184
6924.19,0.64281
6918.4,0.64359
6912.61,0.64227
6906.83,0.64756
6901.04,0.64492
6895.25,0.63904
6889.47,0.63306
6883.68,0.64017
6877.9,0.63911
6872.11,0.63383
6866.32,0.63964
6860.54,0.63173
6854.75,0.63851
6848.96,0.63676
6843.18,0.63388
6837.39,0.63745
6831.61,0.62940
6825.82,0.63439
6820.03,0.63150
6814.25,0.63109
6808.46,0.62624
6802.67,0.63032
6796.89,0.62574
6791.1,0.63015
6785.32,0.62258
6779.53,0.62925
6773.74,0.62583
6767.96,0.62296
6762.17,0.62205
6756.38,0.61779
6750.6,0.62212
6744.81,0.62134
6739.03,0.62222
6733.24,0.62036
6727.45,0.62356
6721.67,0.61897
6715.88,0.62372
6710.1,0.62878
6704.31,0.62310
6698.52,0.62361
6692.74,0.61982
6686.95,0.62274
6681.16,0.62231
6675.38,0.63100
6669.59,0.62354
6663.81,0.62403
6658.02,0.63008
6652.23,0.62762
6646.45,0.62251
6640.66,0.62914
6634.87,0.62903
6629.09,0.63207
6623.3,0.63160
6617.52,0.63637
6611.73,0.63204
6605.94,0.63311
6600.16,0.63428
6594.37,0.63562
6588.58,0.63661
6582.8,0.63998
6577.01,0.63493
6571.23,0.63882
6565.44,0.64358
6559.65,0.64067
6553.87,0.64442
6548.08,0.64452
6542.29,0.64655
6536.51,0.64832
6530.72,0.64586
6524.94,0.64613
6519.15,0.64707
6513.36,0.65312
6507.58,0.65060
6501.79,0.65086
6496,0.65309
6490.22,0.64929
6484.43,0.65523
6478.65,0.65266
6472.86,0.64942
6467.07,0.64856
6461.29,0.65362
6455.5,0.65820
6449.71,0.65523
6443.93,0.65396
6438.14,0.65705
6432.36,0.65739
6426.57,0.65531
6420.78,0.65748
6415,0.65778
6409.21,0.66052
6403.43,0.65966
6397.64,0.66105
6391.85,0.65975
6386.07,0.66500
6380.28,0.66009
6374.49,0.66225
6368.71,0.66400
6362.92,0.66134
6357.14,0.66104
6351.35,0.66190
6345.56,0.66611
6339.78,0.66635
6333.99,0.66588
6328.2,0.67178
6322.42,0.66844
6316.63,0.66910
6310.85,0.66985
6305.06,0.66953
6299.27,0.67135
6293.49,0.67137
6287.7,0.66792
6281.91,0.67161
6276.13,0.66959
6270.34,0.67756
6264.56,0.67746
6258.77,0.67642
6252.98,0.67701
6247.2,0.67891
6241.41,0.68058
6235.62,0.68308
6229.84,0.68561
6224.05,0.68655
6218.27,0.68852
6212.48,0.68659
6206.69,0.69126
6200.91,0.69392
6195.12,0.69054
6189.33,0.69199
6183.55,0.69781
6177.76,0.69617
6171.98,0.70067
6166.19,0.70038
6160.4,0.70082
6154.62,0.69946
6148.83,0.70191
6143.04,0.70238
6137.26,0.70578
6131.47,0.70646
6125.69,0.70155
6119.9,0.70562
6114.11,0.70644
6108.33,0.70865
6102.54,0.70800
6096.76,0.70700
6090.97,0.70581
6085.18,0.70785
6079.4,0.70597
6073.61,0.70676
6067.82,0.70894
6062.04,0.70412
6056.25,0.70353
6050.47,0.70200
6044.68,0.70447
6038.89,0.70159
6033.11,0.70021
6027.32,0.69915
6021.53,0.69457
6015.75,0.69599
6009.96,0.69071
6004.18,0.69249
5998.39,0.68915
5992.6,0.68998
5986.82,0.69118
5981.03,0.68995
5975.24,0.68668
5969.46,0.68434
5963.67,0.68561
5957.89,0.68779
5952.1,0.68533
5946.31,0.68657
5940.53,0.68571
5934.74,0.68839
5928.95,0.68600
5923.17,0.68732
5917.38,0.68569
5911.6,0.68306
5905.81,0.68271
5900.02,0.67948
5894.24,0.68029
5888.45,0.68047
5882.66,0.67736
5876.88,0.67724
5871.09,0.67686
5865.31,0.67741
5859.52,0.67999
5853.73,0.67910
5847.95,0.67931
5842.16,0.67518
5836.37,0.67595
5830.59,0.67614
5824.8,0.67347
5819.02,0.67756
5813.23,0.67162
5807.44,0.67215
5801.66,0.67257
5795.87,0.67201
5790.08,0.67404
5784.3,0.67257
5778.51,0.67305
5772.73,0.67579
5766.94,0.67647
5761.15,0.67547
5755.37,0.67714
5749.58,0.67766
5743.8,0.67792
5738.01,0.67934
5732.22,0.67745
5726.44,0.67598
5720.65,0.67622
5714.86,0.67800
5709.08,0.67893
5703.29,0.67773
5697.51,0.67664
5691.72,0.67756
5685.93,0.67704
5680.15,0.67710
5674.36,0.67871
5668.57,0.67769
5662.79,0.67654
5657,0.67920
5651.22,0.67541
5645.43,0.67658
5639.64,0.67882
5633.86,0.67906
5628.07,0.68015
5622.28,0.67916
5616.5,0.67838
5610.71,0.67694
5604.93,0.67887
5599.14,0.67662
5593.35,0.67922
5587.57,0.67832
5581.78,0.67732
5575.99,0.67811
5570.21,0.67913
5564.42,0.67920
5558.64,0.68181
5552.85,0.68370
5547.06,0.68156
5541.28,0.68309
5535.49,0.68325
5529.7,0.68347
5523.92,0.68144
5518.13,0.68108
5512.35,0.68361
5506.56,0.68402
5500.77,0.68474
5494.99,0.68585
5489.2,0.68472
5483.41,0.68895
5477.63,0.68651
5471.84,0.68568
5466.06,0.68772
5460.27,0.68615
5454.48,0.68807
5448.7,0.69013
5442.91,0.68977
5437.13,0.69187
5431.34,0.69250
5425.55,0.69143
5419.77,0.69180
5413.98,0.69231
5408.19,0.69471
5402.41,0.69516
5396.62,0.69831
5390.84,0.69879
5385.05,0.69446
5379.26,0.69554
5373.48,0.69406
5367.69,0.69440
5361.9,0.69543
5356.12,0.69459
5350.33,0.69338
5344.55,0.69047
5338.76,0.69090
5332.97,0.68852
5327.19,0.68822
5321.4,0.68340
5315.61,0.67943
5309.83,0.67457
5304.04,0.67004
5298.26,0.66477
5292.47,0.65668
5286.68,0.64673
5280.9,0.64081
5275.11,0.63075
5269.32,0.62092
5263.54,0.61069
5257.75,0.59927
5251.97,0.59059
5246.18,0.58327
5240.39,0.57527
5234.61,0.56906
5228.82,0.56480
5223.03,0.55910
5217.25,0.55503
5211.46,0.55412
5205.68,0.55050
5199.89,0.54976
5194.1,0.55003
5188.32,0.54968
5182.53,0.54891
5176.74,0.54822
5170.96,0.54877
5165.17,0.55105
5159.39,0.55267
5153.6,0.55342
5147.81,0.55390
5142.03,0.55707
5136.24,0.55730
5130.46,0.55876
5124.67,0.55762
5118.88,0.55741
5113.1,0.55873
5107.31,0.55669
5101.52,0.55440
5095.74,0.55008
5089.95,0.54931
5084.17,0.54806
5078.38,0.54728
5072.59,0.54814
5066.81,0.54984
5061.02,0.55319
5055.23,0.55577
5049.45,0.55669
5043.66,0.55973
5037.88,0.56215
5032.09,0.56414
5026.3,0.56585
5020.52,0.56991
5014.73,0.57262
5008.94,0.57378
5003.16,0.57548
4997.37,0.57671
4991.59,0.57837
4985.8,0.57931
4980.01,0.57720
4974.23,0.57563
4968.44,0.57428
4962.65,0.57231
4956.87,0.56785
4951.08,0.56586
4945.3,0.56236
4939.51,0.55713
4933.72,0.55335
4927.94,0.55038
4922.15,0.54843
4916.36,0.54538
4910.58,0.54241
4904.79,0.54040
4899.01,0.53627
4893.22,0.53370
4887.43,0.53146
4881.65,0.52787
4875.86,0.52571
4870.07,0.52200
4864.29,0.51935
4858.5,0.51535
4852.72,0.51332
4846.93,0.51061
4841.14,0.50680
4835.36,0.50433
4829.57,0.49963
4823.78,0.49835
4818,0.49638
4812.21,0.49464
4806.43,0.49321
4800.64,0.49255
4794.85,0.49020
4789.07,0.49010
4783.28,0.48991
4777.5,0.48941
4771.71,0.48882
4765.92,0.48721
4760.14,0.48665
4754.35,0.48652
4748.56,0.48777
4742.78,0.48588
4736.99,0.48609
4731.21,0.48664
4725.42,0.48683
4719.63,0.48621
4713.85,0.48651
4708.06,0.48658
4702.27,0.48725
4696.49,0.48638
4690.7,0.48666
4684.92,0.48607
4679.13,0.48670
4673.34,0.48837
4667.56,0.48849
4661.77,0.49008
4655.98,0.48989
4650.2,0.49063
4644.41,0.49138
4638.63,0.49263
4632.84,0.49284
4627.05,0.49563
4621.27,0.49786
4615.48,0.49904
4609.69,0.50158
4603.91,0.50377
4598.12,0.50509
4592.34,0.50623
4586.55,0.50790
4580.76,0.50876
4574.98,0.51006
4569.19,0.51150
4563.4,0.51163
4557.62,0.51214
4551.83,0.51315
4546.05,0.51255
4540.26,0.51408
4534.47,0.51521
4528.69,0.51530
4522.9,0.51527
4517.11,0.51660
4511.33,0.51656
4505.54,0.51605
4499.76,0.51513
4493.97,0.51308
4488.18,0.51158
4482.4,0.50806
4476.61,0.50257
4470.83,0.49894
4465.04,0.49281
4459.25,0.48735
4453.47,0.48140
4447.68,0.47512
4441.89,0.46798
4436.11,0.46172
4430.32,0.45551
4424.54,0.44835
4418.75,0.44226
4412.96,0.43833
4407.18,0.43435
4401.39,0.43300
4395.6,0.43296
4389.82,0.43481
4384.03,0.43644
4378.25,0.43800
4372.46,0.44215
4366.67,0.44573
4360.89,0.44879
4355.1,0.45052
4349.31,0.45007
4343.53,0.44960
4337.74,0.44925
4331.96,0.44784
4326.17,0.44532
4320.38,0.44453
4314.6,0.44309
4308.81,0.44227
4303.02,0.44053
4297.24,0.43783
4291.45,0.43591
4285.67,0.43412
4279.88,0.43273
4274.09,0.43343
4268.31,0.43514
4262.52,0.43656
4256.73,0.43743
4250.95,0.43838
4245.16,0.43938
4239.38,0.44079
4233.59,0.44051
4227.8,0.44125
4222.02,0.44230
4216.23,0.44214
4210.44,0.44141
4204.66,0.44111
4198.87,0.44170
4193.09,0.44123
4187.3,0.44118
4181.51,0.44295
4175.73,0.44413
4169.94,0.44700
4164.16,0.44839
4158.37,0.44809
4152.58,0.44690
4146.8,0.44595
4141.01,0.44430
4135.22,0.44153
4129.44,0.43852
4123.65,0.43441
4117.87,0.43067
4112.08,0.42605
4106.29,0.42248
4100.51,0.41776
4094.72,0.41253
4088.93,0.40803
4083.15,0.40360
4077.36,0.39820
4071.58,0.39280
4065.79,0.38719
4060,0.38188
4054.22,0.37611
4048.43,0.37124
4042.64,0.36646
4036.86,0.36148
4031.07,0.35812
4025.29,0.35523
4019.5,0.35338
4013.71,0.35228
4007.93,0.35272
4002.14,0.35341
3996.35,0.35568
3990.57,0.35706
3984.78,0.35846
3979,0.36018
3973.21,0.36190
3967.42,0.36518
3961.64,0.36699
3955.85,0.37037
3950.06,0.37229
3944.28,0.37524
3938.49,0.37814
3932.71,0.38006
3926.92,0.38306
3921.13,0.38583
3915.35,0.38865
3909.56,0.39002
3903.77,0.39141
3897.99,0.39513
3892.2,0.39649
3886.42,0.39835
3880.63,0.40036
3874.84,0.40289
3869.06,0.40572
3863.27,0.40851
3857.48,0.41163
3851.7,0.41484
3845.91,0.41791
3840.13,0.42004
3834.34,0.42198
3828.55,0.42389
3822.77,0.42543
3816.98,0.42542
3811.2,0.42591
3805.41,0.42566
3799.62,0.42632
3793.84,0.42575
3788.05,0.42553
3782.26,0.42537
3776.48,0.42445
3770.69,0.42269
3764.91,0.42130
3759.12,0.41951
3753.33,0.41764
3747.55,0.41491
3741.76,0.41162
3735.97,0.40858
3730.19,0.40508
3724.4,0.39999
3718.62,0.39412
3712.83,0.38706
3707.04,0.37921
3701.26,0.36916
3695.47,0.35737
3689.68,0.34409
3683.9,0.32690
3678.11,0.30837
3672.33,0.28658
3666.54,0.26569
3660.75,0.24623
3654.97,0.22694
3649.18,0.20980
3643.39,0.19409
3637.61,0.18122
3631.82,0.16939
3626.04,0.15782
3620.25,0.14815
3614.46,0.13904
3608.68,0.12988
3602.89,0.12132
3597.1,0.11203
3591.32,0.10499
3585.53,0.09889
3579.75,0.09318
3573.96,0.08745
3568.17,0.08232
3562.39,0.07764
3556.6,0.07428
3550.81,0.07120
3545.03,0.06841
3539.24,0.06487
3533.46,0.06215
3527.67,0.05998
3521.88,0.05665
3516.1,0.05515
3510.31,0.05289
3504.53,0.05098
3498.74,0.04895
3492.95,0.04753
3487.17,0.04684
3481.38,0.04544
3475.59,0.04472
3469.81,0.04320
3464.02,0.04306
3458.24,0.04264
3452.45,0.04202
3446.66,0.04089
3440.88,0.04121
3435.09,0.04119
3429.3,0.04076
3423.52,0.04039
3417.73,0.03996
3411.95,0.04063
3406.16,0.04013
3400.37,0.04066
3394.59,0.04079
3388.8,0.04049
3383.01,0.04047
3377.23,0.04016
3371.44,0.04031
3365.66,0.04074
3359.87,0.04055
3354.08,0.04105
3348.3,0.04175
3342.51,0.04304
3336.72,0.04363
3330.94,0.04414
3325.15,0.04450
3319.37,0.04644
3313.58,0.04682
3307.79,0.04678
3302.01,0.04779
3296.22,0.04816
3290.43,0.04860
3284.65,0.04970
3278.86,0.04987
3273.08,0.05149
3267.29,0.05265
3261.5,0.05375
3255.72,0.05454
3249.93,0.05604
3244.14,0.05703
3238.36,0.05859
3232.57,0.05951
3226.79,0.06085
3221,0.06190
3215.21,0.06315
3209.43,0.06422
3203.64,0.06588
3197.86,0.06726
3192.07,0.06902
3186.28,0.07152
3180.5,0.07262
3174.71,0.07497
3168.92,0.07695
3163.14,0.07920
3157.35,0.08110
3151.57,0.08419
3145.78,0.08521
3139.99,0.08710
3134.21,0.08958
3128.42,0.09121
3122.63,0.09259
3116.85,0.09467
3111.06,0.09626
3105.28,0.09737
3099.49,0.09884
3093.7,0.09998
3087.92,0.10122
3082.13,0.10296
3076.34,0.10403
3070.56,0.10528
3064.77,0.10615
3058.99,0.10699
3053.2,0.10837
3047.41,0.10951
3041.63,0.11080
3035.84,0.11115
3030.05,0.11212
3024.27,0.11161
3018.48,0.11046
3012.7,0.10972
3006.91,0.10702
3001.12,0.10573
2995.34,0.10461
2989.55,0.10195
2983.76,0.09833
2977.98,0.09235
2972.19,0.08543
2966.41,0.07992
2960.62,0.07708
2954.83,0.07503
2949.05,0.07175
2943.26,0.06938
2937.47,0.06808
2931.69,0.06915
2925.9,0.06845
2920.12,0.06849
2914.33,0.06905
2908.54,0.07032
2902.76,0.07128
2896.97,0.07220
2891.18,0.07367
2885.4,0.07506
2879.61,0.07590
2873.83,0.07676
2868.04,0.07851
2862.25,0.08038
2856.47,0.08249
2850.68,0.08329
2844.9,0.08829
2839.11,0.09486
2833.32,0.10147
2827.54,0.10989
2821.75,0.11673
2815.96,0.12260
2810.18,0.12819
2804.39,0.13254
2798.61,0.13677
2792.82,0.14050
2787.03,0.14293
2781.25,0.14557
2775.46,0.14728
2769.67,0.14869
2763.89,0.15017
2758.1,0.15107
2752.32,0.15157
2746.53,0.15233
2740.74,0.15274
2734.96,0.15344
2729.17,0.15466
2723.38,0.15595
2717.6,0.15834
2711.81,0.15981
2706.03,0.16263
2700.24,0.16560
2694.45,0.16872
2688.67,0.17091
2682.88,0.17254
2677.09,0.17519
2671.31,0.17692
2665.52,0.17901
2659.74,0.17995
2653.95,0.18172
2648.16,0.18301
2642.38,0.18504
2636.59,0.18712
2630.8,0.18962
2625.02,0.19167
2619.23,0.19393
2613.45,0.19600
2607.66,0.19761
2601.87,0.19903
2596.09,0.20121
2590.3,0.20263
2584.51,0.20486
2578.73,0.20613
2572.94,0.20748
2567.16,0.20826
2561.37,0.20903
2555.58,0.20998
2549.8,0.21136
2544.01,0.21198
2538.23,0.21334
2532.44,0.21514
2526.65,0.21723
2520.87,0.21898
2515.08,0.22062
2509.29,0.22322
2503.51,0.22634
2497.72,0.22950
2491.94,0.23198
2486.15,0.23494
2480.36,0.23772
2474.58,0.23970
2468.79,0.24161
2463,0.24370
2457.22,0.24586
2451.43,0.24764
2445.65,0.25014
2439.86,0.25250
2434.07,0.25553
2428.29,0.25923
2422.5,0.26230
2416.71,0.26594
2410.93,0.26942
2405.14,0.27325
2399.36,0.27663
2393.57,0.27958
2387.78,0.28239
2382,0.28538
2376.21,0.28821
2370.42,0.29093
2364.64,0.29290
2358.85,0.29512
2353.07,0.29779
2347.28,0.30027
2341.49,0.30166
2335.71,0.30267
2329.92,0.30402
2324.13,0.30513
2318.35,0.30562
2312.56,0.30645
2306.78,0.30615
2300.99,0.30578
2295.2,0.30560
2289.42,0.30552
2283.63,0.30588
2277.84,0.30508
2272.06,0.30424
2266.27,0.30222
2260.49,0.30016
2254.7,0.29782
2248.91,0.29626
2243.13,0.29542
2237.34,0.29499
2231.56,0.29519
2225.77,0.29570
2219.98,0.29627
2214.2,0.29664
2208.41,0.29627
2202.62,0.29528
2196.84,0.29315
2191.05,0.29028
2185.27,0.28661
2179.48,0.28310
2173.69,0.27903
2167.91,0.27542
2162.12,0.27204
2156.33,0.27009
2150.55,0.26846
2144.76,0.26757
2138.98,0.26674
2133.19,0.26710
2127.4,0.26753
2121.62,0.26854
2115.83,0.26978
2110.04,0.27121
2104.26,0.27267
2098.47,0.27404
2092.69,0.27574
2086.9,0.27656
2081.11,0.27641
2075.33,0.27545
2069.54,0.27396
2063.75,0.27316
2057.97,0.27261
2052.18,0.27277
2046.4,0.27374
2040.61,0.27575
2034.82,0.27789
2029.04,0.28122
2023.25,0.28468
2017.46,0.28865
2011.68,0.29160
2005.89,0.29445
2000.11,0.29650
1994.32,0.29814
1988.53,0.30004
1982.75,0.30111
1976.96,0.30184
1971.17,0.30180
1965.39,0.30183
1959.6,0.30196
1953.82,0.30248
1948.03,0.30505
1942.24,0.30795
1936.46,0.31157
1930.67,0.31502
1924.89,0.31830
1919.1,0.32003
1913.31,0.32145
1907.53,0.32208
1901.74,0.32229
1895.95,0.32199
1890.17,0.32080
1884.38,0.31999
1878.6,0.31851
1872.81,0.31715
1867.02,0.31546
1861.24,0.31313
1855.45,0.31062
1849.66,0.30827
1843.88,0.30507
1838.09,0.30129
1832.31,0.29695
1826.52,0.29187
1820.73,0.28627
1814.95,0.27941
1809.16,0.27194
1803.37,0.26282
1797.59,0.25291
1791.8,0.24214
1786.02,0.22928
1780.23,0.21241
1774.44,0.18892
1768.66,0.15768
1762.87,0.12673
1757.08,0.10294
1751.3,0.08993
1745.51,0.08135
1739.73,0.07772
1733.94,0.07828
1728.15,0.08324
1722.37,0.08823
1716.58,0.09101
1710.79,0.08936
1705.01,0.08389
1699.22,0.07546
1693.44,0.06524
1687.65,0.05738
1681.86,0.05001
1676.08,0.04701
1670.29,0.04559
1664.5,0.04603
1658.72,0.04851
1652.93,0.05069
1647.15,0.05380
1641.36,0.05531
1635.57,0.05583
1629.79,0.05510
1624,0.05525
1618.21,0.05574
1612.43,0.05621
1606.64,0.05617
1600.86,0.05614
1595.07,0.05685
1589.28,0.06116
1583.5,0.06957
1577.71,0.07788
1571.93,0.08413
1566.14,0.08687
1560.35,0.08604
1554.57,0.08404
1548.78,0.08199
1542.99,0.08038
1537.21,0.07793
1531.42,0.07513
1525.64,0.06944
1519.85,0.06031
1514.06,0.05355
1508.28,0.05202
1502.49,0.05510
1496.7,0.06145
1490.92,0.06617
1485.13,0.06712
1479.35,0.06262
1473.56,0.05481
1467.77,0.04901
1461.99,0.04865
1456.2,0.04959
1450.41,0.05175
1444.63,0.05363
1438.84,0.05337
1433.06,0.05090
1427.27,0.05022
1421.48,0.05224
1415.7,0.05604
1409.91,0.05933
1404.12,0.06069
1398.34,0.06033
1392.55,0.05778
1386.77,0.05364
1380.98,0.04972
1375.19,0.04843
1369.41,0.04959
1363.62,0.05140
1357.83,0.05290
1352.05,0.05422
1346.26,0.05357
1340.48,0.05168
1334.69,0.05024
1328.9,0.05075
1323.12,0.05108
1317.33,0.05278
1311.54,0.05482
1305.76,0.05710
1299.97,0.05774
1294.19,0.05652
1288.4,0.05398
1282.61,0.05108
1276.83,0.04961
1271.04,0.04819
1265.26,0.04752
1259.47,0.04802
1253.68,0.04802
1247.9,0.04711
1242.11,0.04653
1236.32,0.04655
1230.54,0.04758
1224.75,0.04865
1218.97,0.05078
1213.18,0.05252
1207.39,0.05341
1201.61,0.05302
1195.82,0.05281
1190.03,0.05197
1184.25,0.04849
1178.46,0.04380
1172.68,0.03924
1166.89,0.04001
1161.1,0.04284
1155.32,0.04556
1149.53,0.04416
1143.74,0.04319
1137.96,0.04003
1132.17,0.03765
1126.39,0.03846
1120.6,0.04130
1114.81,0.04209
1109.03,0.04421
1103.24,0.04486
1097.45,0.04548
1091.67,0.04339
1085.88,0.04131
1080.1,0.04255
1074.31,0.04559
1068.52,0.04870
1062.74,0.05356
1056.95,0.05937
1051.16,0.06048
1045.38,0.06052
1039.59,0.06147
1033.81,0.06619
1028.02,0.06830
1022.23,0.07044
1016.45,0.07258
1010.66,0.07465
1004.87,0.07677
999.089,0.07933
993.302,0.08098
987.516,0.08649
981.73,0.09575
975.944,0.10265
970.157,0.10661
964.371,0.11165
958.585,0.11930
952.799,0.12758
947.013,0.13212
941.226,0.13416
935.44,0.13395
929.654,0.13378
923.868,0.13395
918.081,0.13205
912.295,0.12781
906.509,0.12240
900.723,0.11600
894.937,0.11620
889.15,0.12327
883.364,0.12853
877.578,0.13069
871.792,0.13184
866.005,0.13212
860.219,0.13073
854.433,0.12972
848.647,0.13010
842.86,0.12773
837.074,0.12477
831.288,0.12350
825.502,0.12361
819.716,0.12357
813.929,0.12279
808.143,0.12292
802.357,0.12267
796.571,0.12241
790.784,0.12006
784.998,0.11765
779.212,0.11473
773.426,0.11241
767.64,0.10944
761.853,0.10578
756.067,0.10175
750.281,0.09813
744.495,0.09575
738.708,0.09322
732.922,0.09061
727.136,0.08782
721.35,0.08575
715.563,0.08245
709.777,0.08210
703.991,0.08132
698.205,0.08065
692.419,0.08016
686.632,0.07789
680.846,0.07503
675.06,0.07119
669.274,0.07130
663.487,0.07221
657.701,0.07377
651.915,0.07209
646.129,0.07028
640.343,0.06918
634.556,0.06638
628.77,0.06823
622.984,0.06400
617.198,0.06575
611.411,0.06701
605.625,0.06859
599.839,0.06828