File: 01_Data/Luan_Panel/FTIR/IS/Luan_Panel_IS_T_220914_R6.dpt
7497.02,0.02474
7491.24,0.02958
7485.45,0.02489
7479.66,0.03580
7473.88,0.02052
7468.09,0.01952
7462.3,0.02405
7456.52,0.02274
7450.73,0.03386
7444.95,0.02096
7439.16,0.03719
7433.37,0.02308
7427.59,0.03439
7421.8,0.02840
7416.01,0.03021
7410.23,0.02775
7404.44,0.02580
7398.66,0.02828
7392.87,0.02133
7387.08,0.01928
7381.3,0.02461
7375.51,0.02348
7369.73,0.02433
7363.94,0.02680
7358.15,0.02363
7352.37,0.02540
7346.58,0.02344
7340.79,0.02845
7335.01,0.02359
7329.22,0.02227
7323.44,0.03007
7317.65,0.03571
7311.86,0.02343
7306.08,0.02083
7300.29,0.02742
7294.5,0.02760
7288.72,0.01926
7282.93,0.01934
7277.15,0.02654
7271.36,0.03139
7265.57,0.02937
7259.79,0.02808
7254,0.03235
7248.21,0.02647
7242.43,0.02944
7236.64,0.02652
7230.86,0.02427
7225.07,0.02753
7219.28,0.02595
7213.5,0.02136
7207.71,0.02787
7201.92,0.02666
7196.14,0.01992
7190.35,0.02611
7184.57,0.02214
7178.78,0.02750
7172.99,0.02043
7167.21,0.01984
7161.42,0.02077
7155.63,0.03097
7149.85,0.02158
7144.06,0.02793
7138.28,0.02393
7132.49,0.02225
7126.7,0.02857
7120.92,0.02586
7115.13,0.02175
7109.34,0.01525
7103.56,0.02363
7097.77,0.01516
7091.99,0.02576
7086.2,0.02997
7080.41,0.02731
7074.63,0.02628
7068.84,0.02021
7063.06,0.02318
7057.27,0.02272
7051.48,0.02370
7045.7,0.01717
7039.91,0.02158
7034.12,0.02393
7028.34,0.02361
7022.55,0.02271
7016.77,0.01873
7010.98,0.02664
7005.19,0.02189
6999.41,0.02956
6993.62,0.02892
6987.83,0.02364
6982.05,0.01723
6976.26,0.02715
6970.48,0.01832
6964.69,0.02736
6958.9,0.02289
6953.12,0.02891
6947.33,0.02634
6941.54,0.02401
6935.76,0.02197
6929.97,0.02182
6924.19,0.02557
6918.4,0.02234
6912.61,0.02271
6906.83,0.02152
6901.04,0.02537
6895.25,0.02947
6889.47,0.02235
6883.68,0.02060
6877.9,0.02259
6872.11,0.02859
6866.32,0.02309
6860.54,0.02069
6854.75,0.02728
6848.96,0.01915
6843.18,0.02470
6837.39,0.01941
6831.61,0.02186
6825.82,0.02351
6820.03,0.02402
6814.25,0.01792
6808.46,0.02607
6802.67,0.02175
6796.89,0.02528
6791.1,0.02613
6785.32,0.02235
6779.53,0.02122
6773.74,0.02724
6767.96,0.02522
6762.17,0.02506
6756.38,0.02488
6750.6,0.02005
6744.81,0.02005
6739.03,0.02645
6733.24,0.02625
6727.45,0.02418
6721.67,0.01964
6715.88,0.02634
6710.1,0.02560
6704.31,0.02462
6698.52,0.02673
6692.74,0.02130
6686.95,0.02346
6681.16,0.02287
6675.38,0.02544
6669.59,0.02651
6663.81,0.02371
6658.02,0.02654
6652.23,0.02223
6646.45,0.02011
6640.66,0.02245
6634.87,0.01960
6629.09,0.02303
6623.3,0.02082
6617.52,0.02576
6611.73,0.02358
6605.94,0.02253
6600.16,0.02521
6594.37,0.02535
6588.58,0.02438
6582.8,0.02433
6577.01,0.02027
6571.23,0.02232
6565.44,0.02150
6559.65,0.02565
6553.87,0.01959
6548.08,0.02314
6542.29,0.02765
6536.51,0.02497
6530.72,0.02014
6524.94,0.02110
6519.15,0.01887
6513.36,0.02295
6507.58,0.01704
6501.79,0.01865
6496,0.02234
6490.22,0.02159
6484.43,0.02180
6478.65,0.02305
6472.86,0.01979
6467.07,0.02222
6461.29,0.02000
6455.5,0.02456
6449.71,0.02360
6443.93,0.02615
6438.14,0.02308
6432.36,0.02442
6426.57,0.02443
6420.78,0.02589
6415,0.01962
6409.21,0.02258
6403.43,0.02397
6397.64,0.02445
6391.85,0.01867
6386.07,0.02289
6380.28,0.02078
6374.49,0.02556
6368.71,0.02355
6362.92,0.02131
6357.14,0.02318
6351.35,0.01949
6345.56,0.02151
6339.78,0.02287
6333.99,0.02232
6328.2,0.02230
6322.42,0.02379
6316.63,0.02008
6310.85,0.02177
6305.06,0.02215
6299.27,0.02227
6293.49,0.02029
6287.7,0.02153
6281.91,0.02158
6276.13,0.01938
6270.34,0.02146
6264.56,0.02019
6258.77,0.02360
6252.98,0.02326
6247.2,0.02283
6241.41,0.01972
6235.62,0.02573
6229.84,0.02180
6224.05,0.02173
6218.27,0.01891
6212.48,0.02296
6206.69,0.02418
6200.91,0.01950
6195.12,0.01960
6189.33,0.02354
6183.55,0.02237
6177.76,0.02258
6171.98,0.02448
6166.19,0.02326
6160.4,0.02623
6154.62,0.02225
6148.83,0.02317
6143.04,0.02188
6137.26,0.01981
6131.47,0.01995
6125.69,0.02020
6119.9,0.01873
6114.11,0.01871
6108.33,0.02060
6102.54,0.02561
6096.76,0.02372
6090.97,0.01978
6085.18,0.02172
6079.4,0.02210
6073.61,0.02092
6067.82,0.02044
6062.04,0.02350
6056.25,0.02452
6050.47,0.02337
6044.68,0.02202
6038.89,0.02254
6033.11,0.02147
6027.32,0.02473
6021.53,0.02252
6015.75,0.02093
6009.96,0.02368
6004.18,0.02220
5998.39,0.02137
5992.6,0.02249
5986.82,0.01850
5981.03,0.02162
5975.24,0.02268
5969.46,0.02274
5963.67,0.01992
5957.89,0.02028
5952.1,0.02441
5946.31,0.02057
5940.53,0.02033
5934.74,0.02177
5928.95,0.02015
5923.17,0.02249
5917.38,0.01754
5911.6,0.01942
5905.81,0.02095
5900.02,0.02172
5894.24,0.02212
5888.45,0.02109
5882.66,0.02054
5876.88,0.02042
5871.09,0.02244
5865.31,0.02118
5859.52,0.02156
5853.73,0.02225
5847.95,0.02124
5842.16,0.02182
5836.37,0.02252
5830.59,0.02089
5824.8,0.02106
5819.02,0.02026
5813.23,0.02072
5807.44,0.02126
5801.66,0.02130
5795.87,0.02053
5790.08,0.02257
5784.3,0.02121
5778.51,0.01970
5772.73,0.02266
5766.94,0.02272
5761.15,0.02425
5755.37,0.02070
5749.58,0.02093
5743.8,0.02347
5738.01,0.02274
5732.22,0.02173
5726.44,0.02456
5720.65,0.02289
5714.86,0.02404
5709.08,0.02154
5703.29,0.02218
5697.51,0.02177
5691.72,0.02213
5685.93,0.02229
5680.15,0.02405
5674.36,0.02266
5668.57,0.02296
5662.79,0.02129
5657,0.02044
5651.22,0.02199
5645.43,0.02229
5639.64,0.02103
5633.86,0.02279
5628.07,0.02170
5622.28,0.02432
5616.5,0.02244
5610.71,0.02040
5604.93,0.02265
5599.14,0.02323
5593.35,0.02374
5587.57,0.02200
5581.78,0.02098
5575.99,0.02077
5570.21,0.02227
5564.42,0.02127
5558.64,0.02047
5552.85,0.02210
5547.06,0.02174
5541.28,0.02033
5535.49,0.02150
5529.7,0.02284
5523.92,0.02263
5518.13,0.02162
5512.35,0.02066
5506.56,0.02250
5500.77,0.02479
5494.99,0.02078
5489.2,0.02220
5483.41,0.02183
5477.63,0.02196
5471.84,0.02370
5466.06,0.02220
5460.27,0.02199
5454.48,0.02211
5448.7,0.02327
5442.91,0.02192
5437.13,0.02283
5431.34,0.02314
5425.55,0.02273
5419.77,0.02122
5413.98,0.02124
5408.19,0.02320
5402.41,0.02233
5396.62,0.02314
5390.84,0.02275
5385.05,0.02189
5379.26,0.01961
5373.48,0.02067
5367.69,0.02265
5361.9,0.02287
5356.12,0.02226
5350.33,0.02278
5344.55,0.02193
5338.76,0.02260
5332.97,0.02207
5327.19,0.02136
5321.4,0.02259
5315.61,0.02370
5309.83,0.02194
5304.04,0.02244
5298.26,0.02443
5292.47,0.02228
5286.68,0.02114
5280.9,0.02248
5275.11,0.02363
5269.32,0.02266
5263.54,0.02210
5257.75,0.02300
5251.97,0.02075
5246.18,0.02104
5240.39,0.02022
5234.61,0.02295
5228.82,0.02246
5223.03,0.02117
5217.25,0.02165
5211.46,0.02350
5205.68,0.02374
5199.89,0.02227
5194.1,0.02223
5188.32,0.02148
5182.53,0.01986
5176.74,0.02093
5170.96,0.02202
5165.17,0.02303
5159.39,0.02194
5153.6,0.02245
5147.81,0.02202
5142.03,0.02306
5136.24,0.02384
5130.46,0.02295
5124.67,0.02302
5118.88,0.02225
5113.1,0.02188
5107.31,0.02133
5101.52,0.02238
5095.74,0.02252
5089.95,0.02319
5084.17,0.02227
5078.38,0.02217
5072.59,0.02144
5066.81,0.02293
5061.02,0.02238
5055.23,0.02201
5049.45,0.02247
5043.66,0.02244
5037.88,0.02271
5032.09,0.02251
5026.3,0.02258
5020.52,0.02212
5014.73,0.02290
5008.94,0.02310
5003.16,0.02276
4997.37,0.02337
4991.59,0.02174
4985.8,0.02333
4980.01,0.02397
4974.23,0.02371
4968.44,0.02258
4962.65,0.02292
4956.87,0.02204
4951.08,0.02255
4945.3,0.02101
4939.51,0.02291
4933.72,0.02241
4927.94,0.02251
4922.15,0.02316
4916.36,0.02211
4910.58,0.02261
4904.79,0.02273
4899.01,0.02175
4893.22,0.02222
4887.43,0.02347
4881.65,0.02199
4875.86,0.02313
4870.07,0.02189
4864.29,0.02228
4858.5,0.02255
4852.72,0.02193
4846.93,0.02256
4841.14,0.02297
4835.36,0.02292
4829.57,0.02230
4823.78,0.02315
4818,0.02290
4812.21,0.02287
4806.43,0.02261
4800.64,0.02084
4794.85,0.02230
4789.07,0.02276
4783.28,0.02348
4777.5,0.02287
4771.71,0.02341
4765.92,0.02252
4760.14,0.02237
4754.35,0.02284
4748.56,0.02345
4742.78,0.02061
4736.99,0.02333
4731.21,0.02284
4725.42,0.02267
4719.63,0.02206
4713.85,0.02235
4708.06,0.02218
4702.27,0.02131
4696.49,0.02317
4690.7,0.02232
4684.92,0.02223
4679.13,0.02222
4673.34,0.02235
4667.56,0.02143
4661.77,0.02231
4655.98,0.02257
4650.2,0.02262
4644.41,0.02159
4638.63,0.02174
4632.84,0.02257
4627.05,0.02261
4621.27,0.02286
4615.48,0.02198
4609.69,0.02153
4603.91,0.02223
4598.12,0.02217
4592.34,0.02196
4586.55,0.02215
4580.76,0.02356
4574.98,0.02140
4569.19,0.02261
4563.4,0.02266
4557.62,0.02301
4551.83,0.02323
4546.05,0.02327
4540.26,0.02150
4534.47,0.02233
4528.69,0.02192
4522.9,0.02214
4517.11,0.02292
4511.33,0.02162
4505.54,0.02220
4499.76,0.02313
4493.97,0.02268
4488.18,0.02229
4482.4,0.02228
4476.61,0.02236
4470.83,0.02282
4465.04,0.02290
4459.25,0.02257
4453.47,0.02244
4447.68,0.02313
4441.89,0.02282
4436.11,0.02284
4430.32,0.02236
4424.54,0.02203
4418.75,0.02290
4412.96,0.02234
4407.18,0.02249
4401.39,0.02236
4395.6,0.02255
4389.82,0.02225
4384.03,0.02123
4378.25,0.02260
4372.46,0.02178
4366.67,0.02246
4360.89,0.02190
4355.1,0.02203
4349.31,0.02224
4343.53,0.02211
4337.74,0.02192
4331.96,0.02168
4326.17,0.02216
4320.38,0.02312
4314.6,0.02254
4308.81,0.02283
4303.02,0.02232
4297.24,0.02297
4291.45,0.02234
4285.67,0.02268
4279.88,0.02310
4274.09,0.02254
4268.31,0.02213
4262.52,0.02210
4256.73,0.02255
4250.95,0.02266
4245.16,0.02212
4239.38,0.02215
4233.59,0.02306
4227.8,0.02282
4222.02,0.02219
4216.23,0.02283
4210.44,0.02287
4204.66,0.02282
4198.87,0.02272
4193.09,0.02273
4187.3,0.02297
4181.51,0.02287
4175.73,0.02337
4169.94,0.02335
4164.16,0.02238
4158.37,0.02307
4152.58,0.02261
4146.8,0.02216
4141.01,0.02266
4135.22,0.02276
4129.44,0.02291
4123.65,0.02272
4117.87,0.02279
4112.08,0.02229
4106.29,0.02320
4100.51,0.02281
4094.72,0.02280
4088.93,0.02228
4083.15,0.02226
4077.36,0.02285
4071.58,0.02268
4065.79,0.02277
4060,0.02208
4054.22,0.02287
4048.43,0.02287
4042.64,0.02258
4036.86,0.02276
4031.07,0.02241
4025.29,0.02270
4019.5,0.02252
4013.71,0.02263
4007.93,0.02290
4002.14,0.02262
3996.35,0.02311
3990.57,0.02278
3984.78,0.02223
3979,0.02240
3973.21,0.02273
3967.42,0.02311
3961.64,0.02280
3955.85,0.02276
3950.06,0.02237
3944.28,0.02271
3938.49,0.02243
3932.71,0.02368
3926.92,0.02270
3921.13,0.02248
3915.35,0.02365
3909.56,0.02340
3903.77,0.02237
3897.99,0.02232
3892.2,0.02277
3886.42,0.02250
3880.63,0.02280
3874.84,0.02249
3869.06,0.02267
3863.27,0.02280
3857.48,0.02400
3851.7,0.02223
3845.91,0.02326
3840.13,0.02332
3834.34,0.02282
3828.55,0.02288
3822.77,0.02257
3816.98,0.02241
3811.2,0.02272
3805.41,0.02346
3799.62,0.02278
3793.84,0.02293
3788.05,0.02273
3782.26,0.02275
3776.48,0.02316
3770.69,0.02288
3764.91,0.02304
3759.12,0.02269
3753.33,0.02249
3747.55,0.02342
3741.76,0.02215
3735.97,0.02298
3730.19,0.02247
3724.4,0.02250
3718.62,0.02244
3712.83,0.02251
3707.04,0.02226
3701.26,0.02276
3695.47,0.02241
3689.68,0.02223
3683.9,0.02276
3678.11,0.02318
3672.33,0.02305
3666.54,0.02230
3660.75,0.02256
3654.97,0.02196
3649.18,0.02179
3643.39,0.02192
3637.61,0.02195
3631.82,0.02150
3626.04,0.02208
3620.25,0.02211
3614.46,0.02190
3608.68,0.02230
3602.89,0.02188
3597.1,0.02190
3591.32,0.02200
3585.53,0.02211
3579.75,0.02199
3573.96,0.02128
3568.17,0.02135
3562.39,0.02141
3556.6,0.02185
3550.81,0.02212
3545.03,0.02139
3539.24,0.02095
3533.46,0.02047
3527.67,0.02053
3521.88,0.02075
3516.1,0.02127
3510.31,0.02166
3504.53,0.02121
3498.74,0.02137
3492.95,0.02228
3487.17,0.02121
3481.38,0.02146
3475.59,0.02071
3469.81,0.02081
3464.02,0.02087
3458.24,0.02115
3452.45,0.02045
3446.66,0.02096
3440.88,0.02146
3435.09,0.02076
3429.3,0.02088
3423.52,0.02109
3417.73,0.02069
3411.95,0.02132
3406.16,0.02037
3400.37,0.01997
3394.59,0.02072
3388.8,0.02046
3383.01,0.02112
3377.23,0.02112
3371.44,0.02106
3365.66,0.02105
3359.87,0.02013
3354.08,0.02011
3348.3,0.02037
3342.51,0.01971
3336.72,0.02057
3330.94,0.01998
3325.15,0.01956
3319.37,0.02086
3313.58,0.02097
3307.79,0.02080
3302.01,0.02091
3296.22,0.02033
3290.43,0.02059
3284.65,0.01985
3278.86,0.01994
3273.08,0.02045
3267.29,0.02102
3261.5,0.02123
3255.72,0.02062
3249.93,0.02090
3244.14,0.02084
3238.36,0.02128
3232.57,0.02104
3226.79,0.02108
3221,0.02048
3215.21,0.02095
3209.43,0.02133
3203.64,0.02092
3197.86,0.02117
3192.07,0.02101
3186.28,0.02146
3180.5,0.02118
3174.71,0.02171
3168.92,0.02131
3163.14,0.02079
3157.35,0.02117
3151.57,0.02136
3145.78,0.02114
3139.99,0.02064
3134.21,0.02043
3128.42,0.02016
3122.63,0.02104
3116.85,0.02085
3111.06,0.02095
3105.28,0.02084
3099.49,0.02135
3093.7,0.02078
3087.92,0.02094
3082.13,0.02046
3076.34,0.02045
3070.56,0.02123
3064.77,0.02131
3058.99,0.02097
3053.2,0.02059
3047.41,0.02039
3041.63,0.02067
3035.84,0.02115
3030.05,0.02069
3024.27,0.02056
3018.48,0.02058
3012.7,0.02056
3006.91,0.02054
3001.12,0.02055
2995.34,0.02052
2989.55,0.02077
2983.76,0.01992
2977.98,0.02049
2972.19,0.02005
2966.41,0.01938
2960.62,0.01938
2954.83,0.01968
2949.05,0.01990
2943.26,0.02025
2937.47,0.01961
2931.69,0.01918
2925.9,0.02005
2920.12,0.02037
2914.33,0.02068
2908.54,0.02086
2902.76,0.02087
2896.97,0.02026
2891.18,0.02025
2885.4,0.02094
2879.61,0.02081
2873.83,0.02037
2868.04,0.02052
2862.25,0.02070
2856.47,0.02057
2850.68,0.02062
2844.9,0.02091
2839.11,0.02141
2833.32,0.02143
2827.54,0.02163
2821.75,0.02148
2815.96,0.02069
2810.18,0.02144
2804.39,0.02140
2798.61,0.02137
2792.82,0.02107
2787.03,0.02115
2781.25,0.02171
2775.46,0.02126
2769.67,0.02091
2763.89,0.02122
2758.1,0.02138
2752.32,0.02108
2746.53,0.02138
2740.74,0.02160
2734.96,0.02133
2729.17,0.02140
2723.38,0.02126
2717.6,0.02164
2711.81,0.02152
2706.03,0.02120
2700.24,0.02124
2694.45,0.02154
2688.67,0.02182
2682.88,0.02123
2677.09,0.02166
2671.31,0.02141
2665.52,0.02158
2659.74,0.02119
2653.95,0.02122
2648.16,0.02122
2642.38,0.02140
2636.59,0.02138
2630.8,0.02181
2625.02,0.02186
2619.23,0.02128
2613.45,0.02159
2607.66,0.02147
2601.87,0.02130
2596.09,0.02171
2590.3,0.02172
2584.51,0.02144
2578.73,0.02152
2572.94,0.02117
2567.16,0.02167
2561.37,0.02153
2555.58,0.02115
2549.8,0.02118
2544.01,0.02151
2538.23,0.02146
2532.44,0.02153
2526.65,0.02122
2520.87,0.02085
2515.08,0.02133
2509.29,0.02141
2503.51,0.02129
2497.72,0.02160
2491.94,0.02073
2486.15,0.02133
2480.36,0.02147
2474.58,0.02140
2468.79,0.02144
2463,0.02094
2457.22,0.02161
2451.43,0.02130
2445.65,0.02153
2439.86,0.02118
2434.07,0.02134
2428.29,0.02131
2422.5,0.02160
2416.71,0.02149
2410.93,0.02202
2405.14,0.02109
2399.36,0.02133
2393.57,0.02174
2387.78,0.02114
2382,0.02124
2376.21,0.02112
2370.42,0.02147
2364.64,0.02121
2358.85,0.02155
2353.07,0.02136
2347.28,0.02115
2341.49,0.02127
2335.71,0.02124
2329.92,0.02081
2324.13,0.02155
2318.35,0.02101
2312.56,0.02118
2306.78,0.02119
2300.99,0.02098
2295.2,0.02119
2289.42,0.02143
2283.63,0.02146
2277.84,0.02164
2272.06,0.02127
2266.27,0.02121
2260.49,0.02146
2254.7,0.02126
2248.91,0.02113
2243.13,0.02106
2237.34,0.02166
2231.56,0.02100
2225.77,0.02130
2219.98,0.02136
2214.2,0.02125
2208.41,0.02129
2202.62,0.02139
2196.84,0.02158
2191.05,0.02156
2185.27,0.02095
2179.48,0.02100
2173.69,0.02128
2167.91,0.02134
2162.12,0.02109
2156.33,0.02109
2150.55,0.02124
2144.76,0.02123
2138.98,0.02137
2133.19,0.02142
2127.4,0.02123
2121.62,0.02105
2115.83,0.02135
2110.04,0.02137
2104.26,0.02120
2098.47,0.02089
2092.69,0.02129
2086.9,0.02104
2081.11,0.02132
2075.33,0.02138
2069.54,0.02109
2063.75,0.02148
2057.97,0.02128
2052.18,0.02118
2046.4,0.02117
2040.61,0.02137
2034.82,0.02125
2029.04,0.02119
2023.25,0.02089
2017.46,0.02153
2011.68,0.02115
2005.89,0.02116
2000.11,0.02055
1994.32,0.02112
1988.53,0.02107
1982.75,0.02061
1976.96,0.02105
1971.17,0.02120
1965.39,0.02101
1959.6,0.02057
1953.82,0.02093
1948.03,0.02116
1942.24,0.02127
1936.46,0.02088
1930.67,0.02088
1924.89,0.02112
1919.1,0.02076
1913.31,0.02069
1907.53,0.02113
1901.74,0.02056
1895.95,0.02053
1890.17,0.02071
1884.38,0.02062
1878.6,0.02058
1872.81,0.02091
1867.02,0.02085
1861.24,0.02092
1855.45,0.02046
1849.66,0.02060
1843.88,0.02023
1838.09,0.02055
1832.31,0.02044
1826.52,0.02061
1820.73,0.02028
1814.95,0.02031
1809.16,0.02016
1803.37,0.01991
1797.59,0.01969
1791.8,0.01967
1786.02,0.01922
1780.23,0.01960
1774.44,0.01885
1768.66,0.01857
1762.87,0.01821
1757.08,0.01778
1751.3,0.01767
1745.51,0.01773
1739.73,0.01878
1733.94,0.01994
1728.15,0.02055
1722.37,0.02118
1716.58,0.02114
1710.79,0.02079
1705.01,0.02010
1699.22,0.02003
1693.44,0.01980
1687.65,0.01935
1681.86,0.01868
1676.08,0.01869
1670.29,0.01856
1664.5,0.01870
1658.72,0.01820
1652.93,0.01872
1647.15,0.01852
1641.36,0.01854
1635.57,0.01871
1629.79,0.01869
1624,0.01931
1618.21,0.01930
1612.43,0.01934
1606.64,0.01899
1600.86,0.01892
1595.07,0.01900
1589.28,0.01889
1583.5,0.01821
1577.71,0.01838
1571.93,0.01878
1566.14,0.01788
1560.35,0.01829
1554.57,0.01810
1548.78,0.01821
1542.99,0.01844
1537.21,0.01843
1531.42,0.01862
1525.64,0.01868
1519.85,0.01863
1514.06,0.01870
1508.28,0.01891
1502.49,0.01893
1496.7,0.01868
1490.92,0.01858
1485.13,0.01860
1479.35,0.01853
1473.56,0.01856
1467.77,0.01864
1461.99,0.01844
1456.2,0.01880
1450.41,0.01890
1444.63,0.01941
1438.84,0.01935
1433.06,0.01884
1427.27,0.01868
1421.48,0.01864
1415.7,0.01856
1409.91,0.01836
1404.12,0.01813
1398.34,0.01826
1392.55,0.01811
1386.77,0.01830
1380.98,0.01858
1375.19,0.01845
1369.41,0.01820
1363.62,0.01787
1357.83,0.01789
1352.05,0.01822
1346.26,0.01819
1340.48,0.01760
1334.69,0.01803
1328.9,0.01761
1323.12,0.01748
1317.33,0.01772
1311.54,0.01708
1305.76,0.01727
1299.97,0.01740
1294.19,0.01736
1288.4,0.01819
1282.61,0.01895
1276.83,0.01928
1271.04,0.01928
1265.26,0.01966
1259.47,0.02007
1253.68,0.01979
1247.9,0.01999
1242.11,0.02037
1236.32,0.01977
1230.54,0.01979
1224.75,0.01969
1218.97,0.01884
1213.18,0.01853
1207.39,0.01901
1201.61,0.01892
1195.82,0.01824
1190.03,0.01865
1184.25,0.01865
1178.46,0.01777
1172.68,0.01779
1166.89,0.01787
1161.1,0.01738
1155.32,0.01760
1149.53,0.01773
1143.74,0.01747
1137.96,0.01801
1132.17,0.01780
1126.39,0.01802
1120.6,0.01882
1114.81,0.01894
1109.03,0.01872
1103.24,0.01789
1097.45,0.01856
1091.67,0.01836
1085.88,0.01737
1080.1,0.01783
1074.31,0.01925
1068.52,0.01924
1062.74,0.01944
1056.95,0.01937
1051.16,0.02039
1045.38,0.02008
1039.59,0.01988
1033.81,0.01952
1028.02,0.01906
1022.23,0.01902
1016.45,0.01919
1010.66,0.01996
1004.87,0.02120
999.089,0.02137
993.302,0.02124
987.516,0.02136
981.73,0.02062
975.944,0.02029
970.157,0.02038
964.371,0.02041
958.585,0.02044
952.799,0.01980
947.013,0.02005
941.226,0.01968
935.44,0.01948
929.654,0.01951
923.868,0.02008
918.081,0.01919
912.295,0.01910
906.509,0.01895
900.723,0.01879
894.937,0.01971
889.15,0.01954
883.364,0.01919
877.578,0.01930
871.792,0.01866
866.005,0.01844
860.219,0.01909
854.433,0.01944
848.647,0.01900
842.86,0.01857
837.074,0.01880
831.288,0.01836
825.502,0.01909
819.716,0.01950
813.929,0.01943
808.143,0.01970
802.357,0.01908
796.571,0.01901
790.784,0.01908
784.998,0.01907
779.212,0.01806
773.426,0.01834
767.64,0.01754
761.853,0.01951
756.067,0.01845
750.281,0.01754
744.495,0.01788
738.708,0.01812
732.922,0.01827
727.136,0.01788
721.35,0.01811
715.563,0.01724
709.777,0.01737
703.991,0.01818
698.205,0.01757
692.419,0.01768
686.632,0.01685
680.846,0.01681
675.06,0.01685
669.274,0.01882
663.487,0.01818
657.701,0.01737
651.915,0.01693
646.129,0.01653
640.343,0.01546
634.556,0.01685
628.77,0.01703
622.984,0.01631
617.198,0.01563
611.411,0.01422
605.625,0.01614
599.839,0.01724