File: 01_Data/Luan_Panel/FTIR/IS/Luan_Panel_IS_T_220914_R4.dpt
7497.02,0.01995
7491.24,0.02612
7485.45,0.02398
7479.66,0.03050
7473.88,0.01831
7468.09,0.02635
7462.3,0.02880
7456.52,0.02296
7450.73,0.02996
7444.95,0.03034
7439.16,0.01980
7433.37,0.02569
7427.59,0.01889
7421.8,0.02798
7416.01,0.03039
7410.23,0.03198
7404.44,0.02128
7398.66,0.02048
7392.87,0.01883
7387.08,0.03109
7381.3,0.02404
7375.51,0.02063
7369.73,0.03047
7363.94,0.02851
7358.15,0.02247
7352.37,0.02713
7346.58,0.03053
7340.79,0.01808
7335.01,0.02214
7329.22,0.02836
7323.44,0.01575
7317.65,0.03052
7311.86,0.03537
7306.08,0.02757
7300.29,0.01780
7294.5,0.01993
7288.72,0.02494
7282.93,0.03208
7277.15,0.03049
7271.36,0.02133
7265.57,0.02250
7259.79,0.01539
7254,0.02266
7248.21,0.02395
7242.43,0.02106
7236.64,0.01954
7230.86,0.01564
7225.07,0.02700
7219.28,0.02653
7213.5,0.02179
7207.71,0.02031
7201.92,0.01731
7196.14,0.02107
7190.35,0.02818
7184.57,0.02468
7178.78,0.01967
7172.99,0.02623
7167.21,0.02799
7161.42,0.02539
7155.63,0.02448
7149.85,0.02692
7144.06,0.02314
7138.28,0.02842
7132.49,0.02650
7126.7,0.02682
7120.92,0.02338
7115.13,0.02150
7109.34,0.02938
7103.56,0.02903
7097.77,0.02687
7091.99,0.02614
7086.2,0.02764
7080.41,0.02598
7074.63,0.02869
7068.84,0.02265
7063.06,0.02475
7057.27,0.02219
7051.48,0.02225
7045.7,0.01785
7039.91,0.02836
7034.12,0.03045
7028.34,0.02388
7022.55,0.02941
7016.77,0.03344
7010.98,0.02800
7005.19,0.02516
6999.41,0.02247
6993.62,0.01840
6987.83,0.02577
6982.05,0.02408
6976.26,0.02599
6970.48,0.01870
6964.69,0.02979
6958.9,0.02282
6953.12,0.02517
6947.33,0.02619
6941.54,0.02563
6935.76,0.02550
6929.97,0.02082
6924.19,0.02966
6918.4,0.02096
6912.61,0.02088
6906.83,0.02588
6901.04,0.02580
6895.25,0.01721
6889.47,0.02450
6883.68,0.02485
6877.9,0.02849
6872.11,0.02216
6866.32,0.02505
6860.54,0.02502
6854.75,0.02985
6848.96,0.02282
6843.18,0.01926
6837.39,0.02507
6831.61,0.02880
6825.82,0.02474
6820.03,0.01997
6814.25,0.02245
6808.46,0.02554
6802.67,0.02802
6796.89,0.02439
6791.1,0.02640
6785.32,0.01984
6779.53,0.02454
6773.74,0.02611
6767.96,0.02285
6762.17,0.03175
6756.38,0.02553
6750.6,0.02427
6744.81,0.02176
6739.03,0.02814
6733.24,0.02303
6727.45,0.02380
6721.67,0.02578
6715.88,0.02813
6710.1,0.02036
6704.31,0.02056
6698.52,0.02508
6692.74,0.02465
6686.95,0.02358
6681.16,0.02863
6675.38,0.02400
6669.59,0.01829
6663.81,0.02062
6658.02,0.02151
6652.23,0.02372
6646.45,0.02241
6640.66,0.01988
6634.87,0.02608
6629.09,0.02230
6623.3,0.02033
6617.52,0.01905
6611.73,0.02138
6605.94,0.01932
6600.16,0.02099
6594.37,0.01995
6588.58,0.02409
6582.8,0.02237
6577.01,0.02332
6571.23,0.02477
6565.44,0.01927
6559.65,0.02309
6553.87,0.02439
6548.08,0.02759
6542.29,0.02382
6536.51,0.02107
6530.72,0.02271
6524.94,0.02053
6519.15,0.02307
6513.36,0.02143
6507.58,0.02032
6501.79,0.02246
6496,0.02363
6490.22,0.02399
6484.43,0.02044
6478.65,0.01940
6472.86,0.02397
6467.07,0.02517
6461.29,0.02177
6455.5,0.02194
6449.71,0.01938
6443.93,0.02222
6438.14,0.01971
6432.36,0.02217
6426.57,0.02577
6420.78,0.02391
6415,0.02145
6409.21,0.02184
6403.43,0.02215
6397.64,0.02620
6391.85,0.02364
6386.07,0.02388
6380.28,0.02046
6374.49,0.02205
6368.71,0.02491
6362.92,0.02343
6357.14,0.02000
6351.35,0.01979
6345.56,0.01871
6339.78,0.02476
6333.99,0.02279
6328.2,0.02036
6322.42,0.02233
6316.63,0.02101
6310.85,0.02367
6305.06,0.02051
6299.27,0.01723
6293.49,0.02531
6287.7,0.02326
6281.91,0.02016
6276.13,0.02183
6270.34,0.02283
6264.56,0.02303
6258.77,0.02482
6252.98,0.02177
6247.2,0.02123
6241.41,0.02469
6235.62,0.02640
6229.84,0.02291
6224.05,0.02364
6218.27,0.02331
6212.48,0.02029
6206.69,0.02329
6200.91,0.02371
6195.12,0.02058
6189.33,0.02341
6183.55,0.01922
6177.76,0.01916
6171.98,0.02082
6166.19,0.02234
6160.4,0.02430
6154.62,0.02228
6148.83,0.02136
6143.04,0.02375
6137.26,0.02001
6131.47,0.02283
6125.69,0.02347
6119.9,0.02207
6114.11,0.02370
6108.33,0.02298
6102.54,0.02186
6096.76,0.02094
6090.97,0.02374
6085.18,0.02070
6079.4,0.02228
6073.61,0.01868
6067.82,0.02137
6062.04,0.02109
6056.25,0.02225
6050.47,0.02036
6044.68,0.01995
6038.89,0.02193
6033.11,0.02052
6027.32,0.02073
6021.53,0.02295
6015.75,0.02311
6009.96,0.02245
6004.18,0.02187
5998.39,0.02114
5992.6,0.02291
5986.82,0.02345
5981.03,0.02208
5975.24,0.02074
5969.46,0.02300
5963.67,0.02053
5957.89,0.02096
5952.1,0.02266
5946.31,0.02042
5940.53,0.02239
5934.74,0.02441
5928.95,0.02296
5923.17,0.02249
5917.38,0.02320
5911.6,0.02235
5905.81,0.02043
5900.02,0.01777
5894.24,0.02175
5888.45,0.02191
5882.66,0.02340
5876.88,0.02015
5871.09,0.02011
5865.31,0.02254
5859.52,0.02245
5853.73,0.02212
5847.95,0.02244
5842.16,0.02195
5836.37,0.02135
5830.59,0.02268
5824.8,0.01874
5819.02,0.02189
5813.23,0.02348
5807.44,0.02103
5801.66,0.02229
5795.87,0.02338
5790.08,0.02171
5784.3,0.02297
5778.51,0.02375
5772.73,0.02054
5766.94,0.02104
5761.15,0.02157
5755.37,0.01997
5749.58,0.02327
5743.8,0.02103
5738.01,0.02053
5732.22,0.02368
5726.44,0.02057
5720.65,0.02227
5714.86,0.02222
5709.08,0.02189
5703.29,0.02179
5697.51,0.01992
5691.72,0.02086
5685.93,0.02129
5680.15,0.02146
5674.36,0.02231
5668.57,0.02436
5662.79,0.02146
5657,0.02182
5651.22,0.02267
5645.43,0.02237
5639.64,0.02267
5633.86,0.02121
5628.07,0.02200
5622.28,0.02185
5616.5,0.02219
5610.71,0.02200
5604.93,0.02177
5599.14,0.02150
5593.35,0.02291
5587.57,0.02491
5581.78,0.02257
5575.99,0.02098
5570.21,0.02359
5564.42,0.02028
5558.64,0.02132
5552.85,0.02322
5547.06,0.01999
5541.28,0.02258
5535.49,0.02180
5529.7,0.02110
5523.92,0.02273
5518.13,0.02246
5512.35,0.02349
5506.56,0.02315
5500.77,0.02244
5494.99,0.02277
5489.2,0.02111
5483.41,0.02240
5477.63,0.02111
5471.84,0.02399
5466.06,0.02191
5460.27,0.02390
5454.48,0.02255
5448.7,0.02153
5442.91,0.02038
5437.13,0.02132
5431.34,0.02198
5425.55,0.02145
5419.77,0.02072
5413.98,0.02254
5408.19,0.02354
5402.41,0.02216
5396.62,0.02191
5390.84,0.02173
5385.05,0.02007
5379.26,0.01972
5373.48,0.02360
5367.69,0.02209
5361.9,0.02130
5356.12,0.02366
5350.33,0.02162
5344.55,0.02231
5338.76,0.02345
5332.97,0.02338
5327.19,0.02351
5321.4,0.02293
5315.61,0.02185
5309.83,0.02119
5304.04,0.02054
5298.26,0.02207
5292.47,0.02061
5286.68,0.02126
5280.9,0.02207
5275.11,0.02152
5269.32,0.02064
5263.54,0.02115
5257.75,0.02154
5251.97,0.02152
5246.18,0.02185
5240.39,0.02120
5234.61,0.02202
5228.82,0.02257
5223.03,0.02220
5217.25,0.02298
5211.46,0.02198
5205.68,0.02246
5199.89,0.02227
5194.1,0.02220
5188.32,0.02207
5182.53,0.02156
5176.74,0.02272
5170.96,0.02170
5165.17,0.02172
5159.39,0.02260
5153.6,0.02159
5147.81,0.02125
5142.03,0.02279
5136.24,0.02327
5130.46,0.02176
5124.67,0.02248
5118.88,0.02227
5113.1,0.02041
5107.31,0.02107
5101.52,0.02151
5095.74,0.02247
5089.95,0.02170
5084.17,0.02229
5078.38,0.02208
5072.59,0.02201
5066.81,0.02187
5061.02,0.02243
5055.23,0.02189
5049.45,0.02194
5043.66,0.02128
5037.88,0.02239
5032.09,0.02161
5026.3,0.02197
5020.52,0.02254
5014.73,0.02129
5008.94,0.02187
5003.16,0.02208
4997.37,0.02139
4991.59,0.02196
4985.8,0.02294
4980.01,0.02210
4974.23,0.02150
4968.44,0.02137
4962.65,0.02307
4956.87,0.02273
4951.08,0.02339
4945.3,0.02285
4939.51,0.02256
4933.72,0.02248
4927.94,0.02221
4922.15,0.02211
4916.36,0.02339
4910.58,0.02236
4904.79,0.02255
4899.01,0.02252
4893.22,0.02243
4887.43,0.02240
4881.65,0.02156
4875.86,0.02257
4870.07,0.02335
4864.29,0.02118
4858.5,0.02271
4852.72,0.02187
4846.93,0.02223
4841.14,0.02226
4835.36,0.02232
4829.57,0.02186
4823.78,0.02101
4818,0.02197
4812.21,0.02199
4806.43,0.02268
4800.64,0.02170
4794.85,0.02267
4789.07,0.02258
4783.28,0.02308
4777.5,0.02161
4771.71,0.02209
4765.92,0.02244
4760.14,0.02230
4754.35,0.02293
4748.56,0.02208
4742.78,0.02208
4736.99,0.02212
4731.21,0.02205
4725.42,0.02235
4719.63,0.02249
4713.85,0.02351
4708.06,0.02305
4702.27,0.02227
4696.49,0.02262
4690.7,0.02198
4684.92,0.02201
4679.13,0.02289
4673.34,0.02205
4667.56,0.02187
4661.77,0.02212
4655.98,0.02175
4650.2,0.02267
4644.41,0.02234
4638.63,0.02262
4632.84,0.02231
4627.05,0.02273
4621.27,0.02305
4615.48,0.02177
4609.69,0.02158
4603.91,0.02131
4598.12,0.02289
4592.34,0.02280
4586.55,0.02309
4580.76,0.02113
4574.98,0.02146
4569.19,0.02220
4563.4,0.02204
4557.62,0.02183
4551.83,0.02210
4546.05,0.02185
4540.26,0.02210
4534.47,0.02264
4528.69,0.02230
4522.9,0.02205
4517.11,0.02255
4511.33,0.02265
4505.54,0.02139
4499.76,0.02161
4493.97,0.02251
4488.18,0.02223
4482.4,0.02152
4476.61,0.02166
4470.83,0.02232
4465.04,0.02132
4459.25,0.02292
4453.47,0.02212
4447.68,0.02223
4441.89,0.02257
4436.11,0.02294
4430.32,0.02185
4424.54,0.02182
4418.75,0.02309
4412.96,0.02160
4407.18,0.02259
4401.39,0.02223
4395.6,0.02209
4389.82,0.02274
4384.03,0.02259
4378.25,0.02191
4372.46,0.02283
4366.67,0.02249
4360.89,0.02274
4355.1,0.02189
4349.31,0.02260
4343.53,0.02251
4337.74,0.02211
4331.96,0.02188
4326.17,0.02188
4320.38,0.02241
4314.6,0.02248
4308.81,0.02204
4303.02,0.02172
4297.24,0.02251
4291.45,0.02219
4285.67,0.02258
4279.88,0.02234
4274.09,0.02215
4268.31,0.02269
4262.52,0.02309
4256.73,0.02287
4250.95,0.02214
4245.16,0.02266
4239.38,0.02224
4233.59,0.02218
4227.8,0.02248
4222.02,0.02238
4216.23,0.02182
4210.44,0.02248
4204.66,0.02276
4198.87,0.02265
4193.09,0.02348
4187.3,0.02275
4181.51,0.02199
4175.73,0.02144
4169.94,0.02129
4164.16,0.02258
4158.37,0.02261
4152.58,0.02287
4146.8,0.02304
4141.01,0.02292
4135.22,0.02293
4129.44,0.02246
4123.65,0.02254
4117.87,0.02311
4112.08,0.02252
4106.29,0.02238
4100.51,0.02195
4094.72,0.02277
4088.93,0.02353
4083.15,0.02343
4077.36,0.02279
4071.58,0.02262
4065.79,0.02254
4060,0.02258
4054.22,0.02279
4048.43,0.02244
4042.64,0.02259
4036.86,0.02306
4031.07,0.02231
4025.29,0.02250
4019.5,0.02262
4013.71,0.02297
4007.93,0.02212
4002.14,0.02221
3996.35,0.02269
3990.57,0.02272
3984.78,0.02297
3979,0.02226
3973.21,0.02197
3967.42,0.02245
3961.64,0.02256
3955.85,0.02309
3950.06,0.02255
3944.28,0.02267
3938.49,0.02351
3932.71,0.02265
3926.92,0.02292
3921.13,0.02253
3915.35,0.02319
3909.56,0.02230
3903.77,0.02234
3897.99,0.02254
3892.2,0.02246
3886.42,0.02262
3880.63,0.02230
3874.84,0.02250
3869.06,0.02232
3863.27,0.02298
3857.48,0.02270
3851.7,0.02149
3845.91,0.02285
3840.13,0.02276
3834.34,0.02243
3828.55,0.02271
3822.77,0.02193
3816.98,0.02239
3811.2,0.02252
3805.41,0.02251
3799.62,0.02231
3793.84,0.02177
3788.05,0.02220
3782.26,0.02277
3776.48,0.02244
3770.69,0.02245
3764.91,0.02198
3759.12,0.02222
3753.33,0.02266
3747.55,0.02279
3741.76,0.02371
3735.97,0.02315
3730.19,0.02237
3724.4,0.02299
3718.62,0.02272
3712.83,0.02289
3707.04,0.02241
3701.26,0.02238
3695.47,0.02284
3689.68,0.02292
3683.9,0.02332
3678.11,0.02267
3672.33,0.02286
3666.54,0.02321
3660.75,0.02247
3654.97,0.02311
3649.18,0.02212
3643.39,0.02203
3637.61,0.02205
3631.82,0.02182
3626.04,0.02148
3620.25,0.02199
3614.46,0.02232
3608.68,0.02278
3602.89,0.02176
3597.1,0.02182
3591.32,0.02232
3585.53,0.02145
3579.75,0.02150
3573.96,0.02143
3568.17,0.02120
3562.39,0.02206
3556.6,0.02150
3550.81,0.02109
3545.03,0.02201
3539.24,0.02243
3533.46,0.02144
3527.67,0.02156
3521.88,0.02017
3516.1,0.02198
3510.31,0.02099
3504.53,0.02133
3498.74,0.02075
3492.95,0.02155
3487.17,0.02136
3481.38,0.02087
3475.59,0.02075
3469.81,0.02133
3464.02,0.02098
3458.24,0.02090
3452.45,0.02069
3446.66,0.02108
3440.88,0.02074
3435.09,0.02097
3429.3,0.02063
3423.52,0.02102
3417.73,0.02088
3411.95,0.02083
3406.16,0.02091
3400.37,0.02111
3394.59,0.02047
3388.8,0.02006
3383.01,0.02075
3377.23,0.02049
3371.44,0.02021
3365.66,0.02041
3359.87,0.02105
3354.08,0.02021
3348.3,0.02031
3342.51,0.02046
3336.72,0.02017
3330.94,0.02099
3325.15,0.02076
3319.37,0.02032
3313.58,0.02003
3307.79,0.02049
3302.01,0.02028
3296.22,0.02040
3290.43,0.02001
3284.65,0.02040
3278.86,0.02028
3273.08,0.02078
3267.29,0.02050
3261.5,0.02039
3255.72,0.02002
3249.93,0.02093
3244.14,0.02049
3238.36,0.02071
3232.57,0.02067
3226.79,0.02107
3221,0.02102
3215.21,0.02087
3209.43,0.02060
3203.64,0.02119
3197.86,0.02104
3192.07,0.02136
3186.28,0.02087
3180.5,0.02044
3174.71,0.02077
3168.92,0.02129
3163.14,0.02078
3157.35,0.02135
3151.57,0.02093
3145.78,0.02086
3139.99,0.02143
3134.21,0.02118
3128.42,0.02066
3122.63,0.02094
3116.85,0.02113
3111.06,0.02069
3105.28,0.02095
3099.49,0.02092
3093.7,0.02036
3087.92,0.02057
3082.13,0.02115
3076.34,0.02064
3070.56,0.02061
3064.77,0.02020
3058.99,0.02037
3053.2,0.02011
3047.41,0.02016
3041.63,0.02060
3035.84,0.02070
3030.05,0.02060
3024.27,0.02059
3018.48,0.02075
3012.7,0.02105
3006.91,0.02089
3001.12,0.01994
2995.34,0.02032
2989.55,0.02058
2983.76,0.02035
2977.98,0.02025
2972.19,0.01954
2966.41,0.01936
2960.62,0.01907
2954.83,0.01944
2949.05,0.01933
2943.26,0.02012
2937.47,0.01966
2931.69,0.01988
2925.9,0.01987
2920.12,0.02035
2914.33,0.02047
2908.54,0.02057
2902.76,0.02046
2896.97,0.02097
2891.18,0.02084
2885.4,0.02062
2879.61,0.02015
2873.83,0.02058
2868.04,0.02063
2862.25,0.01991
2856.47,0.02040
2850.68,0.02092
2844.9,0.02129
2839.11,0.02097
2833.32,0.02123
2827.54,0.02127
2821.75,0.02161
2815.96,0.02123
2810.18,0.02150
2804.39,0.02131
2798.61,0.02122
2792.82,0.02056
2787.03,0.02106
2781.25,0.02160
2775.46,0.02144
2769.67,0.02143
2763.89,0.02134
2758.1,0.02155
2752.32,0.02113
2746.53,0.02056
2740.74,0.02143
2734.96,0.02115
2729.17,0.02125
2723.38,0.02144
2717.6,0.02094
2711.81,0.02115
2706.03,0.02123
2700.24,0.02110
2694.45,0.02133
2688.67,0.02125
2682.88,0.02080
2677.09,0.02134
2671.31,0.02139
2665.52,0.02121
2659.74,0.02128
2653.95,0.02140
2648.16,0.02141
2642.38,0.02096
2636.59,0.02114
2630.8,0.02141
2625.02,0.02124
2619.23,0.02089
2613.45,0.02122
2607.66,0.02132
2601.87,0.02133
2596.09,0.02112
2590.3,0.02107
2584.51,0.02120
2578.73,0.02097
2572.94,0.02160
2567.16,0.02090
2561.37,0.02130
2555.58,0.02109
2549.8,0.02076
2544.01,0.02121
2538.23,0.02106
2532.44,0.02149
2526.65,0.02111
2520.87,0.02156
2515.08,0.02121
2509.29,0.02147
2503.51,0.02101
2497.72,0.02111
2491.94,0.02146
2486.15,0.02133
2480.36,0.02134
2474.58,0.02139
2468.79,0.02085
2463,0.02135
2457.22,0.02113
2451.43,0.02106
2445.65,0.02114
2439.86,0.02129
2434.07,0.02131
2428.29,0.02131
2422.5,0.02130
2416.71,0.02067
2410.93,0.02104
2405.14,0.02116
2399.36,0.02123
2393.57,0.02136
2387.78,0.02096
2382,0.02114
2376.21,0.02128
2370.42,0.02145
2364.64,0.02137
2358.85,0.02169
2353.07,0.02137
2347.28,0.02103
2341.49,0.02142
2335.71,0.02113
2329.92,0.02111
2324.13,0.02123
2318.35,0.02106
2312.56,0.02104
2306.78,0.02120
2300.99,0.02145
2295.2,0.02124
2289.42,0.02186
2283.63,0.02101
2277.84,0.02121
2272.06,0.02152
2266.27,0.02111
2260.49,0.02113
2254.7,0.02113
2248.91,0.02095
2243.13,0.02081
2237.34,0.02104
2231.56,0.02113
2225.77,0.02079
2219.98,0.02102
2214.2,0.02083
2208.41,0.02109
2202.62,0.02124
2196.84,0.02107
2191.05,0.02078
2185.27,0.02076
2179.48,0.02088
2173.69,0.02102
2167.91,0.02073
2162.12,0.02107
2156.33,0.02128
2150.55,0.02132
2144.76,0.02123
2138.98,0.02114
2133.19,0.02135
2127.4,0.02099
2121.62,0.02086
2115.83,0.02089
2110.04,0.02102
2104.26,0.02100
2098.47,0.02102
2092.69,0.02076
2086.9,0.02049
2081.11,0.02141
2075.33,0.02109
2069.54,0.02083
2063.75,0.02104
2057.97,0.02091
2052.18,0.02090
2046.4,0.02123
2040.61,0.02097
2034.82,0.02089
2029.04,0.02095
2023.25,0.02086
2017.46,0.02147
2011.68,0.02094
2005.89,0.02081
2000.11,0.02103
1994.32,0.02090
1988.53,0.02110
1982.75,0.02104
1976.96,0.02086
1971.17,0.02076
1965.39,0.02080
1959.6,0.02079
1953.82,0.02077
1948.03,0.02092
1942.24,0.02096
1936.46,0.02071
1930.67,0.02090
1924.89,0.02059
1919.1,0.02108
1913.31,0.02090
1907.53,0.02039
1901.74,0.02054
1895.95,0.02056
1890.17,0.02062
1884.38,0.02027
1878.6,0.02046
1872.81,0.02036
1867.02,0.02049
1861.24,0.02024
1855.45,0.02057
1849.66,0.02042
1843.88,0.02029
1838.09,0.02014
1832.31,0.02017
1826.52,0.01991
1820.73,0.02007
1814.95,0.02013
1809.16,0.01990
1803.37,0.01975
1797.59,0.01935
1791.8,0.01943
1786.02,0.01927
1780.23,0.01922
1774.44,0.01899
1768.66,0.01831
1762.87,0.01806
1757.08,0.01746
1751.3,0.01685
1745.51,0.01780
1739.73,0.01844
1733.94,0.01928
1728.15,0.02041
1722.37,0.02069
1716.58,0.02081
1710.79,0.02042
1705.01,0.02013
1699.22,0.01981
1693.44,0.01903
1687.65,0.01942
1681.86,0.01904
1676.08,0.01909
1670.29,0.01856
1664.5,0.01843
1658.72,0.01872
1652.93,0.01865
1647.15,0.01826
1641.36,0.01850
1635.57,0.01848
1629.79,0.01882
1624,0.01873
1618.21,0.01942
1612.43,0.01862
1606.64,0.01850
1600.86,0.01848
1595.07,0.01887
1589.28,0.01852
1583.5,0.01856
1577.71,0.01820
1571.93,0.01815
1566.14,0.01813
1560.35,0.01836
1554.57,0.01786
1548.78,0.01789
1542.99,0.01810
1537.21,0.01852
1531.42,0.01854
1525.64,0.01852
1519.85,0.01823
1514.06,0.01838
1508.28,0.01832
1502.49,0.01849
1496.7,0.01876
1490.92,0.01868
1485.13,0.01875
1479.35,0.01876
1473.56,0.01839
1467.77,0.01801
1461.99,0.01857
1456.2,0.01865
1450.41,0.01860
1444.63,0.01848
1438.84,0.01832
1433.06,0.01853
1427.27,0.01865
1421.48,0.01855
1415.7,0.01809
1409.91,0.01846
1404.12,0.01816
1398.34,0.01858
1392.55,0.01801
1386.77,0.01827
1380.98,0.01809
1375.19,0.01809
1369.41,0.01842
1363.62,0.01818
1357.83,0.01818
1352.05,0.01798
1346.26,0.01756
1340.48,0.01754
1334.69,0.01758
1328.9,0.01750
1323.12,0.01727
1317.33,0.01676
1311.54,0.01642
1305.76,0.01674
1299.97,0.01712
1294.19,0.01729
1288.4,0.01826
1282.61,0.01847
1276.83,0.01864
1271.04,0.01946
1265.26,0.01947
1259.47,0.01956
1253.68,0.01989
1247.9,0.01997
1242.11,0.01986
1236.32,0.01962
1230.54,0.01951
1224.75,0.01919
1218.97,0.01928
1213.18,0.01922
1207.39,0.01865
1201.61,0.01838
1195.82,0.01827
1190.03,0.01829
1184.25,0.01831
1178.46,0.01790
1172.68,0.01796
1166.89,0.01774
1161.1,0.01757
1155.32,0.01728
1149.53,0.01731
1143.74,0.01732
1137.96,0.01817
1132.17,0.01775
1126.39,0.01813
1120.6,0.01826
1114.81,0.01865
1109.03,0.01807
1103.24,0.01846
1097.45,0.01812
1091.67,0.01773
1085.88,0.01808
1080.1,0.01863
1074.31,0.01872
1068.52,0.01913
1062.74,0.01927
1056.95,0.01928
1051.16,0.01997
1045.38,0.02006
1039.59,0.01957
1033.81,0.01889
1028.02,0.01968
1022.23,0.01940
1016.45,0.01957
1010.66,0.01987
1004.87,0.02095
999.089,0.02085
993.302,0.02099
987.516,0.02058
981.73,0.02077
975.944,0.02012
970.157,0.01990
964.371,0.01965
958.585,0.01955
952.799,0.01958
947.013,0.02002
941.226,0.02010
935.44,0.01969
929.654,0.01971
923.868,0.01937
918.081,0.01920
912.295,0.01922
906.509,0.01917
900.723,0.01912
894.937,0.01868
889.15,0.01899
883.364,0.01921
877.578,0.01951
871.792,0.01934
866.005,0.01929
860.219,0.01899
854.433,0.01894
848.647,0.01867
842.86,0.01857
837.074,0.01910
831.288,0.01961
825.502,0.01905
819.716,0.01931
813.929,0.01870
808.143,0.01847
802.357,0.01834
796.571,0.01833
790.784,0.01881
784.998,0.01924
779.212,0.01853
773.426,0.01878
767.64,0.01855
761.853,0.01804
756.067,0.01866
750.281,0.01837
744.495,0.01817
738.708,0.01862
732.922,0.01822
727.136,0.01872
721.35,0.01877
715.563,0.01905
709.777,0.01800
703.991,0.01839
698.205,0.01851
692.419,0.01798
686.632,0.01819
680.846,0.01768
675.06,0.01771
669.274,0.01832
663.487,0.01758
657.701,0.01677
651.915,0.01648
646.129,0.01676
640.343,0.01722
634.556,0.01573
628.77,0.01790
622.984,0.01651
617.198,0.01669
611.411,0.01763
605.625,0.01675
599.839,0.01453