File: 01_Data/Luan_Panel/FTIR/IS/Luan_Panel_IS_S_220914_R1.dpt
7497.02,0.83905
7491.24,0.83917
7485.45,0.82785
7479.66,0.82911
7473.88,0.83364
7468.09,0.82697
7462.3,0.82927
7456.52,0.81591
7450.73,0.82095
7444.95,0.82197
7439.16,0.81981
7433.37,0.82997
7427.59,0.82016
7421.8,0.81504
7416.01,0.80361
7410.23,0.80872
7404.44,0.80353
7398.66,0.80918
7392.87,0.81179
7387.08,0.80399
7381.3,0.80857
7375.51,0.80860
7369.73,0.79236
7363.94,0.80093
7358.15,0.79765
7352.37,0.78981
7346.58,0.78380
7340.79,0.78336
7335.01,0.78224
7329.22,0.77442
7323.44,0.78905
7317.65,0.78753
7311.86,0.77638
7306.08,0.78538
7300.29,0.78159
7294.5,0.77292
7288.72,0.77194
7282.93,0.77439
7277.15,0.77861
7271.36,0.77029
7265.57,0.76881
7259.79,0.77502
7254,0.77368
7248.21,0.77239
7242.43,0.76724
7236.64,0.77737
7230.86,0.77367
7225.07,0.76414
7219.28,0.76665
7213.5,0.76053
7207.71,0.76072
7201.92,0.76554
7196.14,0.76357
7190.35,0.76171
7184.57,0.75233
7178.78,0.75801
7172.99,0.76144
7167.21,0.75084
7161.42,0.74021
7155.63,0.75100
7149.85,0.74444
7144.06,0.74953
7138.28,0.73555
7132.49,0.73959
7126.7,0.73071
7120.92,0.72815
7115.13,0.73034
7109.34,0.72166
7103.56,0.71966
7097.77,0.71648
7091.99,0.71435
7086.2,0.71157
7080.41,0.69686
7074.63,0.69760
7068.84,0.69993
7063.06,0.68771
7057.27,0.68992
7051.48,0.68326
7045.7,0.67406
7039.91,0.67790
7034.12,0.67459
7028.34,0.66942
7022.55,0.66526
7016.77,0.66261
7010.98,0.66257
7005.19,0.65614
6999.41,0.64869
6993.62,0.65331
6987.83,0.64950
6982.05,0.64929
6976.26,0.64213
6970.48,0.64385
6964.69,0.64282
6958.9,0.64130
6953.12,0.63689
6947.33,0.64017
6941.54,0.63836
6935.76,0.63160
6929.97,0.63384
6924.19,0.63212
6918.4,0.63584
6912.61,0.63497
6906.83,0.63013
6901.04,0.63107
6895.25,0.63452
6889.47,0.62608
6883.68,0.62776
6877.9,0.62694
6872.11,0.62218
6866.32,0.62371
6860.54,0.62244
6854.75,0.62830
6848.96,0.63136
6843.18,0.62499
6837.39,0.62675
6831.61,0.62456
6825.82,0.62585
6820.03,0.62087
6814.25,0.61932
6808.46,0.62210
6802.67,0.61721
6796.89,0.61852
6791.1,0.61628
6785.32,0.61514
6779.53,0.61472
6773.74,0.61475
6767.96,0.61192
6762.17,0.61389
6756.38,0.61056
6750.6,0.61367
6744.81,0.61812
6739.03,0.61222
6733.24,0.61226
6727.45,0.61288
6721.67,0.61238
6715.88,0.61021
6710.1,0.61171
6704.31,0.61457
6698.52,0.61516
6692.74,0.61537
6686.95,0.61630
6681.16,0.61898
6675.38,0.61638
6669.59,0.61267
6663.81,0.61501
6658.02,0.61739
6652.23,0.61769
6646.45,0.61971
6640.66,0.62077
6634.87,0.62110
6629.09,0.61980
6623.3,0.62223
6617.52,0.62034
6611.73,0.62771
6605.94,0.62348
6600.16,0.62888
6594.37,0.63124
6588.58,0.63178
6582.8,0.63241
6577.01,0.63302
6571.23,0.63043
6565.44,0.63507
6559.65,0.63594
6553.87,0.63832
6548.08,0.63107
6542.29,0.63563
6536.51,0.63766
6530.72,0.63506
6524.94,0.63463
6519.15,0.64055
6513.36,0.63915
6507.58,0.63984
6501.79,0.63868
6496,0.63814
6490.22,0.63987
6484.43,0.64504
6478.65,0.64477
6472.86,0.64465
6467.07,0.64610
6461.29,0.64131
6455.5,0.64204
6449.71,0.64344
6443.93,0.64435
6438.14,0.63995
6432.36,0.64544
6426.57,0.65079
6420.78,0.64765
6415,0.64972
6409.21,0.64846
6403.43,0.64524
6397.64,0.64809
6391.85,0.65376
6386.07,0.64920
6380.28,0.65033
6374.49,0.64867
6368.71,0.65350
6362.92,0.64953
6357.14,0.65196
6351.35,0.65422
6345.56,0.65534
6339.78,0.65524
6333.99,0.65866
6328.2,0.65715
6322.42,0.65914
6316.63,0.66022
6310.85,0.65814
6305.06,0.65945
6299.27,0.65728
6293.49,0.66280
6287.7,0.66635
6281.91,0.66264
6276.13,0.66000
6270.34,0.66267
6264.56,0.66769
6258.77,0.66875
6252.98,0.66737
6247.2,0.66473
6241.41,0.67109
6235.62,0.67192
6229.84,0.67453
6224.05,0.67889
6218.27,0.67701
6212.48,0.67950
6206.69,0.68051
6200.91,0.68441
6195.12,0.68688
6189.33,0.68504
6183.55,0.68701
6177.76,0.68994
6171.98,0.69121
6166.19,0.69196
6160.4,0.69000
6154.62,0.69055
6148.83,0.68881
6143.04,0.69516
6137.26,0.69725
6131.47,0.69758
6125.69,0.69510
6119.9,0.69621
6114.11,0.69673
6108.33,0.69913
6102.54,0.69586
6096.76,0.69586
6090.97,0.69843
6085.18,0.69870
6079.4,0.69452
6073.61,0.69508
6067.82,0.69704
6062.04,0.69779
6056.25,0.69169
6050.47,0.69321
6044.68,0.69249
6038.89,0.68886
6033.11,0.68838
6027.32,0.68738
6021.53,0.68607
6015.75,0.68562
6009.96,0.68329
6004.18,0.68566
5998.39,0.68365
5992.6,0.68027
5986.82,0.68210
5981.03,0.68007
5975.24,0.68123
5969.46,0.68076
5963.67,0.67716
5957.89,0.67957
5952.1,0.67859
5946.31,0.67709
5940.53,0.67866
5934.74,0.67895
5928.95,0.68052
5923.17,0.67740
5917.38,0.67633
5911.6,0.67574
5905.81,0.67493
5900.02,0.67279
5894.24,0.67544
5888.45,0.67291
5882.66,0.67033
5876.88,0.67191
5871.09,0.66953
5865.31,0.66999
5859.52,0.67026
5853.73,0.67089
5847.95,0.66768
5842.16,0.66877
5836.37,0.67063
5830.59,0.66816
5824.8,0.66746
5819.02,0.66584
5813.23,0.66481
5807.44,0.66367
5801.66,0.66367
5795.87,0.66476
5790.08,0.66620
5784.3,0.66374
5778.51,0.66532
5772.73,0.66567
5766.94,0.66803
5761.15,0.66878
5755.37,0.66868
5749.58,0.66854
5743.8,0.66940
5738.01,0.66902
5732.22,0.66895
5726.44,0.66876
5720.65,0.66907
5714.86,0.67008
5709.08,0.67079
5703.29,0.66791
5697.51,0.66960
5691.72,0.67189
5685.93,0.67110
5680.15,0.67003
5674.36,0.67017
5668.57,0.66996
5662.79,0.67021
5657,0.66816
5651.22,0.66854
5645.43,0.67039
5639.64,0.67009
5633.86,0.66861
5628.07,0.66935
5622.28,0.66954
5616.5,0.66815
5610.71,0.66705
5604.93,0.67063
5599.14,0.67087
5593.35,0.66914
5587.57,0.66909
5581.78,0.66892
5575.99,0.66996
5570.21,0.67078
5564.42,0.67022
5558.64,0.67299
5552.85,0.67402
5547.06,0.67134
5541.28,0.67299
5535.49,0.67345
5529.7,0.67589
5523.92,0.67376
5518.13,0.67456
5512.35,0.67465
5506.56,0.67625
5500.77,0.67451
5494.99,0.67514
5489.2,0.67653
5483.41,0.67814
5477.63,0.67876
5471.84,0.67833
5466.06,0.67867
5460.27,0.67780
5454.48,0.67862
5448.7,0.67991
5442.91,0.67941
5437.13,0.68220
5431.34,0.68299
5425.55,0.68427
5419.77,0.68396
5413.98,0.68746
5408.19,0.68642
5402.41,0.68492
5396.62,0.68677
5390.84,0.68805
5385.05,0.68717
5379.26,0.68611
5373.48,0.68415
5367.69,0.68353
5361.9,0.68396
5356.12,0.68390
5350.33,0.68314
5344.55,0.68145
5338.76,0.68119
5332.97,0.67721
5327.19,0.67420
5321.4,0.67075
5315.61,0.66547
5309.83,0.66200
5304.04,0.65431
5298.26,0.64865
5292.47,0.64096
5286.68,0.63122
5280.9,0.62212
5275.11,0.61122
5269.32,0.60049
5263.54,0.59022
5257.75,0.57861
5251.97,0.56972
5246.18,0.56072
5240.39,0.55235
5234.61,0.54418
5228.82,0.54015
5223.03,0.53558
5217.25,0.53123
5211.46,0.52776
5205.68,0.52537
5199.89,0.52350
5194.1,0.52320
5188.32,0.52227
5182.53,0.52116
5176.74,0.52342
5170.96,0.52426
5165.17,0.52611
5159.39,0.52546
5153.6,0.52909
5147.81,0.53086
5142.03,0.53226
5136.24,0.53371
5130.46,0.53608
5124.67,0.53548
5118.88,0.53733
5113.1,0.53632
5107.31,0.53585
5101.52,0.53444
5095.74,0.53295
5089.95,0.53203
5084.17,0.53076
5078.38,0.53066
5072.59,0.53214
5066.81,0.53453
5061.02,0.53756
5055.23,0.53811
5049.45,0.54079
5043.66,0.54460
5037.88,0.54773
5032.09,0.55001
5026.3,0.55221
5020.52,0.55424
5014.73,0.55667
5008.94,0.55777
5003.16,0.56134
4997.37,0.56198
4991.59,0.56232
4985.8,0.56341
4980.01,0.56361
4974.23,0.56287
4968.44,0.56222
4962.65,0.56025
4956.87,0.55708
4951.08,0.55322
4945.3,0.55089
4939.51,0.54738
4933.72,0.54440
4927.94,0.54102
4922.15,0.53835
4916.36,0.53605
4910.58,0.53475
4904.79,0.53257
4899.01,0.52947
4893.22,0.52605
4887.43,0.52371
4881.65,0.52174
4875.86,0.51862
4870.07,0.51620
4864.29,0.51137
4858.5,0.50911
4852.72,0.50602
4846.93,0.50383
4841.14,0.50042
4835.36,0.49693
4829.57,0.49625
4823.78,0.49224
4818,0.49095
4812.21,0.48919
4806.43,0.48584
4800.64,0.48614
4794.85,0.48514
4789.07,0.48499
4783.28,0.48470
4777.5,0.48421
4771.71,0.48318
4765.92,0.48234
4760.14,0.48234
4754.35,0.48062
4748.56,0.48024
4742.78,0.47954
4736.99,0.48082
4731.21,0.48026
4725.42,0.48107
4719.63,0.48119
4713.85,0.48134
4708.06,0.48096
4702.27,0.48064
4696.49,0.48102
4690.7,0.48154
4684.92,0.48149
4679.13,0.48057
4673.34,0.48206
4667.56,0.48440
4661.77,0.48466
4655.98,0.48389
4650.2,0.48535
4644.41,0.48557
4638.63,0.48655
4632.84,0.48826
4627.05,0.48950
4621.27,0.49161
4615.48,0.49348
4609.69,0.49536
4603.91,0.49699
4598.12,0.49904
4592.34,0.49998
4586.55,0.50133
4580.76,0.50272
4574.98,0.50341
4569.19,0.50557
4563.4,0.50571
4557.62,0.50539
4551.83,0.50598
4546.05,0.50669
4540.26,0.50762
4534.47,0.50830
4528.69,0.50888
4522.9,0.50929
4517.11,0.50987
4511.33,0.50996
4505.54,0.51048
4499.76,0.50924
4493.97,0.50763
4488.18,0.50580
4482.4,0.50133
4476.61,0.49775
4470.83,0.49241
4465.04,0.48701
4459.25,0.48217
4453.47,0.47512
4447.68,0.46955
4441.89,0.46338
4436.11,0.45564
4430.32,0.44992
4424.54,0.44361
4418.75,0.43761
4412.96,0.43305
4407.18,0.43030
4401.39,0.42855
4395.6,0.42888
4389.82,0.43061
4384.03,0.43235
4378.25,0.43442
4372.46,0.43780
4366.67,0.44177
4360.89,0.44365
4355.1,0.44526
4349.31,0.44603
4343.53,0.44562
4337.74,0.44523
4331.96,0.44305
4326.17,0.44095
4320.38,0.43916
4314.6,0.43818
4308.81,0.43732
4303.02,0.43568
4297.24,0.43329
4291.45,0.43087
4285.67,0.42911
4279.88,0.42830
4274.09,0.42883
4268.31,0.43021
4262.52,0.43208
4256.73,0.43235
4250.95,0.43359
4245.16,0.43461
4239.38,0.43547
4233.59,0.43563
4227.8,0.43578
4222.02,0.43646
4216.23,0.43703
4210.44,0.43595
4204.66,0.43580
4198.87,0.43540
4193.09,0.43574
4187.3,0.43615
4181.51,0.43725
4175.73,0.43875
4169.94,0.44039
4164.16,0.44155
4158.37,0.44200
4152.58,0.44041
4146.8,0.43949
4141.01,0.43653
4135.22,0.43419
4129.44,0.43090
4123.65,0.42744
4117.87,0.42408
4112.08,0.41939
4106.29,0.41513
4100.51,0.41079
4094.72,0.40614
4088.93,0.40123
4083.15,0.39641
4077.36,0.39137
4071.58,0.38503
4065.79,0.38067
4060,0.37511
4054.22,0.36992
4048.43,0.36503
4042.64,0.36040
4036.86,0.35587
4031.07,0.35271
4025.29,0.35008
4019.5,0.34752
4013.71,0.34725
4007.93,0.34672
4002.14,0.34873
3996.35,0.34906
3990.57,0.35098
3984.78,0.35273
3979,0.35431
3973.21,0.35600
3967.42,0.35830
3961.64,0.36092
3955.85,0.36317
3950.06,0.36592
3944.28,0.36916
3938.49,0.37132
3932.71,0.37345
3926.92,0.37554
3921.13,0.37820
3915.35,0.38119
3909.56,0.38311
3903.77,0.38543
3897.99,0.38735
3892.2,0.38969
3886.42,0.39128
3880.63,0.39260
3874.84,0.39516
3869.06,0.39746
3863.27,0.40063
3857.48,0.40398
3851.7,0.40712
3845.91,0.40955
3840.13,0.41207
3834.34,0.41402
3828.55,0.41508
3822.77,0.41486
3816.98,0.41613
3811.2,0.41578
3805.41,0.41565
3799.62,0.41554
3793.84,0.41520
3788.05,0.41461
3782.26,0.41348
3776.48,0.41230
3770.69,0.41052
3764.91,0.40902
3759.12,0.40632
3753.33,0.40451
3747.55,0.40235
3741.76,0.39780
3735.97,0.39503
3730.19,0.38967
3724.4,0.38445
3718.62,0.37724
3712.83,0.37074
3707.04,0.36135
3701.26,0.35077
3695.47,0.33759
3689.68,0.32407
3683.9,0.30536
3678.11,0.28649
3672.33,0.26372
3666.54,0.24138
3660.75,0.22197
3654.97,0.20257
3649.18,0.18630
3643.39,0.17147
3637.61,0.15948
3631.82,0.14894
3626.04,0.13830
3620.25,0.13001
3614.46,0.12164
3608.68,0.11396
3602.89,0.10712
3597.1,0.10026
3591.32,0.09487
3585.53,0.08921
3579.75,0.08427
3573.96,0.08011
3568.17,0.07630
3562.39,0.07270
3556.6,0.06935
3550.81,0.06678
3545.03,0.06401
3539.24,0.06174
3533.46,0.05917
3527.67,0.05745
3521.88,0.05571
3516.1,0.05296
3510.31,0.05078
3504.53,0.04944
3498.74,0.04828
3492.95,0.04652
3487.17,0.04547
3481.38,0.04436
3475.59,0.04345
3469.81,0.04238
3464.02,0.04188
3458.24,0.04169
3452.45,0.04070
3446.66,0.04127
3440.88,0.04039
3435.09,0.04042
3429.3,0.04028
3423.52,0.03998
3417.73,0.04057
3411.95,0.04008
3406.16,0.03971
3400.37,0.04027
3394.59,0.03993
3388.8,0.04028
3383.01,0.04040
3377.23,0.04047
3371.44,0.03982
3365.66,0.03944
3359.87,0.04053
3354.08,0.04113
3348.3,0.04142
3342.51,0.04240
3336.72,0.04289
3330.94,0.04378
3325.15,0.04411
3319.37,0.04541
3313.58,0.04591
3307.79,0.04616
3302.01,0.04709
3296.22,0.04789
3290.43,0.04838
3284.65,0.04859
3278.86,0.04986
3273.08,0.05060
3267.29,0.05175
3261.5,0.05323
3255.72,0.05380
3249.93,0.05470
3244.14,0.05547
3238.36,0.05727
3232.57,0.05781
3226.79,0.05942
3221,0.06043
3215.21,0.06146
3209.43,0.06298
3203.64,0.06436
3197.86,0.06580
3192.07,0.06692
3186.28,0.06931
3180.5,0.07063
3174.71,0.07216
3168.92,0.07438
3163.14,0.07695
3157.35,0.07893
3151.57,0.08088
3145.78,0.08243
3139.99,0.08458
3134.21,0.08556
3128.42,0.08793
3122.63,0.08905
3116.85,0.09096
3111.06,0.09240
3105.28,0.09394
3099.49,0.09551
3093.7,0.09641
3087.92,0.09734
3082.13,0.09923
3076.34,0.09975
3070.56,0.10043
3064.77,0.10215
3058.99,0.10318
3053.2,0.10391
3047.41,0.10557
3041.63,0.10634
3035.84,0.10731
3030.05,0.10774
3024.27,0.10801
3018.48,0.10689
3012.7,0.10617
3006.91,0.10391
3001.12,0.10283
2995.34,0.10181
2989.55,0.10029
2983.76,0.09632
2977.98,0.09066
2972.19,0.08406
2966.41,0.07941
2960.62,0.07670
2954.83,0.07411
2949.05,0.07166
2943.26,0.06922
2937.47,0.06834
2931.69,0.06867
2925.9,0.06886
2920.12,0.06779
2914.33,0.06831
2908.54,0.06975
2902.76,0.07030
2896.97,0.07201
2891.18,0.07343
2885.4,0.07464
2879.61,0.07524
2873.83,0.07675
2868.04,0.07784
2862.25,0.08051
2856.47,0.08176
2850.68,0.08368
2844.9,0.08813
2839.11,0.09345
2833.32,0.10076
2827.54,0.10860
2821.75,0.11544
2815.96,0.12125
2810.18,0.12674
2804.39,0.13123
2798.61,0.13467
2792.82,0.13805
2787.03,0.14090
2781.25,0.14286
2775.46,0.14455
2769.67,0.14618
2763.89,0.14734
2758.1,0.14880
2752.32,0.14912
2746.53,0.14968
2740.74,0.15014
2734.96,0.15062
2729.17,0.15232
2723.38,0.15336
2717.6,0.15509
2711.81,0.15783
2706.03,0.16030
2700.24,0.16315
2694.45,0.16515
2688.67,0.16771
2682.88,0.17026
2677.09,0.17262
2671.31,0.17434
2665.52,0.17599
2659.74,0.17711
2653.95,0.17886
2648.16,0.18013
2642.38,0.18230
2636.59,0.18472
2630.8,0.18726
2625.02,0.18960
2619.23,0.19158
2613.45,0.19287
2607.66,0.19491
2601.87,0.19599
2596.09,0.19833
2590.3,0.20012
2584.51,0.20205
2578.73,0.20315
2572.94,0.20438
2567.16,0.20539
2561.37,0.20610
2555.58,0.20677
2549.8,0.20766
2544.01,0.20865
2538.23,0.21054
2532.44,0.21167
2526.65,0.21362
2520.87,0.21553
2515.08,0.21744
2509.29,0.22038
2503.51,0.22293
2497.72,0.22622
2491.94,0.22921
2486.15,0.23179
2480.36,0.23393
2474.58,0.23695
2468.79,0.23840
2463,0.24055
2457.22,0.24209
2451.43,0.24385
2445.65,0.24697
2439.86,0.24946
2434.07,0.25246
2428.29,0.25546
2422.5,0.25840
2416.71,0.26203
2410.93,0.26570
2405.14,0.26911
2399.36,0.27272
2393.57,0.27567
2387.78,0.27794
2382,0.28080
2376.21,0.28301
2370.42,0.28589
2364.64,0.28808
2358.85,0.29011
2353.07,0.29242
2347.28,0.29387
2341.49,0.29555
2335.71,0.29647
2329.92,0.29760
2324.13,0.29878
2318.35,0.29926
2312.56,0.29976
2306.78,0.29998
2300.99,0.29918
2295.2,0.29876
2289.42,0.29872
2283.63,0.29845
2277.84,0.29798
2272.06,0.29698
2266.27,0.29496
2260.49,0.29264
2254.7,0.29027
2248.91,0.28878
2243.13,0.28715
2237.34,0.28659
2231.56,0.28655
2225.77,0.28734
2219.98,0.28809
2214.2,0.28783
2208.41,0.28749
2202.62,0.28632
2196.84,0.28381
2191.05,0.28096
2185.27,0.27809
2179.48,0.27409
2173.69,0.27033
2167.91,0.26671
2162.12,0.26365
2156.33,0.26165
2150.55,0.25990
2144.76,0.25920
2138.98,0.25790
2133.19,0.25823
2127.4,0.25834
2121.62,0.25962
2115.83,0.26098
2110.04,0.26211
2104.26,0.26328
2098.47,0.26498
2092.69,0.26642
2086.9,0.26684
2081.11,0.26692
2075.33,0.26581
2069.54,0.26467
2063.75,0.26421
2057.97,0.26388
2052.18,0.26438
2046.4,0.26537
2040.61,0.26725
2034.82,0.26921
2029.04,0.27263
2023.25,0.27640
2017.46,0.27977
2011.68,0.28323
2005.89,0.28579
2000.11,0.28764
1994.32,0.28965
1988.53,0.29133
1982.75,0.29245
1976.96,0.29326
1971.17,0.29361
1965.39,0.29384
1959.6,0.29409
1953.82,0.29499
1948.03,0.29715
1942.24,0.29974
1936.46,0.30344
1930.67,0.30713
1924.89,0.31014
1919.1,0.31233
1913.31,0.31360
1907.53,0.31435
1901.74,0.31419
1895.95,0.31360
1890.17,0.31306
1884.38,0.31212
1878.6,0.31139
1872.81,0.30990
1867.02,0.30829
1861.24,0.30576
1855.45,0.30372
1849.66,0.30121
1843.88,0.29797
1838.09,0.29458
1832.31,0.29053
1826.52,0.28560
1820.73,0.28002
1814.95,0.27377
1809.16,0.26608
1803.37,0.25810
1797.59,0.24880
1791.8,0.23824
1786.02,0.22608
1780.23,0.21015
1774.44,0.18824
1768.66,0.15840
1762.87,0.12795
1757.08,0.10379
1751.3,0.08988
1745.51,0.08104
1739.73,0.07714
1733.94,0.07746
1728.15,0.08180
1722.37,0.08695
1716.58,0.08979
1710.79,0.08836
1705.01,0.08323
1699.22,0.07496
1693.44,0.06512
1687.65,0.05723
1681.86,0.05020
1676.08,0.04720
1670.29,0.04561
1664.5,0.04574
1658.72,0.04728
1652.93,0.04984
1647.15,0.05219
1641.36,0.05321
1635.57,0.05348
1629.79,0.05358
1624,0.05456
1618.21,0.05534
1612.43,0.05555
1606.64,0.05539
1600.86,0.05570
1595.07,0.05618
1589.28,0.06056
1583.5,0.06821
1577.71,0.07688
1571.93,0.08311
1566.14,0.08476
1560.35,0.08435
1554.57,0.08213
1548.78,0.08070
1542.99,0.07911
1537.21,0.07663
1531.42,0.07408
1525.64,0.06864
1519.85,0.05972
1514.06,0.05305
1508.28,0.05251
1502.49,0.05520
1496.7,0.06142
1490.92,0.06609
1485.13,0.06641
1479.35,0.06215
1473.56,0.05458
1467.77,0.04897
1461.99,0.04834
1456.2,0.04952
1450.41,0.05157
1444.63,0.05331
1438.84,0.05327
1433.06,0.05057
1427.27,0.05023
1421.48,0.05189
1415.7,0.05577
1409.91,0.05953
1404.12,0.06055
1398.34,0.05959
1392.55,0.05742
1386.77,0.05346
1380.98,0.04972
1375.19,0.04828
1369.41,0.04929
1363.62,0.05119
1357.83,0.05265
1352.05,0.05351
1346.26,0.05329
1340.48,0.05133
1334.69,0.04987
1328.9,0.05008
1323.12,0.05115
1317.33,0.05260
1311.54,0.05482
1305.76,0.05707
1299.97,0.05786
1294.19,0.05681
1288.4,0.05370
1282.61,0.05055
1276.83,0.04949
1271.04,0.04795
1265.26,0.04752
1259.47,0.04760
1253.68,0.04751
1247.9,0.04684
1242.11,0.04614
1236.32,0.04632
1230.54,0.04730
1224.75,0.04859
1218.97,0.05093
1213.18,0.05214
1207.39,0.05326
1201.61,0.05323
1195.82,0.05352
1190.03,0.05190
1184.25,0.04840
1178.46,0.04376
1172.68,0.03931
1166.89,0.03970
1161.1,0.04298
1155.32,0.04488
1149.53,0.04503
1143.74,0.04317
1137.96,0.04045
1132.17,0.03793
1126.39,0.03958
1120.6,0.04128
1114.81,0.04204
1109.03,0.04436
1103.24,0.04595
1097.45,0.04479
1091.67,0.04332
1085.88,0.04183
1080.1,0.04268
1074.31,0.04476
1068.52,0.04886
1062.74,0.05359
1056.95,0.05920
1051.16,0.06107
1045.38,0.06081
1039.59,0.06165
1033.81,0.06595
1028.02,0.06805
1022.23,0.06973
1016.45,0.07176
1010.66,0.07429
1004.87,0.07573
999.089,0.07860
993.302,0.08076
987.516,0.08580
981.73,0.09522
975.944,0.10174
970.157,0.10559
964.371,0.11026
958.585,0.11755
952.799,0.12494
947.013,0.13059
941.226,0.13150
935.44,0.13166
929.654,0.13163
923.868,0.13165
918.081,0.12951
912.295,0.12525
906.509,0.11933
900.723,0.11322
894.937,0.11350
889.15,0.12103
883.364,0.12538
877.578,0.12717
871.792,0.12780
866.005,0.12802
860.219,0.12679
854.433,0.12627
848.647,0.12563
842.86,0.12420
837.074,0.12136
831.288,0.11885
825.502,0.11855
819.716,0.11834
813.929,0.11780
808.143,0.11773
802.357,0.11685
796.571,0.11581
790.784,0.11423
784.998,0.11212
779.212,0.10904
773.426,0.10586
767.64,0.10409
761.853,0.10149
756.067,0.09737
750.281,0.09439
744.495,0.09123
738.708,0.08963
732.922,0.08671
727.136,0.08362
721.35,0.08126
715.563,0.08058
709.777,0.07875
703.991,0.07823
698.205,0.07709
692.419,0.07668
686.632,0.07487
680.846,0.07242
675.06,0.06995
669.274,0.06938
663.487,0.06888
657.701,0.07050
651.915,0.06917
646.129,0.06898
640.343,0.06895
634.556,0.06652
628.77,0.06562
622.984,0.06488
617.198,0.06308
611.411,0.06736
605.625,0.06767
599.839,0.06646