File: 01_Data/Luan_Panel/FTIR/IS/Luan_Panel_IS_S_220914_R7.dpt
7497.02,0.85470
7491.24,0.85405
7485.45,0.85015
7479.66,0.85107
7473.88,0.85125
7468.09,0.84098
7462.3,0.83437
7456.52,0.83914
7450.73,0.84350
7444.95,0.83776
7439.16,0.83185
7433.37,0.82761
7427.59,0.83475
7421.8,0.82963
7416.01,0.83125
7410.23,0.81890
7404.44,0.82508
7398.66,0.81386
7392.87,0.81400
7387.08,0.81538
7381.3,0.82094
7375.51,0.82426
7369.73,0.81165
7363.94,0.80160
7358.15,0.80829
7352.37,0.80209
7346.58,0.80106
7340.79,0.80128
7335.01,0.79650
7329.22,0.79464
7323.44,0.79266
7317.65,0.79698
7311.86,0.78996
7306.08,0.78829
7300.29,0.78355
7294.5,0.79584
7288.72,0.79717
7282.93,0.78464
7277.15,0.78749
7271.36,0.78182
7265.57,0.79128
7259.79,0.79356
7254,0.78244
7248.21,0.77910
7242.43,0.78259
7236.64,0.78836
7230.86,0.78955
7225.07,0.78324
7219.28,0.78827
7213.5,0.78493
7207.71,0.78685
7201.92,0.78286
7196.14,0.77841
7190.35,0.77523
7184.57,0.77826
7178.78,0.77624
7172.99,0.77772
7167.21,0.77104
7161.42,0.76544
7155.63,0.76774
7149.85,0.76452
7144.06,0.76213
7138.28,0.76204
7132.49,0.75584
7126.7,0.75251
7120.92,0.75012
7115.13,0.74105
7109.34,0.74095
7103.56,0.74199
7097.77,0.74083
7091.99,0.73602
7086.2,0.73067
7080.41,0.72230
7074.63,0.72398
7068.84,0.71260
7063.06,0.71745
7057.27,0.70919
7051.48,0.71134
7045.7,0.70278
7039.91,0.69720
7034.12,0.69164
7028.34,0.68754
7022.55,0.68087
7016.77,0.67310
7010.98,0.67290
7005.19,0.66936
6999.41,0.66742
6993.62,0.66028
6987.83,0.66196
6982.05,0.65722
6976.26,0.66168
6970.48,0.65945
6964.69,0.65469
6958.9,0.65729
6953.12,0.66067
6947.33,0.65259
6941.54,0.64653
6935.76,0.64708
6929.97,0.65150
6924.19,0.65287
6918.4,0.64899
6912.61,0.64367
6906.83,0.64806
6901.04,0.64443
6895.25,0.64663
6889.47,0.64583
6883.68,0.64199
6877.9,0.63853
6872.11,0.63966
6866.32,0.64345
6860.54,0.63845
6854.75,0.64076
6848.96,0.64342
6843.18,0.63906
6837.39,0.63775
6831.61,0.64375
6825.82,0.63997
6820.03,0.63615
6814.25,0.63704
6808.46,0.63603
6802.67,0.63722
6796.89,0.63522
6791.1,0.63217
6785.32,0.62888
6779.53,0.62965
6773.74,0.63588
6767.96,0.62875
6762.17,0.62862
6756.38,0.62745
6750.6,0.62244
6744.81,0.62982
6739.03,0.63086
6733.24,0.62422
6727.45,0.62677
6721.67,0.62800
6715.88,0.62553
6710.1,0.62500
6704.31,0.62389
6698.52,0.62442
6692.74,0.62417
6686.95,0.62750
6681.16,0.63042
6675.38,0.62136
6669.59,0.62434
6663.81,0.62869
6658.02,0.63176
6652.23,0.62771
6646.45,0.62511
6640.66,0.63236
6634.87,0.62956
6629.09,0.63622
6623.3,0.62962
6617.52,0.63695
6611.73,0.63511
6605.94,0.64096
6600.16,0.63644
6594.37,0.64268
6588.58,0.63942
6582.8,0.64116
6577.01,0.64625
6571.23,0.64765
6565.44,0.64907
6559.65,0.64827
6553.87,0.65173
6548.08,0.64773
6542.29,0.65010
6536.51,0.64918
6530.72,0.65046
6524.94,0.65430
6519.15,0.64933
6513.36,0.65382
6507.58,0.65322
6501.79,0.65638
6496,0.65474
6490.22,0.65501
6484.43,0.65841
6478.65,0.65568
6472.86,0.65661
6467.07,0.66144
6461.29,0.65615
6455.5,0.66038
6449.71,0.65781
6443.93,0.66051
6438.14,0.66003
6432.36,0.66102
6426.57,0.65713
6420.78,0.65774
6415,0.65915
6409.21,0.66290
6403.43,0.65856
6397.64,0.65932
6391.85,0.66066
6386.07,0.66312
6380.28,0.66229
6374.49,0.66517
6368.71,0.66579
6362.92,0.66649
6357.14,0.66700
6351.35,0.66932
6345.56,0.66537
6339.78,0.66727
6333.99,0.66869
6328.2,0.66912
6322.42,0.66625
6316.63,0.67030
6310.85,0.66891
6305.06,0.67139
6299.27,0.67414
6293.49,0.67398
6287.7,0.67413
6281.91,0.67769
6276.13,0.67727
6270.34,0.68210
6264.56,0.67938
6258.77,0.68201
6252.98,0.68389
6247.2,0.68774
6241.41,0.68801
6235.62,0.68730
6229.84,0.68554
6224.05,0.69096
6218.27,0.69150
6212.48,0.69035
6206.69,0.68839
6200.91,0.69355
6195.12,0.69971
6189.33,0.69978
6183.55,0.70171
6177.76,0.70220
6171.98,0.70131
6166.19,0.70288
6160.4,0.70626
6154.62,0.70285
6148.83,0.70612
6143.04,0.70795
6137.26,0.70658
6131.47,0.70994
6125.69,0.70797
6119.9,0.70797
6114.11,0.70964
6108.33,0.71305
6102.54,0.71314
6096.76,0.71286
6090.97,0.71099
6085.18,0.70999
6079.4,0.70988
6073.61,0.70933
6067.82,0.70792
6062.04,0.70621
6056.25,0.70790
6050.47,0.70653
6044.68,0.70531
6038.89,0.70533
6033.11,0.70190
6027.32,0.70153
6021.53,0.69912
6015.75,0.69844
6009.96,0.69469
6004.18,0.69478
5998.39,0.69664
5992.6,0.69505
5986.82,0.68993
5981.03,0.69096
5975.24,0.68977
5969.46,0.68814
5963.67,0.68890
5957.89,0.69028
5952.1,0.68744
5946.31,0.68840
5940.53,0.68793
5934.74,0.69043
5928.95,0.69072
5923.17,0.68925
5917.38,0.68977
5911.6,0.68914
5905.81,0.68467
5900.02,0.68541
5894.24,0.68243
5888.45,0.68077
5882.66,0.67977
5876.88,0.68207
5871.09,0.68143
5865.31,0.67963
5859.52,0.67843
5853.73,0.67915
5847.95,0.68034
5842.16,0.67874
5836.37,0.68053
5830.59,0.67743
5824.8,0.67746
5819.02,0.67283
5813.23,0.67213
5807.44,0.67452
5801.66,0.67527
5795.87,0.67367
5790.08,0.67468
5784.3,0.67374
5778.51,0.67517
5772.73,0.67541
5766.94,0.67708
5761.15,0.67817
5755.37,0.68005
5749.58,0.67989
5743.8,0.68022
5738.01,0.67898
5732.22,0.67850
5726.44,0.68037
5720.65,0.68005
5714.86,0.67961
5709.08,0.68094
5703.29,0.68205
5697.51,0.68070
5691.72,0.68113
5685.93,0.68092
5680.15,0.68144
5674.36,0.68135
5668.57,0.68102
5662.79,0.67962
5657,0.68012
5651.22,0.68202
5645.43,0.68082
5639.64,0.68306
5633.86,0.68296
5628.07,0.68275
5622.28,0.68173
5616.5,0.68132
5610.71,0.67975
5604.93,0.67999
5599.14,0.68259
5593.35,0.68097
5587.57,0.68175
5581.78,0.68391
5575.99,0.68358
5570.21,0.68382
5564.42,0.68269
5558.64,0.68338
5552.85,0.68457
5547.06,0.68314
5541.28,0.68393
5535.49,0.68424
5529.7,0.68700
5523.92,0.68608
5518.13,0.68775
5512.35,0.68783
5506.56,0.68604
5500.77,0.68588
5494.99,0.68811
5489.2,0.68785
5483.41,0.68700
5477.63,0.68902
5471.84,0.68947
5466.06,0.69099
5460.27,0.69081
5454.48,0.69080
5448.7,0.69231
5442.91,0.69308
5437.13,0.69387
5431.34,0.69383
5425.55,0.69498
5419.77,0.69818
5413.98,0.69799
5408.19,0.69719
5402.41,0.70056
5396.62,0.69852
5390.84,0.70049
5385.05,0.69911
5379.26,0.69982
5373.48,0.69908
5367.69,0.69903
5361.9,0.69973
5356.12,0.69968
5350.33,0.69740
5344.55,0.69566
5338.76,0.69630
5332.97,0.69571
5327.19,0.69500
5321.4,0.69227
5315.61,0.68811
5309.83,0.68553
5304.04,0.68047
5298.26,0.67642
5292.47,0.66972
5286.68,0.66393
5280.9,0.65682
5275.11,0.64821
5269.32,0.63963
5263.54,0.63080
5257.75,0.62236
5251.97,0.61411
5246.18,0.60665
5240.39,0.60083
5234.61,0.59567
5228.82,0.59031
5223.03,0.58589
5217.25,0.58331
5211.46,0.58132
5205.68,0.57962
5199.89,0.57771
5194.1,0.57608
5188.32,0.57667
5182.53,0.57515
5176.74,0.57477
5170.96,0.57585
5165.17,0.57612
5159.39,0.57770
5153.6,0.57730
5147.81,0.57869
5142.03,0.57912
5136.24,0.58047
5130.46,0.58114
5124.67,0.58023
5118.88,0.57965
5113.1,0.57724
5107.31,0.57522
5101.52,0.57089
5095.74,0.56845
5089.95,0.56623
5084.17,0.56390
5078.38,0.56269
5072.59,0.56257
5066.81,0.56315
5061.02,0.56535
5055.23,0.56783
5049.45,0.57035
5043.66,0.57302
5037.88,0.57490
5032.09,0.57812
5026.3,0.57956
5020.52,0.58102
5014.73,0.58381
5008.94,0.58390
5003.16,0.58596
4997.37,0.58557
4991.59,0.58731
4985.8,0.58810
4980.01,0.58524
4974.23,0.58378
4968.44,0.58155
4962.65,0.57920
4956.87,0.57551
4951.08,0.57040
4945.3,0.56734
4939.51,0.56195
4933.72,0.55873
4927.94,0.55465
4922.15,0.55075
4916.36,0.54939
4910.58,0.54514
4904.79,0.54346
4899.01,0.53990
4893.22,0.53658
4887.43,0.53451
4881.65,0.53131
4875.86,0.52700
4870.07,0.52490
4864.29,0.52219
4858.5,0.51955
4852.72,0.51587
4846.93,0.51342
4841.14,0.50905
4835.36,0.50599
4829.57,0.50301
4823.78,0.49989
4818,0.49692
4812.21,0.49612
4806.43,0.49474
4800.64,0.49374
4794.85,0.49243
4789.07,0.49199
4783.28,0.49184
4777.5,0.49094
4771.71,0.49105
4765.92,0.48924
4760.14,0.48917
4754.35,0.48797
4748.56,0.48806
4742.78,0.48871
4736.99,0.48799
4731.21,0.48821
4725.42,0.48903
4719.63,0.48752
4713.85,0.48774
4708.06,0.48879
4702.27,0.48882
4696.49,0.48834
4690.7,0.48760
4684.92,0.48949
4679.13,0.48853
4673.34,0.48885
4667.56,0.49000
4661.77,0.49061
4655.98,0.49054
4650.2,0.49171
4644.41,0.49279
4638.63,0.49382
4632.84,0.49570
4627.05,0.49616
4621.27,0.49962
4615.48,0.50203
4609.69,0.50338
4603.91,0.50478
4598.12,0.50655
4592.34,0.50825
4586.55,0.50956
4580.76,0.51087
4574.98,0.51251
4569.19,0.51333
4563.4,0.51416
4557.62,0.51366
4551.83,0.51333
4546.05,0.51435
4540.26,0.51517
4534.47,0.51572
4528.69,0.51697
4522.9,0.51736
4517.11,0.51796
4511.33,0.51676
4505.54,0.51769
4499.76,0.51680
4493.97,0.51474
4488.18,0.51346
4482.4,0.51023
4476.61,0.50534
4470.83,0.50078
4465.04,0.49455
4459.25,0.48841
4453.47,0.48170
4447.68,0.47580
4441.89,0.46995
4436.11,0.46273
4430.32,0.45607
4424.54,0.44901
4418.75,0.44380
4412.96,0.43842
4407.18,0.43542
4401.39,0.43371
4395.6,0.43325
4389.82,0.43464
4384.03,0.43650
4378.25,0.43826
4372.46,0.44264
4366.67,0.44568
4360.89,0.44843
4355.1,0.45013
4349.31,0.45091
4343.53,0.45153
4337.74,0.45036
4331.96,0.44915
4326.17,0.44723
4320.38,0.44453
4314.6,0.44459
4308.81,0.44333
4303.02,0.44127
4297.24,0.43882
4291.45,0.43673
4285.67,0.43552
4279.88,0.43443
4274.09,0.43501
4268.31,0.43585
4262.52,0.43786
4256.73,0.43948
4250.95,0.44009
4245.16,0.44157
4239.38,0.44231
4233.59,0.44325
4227.8,0.44369
4222.02,0.44362
4216.23,0.44382
4210.44,0.44374
4204.66,0.44365
4198.87,0.44398
4193.09,0.44476
4187.3,0.44462
4181.51,0.44595
4175.73,0.44778
4169.94,0.44937
4164.16,0.45119
4158.37,0.45235
4152.58,0.45135
4146.8,0.45002
4141.01,0.44722
4135.22,0.44508
4129.44,0.44153
4123.65,0.43812
4117.87,0.43471
4112.08,0.43055
4106.29,0.42592
4100.51,0.42134
4094.72,0.41622
4088.93,0.41184
4083.15,0.40657
4077.36,0.40144
4071.58,0.39625
4065.79,0.39014
4060,0.38445
4054.22,0.37919
4048.43,0.37378
4042.64,0.36867
4036.86,0.36453
4031.07,0.36124
4025.29,0.35771
4019.5,0.35637
4013.71,0.35579
4007.93,0.35602
4002.14,0.35678
3996.35,0.35840
3990.57,0.36013
3984.78,0.36169
3979,0.36330
3973.21,0.36525
3967.42,0.36836
3961.64,0.37063
3955.85,0.37259
3950.06,0.37561
3944.28,0.37916
3938.49,0.38189
3932.71,0.38367
3926.92,0.38616
3921.13,0.38932
3915.35,0.39193
3909.56,0.39449
3903.77,0.39600
3897.99,0.39814
3892.2,0.40122
3886.42,0.40357
3880.63,0.40543
3874.84,0.40755
3869.06,0.41030
3863.27,0.41329
3857.48,0.41673
3851.7,0.42002
3845.91,0.42370
3840.13,0.42622
3834.34,0.42907
3828.55,0.43006
3822.77,0.43099
3816.98,0.43278
3811.2,0.43365
3805.41,0.43408
3799.62,0.43368
3793.84,0.43468
3788.05,0.43450
3782.26,0.43461
3776.48,0.43386
3770.69,0.43393
3764.91,0.43179
3759.12,0.43023
3753.33,0.42866
3747.55,0.42738
3741.76,0.42453
3735.97,0.42221
3730.19,0.41822
3724.4,0.41395
3718.62,0.40840
3712.83,0.40270
3707.04,0.39559
3701.26,0.38727
3695.47,0.37648
3689.68,0.36441
3683.9,0.34913
3678.11,0.33295
3672.33,0.31265
3666.54,0.29194
3660.75,0.27252
3654.97,0.25387
3649.18,0.23591
3643.39,0.22030
3637.61,0.20592
3631.82,0.19313
3626.04,0.17918
3620.25,0.16839
3614.46,0.15607
3608.68,0.14501
3602.89,0.13417
3597.1,0.12449
3591.32,0.11461
3585.53,0.10732
3579.75,0.10021
3573.96,0.09364
3568.17,0.08923
3562.39,0.08358
3556.6,0.07896
3550.81,0.07447
3545.03,0.07041
3539.24,0.06819
3533.46,0.06467
3527.67,0.06179
3521.88,0.05878
3516.1,0.05671
3510.31,0.05393
3504.53,0.05164
3498.74,0.05026
3492.95,0.04870
3487.17,0.04746
3481.38,0.04591
3475.59,0.04459
3469.81,0.04396
3464.02,0.04333
3458.24,0.04256
3452.45,0.04182
3446.66,0.04211
3440.88,0.04164
3435.09,0.04046
3429.3,0.04109
3423.52,0.04040
3417.73,0.04056
3411.95,0.04095
3406.16,0.04140
3400.37,0.04044
3394.59,0.04103
3388.8,0.04040
3383.01,0.04035
3377.23,0.04070
3371.44,0.03990
3365.66,0.04069
3359.87,0.04112
3354.08,0.04102
3348.3,0.04249
3342.51,0.04285
3336.72,0.04324
3330.94,0.04382
3325.15,0.04516
3319.37,0.04584
3313.58,0.04653
3307.79,0.04734
3302.01,0.04785
3296.22,0.04809
3290.43,0.04884
3284.65,0.05001
3278.86,0.05066
3273.08,0.05166
3267.29,0.05203
3261.5,0.05461
3255.72,0.05568
3249.93,0.05615
3244.14,0.05820
3238.36,0.05881
3232.57,0.06042
3226.79,0.06136
3221,0.06253
3215.21,0.06487
3209.43,0.06517
3203.64,0.06695
3197.86,0.06824
3192.07,0.07087
3186.28,0.07258
3180.5,0.07440
3174.71,0.07661
3168.92,0.07902
3163.14,0.08133
3157.35,0.08363
3151.57,0.08579
3145.78,0.08809
3139.99,0.08952
3134.21,0.09188
3128.42,0.09358
3122.63,0.09546
3116.85,0.09690
3111.06,0.09846
3105.28,0.09987
3099.49,0.10239
3093.7,0.10345
3087.92,0.10457
3082.13,0.10580
3076.34,0.10666
3070.56,0.10719
3064.77,0.10835
3058.99,0.10997
3053.2,0.11119
3047.41,0.11260
3041.63,0.11384
3035.84,0.11438
3030.05,0.11440
3024.27,0.11406
3018.48,0.11300
3012.7,0.11150
3006.91,0.10918
3001.12,0.10666
2995.34,0.10480
2989.55,0.10328
2983.76,0.09941
2977.98,0.09297
2972.19,0.08586
2966.41,0.08063
2960.62,0.07761
2954.83,0.07548
2949.05,0.07180
2943.26,0.06908
2937.47,0.06858
2931.69,0.06909
2925.9,0.06880
2920.12,0.06781
2914.33,0.06887
2908.54,0.07011
2902.76,0.07081
2896.97,0.07211
2891.18,0.07381
2885.4,0.07508
2879.61,0.07606
2873.83,0.07692
2868.04,0.07811
2862.25,0.08069
2856.47,0.08250
2850.68,0.08374
2844.9,0.08866
2839.11,0.09422
2833.32,0.10174
2827.54,0.11018
2821.75,0.11738
2815.96,0.12329
2810.18,0.12966
2804.39,0.13422
2798.61,0.13796
2792.82,0.14112
2787.03,0.14419
2781.25,0.14625
2775.46,0.14851
2769.67,0.14990
2763.89,0.15149
2758.1,0.15255
2752.32,0.15362
2746.53,0.15386
2740.74,0.15427
2734.96,0.15481
2729.17,0.15601
2723.38,0.15697
2717.6,0.15883
2711.81,0.16157
2706.03,0.16452
2700.24,0.16692
2694.45,0.16907
2688.67,0.17162
2682.88,0.17426
2677.09,0.17631
2671.31,0.17843
2665.52,0.17995
2659.74,0.18173
2653.95,0.18283
2648.16,0.18464
2642.38,0.18640
2636.59,0.18883
2630.8,0.19098
2625.02,0.19354
2619.23,0.19552
2613.45,0.19737
2607.66,0.19870
2601.87,0.20055
2596.09,0.20244
2590.3,0.20394
2584.51,0.20536
2578.73,0.20757
2572.94,0.20851
2567.16,0.20942
2561.37,0.21050
2555.58,0.21106
2549.8,0.21232
2544.01,0.21319
2538.23,0.21442
2532.44,0.21609
2526.65,0.21841
2520.87,0.22020
2515.08,0.22225
2509.29,0.22447
2503.51,0.22716
2497.72,0.23067
2491.94,0.23381
2486.15,0.23637
2480.36,0.23917
2474.58,0.24152
2468.79,0.24312
2463,0.24482
2457.22,0.24696
2451.43,0.24937
2445.65,0.25172
2439.86,0.25432
2434.07,0.25766
2428.29,0.26046
2422.5,0.26382
2416.71,0.26750
2410.93,0.27142
2405.14,0.27515
2399.36,0.27885
2393.57,0.28206
2387.78,0.28483
2382,0.28765
2376.21,0.29105
2370.42,0.29334
2364.64,0.29607
2358.85,0.29855
2353.07,0.30110
2347.28,0.30283
2341.49,0.30488
2335.71,0.30646
2329.92,0.30775
2324.13,0.30870
2318.35,0.30980
2312.56,0.31026
2306.78,0.31019
2300.99,0.30997
2295.2,0.31032
2289.42,0.31011
2283.63,0.31050
2277.84,0.31017
2272.06,0.30853
2266.27,0.30743
2260.49,0.30497
2254.7,0.30316
2248.91,0.30137
2243.13,0.30042
2237.34,0.30009
2231.56,0.30031
2225.77,0.30159
2219.98,0.30267
2214.2,0.30313
2208.41,0.30318
2202.62,0.30194
2196.84,0.29991
2191.05,0.29707
2185.27,0.29359
2179.48,0.28970
2173.69,0.28550
2167.91,0.28199
2162.12,0.27860
2156.33,0.27657
2150.55,0.27554
2144.76,0.27398
2138.98,0.27394
2133.19,0.27384
2127.4,0.27439
2121.62,0.27550
2115.83,0.27659
2110.04,0.27823
2104.26,0.28023
2098.47,0.28194
2092.69,0.28296
2086.9,0.28395
2081.11,0.28374
2075.33,0.28228
2069.54,0.28078
2063.75,0.27958
2057.97,0.27904
2052.18,0.27950
2046.4,0.28068
2040.61,0.28248
2034.82,0.28504
2029.04,0.28764
2023.25,0.29169
2017.46,0.29516
2011.68,0.29821
2005.89,0.30131
2000.11,0.30338
1994.32,0.30498
1988.53,0.30615
1982.75,0.30737
1976.96,0.30800
1971.17,0.30789
1965.39,0.30783
1959.6,0.30796
1953.82,0.30874
1948.03,0.31054
1942.24,0.31364
1936.46,0.31745
1930.67,0.32121
1924.89,0.32401
1919.1,0.32587
1913.31,0.32777
1907.53,0.32781
1901.74,0.32793
1895.95,0.32761
1890.17,0.32652
1884.38,0.32538
1878.6,0.32453
1872.81,0.32274
1867.02,0.32073
1861.24,0.31860
1855.45,0.31629
1849.66,0.31315
1843.88,0.30969
1838.09,0.30575
1832.31,0.30140
1826.52,0.29656
1820.73,0.29041
1814.95,0.28367
1809.16,0.27564
1803.37,0.26672
1797.59,0.25609
1791.8,0.24476
1786.02,0.23078
1780.23,0.21239
1774.44,0.18893
1768.66,0.15591
1762.87,0.12486
1757.08,0.10193
1751.3,0.08902
1745.51,0.08105
1739.73,0.07813
1733.94,0.07944
1728.15,0.08405
1722.37,0.08929
1716.58,0.09126
1710.79,0.08964
1705.01,0.08426
1699.22,0.07562
1693.44,0.06523
1687.65,0.05708
1681.86,0.05056
1676.08,0.04691
1670.29,0.04578
1664.5,0.04693
1658.72,0.04887
1652.93,0.05160
1647.15,0.05474
1641.36,0.05664
1635.57,0.05673
1629.79,0.05618
1624,0.05595
1618.21,0.05645
1612.43,0.05683
1606.64,0.05663
1600.86,0.05590
1595.07,0.05696
1589.28,0.06128
1583.5,0.06998
1577.71,0.07862
1571.93,0.08548
1566.14,0.08848
1560.35,0.08787
1554.57,0.08508
1548.78,0.08314
1542.99,0.08122
1537.21,0.07833
1531.42,0.07582
1525.64,0.06995
1519.85,0.06030
1514.06,0.05340
1508.28,0.05265
1502.49,0.05541
1496.7,0.06100
1490.92,0.06603
1485.13,0.06654
1479.35,0.06265
1473.56,0.05535
1467.77,0.04873
1461.99,0.04863
1456.2,0.04939
1450.41,0.05129
1444.63,0.05361
1438.84,0.05389
1433.06,0.05093
1427.27,0.05018
1421.48,0.05233
1415.7,0.05637
1409.91,0.05940
1404.12,0.06027
1398.34,0.06029
1392.55,0.05753
1386.77,0.05370
1380.98,0.04985
1375.19,0.04862
1369.41,0.04969
1363.62,0.05137
1357.83,0.05259
1352.05,0.05358
1346.26,0.05310
1340.48,0.05114
1334.69,0.05045
1328.9,0.05068
1323.12,0.05098
1317.33,0.05234
1311.54,0.05481
1305.76,0.05707
1299.97,0.05805
1294.19,0.05696
1288.4,0.05405
1282.61,0.05103
1276.83,0.04939
1271.04,0.04791
1265.26,0.04774
1259.47,0.04786
1253.68,0.04798
1247.9,0.04732
1242.11,0.04668
1236.32,0.04633
1230.54,0.04745
1224.75,0.04849
1218.97,0.05011
1213.18,0.05263
1207.39,0.05292
1201.61,0.05321
1195.82,0.05319
1190.03,0.05166
1184.25,0.04836
1178.46,0.04358
1172.68,0.03973
1166.89,0.04045
1161.1,0.04326
1155.32,0.04533
1149.53,0.04507
1143.74,0.04301
1137.96,0.04000
1132.17,0.03756
1126.39,0.03906
1120.6,0.04065
1114.81,0.04158
1109.03,0.04393
1103.24,0.04564
1097.45,0.04510
1091.67,0.04348
1085.88,0.04190
1080.1,0.04245
1074.31,0.04436
1068.52,0.04837
1062.74,0.05375
1056.95,0.05937
1051.16,0.06155
1045.38,0.06060
1039.59,0.06093
1033.81,0.06610
1028.02,0.06894
1022.23,0.07020
1016.45,0.07238
1010.66,0.07454
1004.87,0.07637
999.089,0.07922
993.302,0.08095
987.516,0.08672
981.73,0.09624
975.944,0.10268
970.157,0.10667
964.371,0.11200
958.585,0.11950
952.799,0.12778
947.013,0.13328
941.226,0.13605
935.44,0.13489
929.654,0.13543
923.868,0.13483
918.081,0.13252
912.295,0.12911
906.509,0.12362
900.723,0.11747
894.937,0.11884
889.15,0.12543
883.364,0.13062
877.578,0.13219
871.792,0.13359
866.005,0.13507
860.219,0.13459
854.433,0.13253
848.647,0.13224
842.86,0.13110
837.074,0.12802
831.288,0.12667
825.502,0.12710
819.716,0.12711
813.929,0.12710
808.143,0.12741
802.357,0.12677
796.571,0.12594
790.784,0.12451
784.998,0.12215
779.212,0.11870
773.426,0.11686
767.64,0.11357
761.853,0.11001
756.067,0.10606
750.281,0.10211
744.495,0.09930
738.708,0.09720
732.922,0.09367
727.136,0.08984
721.35,0.08783
715.563,0.08639
709.777,0.08655
703.991,0.08451
698.205,0.08298
692.419,0.08170
686.632,0.07988
680.846,0.07654
675.06,0.07313
669.274,0.07146
663.487,0.07220
657.701,0.07329
651.915,0.07283
646.129,0.07285
640.343,0.07045
634.556,0.06816
628.77,0.06704
622.984,0.06736
617.198,0.06596
611.411,0.06730
605.625,0.06684
599.839,0.06841