File: 01_Data/Luan_Panel/FTIR/IS/Luan_Panel_IS_S_220914_R4.dpt
7497.02,0.83957
7491.24,0.83698
7485.45,0.84099
7479.66,0.82069
7473.88,0.83225
7468.09,0.83574
7462.3,0.82711
7456.52,0.82322
7450.73,0.81180
7444.95,0.82512
7439.16,0.82716
7433.37,0.82171
7427.59,0.82408
7421.8,0.81407
7416.01,0.80662
7410.23,0.81786
7404.44,0.81153
7398.66,0.80672
7392.87,0.80043
7387.08,0.80294
7381.3,0.80144
7375.51,0.80597
7369.73,0.79461
7363.94,0.80318
7358.15,0.79646
7352.37,0.80163
7346.58,0.79186
7340.79,0.79889
7335.01,0.79278
7329.22,0.78719
7323.44,0.78630
7317.65,0.78323
7311.86,0.78825
7306.08,0.78082
7300.29,0.78702
7294.5,0.78372
7288.72,0.78212
7282.93,0.77242
7277.15,0.77551
7271.36,0.77883
7265.57,0.77231
7259.79,0.79268
7254,0.78325
7248.21,0.77356
7242.43,0.78036
7236.64,0.77850
7230.86,0.77976
7225.07,0.78011
7219.28,0.77860
7213.5,0.77654
7207.71,0.77701
7201.92,0.77506
7196.14,0.76722
7190.35,0.75617
7184.57,0.76170
7178.78,0.75799
7172.99,0.75933
7167.21,0.76014
7161.42,0.75433
7155.63,0.75293
7149.85,0.74995
7144.06,0.74788
7138.28,0.74853
7132.49,0.74561
7126.7,0.74314
7120.92,0.73778
7115.13,0.72995
7109.34,0.73174
7103.56,0.72901
7097.77,0.72004
7091.99,0.72438
7086.2,0.71142
7080.41,0.71146
7074.63,0.71051
7068.84,0.70926
7063.06,0.69842
7057.27,0.69137
7051.48,0.69210
7045.7,0.68626
7039.91,0.68195
7034.12,0.68427
7028.34,0.67717
7022.55,0.67121
7016.77,0.67184
7010.98,0.66307
7005.19,0.65804
6999.41,0.66266
6993.62,0.65861
6987.83,0.66047
6982.05,0.64962
6976.26,0.65092
6970.48,0.64072
6964.69,0.65298
6958.9,0.64817
6953.12,0.64286
6947.33,0.64228
6941.54,0.64403
6935.76,0.64752
6929.97,0.63653
6924.19,0.63910
6918.4,0.64254
6912.61,0.64143
6906.83,0.63480
6901.04,0.63809
6895.25,0.63575
6889.47,0.63405
6883.68,0.63522
6877.9,0.63061
6872.11,0.63600
6866.32,0.63104
6860.54,0.63213
6854.75,0.62570
6848.96,0.62468
6843.18,0.62681
6837.39,0.63154
6831.61,0.63400
6825.82,0.63264
6820.03,0.62990
6814.25,0.62348
6808.46,0.62470
6802.67,0.62511
6796.89,0.62334
6791.1,0.62696
6785.32,0.62376
6779.53,0.62136
6773.74,0.61706
6767.96,0.62077
6762.17,0.62084
6756.38,0.62085
6750.6,0.61831
6744.81,0.61760
6739.03,0.61656
6733.24,0.61807
6727.45,0.61618
6721.67,0.61720
6715.88,0.62040
6710.1,0.62040
6704.31,0.61647
6698.52,0.61516
6692.74,0.61535
6686.95,0.61646
6681.16,0.62442
6675.38,0.62205
6669.59,0.61834
6663.81,0.62308
6658.02,0.62272
6652.23,0.62533
6646.45,0.62242
6640.66,0.62622
6634.87,0.62500
6629.09,0.62491
6623.3,0.62653
6617.52,0.62584
6611.73,0.62846
6605.94,0.63322
6600.16,0.63251
6594.37,0.63667
6588.58,0.63682
6582.8,0.63548
6577.01,0.63648
6571.23,0.63744
6565.44,0.63452
6559.65,0.63822
6553.87,0.63914
6548.08,0.64525
6542.29,0.63945
6536.51,0.64605
6530.72,0.64193
6524.94,0.64856
6519.15,0.64324
6513.36,0.64216
6507.58,0.64992
6501.79,0.64695
6496,0.64625
6490.22,0.64500
6484.43,0.64697
6478.65,0.64981
6472.86,0.64891
6467.07,0.65394
6461.29,0.65405
6455.5,0.65112
6449.71,0.64968
6443.93,0.65125
6438.14,0.64703
6432.36,0.65235
6426.57,0.65380
6420.78,0.65360
6415,0.65093
6409.21,0.65543
6403.43,0.65167
6397.64,0.65266
6391.85,0.65467
6386.07,0.65711
6380.28,0.65553
6374.49,0.65435
6368.71,0.65560
6362.92,0.65563
6357.14,0.65666
6351.35,0.65890
6345.56,0.66096
6339.78,0.66180
6333.99,0.66187
6328.2,0.66356
6322.42,0.66333
6316.63,0.66426
6310.85,0.66480
6305.06,0.66641
6299.27,0.66528
6293.49,0.66418
6287.7,0.66479
6281.91,0.66943
6276.13,0.67222
6270.34,0.67074
6264.56,0.67000
6258.77,0.67845
6252.98,0.67631
6247.2,0.67986
6241.41,0.67702
6235.62,0.68034
6229.84,0.68080
6224.05,0.68223
6218.27,0.68378
6212.48,0.68443
6206.69,0.68534
6200.91,0.69019
6195.12,0.68659
6189.33,0.68961
6183.55,0.69411
6177.76,0.69825
6171.98,0.69809
6166.19,0.69719
6160.4,0.69505
6154.62,0.69834
6148.83,0.69626
6143.04,0.69999
6137.26,0.69665
6131.47,0.69925
6125.69,0.70438
6119.9,0.70220
6114.11,0.70324
6108.33,0.70386
6102.54,0.70388
6096.76,0.70402
6090.97,0.70431
6085.18,0.70362
6079.4,0.70187
6073.61,0.70107
6067.82,0.70086
6062.04,0.69914
6056.25,0.69833
6050.47,0.70021
6044.68,0.69742
6038.89,0.69559
6033.11,0.69370
6027.32,0.69478
6021.53,0.69264
6015.75,0.68921
6009.96,0.68833
6004.18,0.68846
5998.39,0.68552
5992.6,0.68373
5986.82,0.68591
5981.03,0.68518
5975.24,0.68332
5969.46,0.68550
5963.67,0.68101
5957.89,0.68108
5952.1,0.68194
5946.31,0.68184
5940.53,0.68224
5934.74,0.68419
5928.95,0.68403
5923.17,0.68099
5917.38,0.68080
5911.6,0.68001
5905.81,0.68157
5900.02,0.67674
5894.24,0.67825
5888.45,0.67450
5882.66,0.67627
5876.88,0.67618
5871.09,0.67320
5865.31,0.67466
5859.52,0.67328
5853.73,0.67443
5847.95,0.67495
5842.16,0.67296
5836.37,0.67194
5830.59,0.67048
5824.8,0.67236
5819.02,0.67092
5813.23,0.66844
5807.44,0.66978
5801.66,0.66823
5795.87,0.66925
5790.08,0.66618
5784.3,0.66741
5778.51,0.66879
5772.73,0.67275
5766.94,0.67021
5761.15,0.67274
5755.37,0.67496
5749.58,0.67289
5743.8,0.67125
5738.01,0.67461
5732.22,0.67421
5726.44,0.67274
5720.65,0.67504
5714.86,0.67484
5709.08,0.67242
5703.29,0.67508
5697.51,0.67486
5691.72,0.67553
5685.93,0.67364
5680.15,0.67482
5674.36,0.67245
5668.57,0.67448
5662.79,0.67282
5657,0.67336
5651.22,0.67619
5645.43,0.67521
5639.64,0.67560
5633.86,0.67494
5628.07,0.67318
5622.28,0.67489
5616.5,0.67583
5610.71,0.67590
5604.93,0.67472
5599.14,0.67524
5593.35,0.67361
5587.57,0.67484
5581.78,0.67496
5575.99,0.67662
5570.21,0.67697
5564.42,0.67791
5558.64,0.67828
5552.85,0.67690
5547.06,0.67664
5541.28,0.67757
5535.49,0.67886
5529.7,0.68012
5523.92,0.68055
5518.13,0.67932
5512.35,0.68119
5506.56,0.68085
5500.77,0.68252
5494.99,0.68189
5489.2,0.68416
5483.41,0.68120
5477.63,0.68157
5471.84,0.68353
5466.06,0.68361
5460.27,0.68209
5454.48,0.68423
5448.7,0.68547
5442.91,0.68487
5437.13,0.68658
5431.34,0.68912
5425.55,0.68899
5419.77,0.68859
5413.98,0.69037
5408.19,0.69076
5402.41,0.69152
5396.62,0.69166
5390.84,0.69191
5385.05,0.69156
5379.26,0.69219
5373.48,0.69412
5367.69,0.69069
5361.9,0.68944
5356.12,0.68970
5350.33,0.68933
5344.55,0.69035
5338.76,0.68767
5332.97,0.68719
5327.19,0.68403
5321.4,0.68059
5315.61,0.67730
5309.83,0.67202
5304.04,0.66762
5298.26,0.66263
5292.47,0.65751
5286.68,0.64893
5280.9,0.63914
5275.11,0.63101
5269.32,0.62154
5263.54,0.61218
5257.75,0.60124
5251.97,0.59268
5246.18,0.58476
5240.39,0.57847
5234.61,0.57086
5228.82,0.56823
5223.03,0.56149
5217.25,0.55811
5211.46,0.55652
5205.68,0.55358
5199.89,0.55276
5194.1,0.55218
5188.32,0.55157
5182.53,0.55157
5176.74,0.55100
5170.96,0.55274
5165.17,0.55397
5159.39,0.55527
5153.6,0.55567
5147.81,0.55620
5142.03,0.55825
5136.24,0.55800
5130.46,0.55925
5124.67,0.55977
5118.88,0.56017
5113.1,0.55808
5107.31,0.55707
5101.52,0.55489
5095.74,0.55273
5089.95,0.54963
5084.17,0.54911
5078.38,0.54745
5072.59,0.54916
5066.81,0.54948
5061.02,0.55268
5055.23,0.55428
5049.45,0.55685
5043.66,0.55968
5037.88,0.56206
5032.09,0.56381
5026.3,0.56692
5020.52,0.56903
5014.73,0.57127
5008.94,0.57275
5003.16,0.57423
4997.37,0.57488
4991.59,0.57634
4985.8,0.57648
4980.01,0.57590
4974.23,0.57586
4968.44,0.57323
4962.65,0.56932
4956.87,0.56545
4951.08,0.56233
4945.3,0.55879
4939.51,0.55480
4933.72,0.55211
4927.94,0.54900
4922.15,0.54568
4916.36,0.54318
4910.58,0.54091
4904.79,0.53742
4899.01,0.53577
4893.22,0.53319
4887.43,0.52826
4881.65,0.52578
4875.86,0.52420
4870.07,0.51961
4864.29,0.51769
4858.5,0.51403
4852.72,0.50924
4846.93,0.50748
4841.14,0.50466
4835.36,0.50184
4829.57,0.49878
4823.78,0.49692
4818,0.49436
4812.21,0.49270
4806.43,0.49105
4800.64,0.49014
4794.85,0.48949
4789.07,0.48853
4783.28,0.48816
4777.5,0.48753
4771.71,0.48630
4765.92,0.48664
4760.14,0.48589
4754.35,0.48459
4748.56,0.48371
4742.78,0.48379
4736.99,0.48388
4731.21,0.48531
4725.42,0.48489
4719.63,0.48539
4713.85,0.48558
4708.06,0.48437
4702.27,0.48433
4696.49,0.48477
4690.7,0.48407
4684.92,0.48394
4679.13,0.48565
4673.34,0.48574
4667.56,0.48609
4661.77,0.48660
4655.98,0.48757
4650.2,0.48804
4644.41,0.48944
4638.63,0.49023
4632.84,0.49154
4627.05,0.49262
4621.27,0.49539
4615.48,0.49727
4609.69,0.49954
4603.91,0.50058
4598.12,0.50309
4592.34,0.50504
4586.55,0.50663
4580.76,0.50707
4574.98,0.50739
4569.19,0.50779
4563.4,0.50895
4557.62,0.50968
4551.83,0.50985
4546.05,0.51025
4540.26,0.51220
4534.47,0.51205
4528.69,0.51320
4522.9,0.51203
4517.11,0.51342
4511.33,0.51406
4505.54,0.51376
4499.76,0.51371
4493.97,0.51231
4488.18,0.50942
4482.4,0.50523
4476.61,0.50149
4470.83,0.49619
4465.04,0.49002
4459.25,0.48524
4453.47,0.47873
4447.68,0.47332
4441.89,0.46611
4436.11,0.46000
4430.32,0.45255
4424.54,0.44588
4418.75,0.43976
4412.96,0.43577
4407.18,0.43231
4401.39,0.43150
4395.6,0.43152
4389.82,0.43149
4384.03,0.43462
4378.25,0.43659
4372.46,0.43962
4366.67,0.44251
4360.89,0.44644
4355.1,0.44764
4349.31,0.44763
4343.53,0.44792
4337.74,0.44769
4331.96,0.44614
4326.17,0.44427
4320.38,0.44230
4314.6,0.44210
4308.81,0.44023
4303.02,0.43802
4297.24,0.43558
4291.45,0.43341
4285.67,0.43188
4279.88,0.43163
4274.09,0.43228
4268.31,0.43346
4262.52,0.43529
4256.73,0.43587
4250.95,0.43648
4245.16,0.43842
4239.38,0.43865
4233.59,0.43938
4227.8,0.43990
4222.02,0.44018
4216.23,0.43973
4210.44,0.44013
4204.66,0.43947
4198.87,0.44017
4193.09,0.44049
4187.3,0.44034
4181.51,0.44190
4175.73,0.44333
4169.94,0.44535
4164.16,0.44624
4158.37,0.44662
4152.58,0.44656
4146.8,0.44525
4141.01,0.44339
4135.22,0.44012
4129.44,0.43691
4123.65,0.43322
4117.87,0.42935
4112.08,0.42599
4106.29,0.42161
4100.51,0.41675
4094.72,0.41293
4088.93,0.40738
4083.15,0.40289
4077.36,0.39703
4071.58,0.39120
4065.79,0.38576
4060,0.38078
4054.22,0.37576
4048.43,0.37037
4042.64,0.36483
4036.86,0.36098
4031.07,0.35749
4025.29,0.35401
4019.5,0.35273
4013.71,0.35153
4007.93,0.35219
4002.14,0.35266
3996.35,0.35410
3990.57,0.35620
3984.78,0.35779
3979,0.35908
3973.21,0.36073
3967.42,0.36328
3961.64,0.36648
3955.85,0.36871
3950.06,0.37198
3944.28,0.37482
3938.49,0.37706
3932.71,0.38007
3926.92,0.38289
3921.13,0.38492
3915.35,0.38750
3909.56,0.39041
3903.77,0.39187
3897.99,0.39351
3892.2,0.39601
3886.42,0.39784
3880.63,0.39962
3874.84,0.40224
3869.06,0.40486
3863.27,0.40769
3857.48,0.41153
3851.7,0.41414
3845.91,0.41772
3840.13,0.42001
3834.34,0.42151
3828.55,0.42361
3822.77,0.42472
3816.98,0.42502
3811.2,0.42579
3805.41,0.42557
3799.62,0.42647
3793.84,0.42651
3788.05,0.42565
3782.26,0.42598
3776.48,0.42482
3770.69,0.42332
3764.91,0.42201
3759.12,0.42108
3753.33,0.41861
3747.55,0.41639
3741.76,0.41346
3735.97,0.41046
3730.19,0.40606
3724.4,0.40127
3718.62,0.39541
3712.83,0.38953
3707.04,0.38093
3701.26,0.37265
3695.47,0.36106
3689.68,0.34766
3683.9,0.33103
3678.11,0.31276
3672.33,0.29228
3666.54,0.27159
3660.75,0.25247
3654.97,0.23289
3649.18,0.21562
3643.39,0.19988
3637.61,0.18661
3631.82,0.17527
3626.04,0.16320
3620.25,0.15258
3614.46,0.14247
3608.68,0.13280
3602.89,0.12359
3597.1,0.11566
3591.32,0.10746
3585.53,0.10039
3579.75,0.09453
3573.96,0.08930
3568.17,0.08464
3562.39,0.07974
3556.6,0.07626
3550.81,0.07172
3545.03,0.06882
3539.24,0.06549
3533.46,0.06289
3527.67,0.06035
3521.88,0.05763
3516.1,0.05548
3510.31,0.05346
3504.53,0.05175
3498.74,0.04912
3492.95,0.04817
3487.17,0.04651
3481.38,0.04584
3475.59,0.04426
3469.81,0.04359
3464.02,0.04291
3458.24,0.04249
3452.45,0.04208
3446.66,0.04220
3440.88,0.04118
3435.09,0.04112
3429.3,0.04070
3423.52,0.04086
3417.73,0.04081
3411.95,0.04095
3406.16,0.04030
3400.37,0.04019
3394.59,0.04082
3388.8,0.04095
3383.01,0.04072
3377.23,0.04070
3371.44,0.04061
3365.66,0.04063
3359.87,0.04105
3354.08,0.04084
3348.3,0.04173
3342.51,0.04182
3336.72,0.04268
3330.94,0.04389
3325.15,0.04513
3319.37,0.04550
3313.58,0.04641
3307.79,0.04705
3302.01,0.04744
3296.22,0.04827
3290.43,0.04902
3284.65,0.04899
3278.86,0.05023
3273.08,0.05140
3267.29,0.05204
3261.5,0.05335
3255.72,0.05464
3249.93,0.05567
3244.14,0.05739
3238.36,0.05844
3232.57,0.05934
3226.79,0.06049
3221,0.06185
3215.21,0.06276
3209.43,0.06431
3203.64,0.06616
3197.86,0.06832
3192.07,0.07038
3186.28,0.07106
3180.5,0.07327
3174.71,0.07535
3168.92,0.07724
3163.14,0.07988
3157.35,0.08207
3151.57,0.08408
3145.78,0.08591
3139.99,0.08812
3134.21,0.09028
3128.42,0.09162
3122.63,0.09361
3116.85,0.09503
3111.06,0.09666
3105.28,0.09866
3099.49,0.09928
3093.7,0.10138
3087.92,0.10252
3082.13,0.10323
3076.34,0.10450
3070.56,0.10530
3064.77,0.10633
3058.99,0.10807
3053.2,0.10878
3047.41,0.11007
3041.63,0.11166
3035.84,0.11180
3030.05,0.11238
3024.27,0.11206
3018.48,0.11157
3012.7,0.10982
3006.91,0.10713
3001.12,0.10576
2995.34,0.10449
2989.55,0.10241
2983.76,0.09879
2977.98,0.09200
2972.19,0.08562
2966.41,0.08065
2960.62,0.07766
2954.83,0.07492
2949.05,0.07199
2943.26,0.06887
2937.47,0.06788
2931.69,0.06861
2925.9,0.06844
2920.12,0.06794
2914.33,0.06816
2908.54,0.07009
2902.76,0.07077
2896.97,0.07188
2891.18,0.07355
2885.4,0.07499
2879.61,0.07598
2873.83,0.07697
2868.04,0.07765
2862.25,0.08016
2856.47,0.08223
2850.68,0.08345
2844.9,0.08853
2839.11,0.09452
2833.32,0.10088
2827.54,0.10936
2821.75,0.11654
2815.96,0.12257
2810.18,0.12826
2804.39,0.13294
2798.61,0.13659
2792.82,0.13970
2787.03,0.14308
2781.25,0.14467
2775.46,0.14660
2769.67,0.14854
2763.89,0.15000
2758.1,0.15073
2752.32,0.15177
2746.53,0.15204
2740.74,0.15298
2734.96,0.15312
2729.17,0.15430
2723.38,0.15600
2717.6,0.15770
2711.81,0.15971
2706.03,0.16277
2700.24,0.16557
2694.45,0.16764
2688.67,0.17014
2682.88,0.17287
2677.09,0.17506
2671.31,0.17692
2665.52,0.17869
2659.74,0.17969
2653.95,0.18135
2648.16,0.18272
2642.38,0.18497
2636.59,0.18716
2630.8,0.18985
2625.02,0.19158
2619.23,0.19398
2613.45,0.19580
2607.66,0.19717
2601.87,0.19911
2596.09,0.20080
2590.3,0.20230
2584.51,0.20462
2578.73,0.20577
2572.94,0.20709
2567.16,0.20750
2561.37,0.20864
2555.58,0.20983
2549.8,0.21055
2544.01,0.21165
2538.23,0.21335
2532.44,0.21460
2526.65,0.21657
2520.87,0.21862
2515.08,0.22041
2509.29,0.22265
2503.51,0.22600
2497.72,0.22916
2491.94,0.23241
2486.15,0.23501
2480.36,0.23709
2474.58,0.23916
2468.79,0.24151
2463,0.24323
2457.22,0.24498
2451.43,0.24722
2445.65,0.24964
2439.86,0.25242
2434.07,0.25512
2428.29,0.25879
2422.5,0.26212
2416.71,0.26536
2410.93,0.26940
2405.14,0.27301
2399.36,0.27629
2393.57,0.27938
2387.78,0.28228
2382,0.28495
2376.21,0.28763
2370.42,0.29043
2364.64,0.29297
2358.85,0.29487
2353.07,0.29725
2347.28,0.29929
2341.49,0.30168
2335.71,0.30270
2329.92,0.30409
2324.13,0.30492
2318.35,0.30562
2312.56,0.30628
2306.78,0.30649
2300.99,0.30598
2295.2,0.30586
2289.42,0.30651
2283.63,0.30613
2277.84,0.30577
2272.06,0.30450
2266.27,0.30277
2260.49,0.30044
2254.7,0.29849
2248.91,0.29659
2243.13,0.29585
2237.34,0.29530
2231.56,0.29573
2225.77,0.29636
2219.98,0.29721
2214.2,0.29790
2208.41,0.29724
2202.62,0.29607
2196.84,0.29408
2191.05,0.29123
2185.27,0.28802
2179.48,0.28366
2173.69,0.28011
2167.91,0.27604
2162.12,0.27312
2156.33,0.27133
2150.55,0.26969
2144.76,0.26859
2138.98,0.26788
2133.19,0.26799
2127.4,0.26889
2121.62,0.26947
2115.83,0.27114
2110.04,0.27237
2104.26,0.27406
2098.47,0.27529
2092.69,0.27683
2086.9,0.27738
2081.11,0.27737
2075.33,0.27625
2069.54,0.27509
2063.75,0.27385
2057.97,0.27366
2052.18,0.27361
2046.4,0.27473
2040.61,0.27659
2034.82,0.27897
2029.04,0.28237
2023.25,0.28545
2017.46,0.28927
2011.68,0.29257
2005.89,0.29514
2000.11,0.29731
1994.32,0.29896
1988.53,0.30081
1982.75,0.30178
1976.96,0.30262
1971.17,0.30248
1965.39,0.30238
1959.6,0.30249
1953.82,0.30316
1948.03,0.30544
1942.24,0.30853
1936.46,0.31190
1930.67,0.31589
1924.89,0.31855
1919.1,0.32092
1913.31,0.32203
1907.53,0.32289
1901.74,0.32270
1895.95,0.32212
1890.17,0.32118
1884.38,0.32040
1878.6,0.31946
1872.81,0.31792
1867.02,0.31592
1861.24,0.31370
1855.45,0.31105
1849.66,0.30832
1843.88,0.30485
1838.09,0.30129
1832.31,0.29715
1826.52,0.29212
1820.73,0.28648
1814.95,0.28015
1809.16,0.27233
1803.37,0.26331
1797.59,0.25335
1791.8,0.24191
1786.02,0.22897
1780.23,0.21150
1774.44,0.18878
1768.66,0.15679
1762.87,0.12602
1757.08,0.10260
1751.3,0.08935
1745.51,0.08112
1739.73,0.07764
1733.94,0.07905
1728.15,0.08362
1722.37,0.08845
1716.58,0.09082
1710.79,0.08957
1705.01,0.08440
1699.22,0.07566
1693.44,0.06550
1687.65,0.05733
1681.86,0.05027
1676.08,0.04684
1670.29,0.04518
1664.5,0.04658
1658.72,0.04841
1652.93,0.05119
1647.15,0.05364
1641.36,0.05578
1635.57,0.05601
1629.79,0.05557
1624,0.05501
1618.21,0.05583
1612.43,0.05639
1606.64,0.05612
1600.86,0.05612
1595.07,0.05673
1589.28,0.06109
1583.5,0.06934
1577.71,0.07848
1571.93,0.08508
1566.14,0.08700
1560.35,0.08632
1554.57,0.08389
1548.78,0.08220
1542.99,0.08035
1537.21,0.07826
1531.42,0.07497
1525.64,0.06951
1519.85,0.06024
1514.06,0.05397
1508.28,0.05251
1502.49,0.05542
1496.7,0.06086
1490.92,0.06605
1485.13,0.06695
1479.35,0.06281
1473.56,0.05491
1467.77,0.04911
1461.99,0.04841
1456.2,0.04986
1450.41,0.05142
1444.63,0.05325
1438.84,0.05335
1433.06,0.05102
1427.27,0.04995
1421.48,0.05210
1415.7,0.05585
1409.91,0.05961
1404.12,0.06064
1398.34,0.06002
1392.55,0.05782
1386.77,0.05375
1380.98,0.05003
1375.19,0.04839
1369.41,0.04942
1363.62,0.05099
1357.83,0.05295
1352.05,0.05373
1346.26,0.05344
1340.48,0.05105
1334.69,0.05064
1328.9,0.05049
1323.12,0.05117
1317.33,0.05265
1311.54,0.05489
1305.76,0.05712
1299.97,0.05801
1294.19,0.05680
1288.4,0.05400
1282.61,0.05101
1276.83,0.04969
1271.04,0.04788
1265.26,0.04801
1259.47,0.04774
1253.68,0.04791
1247.9,0.04745
1242.11,0.04646
1236.32,0.04643
1230.54,0.04727
1224.75,0.04875
1218.97,0.05099
1213.18,0.05244
1207.39,0.05226
1201.61,0.05342
1195.82,0.05348
1190.03,0.05136
1184.25,0.04793
1178.46,0.04431
1172.68,0.03939
1166.89,0.04045
1161.1,0.04332
1155.32,0.04490
1149.53,0.04514
1143.74,0.04330
1137.96,0.04012
1132.17,0.03768
1126.39,0.03879
1120.6,0.04088
1114.81,0.04253
1109.03,0.04416
1103.24,0.04540
1097.45,0.04535
1091.67,0.04337
1085.88,0.04284
1080.1,0.04261
1074.31,0.04544
1068.52,0.04801
1062.74,0.05370
1056.95,0.05934
1051.16,0.06140
1045.38,0.06076
1039.59,0.06176
1033.81,0.06660
1028.02,0.06858
1022.23,0.07084
1016.45,0.07284
1010.66,0.07460
1004.87,0.07668
999.089,0.07916
993.302,0.08091
987.516,0.08577
981.73,0.09558
975.944,0.10291
970.157,0.10632
964.371,0.11150
958.585,0.11965
952.799,0.12733
947.013,0.13274
941.226,0.13391
935.44,0.13395
929.654,0.13358
923.868,0.13394
918.081,0.13143
912.295,0.12811
906.509,0.12291
900.723,0.11591
894.937,0.11652
889.15,0.12383
883.364,0.12870
877.578,0.13050
871.792,0.13286
866.005,0.13351
860.219,0.13223
854.433,0.13038
848.647,0.13003
842.86,0.12865
837.074,0.12584
831.288,0.12442
825.502,0.12492
819.716,0.12382
813.929,0.12460
808.143,0.12476
802.357,0.12352
796.571,0.12352
790.784,0.12176
784.998,0.11816
779.212,0.11669
773.426,0.11252
767.64,0.11086
761.853,0.10706
756.067,0.10326
750.281,0.09981
744.495,0.09677
738.708,0.09422
732.922,0.09183
727.136,0.08792
721.35,0.08440
715.563,0.08499
709.777,0.08298
703.991,0.08271
698.205,0.08182
692.419,0.08053
686.632,0.07844
680.846,0.07455
675.06,0.07320
669.274,0.07120
663.487,0.07308
657.701,0.07376
651.915,0.07419
646.129,0.07220
640.343,0.07000
634.556,0.06889
628.77,0.06739
622.984,0.06681
617.198,0.06773
611.411,0.06714
605.625,0.06804
599.839,0.07124