File: 01_Data/Luan_Panel/FTIR/IS/Luan_Panel_IS_S_220914_R8.dpt
7497.02,0.84145
7491.24,0.84798
7485.45,0.83584
7479.66,0.84562
7473.88,0.83828
7468.09,0.82982
7462.3,0.83568
7456.52,0.83493
7450.73,0.83690
7444.95,0.83341
7439.16,0.82354
7433.37,0.81314
7427.59,0.80761
7421.8,0.82251
7416.01,0.81453
7410.23,0.81718
7404.44,0.81457
7398.66,0.81060
7392.87,0.81162
7387.08,0.80474
7381.3,0.81590
7375.51,0.81032
7369.73,0.80177
7363.94,0.80549
7358.15,0.79950
7352.37,0.80621
7346.58,0.79627
7340.79,0.80036
7335.01,0.78195
7329.22,0.79536
7323.44,0.79309
7317.65,0.79010
7311.86,0.78825
7306.08,0.78826
7300.29,0.78736
7294.5,0.77951
7288.72,0.77726
7282.93,0.78154
7277.15,0.78478
7271.36,0.78130
7265.57,0.77694
7259.79,0.77863
7254,0.77914
7248.21,0.77383
7242.43,0.78353
7236.64,0.77931
7230.86,0.78015
7225.07,0.77955
7219.28,0.78104
7213.5,0.78798
7207.71,0.77875
7201.92,0.77310
7196.14,0.76948
7190.35,0.77471
7184.57,0.77266
7178.78,0.77066
7172.99,0.76976
7167.21,0.75931
7161.42,0.75983
7155.63,0.75625
7149.85,0.75847
7144.06,0.76460
7138.28,0.75644
7132.49,0.74953
7126.7,0.74852
7120.92,0.74756
7115.13,0.73797
7109.34,0.74045
7103.56,0.73403
7097.77,0.74114
7091.99,0.72471
7086.2,0.72275
7080.41,0.71577
7074.63,0.71736
7068.84,0.70891
7063.06,0.70908
7057.27,0.70816
7051.48,0.69783
7045.7,0.69423
7039.91,0.69370
7034.12,0.68713
7028.34,0.68336
7022.55,0.67948
7016.77,0.67976
7010.98,0.67375
7005.19,0.66636
6999.41,0.67107
6993.62,0.65609
6987.83,0.65805
6982.05,0.65608
6976.26,0.66039
6970.48,0.66105
6964.69,0.65266
6958.9,0.64863
6953.12,0.65268
6947.33,0.64956
6941.54,0.64784
6935.76,0.64590
6929.97,0.64167
6924.19,0.64644
6918.4,0.64489
6912.61,0.64277
6906.83,0.64187
6901.04,0.64281
6895.25,0.63821
6889.47,0.64465
6883.68,0.63947
6877.9,0.63829
6872.11,0.63949
6866.32,0.63905
6860.54,0.63638
6854.75,0.63319
6848.96,0.63415
6843.18,0.63370
6837.39,0.64085
6831.61,0.63240
6825.82,0.63706
6820.03,0.63209
6814.25,0.63273
6808.46,0.63357
6802.67,0.63191
6796.89,0.62874
6791.1,0.62699
6785.32,0.62980
6779.53,0.62956
6773.74,0.62542
6767.96,0.62102
6762.17,0.62216
6756.38,0.62401
6750.6,0.62292
6744.81,0.62271
6739.03,0.62012
6733.24,0.62169
6727.45,0.62237
6721.67,0.62280
6715.88,0.62212
6710.1,0.62168
6704.31,0.62229
6698.52,0.62399
6692.74,0.61997
6686.95,0.61750
6681.16,0.62893
6675.38,0.62091
6669.59,0.62422
6663.81,0.62878
6658.02,0.62876
6652.23,0.62222
6646.45,0.62668
6640.66,0.62643
6634.87,0.63001
6629.09,0.62784
6623.3,0.62746
6617.52,0.63294
6611.73,0.63297
6605.94,0.63243
6600.16,0.63348
6594.37,0.63714
6588.58,0.63450
6582.8,0.63537
6577.01,0.63840
6571.23,0.64053
6565.44,0.64240
6559.65,0.64322
6553.87,0.64144
6548.08,0.64591
6542.29,0.64212
6536.51,0.64937
6530.72,0.64448
6524.94,0.64726
6519.15,0.64755
6513.36,0.64802
6507.58,0.64898
6501.79,0.64628
6496,0.64781
6490.22,0.65276
6484.43,0.65079
6478.65,0.65231
6472.86,0.64814
6467.07,0.65364
6461.29,0.65630
6455.5,0.65373
6449.71,0.65199
6443.93,0.65352
6438.14,0.65088
6432.36,0.65657
6426.57,0.65233
6420.78,0.65741
6415,0.65497
6409.21,0.65446
6403.43,0.65633
6397.64,0.65777
6391.85,0.66045
6386.07,0.66019
6380.28,0.65900
6374.49,0.66221
6368.71,0.66432
6362.92,0.66175
6357.14,0.66800
6351.35,0.66453
6345.56,0.66386
6339.78,0.66644
6333.99,0.66980
6328.2,0.66614
6322.42,0.66797
6316.63,0.66739
6310.85,0.66670
6305.06,0.67102
6299.27,0.67124
6293.49,0.66893
6287.7,0.66954
6281.91,0.67172
6276.13,0.67499
6270.34,0.67834
6264.56,0.67774
6258.77,0.67864
6252.98,0.67671
6247.2,0.68066
6241.41,0.68525
6235.62,0.68437
6229.84,0.68338
6224.05,0.68866
6218.27,0.68720
6212.48,0.68746
6206.69,0.69163
6200.91,0.69406
6195.12,0.69763
6189.33,0.69768
6183.55,0.69856
6177.76,0.69542
6171.98,0.69711
6166.19,0.69883
6160.4,0.70221
6154.62,0.70415
6148.83,0.70286
6143.04,0.70084
6137.26,0.70069
6131.47,0.70375
6125.69,0.70432
6119.9,0.70218
6114.11,0.70512
6108.33,0.70617
6102.54,0.70599
6096.76,0.70816
6090.97,0.70673
6085.18,0.70337
6079.4,0.70543
6073.61,0.70416
6067.82,0.70610
6062.04,0.70326
6056.25,0.70232
6050.47,0.70211
6044.68,0.70265
6038.89,0.70004
6033.11,0.69744
6027.32,0.69718
6021.53,0.69620
6015.75,0.69372
6009.96,0.69006
6004.18,0.69229
5998.39,0.69030
5992.6,0.68751
5986.82,0.68900
5981.03,0.68786
5975.24,0.68677
5969.46,0.68251
5963.67,0.68468
5957.89,0.68690
5952.1,0.68423
5946.31,0.68588
5940.53,0.68374
5934.74,0.68541
5928.95,0.68301
5923.17,0.68525
5917.38,0.68626
5911.6,0.68149
5905.81,0.67966
5900.02,0.67853
5894.24,0.67988
5888.45,0.67736
5882.66,0.67702
5876.88,0.67888
5871.09,0.67645
5865.31,0.67754
5859.52,0.67635
5853.73,0.67570
5847.95,0.67499
5842.16,0.67698
5836.37,0.67713
5830.59,0.67466
5824.8,0.67299
5819.02,0.67153
5813.23,0.67345
5807.44,0.67040
5801.66,0.67081
5795.87,0.67232
5790.08,0.67145
5784.3,0.67143
5778.51,0.67051
5772.73,0.67485
5766.94,0.67484
5761.15,0.67479
5755.37,0.67549
5749.58,0.67682
5743.8,0.67759
5738.01,0.67712
5732.22,0.67524
5726.44,0.67608
5720.65,0.67829
5714.86,0.67892
5709.08,0.67595
5703.29,0.67923
5697.51,0.67786
5691.72,0.67750
5685.93,0.67879
5680.15,0.67778
5674.36,0.67868
5668.57,0.67837
5662.79,0.67784
5657,0.67756
5651.22,0.67910
5645.43,0.67809
5639.64,0.67745
5633.86,0.67898
5628.07,0.67752
5622.28,0.67696
5616.5,0.67789
5610.71,0.67646
5604.93,0.67784
5599.14,0.67865
5593.35,0.67791
5587.57,0.67879
5581.78,0.68045
5575.99,0.67876
5570.21,0.67841
5564.42,0.67907
5558.64,0.68157
5552.85,0.68246
5547.06,0.68193
5541.28,0.68350
5535.49,0.68264
5529.7,0.68371
5523.92,0.68168
5518.13,0.68473
5512.35,0.68483
5506.56,0.68383
5500.77,0.68394
5494.99,0.68410
5489.2,0.68608
5483.41,0.68498
5477.63,0.68532
5471.84,0.68715
5466.06,0.68681
5460.27,0.68760
5454.48,0.68784
5448.7,0.69032
5442.91,0.69008
5437.13,0.69135
5431.34,0.69172
5425.55,0.69241
5419.77,0.69278
5413.98,0.69539
5408.19,0.69456
5402.41,0.69602
5396.62,0.69516
5390.84,0.69643
5385.05,0.69611
5379.26,0.69716
5373.48,0.69570
5367.69,0.69684
5361.9,0.69726
5356.12,0.69589
5350.33,0.69843
5344.55,0.69528
5338.76,0.69406
5332.97,0.69276
5327.19,0.69094
5321.4,0.68915
5315.61,0.68529
5309.83,0.68367
5304.04,0.67741
5298.26,0.67388
5292.47,0.66766
5286.68,0.66090
5280.9,0.65618
5275.11,0.64833
5269.32,0.63815
5263.54,0.62993
5257.75,0.62209
5251.97,0.61321
5246.18,0.60605
5240.39,0.59928
5234.61,0.59372
5228.82,0.58988
5223.03,0.58500
5217.25,0.58340
5211.46,0.58053
5205.68,0.57983
5199.89,0.57695
5194.1,0.57612
5188.32,0.57481
5182.53,0.57509
5176.74,0.57484
5170.96,0.57503
5165.17,0.57577
5159.39,0.57690
5153.6,0.57819
5147.81,0.57788
5142.03,0.57812
5136.24,0.58086
5130.46,0.57911
5124.67,0.58015
5118.88,0.58004
5113.1,0.57615
5107.31,0.57400
5101.52,0.57100
5095.74,0.56988
5089.95,0.56504
5084.17,0.56288
5078.38,0.56163
5072.59,0.56147
5066.81,0.56269
5061.02,0.56548
5055.23,0.56744
5049.45,0.57002
5043.66,0.57076
5037.88,0.57554
5032.09,0.57624
5026.3,0.57827
5020.52,0.58014
5014.73,0.58249
5008.94,0.58384
5003.16,0.58471
4997.37,0.58482
4991.59,0.58544
4985.8,0.58481
4980.01,0.58415
4974.23,0.58313
4968.44,0.58038
4962.65,0.57738
4956.87,0.57363
4951.08,0.56974
4945.3,0.56503
4939.51,0.56038
4933.72,0.55706
4927.94,0.55383
4922.15,0.55032
4916.36,0.54582
4910.58,0.54331
4904.79,0.54071
4899.01,0.53806
4893.22,0.53514
4887.43,0.53239
4881.65,0.52971
4875.86,0.52566
4870.07,0.52294
4864.29,0.51935
4858.5,0.51639
4852.72,0.51312
4846.93,0.51053
4841.14,0.50695
4835.36,0.50329
4829.57,0.50080
4823.78,0.49828
4818,0.49559
4812.21,0.49370
4806.43,0.49264
4800.64,0.49229
4794.85,0.49152
4789.07,0.48993
4783.28,0.48934
4777.5,0.49056
4771.71,0.48951
4765.92,0.48761
4760.14,0.48706
4754.35,0.48703
4748.56,0.48684
4742.78,0.48631
4736.99,0.48719
4731.21,0.48609
4725.42,0.48758
4719.63,0.48653
4713.85,0.48700
4708.06,0.48837
4702.27,0.48708
4696.49,0.48751
4690.7,0.48730
4684.92,0.48649
4679.13,0.48710
4673.34,0.48896
4667.56,0.48923
4661.77,0.48887
4655.98,0.49002
4650.2,0.49132
4644.41,0.49240
4638.63,0.49278
4632.84,0.49354
4627.05,0.49566
4621.27,0.49748
4615.48,0.49980
4609.69,0.50181
4603.91,0.50368
4598.12,0.50551
4592.34,0.50673
4586.55,0.50885
4580.76,0.50940
4574.98,0.51090
4569.19,0.51100
4563.4,0.51167
4557.62,0.51187
4551.83,0.51175
4546.05,0.51388
4540.26,0.51367
4534.47,0.51420
4528.69,0.51516
4522.9,0.51596
4517.11,0.51603
4511.33,0.51759
4505.54,0.51588
4499.76,0.51647
4493.97,0.51378
4488.18,0.51240
4482.4,0.50866
4476.61,0.50387
4470.83,0.49959
4465.04,0.49339
4459.25,0.48741
4453.47,0.48143
4447.68,0.47429
4441.89,0.46731
4436.11,0.46104
4430.32,0.45484
4424.54,0.44782
4418.75,0.44138
4412.96,0.43697
4407.18,0.43344
4401.39,0.43161
4395.6,0.43311
4389.82,0.43316
4384.03,0.43524
4378.25,0.43780
4372.46,0.44117
4366.67,0.44366
4360.89,0.44678
4355.1,0.44853
4349.31,0.44967
4343.53,0.45049
4337.74,0.44932
4331.96,0.44824
4326.17,0.44506
4320.38,0.44308
4314.6,0.44312
4308.81,0.44182
4303.02,0.44014
4297.24,0.43752
4291.45,0.43495
4285.67,0.43397
4279.88,0.43315
4274.09,0.43414
4268.31,0.43518
4262.52,0.43694
4256.73,0.43843
4250.95,0.43861
4245.16,0.43987
4239.38,0.44080
4233.59,0.44163
4227.8,0.44272
4222.02,0.44317
4216.23,0.44269
4210.44,0.44249
4204.66,0.44299
4198.87,0.44232
4193.09,0.44283
4187.3,0.44337
4181.51,0.44423
4175.73,0.44570
4169.94,0.44881
4164.16,0.45061
4158.37,0.45017
4152.58,0.45010
4146.8,0.44866
4141.01,0.44654
4135.22,0.44394
4129.44,0.44075
4123.65,0.43705
4117.87,0.43284
4112.08,0.42907
4106.29,0.42487
4100.51,0.42082
4094.72,0.41553
4088.93,0.41143
4083.15,0.40624
4077.36,0.40022
4071.58,0.39494
4065.79,0.38990
4060,0.38422
4054.22,0.37805
4048.43,0.37291
4042.64,0.36794
4036.86,0.36430
4031.07,0.35988
4025.29,0.35686
4019.5,0.35578
4013.71,0.35459
4007.93,0.35468
4002.14,0.35579
3996.35,0.35698
3990.57,0.35933
3984.78,0.36122
3979,0.36297
3973.21,0.36441
3967.42,0.36718
3961.64,0.36959
3955.85,0.37255
3950.06,0.37493
3944.28,0.37850
3938.49,0.38209
3932.71,0.38350
3926.92,0.38611
3921.13,0.38906
3915.35,0.39138
3909.56,0.39392
3903.77,0.39586
3897.99,0.39819
3892.2,0.39968
3886.42,0.40202
3880.63,0.40415
3874.84,0.40687
3869.06,0.40985
3863.27,0.41274
3857.48,0.41633
3851.7,0.41933
3845.91,0.42297
3840.13,0.42548
3834.34,0.42880
3828.55,0.42995
3822.77,0.43084
3816.98,0.43137
3811.2,0.43241
3805.41,0.43350
3799.62,0.43401
3793.84,0.43400
3788.05,0.43384
3782.26,0.43432
3776.48,0.43355
3770.69,0.43284
3764.91,0.43191
3759.12,0.43077
3753.33,0.42864
3747.55,0.42659
3741.76,0.42425
3735.97,0.42168
3730.19,0.41875
3724.4,0.41389
3718.62,0.40872
3712.83,0.40311
3707.04,0.39619
3701.26,0.38780
3695.47,0.37758
3689.68,0.36501
3683.9,0.35018
3678.11,0.33387
3672.33,0.31295
3666.54,0.29321
3660.75,0.27446
3654.97,0.25515
3649.18,0.23796
3643.39,0.22220
3637.61,0.20763
3631.82,0.19442
3626.04,0.18084
3620.25,0.16988
3614.46,0.15806
3608.68,0.14594
3602.89,0.13509
3597.1,0.12495
3591.32,0.11566
3585.53,0.10800
3579.75,0.10081
3573.96,0.09367
3568.17,0.08882
3562.39,0.08299
3556.6,0.07952
3550.81,0.07422
3545.03,0.07049
3539.24,0.06736
3533.46,0.06514
3527.67,0.06207
3521.88,0.05907
3516.1,0.05670
3510.31,0.05460
3504.53,0.05179
3498.74,0.04972
3492.95,0.04810
3487.17,0.04636
3481.38,0.04604
3475.59,0.04497
3469.81,0.04349
3464.02,0.04356
3458.24,0.04275
3452.45,0.04233
3446.66,0.04203
3440.88,0.04099
3435.09,0.04164
3429.3,0.04105
3423.52,0.04045
3417.73,0.04024
3411.95,0.04029
3406.16,0.04125
3400.37,0.04108
3394.59,0.04196
3388.8,0.04077
3383.01,0.04053
3377.23,0.04068
3371.44,0.04097
3365.66,0.04108
3359.87,0.04097
3354.08,0.04111
3348.3,0.04227
3342.51,0.04253
3336.72,0.04331
3330.94,0.04404
3325.15,0.04544
3319.37,0.04611
3313.58,0.04688
3307.79,0.04743
3302.01,0.04818
3296.22,0.04852
3290.43,0.04868
3284.65,0.04975
3278.86,0.05128
3273.08,0.05202
3267.29,0.05342
3261.5,0.05410
3255.72,0.05581
3249.93,0.05684
3244.14,0.05770
3238.36,0.05871
3232.57,0.06032
3226.79,0.06218
3221,0.06348
3215.21,0.06397
3209.43,0.06598
3203.64,0.06714
3197.86,0.06900
3192.07,0.07092
3186.28,0.07261
3180.5,0.07476
3174.71,0.07716
3168.92,0.07887
3163.14,0.08128
3157.35,0.08379
3151.57,0.08577
3145.78,0.08731
3139.99,0.08981
3134.21,0.09178
3128.42,0.09351
3122.63,0.09545
3116.85,0.09755
3111.06,0.09961
3105.28,0.10025
3099.49,0.10246
3093.7,0.10385
3087.92,0.10494
3082.13,0.10611
3076.34,0.10665
3070.56,0.10776
3064.77,0.10866
3058.99,0.11032
3053.2,0.11159
3047.41,0.11240
3041.63,0.11347
3035.84,0.11434
3030.05,0.11419
3024.27,0.11447
3018.48,0.11323
3012.7,0.11142
3006.91,0.10889
3001.12,0.10726
2995.34,0.10536
2989.55,0.10335
2983.76,0.09919
2977.98,0.09311
2972.19,0.08616
2966.41,0.08093
2960.62,0.07783
2954.83,0.07517
2949.05,0.07125
2943.26,0.06959
2937.47,0.06919
2931.69,0.06883
2925.9,0.06790
2920.12,0.06760
2914.33,0.06798
2908.54,0.06981
2902.76,0.07082
2896.97,0.07203
2891.18,0.07367
2885.4,0.07556
2879.61,0.07595
2873.83,0.07618
2868.04,0.07807
2862.25,0.08058
2856.47,0.08173
2850.68,0.08351
2844.9,0.08867
2839.11,0.09478
2833.32,0.10122
2827.54,0.10999
2821.75,0.11713
2815.96,0.12324
2810.18,0.12896
2804.39,0.13379
2798.61,0.13782
2792.82,0.14110
2787.03,0.14408
2781.25,0.14598
2775.46,0.14847
2769.67,0.15001
2763.89,0.15122
2758.1,0.15258
2752.32,0.15328
2746.53,0.15374
2740.74,0.15408
2734.96,0.15484
2729.17,0.15552
2723.38,0.15712
2717.6,0.15933
2711.81,0.16115
2706.03,0.16411
2700.24,0.16684
2694.45,0.16925
2688.67,0.17197
2682.88,0.17416
2677.09,0.17635
2671.31,0.17809
2665.52,0.17999
2659.74,0.18131
2653.95,0.18290
2648.16,0.18415
2642.38,0.18599
2636.59,0.18844
2630.8,0.19095
2625.02,0.19353
2619.23,0.19543
2613.45,0.19717
2607.66,0.19854
2601.87,0.20036
2596.09,0.20209
2590.3,0.20398
2584.51,0.20568
2578.73,0.20706
2572.94,0.20814
2567.16,0.20884
2561.37,0.21030
2555.58,0.21115
2549.8,0.21193
2544.01,0.21297
2538.23,0.21429
2532.44,0.21624
2526.65,0.21858
2520.87,0.21968
2515.08,0.22144
2509.29,0.22409
2503.51,0.22710
2497.72,0.23047
2491.94,0.23415
2486.15,0.23624
2480.36,0.23875
2474.58,0.24155
2468.79,0.24320
2463,0.24467
2457.22,0.24659
2451.43,0.24882
2445.65,0.25168
2439.86,0.25428
2434.07,0.25755
2428.29,0.26033
2422.5,0.26357
2416.71,0.26735
2410.93,0.27141
2405.14,0.27527
2399.36,0.27843
2393.57,0.28156
2387.78,0.28470
2382,0.28732
2376.21,0.29076
2370.42,0.29299
2364.64,0.29527
2358.85,0.29839
2353.07,0.30069
2347.28,0.30280
2341.49,0.30468
2335.71,0.30662
2329.92,0.30776
2324.13,0.30879
2318.35,0.30980
2312.56,0.31006
2306.78,0.31036
2300.99,0.30975
2295.2,0.30999
2289.42,0.30969
2283.63,0.31064
2277.84,0.31018
2272.06,0.30906
2266.27,0.30727
2260.49,0.30477
2254.7,0.30292
2248.91,0.30146
2243.13,0.30053
2237.34,0.30037
2231.56,0.30076
2225.77,0.30160
2219.98,0.30281
2214.2,0.30364
2208.41,0.30327
2202.62,0.30192
2196.84,0.29959
2191.05,0.29686
2185.27,0.29367
2179.48,0.28989
2173.69,0.28596
2167.91,0.28212
2162.12,0.27893
2156.33,0.27717
2150.55,0.27552
2144.76,0.27437
2138.98,0.27376
2133.19,0.27381
2127.4,0.27467
2121.62,0.27544
2115.83,0.27682
2110.04,0.27866
2104.26,0.27998
2098.47,0.28228
2092.69,0.28325
2086.9,0.28412
2081.11,0.28375
2075.33,0.28279
2069.54,0.28111
2063.75,0.27999
2057.97,0.27959
2052.18,0.27996
2046.4,0.28086
2040.61,0.28271
2034.82,0.28504
2029.04,0.28788
2023.25,0.29142
2017.46,0.29527
2011.68,0.29843
2005.89,0.30152
2000.11,0.30326
1994.32,0.30509
1988.53,0.30675
1982.75,0.30761
1976.96,0.30829
1971.17,0.30816
1965.39,0.30782
1959.6,0.30802
1953.82,0.30863
1948.03,0.31071
1942.24,0.31392
1936.46,0.31721
1930.67,0.32143
1924.89,0.32427
1919.1,0.32652
1913.31,0.32751
1907.53,0.32862
1901.74,0.32845
1895.95,0.32756
1890.17,0.32656
1884.38,0.32550
1878.6,0.32433
1872.81,0.32267
1867.02,0.32058
1861.24,0.31866
1855.45,0.31601
1849.66,0.31297
1843.88,0.30962
1838.09,0.30594
1832.31,0.30168
1826.52,0.29664
1820.73,0.29024
1814.95,0.28411
1809.16,0.27574
1803.37,0.26643
1797.59,0.25620
1791.8,0.24403
1786.02,0.23052
1780.23,0.21272
1774.44,0.18813
1768.66,0.15603
1762.87,0.12456
1757.08,0.10180
1751.3,0.08874
1745.51,0.08116
1739.73,0.07799
1733.94,0.07934
1728.15,0.08423
1722.37,0.08939
1716.58,0.09170
1710.79,0.08994
1705.01,0.08406
1699.22,0.07505
1693.44,0.06510
1687.65,0.05709
1681.86,0.05012
1676.08,0.04707
1670.29,0.04616
1664.5,0.04676
1658.72,0.04894
1652.93,0.05221
1647.15,0.05500
1641.36,0.05638
1635.57,0.05609
1629.79,0.05608
1624,0.05601
1618.21,0.05609
1612.43,0.05697
1606.64,0.05623
1600.86,0.05662
1595.07,0.05715
1589.28,0.06166
1583.5,0.06975
1577.71,0.07853
1571.93,0.08580
1566.14,0.08858
1560.35,0.08820
1554.57,0.08508
1548.78,0.08316
1542.99,0.08106
1537.21,0.07862
1531.42,0.07577
1525.64,0.06982
1519.85,0.06083
1514.06,0.05366
1508.28,0.05229
1502.49,0.05496
1496.7,0.06080
1490.92,0.06580
1485.13,0.06715
1479.35,0.06282
1473.56,0.05522
1467.77,0.04940
1461.99,0.04887
1456.2,0.05021
1450.41,0.05154
1444.63,0.05350
1438.84,0.05329
1433.06,0.05104
1427.27,0.04986
1421.48,0.05182
1415.7,0.05598
1409.91,0.05938
1404.12,0.06096
1398.34,0.06031
1392.55,0.05820
1386.77,0.05420
1380.98,0.04997
1375.19,0.04870
1369.41,0.04961
1363.62,0.05131
1357.83,0.05292
1352.05,0.05370
1346.26,0.05324
1340.48,0.05129
1334.69,0.05036
1328.9,0.05050
1323.12,0.05097
1317.33,0.05261
1311.54,0.05487
1305.76,0.05699
1299.97,0.05798
1294.19,0.05643
1288.4,0.05402
1282.61,0.05138
1276.83,0.04940
1271.04,0.04827
1265.26,0.04785
1259.47,0.04800
1253.68,0.04794
1247.9,0.04716
1242.11,0.04675
1236.32,0.04617
1230.54,0.04721
1224.75,0.04926
1218.97,0.05073
1213.18,0.05208
1207.39,0.05261
1201.61,0.05293
1195.82,0.05323
1190.03,0.05202
1184.25,0.04816
1178.46,0.04324
1172.68,0.03942
1166.89,0.04003
1161.1,0.04335
1155.32,0.04503
1149.53,0.04533
1143.74,0.04329
1137.96,0.03962
1132.17,0.03808
1126.39,0.03864
1120.6,0.04074
1114.81,0.04246
1109.03,0.04413
1103.24,0.04508
1097.45,0.04548
1091.67,0.04348
1085.88,0.04121
1080.1,0.04240
1074.31,0.04524
1068.52,0.04921
1062.74,0.05434
1056.95,0.05945
1051.16,0.06151
1045.38,0.06112
1039.59,0.06160
1033.81,0.06603
1028.02,0.06868
1022.23,0.07049
1016.45,0.07243
1010.66,0.07484
1004.87,0.07689
999.089,0.07951
993.302,0.08233
987.516,0.08736
981.73,0.09586
975.944,0.10256
970.157,0.10700
964.371,0.11239
958.585,0.12016
952.799,0.12819
947.013,0.13321
941.226,0.13523
935.44,0.13498
929.654,0.13514
923.868,0.13458
918.081,0.13301
912.295,0.12935
906.509,0.12289
900.723,0.11760
894.937,0.11839
889.15,0.12503
883.364,0.13025
877.578,0.13172
871.792,0.13372
866.005,0.13537
860.219,0.13410
854.433,0.13302
848.647,0.13211
842.86,0.13185
837.074,0.12855
831.288,0.12674
825.502,0.12717
819.716,0.12735
813.929,0.12733
808.143,0.12740
802.357,0.12665
796.571,0.12650
790.784,0.12526
784.998,0.12223
779.212,0.11940
773.426,0.11638
767.64,0.11413
761.853,0.11101
756.067,0.10653
750.281,0.10295
744.495,0.09937
738.708,0.09607
732.922,0.09332
727.136,0.09051
721.35,0.08740
715.563,0.08706
709.777,0.08514
703.991,0.08473
698.205,0.08399
692.419,0.08214
686.632,0.08005
680.846,0.07712
675.06,0.07303
669.274,0.07109
663.487,0.07263
657.701,0.07439
651.915,0.07387
646.129,0.07340
640.343,0.06934
634.556,0.06623
628.77,0.06751
622.984,0.06481
617.198,0.06998
611.411,0.07009
605.625,0.06924
599.839,0.07208