File: 01_Data/Luan_Panel/FTIR/IS/Luan_Panel_IS_S_220914_R5.dpt
7497.02,0.84602
7491.24,0.85381
7485.45,0.84750
7479.66,0.84480
7473.88,0.84252
7468.09,0.83044
7462.3,0.84078
7456.52,0.82124
7450.73,0.83431
7444.95,0.83179
7439.16,0.83750
7433.37,0.83287
7427.59,0.82989
7421.8,0.82628
7416.01,0.82267
7410.23,0.82004
7404.44,0.81752
7398.66,0.81595
7392.87,0.81780
7387.08,0.82040
7381.3,0.81457
7375.51,0.81658
7369.73,0.80620
7363.94,0.80778
7358.15,0.80800
7352.37,0.80950
7346.58,0.79857
7340.79,0.80311
7335.01,0.79684
7329.22,0.79051
7323.44,0.79678
7317.65,0.80176
7311.86,0.79399
7306.08,0.79009
7300.29,0.79610
7294.5,0.79230
7288.72,0.78985
7282.93,0.79315
7277.15,0.79036
7271.36,0.78244
7265.57,0.78156
7259.79,0.79246
7254,0.78443
7248.21,0.78369
7242.43,0.78635
7236.64,0.78204
7230.86,0.78736
7225.07,0.78922
7219.28,0.78081
7213.5,0.77596
7207.71,0.77998
7201.92,0.78168
7196.14,0.77950
7190.35,0.78120
7184.57,0.76967
7178.78,0.76990
7172.99,0.76910
7167.21,0.76916
7161.42,0.76287
7155.63,0.76883
7149.85,0.76210
7144.06,0.75412
7138.28,0.75814
7132.49,0.75484
7126.7,0.75157
7120.92,0.74324
7115.13,0.74537
7109.34,0.74323
7103.56,0.73895
7097.77,0.72749
7091.99,0.72998
7086.2,0.72273
7080.41,0.72080
7074.63,0.71860
7068.84,0.71232
7063.06,0.70723
7057.27,0.70817
7051.48,0.70012
7045.7,0.69522
7039.91,0.68599
7034.12,0.68154
7028.34,0.68186
7022.55,0.67844
7016.77,0.68341
7010.98,0.67357
7005.19,0.67095
6999.41,0.66472
6993.62,0.66927
6987.83,0.66550
6982.05,0.65621
6976.26,0.66095
6970.48,0.65952
6964.69,0.65788
6958.9,0.65481
6953.12,0.66211
6947.33,0.64945
6941.54,0.65035
6935.76,0.65398
6929.97,0.65343
6924.19,0.64632
6918.4,0.64894
6912.61,0.64738
6906.83,0.64793
6901.04,0.64164
6895.25,0.64705
6889.47,0.64460
6883.68,0.64763
6877.9,0.63904
6872.11,0.63861
6866.32,0.64351
6860.54,0.64095
6854.75,0.63992
6848.96,0.64202
6843.18,0.63451
6837.39,0.63538
6831.61,0.63616
6825.82,0.63799
6820.03,0.63662
6814.25,0.63768
6808.46,0.63362
6802.67,0.63459
6796.89,0.63449
6791.1,0.63307
6785.32,0.62781
6779.53,0.62795
6773.74,0.62570
6767.96,0.62962
6762.17,0.62405
6756.38,0.62646
6750.6,0.62702
6744.81,0.62093
6739.03,0.62553
6733.24,0.62403
6727.45,0.62420
6721.67,0.62249
6715.88,0.62411
6710.1,0.62323
6704.31,0.62428
6698.52,0.62342
6692.74,0.62699
6686.95,0.62787
6681.16,0.62318
6675.38,0.62780
6669.59,0.62947
6663.81,0.62527
6658.02,0.63069
6652.23,0.62961
6646.45,0.63447
6640.66,0.63316
6634.87,0.63535
6629.09,0.63589
6623.3,0.63465
6617.52,0.63266
6611.73,0.63429
6605.94,0.63810
6600.16,0.63712
6594.37,0.64242
6588.58,0.64462
6582.8,0.64505
6577.01,0.64413
6571.23,0.64364
6565.44,0.64725
6559.65,0.64683
6553.87,0.64545
6548.08,0.64447
6542.29,0.64797
6536.51,0.64901
6530.72,0.64743
6524.94,0.64895
6519.15,0.65531
6513.36,0.65297
6507.58,0.65649
6501.79,0.65446
6496,0.65570
6490.22,0.65735
6484.43,0.65614
6478.65,0.65560
6472.86,0.65462
6467.07,0.65831
6461.29,0.65782
6455.5,0.66042
6449.71,0.65571
6443.93,0.66029
6438.14,0.65854
6432.36,0.65219
6426.57,0.65850
6420.78,0.65938
6415,0.66143
6409.21,0.66018
6403.43,0.65745
6397.64,0.66098
6391.85,0.66324
6386.07,0.66575
6380.28,0.66341
6374.49,0.66106
6368.71,0.66517
6362.92,0.66859
6357.14,0.66651
6351.35,0.66549
6345.56,0.66878
6339.78,0.66691
6333.99,0.66884
6328.2,0.66751
6322.42,0.67327
6316.63,0.66989
6310.85,0.66722
6305.06,0.67381
6299.27,0.67546
6293.49,0.67198
6287.7,0.67058
6281.91,0.67368
6276.13,0.67656
6270.34,0.67751
6264.56,0.67846
6258.77,0.67788
6252.98,0.68490
6247.2,0.68607
6241.41,0.68487
6235.62,0.68605
6229.84,0.68876
6224.05,0.69019
6218.27,0.69426
6212.48,0.69024
6206.69,0.69481
6200.91,0.69470
6195.12,0.69563
6189.33,0.69960
6183.55,0.69801
6177.76,0.70001
6171.98,0.70119
6166.19,0.70193
6160.4,0.70633
6154.62,0.70395
6148.83,0.70613
6143.04,0.70486
6137.26,0.70555
6131.47,0.70851
6125.69,0.70708
6119.9,0.71007
6114.11,0.70857
6108.33,0.70883
6102.54,0.71328
6096.76,0.70792
6090.97,0.70897
6085.18,0.70901
6079.4,0.70761
6073.61,0.70591
6067.82,0.70746
6062.04,0.70495
6056.25,0.70776
6050.47,0.70381
6044.68,0.70494
6038.89,0.70038
6033.11,0.70340
6027.32,0.70041
6021.53,0.69767
6015.75,0.70023
6009.96,0.69616
6004.18,0.69446
5998.39,0.69482
5992.6,0.69094
5986.82,0.69126
5981.03,0.69154
5975.24,0.69024
5969.46,0.68949
5963.67,0.68908
5957.89,0.68836
5952.1,0.69196
5946.31,0.68706
5940.53,0.68876
5934.74,0.68913
5928.95,0.68904
5923.17,0.68828
5917.38,0.68641
5911.6,0.68666
5905.81,0.68739
5900.02,0.68215
5894.24,0.68244
5888.45,0.68131
5882.66,0.68134
5876.88,0.67885
5871.09,0.67999
5865.31,0.68022
5859.52,0.67933
5853.73,0.67864
5847.95,0.67957
5842.16,0.67807
5836.37,0.67881
5830.59,0.67838
5824.8,0.67920
5819.02,0.67802
5813.23,0.67643
5807.44,0.67660
5801.66,0.67338
5795.87,0.67268
5790.08,0.67520
5784.3,0.67481
5778.51,0.67382
5772.73,0.67473
5766.94,0.67696
5761.15,0.68035
5755.37,0.67752
5749.58,0.68104
5743.8,0.67976
5738.01,0.67977
5732.22,0.68054
5726.44,0.67951
5720.65,0.67855
5714.86,0.68010
5709.08,0.68076
5703.29,0.67967
5697.51,0.68055
5691.72,0.68236
5685.93,0.68144
5680.15,0.68025
5674.36,0.67836
5668.57,0.68164
5662.79,0.67907
5657,0.68032
5651.22,0.68018
5645.43,0.68044
5639.64,0.67985
5633.86,0.68118
5628.07,0.68337
5622.28,0.68216
5616.5,0.67801
5610.71,0.68024
5604.93,0.68061
5599.14,0.68093
5593.35,0.68130
5587.57,0.67878
5581.78,0.68062
5575.99,0.68198
5570.21,0.68206
5564.42,0.68112
5558.64,0.68292
5552.85,0.68288
5547.06,0.68436
5541.28,0.68633
5535.49,0.68413
5529.7,0.68522
5523.92,0.68469
5518.13,0.68438
5512.35,0.68559
5506.56,0.68619
5500.77,0.68601
5494.99,0.68690
5489.2,0.68923
5483.41,0.68948
5477.63,0.68771
5471.84,0.68795
5466.06,0.68746
5460.27,0.68954
5454.48,0.69063
5448.7,0.69053
5442.91,0.69220
5437.13,0.69489
5431.34,0.69445
5425.55,0.69536
5419.77,0.69701
5413.98,0.69686
5408.19,0.69614
5402.41,0.69853
5396.62,0.69760
5390.84,0.69974
5385.05,0.70004
5379.26,0.69927
5373.48,0.69825
5367.69,0.69708
5361.9,0.69774
5356.12,0.69522
5350.33,0.69699
5344.55,0.69606
5338.76,0.69579
5332.97,0.69399
5327.19,0.69224
5321.4,0.68823
5315.61,0.68443
5309.83,0.68343
5304.04,0.67774
5298.26,0.67120
5292.47,0.66507
5286.68,0.65813
5280.9,0.65147
5275.11,0.64391
5269.32,0.63310
5263.54,0.62364
5257.75,0.61375
5251.97,0.60495
5246.18,0.59722
5240.39,0.59190
5234.61,0.58634
5228.82,0.58096
5223.03,0.57652
5217.25,0.57241
5211.46,0.57063
5205.68,0.57056
5199.89,0.56865
5194.1,0.56676
5188.32,0.56653
5182.53,0.56785
5176.74,0.56705
5170.96,0.56631
5165.17,0.56637
5159.39,0.56906
5153.6,0.57066
5147.81,0.57062
5142.03,0.57317
5136.24,0.57312
5130.46,0.57281
5124.67,0.57366
5118.88,0.57231
5113.1,0.57128
5107.31,0.56907
5101.52,0.56504
5095.74,0.56309
5089.95,0.56152
5084.17,0.56014
5078.38,0.55779
5072.59,0.55845
5066.81,0.55824
5061.02,0.56088
5055.23,0.56432
5049.45,0.56645
5043.66,0.56986
5037.88,0.57098
5032.09,0.57209
5026.3,0.57622
5020.52,0.57846
5014.73,0.58014
5008.94,0.58131
5003.16,0.58261
4997.37,0.58288
4991.59,0.58500
4985.8,0.58318
4980.01,0.58224
4974.23,0.58303
4968.44,0.57951
4962.65,0.57729
4956.87,0.57389
4951.08,0.57006
4945.3,0.56457
4939.51,0.56127
4933.72,0.55757
4927.94,0.55438
4922.15,0.55162
4916.36,0.54761
4910.58,0.54511
4904.79,0.54145
4899.01,0.53900
4893.22,0.53565
4887.43,0.53326
4881.65,0.53138
4875.86,0.52707
4870.07,0.52414
4864.29,0.52032
4858.5,0.51738
4852.72,0.51475
4846.93,0.51222
4841.14,0.50855
4835.36,0.50626
4829.57,0.50290
4823.78,0.50019
4818,0.49780
4812.21,0.49524
4806.43,0.49533
4800.64,0.49356
4794.85,0.49328
4789.07,0.49163
4783.28,0.49127
4777.5,0.49098
4771.71,0.48942
4765.92,0.48932
4760.14,0.48938
4754.35,0.48876
4748.56,0.48732
4742.78,0.48812
4736.99,0.48818
4731.21,0.48759
4725.42,0.48758
4719.63,0.48891
4713.85,0.48995
4708.06,0.48935
4702.27,0.48927
4696.49,0.48804
4690.7,0.48841
4684.92,0.48855
4679.13,0.48852
4673.34,0.48775
4667.56,0.48903
4661.77,0.49074
4655.98,0.49173
4650.2,0.49289
4644.41,0.49305
4638.63,0.49444
4632.84,0.49482
4627.05,0.49595
4621.27,0.49753
4615.48,0.50050
4609.69,0.50193
4603.91,0.50489
4598.12,0.50573
4592.34,0.50794
4586.55,0.50961
4580.76,0.51115
4574.98,0.51140
4569.19,0.51227
4563.4,0.51286
4557.62,0.51330
4551.83,0.51496
4546.05,0.51480
4540.26,0.51549
4534.47,0.51614
4528.69,0.51661
4522.9,0.51737
4517.11,0.51803
4511.33,0.51873
4505.54,0.51755
4499.76,0.51717
4493.97,0.51540
4488.18,0.51218
4482.4,0.50877
4476.61,0.50480
4470.83,0.50041
4465.04,0.49390
4459.25,0.48775
4453.47,0.48128
4447.68,0.47623
4441.89,0.46904
4436.11,0.46175
4430.32,0.45620
4424.54,0.44947
4418.75,0.44366
4412.96,0.43863
4407.18,0.43481
4401.39,0.43368
4395.6,0.43369
4389.82,0.43506
4384.03,0.43729
4378.25,0.43955
4372.46,0.44268
4366.67,0.44601
4360.89,0.44848
4355.1,0.44982
4349.31,0.45090
4343.53,0.45078
4337.74,0.45038
4331.96,0.44903
4326.17,0.44782
4320.38,0.44507
4314.6,0.44381
4308.81,0.44303
4303.02,0.44124
4297.24,0.43874
4291.45,0.43623
4285.67,0.43521
4279.88,0.43494
4274.09,0.43493
4268.31,0.43622
4262.52,0.43819
4256.73,0.43910
4250.95,0.43959
4245.16,0.44196
4239.38,0.44172
4233.59,0.44278
4227.8,0.44307
4222.02,0.44277
4216.23,0.44366
4210.44,0.44350
4204.66,0.44353
4198.87,0.44282
4193.09,0.44348
4187.3,0.44401
4181.51,0.44510
4175.73,0.44734
4169.94,0.44902
4164.16,0.45126
4158.37,0.45116
4152.58,0.44973
4146.8,0.44772
4141.01,0.44630
4135.22,0.44434
4129.44,0.44099
4123.65,0.43704
4117.87,0.43327
4112.08,0.42915
4106.29,0.42479
4100.51,0.42054
4094.72,0.41609
4088.93,0.41095
4083.15,0.40583
4077.36,0.40058
4071.58,0.39457
4065.79,0.38924
4060,0.38372
4054.22,0.37841
4048.43,0.37319
4042.64,0.36827
4036.86,0.36399
4031.07,0.36013
4025.29,0.35786
4019.5,0.35556
4013.71,0.35469
4007.93,0.35533
4002.14,0.35554
3996.35,0.35747
3990.57,0.35842
3984.78,0.36087
3979,0.36296
3973.21,0.36455
3967.42,0.36712
3961.64,0.36988
3955.85,0.37246
3950.06,0.37499
3944.28,0.37820
3938.49,0.38025
3932.71,0.38305
3926.92,0.38595
3921.13,0.38831
3915.35,0.39045
3909.56,0.39267
3903.77,0.39550
3897.99,0.39766
3892.2,0.39966
3886.42,0.40144
3880.63,0.40386
3874.84,0.40583
3869.06,0.40886
3863.27,0.41259
3857.48,0.41504
3851.7,0.41909
3845.91,0.42192
3840.13,0.42510
3834.34,0.42717
3828.55,0.42792
3822.77,0.42965
3816.98,0.43105
3811.2,0.43076
3805.41,0.43134
3799.62,0.43179
3793.84,0.43229
3788.05,0.43250
3782.26,0.43138
3776.48,0.43076
3770.69,0.42915
3764.91,0.42870
3759.12,0.42735
3753.33,0.42598
3747.55,0.42318
3741.76,0.42070
3735.97,0.41809
3730.19,0.41375
3724.4,0.40948
3718.62,0.40432
3712.83,0.39776
3707.04,0.39034
3701.26,0.38147
3695.47,0.37139
3689.68,0.35882
3683.9,0.34209
3678.11,0.32453
3672.33,0.30438
3666.54,0.28366
3660.75,0.26373
3654.97,0.24421
3649.18,0.22812
3643.39,0.21172
3637.61,0.19771
3631.82,0.18517
3626.04,0.17286
3620.25,0.16200
3614.46,0.15002
3608.68,0.13952
3602.89,0.13001
3597.1,0.12116
3591.32,0.11225
3585.53,0.10409
3579.75,0.09774
3573.96,0.09160
3568.17,0.08646
3562.39,0.08142
3556.6,0.07749
3550.81,0.07367
3545.03,0.07021
3539.24,0.06715
3533.46,0.06413
3527.67,0.06090
3521.88,0.05884
3516.1,0.05622
3510.31,0.05382
3504.53,0.05166
3498.74,0.04969
3492.95,0.04815
3487.17,0.04763
3481.38,0.04544
3475.59,0.04479
3469.81,0.04418
3464.02,0.04308
3458.24,0.04205
3452.45,0.04184
3446.66,0.04163
3440.88,0.04145
3435.09,0.04154
3429.3,0.04141
3423.52,0.04104
3417.73,0.04092
3411.95,0.04097
3406.16,0.04117
3400.37,0.04075
3394.59,0.04050
3388.8,0.04138
3383.01,0.04077
3377.23,0.04054
3371.44,0.04051
3365.66,0.04042
3359.87,0.04139
3354.08,0.04197
3348.3,0.04217
3342.51,0.04237
3336.72,0.04384
3330.94,0.04444
3325.15,0.04513
3319.37,0.04512
3313.58,0.04640
3307.79,0.04703
3302.01,0.04728
3296.22,0.04840
3290.43,0.04913
3284.65,0.04963
3278.86,0.05035
3273.08,0.05100
3267.29,0.05297
3261.5,0.05387
3255.72,0.05512
3249.93,0.05731
3244.14,0.05785
3238.36,0.05889
3232.57,0.05961
3226.79,0.06126
3221,0.06232
3215.21,0.06403
3209.43,0.06536
3203.64,0.06687
3197.86,0.06901
3192.07,0.06995
3186.28,0.07220
3180.5,0.07440
3174.71,0.07636
3168.92,0.07871
3163.14,0.08114
3157.35,0.08320
3151.57,0.08598
3145.78,0.08769
3139.99,0.08904
3134.21,0.09162
3128.42,0.09292
3122.63,0.09489
3116.85,0.09662
3111.06,0.09822
3105.28,0.09962
3099.49,0.10073
3093.7,0.10271
3087.92,0.10408
3082.13,0.10499
3076.34,0.10592
3070.56,0.10719
3064.77,0.10826
3058.99,0.10937
3053.2,0.11067
3047.41,0.11195
3041.63,0.11275
3035.84,0.11378
3030.05,0.11351
3024.27,0.11328
3018.48,0.11286
3012.7,0.11070
3006.91,0.10818
3001.12,0.10653
2995.34,0.10541
2989.55,0.10269
2983.76,0.09893
2977.98,0.09300
2972.19,0.08553
2966.41,0.08115
2960.62,0.07770
2954.83,0.07484
2949.05,0.07197
2943.26,0.06938
2937.47,0.06796
2931.69,0.06867
2925.9,0.06889
2920.12,0.06829
2914.33,0.06800
2908.54,0.07010
2902.76,0.07088
2896.97,0.07228
2891.18,0.07379
2885.4,0.07538
2879.61,0.07663
2873.83,0.07694
2868.04,0.07790
2862.25,0.08027
2856.47,0.08274
2850.68,0.08423
2844.9,0.08852
2839.11,0.09514
2833.32,0.10163
2827.54,0.11008
2821.75,0.11725
2815.96,0.12358
2810.18,0.12893
2804.39,0.13395
2798.61,0.13765
2792.82,0.14131
2787.03,0.14344
2781.25,0.14617
2775.46,0.14821
2769.67,0.14934
2763.89,0.15096
2758.1,0.15198
2752.32,0.15294
2746.53,0.15311
2740.74,0.15344
2734.96,0.15462
2729.17,0.15569
2723.38,0.15672
2717.6,0.15932
2711.81,0.16102
2706.03,0.16366
2700.24,0.16634
2694.45,0.16883
2688.67,0.17164
2682.88,0.17419
2677.09,0.17635
2671.31,0.17785
2665.52,0.17960
2659.74,0.18078
2653.95,0.18250
2648.16,0.18421
2642.38,0.18583
2636.59,0.18826
2630.8,0.19083
2625.02,0.19288
2619.23,0.19509
2613.45,0.19671
2607.66,0.19876
2601.87,0.19987
2596.09,0.20146
2590.3,0.20357
2584.51,0.20538
2578.73,0.20750
2572.94,0.20795
2567.16,0.20888
2561.37,0.21025
2555.58,0.21116
2549.8,0.21165
2544.01,0.21264
2538.23,0.21417
2532.44,0.21607
2526.65,0.21780
2520.87,0.21999
2515.08,0.22115
2509.29,0.22391
2503.51,0.22706
2497.72,0.23047
2491.94,0.23383
2486.15,0.23639
2480.36,0.23884
2474.58,0.24095
2468.79,0.24293
2463,0.24480
2457.22,0.24678
2451.43,0.24899
2445.65,0.25139
2439.86,0.25392
2434.07,0.25705
2428.29,0.26026
2422.5,0.26337
2416.71,0.26728
2410.93,0.27116
2405.14,0.27469
2399.36,0.27804
2393.57,0.28147
2387.78,0.28439
2382,0.28677
2376.21,0.28985
2370.42,0.29281
2364.64,0.29500
2358.85,0.29734
2353.07,0.29977
2347.28,0.30220
2341.49,0.30393
2335.71,0.30564
2329.92,0.30653
2324.13,0.30779
2318.35,0.30868
2312.56,0.30902
2306.78,0.30914
2300.99,0.30902
2295.2,0.30869
2289.42,0.30917
2283.63,0.30920
2277.84,0.30877
2272.06,0.30767
2266.27,0.30548
2260.49,0.30344
2254.7,0.30183
2248.91,0.30043
2243.13,0.29923
2237.34,0.29910
2231.56,0.29921
2225.77,0.29968
2219.98,0.30058
2214.2,0.30133
2208.41,0.30075
2202.62,0.29980
2196.84,0.29816
2191.05,0.29527
2185.27,0.29209
2179.48,0.28780
2173.69,0.28389
2167.91,0.28025
2162.12,0.27710
2156.33,0.27497
2150.55,0.27354
2144.76,0.27231
2138.98,0.27183
2133.19,0.27179
2127.4,0.27277
2121.62,0.27356
2115.83,0.27460
2110.04,0.27602
2104.26,0.27773
2098.47,0.27937
2092.69,0.28099
2086.9,0.28171
2081.11,0.28130
2075.33,0.27970
2069.54,0.27893
2063.75,0.27754
2057.97,0.27737
2052.18,0.27774
2046.4,0.27889
2040.61,0.28020
2034.82,0.28273
2029.04,0.28540
2023.25,0.28933
2017.46,0.29302
2011.68,0.29635
2005.89,0.29926
2000.11,0.30123
1994.32,0.30306
1988.53,0.30473
1982.75,0.30547
1976.96,0.30596
1971.17,0.30610
1965.39,0.30596
1959.6,0.30586
1953.82,0.30711
1948.03,0.30889
1942.24,0.31211
1936.46,0.31564
1930.67,0.31924
1924.89,0.32224
1919.1,0.32470
1913.31,0.32585
1907.53,0.32605
1901.74,0.32646
1895.95,0.32597
1890.17,0.32470
1884.38,0.32381
1878.6,0.32277
1872.81,0.32097
1867.02,0.31896
1861.24,0.31641
1855.45,0.31434
1849.66,0.31158
1843.88,0.30798
1838.09,0.30483
1832.31,0.29999
1826.52,0.29513
1820.73,0.28922
1814.95,0.28282
1809.16,0.27460
1803.37,0.26551
1797.59,0.25549
1791.8,0.24376
1786.02,0.23035
1780.23,0.21278
1774.44,0.18916
1768.66,0.15644
1762.87,0.12563
1757.08,0.10211
1751.3,0.08902
1745.51,0.08128
1739.73,0.07812
1733.94,0.07947
1728.15,0.08373
1722.37,0.08897
1716.58,0.09118
1710.79,0.08968
1705.01,0.08411
1699.22,0.07555
1693.44,0.06585
1687.65,0.05753
1681.86,0.05000
1676.08,0.04715
1670.29,0.04559
1664.5,0.04646
1658.72,0.04861
1652.93,0.05125
1647.15,0.05430
1641.36,0.05608
1635.57,0.05596
1629.79,0.05545
1624,0.05556
1618.21,0.05605
1612.43,0.05619
1606.64,0.05623
1600.86,0.05641
1595.07,0.05686
1589.28,0.06161
1583.5,0.06966
1577.71,0.07858
1571.93,0.08507
1566.14,0.08787
1560.35,0.08711
1554.57,0.08483
1548.78,0.08262
1542.99,0.08031
1537.21,0.07852
1531.42,0.07540
1525.64,0.06944
1519.85,0.06039
1514.06,0.05333
1508.28,0.05231
1502.49,0.05485
1496.7,0.06037
1490.92,0.06601
1485.13,0.06679
1479.35,0.06275
1473.56,0.05512
1467.77,0.04937
1461.99,0.04839
1456.2,0.04960
1450.41,0.05177
1444.63,0.05355
1438.84,0.05354
1433.06,0.05117
1427.27,0.05011
1421.48,0.05207
1415.7,0.05598
1409.91,0.05938
1404.12,0.06048
1398.34,0.05977
1392.55,0.05786
1386.77,0.05381
1380.98,0.05002
1375.19,0.04855
1369.41,0.04984
1363.62,0.05092
1357.83,0.05265
1352.05,0.05400
1346.26,0.05306
1340.48,0.05105
1334.69,0.05013
1328.9,0.05025
1323.12,0.05089
1317.33,0.05270
1311.54,0.05501
1305.76,0.05665
1299.97,0.05774
1294.19,0.05657
1288.4,0.05389
1282.61,0.05073
1276.83,0.04933
1271.04,0.04795
1265.26,0.04772
1259.47,0.04784
1253.68,0.04756
1247.9,0.04692
1242.11,0.04667
1236.32,0.04628
1230.54,0.04724
1224.75,0.04920
1218.97,0.05057
1213.18,0.05204
1207.39,0.05234
1201.61,0.05232
1195.82,0.05305
1190.03,0.05171
1184.25,0.04801
1178.46,0.04373
1172.68,0.03968
1166.89,0.04021
1161.1,0.04345
1155.32,0.04535
1149.53,0.04521
1143.74,0.04286
1137.96,0.04074
1132.17,0.03827
1126.39,0.03832
1120.6,0.04118
1114.81,0.04165
1109.03,0.04363
1103.24,0.04522
1097.45,0.04448
1091.67,0.04294
1085.88,0.04206
1080.1,0.04216
1074.31,0.04531
1068.52,0.04865
1062.74,0.05423
1056.95,0.05942
1051.16,0.06078
1045.38,0.05982
1039.59,0.06145
1033.81,0.06588
1028.02,0.06901
1022.23,0.07026
1016.45,0.07236
1010.66,0.07504
1004.87,0.07633
999.089,0.07937
993.302,0.08123
987.516,0.08700
981.73,0.09559
975.944,0.10355
970.157,0.10692
964.371,0.11207
958.585,0.12018
952.799,0.12808
947.013,0.13273
941.226,0.13514
935.44,0.13485
929.654,0.13449
923.868,0.13444
918.081,0.13237
912.295,0.12852
906.509,0.12326
900.723,0.11643
894.937,0.11792
889.15,0.12461
883.364,0.12913
877.578,0.13204
871.792,0.13255
866.005,0.13440
860.219,0.13342
854.433,0.13221
848.647,0.13183
842.86,0.12971
837.074,0.12727
831.288,0.12509
825.502,0.12507
819.716,0.12596
813.929,0.12605
808.143,0.12581
802.357,0.12570
796.571,0.12494
790.784,0.12327
784.998,0.11997
779.212,0.11721
773.426,0.11555
767.64,0.11221
761.853,0.10845
756.067,0.10421
750.281,0.10067
744.495,0.09817
738.708,0.09523
732.922,0.09267
727.136,0.08940
721.35,0.08722
715.563,0.08603
709.777,0.08490
703.991,0.08388
698.205,0.08186
692.419,0.07985
686.632,0.07911
680.846,0.07560
675.06,0.07365
669.274,0.07282
663.487,0.07224
657.701,0.07378
651.915,0.07354
646.129,0.07242
640.343,0.06760
634.556,0.06738
628.77,0.06809
622.984,0.06564
617.198,0.06514
611.411,0.06783
605.625,0.07100
599.839,0.07129