File: 01_Data/Luan_Panel/FTIR/IS/Luan_Panel_IS_T_220914_R7.dpt
7497.02,0.02574
7491.24,0.02515
7485.45,0.03529
7479.66,0.02338
7473.88,0.02551
7468.09,0.02334
7462.3,0.02819
7456.52,0.01735
7450.73,0.02116
7444.95,0.02603
7439.16,0.01623
7433.37,0.02262
7427.59,0.02323
7421.8,0.02278
7416.01,0.01919
7410.23,0.02628
7404.44,0.02296
7398.66,0.02865
7392.87,0.02289
7387.08,0.02904
7381.3,0.02226
7375.51,0.01984
7369.73,0.01800
7363.94,0.01881
7358.15,0.02193
7352.37,0.02745
7346.58,0.01878
7340.79,0.02915
7335.01,0.02861
7329.22,0.02789
7323.44,0.01476
7317.65,0.02891
7311.86,0.02236
7306.08,0.03294
7300.29,0.02646
7294.5,0.02664
7288.72,0.02270
7282.93,0.02197
7277.15,0.01695
7271.36,0.02567
7265.57,0.02076
7259.79,0.02409
7254,0.02575
7248.21,0.03025
7242.43,0.02970
7236.64,0.02456
7230.86,0.02576
7225.07,0.02550
7219.28,0.02408
7213.5,0.01700
7207.71,0.01956
7201.92,0.01831
7196.14,0.03148
7190.35,0.02554
7184.57,0.02691
7178.78,0.02923
7172.99,0.02642
7167.21,0.02551
7161.42,0.03161
7155.63,0.02315
7149.85,0.02212
7144.06,0.02211
7138.28,0.01929
7132.49,0.02368
7126.7,0.02059
7120.92,0.02627
7115.13,0.01987
7109.34,0.02530
7103.56,0.02449
7097.77,0.02100
7091.99,0.02382
7086.2,0.02295
7080.41,0.01440
7074.63,0.02089
7068.84,0.03068
7063.06,0.02872
7057.27,0.02668
7051.48,0.02248
7045.7,0.02273
7039.91,0.02684
7034.12,0.02628
7028.34,0.02553
7022.55,0.02343
7016.77,0.02034
7010.98,0.02340
7005.19,0.02660
6999.41,0.02750
6993.62,0.02761
6987.83,0.01734
6982.05,0.01793
6976.26,0.02181
6970.48,0.02266
6964.69,0.02149
6958.9,0.02599
6953.12,0.02860
6947.33,0.02401
6941.54,0.02162
6935.76,0.02408
6929.97,0.02404
6924.19,0.03032
6918.4,0.02692
6912.61,0.02283
6906.83,0.01979
6901.04,0.02423
6895.25,0.02727
6889.47,0.03016
6883.68,0.02000
6877.9,0.01848
6872.11,0.02086
6866.32,0.02920
6860.54,0.02518
6854.75,0.02356
6848.96,0.02544
6843.18,0.02415
6837.39,0.02333
6831.61,0.02858
6825.82,0.02702
6820.03,0.02549
6814.25,0.02418
6808.46,0.02038
6802.67,0.02017
6796.89,0.01936
6791.1,0.02305
6785.32,0.01560
6779.53,0.02244
6773.74,0.01909
6767.96,0.01933
6762.17,0.02368
6756.38,0.02471
6750.6,0.02366
6744.81,0.02053
6739.03,0.02715
6733.24,0.02605
6727.45,0.01809
6721.67,0.02213
6715.88,0.02718
6710.1,0.02377
6704.31,0.01914
6698.52,0.02092
6692.74,0.02095
6686.95,0.01905
6681.16,0.02520
6675.38,0.02307
6669.59,0.02724
6663.81,0.02770
6658.02,0.02081
6652.23,0.02117
6646.45,0.02329
6640.66,0.02405
6634.87,0.02048
6629.09,0.01964
6623.3,0.02098
6617.52,0.02393
6611.73,0.02400
6605.94,0.02485
6600.16,0.02448
6594.37,0.02431
6588.58,0.02096
6582.8,0.02202
6577.01,0.02443
6571.23,0.02248
6565.44,0.01970
6559.65,0.02013
6553.87,0.02040
6548.08,0.02132
6542.29,0.01803
6536.51,0.02164
6530.72,0.01972
6524.94,0.01824
6519.15,0.01790
6513.36,0.02264
6507.58,0.02242
6501.79,0.02066
6496,0.02288
6490.22,0.02601
6484.43,0.02301
6478.65,0.02280
6472.86,0.02001
6467.07,0.02512
6461.29,0.02407
6455.5,0.02230
6449.71,0.02218
6443.93,0.02234
6438.14,0.02217
6432.36,0.02087
6426.57,0.02534
6420.78,0.02362
6415,0.02183
6409.21,0.01955
6403.43,0.01894
6397.64,0.02333
6391.85,0.02268
6386.07,0.02043
6380.28,0.02148
6374.49,0.02310
6368.71,0.02418
6362.92,0.02391
6357.14,0.02360
6351.35,0.02181
6345.56,0.02483
6339.78,0.01930
6333.99,0.02348
6328.2,0.01940
6322.42,0.02144
6316.63,0.02110
6310.85,0.02150
6305.06,0.02086
6299.27,0.02093
6293.49,0.02000
6287.7,0.02411
6281.91,0.02290
6276.13,0.02032
6270.34,0.02337
6264.56,0.02285
6258.77,0.02107
6252.98,0.01757
6247.2,0.02098
6241.41,0.02076
6235.62,0.02187
6229.84,0.02076
6224.05,0.01721
6218.27,0.02029
6212.48,0.02120
6206.69,0.02432
6200.91,0.02330
6195.12,0.02336
6189.33,0.02196
6183.55,0.02221
6177.76,0.02198
6171.98,0.02059
6166.19,0.02550
6160.4,0.02253
6154.62,0.02525
6148.83,0.01946
6143.04,0.02044
6137.26,0.02075
6131.47,0.02140
6125.69,0.01799
6119.9,0.02107
6114.11,0.02369
6108.33,0.02285
6102.54,0.02338
6096.76,0.02103
6090.97,0.01955
6085.18,0.02049
6079.4,0.02395
6073.61,0.02222
6067.82,0.02534
6062.04,0.02434
6056.25,0.02340
6050.47,0.02161
6044.68,0.02026
6038.89,0.02374
6033.11,0.02291
6027.32,0.01880
6021.53,0.02045
6015.75,0.02147
6009.96,0.02109
6004.18,0.02145
5998.39,0.02163
5992.6,0.02264
5986.82,0.02185
5981.03,0.02032
5975.24,0.02372
5969.46,0.02184
5963.67,0.01984
5957.89,0.02092
5952.1,0.02236
5946.31,0.02226
5940.53,0.02241
5934.74,0.01986
5928.95,0.02372
5923.17,0.01889
5917.38,0.02269
5911.6,0.02003
5905.81,0.02184
5900.02,0.02212
5894.24,0.02244
5888.45,0.02066
5882.66,0.02203
5876.88,0.02214
5871.09,0.02217
5865.31,0.01995
5859.52,0.02257
5853.73,0.02120
5847.95,0.02123
5842.16,0.02145
5836.37,0.02202
5830.59,0.01954
5824.8,0.02194
5819.02,0.02254
5813.23,0.02330
5807.44,0.02270
5801.66,0.01914
5795.87,0.02050
5790.08,0.02193
5784.3,0.02008
5778.51,0.02007
5772.73,0.02207
5766.94,0.02227
5761.15,0.02215
5755.37,0.02173
5749.58,0.02135
5743.8,0.02067
5738.01,0.02317
5732.22,0.02099
5726.44,0.02390
5720.65,0.01979
5714.86,0.02199
5709.08,0.02156
5703.29,0.01961
5697.51,0.02094
5691.72,0.02317
5685.93,0.02281
5680.15,0.01997
5674.36,0.02107
5668.57,0.02100
5662.79,0.02149
5657,0.02333
5651.22,0.02212
5645.43,0.02351
5639.64,0.02445
5633.86,0.02132
5628.07,0.02172
5622.28,0.02210
5616.5,0.02085
5610.71,0.02112
5604.93,0.02174
5599.14,0.02201
5593.35,0.02087
5587.57,0.02159
5581.78,0.02148
5575.99,0.02203
5570.21,0.02252
5564.42,0.02059
5558.64,0.02199
5552.85,0.02211
5547.06,0.02276
5541.28,0.02154
5535.49,0.02320
5529.7,0.02163
5523.92,0.02181
5518.13,0.02044
5512.35,0.02252
5506.56,0.02151
5500.77,0.02096
5494.99,0.02279
5489.2,0.02234
5483.41,0.02228
5477.63,0.02138
5471.84,0.02297
5466.06,0.02275
5460.27,0.02168
5454.48,0.02265
5448.7,0.02243
5442.91,0.02109
5437.13,0.02114
5431.34,0.02139
5425.55,0.02282
5419.77,0.02185
5413.98,0.02301
5408.19,0.02056
5402.41,0.02177
5396.62,0.02216
5390.84,0.02268
5385.05,0.02152
5379.26,0.02284
5373.48,0.02244
5367.69,0.02186
5361.9,0.02298
5356.12,0.02406
5350.33,0.02339
5344.55,0.02044
5338.76,0.02201
5332.97,0.02208
5327.19,0.02110
5321.4,0.02226
5315.61,0.02283
5309.83,0.02308
5304.04,0.02225
5298.26,0.02161
5292.47,0.02211
5286.68,0.02266
5280.9,0.02285
5275.11,0.02225
5269.32,0.02083
5263.54,0.02253
5257.75,0.02037
5251.97,0.02171
5246.18,0.02138
5240.39,0.02191
5234.61,0.02202
5228.82,0.02191
5223.03,0.02170
5217.25,0.02172
5211.46,0.02316
5205.68,0.02088
5199.89,0.02266
5194.1,0.02327
5188.32,0.02307
5182.53,0.02289
5176.74,0.02166
5170.96,0.02197
5165.17,0.02276
5159.39,0.02255
5153.6,0.02160
5147.81,0.02205
5142.03,0.02121
5136.24,0.02289
5130.46,0.02219
5124.67,0.02241
5118.88,0.02305
5113.1,0.02344
5107.31,0.02382
5101.52,0.02279
5095.74,0.02245
5089.95,0.02277
5084.17,0.02192
5078.38,0.02367
5072.59,0.02240
5066.81,0.02171
5061.02,0.02176
5055.23,0.02200
5049.45,0.02359
5043.66,0.02255
5037.88,0.02269
5032.09,0.02181
5026.3,0.02278
5020.52,0.02239
5014.73,0.02193
5008.94,0.02257
5003.16,0.02209
4997.37,0.02096
4991.59,0.02145
4985.8,0.02254
4980.01,0.02323
4974.23,0.02199
4968.44,0.02274
4962.65,0.02209
4956.87,0.02244
4951.08,0.02315
4945.3,0.02262
4939.51,0.02313
4933.72,0.02192
4927.94,0.02196
4922.15,0.02234
4916.36,0.02292
4910.58,0.02059
4904.79,0.02206
4899.01,0.02322
4893.22,0.02234
4887.43,0.02150
4881.65,0.02206
4875.86,0.02157
4870.07,0.02232
4864.29,0.02223
4858.5,0.02196
4852.72,0.02157
4846.93,0.02170
4841.14,0.02310
4835.36,0.02327
4829.57,0.02324
4823.78,0.02354
4818,0.02259
4812.21,0.02224
4806.43,0.02211
4800.64,0.02240
4794.85,0.02229
4789.07,0.02250
4783.28,0.02288
4777.5,0.02272
4771.71,0.02239
4765.92,0.02205
4760.14,0.02209
4754.35,0.02287
4748.56,0.02311
4742.78,0.02207
4736.99,0.02343
4731.21,0.02273
4725.42,0.02207
4719.63,0.02203
4713.85,0.02324
4708.06,0.02279
4702.27,0.02290
4696.49,0.02407
4690.7,0.02147
4684.92,0.02230
4679.13,0.02371
4673.34,0.02249
4667.56,0.02277
4661.77,0.02268
4655.98,0.02337
4650.2,0.02226
4644.41,0.02347
4638.63,0.02327
4632.84,0.02305
4627.05,0.02241
4621.27,0.02122
4615.48,0.02133
4609.69,0.02272
4603.91,0.02324
4598.12,0.02242
4592.34,0.02322
4586.55,0.02315
4580.76,0.02275
4574.98,0.02259
4569.19,0.02269
4563.4,0.02242
4557.62,0.02169
4551.83,0.02254
4546.05,0.02220
4540.26,0.02320
4534.47,0.02278
4528.69,0.02278
4522.9,0.02278
4517.11,0.02244
4511.33,0.02255
4505.54,0.02306
4499.76,0.02228
4493.97,0.02321
4488.18,0.02236
4482.4,0.02300
4476.61,0.02248
4470.83,0.02294
4465.04,0.02263
4459.25,0.02291
4453.47,0.02334
4447.68,0.02203
4441.89,0.02187
4436.11,0.02300
4430.32,0.02236
4424.54,0.02208
4418.75,0.02233
4412.96,0.02245
4407.18,0.02355
4401.39,0.02223
4395.6,0.02334
4389.82,0.02175
4384.03,0.02264
4378.25,0.02116
4372.46,0.02251
4366.67,0.02314
4360.89,0.02288
4355.1,0.02218
4349.31,0.02199
4343.53,0.02247
4337.74,0.02256
4331.96,0.02258
4326.17,0.02263
4320.38,0.02293
4314.6,0.02298
4308.81,0.02267
4303.02,0.02201
4297.24,0.02294
4291.45,0.02287
4285.67,0.02299
4279.88,0.02216
4274.09,0.02410
4268.31,0.02274
4262.52,0.02250
4256.73,0.02301
4250.95,0.02201
4245.16,0.02319
4239.38,0.02323
4233.59,0.02218
4227.8,0.02243
4222.02,0.02293
4216.23,0.02355
4210.44,0.02168
4204.66,0.02225
4198.87,0.02208
4193.09,0.02315
4187.3,0.02203
4181.51,0.02299
4175.73,0.02262
4169.94,0.02283
4164.16,0.02305
4158.37,0.02225
4152.58,0.02292
4146.8,0.02310
4141.01,0.02292
4135.22,0.02255
4129.44,0.02292
4123.65,0.02301
4117.87,0.02328
4112.08,0.02283
4106.29,0.02297
4100.51,0.02263
4094.72,0.02208
4088.93,0.02306
4083.15,0.02277
4077.36,0.02307
4071.58,0.02361
4065.79,0.02300
4060,0.02242
4054.22,0.02161
4048.43,0.02283
4042.64,0.02240
4036.86,0.02279
4031.07,0.02315
4025.29,0.02251
4019.5,0.02327
4013.71,0.02325
4007.93,0.02313
4002.14,0.02247
3996.35,0.02318
3990.57,0.02297
3984.78,0.02281
3979,0.02310
3973.21,0.02350
3967.42,0.02298
3961.64,0.02238
3955.85,0.02232
3950.06,0.02267
3944.28,0.02299
3938.49,0.02360
3932.71,0.02312
3926.92,0.02306
3921.13,0.02329
3915.35,0.02256
3909.56,0.02251
3903.77,0.02241
3897.99,0.02248
3892.2,0.02281
3886.42,0.02372
3880.63,0.02342
3874.84,0.02295
3869.06,0.02207
3863.27,0.02336
3857.48,0.02264
3851.7,0.02256
3845.91,0.02350
3840.13,0.02360
3834.34,0.02263
3828.55,0.02252
3822.77,0.02342
3816.98,0.02263
3811.2,0.02257
3805.41,0.02299
3799.62,0.02301
3793.84,0.02260
3788.05,0.02297
3782.26,0.02318
3776.48,0.02302
3770.69,0.02367
3764.91,0.02288
3759.12,0.02281
3753.33,0.02321
3747.55,0.02284
3741.76,0.02257
3735.97,0.02237
3730.19,0.02264
3724.4,0.02245
3718.62,0.02267
3712.83,0.02275
3707.04,0.02285
3701.26,0.02249
3695.47,0.02181
3689.68,0.02268
3683.9,0.02320
3678.11,0.02278
3672.33,0.02264
3666.54,0.02315
3660.75,0.02256
3654.97,0.02170
3649.18,0.02206
3643.39,0.02241
3637.61,0.02229
3631.82,0.02223
3626.04,0.02181
3620.25,0.02186
3614.46,0.02211
3608.68,0.02223
3602.89,0.02185
3597.1,0.02197
3591.32,0.02212
3585.53,0.02117
3579.75,0.02146
3573.96,0.02145
3568.17,0.02116
3562.39,0.02106
3556.6,0.02214
3550.81,0.02182
3545.03,0.02096
3539.24,0.02105
3533.46,0.02151
3527.67,0.02155
3521.88,0.02168
3516.1,0.02082
3510.31,0.02145
3504.53,0.02124
3498.74,0.02165
3492.95,0.02143
3487.17,0.02107
3481.38,0.02168
3475.59,0.02115
3469.81,0.02084
3464.02,0.02098
3458.24,0.02072
3452.45,0.02145
3446.66,0.02102
3440.88,0.02096
3435.09,0.02067
3429.3,0.02124
3423.52,0.02091
3417.73,0.02039
3411.95,0.02086
3406.16,0.02101
3400.37,0.02073
3394.59,0.02108
3388.8,0.02105
3383.01,0.02092
3377.23,0.02015
3371.44,0.02100
3365.66,0.02032
3359.87,0.02074
3354.08,0.02067
3348.3,0.02085
3342.51,0.02013
3336.72,0.02037
3330.94,0.02067
3325.15,0.02035
3319.37,0.02031
3313.58,0.02098
3307.79,0.02058
3302.01,0.02033
3296.22,0.02071
3290.43,0.02004
3284.65,0.02082
3278.86,0.02074
3273.08,0.02035
3267.29,0.02042
3261.5,0.02046
3255.72,0.02112
3249.93,0.02189
3244.14,0.02070
3238.36,0.02107
3232.57,0.02132
3226.79,0.02144
3221,0.02047
3215.21,0.02081
3209.43,0.02085
3203.64,0.02075
3197.86,0.02118
3192.07,0.02031
3186.28,0.02073
3180.5,0.02137
3174.71,0.02112
3168.92,0.02141
3163.14,0.02124
3157.35,0.02118
3151.57,0.02131
3145.78,0.02156
3139.99,0.02151
3134.21,0.02082
3128.42,0.02100
3122.63,0.02082
3116.85,0.02133
3111.06,0.02109
3105.28,0.02049
3099.49,0.02100
3093.7,0.02079
3087.92,0.02131
3082.13,0.02099
3076.34,0.02137
3070.56,0.02134
3064.77,0.02136
3058.99,0.02121
3053.2,0.02087
3047.41,0.02036
3041.63,0.02078
3035.84,0.02083
3030.05,0.02016
3024.27,0.02057
3018.48,0.02065
3012.7,0.02062
3006.91,0.02006
3001.12,0.02041
2995.34,0.02037
2989.55,0.02060
2983.76,0.02009
2977.98,0.02001
2972.19,0.01900
2966.41,0.01943
2960.62,0.02017
2954.83,0.02036
2949.05,0.01955
2943.26,0.01966
2937.47,0.01929
2931.69,0.01997
2925.9,0.01982
2920.12,0.02024
2914.33,0.02014
2908.54,0.02051
2902.76,0.02066
2896.97,0.02068
2891.18,0.02073
2885.4,0.02012
2879.61,0.02041
2873.83,0.02089
2868.04,0.02127
2862.25,0.02070
2856.47,0.02069
2850.68,0.02093
2844.9,0.02108
2839.11,0.02117
2833.32,0.02117
2827.54,0.02107
2821.75,0.02126
2815.96,0.02159
2810.18,0.02161
2804.39,0.02124
2798.61,0.02147
2792.82,0.02164
2787.03,0.02146
2781.25,0.02150
2775.46,0.02163
2769.67,0.02136
2763.89,0.02168
2758.1,0.02127
2752.32,0.02147
2746.53,0.02203
2740.74,0.02108
2734.96,0.02105
2729.17,0.02152
2723.38,0.02132
2717.6,0.02171
2711.81,0.02163
2706.03,0.02163
2700.24,0.02163
2694.45,0.02146
2688.67,0.02139
2682.88,0.02162
2677.09,0.02177
2671.31,0.02154
2665.52,0.02148
2659.74,0.02132
2653.95,0.02120
2648.16,0.02141
2642.38,0.02122
2636.59,0.02141
2630.8,0.02182
2625.02,0.02153
2619.23,0.02091
2613.45,0.02140
2607.66,0.02180
2601.87,0.02131
2596.09,0.02108
2590.3,0.02162
2584.51,0.02166
2578.73,0.02148
2572.94,0.02105
2567.16,0.02171
2561.37,0.02157
2555.58,0.02175
2549.8,0.02108
2544.01,0.02106
2538.23,0.02159
2532.44,0.02148
2526.65,0.02113
2520.87,0.02164
2515.08,0.02126
2509.29,0.02156
2503.51,0.02120
2497.72,0.02135
2491.94,0.02173
2486.15,0.02129
2480.36,0.02176
2474.58,0.02179
2468.79,0.02163
2463,0.02148
2457.22,0.02172
2451.43,0.02181
2445.65,0.02163
2439.86,0.02151
2434.07,0.02171
2428.29,0.02142
2422.5,0.02134
2416.71,0.02131
2410.93,0.02121
2405.14,0.02115
2399.36,0.02151
2393.57,0.02187
2387.78,0.02128
2382,0.02155
2376.21,0.02150
2370.42,0.02176
2364.64,0.02156
2358.85,0.02173
2353.07,0.02176
2347.28,0.02126
2341.49,0.02071
2335.71,0.02143
2329.92,0.02124
2324.13,0.02181
2318.35,0.02135
2312.56,0.02116
2306.78,0.02170
2300.99,0.02132
2295.2,0.02098
2289.42,0.02090
2283.63,0.02113
2277.84,0.02156
2272.06,0.02112
2266.27,0.02155
2260.49,0.02096
2254.7,0.02141
2248.91,0.02123
2243.13,0.02124
2237.34,0.02130
2231.56,0.02100
2225.77,0.02113
2219.98,0.02151
2214.2,0.02118
2208.41,0.02160
2202.62,0.02084
2196.84,0.02127
2191.05,0.02092
2185.27,0.02086
2179.48,0.02146
2173.69,0.02136
2167.91,0.02131
2162.12,0.02131
2156.33,0.02125
2150.55,0.02126
2144.76,0.02115
2138.98,0.02137
2133.19,0.02103
2127.4,0.02094
2121.62,0.02115
2115.83,0.02133
2110.04,0.02116
2104.26,0.02068
2098.47,0.02131
2092.69,0.02137
2086.9,0.02117
2081.11,0.02114
2075.33,0.02063
2069.54,0.02075
2063.75,0.02056
2057.97,0.02092
2052.18,0.02102
2046.4,0.02079
2040.61,0.02115
2034.82,0.02093
2029.04,0.02112
2023.25,0.02112
2017.46,0.02120
2011.68,0.02099
2005.89,0.02118
2000.11,0.02094
1994.32,0.02090
1988.53,0.02081
1982.75,0.02085
1976.96,0.02093
1971.17,0.02065
1965.39,0.02078
1959.6,0.02060
1953.82,0.02105
1948.03,0.02086
1942.24,0.02024
1936.46,0.02047
1930.67,0.02124
1924.89,0.02100
1919.1,0.02082
1913.31,0.02118
1907.53,0.02108
1901.74,0.02088
1895.95,0.02092
1890.17,0.02113
1884.38,0.02062
1878.6,0.02061
1872.81,0.02069
1867.02,0.02081
1861.24,0.02031
1855.45,0.02046
1849.66,0.02016
1843.88,0.02037
1838.09,0.02052
1832.31,0.02029
1826.52,0.02028
1820.73,0.02052
1814.95,0.02026
1809.16,0.02007
1803.37,0.02003
1797.59,0.02009
1791.8,0.01963
1786.02,0.01947
1780.23,0.01946
1774.44,0.01879
1768.66,0.01842
1762.87,0.01818
1757.08,0.01773
1751.3,0.01723
1745.51,0.01785
1739.73,0.01873
1733.94,0.01984
1728.15,0.02048
1722.37,0.02123
1716.58,0.02084
1710.79,0.02074
1705.01,0.02023
1699.22,0.01998
1693.44,0.01941
1687.65,0.01883
1681.86,0.01919
1676.08,0.01905
1670.29,0.01904
1664.5,0.01884
1658.72,0.01839
1652.93,0.01859
1647.15,0.01862
1641.36,0.01821
1635.57,0.01908
1629.79,0.01861
1624,0.01884
1618.21,0.01884
1612.43,0.01857
1606.64,0.01908
1600.86,0.01916
1595.07,0.01862
1589.28,0.01873
1583.5,0.01854
1577.71,0.01876
1571.93,0.01857
1566.14,0.01830
1560.35,0.01815
1554.57,0.01841
1548.78,0.01822
1542.99,0.01872
1537.21,0.01859
1531.42,0.01875
1525.64,0.01876
1519.85,0.01903
1514.06,0.01821
1508.28,0.01891
1502.49,0.01896
1496.7,0.01894
1490.92,0.01918
1485.13,0.01873
1479.35,0.01861
1473.56,0.01888
1467.77,0.01842
1461.99,0.01880
1456.2,0.01909
1450.41,0.01886
1444.63,0.01900
1438.84,0.01921
1433.06,0.01921
1427.27,0.01851
1421.48,0.01862
1415.7,0.01845
1409.91,0.01837
1404.12,0.01822
1398.34,0.01824
1392.55,0.01819
1386.77,0.01832
1380.98,0.01837
1375.19,0.01822
1369.41,0.01845
1363.62,0.01834
1357.83,0.01832
1352.05,0.01825
1346.26,0.01795
1340.48,0.01784
1334.69,0.01766
1328.9,0.01750
1323.12,0.01740
1317.33,0.01699
1311.54,0.01718
1305.76,0.01735
1299.97,0.01745
1294.19,0.01794
1288.4,0.01828
1282.61,0.01863
1276.83,0.01920
1271.04,0.01931
1265.26,0.01959
1259.47,0.02013
1253.68,0.01997
1247.9,0.02019
1242.11,0.02014
1236.32,0.01969
1230.54,0.01942
1224.75,0.01901
1218.97,0.01908
1213.18,0.01882
1207.39,0.01874
1201.61,0.01850
1195.82,0.01828
1190.03,0.01848
1184.25,0.01801
1178.46,0.01793
1172.68,0.01729
1166.89,0.01784
1161.1,0.01799
1155.32,0.01747
1149.53,0.01755
1143.74,0.01737
1137.96,0.01766
1132.17,0.01816
1126.39,0.01827
1120.6,0.01911
1114.81,0.01811
1109.03,0.01868
1103.24,0.01837
1097.45,0.01811
1091.67,0.01852
1085.88,0.01841
1080.1,0.01872
1074.31,0.01957
1068.52,0.02056
1062.74,0.01935
1056.95,0.02014
1051.16,0.01998
1045.38,0.01922
1039.59,0.01994
1033.81,0.01993
1028.02,0.01986
1022.23,0.01925
1016.45,0.01973
1010.66,0.02059
1004.87,0.02049
999.089,0.02082
993.302,0.02119
987.516,0.02039
981.73,0.02065
975.944,0.02052
970.157,0.02022
964.371,0.02026
958.585,0.02039
952.799,0.02040
947.013,0.02000
941.226,0.01986
935.44,0.01999
929.654,0.01979
923.868,0.01981
918.081,0.01958
912.295,0.01928
906.509,0.01907
900.723,0.01844
894.937,0.01872
889.15,0.01925
883.364,0.01918
877.578,0.01907
871.792,0.01879
866.005,0.01885
860.219,0.01928
854.433,0.01892
848.647,0.01864
842.86,0.01879
837.074,0.01820
831.288,0.01866
825.502,0.01930
819.716,0.01890
813.929,0.01908
808.143,0.01941
802.357,0.01940
796.571,0.01882
790.784,0.01924
784.998,0.01965
779.212,0.01856
773.426,0.01902
767.64,0.01839
761.853,0.01789
756.067,0.01849
750.281,0.01868
744.495,0.01881
738.708,0.01850
732.922,0.01828
727.136,0.01875
721.35,0.01840
715.563,0.01819
709.777,0.01761
703.991,0.01734
698.205,0.01765
692.419,0.01826
686.632,0.01795
680.846,0.01828
675.06,0.01712
669.274,0.01766
663.487,0.01909
657.701,0.01810
651.915,0.01598
646.129,0.01553
640.343,0.01646
634.556,0.01651
628.77,0.01544
622.984,0.01464
617.198,0.01499
611.411,0.01539
605.625,0.01594
599.839,0.01406