File: 01_Data/Luan_Panel/FTIR/IS/Luan_Panel_IS_S_220914_R2.dpt
7497.02,0.86060
7491.24,0.85263
7485.45,0.84873
7479.66,0.83980
7473.88,0.83903
7468.09,0.83335
7462.3,0.84521
7456.52,0.83924
7450.73,0.81907
7444.95,0.83464
7439.16,0.82224
7433.37,0.81823
7427.59,0.82767
7421.8,0.82370
7416.01,0.80881
7410.23,0.82214
7404.44,0.82235
7398.66,0.81378
7392.87,0.81069
7387.08,0.80777
7381.3,0.80153
7375.51,0.80517
7369.73,0.80419
7363.94,0.79559
7358.15,0.79707
7352.37,0.80450
7346.58,0.79219
7340.79,0.79936
7335.01,0.79554
7329.22,0.78793
7323.44,0.79678
7317.65,0.79813
7311.86,0.79706
7306.08,0.79128
7300.29,0.79424
7294.5,0.78834
7288.72,0.78075
7282.93,0.78869
7277.15,0.78389
7271.36,0.78667
7265.57,0.78301
7259.79,0.78414
7254,0.78187
7248.21,0.78343
7242.43,0.78099
7236.64,0.77774
7230.86,0.78255
7225.07,0.77194
7219.28,0.77478
7213.5,0.77540
7207.71,0.77139
7201.92,0.76223
7196.14,0.76842
7190.35,0.77063
7184.57,0.76824
7178.78,0.76236
7172.99,0.76115
7167.21,0.75979
7161.42,0.76103
7155.63,0.75859
7149.85,0.75502
7144.06,0.74573
7138.28,0.74930
7132.49,0.74445
7126.7,0.73894
7120.92,0.74350
7115.13,0.74349
7109.34,0.72698
7103.56,0.72122
7097.77,0.72502
7091.99,0.71685
7086.2,0.71989
7080.41,0.71327
7074.63,0.70322
7068.84,0.69998
7063.06,0.69760
7057.27,0.70021
7051.48,0.68984
7045.7,0.69251
7039.91,0.68522
7034.12,0.67985
7028.34,0.67792
7022.55,0.67747
7016.77,0.66558
7010.98,0.66546
7005.19,0.66350
6999.41,0.66243
6993.62,0.66020
6987.83,0.65425
6982.05,0.65934
6976.26,0.65768
6970.48,0.64827
6964.69,0.64536
6958.9,0.63967
6953.12,0.64463
6947.33,0.64843
6941.54,0.64719
6935.76,0.64031
6929.97,0.63991
6924.19,0.63651
6918.4,0.63835
6912.61,0.62892
6906.83,0.63831
6901.04,0.63689
6895.25,0.63279
6889.47,0.63312
6883.68,0.63334
6877.9,0.63577
6872.11,0.63211
6866.32,0.63389
6860.54,0.63646
6854.75,0.63295
6848.96,0.63101
6843.18,0.62844
6837.39,0.63238
6831.61,0.62919
6825.82,0.63103
6820.03,0.62496
6814.25,0.62484
6808.46,0.62801
6802.67,0.62445
6796.89,0.62829
6791.1,0.62561
6785.32,0.62255
6779.53,0.62480
6773.74,0.62254
6767.96,0.62065
6762.17,0.62121
6756.38,0.61862
6750.6,0.61846
6744.81,0.61886
6739.03,0.61817
6733.24,0.61699
6727.45,0.61850
6721.67,0.61797
6715.88,0.62006
6710.1,0.62174
6704.31,0.62119
6698.52,0.61723
6692.74,0.61699
6686.95,0.61671
6681.16,0.61635
6675.38,0.62281
6669.59,0.62388
6663.81,0.62501
6658.02,0.62656
6652.23,0.62710
6646.45,0.62652
6640.66,0.62964
6634.87,0.62502
6629.09,0.62765
6623.3,0.62898
6617.52,0.63024
6611.73,0.63177
6605.94,0.62834
6600.16,0.63461
6594.37,0.63134
6588.58,0.63589
6582.8,0.63695
6577.01,0.63852
6571.23,0.64668
6565.44,0.63987
6559.65,0.64064
6553.87,0.64526
6548.08,0.64223
6542.29,0.64333
6536.51,0.64460
6530.72,0.64568
6524.94,0.63931
6519.15,0.64600
6513.36,0.64214
6507.58,0.65037
6501.79,0.64851
6496,0.65040
6490.22,0.64932
6484.43,0.64668
6478.65,0.65252
6472.86,0.65272
6467.07,0.64528
6461.29,0.64945
6455.5,0.65060
6449.71,0.65491
6443.93,0.64737
6438.14,0.65034
6432.36,0.65070
6426.57,0.65052
6420.78,0.65235
6415,0.65371
6409.21,0.65446
6403.43,0.65567
6397.64,0.65790
6391.85,0.65574
6386.07,0.65857
6380.28,0.65586
6374.49,0.65886
6368.71,0.65877
6362.92,0.65864
6357.14,0.66260
6351.35,0.66015
6345.56,0.66667
6339.78,0.66249
6333.99,0.65882
6328.2,0.66149
6322.42,0.66481
6316.63,0.66378
6310.85,0.66495
6305.06,0.66431
6299.27,0.66379
6293.49,0.66836
6287.7,0.67112
6281.91,0.67013
6276.13,0.67137
6270.34,0.67137
6264.56,0.67152
6258.77,0.67332
6252.98,0.67956
6247.2,0.68126
6241.41,0.68015
6235.62,0.68083
6229.84,0.68503
6224.05,0.68518
6218.27,0.68410
6212.48,0.69195
6206.69,0.68894
6200.91,0.68990
6195.12,0.69032
6189.33,0.69011
6183.55,0.69175
6177.76,0.69256
6171.98,0.69648
6166.19,0.69392
6160.4,0.69691
6154.62,0.69805
6148.83,0.69843
6143.04,0.70242
6137.26,0.70292
6131.47,0.70435
6125.69,0.70159
6119.9,0.70229
6114.11,0.70363
6108.33,0.70469
6102.54,0.70110
6096.76,0.70561
6090.97,0.70567
6085.18,0.70398
6079.4,0.70339
6073.61,0.70355
6067.82,0.70316
6062.04,0.70032
6056.25,0.70050
6050.47,0.70013
6044.68,0.69985
6038.89,0.69944
6033.11,0.69396
6027.32,0.69605
6021.53,0.69387
6015.75,0.69167
6009.96,0.68662
6004.18,0.69069
5998.39,0.69034
5992.6,0.68950
5986.82,0.68804
5981.03,0.68734
5975.24,0.68754
5969.46,0.68397
5963.67,0.68093
5957.89,0.68384
5952.1,0.68643
5946.31,0.68458
5940.53,0.68389
5934.74,0.68526
5928.95,0.68718
5923.17,0.68540
5917.38,0.68140
5911.6,0.68450
5905.81,0.68019
5900.02,0.68127
5894.24,0.67945
5888.45,0.67665
5882.66,0.67794
5876.88,0.67625
5871.09,0.67603
5865.31,0.67266
5859.52,0.67600
5853.73,0.67459
5847.95,0.67594
5842.16,0.67315
5836.37,0.67209
5830.59,0.67584
5824.8,0.67481
5819.02,0.67167
5813.23,0.67354
5807.44,0.67156
5801.66,0.66798
5795.87,0.66890
5790.08,0.67129
5784.3,0.67035
5778.51,0.66903
5772.73,0.66962
5766.94,0.67287
5761.15,0.67628
5755.37,0.67626
5749.58,0.67549
5743.8,0.67443
5738.01,0.67445
5732.22,0.67343
5726.44,0.67442
5720.65,0.67375
5714.86,0.67496
5709.08,0.67615
5703.29,0.67664
5697.51,0.67474
5691.72,0.67492
5685.93,0.67664
5680.15,0.67621
5674.36,0.67447
5668.57,0.67515
5662.79,0.67610
5657,0.67528
5651.22,0.67457
5645.43,0.67550
5639.64,0.67461
5633.86,0.67501
5628.07,0.67429
5622.28,0.67408
5616.5,0.67429
5610.71,0.67314
5604.93,0.67274
5599.14,0.67542
5593.35,0.67509
5587.57,0.67665
5581.78,0.67507
5575.99,0.67734
5570.21,0.67859
5564.42,0.67687
5558.64,0.67740
5552.85,0.67834
5547.06,0.67996
5541.28,0.67964
5535.49,0.67978
5529.7,0.67965
5523.92,0.68062
5518.13,0.68277
5512.35,0.68076
5506.56,0.68040
5500.77,0.68047
5494.99,0.68078
5489.2,0.68146
5483.41,0.68123
5477.63,0.68223
5471.84,0.68269
5466.06,0.68467
5460.27,0.68385
5454.48,0.68485
5448.7,0.68583
5442.91,0.68552
5437.13,0.68740
5431.34,0.68731
5425.55,0.68800
5419.77,0.68899
5413.98,0.68968
5408.19,0.69116
5402.41,0.69293
5396.62,0.69163
5390.84,0.69136
5385.05,0.69212
5379.26,0.69237
5373.48,0.69114
5367.69,0.69084
5361.9,0.69042
5356.12,0.68959
5350.33,0.68801
5344.55,0.68704
5338.76,0.68722
5332.97,0.68496
5327.19,0.68190
5321.4,0.67812
5315.61,0.67475
5309.83,0.66928
5304.04,0.66278
5298.26,0.65641
5292.47,0.65150
5286.68,0.64255
5280.9,0.63202
5275.11,0.62148
5269.32,0.61194
5263.54,0.60117
5257.75,0.59094
5251.97,0.58085
5246.18,0.57302
5240.39,0.56446
5234.61,0.55759
5228.82,0.55325
5223.03,0.54961
5217.25,0.54593
5211.46,0.54104
5205.68,0.54160
5199.89,0.53917
5194.1,0.53671
5188.32,0.53575
5182.53,0.53746
5176.74,0.53791
5170.96,0.53785
5165.17,0.54046
5159.39,0.54139
5153.6,0.54302
5147.81,0.54388
5142.03,0.54576
5136.24,0.54782
5130.46,0.54782
5124.67,0.55038
5118.88,0.54887
5113.1,0.54742
5107.31,0.54699
5101.52,0.54426
5095.74,0.54342
5089.95,0.54168
5084.17,0.54170
5078.38,0.54051
5072.59,0.54179
5066.81,0.54284
5061.02,0.54530
5055.23,0.54814
5049.45,0.54935
5043.66,0.55364
5037.88,0.55624
5032.09,0.55841
5026.3,0.56238
5020.52,0.56315
5014.73,0.56407
5008.94,0.56658
5003.16,0.56933
4997.37,0.56989
4991.59,0.57085
4985.8,0.57108
4980.01,0.57135
4974.23,0.57166
4968.44,0.56978
4962.65,0.56830
4956.87,0.56424
4951.08,0.56044
4945.3,0.55604
4939.51,0.55358
4933.72,0.55131
4927.94,0.54737
4922.15,0.54442
4916.36,0.54215
4910.58,0.54059
4904.79,0.53682
4899.01,0.53436
4893.22,0.53181
4887.43,0.52795
4881.65,0.52543
4875.86,0.52306
4870.07,0.52027
4864.29,0.51698
4858.5,0.51414
4852.72,0.51039
4846.93,0.50802
4841.14,0.50513
4835.36,0.50105
4829.57,0.49893
4823.78,0.49689
4818,0.49541
4812.21,0.49239
4806.43,0.49200
4800.64,0.48964
4794.85,0.48936
4789.07,0.48931
4783.28,0.48869
4777.5,0.48732
4771.71,0.48651
4765.92,0.48578
4760.14,0.48534
4754.35,0.48549
4748.56,0.48427
4742.78,0.48438
4736.99,0.48459
4731.21,0.48451
4725.42,0.48346
4719.63,0.48461
4713.85,0.48484
4708.06,0.48503
4702.27,0.48412
4696.49,0.48321
4690.7,0.48479
4684.92,0.48542
4679.13,0.48582
4673.34,0.48509
4667.56,0.48626
4661.77,0.48771
4655.98,0.48774
4650.2,0.48829
4644.41,0.48962
4638.63,0.49031
4632.84,0.49072
4627.05,0.49389
4621.27,0.49476
4615.48,0.49697
4609.69,0.49926
4603.91,0.50101
4598.12,0.50300
4592.34,0.50466
4586.55,0.50595
4580.76,0.50761
4574.98,0.50750
4569.19,0.50871
4563.4,0.50924
4557.62,0.50972
4551.83,0.50917
4546.05,0.50975
4540.26,0.51103
4534.47,0.51211
4528.69,0.51293
4522.9,0.51439
4517.11,0.51428
4511.33,0.51341
4505.54,0.51341
4499.76,0.51226
4493.97,0.51157
4488.18,0.50832
4482.4,0.50590
4476.61,0.50147
4470.83,0.49561
4465.04,0.49074
4459.25,0.48503
4453.47,0.47875
4447.68,0.47287
4441.89,0.46718
4436.11,0.45961
4430.32,0.45325
4424.54,0.44664
4418.75,0.44004
4412.96,0.43585
4407.18,0.43326
4401.39,0.43123
4395.6,0.43069
4389.82,0.43213
4384.03,0.43550
4378.25,0.43787
4372.46,0.44050
4366.67,0.44397
4360.89,0.44667
4355.1,0.44786
4349.31,0.44894
4343.53,0.44786
4337.74,0.44757
4331.96,0.44642
4326.17,0.44382
4320.38,0.44153
4314.6,0.44192
4308.81,0.44014
4303.02,0.43810
4297.24,0.43615
4291.45,0.43366
4285.67,0.43196
4279.88,0.43147
4274.09,0.43188
4268.31,0.43314
4262.52,0.43513
4256.73,0.43518
4250.95,0.43739
4245.16,0.43743
4239.38,0.43824
4233.59,0.43908
4227.8,0.43929
4222.02,0.43954
4216.23,0.43914
4210.44,0.43965
4204.66,0.43936
4198.87,0.43871
4193.09,0.43861
4187.3,0.43995
4181.51,0.44153
4175.73,0.44268
4169.94,0.44457
4164.16,0.44547
4158.37,0.44528
4152.58,0.44437
4146.8,0.44273
4141.01,0.44077
4135.22,0.43836
4129.44,0.43514
4123.65,0.43142
4117.87,0.42767
4112.08,0.42417
4106.29,0.41965
4100.51,0.41490
4094.72,0.41019
4088.93,0.40517
4083.15,0.40038
4077.36,0.39545
4071.58,0.38920
4065.79,0.38407
4060,0.37885
4054.22,0.37314
4048.43,0.36834
4042.64,0.36340
4036.86,0.35950
4031.07,0.35619
4025.29,0.35329
4019.5,0.35144
4013.71,0.35048
4007.93,0.35086
4002.14,0.35193
3996.35,0.35334
3990.57,0.35446
3984.78,0.35587
3979,0.35714
3973.21,0.35968
3967.42,0.36238
3961.64,0.36446
3955.85,0.36663
3950.06,0.36933
3944.28,0.37218
3938.49,0.37522
3932.71,0.37785
3926.92,0.38010
3921.13,0.38219
3915.35,0.38458
3909.56,0.38672
3903.77,0.38919
3897.99,0.39133
3892.2,0.39344
3886.42,0.39487
3880.63,0.39686
3874.84,0.39898
3869.06,0.40165
3863.27,0.40532
3857.48,0.40810
3851.7,0.41094
3845.91,0.41456
3840.13,0.41645
3834.34,0.41749
3828.55,0.41933
3822.77,0.42034
3816.98,0.42082
3811.2,0.42148
3805.41,0.42093
3799.62,0.42165
3793.84,0.42135
3788.05,0.42102
3782.26,0.41970
3776.48,0.41923
3770.69,0.41846
3764.91,0.41571
3759.12,0.41389
3753.33,0.41142
3747.55,0.40875
3741.76,0.40591
3735.97,0.40221
3730.19,0.39744
3724.4,0.39209
3718.62,0.38665
3712.83,0.37976
3707.04,0.37111
3701.26,0.36108
3695.47,0.34921
3689.68,0.33524
3683.9,0.31714
3678.11,0.29790
3672.33,0.27631
3666.54,0.25459
3660.75,0.23496
3654.97,0.21579
3649.18,0.19915
3643.39,0.18481
3637.61,0.17195
3631.82,0.15920
3626.04,0.14932
3620.25,0.13999
3614.46,0.13083
3608.68,0.12288
3602.89,0.11441
3597.1,0.10736
3591.32,0.10060
3585.53,0.09461
3579.75,0.08950
3573.96,0.08420
3568.17,0.08035
3562.39,0.07692
3556.6,0.07249
3550.81,0.06960
3545.03,0.06656
3539.24,0.06425
3533.46,0.06170
3527.67,0.05897
3521.88,0.05664
3516.1,0.05384
3510.31,0.05256
3504.53,0.05043
3498.74,0.04888
3492.95,0.04775
3487.17,0.04598
3481.38,0.04493
3475.59,0.04374
3469.81,0.04332
3464.02,0.04338
3458.24,0.04221
3452.45,0.04107
3446.66,0.04085
3440.88,0.04060
3435.09,0.04052
3429.3,0.04006
3423.52,0.04030
3417.73,0.04054
3411.95,0.04061
3406.16,0.04044
3400.37,0.04066
3394.59,0.04047
3388.8,0.04082
3383.01,0.04038
3377.23,0.04008
3371.44,0.04045
3365.66,0.04083
3359.87,0.04090
3354.08,0.04148
3348.3,0.04258
3342.51,0.04289
3336.72,0.04317
3330.94,0.04375
3325.15,0.04461
3319.37,0.04537
3313.58,0.04648
3307.79,0.04589
3302.01,0.04713
3296.22,0.04794
3290.43,0.04865
3284.65,0.04863
3278.86,0.04964
3273.08,0.04997
3267.29,0.05186
3261.5,0.05221
3255.72,0.05398
3249.93,0.05595
3244.14,0.05684
3238.36,0.05772
3232.57,0.05920
3226.79,0.06005
3221,0.06089
3215.21,0.06236
3209.43,0.06455
3203.64,0.06560
3197.86,0.06688
3192.07,0.06854
3186.28,0.07010
3180.5,0.07252
3174.71,0.07464
3168.92,0.07645
3163.14,0.07824
3157.35,0.08026
3151.57,0.08222
3145.78,0.08433
3139.99,0.08613
3134.21,0.08819
3128.42,0.08962
3122.63,0.09176
3116.85,0.09259
3111.06,0.09463
3105.28,0.09608
3099.49,0.09750
3093.7,0.09846
3087.92,0.09987
3082.13,0.10111
3076.34,0.10193
3070.56,0.10324
3064.77,0.10448
3058.99,0.10570
3053.2,0.10719
3047.41,0.10829
3041.63,0.10894
3035.84,0.11021
3030.05,0.10949
3024.27,0.11020
3018.48,0.10935
3012.7,0.10809
3006.91,0.10602
3001.12,0.10403
2995.34,0.10367
2989.55,0.10152
2983.76,0.09768
2977.98,0.09207
2972.19,0.08500
2966.41,0.07973
2960.62,0.07745
2954.83,0.07483
2949.05,0.07184
2943.26,0.06992
2937.47,0.06859
2931.69,0.06910
2925.9,0.06927
2920.12,0.06785
2914.33,0.06847
2908.54,0.06982
2902.76,0.07072
2896.97,0.07236
2891.18,0.07344
2885.4,0.07469
2879.61,0.07611
2873.83,0.07687
2868.04,0.07768
2862.25,0.08011
2856.47,0.08225
2850.68,0.08314
2844.9,0.08816
2839.11,0.09470
2833.32,0.10194
2827.54,0.10905
2821.75,0.11589
2815.96,0.12268
2810.18,0.12760
2804.39,0.13216
2798.61,0.13593
2792.82,0.13927
2787.03,0.14167
2781.25,0.14399
2775.46,0.14596
2769.67,0.14752
2763.89,0.14877
2758.1,0.14990
2752.32,0.15110
2746.53,0.15123
2740.74,0.15190
2734.96,0.15163
2729.17,0.15367
2723.38,0.15509
2717.6,0.15719
2711.81,0.15908
2706.03,0.16188
2700.24,0.16415
2694.45,0.16659
2688.67,0.16927
2682.88,0.17158
2677.09,0.17389
2671.31,0.17619
2665.52,0.17753
2659.74,0.17854
2653.95,0.18031
2648.16,0.18216
2642.38,0.18392
2636.59,0.18615
2630.8,0.18824
2625.02,0.19063
2619.23,0.19286
2613.45,0.19500
2607.66,0.19618
2601.87,0.19825
2596.09,0.20004
2590.3,0.20189
2584.51,0.20337
2578.73,0.20510
2572.94,0.20598
2567.16,0.20646
2561.37,0.20751
2555.58,0.20924
2549.8,0.20979
2544.01,0.21084
2538.23,0.21188
2532.44,0.21375
2526.65,0.21613
2520.87,0.21758
2515.08,0.21901
2509.29,0.22152
2503.51,0.22468
2497.72,0.22814
2491.94,0.23121
2486.15,0.23392
2480.36,0.23597
2474.58,0.23824
2468.79,0.24051
2463,0.24223
2457.22,0.24388
2451.43,0.24626
2445.65,0.24855
2439.86,0.25137
2434.07,0.25396
2428.29,0.25717
2422.5,0.26092
2416.71,0.26400
2410.93,0.26803
2405.14,0.27168
2399.36,0.27493
2393.57,0.27818
2387.78,0.28081
2382,0.28390
2376.21,0.28625
2370.42,0.28851
2364.64,0.29012
2358.85,0.29288
2353.07,0.29491
2347.28,0.29718
2341.49,0.29905
2335.71,0.30003
2329.92,0.30099
2324.13,0.30220
2318.35,0.30274
2312.56,0.30332
2306.78,0.30335
2300.99,0.30270
2295.2,0.30268
2289.42,0.30259
2283.63,0.30260
2277.84,0.30205
2272.06,0.30060
2266.27,0.29879
2260.49,0.29678
2254.7,0.29481
2248.91,0.29267
2243.13,0.29189
2237.34,0.29088
2231.56,0.29137
2225.77,0.29169
2219.98,0.29239
2214.2,0.29293
2208.41,0.29256
2202.62,0.29117
2196.84,0.28925
2191.05,0.28624
2185.27,0.28283
2179.48,0.27907
2173.69,0.27509
2167.91,0.27129
2162.12,0.26830
2156.33,0.26640
2150.55,0.26458
2144.76,0.26364
2138.98,0.26289
2133.19,0.26311
2127.4,0.26359
2121.62,0.26492
2115.83,0.26613
2110.04,0.26699
2104.26,0.26874
2098.47,0.26998
2092.69,0.27168
2086.9,0.27255
2081.11,0.27244
2075.33,0.27094
2069.54,0.26980
2063.75,0.26910
2057.97,0.26877
2052.18,0.26901
2046.4,0.27023
2040.61,0.27198
2034.82,0.27436
2029.04,0.27718
2023.25,0.28078
2017.46,0.28470
2011.68,0.28785
2005.89,0.29063
2000.11,0.29205
1994.32,0.29423
1988.53,0.29601
1982.75,0.29709
1976.96,0.29768
1971.17,0.29812
1965.39,0.29824
1959.6,0.29847
1953.82,0.29934
1948.03,0.30144
1942.24,0.30455
1936.46,0.30791
1930.67,0.31154
1924.89,0.31439
1919.1,0.31639
1913.31,0.31836
1907.53,0.31847
1901.74,0.31836
1895.95,0.31803
1890.17,0.31744
1884.38,0.31625
1878.6,0.31512
1872.81,0.31361
1867.02,0.31175
1861.24,0.30980
1855.45,0.30765
1849.66,0.30478
1843.88,0.30169
1838.09,0.29808
1832.31,0.29397
1826.52,0.28917
1820.73,0.28350
1814.95,0.27682
1809.16,0.26932
1803.37,0.26082
1797.59,0.25094
1791.8,0.24052
1786.02,0.22781
1780.23,0.21134
1774.44,0.18896
1768.66,0.15767
1762.87,0.12687
1757.08,0.10324
1751.3,0.08959
1745.51,0.08078
1739.73,0.07747
1733.94,0.07811
1728.15,0.08245
1722.37,0.08767
1716.58,0.09038
1710.79,0.08904
1705.01,0.08405
1699.22,0.07564
1693.44,0.06551
1687.65,0.05718
1681.86,0.05019
1676.08,0.04633
1670.29,0.04570
1664.5,0.04593
1658.72,0.04730
1652.93,0.05048
1647.15,0.05264
1641.36,0.05438
1635.57,0.05470
1629.79,0.05441
1624,0.05506
1618.21,0.05580
1612.43,0.05603
1606.64,0.05586
1600.86,0.05614
1595.07,0.05659
1589.28,0.06068
1583.5,0.06913
1577.71,0.07772
1571.93,0.08420
1566.14,0.08622
1560.35,0.08568
1554.57,0.08300
1548.78,0.08143
1542.99,0.07949
1537.21,0.07714
1531.42,0.07423
1525.64,0.06947
1519.85,0.06023
1514.06,0.05360
1508.28,0.05252
1502.49,0.05514
1496.7,0.06099
1490.92,0.06610
1485.13,0.06687
1479.35,0.06245
1473.56,0.05485
1467.77,0.04918
1461.99,0.04873
1456.2,0.05018
1450.41,0.05191
1444.63,0.05373
1438.84,0.05322
1433.06,0.05088
1427.27,0.05019
1421.48,0.05211
1415.7,0.05589
1409.91,0.05937
1404.12,0.06065
1398.34,0.05990
1392.55,0.05784
1386.77,0.05384
1380.98,0.04987
1375.19,0.04852
1369.41,0.04948
1363.62,0.05149
1357.83,0.05302
1352.05,0.05363
1346.26,0.05327
1340.48,0.05132
1334.69,0.05031
1328.9,0.05006
1323.12,0.05095
1317.33,0.05247
1311.54,0.05473
1305.76,0.05672
1299.97,0.05791
1294.19,0.05645
1288.4,0.05375
1282.61,0.05085
1276.83,0.04937
1271.04,0.04777
1265.26,0.04774
1259.47,0.04807
1253.68,0.04777
1247.9,0.04702
1242.11,0.04665
1236.32,0.04658
1230.54,0.04738
1224.75,0.04896
1218.97,0.05084
1213.18,0.05189
1207.39,0.05257
1201.61,0.05267
1195.82,0.05340
1190.03,0.05164
1184.25,0.04840
1178.46,0.04376
1172.68,0.03936
1166.89,0.03963
1161.1,0.04302
1155.32,0.04516
1149.53,0.04529
1143.74,0.04366
1137.96,0.04041
1132.17,0.03787
1126.39,0.03868
1120.6,0.04102
1114.81,0.04230
1109.03,0.04426
1103.24,0.04605
1097.45,0.04524
1091.67,0.04383
1085.88,0.04246
1080.1,0.04288
1074.31,0.04486
1068.52,0.04859
1062.74,0.05402
1056.95,0.05903
1051.16,0.06130
1045.38,0.06007
1039.59,0.06151
1033.81,0.06635
1028.02,0.06877
1022.23,0.07093
1016.45,0.07201
1010.66,0.07448
1004.87,0.07619
999.089,0.07876
993.302,0.08069
987.516,0.08648
981.73,0.09547
975.944,0.10229
970.157,0.10680
964.371,0.11102
958.585,0.11866
952.799,0.12662
947.013,0.13166
941.226,0.13327
935.44,0.13334
929.654,0.13284
923.868,0.13279
918.081,0.13076
912.295,0.12631
906.509,0.12160
900.723,0.11486
894.937,0.11611
889.15,0.12286
883.364,0.12740
877.578,0.12897
871.792,0.13017
866.005,0.13107
860.219,0.13026
854.433,0.12819
848.647,0.12695
842.86,0.12601
837.074,0.12401
831.288,0.12202
825.502,0.12134
819.716,0.12104
813.929,0.12113
808.143,0.12024
802.357,0.12067
796.571,0.11959
790.784,0.11705
784.998,0.11506
779.212,0.11242
773.426,0.11015
767.64,0.10721
761.853,0.10439
756.067,0.10034
750.281,0.09625
744.495,0.09340
738.708,0.09219
732.922,0.08914
727.136,0.08577
721.35,0.08274
715.563,0.08198
709.777,0.08119
703.991,0.08045
698.205,0.07970
692.419,0.07932
686.632,0.07692
680.846,0.07408
675.06,0.07176
669.274,0.06991
663.487,0.07239
657.701,0.07245
651.915,0.07118
646.129,0.06965
640.343,0.06935
634.556,0.06744
628.77,0.06643
622.984,0.06424
617.198,0.06426
611.411,0.06597
605.625,0.06741
599.839,0.06988