File: 01_Data/PLA_3D_Printer_Filament/STA/N2/30K_min/PLA_STA_N2_30KData_220504_R2.csv
##Temp./Â°C,Time/min,Mass loss(subtr.2)/mg,DSC(subtr.2)/(mW/mg),Sensit./(uV/mW)
48.625,10.00667,-0.01196,0.006451935,1.075
49.225,10.53329,-0.01172738,0.04497331,1.07474
49.825,10.65283,-0.01249004,0.08270603,1.07447
50.425,10.73713,-0.01221912,0.11284,1.07421
51.025,10.80607,-0.01091992,0.14388,1.07394
51.625,10.86578,-0.01233293,0.17011,1.07368
52.225,10.91876,-0.01038804,0.19592,1.07341
52.825,10.96678,-0.01053393,0.22124,1.07314
53.425,11.01158,-0.01082418,0.24366,1.07288
54.025,11.0535,-0.01206671,0.26659,1.07261
54.625,11.09292,-0.01122399,0.28702,1.07234
55.225,11.13049,-0.01099522,0.3082,1.07207
55.825,11.1663,-0.01125995,0.32775,1.07181
56.425,11.20067,-0.01123471,0.34879,1.07154
57.025,11.2339,-0.01167483,0.36639,1.07127
57.625,11.26657,-0.01141081,0.38527,1.071
58.225,11.298,-0.01076923,0.40456,1.07073
58.825,11.32837,-0.01171052,0.41966,1.07046
59.425,11.3581,-0.01093025,0.43804,1.07018
60.025,11.38743,-0.01221823,0.45716,1.06991
60.625,11.41601,-0.01102681,0.47644,1.06964
61.225,11.44368,-0.01117005,0.49318,1.06937
61.825,11.47109,-0.01098897,0.51369,1.0691
62.425,11.49809,-0.01068657,0.53857,1.06882
63.025,11.5248,-0.01130191,0.56467,1.06855
63.625,11.551,-0.01109421,0.59647,1.06828
64.225,11.57691,-0.01082954,0.63702,1.068
64.825,11.60243,-0.01159397,0.693,1.06773
65.425,11.62759,-0.01212308,0.75601,1.06745
66.025,11.65238,-0.01121659,0.82234,1.06718
66.625,11.67715,-0.009943265,0.87944,1.0669
67.225,11.7018,-0.01058959,0.91451,1.06663
67.825,11.7263,-0.01132002,0.92393,1.06635
68.425,11.75037,-0.01137406,0.91808,1.06607
69.025,11.77421,-0.01089082,0.9103,1.06579
69.625,11.7979,-0.01021183,0.8998,1.06552
70.225,11.8215,-0.009607817,0.88733,1.06524
70.825,11.84494,-0.00930668,0.87864,1.06496
71.425,11.8681,-0.009253144,0.87287,1.06468
72.025,11.8909,-0.009641482,0.8674,1.0644
72.625,11.91382,-0.0096638,0.86211,1.06412
73.225,11.9366,-0.00958122,0.85956,1.06384
73.825,11.95941,-0.009793337,0.85468,1.06356
74.425,11.98203,-0.01053411,0.85304,1.06328
75.025,12.00451,-0.01029316,0.84963,1.063
75.625,12.02684,-0.01022683,0.85077,1.06272
76.225,12.04899,-0.01051913,0.85031,1.06244
76.825,12.07103,-0.01084846,0.84915,1.06215
77.425,12.0931,-0.01185128,0.84926,1.06187
78.025,12.115,-0.01169754,0.84976,1.06159
78.625,12.13697,-0.01133246,0.84935,1.0613
79.225,12.15884,-0.01030098,0.85006,1.06102
79.825,12.18056,-0.01136861,0.85172,1.06074
80.425,12.2022,-0.0102586,0.85166,1.06045
81.025,12.22367,-0.01032476,0.85325,1.06017
81.625,12.2451,-0.009971546,0.85283,1.05988
82.225,12.26655,-0.00976007,0.85092,1.0596
82.825,12.28797,-0.0102845,0.85385,1.05931
83.425,12.30904,-0.01025259,0.85108,1.05902
84.025,12.33026,-0.01071981,0.85075,1.05874
84.625,12.3513,-0.0101861,0.84849,1.05845
85.225,12.37245,-0.00990373,0.84937,1.05816
85.825,12.39367,-0.00987408,0.84244,1.05787
86.425,12.4146,-0.009961756,0.83881,1.05759
87.025,12.43564,-0.01148788,0.83394,1.0573
87.625,12.4565,-0.01015754,0.82895,1.05701
88.225,12.4772,-0.01144188,0.82061,1.05672
88.825,12.49767,-0.01138237,0.8129,1.05643
89.425,12.5182,-0.01055827,0.80048,1.05614
90.025,12.5388,-0.01128948,0.79042,1.05585
90.625,12.55927,-0.01038335,0.77584,1.05556
91.225,12.57982,-0.01129227,0.76256,1.05527
91.825,12.6004,-0.01058057,0.7456,1.05497
92.425,12.6211,-0.009857125,0.73042,1.05468
93.025,12.64178,-0.01006331,0.71405,1.05439
93.625,12.6623,-0.009646855,0.69636,1.0541
94.225,12.68263,-0.00957417,0.67885,1.0538
94.825,12.70297,-0.008311913,0.66093,1.05351
95.425,12.7233,-0.00832907,0.64352,1.05322
96.025,12.74362,-0.008451345,0.62511,1.05292
96.625,12.76394,-0.0096667,0.60823,1.05263
97.225,12.78422,-0.009582943,0.59088,1.05233
97.825,12.80456,-0.0098342,0.57854,1.05204
98.425,12.82483,-0.009657354,0.56444,1.05174
99.025,12.8451,-0.00966389,0.55433,1.05145
99.625,12.86537,-0.01053537,0.54637,1.05115
100.225,12.88578,-0.009667162,0.53992,1.05085
100.825,12.90615,-0.009655432,0.53431,1.05056
101.425,12.92637,-0.01095506,0.53487,1.05026
102.025,12.94643,-0.01098045,0.53727,1.04996
102.625,12.96647,-0.009647584,0.54137,1.04966
103.225,12.98658,-0.009646362,0.54726,1.04937
103.825,13.0067,-0.01030039,0.55888,1.04907
104.425,13.0269,-0.00964934,0.56982,1.04877
105.025,13.04712,-0.009649992,0.58432,1.04847
105.625,13.06731,-0.009652383,0.60019,1.04817
106.225,13.08733,-0.01039228,0.61885,1.04787
106.825,13.10713,-0.01060017,0.63834,1.04757
107.425,13.12718,-0.009661846,0.65832,1.04727
108.025,13.1472,-0.01097775,0.67945,1.04697
108.625,13.1677,-0.01096975,0.7004,1.04667
109.225,13.18803,-0.01097001,0.72001,1.04636
109.825,13.2081,-0.01097001,0.73785,1.04606
110.425,13.2282,-0.01096941,0.75797,1.04576
111.025,13.24821,-0.01100491,0.77486,1.04546
111.625,13.2682,-0.01181916,0.78902,1.04515
112.225,13.28825,-0.01097398,0.80169,1.04485
112.825,13.3082,-0.01096989,0.81527,1.04455
113.425,13.32818,-0.01097167,0.82703,1.04424
114.025,13.3483,-0.01086903,0.84063,1.04394
114.625,13.3684,-0.009636204,0.85122,1.04363
115.225,13.3884,-0.01101726,0.86372,1.04333
115.825,13.4084,-0.01096909,0.87441,1.04302
116.425,13.42835,-0.01097002,0.88508,1.04272
117.025,13.4483,-0.01096982,0.89649,1.04241
117.625,13.4683,-0.01097934,0.90595,1.0421
118.225,13.48821,-0.009861431,0.91789,1.0418
118.825,13.50813,-0.009648258,0.92619,1.04149
119.425,13.52808,-0.009682972,0.93586,1.04118
120.025,13.5479,-0.01098461,0.94578,1.04087
120.625,13.56781,-0.01096854,0.95252,1.04057
121.225,13.5876,-0.01102399,0.95953,1.04026
121.825,13.6075,-0.01227285,0.96752,1.03995
122.425,13.62742,-0.01223904,0.97908,1.03964
123.025,13.64724,-0.01097582,0.98494,1.03933
123.625,13.6671,-0.01096991,0.9929,1.03902
124.225,13.6868,-0.01097,0.99869,1.03871
124.825,13.7066,-0.01097,1.00653,1.0384
125.425,13.72625,-0.01097,1.01384,1.03809
126.025,13.74594,-0.01097,1.02054,1.03778
126.625,13.7656,-0.01097007,1.02553,1.03747
127.225,13.78531,-0.01096585,1.03214,1.03715
127.825,13.80509,-0.01149821,1.038,1.03684
128.425,13.82475,-0.01142161,1.04692,1.03653
129.025,13.84445,-0.01097461,1.05353,1.03622
129.625,13.8641,-0.0109699,1.05904,1.0359
130.225,13.88362,-0.01097,1.06277,1.03559
130.825,13.9032,-0.01097,1.0693,1.03528
131.425,13.9227,-0.01097,1.07709,1.03496
132.025,13.9422,-0.01097,1.08065,1.03465
132.625,13.96175,-0.01097005,1.08902,1.03433
133.225,13.9813,-0.01096819,1.09396,1.03402
133.825,14.00075,-0.01102156,1.09928,1.0337
134.425,14.0203,-0.01094547,1.10208,1.03339
135.025,14.0398,-0.01095973,1.10772,1.03307
135.625,14.0592,-0.01096002,1.11272,1.03276
136.225,14.0787,-0.01095972,1.11533,1.03244
136.825,14.098,-0.0109774,1.11839,1.03212
137.425,14.1174,-0.009725068,1.12409,1.03181
138.025,14.13679,-0.00964853,1.12962,1.03149
138.625,14.1561,-0.00966158,1.13215,1.03117
139.225,14.1755,-0.01057163,1.14035,1.03085
139.825,14.1948,-0.01097311,1.14395,1.03053
140.425,14.21396,-0.01096997,1.14666,1.03022
141.025,14.2332,-0.01097,1.15441,1.0299
141.625,14.25247,-0.01097,1.15832,1.02958
142.225,14.2717,-0.01097,1.16375,1.02926
142.825,14.291,-0.01097,1.16952,1.02894
143.425,14.3101,-0.01097,1.17498,1.02862
144.025,14.32911,-0.01096998,1.1795,1.0283
144.625,14.34818,-0.01097062,1.18511,1.02798
145.225,14.3674,-0.01095625,1.18977,1.02766
145.825,14.38672,-0.009649078,1.19535,1.02733
146.425,14.40608,-0.00964977,1.20236,1.02701
147.025,14.4253,-0.009651435,1.20359,1.02669
147.625,14.4444,-0.009560917,1.20593,1.02637
148.225,14.4635,-0.01151114,1.20991,1.02604
148.825,14.4825,-0.01163172,1.21225,1.02572
149.425,14.50155,-0.01162997,1.2149,1.0254
150.025,14.5206,-0.01162998,1.21731,1.02508
150.625,14.5396,-0.01162956,1.22221,1.02475
151.225,14.5586,-0.01185506,1.22789,1.02443
151.825,14.57758,-0.01295416,1.236,1.0241
152.425,14.5965,-0.01293964,1.24607,1.02378
153.025,14.61546,-0.01294001,1.25984,1.02345
153.625,14.6345,-0.01293998,1.27374,1.02313
154.225,14.65359,-0.01294025,1.29262,1.0228
154.825,14.67254,-0.01296919,1.31458,1.02248
155.425,14.6916,-0.01159273,1.33968,1.02215
156.025,14.71054,-0.01162083,1.36826,1.02182
156.625,14.7294,-0.01161998,1.40003,1.0215
157.225,14.7485,-0.01162,1.43423,1.02117
157.825,14.7675,-0.01162,1.47713,1.02084
158.425,14.7865,-0.01162,1.5246,1.02051
159.025,14.80541,-0.01162095,1.57584,1.02019
159.625,14.82421,-0.01147398,1.63685,1.01986
160.225,14.84304,-0.0106554,1.70119,1.01953
160.825,14.862,-0.01063971,1.77578,1.0192
161.425,14.8811,-0.01064001,1.85469,1.01887
162.025,14.9002,-0.01063994,1.94468,1.01854
162.625,14.9192,-0.01062925,2.03558,1.01821
163.225,14.93816,-0.01191407,2.13361,1.01788
163.825,14.95708,-0.01196114,2.22703,1.01755
164.425,14.97609,-0.01195999,2.31676,1.01722
165.025,14.99504,-0.01195964,2.38719,1.01689
165.625,15.01399,-0.01196657,2.43472,1.01656
166.225,15.033,-0.01163142,2.45131,1.01623
166.825,15.0519,-0.01061486,2.43417,1.0159
167.425,15.07086,-0.01064087,2.38409,1.01556
168.025,15.08975,-0.01063998,2.30696,1.01523
168.625,15.10864,-0.01064,2.21088,1.0149
169.225,15.1275,-0.01064,2.11828,1.01457
169.825,15.14631,-0.01064,2.0298,1.01423
170.425,15.16523,-0.01064,1.9481,1.0139
171.025,15.184,-0.01064,1.87614,1.01357
171.625,15.20279,-0.01064,1.81191,1.01323
172.225,15.2215,-0.01064,1.75563,1.0129
172.825,15.2402,-0.01064,1.70464,1.01256
173.425,15.25888,-0.01064027,1.66111,1.01223
174.025,15.2775,-0.01062066,1.62062,1.01189
174.625,15.29623,-0.01183099,1.58469,1.01156
175.225,15.31484,-0.01196114,1.55368,1.01122
175.825,15.3335,-0.01196,1.52679,1.01089
176.425,15.3521,-0.01196,1.50335,1.01055
177.025,15.3707,-0.01196,1.47869,1.01022
177.625,15.38931,-0.01196,1.46074,1.00988
178.225,15.40787,-0.01196,1.44232,1.00954
178.825,15.42631,-0.01196,1.42708,1.0092
179.425,15.44465,-0.01196,1.41402,1.00887
180.025,15.46291,-0.01196,1.40313,1.00853
180.625,15.48127,-0.01196,1.39356,1.00819
181.225,15.4998,-0.01196,1.38492,1.00785
181.825,15.5185,-0.01196,1.37791,1.00751
182.425,15.5372,-0.01196,1.37001,1.00718
183.025,15.55585,-0.01196,1.36407,1.00684
183.625,15.57434,-0.01195999,1.35641,1.0065
184.225,15.5928,-0.01195989,1.35368,1.00616
184.825,15.61118,-0.01197366,1.349,1.00582
185.425,15.62951,-0.01295954,1.34395,1.00548
186.025,15.64789,-0.01327282,1.3434,1.00514
186.625,15.66624,-0.01327003,1.34179,1.0048
187.225,15.68462,-0.01327,1.33798,1.00446
187.825,15.70302,-0.01327,1.33691,1.00411
188.425,15.7214,-0.01327,1.33434,1.00377
189.025,15.73984,-0.01327,1.33476,1.00343
189.625,15.7582,-0.01327,1.33295,1.00309
190.225,15.77655,-0.01327,1.33209,1.00275
190.825,15.7949,-0.01327,1.33247,1.0024
191.425,15.8133,-0.01327,1.33029,1.00206
192.025,15.83164,-0.01327093,1.33163,1.00172
192.625,15.85,-0.01322043,1.33168,1.00138
193.225,15.86834,-0.01462544,1.33218,1.00103
193.825,15.88662,-0.01458004,1.3323,1.00069
194.425,15.90496,-0.01457997,1.33361,1.00034
195.025,15.9233,-0.01458,1.33446,1.0
195.625,15.94161,-0.01458008,1.33612,0.99966
196.225,15.96,-0.01457996,1.33607,0.99931
196.825,15.97831,-0.01432985,1.33586,0.99897
197.425,15.9966,-0.01425765,1.3367,0.99862
198.025,16.01485,-0.01426008,1.33645,0.99827
198.625,16.03311,-0.01426022,1.33893,0.99793
199.225,16.0514,-0.01408331,1.33787,0.99758
199.825,16.0697,-0.01329582,1.34009,0.99724
200.425,16.08795,-0.01327975,1.34349,0.99689
201.025,16.10611,-0.01328,1.34187,0.99654
201.625,16.1242,-0.01328,1.34355,0.9962
202.225,16.14245,-0.01328,1.34529,0.99585
202.825,16.16074,-0.01328,1.34591,0.9955
203.425,16.17908,-0.01328,1.34698,0.99515
204.025,16.19746,-0.01328,1.34905,0.9948
204.625,16.21568,-0.01327982,1.3504,0.99446
205.225,16.2339,-0.01328216,1.3506,0.99411
205.825,16.2521,-0.01378072,1.35026,0.99376
206.425,16.27042,-0.01469924,1.35328,0.99341
207.025,16.2886,-0.01555462,1.35339,0.99306
207.625,16.3068,-0.01557004,1.35382,0.99271
208.225,16.32509,-0.01557001,1.35843,0.99236
208.825,16.34331,-0.01557,1.35624,0.99201
209.425,16.36156,-0.01557,1.36015,0.99166
210.025,16.3798,-0.01557,1.36198,0.99131
210.625,16.39791,-0.01557,1.36164,0.99096
211.225,16.4161,-0.01557,1.36257,0.99061
211.825,16.43429,-0.01556995,1.36392,0.99026
212.425,16.4525,-0.01556847,1.36256,0.98991
213.025,16.4707,-0.01577566,1.36489,0.98955
213.625,16.4889,-0.01590254,1.36649,0.9892
214.225,16.50708,-0.01589998,1.36842,0.98885
214.825,16.52533,-0.0159,1.36827,0.9885
215.425,16.54355,-0.0159,1.36741,0.98814
216.025,16.56175,-0.0159,1.37166,0.98779
216.625,16.58,-0.0159,1.37106,0.98744
217.225,16.59818,-0.0159,1.37206,0.98708
217.825,16.61635,-0.01590006,1.37338,0.98673
218.425,16.63456,-0.01589866,1.37426,0.98638
219.025,16.65269,-0.01587514,1.37715,0.98602
219.625,16.67088,-0.01725821,1.37698,0.98567
220.225,16.68906,-0.017219,1.37707,0.98531
220.825,16.70721,-0.01722001,1.3797,0.98496
221.425,16.72537,-0.01722,1.37964,0.9846
222.025,16.74351,-0.01722,1.38195,0.98425
222.625,16.76171,-0.01722,1.38407,0.98389
223.225,16.77985,-0.01722,1.38234,0.98354
223.825,16.79797,-0.01722001,1.38398,0.98318
224.425,16.81615,-0.01721943,1.38566,0.98283
225.025,16.8342,-0.01722879,1.388,0.98247
225.625,16.8524,-0.01688088,1.38852,0.98211
226.225,16.87059,-0.01689056,1.38891,0.98176
226.825,16.88866,-0.01688999,1.38907,0.9814
227.425,16.90684,-0.01689,1.3918,0.98104
228.025,16.92494,-0.01689,1.39143,0.98068
228.625,16.94308,-0.01689,1.39272,0.98033
229.225,16.96126,-0.01689,1.39338,0.97997
229.825,16.9794,-0.01689,1.39259,0.97961
230.425,16.99758,-0.01689002,1.39425,0.97925
231.025,17.01568,-0.01688919,1.39529,0.97889
231.625,17.03385,-0.01689828,1.39517,0.97853
232.225,17.05195,-0.01788379,1.39746,0.97817
232.825,17.0701,-0.01856261,1.39707,0.97781
233.425,17.0883,-0.01853958,1.39888,0.97745
234.025,17.10641,-0.01854,1.39811,0.97709
234.625,17.1246,-0.01854,1.39965,0.97673
235.225,17.14274,-0.01854,1.40123,0.97637
235.825,17.16084,-0.01854,1.40246,0.97601
236.425,17.17896,-0.01853998,1.40363,0.97565
237.025,17.19709,-0.01854132,1.403,0.97529
237.625,17.21521,-0.01850015,1.40418,0.97493
238.225,17.23317,-0.01920286,1.40633,0.97457
238.825,17.25114,-0.0191991,1.40804,0.97421
239.425,17.26922,-0.01920003,1.40692,0.97385
240.025,17.28739,-0.0192,1.40741,0.97348
240.625,17.3057,-0.0192,1.41149,0.97312
241.225,17.3239,-0.0192,1.41213,0.97276
241.825,17.34204,-0.0192,1.41001,0.9724
242.425,17.36009,-0.0192,1.41102,0.97203
243.025,17.37827,-0.0192,1.41319,0.97167
243.625,17.3964,-0.0192,1.41076,0.97131
244.225,17.41453,-0.0192,1.41158,0.97094
244.825,17.4327,-0.0192,1.41327,0.97058
245.425,17.4506,-0.0192,1.4129,0.97022
246.025,17.46876,-0.01919987,1.41396,0.96985
246.625,17.48684,-0.01920047,1.41273,0.96949
247.225,17.50491,-0.01960206,1.41393,0.96912
247.825,17.5231,-0.02081685,1.41484,0.96876
248.425,17.54115,-0.02084034,1.41563,0.96839
249.025,17.55925,-0.02084001,1.41864,0.96803
249.625,17.57734,-0.02084,1.41809,0.96766
250.225,17.59544,-0.02084,1.41843,0.9673
250.825,17.6136,-0.02084,1.41972,0.96693
251.425,17.63164,-0.02084,1.41921,0.96656
252.025,17.64975,-0.02084,1.4209,0.9662
252.625,17.66787,-0.02084,1.41971,0.96583
253.225,17.68599,-0.02084,1.42235,0.96546
253.825,17.70417,-0.02084,1.42077,0.9651
254.425,17.72233,-0.02084,1.42063,0.96473
255.025,17.74045,-0.02084,1.4213,0.96436
255.625,17.7586,-0.02084,1.42109,0.96399
256.225,17.77665,-0.02084,1.4249,0.96363
256.825,17.7947,-0.02084,1.42243,0.96326
257.425,17.8128,-0.02084,1.42585,0.96289
258.025,17.83087,-0.0208395,1.42608,0.96252
258.625,17.84901,-0.02085824,1.42469,0.96215
259.225,17.86711,-0.02017095,1.42723,0.96178
259.825,17.8852,-0.02017925,1.42407,0.96141
260.425,17.90325,-0.02017659,1.424,0.96105
261.025,17.92127,-0.02025661,1.42512,0.96068
261.625,17.93931,-0.0215096,1.42472,0.96031
262.225,17.95737,-0.02149923,1.4273,0.95994
262.825,17.97546,-0.02150002,1.42829,0.95957
263.425,17.9936,-0.0215,1.42768,0.9592
264.025,18.01165,-0.0215,1.42808,0.95883
264.625,18.0297,-0.0215,1.42841,0.95845
265.225,18.04782,-0.0215,1.42957,0.95808
265.825,18.0659,-0.02150005,1.42968,0.95771
266.425,18.084,-0.02149492,1.42836,0.95734
267.025,18.10213,-0.02169125,1.4304,0.95697
267.625,18.12021,-0.02216089,1.43094,0.9566
268.225,18.1383,-0.02216019,1.43226,0.95623
268.825,18.15636,-0.02215999,1.43266,0.95585
269.425,18.1744,-0.02216,1.4321,0.95548
270.025,18.1925,-0.02216,1.43322,0.95511
270.625,18.2106,-0.02216,1.43253,0.95474
271.225,18.22876,-0.02215983,1.43357,0.95436
271.825,18.2469,-0.02216087,1.43387,0.95399
272.425,18.265,-0.02261126,1.43401,0.95362
273.025,18.28306,-0.02345673,1.43559,0.95324
273.625,18.30116,-0.02347019,1.43368,0.95287
274.225,18.31924,-0.02347,1.43545,0.9525
274.825,18.33738,-0.02347,1.43537,0.95212
275.425,18.3555,-0.02347,1.43555,0.95175
276.025,18.37363,-0.02347,1.43837,0.95137
276.625,18.3917,-0.02347,1.43852,0.951
277.225,18.40982,-0.02347,1.43873,0.95062
277.825,18.42791,-0.02347007,1.43754,0.95025
278.425,18.44602,-0.02347122,1.44205,0.94987
279.025,18.46421,-0.02325487,1.44092,0.9495
279.625,18.48226,-0.02313747,1.44287,0.94912
280.225,18.5003,-0.02314001,1.44366,0.94875
280.825,18.51837,-0.02314,1.44285,0.94837
281.425,18.53641,-0.02314,1.44457,0.948
282.025,18.5546,-0.02314,1.44391,0.94762
282.625,18.57271,-0.02314,1.44706,0.94724
283.225,18.59088,-0.02314,1.44566,0.94687
283.825,18.60901,-0.02314,1.44773,0.94649
284.425,18.62708,-0.02314001,1.44699,0.94611
285.025,18.6452,-0.02314085,1.44587,0.94573
285.625,18.66329,-0.02309174,1.44933,0.94536
286.225,18.6814,-0.02450306,1.44854,0.94498
286.825,18.6996,-0.02446041,1.45098,0.9446
287.425,18.71772,-0.02445995,1.4488,0.94422
288.025,18.7359,-0.02446,1.45146,0.94385
288.625,18.754,-0.02446001,1.45163,0.94347
289.225,18.77205,-0.02446029,1.45293,0.94309
289.825,18.7901,-0.02444173,1.45514,0.94271
290.425,18.80811,-0.02556153,1.45677,0.94233
291.025,18.82612,-0.02577927,1.4552,0.94195
291.625,18.84433,-0.02578007,1.45679,0.94157
292.225,18.86257,-0.02578,1.45854,0.94119
292.825,18.8808,-0.02578,1.45727,0.94081
293.425,18.89902,-0.02578,1.45999,0.94043
294.025,18.91722,-0.02578,1.46107,0.94005
294.625,18.93518,-0.02578,1.46257,0.93967
295.225,18.9533,-0.02578,1.46307,0.93929
295.825,18.97149,-0.02578,1.46411,0.93891
296.425,18.98959,-0.02577992,1.4671,0.93853
297.025,19.00789,-0.02578179,1.4715,0.93815
297.625,19.02607,-0.02606108,1.47201,0.93777
298.225,19.04424,-0.0271041,1.47455,0.93739
298.825,19.06236,-0.02708698,1.47494,0.93701
299.425,19.08045,-0.02711328,1.47689,0.93662
300.025,19.09864,-0.02843092,1.47686,0.93624
300.625,19.1168,-0.02840908,1.47967,0.93586
301.225,19.13496,-0.02840989,1.48514,0.93548
301.825,19.15315,-0.02840944,1.48878,0.9351
302.425,19.1713,-0.02882125,1.4916,0.93471
303.025,19.1894,-0.02971632,1.49406,0.93433
303.625,19.2076,-0.02972921,1.49647,0.93395
304.225,19.22574,-0.02969774,1.50037,0.93356
304.825,19.2439,-0.03108299,1.50149,0.93318
305.425,19.26209,-0.03103886,1.50597,0.9328
306.025,19.2803,-0.03104091,1.51034,0.93241
306.625,19.2985,-0.03149641,1.51708,0.93203
307.225,19.31663,-0.0333945,1.52011,0.93165
307.825,19.33478,-0.03334762,1.52546,0.93126
308.425,19.35299,-0.03333551,1.52793,0.93088
309.025,19.37114,-0.03469326,1.52966,0.93049
309.625,19.38936,-0.03465793,1.5326,0.93011
310.225,19.4076,-0.03467982,1.53684,0.92972
310.825,19.42574,-0.03596053,1.53689,0.92934
311.425,19.44391,-0.03598084,1.53755,0.92895
312.025,19.46204,-0.03598863,1.53863,0.92857
312.625,19.48021,-0.03666666,1.5368,0.92818
313.225,19.49842,-0.0372929,1.53649,0.9278
313.825,19.51665,-0.03733192,1.53262,0.92741
314.425,19.5349,-0.03701506,1.53007,0.92703
315.025,19.55305,-0.03827547,1.52787,0.92664
315.625,19.57123,-0.03803569,1.52672,0.92625
316.225,19.5895,-0.03924592,1.52398,0.92587
316.825,19.60776,-0.03959972,1.52261,0.92548
317.425,19.62596,-0.04069295,1.52063,0.92509
318.025,19.64421,-0.04107436,1.5207,0.92471
318.625,19.66228,-0.04177091,1.52346,0.92432
319.225,19.68044,-0.04293679,1.52333,0.92393
319.825,19.6986,-0.04354461,1.52409,0.92354
320.425,19.7168,-0.04486948,1.52376,0.92316
321.025,19.7351,-0.04613118,1.52458,0.92277
321.625,19.7533,-0.04640005,1.52875,0.92238
322.225,19.77161,-0.04786533,1.5336,0.92199
322.825,19.7898,-0.04815394,1.53643,0.9216
323.425,19.80799,-0.04943584,1.54398,0.92121
324.025,19.82623,-0.05096826,1.55117,0.92083
324.625,19.8445,-0.05095868,1.55729,0.92044
325.225,19.8628,-0.05261903,1.56554,0.92005
325.825,19.88107,-0.052976,1.57307,0.91966
326.425,19.8993,-0.05405863,1.58218,0.91927
327.025,19.91749,-0.05584329,1.59029,0.91888
327.625,19.93573,-0.05775917,1.60135,0.91849
328.225,19.95399,-0.05960397,1.61304,0.9181
328.825,19.9723,-0.06072649,1.62584,0.91771
329.425,19.9905,-0.06175439,1.63686,0.91732
330.025,20.00856,-0.06319781,1.65162,0.91693
330.625,20.02678,-0.0649319,1.66367,0.91654
331.225,20.0451,-0.06653651,1.67823,0.91615
331.825,20.06345,-0.06768037,1.69629,0.91576
332.425,20.0818,-0.06947519,1.71263,0.91537
333.025,20.10013,-0.07164628,1.73084,0.91498
333.625,20.1184,-0.07387314,1.74929,0.91458
334.225,20.13663,-0.07601793,1.7688,0.91419
334.825,20.15493,-0.07793398,1.78501,0.9138
335.425,20.1732,-0.08016826,1.80201,0.91341
336.025,20.19155,-0.08236128,1.82497,0.91302
336.625,20.20988,-0.08476803,1.84766,0.91262
337.225,20.2283,-0.08751986,1.86833,0.91223
337.825,20.24662,-0.09014936,1.89331,0.91184
338.425,20.26492,-0.09326803,1.91572,0.91145
339.025,20.28334,-0.09677449,1.93711,0.91105
339.625,20.3017,-0.09981348,1.96197,0.91066
340.225,20.32005,-0.10344,1.99088,0.91027
340.825,20.33843,-0.10579,2.01489,0.90988
341.425,20.35673,-0.10905,2.03935,0.90948
342.025,20.37509,-0.11212,2.06709,0.90909
342.625,20.39341,-0.11606,2.09659,0.90869
343.225,20.41175,-0.12018,2.12897,0.9083
343.825,20.43015,-0.12433,2.1595,0.90791
344.425,20.4485,-0.12861,2.19461,0.90751
345.025,20.46696,-0.13304,2.23072,0.90712
345.625,20.48538,-0.13745,2.26931,0.90672
346.225,20.50376,-0.14257,2.30663,0.90633
346.825,20.5222,-0.1474,2.34818,0.90593
347.425,20.54056,-0.15307,2.39079,0.90554
348.025,20.55895,-0.15851,2.43541,0.90514
348.625,20.57739,-0.16397,2.47851,0.90475
349.225,20.5958,-0.17001,2.52871,0.90435
349.825,20.61423,-0.17633,2.58032,0.90396
350.425,20.63264,-0.18219,2.63303,0.90356
351.025,20.65113,-0.18851,2.69023,0.90317
351.625,20.66964,-0.19546,2.74745,0.90277
352.225,20.68816,-0.20324,2.79737,0.90238
352.825,20.70674,-0.21139,2.83505,0.90198
353.425,20.72524,-0.21972,2.8841,0.90158
354.025,20.74373,-0.22801,2.94013,0.90119
354.625,20.7622,-0.23652,3.00424,0.90079
355.225,20.7807,-0.24539,3.07469,0.90039
355.825,20.79919,-0.25492,3.14754,0.89999
356.425,20.81765,-0.26436,3.2261,0.8996
357.025,20.83622,-0.2743,3.31273,0.8992
357.625,20.85461,-0.28437,3.39549,0.8988
358.225,20.87323,-0.29521,3.48555,0.89841
358.825,20.8919,-0.30716,3.59016,0.89801
359.425,20.91048,-0.3193,3.70474,0.89761
360.025,20.92923,-0.33209,3.82201,0.89721
360.625,20.94789,-0.34562,3.94064,0.89681
361.225,20.96649,-0.35909,4.05461,0.89642
361.825,20.98508,-0.37284,4.22086,0.89602
362.425,21.00384,-0.38664,4.28866,0.89562
363.025,21.0226,-0.40179,4.27383,0.89522
363.625,21.04137,-0.41942,4.35887,0.89482
364.225,21.06028,-0.43859,4.42714,0.89442
364.825,21.07899,-0.4588,4.52923,0.89402
365.425,21.0977,-0.48033,4.59156,0.89362
366.025,21.11647,-0.50463,4.65671,0.89322
366.625,21.13523,-0.53118,4.71227,0.89282
367.225,21.15403,-0.55847,4.85217,0.89242
367.825,21.17282,-0.58724,5.03191,0.89202
368.425,21.19155,-0.61557,5.17889,0.89162
369.025,21.21031,-0.6458,5.29569,0.89122
369.625,21.22915,-0.67792,5.5262,0.89082
370.225,21.24802,-0.71102,5.85856,0.89042
370.825,21.26696,-0.74563,6.01271,0.89002
371.425,21.28586,-0.78003,6.25992,0.88962
372.025,21.30477,-0.81587,6.46744,0.88922
372.625,21.3237,-0.85471,6.76529,0.88882
373.225,21.34271,-0.89475,7.05015,0.88842
373.825,21.3617,-0.93631,7.27737,0.88802
374.425,21.3807,-0.97877,7.42125,0.88761
375.025,21.3996,-1.02433,7.69571,0.88721
375.625,21.41859,-1.06929,8.05862,0.88681
376.225,21.4377,-1.11551,8.44525,0.88641
376.825,21.4569,-1.16105,8.82193,0.88601
377.425,21.47609,-1.20557,9.19052,0.8856
378.025,21.49531,-1.2588,9.55235,0.8852
378.625,21.51453,-1.34234,9.90027,0.8848
379.225,21.5337,-1.38726,10.2325,0.8844
379.825,21.55303,-1.43596,10.551,0.88399
380.425,21.57239,-1.49407,10.8521,0.88359
381.025,21.5918,-1.55328,11.14355,0.88319
381.625,21.6113,-1.61311,11.42432,0.88279
382.225,21.63073,-1.6736,11.6786,0.88238
382.825,21.6501,-1.73525,11.92618,0.88198
383.425,21.6695,-1.79812,12.16337,0.88157
384.025,21.68894,-1.86292,12.3809,0.88117
384.625,21.70844,-1.92949,12.56953,0.88077
385.225,21.72798,-1.99762,12.7372,0.88036
385.825,21.74748,-2.06617,12.8765,0.87996
386.425,21.76703,-2.1349,12.99365,0.87955
387.025,21.7865,-2.20248,13.08788,0.87915
387.625,21.80592,-2.2703,13.154,0.87875
388.225,21.8253,-2.33869,13.1929,0.87834
388.825,21.84465,-2.40542,13.19975,0.87794
389.425,21.8638,-2.47255,13.18315,0.87753
390.025,21.8829,-2.53855,13.1387,0.87713
390.625,21.90219,-2.60425,13.06593,0.87672
391.225,21.92146,-2.66941,12.96379,0.87632
391.825,21.94081,-2.73409,12.82809,0.87591
392.425,21.96,-2.79777,12.6606,0.8755
393.025,21.97891,-2.85985,12.46089,0.8751
393.625,21.9979,-2.92047,12.22401,0.87469
394.225,22.01672,-2.97909,11.9572,0.87429
394.825,22.0355,-3.03537,11.65285,0.87388
395.425,22.05426,-3.09,11.30415,0.87347
396.025,22.07295,-3.14349,10.91501,0.87307
396.625,22.09157,-3.19537,10.4846,0.87266
397.225,22.11016,-3.24486,10.0076,0.87225
397.825,22.12856,-3.29118,9.49783,0.87185
398.425,22.14687,-3.33531,8.9477,0.87144
399.025,22.16507,-3.3751,8.36645,0.87103
399.625,22.18323,-3.40842,7.7525,0.87063
400.225,22.20138,-3.4401,7.11916,0.87022
400.825,22.21949,-3.47203,6.48019,0.86981
401.425,22.2375,-3.49975,5.84923,0.8694
402.025,22.25532,-3.52425,5.2449,0.869
402.625,22.27308,-3.54651,4.6692,0.86859
403.225,22.2909,-3.5664,4.12782,0.86818
403.825,22.30866,-3.58379,3.63172,0.86777
404.425,22.3265,-3.5988,3.18115,0.86736
405.025,22.34439,-3.61104,2.77703,0.86696
405.625,22.3621,-3.62127,2.42606,0.86655
406.225,22.37979,-3.6304,2.11725,0.86614
406.825,22.39751,-3.6379,1.84559,0.86573
407.425,22.41524,-3.64427,1.61412,0.86532
408.025,22.433,-3.64938,1.40425,0.86491
408.625,22.4508,-3.65383,1.22644,0.8645
409.225,22.46854,-3.65808,1.07161,0.86409
409.825,22.48636,-3.66256,0.93843,0.86368
410.425,22.5042,-3.66678,0.82022,0.86327
411.025,22.52205,-3.67085,0.71684,0.86286
411.625,22.53996,-3.67392,0.62544,0.86245
412.225,22.55786,-3.67633,0.54457,0.86204
412.825,22.5758,-3.6783,0.47511,0.86163
413.425,22.5937,-3.68053,0.41421,0.86122
414.025,22.6116,-3.68293,0.3629,0.86081
414.625,22.62961,-3.6854,0.31026,0.8604
415.225,22.6477,-3.68782,0.27196,0.85999
415.825,22.6658,-3.68996,0.23711,0.85958
416.425,22.68392,-3.6915,0.20355,0.85917
417.025,22.70203,-3.69241,0.17557,0.85876
417.625,22.72014,-3.69368,0.1511,0.85835
418.225,22.73828,-3.69535,0.13156,0.85794
418.825,22.75655,-3.69616,0.11082,0.85753
419.425,22.7748,-3.69726,0.09135943,0.85712
420.025,22.7931,-3.69883,0.07862146,0.8567
420.625,22.8114,-3.70009,0.06340322,0.85629
421.225,22.8297,-3.70043,0.04877399,0.85588
421.825,22.848,-3.70148,0.03996848,0.85547
422.425,22.86635,-3.70299,0.03231566,0.85506
423.025,22.88469,-3.70394,0.02369375,0.85464
423.625,22.90308,-3.70502,0.01439917,0.85423
424.225,22.92155,-3.70566,0.008935219,0.85382
424.825,22.93995,-3.70739,0.003397614,0.85341
425.425,22.95845,-3.70908,0.001617857,0.85299
426.025,22.97689,-3.71052,-0.004772833,0.85258
426.625,22.99537,-3.71103,-0.00700547,0.85217
427.225,23.01385,-3.71241,-0.01154957,0.85176
427.825,23.03228,-3.71409,-0.01362447,0.85134
428.425,23.0508,-3.71452,-0.01753012,0.85093
429.025,23.06928,-3.71566,-0.01922186,0.85052
429.625,23.08778,-3.71754,-0.02180348,0.8501
430.225,23.10639,-3.71809,-0.02148523,0.84969
430.825,23.12487,-3.71908,-0.02271244,0.84928
431.425,23.14341,-3.71988,-0.02536338,0.84886
432.025,23.16196,-3.72043,-0.02682533,0.84845
432.625,23.18051,-3.72143,-0.02538544,0.84803
433.225,23.19913,-3.72315,-0.02719166,0.84762
433.825,23.2176,-3.72463,-0.02476194,0.84721
434.425,23.23622,-3.72546,-0.02492107,0.84679
435.025,23.25478,-3.72679,-0.02608058,0.84638
435.625,23.2734,-3.72747,-0.02665276,0.84596
436.225,23.29222,-3.72829,-0.02513585,0.84555
436.825,23.31089,-3.73016,-0.02387964,0.84513
437.425,23.32961,-3.73075,-0.02270404,0.84472
438.025,23.34834,-3.7316,-0.01975887,0.8443
438.625,23.36702,-3.73341,-0.02019001,0.84389
439.225,23.3856,-3.73389,-0.02255393,0.84347
439.825,23.4042,-3.73485,-0.02000061,0.84306
440.425,23.42286,-3.73665,-0.01700929,0.84264
441.025,23.44142,-3.73705,-0.0170918,0.84222
441.625,23.4603,-3.73821,-0.01427439,0.84181
442.225,23.4791,-3.73972,-0.01437591,0.84139
442.825,23.49788,-3.7402,-0.01249051,0.84098
443.425,23.51679,-3.74133,-0.01324458,0.84056
444.025,23.53555,-3.74296,-0.01166541,0.84014
444.625,23.55431,-3.74572,-0.01092749,0.83973
445.225,23.57313,-3.74674,-0.01104991,0.83931
445.825,23.59189,-3.7476,-0.009765035,0.83889
446.425,23.61066,-3.74912,-0.01042455,0.83848
447.025,23.62951,-3.74926,-0.009152061,0.83806
447.625,23.64835,-3.75062,-0.009777107,0.83764
448.225,23.66721,-3.75237,-0.0098933,0.83723
448.825,23.68607,-3.75407,-0.01221166,0.83681
449.425,23.70491,-3.75454,-0.009109182,0.83639
450.025,23.7238,-3.75575,-0.008670136,0.83597
450.625,23.74261,-3.75721,-0.007226382,0.83556
451.225,23.76145,-3.75843,-0.006678995,0.83514
451.825,23.78024,-3.75874,-0.008725442,0.83472
452.425,23.7991,-3.76029,-0.007330107,0.8343
453.025,23.818,-3.7618,-0.008264263,0.83388
453.625,23.83687,-3.76285,-0.009395866,0.83347
454.225,23.8558,-3.76457,-0.007446316,0.83305
454.825,23.87472,-3.76567,-0.005118073,0.83263
455.425,23.8936,-3.76707,-0.007850279,0.83221
456.025,23.91252,-3.76732,-0.004417,0.83179
456.625,23.9314,-3.76857,-0.0052489,0.83137
457.225,23.9502,-3.77018,-0.002381163,0.83096
457.825,23.969,-3.77144,-0.003945739,0.83054
458.425,23.98775,-3.77211,-0.002557443,0.83012
459.025,24.00659,-3.7732,-0.006030832,0.8297
459.625,24.02553,-3.77482,-0.00208778,0.82928
460.225,24.0445,-3.77562,-0.004905735,0.82886
460.825,24.0635,-3.77623,-0.001582562,0.82844
461.425,24.08243,-3.77776,-0.00191597,0.82802
462.025,24.10142,-3.7778,-0.000219029,0.8276
462.625,24.1204,-3.77934,0.000334166,0.82718
463.225,24.1394,-3.78115,-0.002013793,0.82676
463.825,24.15841,-3.78221,0.000880322,0.82634
464.425,24.1774,-3.7831,0.001289758,0.82592
465.025,24.1964,-3.78448,0.00049332,0.8255
465.625,24.21536,-3.78642,0.00343452,0.82508
466.225,24.2344,-3.78912,0.003919119,0.82466
466.825,24.2533,-3.79053,0.00701531,0.82424
467.425,24.2723,-3.79131,0.00530069,0.82382
468.025,24.2913,-3.7928,0.00805192,0.8234
468.625,24.31028,-3.79338,0.00615956,0.82298
469.225,24.32931,-3.79428,0.005785067,0.82256
469.825,24.34838,-3.79491,0.00696906,0.82213
470.425,24.3674,-3.79634,0.0101511,0.82171
471.025,24.38644,-3.79743,0.01166507,0.82129
471.625,24.40545,-3.7981,0.01172395,0.82087
472.225,24.42446,-3.79961,0.01344312,0.82045
472.825,24.44351,-3.80154,0.01342439,0.82003
473.425,24.46259,-3.80323,0.01264418,0.81961
474.025,24.48167,-3.80467,0.01483751,0.81918
474.625,24.50078,-3.80505,0.01775638,0.81876
475.225,24.51983,-3.80655,0.01977212,0.81834
475.825,24.53885,-3.80751,0.01750999,0.81792
476.425,24.55789,-3.80894,0.01846945,0.81749
477.025,24.57694,-3.81101,0.01667298,0.81707
477.625,24.59608,-3.81268,0.02070022,0.81665
478.225,24.61519,-3.8143,0.02057165,0.81623
478.825,24.63435,-3.81518,0.02115514,0.8158
479.425,24.65345,-3.81642,0.01835911,0.81538
480.025,24.67255,-3.81782,0.01976071,0.81496
480.625,24.69177,-3.81941,0.01821307,0.81454
481.225,24.711,-3.81972,0.01791622,0.81411
481.825,24.73027,-3.82088,0.01933862,0.81369
482.425,24.7495,-3.82227,0.01798039,0.81327
483.025,24.7686,-3.82301,0.0181686,0.81284
483.625,24.78772,-3.82425,0.01844797,0.81242
484.225,24.8068,-3.82607,0.01234713,0.812
484.825,24.826,-3.82791,0.0160016,0.81157
485.425,24.84509,-3.82893,0.01591629,0.81115
486.025,24.86424,-3.82981,0.01422184,0.81072
486.625,24.88328,-3.83137,0.01203272,0.8103
487.225,24.90236,-3.83235,0.01099269,0.80988
487.825,24.92159,-3.8329,0.01054076,0.80945
488.425,24.94073,-3.83474,0.004925573,0.80903
489.025,24.96003,-3.8366,0.002853879,0.8086
489.625,24.97915,-3.83779,0.004243359,0.80818
490.225,24.99825,-3.83888,0.004290925,0.80775
490.825,25.01744,-3.84,0.001103878,0.80733
491.425,25.03659,-3.84109,-0.0001992687,0.8069
492.025,25.05581,-3.84142,-0.0005912297,0.80648
492.625,25.075,-3.84152,-0.002606906,0.80605
493.225,25.0942,-3.84294,-0.004085521,0.80563
493.825,25.1134,-3.8445,-0.007930843,0.8052
494.425,25.1326,-3.84505,-0.007088151,0.80478
495.025,25.15182,-3.846,-0.01013204,0.80435
495.625,25.171,-3.84735,-0.01172695,0.80393
496.225,25.1902,-3.84743,-0.01084636,0.8035
496.825,25.20939,-3.84863,-0.01705841,0.80307
497.425,25.22865,-3.84877,-0.01771202,0.80265
498.025,25.24788,-3.84921,-0.01997876,0.80222
498.625,25.26707,-3.85009,-0.02001946,0.8018
499.225,25.2863,-3.85039,-0.02386558,0.80137
499.825,25.30544,-3.85141,-0.02586948,0.80094
500.425,25.32469,-3.85138,-0.02706639,0.80052
501.025,25.34389,-3.85264,-0.03190848,0.80009
501.625,25.36315,-3.85272,-0.02907267,0.79966
502.225,25.38237,-3.85273,-0.03064455,0.79924
502.825,25.4015,-3.85357,-0.03073533,0.79881
503.425,25.42076,-3.85404,-0.03311547,0.79838
504.025,25.43992,-3.85404,-0.03496739,0.79796
504.625,25.4592,-3.85404,-0.03746704,0.79753
505.225,25.4784,-3.85487,-0.03906261,0.7971
505.825,25.49758,-3.85535,-0.03782243,0.79667
506.425,25.5168,-3.85535,-0.03828818,0.79625
507.025,25.536,-3.85535,-0.04005781,0.79582
507.625,25.55528,-3.85532,-0.0395562,0.79539
508.225,25.57457,-3.85671,-0.04430257,0.79496
508.825,25.59378,-3.85667,-0.04227266,0.79454
509.425,25.613,-3.85667,-0.03931366,0.79411
510.025,25.6323,-3.85667,-0.04209455,0.79368
510.625,25.65149,-3.85667,-0.03844942,0.79325
511.225,25.67085,-3.85682,-0.03950822,0.79282
511.825,25.6902,-3.858,-0.03858039,0.7924
512.425,25.70955,-3.85798,-0.03867686,0.79197
513.025,25.72886,-3.85798,-0.03706286,0.79154
513.625,25.74811,-3.85798,-0.03730779,0.79111
514.225,25.7674,-3.85798,-0.03744535,0.79068
514.825,25.78667,-3.85798,-0.02828035,0.79025
515.425,25.80602,-3.85798,-0.02648943,0.78982
516.025,25.8253,-3.85799,-0.02391309,0.7894
516.625,25.84455,-3.85915,-0.01980167,0.78897
517.225,25.86383,-3.8593,-0.01590529,0.78854
517.825,25.88307,-3.8593,-0.01158227,0.78811
518.425,25.90229,-3.8593,-0.00257785,0.78768
519.025,25.92152,-3.8593,0.006237899,0.78725
519.625,25.94083,-3.85925,0.01461875,0.78682
520.225,25.96012,-3.85799,0.02605704,0.78639
520.825,25.97938,-3.85799,0.03375942,0.78596
521.425,25.99868,-3.858,0.04446352,0.78553
522.025,26.0179,-3.85916,0.05369225,0.7851
522.625,26.0371,-3.8593,0.06186704,0.78467
523.225,26.05641,-3.8593,0.07153034,0.78424
523.825,26.0757,-3.8593,0.07936566,0.78381
524.425,26.095,-3.8593,0.08487436,0.78338
525.025,26.11433,-3.8593,0.09355086,0.78295
525.625,26.13366,-3.8593,0.10185,0.78252
526.225,26.15305,-3.8593,0.10726,0.78209
526.825,26.17241,-3.8593,0.11189,0.78166
527.425,26.19184,-3.8593,0.1173,0.78123
528.025,26.21116,-3.8593,0.12321,0.7808
528.625,26.23048,-3.8593,0.12846,0.78037
529.225,26.24983,-3.85994,0.13141,0.77993
529.825,26.2692,-3.86061,0.13502,0.7795
530.425,26.2885,-3.86062,0.13713,0.77907
531.025,26.3079,-3.86062,0.14353,0.77864
531.625,26.3273,-3.86062,0.14817,0.77821
532.225,26.34675,-3.86062,0.14936,0.77778
532.825,26.36613,-3.86063,0.14888,0.77735
533.425,26.38553,-3.86211,0.15542,0.77691
534.025,26.40489,-3.86326,0.15717,0.77648
534.625,26.4243,-3.86325,0.16046,0.77605
535.225,26.44363,-3.86325,0.16339,0.77562
535.825,26.46295,-3.86323,0.16634,0.77519
536.425,26.4823,-3.86137,0.16673,0.77476
537.025,26.50173,-3.86061,0.17278,0.77432
537.625,26.52119,-3.86062,0.17494,0.77389
538.225,26.54062,-3.86062,0.1758,0.77346
538.825,26.56001,-3.86062,0.17894,0.77303
539.425,26.5795,-3.86062,0.1825,0.77259
540.025,26.59885,-3.86062,0.18023,0.77216
540.625,26.61835,-3.86062,0.1824,0.77173
541.225,26.6378,-3.86062,0.18525,0.77129
541.825,26.6572,-3.86062,0.18663,0.77086
542.425,26.67667,-3.86062,0.18361,0.77043
543.025,26.69609,-3.86062,0.18344,0.77
543.625,26.71552,-3.86062,0.18782,0.76956
544.225,26.735,-3.86062,0.19014,0.76913
544.825,26.7545,-3.86062,0.18953,0.7687
545.425,26.77396,-3.86062,0.18881,0.76826
546.025,26.79338,-3.86062,0.18593,0.76783
546.625,26.81278,-3.86062,0.18948,0.7674
547.225,26.8322,-3.86062,0.188,0.76696
547.825,26.8516,-3.86062,0.19075,0.76653
548.425,26.8711,-3.86062,0.18874,0.76609
549.025,26.89047,-3.86062,0.18409,0.76566
549.625,26.90997,-3.86062,0.18733,0.76523
550.225,26.92949,-3.86062,0.18995,0.76479
550.825,26.94898,-3.86063,0.18865,0.76436
551.425,26.9685,-3.86098,0.18874,0.76392
552.025,26.9879,-3.86095,0.19118,0.76349
552.625,27.0074,-3.86095,0.1895,0.76305
553.225,27.0269,-3.86096,0.1894,0.76262
553.825,27.0464,-3.86127,0.19161,0.76219
554.425,27.06595,-3.86194,0.19119,0.76175
555.025,27.0854,-3.86219,0.19533,0.76132
555.625,27.1049,-3.86259,0.19451,0.76088
556.225,27.1244,-3.86259,0.19634,0.76045
556.825,27.14387,-3.86259,0.19356,0.76001
557.425,27.1633,-3.86259,0.19585,0.75958
558.025,27.18266,-3.86259,0.20027,0.75914
558.625,27.20216,-3.86259,0.19608,0.7587
559.225,27.22165,-3.86259,0.20112,0.75827
559.825,27.24111,-3.86259,0.20031,0.75783
560.425,27.2607,-3.86259,0.20264,0.7574
561.025,27.28023,-3.86259,0.2043,0.75696
561.625,27.2997,-3.8613,0.20401,0.75653
562.225,27.3192,-3.86128,0.20484,0.75609
562.825,27.33867,-3.86128,0.20542,0.75565
563.425,27.3582,-3.86128,0.20496,0.75522
564.025,27.3777,-3.86128,0.20661,0.75478
564.625,27.39728,-3.86128,0.20799,0.75435
565.225,27.4168,-3.86121,0.20521,0.75391
565.825,27.4363,-3.86191,0.20669,0.75347
566.425,27.45585,-3.86193,0.20656,0.75304
567.025,27.47536,-3.86193,0.20754,0.7526
567.625,27.4948,-3.86193,0.20723,0.75216
568.225,27.5143,-3.86193,0.20913,0.75173
568.825,27.53384,-3.86193,0.20944,0.75129
569.425,27.55337,-3.86193,0.20913,0.75085
570.025,27.57295,-3.86193,0.21142,0.75042
570.625,27.59248,-3.86193,0.21201,0.74998
571.225,27.612,-3.86193,0.21056,0.74954
571.825,27.63162,-3.86193,0.21185,0.74911
572.425,27.6512,-3.86193,0.21013,0.74867
573.025,27.67077,-3.86193,0.20992,0.74823
573.625,27.69032,-3.86193,0.21216,0.74779
574.225,27.70986,-3.86193,0.2138,0.74736
574.825,27.7294,-3.86193,0.21452,0.74692
575.425,27.7489,-3.86194,0.21485,0.74648
576.025,27.76837,-3.86229,0.21351,0.74604
576.625,27.78795,-3.86226,0.21552,0.74561
577.225,27.8075,-3.86226,0.21767,0.74517
577.825,27.82722,-3.86226,0.21833,0.74473
578.425,27.8468,-3.86226,0.2157,0.74429
579.025,27.8664,-3.86226,0.22005,0.74385
579.625,27.886,-3.86226,0.2198,0.74341
580.225,27.9055,-3.86226,0.22157,0.74298
580.825,27.9251,-3.86226,0.21984,0.74254
581.425,27.94475,-3.86226,0.21942,0.7421
582.025,27.96442,-3.86225,0.22249,0.74166
582.625,27.9841,-3.86114,0.22486,0.74122
583.225,28.0037,-3.86095,0.22599,0.74078
583.825,28.0233,-3.86095,0.22977,0.74035
584.425,28.0429,-3.86095,0.22642,0.73991
585.025,28.0624,-3.86095,0.22918,0.73947
585.625,28.082,-3.86095,0.22807,0.73903
586.225,28.1016,-3.86095,0.22996,0.73859
586.825,28.1212,-3.86095,0.23432,0.73815
587.425,28.14085,-3.86095,0.23603,0.73771
588.025,28.16047,-3.86095,0.23319,0.73727
588.625,28.18015,-3.86095,0.2361,0.73683
589.225,28.19983,-3.86095,0.23782,0.73639
589.825,28.2195,-3.86223,0.23819,0.73595
590.425,28.23917,-3.86226,0.23978,0.73551
591.025,28.25882,-3.86226,0.23883,0.73507
591.625,28.27849,-3.8625,0.24191,0.73463
592.225,28.29815,-3.86296,0.24377,0.73419
592.825,28.3178,-3.86158,0.24394,0.73375
593.425,28.33748,-3.86161,0.24527,0.73331
594.025,28.35715,-3.86161,0.24718,0.73287
594.625,28.37681,-3.86161,0.24578,0.73243
595.225,28.3965,-3.86161,0.25066,0.73199
595.825,28.4162,-3.86161,0.24845,0.73155
596.425,28.4359,-3.86161,0.25254,0.73111
597.025,28.4556,-3.86161,0.25357,0.73067
597.625,28.47533,-3.86161,0.25532,0.73023
598.225,28.49509,-3.86161,0.25776,0.72979
598.825,28.5147,-3.86162,0.25571,0.72935
599.425,28.53438,-3.8624,0.25879,0.72891
600.025,28.55402,-3.86292,0.26047,0.72847
600.625,28.5737,-3.86292,0.26188,0.72803
601.225,28.5934,-3.86292,0.26323,0.72759
601.825,28.6131,-3.86292,0.26512,0.72715
602.425,28.6328,-3.86292,0.26785,0.7267
603.025,28.65253,-3.86292,0.26809,0.72626
603.625,28.6722,-3.86355,0.26932,0.72582
604.225,28.69189,-3.86311,0.27364,0.72538
604.825,28.7116,-3.86228,0.27129,0.72494
605.425,28.7313,-3.86227,0.27199,0.7245
606.025,28.75102,-3.86227,0.27512,0.72406
606.625,28.7707,-3.86241,0.27699,0.72361
607.225,28.79038,-3.86361,0.27989,0.72317
607.825,28.8101,-3.86359,0.28124,0.72273
608.425,28.8297,-3.86359,0.28451,0.72229
609.025,28.8494,-3.86359,0.28705,0.72185
609.625,28.86908,-3.86359,0.28363,0.72141
610.225,28.88881,-3.86362,0.2871,0.72096
610.825,28.90853,-3.86222,0.2888,0.72052
611.425,28.9283,-3.86227,0.28955,0.72008
612.025,28.9481,-3.86227,0.29131,0.71964
612.625,28.96777,-3.86227,0.2926,0.71919
613.225,28.98753,-3.86227,0.2953,0.71875
613.825,29.00723,-3.86227,0.29797,0.71831
614.425,29.02698,-3.86227,0.30088,0.71787
615.025,29.0468,-3.86227,0.3019,0.71742
615.625,29.0665,-3.86227,0.302,0.71698
616.225,29.0864,-3.86227,0.30431,0.71654
616.825,29.1061,-3.86227,0.30527,0.7161
617.425,29.1259,-3.86319,0.30926,0.71565
618.025,29.14565,-3.86359,0.30637,0.71521
618.625,29.1654,-3.86359,0.30916,0.71477
619.225,29.1853,-3.86359,0.30817,0.71432
619.825,29.205,-3.86359,0.31273,0.71388
620.425,29.2248,-3.86359,0.31397,0.71344
621.025,29.24454,-3.86359,0.31442,0.71299
621.625,29.26428,-3.86359,0.31758,0.71255
622.225,29.28412,-3.86359,0.31795,0.71211
622.825,29.30391,-3.86359,0.31997,0.71166
623.425,29.32374,-3.86359,0.32373,0.71122
624.025,29.34351,-3.86359,0.32652,0.71078
624.625,29.36331,-3.86359,0.3287,0.71033
625.225,29.3831,-3.86359,0.32812,0.70989
625.825,29.4029,-3.86359,0.33133,0.70945
626.425,29.4228,-3.86359,0.33499,0.709
627.025,29.44251,-3.86359,0.33578,0.70856
627.625,29.46231,-3.86359,0.33692,0.70811
628.225,29.4821,-3.86359,0.33861,0.70767
628.825,29.50188,-3.86359,0.33808,0.70723
629.425,29.5217,-3.86359,0.34363,0.70678
630.025,29.5415,-3.86359,0.34221,0.70634
630.625,29.5612,-3.86359,0.3491,0.70589
631.225,29.5809,-3.86359,0.34766,0.70545
631.825,29.60075,-3.86357,0.35061,0.705
632.425,29.6206,-3.86227,0.35515,0.70456
633.025,29.6405,-3.86359,0.3567,0.70411
633.625,29.66028,-3.86358,0.35847,0.70367
634.225,29.68013,-3.86358,0.36086,0.70322
634.825,29.69991,-3.86358,0.36297,0.70278
635.425,29.7197,-3.86358,0.36561,0.70233
636.025,29.73953,-3.86358,0.36736,0.70189
636.625,29.7594,-3.86358,0.36989,0.70144
637.225,29.7792,-3.86358,0.37161,0.701
637.825,29.79898,-3.86358,0.37469,0.70055
638.425,29.81875,-3.86358,0.37477,0.70011
639.025,29.8385,-3.86358,0.37481,0.69966
639.625,29.8584,-3.86358,0.37882,0.69922
640.225,29.87821,-3.86377,0.38049,0.69877
640.825,29.8981,-3.86456,0.38027,0.69833
641.425,29.918,-3.86457,0.3847,0.69788
642.025,29.93771,-3.86457,0.38469,0.69744
642.625,29.95753,-3.86457,0.391,0.69699
643.225,29.97735,-3.86457,0.39231,0.69655
643.825,29.9973,-3.86457,0.39339,0.6961