File: 01_Data/PLA_3D_Printer_Filament/STA/N2/30K_min/PLA_STA_N2_30KData_220505_R3.csv
##Temp./Â°C,Time/min,Mass loss(subtr.2)/mg,DSC(subtr.2)/(mW/mg),Sensit./(uV/mW)
48.763,10.00667,0.01141,-0.000174387,1.07494
49.363,10.5336,0.01152716,0.03842632,1.07468
49.963,10.65387,0.01201022,0.07348389,1.07441
50.563,10.73891,0.01229572,0.10556,1.07415
51.163,10.80693,0.01110189,0.13266,1.07388
51.763,10.86595,0.01149782,0.15835,1.07362
52.363,10.9189,0.01226609,0.18388,1.07335
52.963,10.96692,0.01219551,0.21091,1.07308
53.563,11.0107,0.0122839,0.23153,1.07282
54.163,11.0524,0.01148351,0.25286,1.07255
54.763,11.09234,0.01193808,0.27498,1.07228
55.363,11.12991,0.01166645,0.29398,1.07201
55.963,11.1656,0.0110528,0.31512,1.07174
56.563,11.20019,0.01039719,0.33342,1.07147
57.163,11.23358,0.01117465,0.3537,1.0712
57.763,11.26574,0.01130301,0.3727,1.07093
58.363,11.29696,0.01185763,0.39189,1.07066
58.963,11.3273,0.01244931,0.4093,1.07039
59.563,11.3569,0.01159357,0.42785,1.07012
60.163,11.38538,0.01269369,0.4479,1.06985
60.763,11.4139,0.01236916,0.46639,1.06958
61.363,11.4421,0.01365694,0.48641,1.06931
61.963,11.4695,0.01301088,0.50404,1.06903
62.563,11.4963,0.01340723,0.52309,1.06876
63.163,11.52271,0.01349973,0.54416,1.06849
63.763,11.54885,0.01273342,0.56854,1.06821
64.363,11.57488,0.01218036,0.59742,1.06794
64.963,11.60032,0.01188505,0.62783,1.06766
65.563,11.6256,0.01299975,0.66832,1.06739
66.163,11.65054,0.01339354,0.71554,1.06711
66.763,11.67534,0.01348322,0.7678,1.06684
67.363,11.69977,0.01372389,0.81117,1.06656
67.963,11.7242,0.01371309,0.841,1.06629
68.563,11.74813,0.0133874,0.85324,1.06601
69.163,11.77195,0.01236036,0.84908,1.06573
69.763,11.79543,0.01211025,0.8409,1.06545
70.363,11.81886,0.01301427,0.82983,1.06517
70.963,11.8422,0.01375895,0.82103,1.0649
71.563,11.86532,0.0136692,0.81154,1.06462
72.163,11.88836,0.01375233,0.79955,1.06434
72.763,11.91119,0.01371685,0.78796,1.06406
73.363,11.93395,0.01413182,0.77693,1.06378
73.963,11.9567,0.01360707,0.76573,1.0635
74.563,11.9792,0.01310623,0.75816,1.06322
75.163,12.00165,0.01315414,0.74639,1.06294
75.763,12.02383,0.01201836,0.73759,1.06265
76.363,12.04594,0.01313537,0.73122,1.06237
76.963,12.06807,0.01369885,0.72491,1.06209
77.563,12.09008,0.01344348,0.71872,1.06181
78.163,12.1119,0.01363059,0.71377,1.06152
78.763,12.13374,0.01348936,0.71175,1.06124
79.363,12.1554,0.01330856,0.7081,1.06096
79.963,12.177,0.01234545,0.70754,1.06067
80.563,12.19852,0.01278691,0.70414,1.06039
81.163,12.21992,0.01327787,0.70289,1.0601
81.763,12.24132,0.01221638,0.70294,1.05982
82.363,12.26275,0.01332777,0.70621,1.05953
82.963,12.28411,0.01195225,0.70573,1.05924
83.563,12.3055,0.01332637,0.70477,1.05896
84.163,12.32671,0.0127381,0.7072,1.05867
84.763,12.34779,0.0135985,0.7071,1.05838
85.363,12.3688,0.0146068,0.70757,1.0581
85.963,12.38976,0.01351892,0.70766,1.05781
86.563,12.4107,0.01335263,0.70551,1.05752
87.163,12.43163,0.01205532,0.70353,1.05723
87.763,12.45245,0.01180875,0.70102,1.05694
88.363,12.47326,0.01096299,0.699,1.05665
88.963,12.494,0.01143827,0.69154,1.05636
89.563,12.51479,0.01197853,0.68955,1.05607
90.163,12.53542,0.01227969,0.6813,1.05578
90.763,12.55605,0.01351312,0.67387,1.05549
91.363,12.57666,0.01371388,0.66614,1.0552
91.963,12.59721,0.01332679,0.65922,1.05491
92.563,12.61764,0.01370397,0.64847,1.05462
93.163,12.63805,0.01371009,0.63909,1.05432
93.763,12.6584,0.01371023,0.62939,1.05403
94.363,12.67868,0.01369866,0.61778,1.05374
94.963,12.69893,0.01261029,0.60813,1.05344
95.563,12.7193,0.01361469,0.59822,1.05315
96.163,12.73963,0.01299672,0.5902,1.05286
96.763,12.76019,0.01228998,0.57857,1.05256
97.363,12.78046,0.01300237,0.57255,1.05227
97.963,12.8007,0.0137067,0.56483,1.05197
98.563,12.82103,0.01412206,0.56047,1.05168
99.163,12.84136,0.01382989,0.55722,1.05138
99.763,12.86169,0.01432012,0.55377,1.05108
100.363,12.88188,0.01508786,0.55193,1.05079
100.963,12.90203,0.01380169,0.55282,1.05049
101.563,12.92217,0.01380812,0.55639,1.05019
102.163,12.94238,0.0149711,0.56086,1.04989
102.763,12.9625,0.01417918,0.56523,1.0496
103.363,12.9827,0.01381626,0.57672,1.0493
103.963,13.00279,0.01381956,0.58263,1.049
104.563,13.02282,0.01384692,0.59414,1.0487
105.163,13.04302,0.01365601,0.60853,1.0484
105.763,13.06312,0.01383227,0.62068,1.0481
106.363,13.08332,0.01382996,0.63668,1.0478
106.963,13.10347,0.01383,0.64892,1.0475
107.563,13.1236,0.01383,0.66477,1.0472
108.163,13.14375,0.01383,0.68131,1.0469
108.763,13.1639,0.0138299,0.6976,1.0466
109.363,13.18401,0.01383517,0.71195,1.04629
109.963,13.20406,0.01456425,0.72749,1.04599
110.563,13.2241,0.01478957,0.74094,1.04569
111.163,13.2441,0.01383084,0.75397,1.04539
111.763,13.26416,0.01381973,0.7641,1.04508
112.363,13.2841,0.01382373,0.77581,1.04478
112.963,13.30415,0.01346661,0.78572,1.04448
113.563,13.32415,0.01251048,0.79636,1.04417
114.163,13.34415,0.0124998,0.80573,1.04387
114.763,13.3642,0.0125,0.81583,1.04356
115.363,13.38435,0.0125,0.82372,1.04326
115.963,13.40439,0.01249997,0.83136,1.04295
116.563,13.4244,0.01250164,0.83886,1.04265
117.163,13.4444,0.01232202,0.84654,1.04234
117.763,13.46432,0.012432,0.85524,1.04203
118.363,13.48426,0.01251099,0.86095,1.04173
118.963,13.5042,0.01252384,0.8682,1.04142
119.563,13.52409,0.0136421,0.87301,1.04111
120.163,13.54388,0.01383315,0.87993,1.0408
120.763,13.5637,0.01382857,0.88846,1.0405
121.363,13.5835,0.01394601,0.8932,1.04019
121.963,13.6033,0.01515824,0.89814,1.03988
122.563,13.6232,0.01512691,0.90341,1.03957
123.163,13.64308,0.01411063,0.9111,1.03926
123.763,13.66295,0.01377191,0.91561,1.03895
124.363,13.68275,0.01519171,0.92401,1.03864
124.963,13.7026,0.01513923,0.92722,1.03833
125.563,13.72211,0.01512936,0.93263,1.03802
126.163,13.74179,0.01433627,0.93776,1.03771
126.763,13.7615,0.01414269,0.94527,1.03739
127.363,13.7813,0.01333036,0.94844,1.03708
127.963,13.8012,0.01283714,0.95449,1.03677
128.563,13.821,0.01283997,0.95917,1.03646
129.163,13.8406,0.01284224,0.96505,1.03615
129.763,13.86023,0.01352945,0.96973,1.03583
130.363,13.87986,0.01415954,0.97477,1.03552
130.963,13.8995,0.01416004,0.97815,1.03521
131.563,13.91898,0.01416,0.98535,1.03489
132.163,13.93854,0.01416,0.98886,1.03458
132.763,13.95798,0.01416,0.99096,1.03426
133.363,13.97746,0.01415997,0.99448,1.03395
133.963,13.997,0.01416128,0.99811,1.03363
134.563,14.01645,0.01406498,1.00203,1.03332
135.163,14.0359,0.01270179,1.00642,1.033
135.763,14.05535,0.01250792,1.01219,1.03268
136.363,14.07482,0.01251004,1.01564,1.03237
136.963,14.09426,0.01251,1.01888,1.03205
137.563,14.11369,0.01251,1.02216,1.03173
138.163,14.13299,0.01251,1.02846,1.03142
138.763,14.15233,0.01251,1.03193,1.0311
139.363,14.1717,0.01251,1.03423,1.03078
139.963,14.1911,0.01251,1.04015,1.03046
140.563,14.2105,0.01250987,1.04409,1.03014
141.163,14.2298,0.0125163,1.04793,1.02982
141.763,14.249,0.01297807,1.05541,1.0295
142.363,14.2682,0.01316153,1.0586,1.02918
142.963,14.28739,0.01316003,1.06355,1.02886
143.563,14.3066,0.0131601,1.06763,1.02854
144.163,14.3259,0.01413885,1.07392,1.02822
144.763,14.345,0.01350217,1.07976,1.0279
145.363,14.3642,0.0134541,1.08388,1.02758
145.963,14.3833,0.01381087,1.09089,1.02726
146.563,14.4024,0.01382018,1.09519,1.02694
147.163,14.42155,0.01382,1.09933,1.02662
147.763,14.4406,0.01382,1.10521,1.02629
148.363,14.4599,0.01382,1.11117,1.02597
148.963,14.47906,0.01382024,1.11663,1.02565
149.563,14.4982,0.01380218,1.12459,1.02532
150.163,14.51738,0.01506458,1.13033,1.025
150.763,14.53634,0.01512921,1.13909,1.02468
151.363,14.55543,0.01423341,1.14795,1.02435
151.963,14.57446,0.01382721,1.16149,1.02403
152.563,14.5933,0.01383,1.17522,1.0237
153.163,14.61241,0.01383,1.19008,1.02338
153.763,14.6314,0.01383,1.20977,1.02305
154.363,14.65047,0.01383,1.23212,1.02273
154.963,14.6696,0.01383,1.25806,1.0224
155.563,14.6886,0.01383,1.28776,1.02207
156.163,14.70757,0.01383,1.31898,1.02175
156.763,14.7265,0.01383,1.35904,1.02142
157.363,14.74552,0.01383,1.40143,1.02109
157.963,14.7645,0.01383,1.44493,1.02077
158.563,14.7835,0.01383,1.49636,1.02044
159.163,14.8025,0.01383,1.55581,1.02011
159.763,14.82148,0.01383003,1.62155,1.01978
160.363,14.84038,0.01382963,1.68763,1.01945
160.963,14.85935,0.01380476,1.76178,1.01913
161.563,14.87841,0.01516415,1.83779,1.0188
162.163,14.89742,0.01513924,1.92426,1.01847
162.763,14.9164,0.01514002,2.01227,1.01814
163.363,14.93532,0.01514005,2.10388,1.01781
163.963,14.9543,0.01513883,2.18992,1.01748
164.563,14.97318,0.01482412,2.26612,1.01715
165.163,14.99221,0.01415522,2.32317,1.01681
165.763,15.01118,0.0141498,2.35274,1.01648
166.363,15.03019,0.01414965,2.35087,1.01615
166.963,15.0492,0.0141648,2.31964,1.01582
167.563,15.06821,0.01305255,2.26807,1.01549
168.163,15.08717,0.01283946,2.19181,1.01516
168.763,15.10605,0.01283998,2.10837,1.01482
169.363,15.125,0.01283998,2.02059,1.01449
169.963,15.1438,0.01284136,1.93388,1.01416
170.563,15.1627,0.01278367,1.85538,1.01382
171.163,15.1815,0.01348365,1.78136,1.01349
171.763,15.2002,0.01350007,1.7145,1.01316
172.363,15.21897,0.01349907,1.66045,1.01282
172.963,15.2376,0.01365683,1.60606,1.01249
173.563,15.2562,0.01482903,1.56216,1.01215
174.163,15.2748,0.01480967,1.52363,1.01182
174.763,15.2934,0.01481003,1.48631,1.01148
175.363,15.31204,0.01482517,1.45346,1.01115
175.963,15.3307,0.01356475,1.4252,1.01081
176.563,15.34939,0.01348864,1.39967,1.01047
177.163,15.36795,0.01349003,1.37631,1.01014
177.763,15.3865,0.01349003,1.35692,1.0098
178.363,15.405,0.01347776,1.3393,1.00946
178.963,15.4235,0.01242534,1.32565,1.00913
179.563,15.4421,0.01216768,1.31229,1.00879
180.163,15.46066,0.0114377,1.30143,1.00845
180.763,15.47918,0.01087312,1.28827,1.00811
181.363,15.4976,0.01086981,1.27925,1.00778
181.963,15.5161,0.01087001,1.27232,1.00744
182.563,15.53447,0.01087,1.26292,1.0071
183.163,15.55292,0.01087002,1.25715,1.00676
183.763,15.5714,0.01086758,1.25203,1.00642
184.363,15.58981,0.01102353,1.2475,1.00608
184.963,15.60821,0.01120208,1.24471,1.00574
185.563,15.6266,0.01119973,1.24142,1.0054
186.163,15.6449,0.01164382,1.23837,1.00506
186.763,15.66324,0.01249715,1.23506,1.00472
187.363,15.6816,0.01251023,1.23212,1.00438
187.963,15.7,0.01251,1.23185,1.00404
188.563,15.7184,0.01251,1.22883,1.00369
189.163,15.73681,0.01251,1.22751,1.00335
189.763,15.75515,0.01251,1.22437,1.00301
190.363,15.7735,0.01251,1.22457,1.00267
190.963,15.7919,0.01250878,1.22347,1.00233
191.563,15.8102,0.01263191,1.22115,1.00198
192.163,15.82862,0.01396957,1.22616,1.00164
192.763,15.84692,0.01394092,1.22645,1.0013
193.363,15.86515,0.01301318,1.22575,1.00095
193.963,15.88345,0.0124068,1.22576,1.00061
194.563,15.9018,0.01239987,1.22457,1.00027
195.163,15.9201,0.0124,1.22473,0.99992
195.763,15.93844,0.0124,1.22604,0.99958
196.363,15.95677,0.0124,1.22588,0.99923
196.963,15.975,0.01239999,1.22509,0.99889
197.563,15.9933,0.01239999,1.22379,0.99854
198.163,16.01158,0.01241557,1.22718,0.99819
198.763,16.02984,0.01135826,1.23011,0.99785
199.363,16.04811,0.0115238,1.22867,0.9975
199.963,16.06643,0.012401,1.22962,0.99716
200.563,16.08471,0.01239981,1.23094,0.99681
201.163,16.10299,0.01240002,1.23114,0.99646
201.763,16.1213,0.01239975,1.23151,0.99612
202.363,16.13951,0.01239637,1.23158,0.99577
202.963,16.1578,0.01204605,1.23541,0.99542
203.563,16.17602,0.01207093,1.23416,0.99507
204.163,16.19424,0.01206581,1.23517,0.99472
204.763,16.21249,0.01149506,1.23773,0.99438
205.363,16.23069,0.01107824,1.23829,0.99403
205.963,16.2489,0.01053668,1.23881,0.99368
206.563,16.2672,0.009772135,1.23877,0.99333
207.163,16.28539,0.009770139,1.24069,0.99298
207.763,16.30371,0.009769994,1.24054,0.99263
208.363,16.32198,0.00977,1.24214,0.99228
208.963,16.34021,0.00977,1.2448,0.99193
209.563,16.35849,0.00977,1.24608,0.99158
210.163,16.3765,0.00977,1.24552,0.99123
210.763,16.39475,0.00977,1.24925,0.99088
211.363,16.41303,0.00977,1.24738,0.99053
211.963,16.43126,0.00977,1.25002,0.99018
212.563,16.4497,0.00977,1.25098,0.98982
213.163,16.4679,0.00977,1.25082,0.98947
213.763,16.48607,0.00977,1.25177,0.98912
214.363,16.50429,0.00977,1.2545,0.98877
214.963,16.52243,0.00977,1.25542,0.98842
215.563,16.54062,0.00977,1.25571,0.98806
216.163,16.5588,0.009770001,1.25627,0.98771
216.763,16.57696,0.009769953,1.2572,0.98736
217.363,16.59516,0.009771398,1.2573,0.987
217.963,16.61335,0.00976939,1.26002,0.98665
218.563,16.6315,0.00944524,1.25963,0.9863
219.163,16.64966,0.009439824,1.2614,0.98594
219.763,16.66783,0.00943996,1.26258,0.98559
220.363,16.686,0.009439076,1.26425,0.98523
220.963,16.70412,0.009616286,1.26195,0.98488
221.563,16.72233,0.01008326,1.26142,0.98452
222.163,16.7405,0.01009005,1.2636,0.98417
222.763,16.7587,0.01009,1.26477,0.98381
223.363,16.77698,0.01009,1.26472,0.98346
223.963,16.79518,0.01009,1.26772,0.9831
224.563,16.8134,0.01009,1.26712,0.98274
225.163,16.8315,0.01009,1.26953,0.98239
225.763,16.84966,0.01009,1.26925,0.98203
226.363,16.8678,0.01009,1.26874,0.98167
226.963,16.88591,0.01009,1.27128,0.98132
227.563,16.90405,0.01009,1.27159,0.98096
228.163,16.92217,0.01009,1.27191,0.9806
228.763,16.9404,0.01009,1.27377,0.98024
229.363,16.9585,0.01009,1.27388,0.97988
229.963,16.9767,0.01009,1.275,0.97953
230.563,16.99464,0.01009,1.27515,0.97917
231.163,17.01277,0.01009,1.27844,0.97881
231.763,17.031,0.01009,1.27645,0.97845
232.363,17.04911,0.01009,1.27608,0.97809
232.963,17.06746,0.01009,1.27764,0.97773
233.563,17.0856,0.01008998,1.27906,0.97737
234.163,17.10378,0.01009138,1.27988,0.97701
234.763,17.12196,0.01003916,1.28178,0.97665
235.363,17.14009,0.0084404,1.28471,0.97629
235.963,17.1583,0.0074493,1.2827,0.97593
236.563,17.17636,0.00746038,1.28484,0.97557
237.163,17.19451,0.007460026,1.28559,0.97521
237.763,17.21262,0.00746067,1.28688,0.97485
238.363,17.2307,0.007321606,1.28588,0.97449
238.963,17.24876,0.00613182,1.28854,0.97412
239.563,17.26685,0.006150054,1.28938,0.97376
240.163,17.285,0.006150013,1.28758,0.9734
240.763,17.30311,0.00615,1.28942,0.97304
241.363,17.32133,0.00615,1.29092,0.97268
241.963,17.33951,0.00615,1.29194,0.97231
242.563,17.35756,0.006150099,1.29377,0.97195
243.163,17.37566,0.00614643,1.29048,0.97159
243.763,17.39378,0.00578031,1.29402,0.97122
244.363,17.41183,0.004838035,1.29426,0.97086
244.963,17.43003,0.0055658,1.29371,0.9705
245.563,17.44815,0.00584927,1.29607,0.97013
246.163,17.46623,0.00582028,1.29743,0.96977
246.763,17.48433,0.005819967,1.29626,0.9694
247.363,17.50242,0.005820001,1.29795,0.96904
247.963,17.5205,0.00582,1.29757,0.96867
248.563,17.53864,0.005819994,1.29808,0.96831
249.163,17.55677,0.005820351,1.30013,0.96794
249.763,17.57491,0.005810981,1.30075,0.96758
250.363,17.593,0.006781044,1.30232,0.96721
250.963,17.611,0.007136425,1.30257,0.96684
251.563,17.62903,0.0071401,1.30182,0.96648
252.163,17.64711,0.007139999,1.30482,0.96611
252.763,17.66525,0.00714,1.30562,0.96575
253.363,17.68342,0.00714,1.30534,0.96538
253.963,17.7015,0.00714,1.30672,0.96501
254.563,17.71964,0.00714,1.30851,0.96464
255.163,17.7377,0.007140019,1.31108,0.96428
255.763,17.75585,0.007139251,1.30894,0.96391
256.363,17.774,0.007149526,1.31081,0.96354
256.963,17.7921,0.00589455,1.30931,0.96317
257.563,17.8102,0.0058167,1.31267,0.96281
258.163,17.82837,0.005820117,1.31398,0.96244
258.763,17.84646,0.005820247,1.31502,0.96207
259.363,17.8645,0.005644517,1.31782,0.9617
259.963,17.88261,0.004490499,1.31659,0.96133
260.563,17.9007,0.004510183,1.31719,0.96096
261.163,17.91874,0.00451001,1.32073,0.96059
261.763,17.93688,0.00451,1.31963,0.96022
262.363,17.95501,0.00451002,1.32125,0.95985
262.963,17.9731,0.004510102,1.32365,0.95948
263.563,17.9912,0.004480174,1.32316,0.95911
264.163,18.00931,0.004627305,1.32685,0.95874
264.763,18.02734,0.00351698,1.32602,0.95837
265.363,18.0454,0.00351033,1.32748,0.958
265.963,18.0635,0.003512373,1.32902,0.95763
266.563,18.08154,0.003446566,1.32955,0.95726
267.163,18.0996,0.003192742,1.33155,0.95688
267.763,18.1177,0.002404165,1.33152,0.95651
268.363,18.1358,0.0021847,1.33534,0.95614
268.963,18.15385,0.00219004,1.33409,0.95577
269.563,18.17193,0.002190003,1.33422,0.9554
270.163,18.19,0.00219,1.33587,0.95502
270.763,18.20812,0.00219,1.33532,0.95465
271.363,18.22628,0.00219,1.33586,0.95428
271.963,18.24436,0.002189995,1.33845,0.95391
272.563,18.2624,0.00219019,1.34061,0.95353
273.163,18.28046,0.002188347,1.34419,0.95316
273.763,18.29853,0.001719949,1.34372,0.95278
274.363,18.3167,0.000893247,1.34431,0.95241
274.963,18.33481,0.000879332,1.34696,0.95204
275.563,18.35294,0.0008756192,1.34764,0.95166
276.163,18.37104,-0.000278447,1.35003,0.95129
276.763,18.3891,-0.0004437414,1.35345,0.95091
277.363,18.4072,-0.000439969,1.35476,0.95054
277.963,18.42531,-0.0004399821,1.35363,0.95016
278.563,18.44349,-0.0004409626,1.35972,0.94979
279.163,18.46164,-0.0004144508,1.35873,0.94941
279.763,18.47981,-0.00174114,1.36143,0.94904
280.363,18.49798,-0.001752,1.36318,0.94866
280.963,18.51604,-0.001760509,1.36514,0.94829
281.563,18.53409,-0.00251439,1.36877,0.94791
282.163,18.5521,-0.00317305,1.36955,0.94753
282.763,18.57017,-0.003295993,1.37243,0.94716
283.363,18.58833,-0.004517228,1.37394,0.94678
283.963,18.6065,-0.004500064,1.37496,0.9464
284.563,18.6246,-0.004499985,1.37715,0.94603
285.163,18.64266,-0.004499922,1.38065,0.94565
285.763,18.66076,-0.00450108,1.38019,0.94527
286.363,18.67887,-0.004741695,1.3823,0.94489
286.963,18.69699,-0.00582629,1.38516,0.94451
287.563,18.7152,-0.00581753,1.38684,0.94414
288.163,18.73333,-0.006468973,1.38859,0.94376
288.763,18.75149,-0.007122674,1.39243,0.94338
289.363,18.7697,-0.00711356,1.39377,0.943
289.963,18.78781,-0.00821056,1.39336,0.94262
290.563,18.80594,-0.008449497,1.39657,0.94224
291.163,18.82403,-0.008398889,1.39832,0.94186
291.763,18.84214,-0.009811506,1.39966,0.94149
292.363,18.86022,-0.009759745,1.40313,0.94111
292.963,18.87835,-0.009743072,1.40707,0.94073
293.563,18.8965,-0.01096455,1.40965,0.94035
294.163,18.9147,-0.01107979,1.41239,0.93997
294.763,18.93294,-0.01106577,1.41341,0.93959
295.363,18.95116,-0.0126625,1.42037,0.9392
295.963,18.9694,-0.01326652,1.42006,0.93882
296.563,18.9875,-0.01440401,1.42158,0.93844
297.163,19.0056,-0.01591257,1.42586,0.93806
297.763,19.02371,-0.01750946,1.42778,0.93768
298.363,19.0418,-0.01874072,1.42899,0.9373
298.963,19.05999,-0.01940949,1.43235,0.93692
299.563,19.0782,-0.02099409,1.43723,0.93654
300.163,19.09636,-0.02166233,1.44053,0.93615
300.763,19.11448,-0.02261637,1.44343,0.93577
301.363,19.13263,-0.02410772,1.44666,0.93539
301.963,19.15073,-0.02446261,1.45032,0.93501
302.563,19.16882,-0.02555113,1.45339,0.93463
303.163,19.18701,-0.02625987,1.45641,0.93424
303.763,19.20512,-0.02706564,1.46057,0.93386
304.363,19.22329,-0.02848816,1.46413,0.93348
304.963,19.24148,-0.02947714,1.46882,0.93309
305.563,19.2596,-0.03069951,1.47123,0.93271
306.163,19.27777,-0.03234373,1.47361,0.93233
306.763,19.29588,-0.03263,1.47631,0.93194
307.363,19.31405,-0.0339766,1.4808,0.93156
307.963,19.33226,-0.0350534,1.48698,0.93117
308.563,19.35041,-0.03606311,1.48821,0.93079
309.163,19.36864,-0.03771773,1.49234,0.9304
309.763,19.38685,-0.03948409,1.49763,0.93002
310.363,19.405,-0.04145669,1.5018,0.92964
310.963,19.42315,-0.04336878,1.50717,0.92925
311.563,19.44126,-0.04535693,1.51074,0.92887
312.163,19.45936,-0.04731126,1.5131,0.92848
312.763,19.47756,-0.04939329,1.51963,0.92809
313.363,19.49578,-0.05087681,1.5253,0.92771
313.963,19.51398,-0.05233179,1.53184,0.92732
314.563,19.5322,-0.05421566,1.53374,0.92694
315.163,19.55036,-0.05703091,1.5394,0.92655
315.763,19.5685,-0.0594634,1.54425,0.92616
316.363,19.58665,-0.06173776,1.54718,0.92578
316.963,19.60481,-0.06422601,1.54989,0.92539
317.563,19.62301,-0.0664429,1.55429,0.925
318.163,19.64124,-0.06886146,1.55387,0.92462
318.763,19.65948,-0.07069408,1.55904,0.92423
319.363,19.67773,-0.07358024,1.5633,0.92384
319.963,19.69589,-0.07614101,1.56763,0.92345
320.563,19.7141,-0.0787101,1.57366,0.92307
321.163,19.73234,-0.08087106,1.57674,0.92268
321.763,19.7505,-0.08344739,1.58037,0.92229
322.363,19.76874,-0.08619395,1.58871,0.9219
322.963,19.78695,-0.08921999,1.59324,0.92151
323.563,19.80516,-0.09237877,1.60153,0.92112
324.163,19.8233,-0.09488328,1.60619,0.92074
324.763,19.84159,-0.09846778,1.61926,0.92035
325.363,19.85977,-0.10089,1.63119,0.91996
325.963,19.87792,-0.10341,1.63928,0.91957
326.563,19.89613,-0.10607,1.65426,0.91918
327.163,19.91433,-0.10929,1.66998,0.91879
327.763,19.9326,-0.11256,1.68408,0.9184
328.363,19.95083,-0.1162,1.69986,0.91801
328.963,19.96914,-0.12022,1.71541,0.91762
329.563,19.98742,-0.12425,1.73392,0.91723
330.163,20.00571,-0.12855,1.75538,0.91684
330.763,20.02395,-0.13199,1.7746,0.91645
331.363,20.04222,-0.13651,1.79567,0.91606
331.963,20.06043,-0.14028,1.81256,0.91567
332.563,20.07866,-0.1454,1.83428,0.91528
333.163,20.0969,-0.15005,1.85625,0.91488
333.763,20.11516,-0.15446,1.87627,0.91449
334.363,20.13349,-0.1593,1.90158,0.9141
334.963,20.15184,-0.16422,1.92501,0.91371
335.563,20.17021,-0.16948,1.94726,0.91332
336.163,20.18854,-0.17474,1.97007,0.91293
336.763,20.2069,-0.18038,1.99905,0.91253
337.363,20.22504,-0.18548,2.02324,0.91214
337.963,20.2432,-0.19053,2.05481,0.91175
338.563,20.26153,-0.19591,2.08173,0.91136
339.163,20.27982,-0.20176,2.11386,0.91096
339.763,20.29826,-0.20849,2.1465,0.91057
340.363,20.31675,-0.21506,2.17861,0.91018
340.963,20.33503,-0.22165,2.21177,0.90979
341.563,20.35337,-0.22903,2.24051,0.90939
342.163,20.3716,-0.23602,2.27337,0.909
342.763,20.38983,-0.24329,2.30681,0.9086
343.363,20.40819,-0.25116,2.34551,0.90821
343.963,20.42659,-0.25893,2.38069,0.90782
344.563,20.44511,-0.26685,2.42129,0.90742
345.163,20.46363,-0.27461,2.46944,0.90703
345.763,20.48205,-0.28258,2.50593,0.90663
346.363,20.50049,-0.29089,2.54747,0.90624
346.963,20.5189,-0.29894,2.59185,0.90584
347.563,20.5374,-0.3081,2.64003,0.90545
348.163,20.55582,-0.31781,2.68431,0.90505
348.763,20.57425,-0.32758,2.73267,0.90466
349.363,20.59271,-0.3376,2.78338,0.90426
349.963,20.61115,-0.34741,2.83934,0.90387
350.563,20.62964,-0.35779,2.90033,0.90347
351.163,20.64809,-0.36835,2.95832,0.90308
351.763,20.66662,-0.37926,3.0187,0.90268
352.363,20.68508,-0.39106,3.07351,0.90228
352.963,20.70352,-0.40298,3.12623,0.90189
353.563,20.72198,-0.41506,3.1878,0.90149
354.163,20.74032,-0.42744,3.24625,0.90109
354.763,20.759,-0.44053,3.31208,0.9007
355.363,20.77755,-0.454,3.36986,0.9003
355.963,20.7961,-0.46733,3.44456,0.8999
356.563,20.81478,-0.48073,3.53498,0.89951
357.163,20.8332,-0.49445,3.62386,0.89911
357.763,20.8517,-0.50854,3.70898,0.89871
358.363,20.87027,-0.52348,3.79931,0.89831
358.963,20.88887,-0.5391,3.90116,0.89792
359.563,20.90748,-0.55533,4.01085,0.89752
360.163,20.9261,-0.57274,4.13388,0.89712
360.763,20.94465,-0.59048,4.26281,0.89672
361.363,20.96319,-0.60898,4.38704,0.89632
361.963,20.98184,-0.6278,4.51695,0.89592
362.563,21.00052,-0.64738,4.66609,0.89553
363.163,21.01921,-0.6685,4.81804,0.89513
363.763,21.0379,-0.68955,4.98162,0.89473
364.363,21.0565,-0.71147,5.15017,0.89433
364.963,21.07522,-0.73532,5.33142,0.89393
365.563,21.09396,-0.76044,5.51279,0.89353
366.163,21.1128,-0.78712,5.70171,0.89313
366.763,21.13174,-0.81422,5.90268,0.89273
367.363,21.1506,-0.84207,6.10254,0.89233
367.963,21.1694,-0.87084,6.31528,0.89193
368.563,21.18834,-0.90077,6.53569,0.89153
369.163,21.20726,-0.93266,6.76948,0.89113
369.763,21.22618,-0.96492,7.00396,0.89073
370.363,21.24523,-0.99988,7.24172,0.89033
370.963,21.26422,-1.03734,7.48702,0.88993
371.563,21.2832,-1.07567,7.73587,0.88953
372.163,21.3023,-1.11551,7.98907,0.88913
372.763,21.32137,-1.15632,8.24375,0.88873
373.363,21.34046,-1.1997,8.49868,0.88833
373.963,21.35957,-1.24297,8.74686,0.88792
374.563,21.37859,-1.28816,8.99676,0.88752
375.163,21.3977,-1.33254,9.24435,0.88712
375.763,21.41674,-1.38072,9.48935,0.88672
376.363,21.43584,-1.45153,9.73222,0.88632
376.963,21.4551,-1.51392,9.97001,0.88591
377.563,21.47426,-1.55299,10.2019,0.88551
378.163,21.49351,-1.6029,10.42572,0.88511
378.763,21.51275,-1.66027,10.6464,0.88471
379.363,21.53206,-1.71598,10.85196,0.8843
379.963,21.55133,-1.77191,11.05229,0.8839
380.563,21.5706,-1.83033,11.2411,0.8835
381.163,21.59,-1.8894,11.4199,0.8831
381.763,21.6094,-1.94888,11.58363,0.88269
382.363,21.6288,-2.00896,11.74024,0.88229
382.963,21.6481,-2.06943,11.88017,0.88189
383.563,21.66741,-2.13006,12.002,0.88148
384.163,21.68666,-2.19105,12.10768,0.88108
384.763,21.70573,-2.25151,12.19834,0.88067
385.363,21.72502,-2.31327,12.27165,0.88027
385.963,21.7442,-2.37509,12.3292,0.87987
386.563,21.76357,-2.43813,12.35923,0.87946
387.163,21.78291,-2.50142,12.3703,0.87906
387.763,21.802,-2.56403,12.35789,0.87865
388.363,21.82103,-2.62548,12.32502,0.87825
388.963,21.84015,-2.68735,12.262,0.87784
389.563,21.85923,-2.74889,12.17195,0.87744
390.163,21.87831,-2.81003,12.0507,0.87703
390.763,21.89744,-2.87044,11.89608,0.87663
391.363,21.91629,-2.92924,11.71798,0.87622
391.963,21.93512,-2.98709,11.50475,0.87582
392.563,21.95393,-3.04312,11.26322,0.87541
393.163,21.97269,-3.09745,10.98598,0.87501
393.763,21.99142,-3.1505,10.67116,0.8746
394.363,22.01008,-3.20191,10.32227,0.87419
394.963,22.02864,-3.25127,9.93841,0.87379
395.563,22.04714,-3.29792,9.51844,0.87338
396.163,22.06561,-3.34755,9.05943,0.87297
396.763,22.0839,-3.38808,8.57014,0.87257
397.363,22.10223,-3.42183,8.0472,0.87216
397.963,22.12041,-3.45835,7.50202,0.87175
398.563,22.1386,-3.48921,6.94083,0.87135
399.163,22.15673,-3.52253,6.36435,0.87094
399.763,22.17485,-3.55265,5.79217,0.87053
400.363,22.193,-3.57597,5.23363,0.87013
400.963,22.21097,-3.60063,4.7011,0.86972
401.563,22.22887,-3.6206,4.19883,0.86931
402.163,22.2467,-3.63612,3.73675,0.8689
402.763,22.26452,-3.6522,3.31762,0.86849
403.363,22.28218,-3.6646,2.94126,0.86809
403.963,22.3,-3.67435,2.60923,0.86768
404.563,22.31774,-3.68436,2.31465,0.86727
405.163,22.3355,-3.69363,2.05722,0.86686
405.763,22.35344,-3.69975,1.82912,0.86645
406.363,22.37129,-3.70608,1.63172,0.86604
406.963,22.3891,-3.71129,1.45902,0.86564
407.563,22.40695,-3.71547,1.30583,0.86523
408.163,22.4248,-3.72031,1.17357,0.86482
408.763,22.4426,-3.72411,1.0601,0.86441
409.363,22.46044,-3.72741,0.96014,0.864
409.963,22.47834,-3.73072,0.8715,0.86359
410.563,22.4963,-3.73368,0.79465,0.86318
411.163,22.51426,-3.73648,0.72716,0.86277
411.763,22.53229,-3.73903,0.66593,0.86236
412.363,22.55033,-3.7408,0.61299,0.86195
412.963,22.56843,-3.74268,0.56486,0.86154
413.563,22.58653,-3.74457,0.52425,0.86113
414.163,22.60465,-3.74702,0.48795,0.86072
414.763,22.62279,-3.74903,0.45854,0.86031
415.363,22.64094,-3.75099,0.43007,0.8599
415.963,22.65909,-3.75261,0.40684,0.85949
416.563,22.6773,-3.75372,0.38788,0.85908
417.163,22.69548,-3.75481,0.36777,0.85867
417.763,22.71371,-3.75642,0.34986,0.85826
418.363,22.732,-3.75824,0.33639,0.85784
418.963,22.75036,-3.75969,0.32386,0.85743
419.563,22.76876,-3.76065,0.31275,0.85702
420.163,22.7871,-3.76192,0.3,0.85661
420.763,22.80546,-3.76379,0.29476,0.8562
421.363,22.82378,-3.7652,0.28655,0.85579
421.963,22.84217,-3.7663,0.28004,0.85537
422.563,22.86056,-3.76614,0.27423,0.85496
423.163,22.87895,-3.76757,0.26896,0.85455
423.763,22.8974,-3.76944,0.2658,0.85414
424.363,22.91583,-3.77041,0.26245,0.85373
424.963,22.9343,-3.77166,0.25862,0.85331
425.563,22.95273,-3.7737,0.25636,0.8529
426.163,22.97109,-3.77391,0.25552,0.85249
426.763,22.9894,-3.77531,0.2536,0.85207
427.363,23.00795,-3.77664,0.25037,0.85166
427.963,23.02659,-3.77736,0.25015,0.85125
428.563,23.04532,-3.77869,0.25011,0.85083
429.163,23.06407,-3.78031,0.24968,0.85042
429.763,23.08266,-3.78167,0.24902,0.85001
430.363,23.1012,-3.78228,0.24695,0.84959
430.963,23.11974,-3.78384,0.24838,0.84918
431.563,23.13832,-3.78384,0.24702,0.84877
432.163,23.15695,-3.78452,0.24845,0.84835
432.763,23.1755,-3.78523,0.24927,0.84794
433.363,23.19422,-3.78685,0.2499,0.84752
433.963,23.21291,-3.7875,0.24946,0.84711
434.563,23.23157,-3.7886,0.24951,0.8467
435.163,23.25026,-3.79038,0.24925,0.84628
435.763,23.26895,-3.79085,0.2527,0.84587
436.363,23.28762,-3.79174,0.25157,0.84545
436.963,23.3063,-3.79234,0.253,0.84504
437.563,23.32501,-3.79327,0.25554,0.84462
438.163,23.34374,-3.79461,0.25655,0.84421
438.763,23.36249,-3.79498,0.25676,0.84379
439.363,23.38126,-3.79658,0.25768,0.84338
439.963,23.39998,-3.79766,0.25774,0.84296
440.563,23.4187,-3.7983,0.25966,0.84254
441.163,23.4374,-3.79995,0.2611,0.84213
441.763,23.4561,-3.80159,0.26388,0.84171
442.363,23.4749,-3.80251,0.2642,0.8413
442.963,23.49364,-3.80316,0.26422,0.84088
443.563,23.51241,-3.80466,0.26479,0.84046
444.163,23.53119,-3.80601,0.26596,0.84005
444.763,23.55,-3.80692,0.2679,0.83963
445.363,23.56881,-3.80772,0.26806,0.83921
445.963,23.5876,-3.81011,0.26786,0.8388
446.563,23.60644,-3.81091,0.27238,0.83838
447.163,23.62527,-3.81215,0.27134,0.83796
447.763,23.64411,-3.81286,0.27206,0.83755
448.363,23.66293,-3.8135,0.27456,0.83713
448.963,23.68179,-3.8154,0.27252,0.83671
449.563,23.70066,-3.81607,0.27137,0.8363
450.163,23.71947,-3.81713,0.27314,0.83588
450.763,23.7383,-3.81836,0.27663,0.83546
451.363,23.75715,-3.82022,0.27581,0.83504
451.963,23.776,-3.82121,0.27653,0.83462
452.563,23.79489,-3.82179,0.27875,0.83421
453.163,23.81379,-3.82342,0.27753,0.83379
453.763,23.83259,-3.82513,0.28305,0.83337
454.363,23.85149,-3.82515,0.28123,0.83295
454.963,23.87041,-3.82667,0.28166,0.83253
455.563,23.8893,-3.82723,0.28337,0.83212
456.163,23.9083,-3.82823,0.28278,0.8317
456.763,23.92717,-3.82966,0.28384,0.83128
457.363,23.94602,-3.83128,0.28659,0.83086
457.963,23.96495,-3.83129,0.28602,0.83044
458.563,23.98386,-3.83269,0.2898,0.83002
459.163,24.0028,-3.83283,0.28883,0.8296
459.763,24.0217,-3.83414,0.28933,0.82918
460.363,24.04068,-3.83575,0.29001,0.82876
460.963,24.05966,-3.83688,0.2887,0.82834
461.563,24.07861,-3.838,0.29341,0.82792
462.163,24.09754,-3.83945,0.29218,0.8275
462.763,24.1165,-3.84119,0.29424,0.82708
463.363,24.13551,-3.84282,0.29473,0.82666
463.963,24.15449,-3.84318,0.29322,0.82624
464.563,24.17335,-3.84427,0.29508,0.82582
465.163,24.1922,-3.84586,0.30039,0.8254
465.763,24.21108,-3.84766,0.29952,0.82498
466.363,24.22992,-3.84935,0.29973,0.82456
466.963,24.24896,-3.85008,0.30223,0.82414
467.563,24.2681,-3.85093,0.30208,0.82372
468.163,24.28728,-3.85265,0.30287,0.8233
468.763,24.30626,-3.85321,0.30639,0.82288
469.363,24.32534,-3.8541,0.30618,0.82246
469.963,24.34434,-3.85572,0.30956,0.82204
470.563,24.36335,-3.85735,0.3092,0.82162
471.163,24.38261,-3.85925,0.31176,0.82119
471.763,24.4017,-3.86148,0.31292,0.82077
472.363,24.42077,-3.86272,0.31186,0.82035
472.963,24.43981,-3.86389,0.31433,0.81993
473.563,24.45889,-3.86511,0.31441,0.81951
474.163,24.4779,-3.8669,0.3183,0.81909
474.763,24.49699,-3.86819,0.32015,0.81866
475.363,24.51605,-3.8687,0.32084,0.81824
475.963,24.53509,-3.87004,0.32324,0.81782
476.563,24.55418,-3.87083,0.32161,0.8174
477.163,24.57323,-3.87148,0.3242,0.81698
477.763,24.59232,-3.8732,0.32601,0.81655
478.363,24.6114,-3.87488,0.32643,0.81613
478.963,24.63044,-3.87639,0.32862,0.81571
479.563,24.64956,-3.87749,0.32888,0.81528
480.163,24.66863,-3.87937,0.32844,0.81486
480.763,24.68769,-3.88093,0.33094,0.81444
481.363,24.70684,-3.88159,0.33,0.81402
481.963,24.726,-3.88231,0.33094,0.81359
482.563,24.7452,-3.88412,0.33108,0.81317
483.163,24.76439,-3.88584,0.33034,0.81274
483.763,24.78354,-3.88752,0.33453,0.81232
484.363,24.80264,-3.88923,0.33521,0.8119
484.963,24.82174,-3.89051,0.33417,0.81147
485.563,24.84083,-3.89115,0.33348,0.81105
486.163,24.85998,-3.89265,0.33369,0.81063
486.763,24.87912,-3.89292,0.33398,0.8102
487.363,24.89821,-3.8949,0.33428,0.80978
487.963,24.91733,-3.89643,0.33389,0.80935
488.563,24.93646,-3.89801,0.33188,0.80893
489.163,24.95565,-3.89983,0.33041,0.8085
489.763,24.97485,-3.90149,0.33247,0.80808
490.363,24.99401,-3.90327,0.32981,0.80765
490.963,25.01318,-3.90448,0.32676,0.80723
491.563,25.03231,-3.90537,0.32889,0.80681
492.163,25.0515,-3.90673,0.3262,0.80638
492.763,25.07066,-3.90727,0.3256,0.80596
493.363,25.08982,-3.90882,0.32429,0.80553
493.963,25.10894,-3.91063,0.32177,0.8051
494.563,25.1282,-3.91234,0.32239,0.80468
495.163,25.14742,-3.91268,0.32017,0.80425
495.763,25.16665,-3.9136,0.32159,0.80383
496.363,25.1859,-3.91359,0.32068,0.8034
496.963,25.20506,-3.91509,0.31553,0.80298
497.563,25.22418,-3.91504,0.31849,0.80255
498.163,25.2434,-3.916,0.31789,0.80212
498.763,25.26259,-3.91703,0.31548,0.8017
499.363,25.2818,-3.91745,0.31311,0.80127
499.963,25.301,-3.91786,0.31183,0.80085
500.563,25.32024,-3.91875,0.31294,0.80042
501.163,25.33948,-3.91904,0.31003,0.79999
501.763,25.35872,-3.92008,0.30925,0.79957
502.363,25.37793,-3.92085,0.30777,0.79914
502.963,25.39709,-3.92147,0.3064,0.79871
503.563,25.41626,-3.92268,0.30637,0.79829
504.163,25.43542,-3.92282,0.30369,0.79786
504.763,25.45465,-3.92363,0.30487,0.79743
505.363,25.474,-3.92413,0.30113,0.797
505.963,25.49329,-3.92413,0.3017,0.79658
506.563,25.5126,-3.92413,0.30023,0.79615
507.163,25.53191,-3.92409,0.29979,0.79572
507.763,25.55094,-3.92559,0.30009,0.79529
508.363,25.57007,-3.92556,0.30175,0.79487
508.963,25.58931,-3.92653,0.30094,0.79444
509.563,25.60858,-3.92687,0.30126,0.79401
510.163,25.62809,-3.92687,0.30165,0.79358
510.763,25.64741,-3.92687,0.30054,0.79315
511.363,25.66664,-3.92687,0.30079,0.79273
511.963,25.68589,-3.92743,0.30354,0.7923
512.563,25.70515,-3.92817,0.30353,0.79187
513.163,25.7244,-3.92818,0.30564,0.79144
513.763,25.74364,-3.92818,0.30446,0.79101
514.363,25.76291,-3.92814,0.30474,0.79058
514.963,25.78218,-3.92955,0.30887,0.79015
515.563,25.8015,-3.9295,0.30797,0.78973
516.163,25.82085,-3.92912,0.31184,0.7893
516.763,25.84016,-3.92885,0.31363,0.78887
517.363,25.85949,-3.92823,0.31478,0.78844
517.963,25.87878,-3.92819,0.31848,0.78801
518.563,25.89806,-3.92819,0.32099,0.78758
519.163,25.91735,-3.92819,0.32492,0.78715
519.763,25.93665,-3.92819,0.32599,0.78672
520.363,25.95597,-3.92819,0.33185,0.78629
520.963,25.97529,-3.92819,0.33214,0.78586
521.563,25.9945,-3.92819,0.3347,0.78543
522.163,26.0137,-3.92819,0.34102,0.785
522.763,26.033,-3.92819,0.34371,0.78457
523.363,26.0523,-3.92844,0.34632,0.78414
523.963,26.07185,-3.92951,0.35283,0.78371
524.563,26.09119,-3.9295,0.36199,0.78328
525.163,26.11048,-3.9295,0.36591,0.78285
525.763,26.12978,-3.9295,0.37378,0.78242
526.363,26.14901,-3.92947,0.38127,0.78199
526.963,26.16837,-3.92982,0.38641,0.78156
527.563,26.1877,-3.92983,0.39766,0.78113
528.163,26.20704,-3.92983,0.40302,0.7807
528.763,26.2265,-3.93049,0.41391,0.78027
529.363,26.2458,-3.9305,0.42512,0.77984
529.963,26.26512,-3.93084,0.43057,0.7794
530.563,26.28443,-3.93082,0.43502,0.77897
531.163,26.30378,-3.93081,0.44382,0.77854
531.763,26.32315,-3.93113,0.45148,0.77811
532.363,26.3425,-3.93149,0.45883,0.77768
532.963,26.36192,-3.93148,0.46569,0.77725
533.563,26.38128,-3.93148,0.47527,0.77682
534.163,26.4007,-3.93147,0.48297,0.77638
534.763,26.42012,-3.93247,0.48799,0.77595
535.363,26.43951,-3.93247,0.49338,0.77552
535.963,26.4589,-3.93247,0.50037,0.77509
536.563,26.4783,-3.93246,0.50878,0.77466
537.163,26.49765,-3.93132,0.51056,0.77422
537.763,26.5171,-3.93115,0.5193,0.77379
538.363,26.53647,-3.93115,0.52668,0.77336
538.963,26.5559,-3.93115,0.53006,0.77293
539.563,26.5754,-3.93115,0.53367,0.77249
540.163,26.59474,-3.93115,0.53711,0.77206
540.763,26.6143,-3.93115,0.542,0.77163
541.363,26.6337,-3.93115,0.54496,0.7712
541.963,26.6531,-3.93115,0.54769,0.77076
542.563,26.67265,-3.93115,0.55173,0.77033
543.163,26.6921,-3.93115,0.55679,0.7699
543.763,26.71156,-3.93115,0.56183,0.76946
544.363,26.731,-3.93115,0.56306,0.76903
544.963,26.7504,-3.93115,0.56598,0.7686
545.563,26.7698,-3.93113,0.57244,0.76816
546.163,26.7893,-3.93233,0.57416,0.76773
546.763,26.80878,-3.93247,0.57914,0.7673
547.363,26.82807,-3.93247,0.58115,0.76686
547.963,26.84737,-3.93243,0.58242,0.76643
548.563,26.8666,-3.93148,0.5888,0.76599
549.163,26.8861,-3.93148,0.5917,0.76556
549.763,26.90577,-3.93145,0.59135,0.76513
550.363,26.9254,-3.93304,0.59133,0.76469
550.963,26.945,-3.93412,0.59603,0.76426
551.563,26.96449,-3.93411,0.59703,0.76382
552.163,26.98395,-3.93411,0.60083,0.76339
552.763,27.00352,-3.93399,0.59955,0.76295
553.363,27.0229,-3.93277,0.60359,0.76252
553.963,27.04249,-3.93279,0.60674,0.76209
554.563,27.06205,-3.93279,0.60543,0.76165
555.163,27.08152,-3.93278,0.60719,0.76122
555.763,27.10107,-3.93208,0.61015,0.76078
556.363,27.1205,-3.93213,0.60835,0.76035
556.963,27.14,-3.93213,0.61349,0.75991
557.563,27.1595,-3.93213,0.61531,0.75948
558.163,27.17902,-3.93213,0.61669,0.75904
558.763,27.19855,-3.93213,0.61907,0.7586
559.363,27.21813,-3.93206,0.62133,0.75817
559.963,27.2376,-3.93278,0.62223,0.75773
560.563,27.257,-3.93279,0.62477,0.7573
561.163,27.27647,-3.93279,0.62314,0.75686
561.763,27.2959,-3.93275,0.6263,0.75643
562.363,27.3155,-3.93416,0.62748,0.75599
562.963,27.33516,-3.93411,0.62886,0.75555
563.563,27.3547,-3.93411,0.63012,0.75512
564.163,27.3743,-3.93411,0.63223,0.75468
564.763,27.3938,-3.93411,0.63279,0.75425
565.363,27.41331,-3.93411,0.63711,0.75381
565.963,27.43282,-3.93411,0.63658,0.75337
566.563,27.4524,-3.93411,0.6394,0.75294
567.163,27.472,-3.93411,0.64244,0.7525
567.763,27.4915,-3.93411,0.64127,0.75206
568.363,27.51105,-3.93411,0.64361,0.75163
568.963,27.5305,-3.93411,0.64596,0.75119
569.563,27.55,-3.93411,0.64833,0.75075
570.163,27.5695,-3.93411,0.64897,0.75032
570.763,27.5891,-3.93411,0.64975,0.74988
571.363,27.6087,-3.93411,0.65277,0.74944
571.963,27.6283,-3.93411,0.65537,0.749
572.563,27.6479,-3.93411,0.65811,0.74857
573.163,27.66742,-3.93411,0.65746,0.74813
573.763,27.68698,-3.93411,0.66397,0.74769
574.363,27.7065,-3.93411,0.66327,0.74726
574.963,27.72612,-3.93411,0.66647,0.74682
575.563,27.74577,-3.93411,0.66867,0.74638
576.163,27.7654,-3.93414,0.67327,0.74594
576.763,27.78492,-3.9338,0.6719,0.7455
577.363,27.8045,-3.93495,0.67291,0.74507
577.963,27.824,-3.9351,0.67955,0.74463
578.563,27.8436,-3.9351,0.6833,0.74419
579.163,27.8633,-3.9351,0.68429,0.74375
579.763,27.8829,-3.9351,0.6886,0.74331
580.363,27.9025,-3.9351,0.68951,0.74288
580.963,27.92205,-3.9351,0.6902,0.74244
581.563,27.94169,-3.9351,0.69145,0.742
582.163,27.96132,-3.9351,0.69417,0.74156
582.763,27.98098,-3.9351,0.6956,0.74112
583.363,28.00062,-3.9351,0.69512,0.74068
583.963,28.0202,-3.9351,0.69744,0.74024
584.563,28.03978,-3.9351,0.70359,0.73981
585.163,28.0594,-3.9351,0.70509,0.73937
585.763,28.07902,-3.9351,0.70862,0.73893
586.363,28.0987,-3.9351,0.7096,0.73849
586.963,28.11825,-3.9351,0.7133,0.73805
587.563,28.1377,-3.9351,0.71454,0.73761
588.163,28.15713,-3.9351,0.7153,0.73717
588.763,28.17669,-3.9351,0.71845,0.73673
589.363,28.19642,-3.9351,0.72232,0.73629
589.963,28.2162,-3.9351,0.72478,0.73585
590.563,28.23605,-3.9351,0.72711,0.73541
591.163,28.2557,-3.9351,0.72951,0.73497
591.763,28.27525,-3.9351,0.73067,0.73453
592.363,28.29485,-3.9351,0.73317,0.73409
592.963,28.3145,-3.9351,0.73428,0.73365
593.563,28.33397,-3.93511,0.73652,0.73321
594.163,28.3535,-3.93608,0.73858,0.73277
594.763,28.37316,-3.93608,0.74202,0.73233
595.363,28.39293,-3.93608,0.74481,0.73189
595.963,28.4128,-3.93608,0.74491,0.73145
596.563,28.43266,-3.93608,0.74682,0.73101
597.163,28.4523,-3.93608,0.75001,0.73057
597.763,28.47196,-3.93608,0.75402,0.73013
598.363,28.4917,-3.93608,0.75506,0.72969
598.963,28.5114,-3.93608,0.75303,0.72925
599.563,28.5311,-3.93608,0.7599,0.72881
600.163,28.55081,-3.93608,0.76204,0.72837
600.763,28.57048,-3.93608,0.76149,0.72793
601.363,28.59014,-3.93608,0.76489,0.72749
601.963,28.6097,-3.93623,0.76646,0.72704
602.563,28.6292,-3.93641,0.76759,0.7266
603.163,28.64879,-3.93641,0.76901,0.72616
603.763,28.66848,-3.93641,0.77483,0.72572
604.363,28.68833,-3.93641,0.77694,0.72528
604.963,28.70825,-3.93641,0.77583,0.72484
605.563,28.72798,-3.93645,0.77688,0.7244
606.163,28.74762,-3.9371,0.78096,0.72395
606.763,28.7673,-3.9374,0.78474,0.72351
607.363,28.78698,-3.9374,0.78136,0.72307
607.963,28.8067,-3.9374,0.78289,0.72263
608.563,28.82641,-3.9374,0.78689,0.72219
609.163,28.8462,-3.9374,0.79072,0.72175
609.763,28.86587,-3.9374,0.79155,0.7213
610.363,28.8856,-3.9374,0.79329,0.72086
610.963,28.90529,-3.9374,0.79507,0.72042
611.563,28.92499,-3.9374,0.79779,0.71998
612.163,28.94475,-3.9374,0.79981,0.71954
612.763,28.9645,-3.93746,0.80378,0.71909
613.363,28.98419,-3.9364,0.80546,0.71865
613.963,29.0039,-3.93641,0.80681,0.71821
614.563,29.0237,-3.93641,0.80791,0.71777
615.163,29.04342,-3.93641,0.81,0.71732
615.763,29.06315,-3.93641,0.8117,0.71688
616.363,29.08284,-3.93641,0.81476,0.71644
616.963,29.1025,-3.93641,0.81803,0.71599
617.563,29.1221,-3.93641,0.82271,0.71555
618.163,29.14175,-3.93641,0.81861,0.71511
618.763,29.1614,-3.93651,0.82374,0.71467
619.363,29.1811,-3.9374,0.82241,0.71422
619.963,29.20089,-3.9374,0.82567,0.71378
620.563,29.22066,-3.9374,0.82535,0.71334
621.163,29.24045,-3.9374,0.83076,0.71289
621.763,29.26023,-3.9374,0.8299,0.71245
622.363,29.28,-3.9374,0.83643,0.71201
622.963,29.2998,-3.9374,0.84005,0.71156
623.563,29.3196,-3.9374,0.83688,0.71112
624.163,29.3395,-3.9374,0.83978,0.71067
624.763,29.3594,-3.9374,0.84146,0.71023
625.363,29.3792,-3.93737,0.84695,0.70979
625.963,29.39893,-3.93874,0.84531,0.70934
626.563,29.41868,-3.93872,0.84827,0.7089
627.163,29.43842,-3.93872,0.85125,0.70846
627.763,29.45822,-3.93872,0.85516,0.70801
628.363,29.47802,-3.93872,0.85409,0.70757
628.963,29.4978,-3.93872,0.85478,0.70712
629.563,29.5175,-3.93872,0.85691,0.70668
630.163,29.53727,-3.93872,0.86107,0.70623
630.763,29.55707,-3.93872,0.86071,0.70579
631.363,29.5769,-3.93867,0.86227,0.70535
631.963,29.59667,-3.94008,0.86329,0.7049
632.563,29.6165,-3.94003,0.86842,0.70446
633.163,29.63622,-3.94003,0.87061,0.70401
633.763,29.6558,-3.94003,0.8748,0.70357
634.363,29.67541,-3.9398,0.87444,0.70312
634.963,29.6951,-3.9384,0.8742,0.70268
635.563,29.7149,-3.93839,0.87881,0.70223
636.163,29.73488,-3.93839,0.87882,0.70179
636.763,29.75485,-3.93839,0.87977,0.70134
637.363,29.77461,-3.93839,0.88315,0.7009
637.963,29.79423,-3.93839,0.88434,0.70045
638.563,29.814,-3.93839,0.88683,0.70001
639.163,29.8339,-3.93839,0.88687,0.69956
639.763,29.85375,-3.93839,0.88961,0.69912
640.363,29.8737,-3.93771,0.88925,0.69867
640.963,29.8934,-3.93773,0.88808,0.69823
641.563,29.9132,-3.93773,0.89189,0.69778
642.163,29.93295,-3.93902,0.89477,0.69733
642.763,29.9527,-3.93842,0.89554,0.69689
643.363,29.9725,-3.93841,0.89457,0.69644
643.963,29.9924,-3.93694,0.89626,0.696
644.163,29.99898,-3.93697,0.89826,0.69585