File: 01_Data/PLA_3D_Printer_Filament/STA/N2/30K_min/PLA_STA_N2_30KData_220504_R1.csv
##Temp./Â°C,Time/min,Mass loss(subtr.2)/mg,DSC(subtr.2)/(mW/mg),Sensit./(uV/mW)
48.591,10.00667,-0.01788,0.00234165,1.07502
49.191,10.5327,-0.01617209,0.03701416,1.07475
49.791,10.65191,-0.01793233,0.07185435,1.07449
50.391,10.7364,-0.01774644,0.09943632,1.07422
50.991,10.80463,-0.01755162,0.12539,1.07396
51.591,10.86439,-0.01821719,0.14918,1.07369
52.191,10.91755,-0.01738756,0.17277,1.07343
52.791,10.96616,-0.01893234,0.19595,1.07316
53.391,11.01057,-0.01850622,0.21812,1.07289
53.991,11.05247,-0.01849489,0.23861,1.07262
54.591,11.09222,-0.02111537,0.2586,1.07236
55.191,11.12974,-0.02022351,0.27562,1.07209
55.791,11.16505,-0.01732199,0.29478,1.07182
56.391,11.1991,-0.01775763,0.3127,1.07155
56.991,11.2324,-0.01790554,0.32986,1.07128
57.591,11.2651,-0.01831869,0.347,1.07101
58.191,11.29725,-0.01665913,0.36202,1.07074
58.791,11.3276,-0.01709557,0.38009,1.07047
59.391,11.3573,-0.01653828,0.39716,1.0702
59.991,11.3866,-0.01743723,0.41081,1.06993
60.591,11.41525,-0.01805981,0.43091,1.06966
61.191,11.44317,-0.01803677,0.44586,1.06938
61.791,11.47067,-0.01883548,0.4663,1.06911
62.391,11.49766,-0.01747853,0.48638,1.06884
62.991,11.52435,-0.01830824,0.51132,1.06857
63.591,11.5505,-0.01871888,0.54451,1.06829
64.191,11.57647,-0.01810053,0.58065,1.06802
64.791,11.60212,-0.01752331,0.63295,1.06774
65.391,11.62753,-0.01687452,0.692,1.06747
65.991,11.6525,-0.01569129,0.7491,1.06719
66.591,11.67727,-0.01609044,0.80576,1.06692
67.191,11.70181,-0.01711388,0.842,1.06664
67.791,11.72631,-0.01676113,0.85219,1.06636
68.391,11.75045,-0.01684366,0.84895,1.06609
68.991,11.77436,-0.01706828,0.84043,1.06581
69.591,11.79818,-0.01791088,0.82488,1.06553
70.191,11.82184,-0.01919401,0.81499,1.06525
70.791,11.84527,-0.01984797,0.80316,1.06498
71.391,11.86838,-0.01958034,0.79445,1.0647
71.991,11.89141,-0.01828085,0.78481,1.06442
72.591,11.91435,-0.01700484,0.77746,1.06414
73.191,11.93723,-0.01609701,0.77018,1.06386
73.791,11.95988,-0.01568131,0.76487,1.06358
74.391,11.9824,-0.01573723,0.76139,1.0633
74.991,12.00479,-0.01585517,0.75537,1.06302
75.591,12.02716,-0.01589977,0.75395,1.06273
76.191,12.0493,-0.01576005,0.74813,1.06245
76.791,12.0715,-0.0157211,0.74604,1.06217
77.391,12.09351,-0.01600684,0.74365,1.06189
77.991,12.11547,-0.01690846,0.74375,1.0616
78.591,12.1373,-0.01646359,0.74088,1.06132
79.191,12.1591,-0.0163014,0.74143,1.06104
79.791,12.1808,-0.01694783,0.74071,1.06075
80.391,12.20255,-0.0162432,0.74247,1.06047
80.991,12.2242,-0.01739107,0.74028,1.06018
81.591,12.24578,-0.01676011,0.73907,1.0599
82.191,12.26726,-0.0170517,0.73981,1.05961
82.791,12.28857,-0.01771964,0.73861,1.05933
83.391,12.30958,-0.01818996,0.7383,1.05904
83.991,12.3306,-0.0183199,0.73441,1.05875
84.591,12.3515,-0.01887913,0.73213,1.05847
85.191,12.37265,-0.01788063,0.72679,1.05818
85.791,12.39362,-0.0168746,0.72531,1.05789
86.391,12.4147,-0.01765699,0.71959,1.0576
86.991,12.43563,-0.01770593,0.71351,1.05731
87.591,12.45663,-0.0177846,0.70589,1.05702
88.191,12.4772,-0.01772933,0.69872,1.05674
88.791,12.49778,-0.01799355,0.68957,1.05645
89.391,12.51823,-0.01828235,0.6767,1.05616
89.991,12.53908,-0.01851645,0.6622,1.05586
90.591,12.56,-0.01842948,0.65068,1.05557
91.191,12.58088,-0.01951003,0.63637,1.05528
91.791,12.60165,-0.01904718,0.62142,1.05499
92.391,12.62199,-0.01952481,0.60063,1.0547
92.991,12.6424,-0.01945442,0.58624,1.05441
93.591,12.66288,-0.01819167,0.56619,1.05411
94.191,12.68334,-0.01823323,0.55208,1.05382
94.791,12.70394,-0.01769213,0.52994,1.05353
95.391,12.7243,-0.01819299,0.51436,1.05323
95.991,12.74474,-0.01688887,0.49438,1.05294
96.591,12.7651,-0.01811809,0.48025,1.05265
97.191,12.78538,-0.01723634,0.46677,1.05235
97.791,12.8056,-0.01702807,0.45358,1.05206
98.391,12.8256,-0.01810586,0.44242,1.05176
98.991,12.8458,-0.01809986,0.43309,1.05146
99.591,12.86604,-0.01810232,0.42618,1.05117
100.191,12.88614,-0.01904368,0.42246,1.05087
100.791,12.90654,-0.01941984,0.41801,1.05057
101.391,12.92672,-0.01942003,0.41705,1.05028
101.991,12.94689,-0.01941324,0.41963,1.04998
102.591,12.9671,-0.01942173,0.42866,1.04968
103.191,12.98739,-0.01940967,0.4353,1.04938
103.791,13.0075,-0.01941001,0.44757,1.04908
104.391,13.02754,-0.01941002,0.45997,1.04879
104.991,13.04752,-0.01940883,0.47447,1.04849
105.591,13.06755,-0.01901105,0.49023,1.04819
106.191,13.08769,-0.01810351,0.50596,1.04789
106.791,13.10781,-0.0181016,0.52883,1.04759
107.391,13.12796,-0.01854936,0.54692,1.04729
107.991,13.1481,-0.01941572,0.56667,1.04698
108.591,13.16819,-0.0194195,0.58989,1.04668
109.191,13.1883,-0.01945693,0.60783,1.04638
109.791,13.20835,-0.02025915,0.62552,1.04608
110.391,13.2284,-0.0194139,0.6386,1.04578
110.991,13.2484,-0.01943692,0.65506,1.04547
111.591,13.2684,-0.01805274,0.66937,1.04517
112.191,13.28834,-0.01810085,0.68168,1.04487
112.791,13.3083,-0.01810246,0.6935,1.04456
113.391,13.32831,-0.018584,0.70326,1.04426
113.991,13.3483,-0.01942353,0.71602,1.04395
114.591,13.3684,-0.01837313,0.72715,1.04365
115.191,13.38836,-0.01842627,0.73611,1.04334
115.791,13.40835,-0.01806783,0.74536,1.04304
116.391,13.42835,-0.01810049,0.75599,1.04273
116.991,13.4483,-0.01810675,0.7648,1.04243
117.591,13.46822,-0.01895234,0.77491,1.04212
118.191,13.48815,-0.01942318,0.78173,1.04181
118.791,13.50804,-0.01941994,0.79121,1.04151
119.391,13.52796,-0.01942,0.79853,1.0412
119.991,13.5479,-0.01942,0.80742,1.04089
120.591,13.5679,-0.01941998,0.8164,1.04058
121.191,13.58787,-0.01942128,0.82144,1.04028
121.791,13.60786,-0.01935102,0.8294,1.03997
122.391,13.62781,-0.0185337,0.83748,1.03966
122.991,13.64758,-0.01940662,0.84269,1.03935
123.591,13.66736,-0.01941005,0.85089,1.03904
124.191,13.68706,-0.01941,0.8547,1.03873
124.791,13.7068,-0.01941,0.86175,1.03842
125.391,13.7265,-0.01940996,0.86847,1.03811
125.991,13.7462,-0.01941627,0.87504,1.0378
126.591,13.7659,-0.01838146,0.88109,1.03748
127.191,13.78556,-0.01942561,0.88608,1.03717
127.791,13.80521,-0.01941985,0.89303,1.03686
128.391,13.8249,-0.01942,0.89872,1.03655
128.991,13.8446,-0.01942,0.90338,1.03624
129.591,13.86425,-0.01942002,0.90926,1.03592
130.191,13.88388,-0.01941881,0.9148,1.03561
130.791,13.90345,-0.01952527,0.9202,1.0353
131.391,13.9229,-0.02038408,0.92318,1.03498
131.991,13.9424,-0.02040032,0.9279,1.03467
132.591,13.9619,-0.02039942,0.93472,1.03435
133.191,13.98146,-0.02042201,0.93486,1.03404
133.791,14.001,-0.01904457,0.94308,1.03372
134.391,14.02048,-0.01908006,0.94661,1.03341
134.991,14.03991,-0.01907711,0.95068,1.03309
135.591,14.05936,-0.01940833,0.95516,1.03277
136.191,14.07874,-0.01940999,0.95782,1.03246
136.791,14.09803,-0.01941488,0.96315,1.03214
137.391,14.1174,-0.02014757,0.96378,1.03182
137.991,14.1367,-0.02072538,0.96962,1.03151
138.591,14.15601,-0.02073018,0.97101,1.03119
139.191,14.1753,-0.0207269,0.97467,1.03087
139.791,14.19467,-0.02027581,0.98082,1.03055
140.391,14.214,-0.01941252,0.9846,1.03023
140.991,14.23334,-0.01940999,0.98934,1.02991
141.591,14.25261,-0.02033467,0.99383,1.0296
142.191,14.27175,-0.02072763,0.99588,1.02928
142.791,14.2909,-0.02073008,1.00214,1.02896
143.391,14.31011,-0.02072953,1.00631,1.02864
143.991,14.3293,-0.0207507,1.00924,1.02832
144.591,14.3485,-0.0200455,1.01468,1.02799
145.191,14.36765,-0.02007033,1.01777,1.02767
145.791,14.38676,-0.02007,1.02162,1.02735
146.391,14.40579,-0.02007,1.02681,1.02703
146.991,14.42491,-0.02006991,1.03202,1.02671
147.591,14.4441,-0.02007506,1.03251,1.02639
148.191,14.4632,-0.01976061,1.03526,1.02606
148.791,14.4823,-0.01940832,1.03856,1.02574
149.391,14.50141,-0.01906081,1.04164,1.02542
149.991,14.5203,-0.01909026,1.04549,1.02509
150.591,14.53938,-0.01909645,1.0477,1.02477
151.191,14.55839,-0.0202994,1.05448,1.02445
151.791,14.57735,-0.02043995,1.06234,1.02412
152.391,14.59651,-0.02007937,1.07303,1.0238
152.991,14.61555,-0.02006982,1.08741,1.02347
153.591,14.63463,-0.02007,1.1043,1.02315
154.191,14.65368,-0.02007,1.12438,1.02282
154.791,14.67268,-0.02007001,1.14689,1.02249
155.391,14.6916,-0.02006874,1.17336,1.02217
155.991,14.71055,-0.02020615,1.20547,1.02184
156.591,14.7295,-0.02140925,1.2386,1.02151
157.191,14.74841,-0.02138965,1.2775,1.02119
157.791,14.7674,-0.02139,1.32088,1.02086
158.391,14.7863,-0.02139,1.37383,1.02053
158.991,14.80524,-0.02139,1.42832,1.0202
159.591,14.82422,-0.02139,1.49285,1.01988
160.191,14.84315,-0.02139,1.56197,1.01955
160.791,14.86205,-0.02139,1.64016,1.01922
161.391,14.88098,-0.02139,1.72355,1.01889
161.991,14.8999,-0.02139,1.81299,1.01856
162.591,14.91888,-0.02139,1.90721,1.01823
163.191,14.9378,-0.02139,2.00185,1.0179
163.791,14.95664,-0.02139,2.09069,1.01757
164.391,14.9757,-0.02139,2.17057,1.01724
164.991,14.9947,-0.02138999,2.23079,1.01691
165.591,15.0138,-0.02139012,2.26234,1.01658
166.191,15.03295,-0.02139419,2.25927,1.01625
166.791,15.052,-0.02262574,2.22076,1.01592
167.391,15.0709,-0.02271647,2.15699,1.01558
167.991,15.08983,-0.02246455,2.07217,1.01525
168.591,15.1087,-0.02140357,1.97964,1.01492
169.191,15.12757,-0.02138981,1.88737,1.01459
169.791,15.14647,-0.02138978,1.79959,1.01425
170.391,15.1653,-0.02161276,1.72268,1.01392
170.991,15.1841,-0.02272442,1.65077,1.01359
171.591,15.20285,-0.02270964,1.58944,1.01325
172.191,15.22149,-0.02271001,1.53166,1.01292
172.791,15.2402,-0.02271,1.48479,1.01258
173.391,15.2589,-0.02271,1.44154,1.01225
173.991,15.27754,-0.02271001,1.40084,1.01191
174.591,15.29616,-0.02270943,1.36882,1.01158
175.191,15.3147,-0.02272469,1.33735,1.01124
175.791,15.33327,-0.02237949,1.30685,1.01091
176.391,15.35183,-0.0223803,1.28553,1.01057
176.991,15.37045,-0.02237999,1.26155,1.01023
177.591,15.38901,-0.02238,1.2437,1.0099
178.191,15.4076,-0.02238,1.22643,1.00956
178.791,15.4262,-0.02238,1.20982,1.00922
179.391,15.44475,-0.02238,1.19785,1.00889
179.991,15.46328,-0.02238,1.18664,1.00855
180.591,15.4817,-0.02238,1.17536,1.00821
181.191,15.50031,-0.02238,1.1658,1.00787
181.791,15.51871,-0.02238,1.15701,1.00753
182.391,15.5372,-0.0223799,1.14881,1.0072
182.991,15.5557,-0.02238364,1.1425,1.00686
183.591,15.57414,-0.02278186,1.13785,1.00652
184.191,15.5926,-0.02369396,1.13436,1.00618
184.791,15.611,-0.02368974,1.12832,1.00584
185.391,15.62946,-0.02369001,1.12384,1.0055
185.991,15.6479,-0.02369,1.12305,1.00516
186.591,15.66635,-0.02369,1.12097,1.00482
187.191,15.68469,-0.02369,1.11412,1.00448
187.791,15.70305,-0.02369,1.11283,1.00413
188.391,15.72136,-0.02369,1.11481,1.00379
188.991,15.73974,-0.02369,1.11059,1.00345
189.591,15.7582,-0.02369,1.11097,1.00311
190.191,15.7765,-0.02369,1.11071,1.00277
190.791,15.7949,-0.02369,1.1081,1.00242
191.391,15.8133,-0.02369,1.10938,1.00208
191.991,15.83145,-0.02369,1.10717,1.00174
192.591,15.84976,-0.02369,1.10613,1.00139
193.191,15.86806,-0.02369,1.10662,1.00105
193.791,15.88635,-0.02369,1.11035,1.00071
194.391,15.9048,-0.02369048,1.1084,1.00036
194.991,15.9231,-0.02366659,1.1067,1.00002
195.591,15.9415,-0.02437245,1.10788,0.99967
196.191,15.9599,-0.02434987,1.10935,0.99933
196.791,15.97821,-0.02460232,1.108,0.99898
197.391,15.99649,-0.02468249,1.10922,0.99864
197.991,16.01471,-0.02467996,1.10872,0.99829
198.591,16.03295,-0.02468,1.10913,0.99795
199.191,16.0513,-0.02468,1.11065,0.9976
199.791,16.06956,-0.02468,1.10911,0.99726
200.391,16.08783,-0.02468,1.10991,0.99691
200.991,16.10609,-0.02468,1.11017,0.99656
201.591,16.1244,-0.02468,1.10995,0.99622
202.191,16.1427,-0.02468,1.11429,0.99587
202.791,16.16095,-0.02468001,1.11114,0.99552
203.391,16.17923,-0.02468037,1.11187,0.99517
203.991,16.1975,-0.02464486,1.11453,0.99482
204.591,16.21574,-0.02498154,1.11598,0.99448
205.191,16.2339,-0.02568153,1.11499,0.99413
205.791,16.2522,-0.0256706,1.1176,0.99378
206.391,16.2704,-0.02566997,1.11403,0.99343
206.991,16.28859,-0.02567,1.11492,0.99308
207.591,16.3068,-0.02567001,1.11647,0.99273
208.191,16.32507,-0.02567367,1.11817,0.99238
208.791,16.34331,-0.02635082,1.11771,0.99203
209.391,16.36166,-0.02665397,1.11826,0.99168
209.991,16.3799,-0.02665,1.1177,0.99133
210.591,16.3981,-0.02665,1.11764,0.99098
211.191,16.41639,-0.02665,1.11658,0.99063
211.791,16.43466,-0.02665,1.11954,0.99028
212.391,16.4529,-0.02665,1.11932,0.98993
212.991,16.47123,-0.02665,1.12221,0.98957
213.591,16.48945,-0.02665,1.12317,0.98922
214.191,16.50757,-0.02665,1.11962,0.98887
214.791,16.52581,-0.02665,1.1213,0.98852
215.391,16.544,-0.02665,1.12165,0.98816
215.991,16.56211,-0.02665,1.12334,0.98781
216.591,16.5804,-0.02665,1.12526,0.98746
217.191,16.59858,-0.02665,1.12539,0.9871
217.791,16.61675,-0.02665,1.12847,0.98675
218.391,16.63504,-0.02665,1.12603,0.9864
218.991,16.6533,-0.02665,1.12446,0.98604
219.591,16.6715,-0.02665047,1.12526,0.98569
220.191,16.68978,-0.02662651,1.12714,0.98533
220.791,16.70789,-0.02732863,1.127,0.98498
221.391,16.726,-0.02729313,1.12928,0.98462
221.991,16.74418,-0.02763285,1.13151,0.98427
222.591,16.76234,-0.02764017,1.12932,0.98391
223.191,16.78057,-0.02764015,1.13118,0.98356
223.791,16.7988,-0.02765046,1.13161,0.9832
224.391,16.817,-0.0287311,1.13013,0.98285
224.991,16.83522,-0.02896352,1.13175,0.98249
225.591,16.8535,-0.02895999,1.13214,0.98213
226.191,16.8717,-0.02896,1.13206,0.98178
226.791,16.88984,-0.02896,1.13287,0.98142
227.391,16.90793,-0.02896,1.1308,0.98106
227.991,16.926,-0.02896,1.13524,0.9807
228.591,16.94415,-0.02896,1.13482,0.98035
229.191,16.96236,-0.02896,1.1351,0.97999
229.791,16.9806,-0.02896,1.13527,0.97963
230.391,16.9988,-0.02896,1.1358,0.97927
230.991,17.017,-0.02896,1.13504,0.97891
231.591,17.03511,-0.02896,1.13552,0.97855
232.191,17.05322,-0.02896,1.13626,0.97819
232.791,17.07135,-0.02896,1.13904,0.97783
233.391,17.08954,-0.02896,1.13919,0.97747
233.991,17.1077,-0.02896,1.13867,0.97711
234.591,17.12588,-0.02895995,1.13898,0.97675
235.191,17.14404,-0.02896442,1.14012,0.97639
235.791,17.1621,-0.02951298,1.13815,0.97603
236.391,17.18018,-0.02995067,1.13956,0.97567
236.991,17.1983,-0.0299502,1.14241,0.97531
237.591,17.2165,-0.02994775,1.14219,0.97495
238.191,17.2346,-0.03000008,1.14239,0.97459
238.791,17.2528,-0.03026865,1.14311,0.97423
239.391,17.2709,-0.03027013,1.14251,0.97387
239.991,17.28889,-0.03027,1.14255,0.9735
240.591,17.30704,-0.03027,1.14309,0.97314
241.191,17.32514,-0.03027,1.14556,0.97278
241.791,17.34331,-0.03027,1.14582,0.97242
242.391,17.36153,-0.03027,1.1408,0.97205
242.991,17.3797,-0.03027,1.14775,0.97169
243.591,17.39786,-0.03027,1.14496,0.97133
244.191,17.41601,-0.03027,1.14596,0.97096
244.791,17.4341,-0.03027,1.14756,0.9706
245.391,17.45215,-0.03026999,1.14852,0.97024
245.991,17.47026,-0.03027096,1.1495,0.96987
246.591,17.48839,-0.03024326,1.14896,0.96951
247.191,17.5065,-0.03158195,1.14969,0.96914
247.791,17.5246,-0.03158983,1.14874,0.96878
248.391,17.54279,-0.03172294,1.14738,0.96841
248.991,17.5608,-0.03192145,1.14802,0.96805
249.591,17.5789,-0.03192006,1.14901,0.96768
250.191,17.597,-0.03192,1.15035,0.96732
250.791,17.61505,-0.03192,1.14966,0.96695
251.391,17.63316,-0.03192,1.15326,0.96658
251.991,17.65125,-0.03192,1.14962,0.96622
252.591,17.66937,-0.03192,1.15172,0.96585
253.191,17.68744,-0.03192,1.15341,0.96548
253.791,17.7056,-0.03192,1.15346,0.96512
254.391,17.72373,-0.03192,1.15253,0.96475
254.991,17.74186,-0.03192,1.15244,0.96438
255.591,17.75999,-0.03192,1.15178,0.96401
256.191,17.77808,-0.03192,1.15384,0.96365
256.791,17.79619,-0.03192,1.15465,0.96328
257.391,17.8142,-0.03192,1.154,0.96291
257.991,17.8323,-0.03192,1.15542,0.96254
258.591,17.8504,-0.03191992,1.15675,0.96217
259.191,17.86842,-0.03192233,1.15699,0.9618
259.791,17.88649,-0.0322339,1.15708,0.96144
260.391,17.90458,-0.03289955,1.1565,0.96107
260.991,17.92268,-0.03290834,1.15941,0.9607
261.591,17.94073,-0.03293662,1.15942,0.96033
262.191,17.9587,-0.03323628,1.15946,0.95996
262.791,17.9767,-0.03324017,1.15856,0.95959
263.391,17.99464,-0.03324,1.1595,0.95922
263.991,18.0126,-0.03324,1.15952,0.95885
264.591,18.0308,-0.03324,1.1579,0.95848
265.191,18.04893,-0.03324,1.16181,0.95811
265.791,18.06713,-0.03324,1.15846,0.95773
266.391,18.08534,-0.03323994,1.16362,0.95736
266.991,18.10345,-0.03324414,1.16236,0.95699
267.591,18.1216,-0.03373285,1.164,0.95662
268.191,18.13955,-0.03422801,1.16772,0.95625
268.791,18.1576,-0.03423025,1.16511,0.95588
269.391,18.1757,-0.03422928,1.16755,0.9555
269.991,18.19383,-0.03423678,1.16868,0.95513
270.591,18.21204,-0.03298976,1.16992,0.95476
271.191,18.23019,-0.03285832,1.16717,0.95439
271.791,18.24824,-0.03426613,1.16869,0.95401
272.391,18.26631,-0.03422034,1.16782,0.95364
272.991,18.28431,-0.03422005,1.1708,0.95327
273.591,18.30229,-0.03421643,1.17203,0.95289
274.191,18.3204,-0.0342498,1.17155,0.95252
274.791,18.33851,-0.03487155,1.16963,0.95214
275.391,18.35666,-0.03488035,1.1724,0.95177
275.991,18.37484,-0.03487987,1.17713,0.9514
276.591,18.3929,-0.03487867,1.17537,0.95102
277.191,18.411,-0.03525156,1.17643,0.95065
277.791,18.42904,-0.03618618,1.17438,0.95027
278.391,18.44709,-0.03620009,1.17588,0.9499
278.991,18.46527,-0.03619993,1.17891,0.94952
279.591,18.4834,-0.03620483,1.17766,0.94914
280.191,18.50154,-0.03667355,1.18069,0.94877
280.791,18.51964,-0.03752175,1.17955,0.94839
281.391,18.5377,-0.03751975,1.18269,0.94802
281.991,18.55576,-0.03752001,1.18192,0.94764
282.591,18.57385,-0.03751999,1.18339,0.94726
283.191,18.5919,-0.03751967,1.18548,0.94689
283.791,18.61005,-0.03758154,1.18761,0.94651
284.391,18.62823,-0.03880608,1.18693,0.94613
284.991,18.64633,-0.03882266,1.18986,0.94576
285.591,18.66453,-0.03950711,1.18825,0.94538
286.191,18.6827,-0.0394895,1.18942,0.945
286.791,18.70076,-0.03949001,1.19253,0.94462
287.391,18.7189,-0.03949019,1.1936,0.94425
287.991,18.73694,-0.03947645,1.19326,0.94387
288.591,18.75505,-0.03861776,1.19568,0.94349
289.191,18.77317,-0.03817056,1.19682,0.94311
289.791,18.79131,-0.03816991,1.19853,0.94273
290.391,18.80944,-0.03816673,1.20125,0.94235
290.991,18.8276,-0.0382264,1.20342,0.94197
291.591,18.84574,-0.04004722,1.20497,0.94159
292.191,18.86391,-0.04079412,1.20614,0.94121
292.791,18.88213,-0.04095699,1.20768,0.94083
293.391,18.90029,-0.0421168,1.21203,0.94045
293.991,18.91846,-0.04211955,1.20984,0.94007
294.591,18.93661,-0.04212002,1.21157,0.93969
295.191,18.9547,-0.04211999,1.21193,0.93931
295.791,18.9728,-0.04211986,1.21576,0.93893
296.391,18.99089,-0.04213781,1.21921,0.93855
296.991,19.0089,-0.04289764,1.21872,0.93817
297.591,19.02703,-0.04212556,1.22369,0.93779
298.191,19.0452,-0.04233678,1.2228,0.93741
298.791,19.0633,-0.0434573,1.22753,0.93703
299.391,19.08154,-0.0434459,1.23144,0.93665
299.991,19.09975,-0.04405883,1.23182,0.93626
300.591,19.1179,-0.04474666,1.23413,0.93588
301.191,19.13614,-0.04533842,1.23563,0.9355
301.791,19.1543,-0.04713379,1.23745,0.93512
302.391,19.17241,-0.04738861,1.24155,0.93473
302.991,19.19056,-0.04738872,1.24303,0.93435
303.591,19.2087,-0.04744319,1.24377,0.93397
304.191,19.22687,-0.04871316,1.24641,0.93359
304.791,19.24501,-0.04870741,1.24789,0.9332
305.391,19.2632,-0.04895356,1.25195,0.93282
305.991,19.28134,-0.05000824,1.25436,0.93244
306.591,19.29954,-0.05001275,1.25371,0.93205
307.191,19.31774,-0.05135538,1.25847,0.93167
307.791,19.33589,-0.05141454,1.25889,0.93128
308.391,19.35408,-0.05290266,1.2621,0.9309
308.991,19.37228,-0.05281791,1.26489,0.93052
309.591,19.39049,-0.05490513,1.26653,0.93013
310.191,19.4087,-0.05483769,1.27051,0.92975
310.791,19.42694,-0.05484499,1.27078,0.92936
311.391,19.4451,-0.05612014,1.27746,0.92898
311.991,19.46323,-0.05638817,1.2777,0.92859
312.591,19.4814,-0.05765494,1.27979,0.9282
313.191,19.4996,-0.05919917,1.28516,0.92782
313.791,19.51782,-0.05967333,1.2889,0.92743
314.391,19.53615,-0.06085262,1.29155,0.92705
314.991,19.5544,-0.0610115,1.29425,0.92666
315.591,19.57255,-0.06107237,1.29579,0.92627
316.191,19.59065,-0.0625669,1.30287,0.92589
316.791,19.60882,-0.06265926,1.30601,0.9255
317.391,19.627,-0.06394376,1.30994,0.92511
317.991,19.6452,-0.06488043,1.3141,0.92473
318.591,19.66356,-0.0657901,1.32107,0.92434
319.191,19.68179,-0.0672477,1.32531,0.92395
319.791,19.70007,-0.06910232,1.32993,0.92357
320.391,19.7183,-0.06953052,1.33517,0.92318
320.991,19.7365,-0.07057988,1.34051,0.92279
321.591,19.75477,-0.07223756,1.34769,0.9224
322.191,19.77296,-0.07333141,1.35066,0.92201
322.791,19.79121,-0.07436984,1.35829,0.92162
323.391,19.80949,-0.07637757,1.36272,0.92124
323.991,19.8277,-0.07821817,1.368,0.92085
324.591,19.84596,-0.07931825,1.38039,0.92046
325.191,19.86423,-0.08110519,1.38354,0.92007
325.791,19.88242,-0.08305382,1.39271,0.91968
326.391,19.90067,-0.08641791,1.39991,0.91929
326.991,19.91893,-0.08783637,1.40753,0.9189
327.591,19.9372,-0.08965279,1.4154,0.91851
328.191,19.9555,-0.08998318,1.42425,0.91812
328.791,19.9738,-0.09175845,1.43223,0.91773
329.391,19.9921,-0.09365618,1.4412,0.91734
329.991,20.01037,-0.0954997,1.44907,0.91695
330.591,20.0287,-0.09754593,1.4598,0.91656
331.191,20.047,-0.09842407,1.46925,0.91617
331.791,20.06524,-0.10091,1.48037,0.91578
332.391,20.08357,-0.1032,1.49245,0.91539
332.991,20.10184,-0.10571,1.5032,0.915
333.591,20.12017,-0.10829,1.51604,0.91461
334.191,20.13847,-0.11108,1.53004,0.91421
334.791,20.15673,-0.11321,1.54489,0.91382
335.391,20.175,-0.11596,1.56095,0.91343
335.991,20.19329,-0.11813,1.57679,0.91304
336.591,20.2116,-0.1214,1.59657,0.91265
337.191,20.22992,-0.12489,1.61517,0.91225
337.791,20.24825,-0.12832,1.6328,0.91186
338.391,20.26661,-0.13259,1.65408,0.91147
338.991,20.28496,-0.13592,1.67255,0.91108
339.591,20.30333,-0.13944,1.6959,0.91068
340.191,20.32176,-0.14287,1.71858,0.91029
340.791,20.3401,-0.14711,1.74072,0.9099
341.391,20.3585,-0.1507,1.76413,0.9095
341.991,20.37694,-0.15485,1.78846,0.90911
342.591,20.3953,-0.15857,1.8145,0.90872
343.191,20.41365,-0.16306,1.84176,0.90832
343.791,20.432,-0.16834,1.87061,0.90793
344.391,20.45039,-0.17345,1.90048,0.90754
344.991,20.46885,-0.17868,1.93266,0.90714
345.591,20.48736,-0.18423,1.96621,0.90675
346.191,20.50585,-0.18888,2.00302,0.90635
346.791,20.52429,-0.19494,2.03973,0.90596
347.391,20.54265,-0.20073,2.07638,0.90556
347.991,20.56105,-0.20616,2.11708,0.90517
348.591,20.57951,-0.21284,2.1561,0.90477
349.191,20.59799,-0.21819,2.2024,0.90438
349.791,20.6164,-0.2252,2.24815,0.90398
350.391,20.63481,-0.23253,2.30043,0.90359
350.991,20.65329,-0.23898,2.36183,0.90319
351.591,20.67176,-0.24721,2.42503,0.90279
352.191,20.69033,-0.25458,2.48466,0.9024
352.791,20.70895,-0.26254,2.54279,0.902
353.391,20.72743,-0.27155,2.60663,0.9016
353.991,20.74597,-0.27949,2.67261,0.90121
354.591,20.76452,-0.29017,2.74573,0.90081
355.191,20.78304,-0.29996,2.81819,0.90041
355.791,20.80155,-0.30953,2.89595,0.90002
356.391,20.82011,-0.32176,2.97745,0.89962
356.991,20.83866,-0.33106,3.02356,0.89922
357.591,20.85727,-0.34285,3.05741,0.89883
358.191,20.8759,-0.35462,3.11289,0.89843
358.791,20.89451,-0.36548,3.18093,0.89803
359.391,20.91317,-0.37875,3.26145,0.89763
359.991,20.93179,-0.38963,3.35123,0.89723
360.591,20.95046,-0.40314,3.45266,0.89684
361.191,20.96912,-0.41632,3.57627,0.89644
361.791,20.98779,-0.42983,3.717,0.89604
362.391,21.00648,-0.44714,3.85339,0.89564
362.991,21.0252,-0.4612,3.99156,0.89524
363.591,21.0439,-0.47853,4.13966,0.89484
364.191,21.06263,-0.4954,4.31098,0.89444
364.791,21.08134,-0.51241,4.47855,0.89404
365.391,21.10015,-0.53421,4.65533,0.89365
365.991,21.11893,-0.55266,4.86198,0.89325
366.591,21.1377,-0.57595,5.06729,0.89285
367.191,21.15655,-0.59758,5.27376,0.89245
367.791,21.17538,-0.62001,5.49052,0.89205
368.391,21.19431,-0.64685,5.71287,0.89165
368.991,21.21332,-0.67005,5.9576,0.89125
369.591,21.23229,-0.70046,6.08823,0.89085
370.191,21.2513,-0.72693,6.17828,0.89044
370.791,21.2702,-0.75989,6.28028,0.89004
371.391,21.2892,-0.79539,6.39557,0.88964
371.991,21.30825,-0.83081,6.5238,0.88924
372.591,21.32733,-0.87412,6.66592,0.88884
373.191,21.3464,-0.90989,6.83295,0.88844
373.791,21.36543,-0.95562,7.00613,0.88804
374.391,21.38441,-0.99414,7.20699,0.88764
374.991,21.4034,-1.03853,7.40342,0.88724
375.591,21.4224,-1.08415,7.58735,0.88683
376.191,21.44156,-1.12526,7.78658,0.88643
376.791,21.46065,-1.17474,7.96676,0.88603
377.391,21.47973,-1.22922,8.18285,0.88563
377.991,21.49881,-1.30644,8.38175,0.88523
378.591,21.51786,-1.34873,8.65438,0.88482
379.191,21.53698,-1.3952,9.02057,0.88442
379.791,21.55605,-1.44721,9.39727,0.88402
380.391,21.57518,-1.49881,9.76156,0.88361
380.991,21.5944,-1.55169,10.10599,0.88321
381.591,21.61364,-1.60843,10.42678,0.88281
382.191,21.6329,-1.66561,10.73035,0.8824
382.791,21.6523,-1.72401,11.01469,0.882
383.391,21.67152,-1.78264,11.27493,0.8816
383.991,21.69088,-1.84242,11.51957,0.88119
384.591,21.7103,-1.90372,11.7484,0.88079
385.191,21.72971,-1.96675,11.9467,0.88039
385.791,21.74902,-2.03017,12.12177,0.87998
386.391,21.76834,-2.09409,12.2799,0.87958
386.991,21.78765,-2.15852,12.41663,0.87917
387.591,21.80699,-2.22322,12.5228,0.87877
388.191,21.82645,-2.28852,12.60431,0.87836
388.791,21.8458,-2.35311,12.67197,0.87796
389.391,21.8651,-2.41792,12.70923,0.87755
389.991,21.88431,-2.48251,12.70828,0.87715
390.591,21.9035,-2.54816,12.67343,0.87674
391.191,21.92269,-2.61283,12.6036,0.87634
391.791,21.94182,-2.67631,12.49925,0.87593
392.391,21.9609,-2.73935,12.36495,0.87553
392.991,21.97994,-2.80141,12.195,0.87512
393.591,21.9989,-2.86171,11.9938,0.87472
394.191,22.01781,-2.92029,11.7524,0.87431
394.791,22.03664,-2.97741,11.48178,0.8739
395.391,22.05547,-3.03389,11.1729,0.8735
395.991,22.07418,-3.08811,10.82807,0.87309
396.591,22.09291,-3.14104,10.4512,0.87268
397.191,22.11155,-3.19021,10.0312,0.87228
397.791,22.13,-3.23733,9.58175,0.87187
398.391,22.14845,-3.28198,9.09245,0.87146
398.991,22.16677,-3.32534,8.57439,0.87106
399.591,22.18505,-3.35987,8.0243,0.87065
400.191,22.20325,-3.39338,7.44569,0.87024
400.791,22.2214,-3.4272,6.84771,0.86983
401.391,22.23948,-3.45855,6.24284,0.86943
401.991,22.2575,-3.48611,5.6397,0.86902
402.591,22.27544,-3.51072,5.054,0.86861
403.191,22.29334,-3.5331,4.49116,0.8682
403.791,22.31117,-3.55244,3.96233,0.8678
404.391,22.32899,-3.57013,3.46988,0.86739
404.991,22.34675,-3.58615,3.021,0.86698
405.591,22.36457,-3.59969,2.61004,0.86657
406.191,22.3824,-3.61107,2.2416,0.86616
406.791,22.40015,-3.62082,1.9174,0.86575
407.391,22.41793,-3.62947,1.63172,0.86534
407.991,22.43565,-3.63709,1.3858,0.86493
408.591,22.45342,-3.6437,1.16621,0.86453
409.191,22.47123,-3.64901,0.97486,0.86412
409.791,22.489,-3.65356,0.80804,0.86371
410.391,22.50676,-3.65784,0.66279,0.8633
410.991,22.5244,-3.66201,0.53877,0.86289
411.591,22.54223,-3.66584,0.42747,0.86248
412.191,22.56018,-3.66894,0.33134,0.86207
412.791,22.57818,-3.67193,0.24361,0.86166
413.391,22.59635,-3.67508,0.16979,0.86125
413.991,22.61433,-3.67797,0.10402,0.86084
414.591,22.6323,-3.6808,0.0457558,0.86043
415.191,22.65029,-3.68299,-0.003366509,0.86002
415.791,22.66838,-3.68531,-0.04703854,0.85961
416.391,22.6865,-3.68752,-0.08467318,0.8592
416.991,22.70466,-3.68841,-0.12211,0.85878
417.591,22.7228,-3.68926,-0.1511,0.85837
418.191,22.74098,-3.69061,-0.17551,0.85796
418.791,22.7592,-3.69255,-0.19974,0.85755
419.391,22.7774,-3.69501,-0.22277,0.85714
419.991,22.79565,-3.69658,-0.24156,0.85673
420.591,22.81389,-3.69772,-0.25367,0.85632
421.191,22.83201,-3.69891,-0.26803,0.8559
421.791,22.85031,-3.70057,-0.28123,0.85549
422.391,22.86865,-3.70253,-0.29431,0.85508
422.991,22.88704,-3.70382,-0.30289,0.85467
423.591,22.90561,-3.70492,-0.31122,0.85426
424.191,22.92401,-3.70589,-0.31787,0.85384
424.791,22.94246,-3.70769,-0.32555,0.85343
425.391,22.96086,-3.70851,-0.33168,0.85302
425.991,22.97918,-3.70925,-0.33481,0.85261
426.591,22.99765,-3.7104,-0.3394,0.85219
427.191,23.0161,-3.71056,-0.34407,0.85178
427.791,23.03458,-3.71191,-0.34886,0.85137
428.391,23.05314,-3.71284,-0.34866,0.85095
428.991,23.07164,-3.71404,-0.35413,0.85054
429.591,23.09016,-3.71563,-0.35644,0.85013
430.191,23.1087,-3.71703,-0.35772,0.84971
430.791,23.1273,-3.71765,-0.36096,0.8493
431.391,23.14592,-3.71879,-0.36058,0.84889
431.991,23.16455,-3.72025,-0.36324,0.84847
432.591,23.1831,-3.72101,-0.36458,0.84806
433.191,23.20172,-3.7219,-0.36697,0.84764
433.791,23.22026,-3.7233,-0.36094,0.84723
434.391,23.23878,-3.72325,-0.36269,0.84681
434.991,23.25742,-3.7253,-0.36365,0.8464
435.591,23.27608,-3.72567,-0.36618,0.84598
436.191,23.29475,-3.727,-0.36612,0.84557
436.791,23.3133,-3.72811,-0.36337,0.84516
437.391,23.33183,-3.72876,-0.366,0.84474
437.991,23.35051,-3.73033,-0.36566,0.84432
438.591,23.36921,-3.73193,-0.36571,0.84391
439.191,23.38805,-3.73267,-0.36194,0.84349
439.791,23.4068,-3.73382,-0.36491,0.84308
440.391,23.4254,-3.73525,-0.36411,0.84266
440.991,23.44414,-3.73575,-0.36442,0.84225
441.591,23.4629,-3.73704,-0.36448,0.84183
442.191,23.4817,-3.73883,-0.36445,0.84142
442.791,23.50045,-3.73949,-0.3644,0.841
443.391,23.51923,-3.74054,-0.36096,0.84058
443.991,23.53805,-3.74206,-0.36173,0.84017
444.591,23.55679,-3.74344,-0.3614,0.83975
445.191,23.57558,-3.74372,-0.36005,0.83933
445.791,23.59436,-3.74509,-0.36063,0.83892
446.391,23.61308,-3.74653,-0.3626,0.8385
446.991,23.63195,-3.74701,-0.36379,0.83808
447.591,23.65079,-3.74801,-0.36158,0.83767
448.191,23.66966,-3.74981,-0.36302,0.83725
448.791,23.68854,-3.75066,-0.36298,0.83683
449.391,23.7074,-3.75127,-0.36518,0.83641
449.991,23.72624,-3.75375,-0.36295,0.836
450.591,23.74503,-3.75477,-0.36541,0.83558
451.191,23.76391,-3.75583,-0.36615,0.83516
451.791,23.78275,-3.75713,-0.36376,0.83474
452.391,23.8017,-3.75861,-0.36597,0.83433
452.991,23.82056,-3.76018,-0.36538,0.83391
453.591,23.83942,-3.76083,-0.36451,0.83349
454.191,23.8583,-3.76175,-0.36473,0.83307
454.791,23.8771,-3.7634,-0.36874,0.83265
455.391,23.8961,-3.76396,-0.3679,0.83224
455.991,23.91499,-3.76486,-0.3679,0.83182
456.591,23.9339,-3.76602,-0.36699,0.8314
457.191,23.9528,-3.76668,-0.37157,0.83098
457.791,23.97165,-3.76816,-0.3702,0.83056
458.391,23.99052,-3.76958,-0.3715,0.83014
458.991,24.0093,-3.77015,-0.3702,0.82972
459.591,24.02825,-3.77024,-0.37278,0.8293
460.191,24.04713,-3.77188,-0.37226,0.82888
460.791,24.06609,-3.77341,-0.37424,0.82846
461.391,24.0851,-3.77425,-0.37361,0.82804
461.991,24.10415,-3.77494,-0.37331,0.82762
462.591,24.1232,-3.77781,-0.37476,0.8272
463.191,24.14215,-3.77884,-0.37435,0.82678
463.791,24.16111,-3.77951,-0.37534,0.82636
464.391,24.18,-3.78099,-0.37675,0.82594
464.991,24.19902,-3.78266,-0.37463,0.82552
465.591,24.21797,-3.78313,-0.37385,0.8251
466.191,24.23701,-3.78422,-0.37624,0.82468
466.791,24.25606,-3.78591,-0.37604,0.82426
467.391,24.27502,-3.78672,-0.37591,0.82384
467.991,24.29401,-3.78738,-0.37952,0.82342
468.591,24.313,-3.78889,-0.37843,0.823
469.191,24.332,-3.79058,-0.37729,0.82258
469.791,24.35096,-3.79153,-0.37857,0.82216
470.391,24.3698,-3.79234,-0.38055,0.82174
470.991,24.38864,-3.79299,-0.38034,0.82132
471.591,24.40772,-3.79505,-0.37819,0.82089
472.191,24.42676,-3.79679,-0.37783,0.82047
472.791,24.4459,-3.79733,-0.38042,0.82005
473.391,24.46511,-3.7983,-0.38087,0.81963
473.991,24.48413,-3.79995,-0.3863,0.81921
474.591,24.50331,-3.80148,-0.38145,0.81879
475.191,24.52251,-3.80303,-0.38164,0.81836
475.791,24.5415,-3.80414,-0.38341,0.81794
476.391,24.5606,-3.80589,-0.38326,0.81752
476.991,24.57968,-3.80763,-0.38255,0.8171
477.591,24.59873,-3.80869,-0.38488,0.81667
478.191,24.61777,-3.80965,-0.38489,0.81625
478.791,24.63682,-3.81139,-0.38299,0.81583
479.391,24.65587,-3.81345,-0.38688,0.81541
479.991,24.675,-3.81423,-0.38873,0.81498
480.591,24.6939,-3.81517,-0.38876,0.81456
481.191,24.713,-3.81652,-0.39006,0.81414
481.791,24.73205,-3.81841,-0.39052,0.81371
482.391,24.75112,-3.82004,-0.39122,0.81329
482.991,24.77035,-3.8209,-0.39215,0.81287
483.591,24.7895,-3.8219,-0.39468,0.81244
484.191,24.80861,-3.82339,-0.39356,0.81202
484.791,24.82777,-3.82525,-0.39595,0.8116
485.391,24.84676,-3.82652,-0.40058,0.81117
485.991,24.8659,-3.82827,-0.40069,0.81075
486.591,24.88499,-3.82936,-0.40119,0.81032
487.191,24.90408,-3.83131,-0.40148,0.8099
487.791,24.9233,-3.83199,-0.40562,0.80947
488.391,24.94237,-3.83276,-0.41349,0.80905
488.991,24.96154,-3.83365,-0.4126,0.80863
489.591,24.98069,-3.83434,-0.41388,0.8082
490.191,24.99983,-3.83606,-0.41709,0.80778
490.791,25.01898,-3.83767,-0.4175,0.80735
491.391,25.03805,-3.83858,-0.42111,0.80693
491.991,25.0571,-3.83921,-0.42791,0.8065
492.591,25.07628,-3.84047,-0.42926,0.80608
493.191,25.09546,-3.84065,-0.43075,0.80565
493.791,25.11465,-3.84175,-0.43593,0.80523
494.391,25.13391,-3.84199,-0.4347,0.8048
494.991,25.15309,-3.84339,-0.44125,0.80438
495.591,25.17226,-3.84336,-0.44722,0.80395
496.191,25.19146,-3.84475,-0.44667,0.80352
496.791,25.21059,-3.84549,-0.44972,0.8031
497.391,25.22976,-3.84651,-0.45371,0.80267
497.991,25.24879,-3.84798,-0.45706,0.80225
498.591,25.26792,-3.8491,-0.46138,0.80182
499.191,25.28705,-3.84933,-0.45998,0.80139
499.791,25.30619,-3.84993,-0.46363,0.80097
500.391,25.32545,-3.85064,-0.46518,0.80054
500.991,25.34467,-3.85064,-0.46917,0.80011
501.591,25.36383,-3.85077,-0.47217,0.79969
502.191,25.38307,-3.85198,-0.47379,0.79926
502.791,25.4023,-3.85196,-0.47781,0.79883
503.391,25.42151,-3.85196,-0.48128,0.79841
503.991,25.44078,-3.85196,-0.48136,0.79798
504.591,25.46,-3.85295,-0.48825,0.79755
505.191,25.4792,-3.85328,-0.48691,0.79713
505.791,25.49841,-3.85328,-0.49073,0.7967
506.391,25.5176,-3.85323,-0.49611,0.79627
506.991,25.53679,-3.85464,-0.49353,0.79584
507.591,25.55603,-3.85459,-0.49662,0.79542
508.191,25.5753,-3.85459,-0.49789,0.79499
508.791,25.59456,-3.85459,-0.49893,0.79456
509.391,25.61383,-3.85462,-0.5022,0.79413
509.991,25.633,-3.85591,-0.50085,0.79371
510.591,25.6522,-3.85591,-0.50774,0.79328
511.191,25.67141,-3.85592,-0.50481,0.79285
511.791,25.69063,-3.85702,-0.5088,0.79242
512.391,25.70988,-3.85722,-0.51142,0.79199
512.991,25.72916,-3.85722,-0.51094,0.79156
513.591,25.7484,-3.85722,-0.51229,0.79114
514.191,25.76764,-3.85724,-0.50799,0.79071
514.791,25.7868,-3.85854,-0.50494,0.79028
515.391,25.806,-3.85854,-0.49971,0.78985
515.991,25.82519,-3.85854,-0.49362,0.78942
516.591,25.84433,-3.85854,-0.48701,0.78899
517.191,25.86358,-3.85854,-0.48047,0.78856
517.791,25.88281,-3.85854,-0.4747,0.78813
518.391,25.90202,-3.85854,-0.47436,0.7877
518.991,25.9211,-3.85854,-0.47056,0.78727
519.591,25.9403,-3.85854,-0.47179,0.78684
520.191,25.95946,-3.85854,-0.47263,0.78641
520.791,25.97877,-3.85854,-0.47245,0.78598
521.391,25.99825,-3.85854,-0.47434,0.78556
521.991,26.0176,-3.85854,-0.47813,0.78513
522.591,26.03696,-3.85855,-0.48278,0.7847
523.191,26.05625,-3.8589,-0.48897,0.78427
523.791,26.07565,-3.85898,-0.49228,0.78383
524.391,26.09495,-3.8592,-0.49772,0.7834
524.991,26.1143,-3.8592,-0.50068,0.78297
525.591,26.13362,-3.8592,-0.50437,0.78254
526.191,26.15292,-3.8592,-0.50927,0.78211
526.791,26.17225,-3.8592,-0.51141,0.78168
527.391,26.19156,-3.8592,-0.51497,0.78125
527.991,26.2109,-3.8592,-0.51804,0.78082
528.591,26.2302,-3.8592,-0.5236,0.78039
529.191,26.24953,-3.8592,-0.52867,0.77996
529.791,26.2689,-3.8592,-0.53295,0.77953
530.391,26.28835,-3.85962,-0.53783,0.7791
530.991,26.30769,-3.85985,-0.53845,0.77867
531.591,26.3271,-3.85985,-0.54433,0.77823
532.191,26.3465,-3.85985,-0.55042,0.7778
532.791,26.3659,-3.86041,-0.55665,0.77737
533.391,26.38525,-3.86116,-0.55976,0.77694
533.991,26.40448,-3.86117,-0.56319,0.77651
534.591,26.4238,-3.86117,-0.56995,0.77608
535.191,26.4432,-3.86117,-0.58044,0.77564
535.791,26.4626,-3.86117,-0.58075,0.77521
536.391,26.4821,-3.86111,-0.58635,0.77478
536.991,26.50155,-3.85984,-0.59205,0.77435
537.591,26.52093,-3.85986,-0.59468,0.77392
538.191,26.5403,-3.85986,-0.59895,0.77348
538.791,26.55975,-3.85986,-0.60207,0.77305
539.391,26.57907,-3.85986,-0.60598,0.77262
539.991,26.59849,-3.85986,-0.61302,0.77219
540.591,26.61792,-3.86004,-0.61236,0.77175
541.191,26.63737,-3.86119,-0.61712,0.77132
541.791,26.65682,-3.86117,-0.61854,0.77089
542.391,26.67625,-3.86117,-0.62095,0.77045
542.991,26.69567,-3.86117,-0.62358,0.77002
543.591,26.71508,-3.86117,-0.62487,0.76959
544.191,26.7345,-3.86118,-0.63079,0.76915
544.791,26.75393,-3.86084,-0.63075,0.76872
545.391,26.77328,-3.86182,-0.63237,0.76829
545.991,26.79257,-3.86215,-0.63103,0.76785
546.591,26.81186,-3.86195,-0.63329,0.76742
547.191,26.8311,-3.86118,-0.63792,0.76699
547.791,26.8505,-3.86117,-0.63784,0.76655
548.391,26.86999,-3.86117,-0.64278,0.76612
548.991,26.8894,-3.86121,-0.63985,0.76568
549.591,26.90887,-3.85981,-0.63874,0.76525
550.191,26.92827,-3.85986,-0.642,0.76482
550.791,26.94769,-3.85986,-0.64369,0.76438
551.391,26.96717,-3.8599,-0.64608,0.76395
551.991,26.9866,-3.86052,-0.64646,0.76351
552.591,27.0061,-3.86081,-0.64803,0.76308
553.191,27.02555,-3.86184,-0.64344,0.76264
553.791,27.04502,-3.86243,-0.64794,0.76221
554.391,27.06444,-3.86248,-0.65003,0.76177
554.991,27.0839,-3.86248,-0.64771,0.76134
555.591,27.10342,-3.86248,-0.65057,0.76091
556.191,27.1229,-3.86248,-0.6483,0.76047
556.791,27.1424,-3.86248,-0.6505,0.76003
557.391,27.1619,-3.86248,-0.65258,0.7596
557.991,27.18129,-3.86248,-0.6538,0.75916
558.591,27.20073,-3.86248,-0.65351,0.75873
559.191,27.2203,-3.86248,-0.65549,0.75829
559.791,27.2397,-3.86248,-0.65515,0.75786
560.391,27.25933,-3.86248,-0.6545,0.75742
560.991,27.27895,-3.86248,-0.65919,0.75699
561.591,27.2985,-3.86248,-0.656,0.75655
562.191,27.3181,-3.86248,-0.65885,0.75612
562.791,27.3376,-3.86248,-0.65691,0.75568
563.391,27.35714,-3.86248,-0.65978,0.75524
563.991,27.3766,-3.86248,-0.66468,0.75481
564.591,27.39617,-3.86256,-0.66371,0.75437
565.191,27.41572,-3.86382,-0.66383,0.75393
565.791,27.4353,-3.8638,-0.66637,0.7535
566.391,27.45485,-3.8638,-0.66492,0.75306
566.991,27.47435,-3.8638,-0.66416,0.75263
567.591,27.4939,-3.8638,-0.66685,0.75219
568.191,27.51339,-3.8638,-0.66509,0.75175
568.791,27.53293,-3.86319,-0.66369,0.75132
569.391,27.5525,-3.86248,-0.66847,0.75088
569.991,27.5721,-3.86248,-0.66453,0.75044
570.591,27.5915,-3.86248,-0.67237,0.75
571.191,27.61109,-3.86248,-0.67174,0.74957
571.791,27.6307,-3.86248,-0.67024,0.74913
572.391,27.65004,-3.86249,-0.67293,0.74869
572.991,27.66961,-3.86349,-0.67465,0.74826
573.591,27.6892,-3.8638,-0.67474,0.74782
574.191,27.7088,-3.8638,-0.67616,0.74738
574.791,27.72863,-3.8638,-0.67488,0.74694
575.391,27.7482,-3.8638,-0.67491,0.74651
575.991,27.76773,-3.8638,-0.67571,0.74607
576.591,27.7873,-3.86376,-0.67441,0.74563
577.191,27.80688,-3.86282,-0.67563,0.74519
577.791,27.82641,-3.86282,-0.67589,0.74475
578.391,27.8459,-3.86282,-0.67704,0.74432
578.991,27.8655,-3.86282,-0.67775,0.74388
579.591,27.88505,-3.86282,-0.67847,0.74344
580.191,27.90454,-3.86282,-0.67579,0.743
580.791,27.92395,-3.86282,-0.67686,0.74256
581.391,27.94333,-3.86283,-0.67901,0.74212
581.991,27.9629,-3.86332,-0.67722,0.74169
582.591,27.98275,-3.86345,-0.67954,0.74125
583.191,28.00259,-3.86416,-0.68105,0.74081
583.791,28.0223,-3.86413,-0.68179,0.74037
584.391,28.04198,-3.86413,-0.68095,0.73993
584.991,28.0615,-3.86413,-0.68028,0.73949
585.591,28.08117,-3.86413,-0.67941,0.73905
586.191,28.10085,-3.86413,-0.68281,0.73861
586.791,28.1205,-3.86413,-0.68195,0.73817
587.391,28.1402,-3.86413,-0.68557,0.73774
587.991,28.1599,-3.86413,-0.6826,0.7373
588.591,28.1795,-3.86413,-0.68502,0.73686
589.191,28.199,-3.86413,-0.6825,0.73642
589.791,28.21848,-3.8644,-0.68229,0.73598
590.391,28.2379,-3.86446,-0.68779,0.73554
590.991,28.2576,-3.86448,-0.68667,0.7351
591.591,28.27727,-3.86538,-0.68744,0.73466
592.191,28.2972,-3.86545,-0.68808,0.73422
592.791,28.31707,-3.86545,-0.68831,0.73378
593.391,28.3369,-3.86545,-0.68944,0.73334
593.991,28.35653,-3.86545,-0.68622,0.7329
594.591,28.3762,-3.86545,-0.6871,0.73246
595.191,28.39585,-3.86545,-0.68747,0.73202
595.791,28.41556,-3.86545,-0.68755,0.73158
596.391,28.43535,-3.86545,-0.68846,0.73114
596.991,28.45495,-3.86545,-0.69121,0.7307
597.591,28.4746,-3.86545,-0.68999,0.73026
598.191,28.49437,-3.86544,-0.69081,0.72982
598.791,28.51398,-3.86648,-0.68906,0.72938
599.391,28.53371,-3.86676,-0.69039,0.72893
599.991,28.5534,-3.86676,-0.68896,0.72849
600.591,28.57312,-3.86676,-0.68806,0.72805
601.191,28.59283,-3.86676,-0.68584,0.72761
601.791,28.61252,-3.86676,-0.685,0.72717
602.391,28.63219,-3.86646,-0.68681,0.72673
602.991,28.6519,-3.86548,-0.68619,0.72629
603.591,28.67162,-3.86545,-0.68525,0.72585
604.191,28.6913,-3.86545,-0.68515,0.72541
604.791,28.71107,-3.86545,-0.68284,0.72496
605.391,28.73071,-3.86545,-0.68168,0.72452
605.991,28.75041,-3.86472,-0.68421,0.72408
606.591,28.7701,-3.86447,-0.68301,0.72364
607.191,28.78975,-3.86447,-0.68238,0.7232
607.791,28.8095,-3.86447,-0.67864,0.72276
608.391,28.8291,-3.86447,-0.68045,0.72231
608.991,28.8488,-3.86447,-0.67734,0.72187
609.591,28.8686,-3.86448,-0.68032,0.72143
610.191,28.88826,-3.86532,-0.6781,0.72099
610.791,28.90802,-3.86578,-0.67887,0.72055
611.391,28.9277,-3.86577,-0.6796,0.7201
611.991,28.9474,-3.86682,-0.67827,0.71966
612.591,28.96715,-3.86709,-0.67699,0.71922
613.191,28.9869,-3.86709,-0.67782,0.71878
613.791,29.0066,-3.86677,-0.67554,0.71833
614.391,29.0263,-3.86578,-0.67934,0.71789
614.991,29.04611,-3.86578,-0.67481,0.71745
615.591,29.06594,-3.86578,-0.6748,0.71701
616.191,29.0856,-3.86574,-0.67316,0.71656
616.791,29.1053,-3.86711,-0.67127,0.71612
617.391,29.125,-3.86708,-0.6686,0.71568
617.991,29.14462,-3.86629,-0.6705,0.71524
618.591,29.1644,-3.86578,-0.67144,0.71479
619.191,29.1842,-3.86578,-0.66904,0.71435
619.791,29.20405,-3.86578,-0.66994,0.71391
620.391,29.22375,-3.86573,-0.67,0.71346
620.991,29.24342,-3.86714,-0.66993,0.71302
621.591,29.26316,-3.86709,-0.66537,0.71258
622.191,29.2827,-3.86708,-0.66695,0.71213
622.791,29.3024,-3.86625,-0.66708,0.71169
623.391,29.3221,-3.86611,-0.66672,0.71125
623.991,29.3419,-3.86611,-0.66535,0.7108
624.591,29.36177,-3.86611,-0.6673,0.71036
625.191,29.3816,-3.86659,-0.66358,0.70991
625.791,29.4013,-3.86743,-0.66273,0.70947
626.391,29.42108,-3.86743,-0.66236,0.70903
626.991,29.44087,-3.86743,-0.66017,0.70858
627.591,29.46065,-3.86816,-0.65909,0.70814
628.191,29.48047,-3.86874,-0.65854,0.70769
628.791,29.50027,-3.86874,-0.65597,0.70725
629.391,29.52005,-3.86874,-0.65641,0.70681
629.991,29.5397,-3.86874,-0.65746,0.70636
630.591,29.5594,-3.86874,-0.65389,0.70592
631.191,29.57917,-3.86874,-0.65079,0.70547
631.791,29.59887,-3.86817,-0.64973,0.70503
632.391,29.61872,-3.86808,-0.65175,0.70458
632.991,29.63853,-3.86808,-0.6493,0.70414
633.591,29.65826,-3.86808,-0.64852,0.70369
634.191,29.67805,-3.86808,-0.64871,0.70325
634.791,29.6978,-3.86808,-0.64766,0.7028
635.391,29.7177,-3.86808,-0.64854,0.70236
635.991,29.7375,-3.86808,-0.64486,0.70191
636.591,29.7571,-3.86808,-0.64354,0.70147
637.191,29.77673,-3.86808,-0.64397,0.70102
637.791,29.7964,-3.86808,-0.64394,0.70058
638.391,29.8162,-3.86808,-0.63811,0.70013
638.991,29.8361,-3.86808,-0.63813,0.69969
639.591,29.85602,-3.86808,-0.6377,0.69924
640.191,29.8758,-3.86808,-0.6383,0.6988
640.791,29.89565,-3.86808,-0.64003,0.69835
641.391,29.9154,-3.86808,-0.63857,0.69791
641.991,29.9351,-3.86807,-0.63406,0.69746
642.591,29.9549,-3.86918,-0.63655,0.69702
643.191,29.9747,-3.86939,-0.63563,0.69657
643.791,29.9944,-3.86939,-0.63573,0.69612
643.891,29.9977,-3.86939,-0.63447,0.69605