File: 01_Data/Window_Screen/MCC/Window_Screen_MCC_30K_min_211203_R3.txt
Sample ID:	C:\MCC\MCC Cal\Test\Window_Screen_MCC_30K_min_211203_R3.txt
Sample Weight (mg):	4.33
Heating Rate (C/s):	0.5
Combustor Temp (C):	900
N2 Flow Rate (cc/min):	80
O2 Flow Rate (cc/min):	20
Calibration File:	C:\MCC\MCC Cal\Coeff1 JN10440_30_210304.txt.txt
T Correction Coefficients:	0	1.024463	0
Time Shift (s):	14
*
Time (s)	Temperature (C)	N2 flow rate (cc/min)	O2 flow rate (cc/min)	Flow Rate (cc/min)	Oxygen (%)	HRR (W/g)	Heating rate (C/s)
0.000	110.658	80.007	19.994	103.144	20.307	0.265	-0.034
2.000	110.717	80.004	19.993	103.144	20.304	0.468	0.013
4.000	110.683	80.005	19.996	103.141	20.306	0.349	-0.028
6.000	110.630	80.005	19.995	103.141	20.311	-0.004	-0.038
8.000	110.685	80.006	19.993	103.142	20.313	-0.170	0.035
10.001	110.619	80.005	19.993	103.145	20.311	-0.018	0.001
12.000	110.642	80.006	19.993	103.154	20.316	-0.361	0.002
14.001	110.599	80.004	19.994	103.177	20.316	-0.425	-0.010
16.001	110.587	80.005	19.994	103.167	20.312	-0.119	0.013
18.000	110.621	80.005	19.995	103.167	20.315	-0.294	-0.024
20.001	110.635	80.004	19.994	103.171	20.310	0.072	-0.000
22.001	110.688	80.003	19.994	103.179	20.308	0.228	0.008
24.000	110.688	80.004	19.993	103.164	20.309	0.111	0.032
26.000	110.763	80.005	19.995	103.167	20.309	0.144	0.027
28.000	110.829	80.005	19.997	103.200	20.311	0.010	0.022
30.000	110.806	80.005	19.994	103.233	20.307	0.296	-0.022
32.001	110.881	80.007	19.994	103.231	20.304	0.511	0.049
34.001	110.941	80.006	19.995	103.227	20.298	0.947	0.034
36.000	111.051	80.006	19.995	103.249	20.296	1.081	0.038
38.001	111.186	80.005	19.994	103.258	20.294	1.255	0.100
40.001	111.314	80.006	19.994	103.261	20.293	1.295	0.080
42.000	111.468	80.007	19.995	103.268	20.292	1.381	0.090
44.000	111.608	80.005	19.997	103.255	20.289	1.622	0.073
46.001	111.796	80.004	19.995	103.266	20.285	1.938	0.112
48.000	111.989	80.005	19.994	103.289	20.286	1.817	0.076
50.000	112.200	80.005	19.995	103.314	20.285	1.924	0.107
52.000	112.463	80.005	19.995	103.332	20.287	1.731	0.141
54.000	112.699	80.004	19.995	103.333	20.285	1.940	0.098
56.000	112.963	80.005	19.996	103.333	20.280	2.265	0.138
58.001	113.305	80.006	19.995	103.338	20.279	2.364	0.157
60.000	113.659	80.008	19.995	103.344	20.278	2.442	0.129
62.001	114.053	80.006	19.994	103.361	20.277	2.506	0.228
64.001	114.456	80.006	19.994	103.351	20.282	2.149	0.189
66.000	114.871	80.006	19.994	103.338	20.278	2.434	0.200
68.000	115.291	80.008	19.993	103.352	20.277	2.513	0.200
70.000	115.750	80.006	19.994	103.338	20.279	2.328	0.244
72.000	116.196	80.005	19.994	103.352	20.278	2.430	0.248
74.000	116.641	80.003	19.994	103.361	20.279	2.348	0.232
76.000	117.140	80.003	19.993	103.363	20.275	2.624	0.287
78.001	117.707	80.003	19.994	103.362	20.277	2.537	0.241
80.001	118.213	80.004	19.994	103.376	20.275	2.661	0.245
82.001	118.796	80.004	19.995	103.376	20.276	2.550	0.294
84.001	119.364	80.004	19.995	103.374	20.273	2.819	0.293
86.000	119.935	80.006	19.994	103.371	20.276	2.616	0.310
88.000	120.522	80.006	19.995	103.370	20.271	2.963	0.330
90.000	121.116	80.006	19.995	103.375	20.272	2.912	0.293
92.000	121.715	80.006	19.994	103.373	20.267	3.278	0.290
94.000	122.393	80.004	19.995	103.380	20.269	3.101	0.340
96.000	123.082	80.004	19.994	103.396	20.268	3.147	0.329
98.000	123.759	80.004	19.995	103.391	20.266	3.297	0.323
100.000	124.406	80.004	19.994	103.374	20.270	3.021	0.312
102.000	125.132	80.004	19.995	103.388	20.268	3.192	0.372
104.000	125.858	80.003	19.995	103.386	20.270	3.021	0.395
106.001	126.558	80.004	19.995	103.382	20.268	3.159	0.332
108.000	127.309	80.004	19.994	103.396	20.268	3.203	0.364
110.000	128.069	80.005	19.995	103.389	20.268	3.213	0.377
112.001	128.841	80.006	19.993	103.393	20.269	3.135	0.419
114.000	129.644	80.006	19.995	103.382	20.270	2.999	0.436
116.000	130.461	80.007	19.994	103.388	20.270	3.048	0.397
118.001	131.248	80.006	19.995	103.403	20.265	3.396	0.432
120.001	132.080	80.006	19.995	103.407	20.263	3.521	0.441
122.001	132.898	80.005	19.994	103.403	20.264	3.513	0.399
124.001	133.745	80.004	19.994	103.409	20.264	3.489	0.465
126.000	134.606	80.005	19.994	103.411	20.264	3.462	0.454
128.000	135.456	80.005	19.993	103.409	20.264	3.513	0.446
130.000	136.345	80.005	19.994	103.405	20.259	3.865	0.445
132.000	137.163	80.005	19.995	103.406	20.265	3.417	0.379
134.000	138.063	80.006	19.994	103.408	20.264	3.476	0.451
136.000	138.930	80.005	19.993	103.415	20.267	3.287	0.434
138.000	139.883	80.005	19.994	103.410	20.262	3.604	0.507
140.000	140.793	80.005	19.994	103.406	20.261	3.717	0.428
142.000	141.722	80.007	19.995	103.411	20.263	3.546	0.451
144.000	142.620	80.007	19.994	103.410	20.261	3.721	0.436
146.000	143.606	80.008	19.995	103.407	20.267	3.288	0.486
148.001	144.565	80.007	19.993	103.409	20.262	3.609	0.443
150.000	145.511	80.006	19.995	103.402	20.268	3.212	0.483
152.000	146.476	80.004	19.996	103.395	20.261	3.691	0.469
154.000	147.400	80.003	19.996	103.404	20.266	3.358	0.526
156.000	148.402	80.003	19.995	103.398	20.266	3.340	0.484
158.000	149.406	80.003	19.995	103.387	20.259	3.823	0.496
160.000	150.384	80.006	19.995	103.398	20.262	3.601	0.485
162.000	151.374	80.006	19.994	103.385	20.262	3.662	0.487
164.000	152.341	80.005	19.994	103.388	20.260	3.784	0.499
166.000	153.325	80.007	19.994	103.403	20.256	4.049	0.500
168.000	154.305	80.005	19.994	103.400	20.255	4.123	0.519
170.000	155.246	80.004	19.994	103.382	20.257	3.981	0.475
172.000	156.233	80.005	19.994	103.380	20.256	4.068	0.479
174.000	157.241	80.006	19.994	103.381	20.260	3.804	0.517
176.000	158.264	80.006	19.995	103.382	20.257	3.967	0.508
178.000	159.246	80.006	19.994	103.377	20.256	4.053	0.491
180.000	160.251	80.005	19.994	103.379	20.257	4.012	0.536
182.000	161.269	80.004	19.994	103.382	20.256	4.041	0.506
184.000	162.269	80.005	19.995	103.388	20.254	4.248	0.498
186.000	163.319	80.005	19.994	103.380	20.253	4.300	0.543
188.000	164.348	80.004	19.994	103.384	20.252	4.341	0.524
190.000	165.400	80.005	19.995	103.382	20.254	4.211	0.519
192.000	166.399	80.005	19.994	103.392	20.253	4.328	0.517
194.000	167.433	80.005	19.994	103.376	20.252	4.365	0.515
196.000	168.462	80.006	19.994	103.378	20.252	4.345	0.484
198.000	169.504	80.007	19.993	103.377	20.252	4.369	0.511
200.000	170.514	80.007	19.994	103.376	20.247	4.758	0.501
202.000	171.518	80.007	19.994	103.376	20.251	4.464	0.484
204.000	172.517	80.006	19.994	103.376	20.248	4.632	0.497
206.000	173.551	80.007	19.993	103.377	20.246	4.821	0.532
208.000	174.541	80.006	19.994	103.375	20.242	5.128	0.518
210.000	175.636	80.007	19.994	103.371	20.244	4.988	0.527
212.000	176.599	80.007	19.994	103.373	20.244	4.984	0.484
214.001	177.582	80.005	19.994	103.376	20.244	4.955	0.489
216.000	178.630	80.005	19.995	103.361	20.241	5.195	0.509
218.000	179.657	80.005	19.995	103.366	20.240	5.301	0.496
220.000	180.653	80.005	19.994	103.365	20.242	5.135	0.471
222.001	181.659	80.006	19.995	103.368	20.237	5.522	0.492
224.000	182.667	80.007	19.995	103.365	20.239	5.320	0.523
226.000	183.701	80.007	19.995	103.364	20.236	5.596	0.536
228.000	184.688	80.007	19.995	103.349	20.234	5.717	0.494
230.000	185.675	80.008	19.995	103.348	20.229	6.104	0.478
232.000	186.761	80.008	19.994	103.349	20.229	6.054	0.523
234.000	187.757	80.006	19.994	103.343	20.229	6.066	0.548
236.000	188.699	80.005	19.995	103.342	20.228	6.183	0.482
238.000	189.741	80.005	19.995	103.350	20.225	6.379	0.528
240.000	190.790	80.005	19.994	103.346	20.223	6.539	0.511
242.000	191.736	80.005	19.995	103.353	20.221	6.666	0.525
244.000	192.687	80.006	19.995	103.343	20.222	6.582	0.507
246.000	193.676	80.005	19.995	103.349	20.217	6.943	0.498
248.000	194.715	80.004	19.997	103.343	20.217	6.956	0.543
250.000	195.702	80.005	19.995	103.344	20.214	7.223	0.521
252.000	196.661	80.005	19.995	103.339	20.214	7.182	0.498
254.000	197.690	80.003	19.996	103.351	20.210	7.499	0.478
256.000	198.671	80.004	19.994	103.341	20.208	7.642	0.508
258.000	199.643	80.006	19.993	103.336	20.207	7.752	0.479
260.000	200.651	80.007	19.994	103.334	20.205	7.842	0.489
262.000	201.590	80.004	19.995	103.337	20.201	8.164	0.520
264.000	202.589	80.005	19.994	103.343	20.197	8.481	0.494
266.000	203.632	80.004	19.992	103.339	20.191	8.934	0.513
268.000	204.572	80.005	19.994	103.339	20.188	9.153	0.509
270.000	205.581	80.003	19.993	103.341	20.186	9.283	0.495
272.001	206.572	80.004	19.994	103.336	20.180	9.751	0.497
274.000	207.549	80.004	19.995	103.341	20.177	9.956	0.488
276.000	208.532	80.005	19.994	103.343	20.174	10.149	0.478
278.000	209.542	80.005	19.994	103.343	20.170	10.470	0.514
280.000	210.453	80.005	19.994	103.334	20.169	10.583	0.480
282.000	211.410	80.006	19.993	103.336	20.163	11.005	0.491
284.000	212.445	80.006	19.994	103.333	20.156	11.523	0.497
286.000	213.421	80.007	19.996	103.331	20.150	11.966	0.480
288.001	214.383	80.006	19.994	103.331	20.147	12.160	0.450
290.000	215.364	80.007	19.995	103.330	20.145	12.337	0.497
292.000	216.370	80.006	19.994	103.332	20.134	13.152	0.493
294.000	217.342	80.006	19.994	103.334	20.134	13.142	0.521
296.000	218.328	80.006	19.993	103.332	20.126	13.740	0.508
298.000	219.253	80.007	19.994	103.333	20.122	14.063	0.486
300.000	220.236	80.007	19.994	103.336	20.117	14.400	0.477
302.000	221.216	80.006	19.994	103.332	20.113	14.710	0.485
304.000	222.214	80.007	19.993	103.333	20.106	15.235	0.508
306.001	223.176	80.007	19.993	103.334	20.097	15.886	0.449
308.000	224.215	80.009	19.995	103.332	20.091	16.322	0.526
310.000	225.173	80.009	19.993	103.331	20.084	16.910	0.470
312.000	226.181	80.008	19.995	103.333	20.075	17.556	0.472
314.000	227.203	80.008	19.994	103.332	20.074	17.642	0.522
316.000	228.137	80.006	19.995	103.332	20.067	18.174	0.503
318.000	229.148	80.004	19.995	103.332	20.055	19.005	0.507
320.000	230.164	80.004	19.994	103.333	20.047	19.668	0.506
322.001	231.207	80.005	19.995	103.333	20.039	20.248	0.501
324.000	232.139	80.005	19.994	103.334	20.028	21.034	0.478
326.000	233.168	80.004	19.995	103.333	20.019	21.726	0.485
328.000	234.171	80.004	19.996	103.335	20.008	22.538	0.506
330.000	235.168	80.005	19.997	103.336	20.002	22.988	0.521
332.000	236.165	80.005	19.996	103.333	19.991	23.783	0.481
334.000	237.121	80.002	19.994	103.336	19.982	24.498	0.511
336.000	238.164	80.003	19.995	103.335	19.974	25.040	0.487
338.000	239.153	80.004	19.995	103.335	19.959	26.190	0.501
340.000	240.115	80.004	19.994	103.332	19.950	26.847	0.466
342.000	241.110	80.004	19.995	103.327	19.934	28.034	0.509
344.000	242.073	80.004	19.995	103.333	19.921	29.022	0.500
346.000	243.098	80.003	19.995	103.330	19.908	29.980	0.502
348.000	244.109	80.003	19.996	103.331	19.896	30.872	0.517
350.001	245.145	80.003	19.995	103.331	19.883	31.818	0.504
352.000	246.106	80.004	19.996	103.329	19.873	32.568	0.527
354.000	247.126	80.004	19.995	103.324	19.857	33.785	0.497
356.001	248.082	80.006	19.995	103.330	19.846	34.629	0.507
358.000	249.083	80.005	19.994	103.333	19.834	35.519	0.514
360.000	250.101	80.005	19.994	103.332	19.821	36.485	0.484
362.000	251.118	80.005	19.994	103.333	19.803	37.786	0.492
364.000	252.146	80.005	19.994	103.332	19.791	38.657	0.486
366.000	253.160	80.006	19.994	103.330	19.774	39.967	0.517
368.000	254.150	80.007	19.995	103.332	19.756	41.287	0.498
370.000	255.161	80.007	19.994	103.331	19.742	42.341	0.500
372.001	256.175	80.006	19.995	103.331	19.730	43.219	0.493
374.000	257.227	80.006	19.994	103.328	19.718	44.095	0.530
376.000	258.153	80.006	19.995	103.328	19.703	45.278	0.461
378.001	259.192	80.004	19.995	103.332	19.683	46.716	0.533
380.000	260.161	80.005	19.994	103.333	19.670	47.684	0.479
382.000	261.172	80.005	19.994	103.328	19.653	48.989	0.497
384.000	262.157	80.004	19.994	103.332	19.638	50.111	0.478
386.000	263.185	80.006	19.994	103.335	19.623	51.169	0.512
388.000	264.249	80.006	19.994	103.339	19.609	52.261	0.546
390.000	265.233	80.007	19.993	103.285	19.590	53.628	0.491
392.000	266.221	80.006	19.994	103.363	19.579	54.517	0.459
394.000	267.210	80.008	19.993	103.361	19.563	55.696	0.521
396.001	268.196	80.007	19.995	103.334	19.546	56.961	0.497
398.000	269.202	80.007	19.993	103.331	19.534	57.826	0.515
400.000	270.207	80.006	19.994	103.333	19.521	58.811	0.526
402.000	271.246	80.004	19.994	103.335	19.511	59.509	0.521
404.001	272.244	80.004	19.994	103.334	19.506	59.934	0.465
406.000	273.216	80.004	19.994	103.339	19.497	60.595	0.461
408.000	274.221	80.004	19.994	103.339	19.497	60.601	0.511
410.000	275.188	80.004	19.994	103.336	19.491	61.029	0.477
412.000	276.218	80.004	19.996	103.332	19.490	61.105	0.475
414.000	277.177	80.005	19.995	103.332	19.489	61.173	0.490
416.000	278.158	80.004	19.995	103.333	19.486	61.430	0.470
418.000	279.155	80.004	19.994	103.331	19.490	61.127	0.494
420.001	280.118	80.004	19.995	103.333	19.486	61.400	0.487
422.000	281.153	80.005	19.994	103.336	19.490	61.114	0.488
424.000	282.075	80.004	19.993	103.349	19.488	61.268	0.479
426.000	283.130	80.006	19.995	103.364	19.487	61.400	0.521
428.001	284.088	80.005	19.995	103.373	19.491	61.060	0.491
430.000	285.099	80.005	19.996	103.374	19.496	60.717	0.501
432.000	286.093	80.003	19.995	103.382	19.491	61.065	0.506
434.000	287.088	80.003	19.995	103.404	19.492	61.043	0.520
436.000	288.098	80.003	19.996	103.405	19.497	60.635	0.501
438.000	289.027	80.003	19.996	103.396	19.499	60.466	0.512
440.000	289.990	80.004	19.996	103.397	19.506	59.924	0.490
442.000	291.002	80.004	19.996	103.422	19.509	59.710	0.504
444.000	292.064	80.003	19.995	103.457	19.515	59.232	0.529
446.000	293.036	80.005	19.994	103.474	19.521	58.789	0.487
448.000	293.981	80.007	19.994	103.462	19.533	57.918	0.504
450.000	295.001	80.007	19.994	103.423	19.554	56.339	0.492
452.000	295.987	80.007	19.995	103.401	19.584	54.092	0.483
454.000	297.036	80.005	19.994	103.372	19.613	51.879	0.510
456.001	298.026	80.006	19.994	103.347	19.654	48.857	0.531
458.000	299.025	80.004	19.995	103.327	19.695	45.780	0.498
460.000	299.916	80.006	19.994	103.287	19.746	41.982	0.447
462.000	300.913	80.005	19.994	103.259	19.805	37.585	0.508
464.000	301.913	80.005	19.993	103.232	19.857	33.758	0.511
466.000	302.911	80.007	19.994	103.217	19.912	29.687	0.493
468.000	303.941	80.005	19.994	103.216	19.969	25.388	0.500
470.000	304.963	80.006	19.993	103.218	20.015	21.968	0.492
472.000	305.909	80.006	19.993	103.215	20.062	18.499	0.492
474.000	306.959	80.006	19.994	103.219	20.094	16.120	0.508
476.000	307.927	80.006	19.994	103.227	20.125	13.832	0.468
478.000	308.881	80.007	19.993	103.216	20.149	12.029	0.445
480.000	309.906	80.007	19.994	103.212	20.168	10.588	0.510
482.000	310.931	80.008	19.994	103.222	20.180	9.691	0.536
484.000	311.954	80.006	19.993	103.217	20.195	8.589	0.526
486.000	312.961	80.004	19.994	103.214	20.206	7.756	0.500
488.000	313.933	80.004	19.993	103.216	20.217	6.969	0.483
490.000	314.958	80.006	19.995	103.218	20.223	6.503	0.512
492.000	315.944	80.005	19.994	103.216	20.227	6.215	0.497
494.001	317.029	80.006	19.995	103.220	20.229	6.048	0.545
496.000	317.943	80.005	19.995	103.231	20.230	6.013	0.470
498.000	318.961	80.006	19.994	103.239	20.241	5.165	0.497
500.000	319.998	80.005	19.995	103.229	20.234	5.675	0.520
502.000	321.004	80.004	19.994	103.246	20.238	5.379	0.514
504.000	322.048	80.005	19.994	103.249	20.241	5.198	0.482
506.000	323.029	80.004	19.994	103.241	20.243	5.061	0.503
508.000	324.031	80.005	19.995	103.243	20.238	5.378	0.504
510.000	325.006	80.005	19.994	103.250	20.243	5.051	0.490
512.000	326.036	80.004	19.996	103.253	20.246	4.825	0.512
514.001	327.024	80.005	19.996	103.260	20.248	4.665	0.473
516.000	328.023	80.006	19.995	103.255	20.250	4.550	0.502
518.000	329.066	80.003	19.995	103.271	20.252	4.379	0.552
520.000	330.067	80.006	19.995	103.276	20.250	4.538	0.508
522.001	331.078	80.005	19.996	103.267	20.254	4.215	0.491
524.001	332.062	80.003	19.995	103.278	20.253	4.316	0.480
526.000	333.124	80.004	19.995	103.265	20.254	4.196	0.533
528.000	334.194	80.005	19.995	103.263	20.262	3.656	0.559
530.000	335.209	80.004	19.994	103.267	20.259	3.864	0.484
532.000	336.284	80.004	19.995	103.272	20.260	3.802	0.538
534.000	337.288	80.006	19.995	103.267	20.258	3.888	0.539
536.000	338.364	80.005	19.995	103.264	20.258	3.948	0.525
538.000	339.375	80.006	19.995	103.267	20.257	3.967	0.542
540.000	340.400	80.005	19.994	103.271	20.259	3.867	0.503
542.000	341.465	80.004	19.995	103.267	20.258	3.936	0.562
544.000	342.444	80.006	19.995	103.258	20.264	3.497	0.515
546.000	343.468	80.005	19.995	103.260	20.263	3.548	0.495
548.000	344.533	80.006	19.994	103.277	20.259	3.864	0.542
550.000	345.487	80.006	19.994	103.287	20.261	3.676	0.534
552.000	346.511	80.005	19.993	103.288	20.264	3.454	0.500
554.000	347.558	80.006	19.995	103.284	20.263	3.548	0.525
556.000	348.537	80.007	19.993	103.284	20.263	3.542	0.542
558.000	349.592	80.007	19.993	103.289	20.263	3.569	0.500
560.000	350.656	80.009	19.996	103.283	20.265	3.417	0.537
562.000	351.641	80.008	19.994	103.290	20.268	3.197	0.514
564.000	352.713	80.007	19.993	103.291	20.271	2.973	0.530
566.000	353.725	80.007	19.993	103.293	20.267	3.263	0.500
568.000	354.780	80.006	19.993	103.293	20.269	3.096	0.571
570.000	355.690	80.005	19.995	103.298	20.270	3.010	0.461
572.001	356.775	80.005	19.994	103.293	20.271	2.928	0.547
574.001	357.789	80.005	19.995	103.293	20.286	1.847	0.507
576.000	358.788	80.004	19.995	103.295	20.263	3.579	0.440
578.000	359.780	80.005	19.995	103.290	20.267	3.283	0.528
580.000	360.850	80.005	19.995	103.296	20.265	3.372	0.486
582.000	361.809	80.005	19.995	103.297	20.266	3.339	0.520
584.000	362.901	80.005	19.993	103.299	20.265	3.421	0.471
586.000	364.082	80.004	19.994	103.298	20.263	3.524	0.531
588.001	365.192	80.006	19.994	103.298	20.267	3.238	1.055
590.000	366.123	80.006	19.995	103.293	20.268	3.214	0.423
592.000	366.775	80.007	19.994	103.302	20.264	3.506	0.514
594.000	367.830	80.005	19.994	103.293	20.267	3.263	0.518
596.000	368.910	80.005	19.995	103.306	20.261	3.687	0.463
598.001	369.926	80.005	19.994	103.296	20.263	3.569	0.466
600.000	370.992	80.004	19.994	103.295	20.262	3.629	0.566
602.001	371.897	80.005	19.994	103.308	20.266	3.354	0.492
604.000	372.946	80.004	19.995	103.299	20.259	3.882	0.505
606.000	374.013	80.003	19.995	103.306	20.258	3.923	0.514
608.000	375.026	80.006	19.995	103.306	20.259	3.883	0.524
610.000	376.045	80.006	19.995	103.303	20.262	3.635	0.554
612.000	377.045	80.005	19.996	103.310	20.260	3.809	0.498
614.000	378.122	80.005	19.995	103.309	20.257	3.967	0.519
616.000	379.059	80.006	19.995	103.319	20.257	3.976	0.509
618.000	380.115	80.007	19.995	103.298	20.255	4.142	0.499
620.000	381.140	80.007	19.995	103.298	20.257	3.968	0.557
622.000	382.162	80.006	19.994	103.308	20.253	4.257	0.489
624.000	383.219	80.005	19.994	103.289	20.252	4.395	0.527
626.000	384.218	80.007	19.995	103.294	20.250	4.500	0.511
628.000	385.256	80.006	19.995	103.295	20.253	4.298	0.511
630.001	386.306	80.007	19.996	103.299	20.247	4.728	0.538
632.000	387.360	80.005	19.997	103.298	20.248	4.656	0.510
634.001	388.397	80.005	19.997	103.290	20.244	4.999	0.489
636.000	389.421	80.005	19.996	103.297	20.248	4.703	0.493
638.000	390.449	80.006	19.996	103.296	20.244	4.993	0.526
640.000	391.507	80.006	19.996	103.293	20.247	4.775	0.541
642.000	392.536	80.007	19.994	103.291	20.242	5.112	0.518
644.000	393.634	80.008	19.994	103.288	20.243	5.005	0.548
646.001	394.614	80.008	19.994	103.293	20.239	5.340	0.510
648.000	395.623	80.007	19.993	103.295	20.238	5.418	0.512
650.000	396.706	80.006	19.995	103.298	20.231	5.961	0.535
652.000	397.702	80.006	19.993	103.295	20.231	5.969	0.481
654.000	398.738	80.005	19.994	103.294	20.233	5.790	0.512
656.000	399.787	80.004	19.995	103.295	20.233	5.771	0.488
658.000	400.829	80.005	19.994	103.300	20.232	5.839	0.520
660.000	401.827	80.005	19.994	103.300	20.230	6.006	0.490
662.000	402.831	80.004	19.994	103.294	20.228	6.176	0.538
664.000	403.831	80.005	19.994	103.294	20.224	6.422	0.522
666.000	404.860	80.005	19.996	103.293	20.215	7.101	0.501
668.000	405.896	80.004	19.995	103.292	20.214	7.195	0.528
670.000	406.969	80.003	19.994	103.295	20.217	6.967	0.523
672.000	408.009	80.004	19.995	103.290	20.210	7.507	0.515
674.000	409.015	80.006	19.996	103.289	20.204	7.904	0.528
676.000	410.017	80.005	19.994	103.287	20.203	8.050	0.513
678.000	411.020	80.006	19.994	103.292	20.201	8.151	0.504
680.000	412.016	80.005	19.993	103.292	20.199	8.346	0.491
682.000	413.036	80.007	19.993	103.292	20.192	8.821	0.526
684.000	414.048	80.005	19.994	103.292	20.187	9.215	0.514
686.000	415.032	80.003	19.994	103.293	20.185	9.368	0.512
688.000	416.013	80.004	19.994	103.293	20.182	9.593	0.499
690.000	417.031	80.004	19.994	103.293	20.178	9.907	0.516
692.000	418.075	80.005	19.996	103.296	20.173	10.279	0.519
694.000	419.079	80.006	19.995	103.295	20.167	10.723	0.497
696.000	420.098	80.005	19.994	103.288	20.164	10.916	0.496
698.000	421.126	80.006	19.995	103.285	20.158	11.398	0.534
700.000	422.139	80.006	19.995	103.288	20.152	11.780	0.489
702.000	423.210	80.008	19.996	103.297	20.148	12.140	0.518
704.000	424.191	80.007	19.995	103.292	20.140	12.719	0.504
706.000	425.187	80.007	19.995	103.292	20.133	13.213	0.511
708.000	426.218	80.005	19.995	103.286	20.131	13.370	0.519
710.000	427.233	80.007	19.994	103.289	20.116	14.469	0.519
712.000	428.270	80.007	19.995	103.282	20.109	15.035	0.528
714.000	429.287	80.006	19.994	103.286	20.104	15.410	0.503
716.000	430.321	80.005	19.995	103.281	20.097	15.882	0.541
718.000	431.333	80.006	19.994	103.289	20.084	16.840	0.514
720.000	432.385	80.007	19.994	103.283	20.073	17.677	0.537
722.000	433.393	80.005	19.995	103.285	20.063	18.415	0.516
724.000	434.420	80.005	19.994	103.281	20.056	18.986	0.513
726.000	435.416	80.006	19.995	103.265	20.045	19.763	0.486
728.001	436.433	80.007	19.995	103.275	20.034	20.606	0.507
730.000	437.480	80.008	19.995	103.235	20.020	21.620	0.506
732.000	438.470	80.005	19.995	103.312	20.013	22.130	0.506
734.000	439.450	80.004	19.995	103.307	20.005	22.727	0.522
736.000	440.455	80.003	19.995	103.287	19.992	23.743	0.522
738.001	441.450	80.006	19.995	103.281	19.978	24.759	0.491
740.001	442.407	80.006	19.995	103.291	19.967	25.561	0.456
742.000	443.456	80.007	19.994	103.291	19.957	26.346	0.521
744.000	444.405	80.004	19.993	103.284	19.951	26.771	0.465
746.001	445.435	80.007	19.993	103.275	19.937	27.784	0.506
748.000	446.443	80.005	19.995	103.285	19.927	28.526	0.494
750.000	447.430	80.006	19.995	103.286	19.917	29.273	0.494
752.000	448.428	80.005	19.994	103.277	19.910	29.836	0.492
754.000	449.410	80.003	19.995	103.289	19.903	30.304	0.502
756.000	450.404	80.004	19.994	103.291	19.896	30.876	0.481
758.000	451.469	80.007	19.994	103.282	19.889	31.355	0.521
760.000	452.457	80.005	19.995	103.290	19.885	31.650	0.480
762.000	453.470	80.005	19.994	103.279	19.881	31.971	0.495
764.000	454.493	80.007	19.994	103.281	19.875	32.389	0.505
766.000	455.474	80.006	19.995	103.271	19.875	32.459	0.482
768.000	456.539	80.006	19.995	103.254	19.869	32.839	0.514
770.001	457.497	80.005	19.995	103.273	19.866	33.070	0.458
772.000	458.500	80.006	19.995	103.288	19.867	33.021	0.480
774.000	459.546	80.006	19.994	103.279	19.872	32.620	0.506
776.001	460.602	80.005	19.994	103.284	19.870	32.827	0.521
778.000	461.550	80.006	19.994	103.291	19.870	32.795	0.466
780.001	462.624	80.007	19.994	103.293	19.872	32.626	0.533
782.000	463.607	80.008	19.994	103.287	19.876	32.327	0.503
784.000	464.658	80.007	19.993	103.291	19.882	31.912	0.534
786.000	465.648	80.005	19.993	103.294	19.887	31.551	0.522
788.000	466.674	80.009	19.994	103.291	19.895	30.919	0.530
790.000	467.665	80.006	19.994	103.294	19.897	30.797	0.500
792.000	468.662	80.007	19.994	103.294	19.904	30.278	0.507
794.000	469.685	80.006	19.995	103.287	19.913	29.618	0.481
796.000	470.741	80.004	19.994	103.280	19.919	29.171	0.541
798.000	471.732	80.002	19.994	103.286	19.924	28.788	0.508
800.000	472.783	80.004	19.994	103.278	19.929	28.396	0.514
802.000	473.848	80.004	19.994	103.289	19.937	27.806	0.524
804.000	474.856	80.007	19.994	103.285	19.946	27.152	0.516
806.000	475.909	80.007	19.995	103.271	19.949	26.941	0.514
808.000	476.954	80.006	19.995	103.280	19.958	26.246	0.536
810.000	477.978	80.007	19.993	103.275	19.965	25.710	0.517
812.000	479.027	80.007	19.993	103.264	19.972	25.193	0.530
814.000	480.008	80.008	19.995	103.271	19.978	24.781	0.493
816.000	481.050	80.008	19.994	103.283	19.992	23.735	0.532
818.000	482.059	80.006	19.995	103.286	19.998	23.302	0.468
820.000	483.083	80.004	19.995	103.271	20.008	22.537	0.495
822.000	484.101	80.005	19.995	103.265	20.016	21.914	0.488
824.001	485.154	80.004	19.996	103.286	20.028	21.008	0.532
826.000	486.152	80.005	19.995	103.271	20.037	20.388	0.531
828.000	487.202	80.006	19.994	103.282	20.045	19.740	0.505
830.001	488.230	80.005	19.995	103.271	20.052	19.245	0.499
832.000	489.252	80.005	19.995	103.282	20.062	18.508	0.518
834.000	490.291	80.007	19.996	103.270	20.071	17.811	0.494
836.000	491.346	80.006	19.996	103.254	20.079	17.219	0.513
838.001	492.399	80.005	19.993	103.256	20.086	16.706	0.531
840.000	493.416	80.005	19.994	103.255	20.093	16.214	0.496
842.000	494.499	80.005	19.993	103.260	20.103	15.480	0.527
844.000	495.526	80.004	19.994	103.281	20.112	14.809	0.518
846.001	496.522	80.004	19.994	103.270	20.119	14.267	0.525
848.000	497.566	80.004	19.994	103.264	20.126	13.742	0.510
850.000	498.591	80.003	19.994	103.262	20.132	13.264	0.460
852.000	499.612	80.005	19.995	103.260	20.142	12.572	0.537
854.000	500.657	80.005	19.995	103.257	20.147	12.164	0.540
856.000	501.676	80.002	19.994	103.259	20.156	11.521	0.521
858.000	502.712	80.005	19.995	103.266	20.161	11.162	0.523
860.000	503.731	80.005	19.994	103.260	20.170	10.481	0.522
862.000	504.784	80.002	19.994	103.254	20.171	10.415	0.522
864.000	505.793	80.005	19.994	103.258	20.179	9.767	0.530
866.000	506.819	80.005	19.994	103.261	20.185	9.372	0.490
868.000	507.880	80.007	19.994	103.266	20.189	9.084	0.511
870.001	508.902	80.006	19.993	103.264	20.191	8.912	0.510
872.000	509.921	80.007	19.993	103.253	20.201	8.183	0.503
874.000	510.914	80.006	19.993	103.264	20.204	7.903	0.541
876.000	511.958	80.005	19.992	103.264	20.209	7.569	0.486
878.000	513.021	80.005	19.993	103.252	20.213	7.260	0.523
880.000	514.039	80.008	19.993	103.254	20.216	7.040	0.510
882.000	515.109	80.005	19.993	103.256	20.222	6.578	0.516
884.000	516.110	80.005	19.993	103.257	20.226	6.295	0.495
886.000	517.183	80.006	19.993	103.257	20.226	6.278	0.539
888.001	518.179	80.007	19.994	103.262	20.228	6.139	0.509
890.001	519.243	80.006	19.994	103.252	20.229	6.087	0.514
892.000	520.271	80.006	19.994	103.252	20.234	5.732	0.510
894.000	521.359	80.007	19.995	103.251	20.236	5.572	0.540
896.000	522.400	80.009	19.994	103.251	20.232	5.864	0.520
898.000	523.389	80.008	19.994	103.251	20.242	5.131	0.489
900.000	524.444	80.006	19.994	103.251	20.242	5.147	0.533
902.000	525.467	80.008	19.995	103.255	20.244	4.968	0.507
904.001	526.531	80.005	19.994	103.256	20.245	4.915	0.530
906.001	527.549	80.004	19.994	103.253	20.244	4.929	0.534
908.000	528.563	80.006	19.994	103.257	20.248	4.699	0.525
910.000	529.602	80.005	19.994	103.259	20.248	4.701	0.516
912.000	530.634	80.004	19.994	103.255	20.250	4.521	0.533
914.001	531.685	80.005	19.994	103.255	20.253	4.328	0.512
916.001	532.732	80.004	19.995	103.254	20.251	4.416	0.531
918.000	533.762	80.005	19.995	103.254	20.252	4.397	0.526
920.000	534.772	80.007	19.995	103.254	20.256	4.050	0.515
922.000	535.821	80.007	19.995	103.254	20.251	4.457	0.500
924.000	536.867	80.004	19.995	103.257	20.255	4.112	0.506
926.000	537.891	80.004	19.995	103.254	20.254	4.233	0.529
928.000	538.919	80.003	19.996	103.255	20.254	4.227	0.526
930.001	539.982	80.004	19.994	103.255	20.257	4.026	0.531
932.000	540.979	80.007	19.994	103.257	20.258	3.900	0.539
934.000	541.952	80.003	19.996	103.256	20.265	3.372	0.495
936.000	542.988	80.003	19.993	103.255	20.266	3.317	0.503
938.000	543.966	80.004	19.994	103.254	20.266	3.340	0.504
940.000	544.958	80.004	19.995	103.253	20.262	3.621	0.486
942.001	546.018	80.007	19.993	103.257	20.264	3.487	0.526
944.000	547.028	80.008	19.995	103.258	20.265	3.407	0.516
946.001	548.050	80.004	19.995	103.256	20.264	3.444	0.513
948.000	549.109	80.007	19.994	103.253	20.264	3.442	0.547
950.000	550.109	80.007	19.995	103.255	20.267	3.227	0.508
952.000	551.134	80.006	19.994	103.251	20.269	3.120	0.514
954.001	552.166	80.007	19.993	103.249	20.267	3.233	0.526
956.000	553.158	80.007	19.994	103.253	20.270	3.064	0.511
958.000	554.180	80.006	19.995	103.252	20.268	3.185	0.518
960.000	555.178	80.007	19.994	103.254	20.263	3.533	0.482
962.000	556.232	80.007	19.993	103.252	20.267	3.216	0.506
964.000	557.209	80.006	19.995	103.250	20.269	3.099	0.502
966.000	558.293	80.007	19.995	103.252	20.267	3.222	0.517
968.000	559.278	80.009	19.994	103.253	20.270	3.027	0.512
970.000	560.286	80.004	19.995	103.246	20.267	3.286	0.490
972.000	561.279	80.008	19.995	103.256	20.269	3.085	0.523
974.000	562.265	80.008	19.993	103.252	20.265	3.432	0.489
976.000	563.296	80.009	19.993	103.250	20.274	2.767	0.494
978.000	564.326	80.008	19.993	103.254	20.266	3.350	0.499
980.000	565.361	80.007	19.994	103.253	20.268	3.151	0.510
982.001	566.352	80.009	19.995	103.256	20.271	2.974	0.507
984.000	567.361	80.008	19.995	103.255	20.272	2.910	0.497
986.000	568.357	80.007	19.995	103.254	20.270	3.054	0.511
988.000	569.381	80.006	19.994	103.251	20.273	2.830	0.502
990.000	570.442	80.006	19.996	103.249	20.269	3.075	0.551
992.000	571.404	80.005	19.995	103.255	20.269	3.071	0.500
994.000	572.384	80.004	19.995	103.256	20.275	2.684	0.509
996.000	573.424	80.003	19.995	103.256	20.274	2.695	0.512
998.001	574.529	80.005	19.995	103.256	20.273	2.830	0.548
1000.000	575.524	80.004	19.994	103.255	20.273	2.795	0.503
1002.000	576.544	80.005	19.994	103.255	20.275	2.651	0.514
1004.000	577.575	80.004	19.994	103.253	20.274	2.748	0.528
1006.001	578.575	80.006	19.995	103.246	20.275	2.676	0.516
1008.000	579.615	80.006	19.996	103.248	20.273	2.801	0.522
1010.000	580.682	80.006	19.995	103.248	20.275	2.672	0.532
1012.000	581.702	80.005	19.995	103.243	20.272	2.859	0.512
1014.001	582.714	80.006	19.994	103.249	20.271	2.927	0.534
1016.000	583.744	80.005	19.994	103.245	20.271	2.935	0.518
1018.000	584.756	80.006	19.995	103.247	20.273	2.773	0.524
1020.000	585.812	80.006	19.995	103.248	20.270	3.056	0.526
1022.000	586.831	80.005	19.995	103.251	20.273	2.781	0.525
1024.000	587.814	80.004	19.995	103.252	20.274	2.754	0.499
1026.001	588.832	80.005	19.995	103.253	20.273	2.826	0.509
1028.001	589.865	80.006	19.995	103.248	20.272	2.902	0.514
1030.000	590.942	80.006	19.995	103.252	20.277	2.534	0.542
1032.000	591.961	80.007	19.995	103.253	20.277	2.508	0.536
1034.000	592.954	80.006	19.995	103.255	20.281	2.241	0.516
1036.001	594.026	80.005	19.994	103.252	20.277	2.508	0.521
1038.000	595.073	80.008	19.995	103.249	20.274	2.758	0.525
1040.001	596.118	80.007	19.995	103.251	20.274	2.723	0.550
1042.000	597.094	80.007	19.994	103.248	20.272	2.879	0.501
1044.000	598.157	80.006	19.994	103.249	20.270	3.056	0.509
1046.001	599.159	80.005	19.993	103.241	20.276	2.617	0.470
1048.000	600.226	80.005	19.995	103.250	20.272	2.865	0.532
1050.001	601.245	80.007	19.994	103.248	20.271	2.947	0.528
1052.001	602.217	80.007	19.994	103.254	20.274	2.729	0.512
1054.000	603.251	80.007	19.995	103.245	20.275	2.629	0.535
1056.000	604.251	80.008	19.994	103.252	20.272	2.873	0.521
1058.001	605.256	80.007	19.994	103.251	20.272	2.861	0.462
1060.000	606.287	80.009	19.995	103.245	20.275	2.668	0.486
1062.001	607.303	80.008	19.994	103.250	20.273	2.838	0.514
1064.000	608.333	80.009	19.993	103.253	20.273	2.807	0.522
1066.001	609.377	80.007	19.994	103.256	20.268	3.156	0.522
1068.000	610.393	80.010	19.994	103.252	20.278	2.467	0.508
1070.000	611.422	80.007	19.993	103.252	20.274	2.721	0.545
1072.001	612.441	80.006	19.995	103.248	20.279	2.380	0.512
1074.001	613.514	80.006	19.993	103.247	20.268	3.159	0.514
1076.001	614.535	80.007	19.994	103.245	20.280	2.253	0.533
1078.000	615.552	80.006	19.993	103.242	20.274	2.709	0.504
1080.001	616.524	80.005	19.993	103.244	20.279	2.380	0.491
1082.001	617.603	80.005	19.993	103.249	20.275	2.619	0.499
1084.001	618.602	80.006	19.995	103.250	20.278	2.426	0.501
1086.000	619.592	80.005	19.995	103.238	20.275	2.623	0.485
1088.001	620.610	80.005	19.995	103.250	20.276	2.546	0.491
1090.001	621.699	80.007	19.995	103.253	20.280	2.310	0.548
1092.000	622.725	80.006	19.994	103.251	20.279	2.384	0.501
1094.001	623.792	80.007	19.994	103.252	20.282	2.105	0.591
1096.000	624.822	80.006	19.995	103.251	20.277	2.497	0.532
1098.001	625.875	80.006	19.995	103.243	20.281	2.245	0.520
1100.000	626.880	80.007	19.995	103.244	20.274	2.754	0.525
1102.001	627.875	80.006	19.995	103.248	20.275	2.641	0.498
1104.000	628.962	80.005	19.995	103.244	20.274	2.756	0.519
1106.000	629.988	80.006	19.995	103.244	20.280	2.320	0.494
1108.000	631.032	80.006	19.996	103.250	20.274	2.744	0.556
1110.001	632.054	80.005	19.994	103.252	20.275	2.620	0.499
1112.000	633.155	80.004	19.995	103.249	20.277	2.473	0.536
1114.001	634.126	80.006	19.994	103.238	20.274	2.695	0.491
1116.000	635.218	80.005	19.995	103.233	20.278	2.399	0.524
1118.000	636.220	80.006	19.995	103.240	20.276	2.600	0.528
1120.001	637.236	80.006	19.995	103.251	20.279	2.372	0.497
1122.001	638.280	80.006	19.994	103.236	20.276	2.602	0.514
1124.001	639.344	80.006	19.995	103.252	20.274	2.748	0.545
1126.000	640.305	80.005	19.995	103.240	20.267	3.231	0.475
1128.001	641.350	80.005	19.994	103.246	20.278	2.452	0.481
1130.001	642.408	80.006	19.993	103.245	20.279	2.329	0.553
1132.000	643.444	80.006	19.994	103.247	20.274	2.727	0.493
1134.001	644.424	80.006	19.995	103.239	20.274	2.699	0.526
1136.000	645.462	80.007	19.994	103.245	20.272	2.861	0.532
1138.000	646.446	80.007	19.994	103.253	20.274	2.717	0.478
1140.000	647.468	80.006	19.994	103.244	20.271	2.926	0.521
1142.000	648.507	80.008	19.993	103.239	20.273	2.781	0.509
1144.000	649.491	80.007	19.995	103.251	20.266	3.327	0.508
1146.000	650.517	80.007	19.995	103.252	20.278	2.468	0.496
1148.001	651.538	80.007	19.993	103.246	20.272	2.872	0.524
1150.001	652.564	80.008	19.994	103.239	20.275	2.643	0.512
1152.000	653.600	80.007	19.993	103.249	20.272	2.902	0.515
1154.000	654.587	80.006	19.994	103.245	20.272	2.906	0.483
1156.001	655.619	80.005	19.993	103.235	20.273	2.772	0.529
1158.001	656.630	80.003	19.994	103.228	20.277	2.507	0.482
1160.000	657.635	80.005	19.995	103.231	20.271	2.959	0.482
1162.001	658.641	80.006	19.994	103.251	20.275	2.651	0.495
1164.001	659.639	80.004	19.995	103.248	20.275	2.658	0.499
1166.000	660.653	80.005	19.994	103.242	20.277	2.478	0.507
1168.000	661.679	80.006	19.994	103.241	20.271	2.941	0.501
1170.000	662.686	80.005	19.993	103.238	20.275	2.633	0.502
1172.000	663.749	80.005	19.994	103.238	20.276	2.598	0.540
1174.000	664.751	80.004	19.995	103.248	20.282	2.138	0.499
1176.001	665.682	80.005	19.995	103.241	20.284	2.017	0.473
1178.000	666.735	80.005	19.993	103.234	20.279	2.347	0.530
1180.001	667.715	80.006	19.994	103.246	20.277	2.532	0.504
1182.000	668.759	80.002	19.994	103.240	20.279	2.358	0.501
1184.001	669.698	80.005	19.994	103.249	20.279	2.386	0.496
1186.001	670.751	80.004	19.995	103.245	20.274	2.717	0.523
1188.001	671.773	80.004	19.996	103.253	20.274	2.727	0.486
1190.001	672.815	80.005	19.995	103.236	20.277	2.491	0.519
1192.000	673.785	80.004	19.994	103.232	20.278	2.454	0.480
1194.001	674.795	80.006	19.995	103.244	20.273	2.838	0.492
1196.001	675.807	80.007	19.995	103.226	20.277	2.543	0.505
1198.000	676.811	80.006	19.994	103.241	20.280	2.319	0.496
1200.000	677.830	80.005	19.994	103.236	20.273	2.809	0.462
1202.001	678.905	80.006	19.994	103.248	20.273	2.791	0.540
1204.000	679.884	80.007	19.995	103.241	20.274	2.754	0.467
1206.001	680.915	80.006	19.995	103.236	20.276	2.610	0.519
1208.000	681.905	80.007	19.994	103.249	20.278	2.458	0.506
1210.000	682.952	80.008	19.996	103.248	20.273	2.787	0.495
1212.000	683.960	80.005	19.996	103.249	20.278	2.405	0.501
1214.001	685.019	80.006	19.995	103.241	20.272	2.881	0.517
1216.001	686.001	80.005	19.996	103.226	20.278	2.466	0.491
1218.001	687.085	80.006	19.994	103.237	20.277	2.513	0.519
1220.000	688.117	80.006	19.994	103.246	20.281	2.181	0.541
1222.000	689.144	80.007	19.994	103.244	20.279	2.382	0.522
1224.001	690.119	80.007	19.994	103.242	20.279	2.343	0.496
1226.000	691.199	80.008	19.994	103.245	20.278	2.464	0.505
1228.000	692.210	80.008	19.994	103.232	20.278	2.407	0.541
1230.001	693.221	80.009	19.994	103.243	20.271	2.953	0.492
1232.001	694.239	80.008	19.993	103.240	20.272	2.854	0.505
1234.000	695.327	80.008	19.995	103.238	20.280	2.259	0.532
1236.000	696.341	80.007	19.995	103.235	20.278	2.443	0.521
1238.001	697.410	80.006	19.995	103.242	20.272	2.852	0.509
1240.001	698.411	80.004	19.993	103.232	20.279	2.329	0.501
1242.000	699.384	80.004	19.995	103.223	20.275	2.686	0.465
1244.001	700.408	80.005	19.995	103.244	20.274	2.750	0.483
1246.000	701.426	80.005	19.993	103.229	20.279	2.359	0.521
1248.001	702.418	80.006	19.995	103.227	20.279	2.349	0.488
1250.001	703.444	80.006	19.996	103.231	20.280	2.319	0.518
1252.000	704.425	80.005	19.994	103.237	20.274	2.729	0.481
1254.000	705.473	80.006	19.995	103.243	20.274	2.708	0.527
1256.001	706.467	80.004	19.993	103.230	20.274	2.729	0.502
1258.001	707.490	80.003	19.994	103.238	20.275	2.651	0.488
1260.000	708.517	80.005	19.994	103.245	20.272	2.908	0.507
1262.000	709.495	80.005	19.993	103.250	20.274	2.743	0.479
1264.001	710.517	80.006	19.993	103.228	20.274	2.727	0.523
1266.000	711.530	80.005	19.994	103.236	20.279	2.359	0.483
1268.000	712.525	80.005	19.993	103.248	20.279	2.373	0.503
1270.000	713.541	80.006	19.993	103.231	20.278	2.466	0.472
1272.001	714.553	80.005	19.995	103.239	20.277	2.497	0.488
1274.001	715.592	80.004	19.995	103.226	20.280	2.265	0.564
1276.001	716.603	80.005	19.995	103.234	20.276	2.612	0.490
1278.000	717.650	80.005	19.996	103.220	20.284	1.955	0.511
1280.001	718.660	80.006	19.996	103.229	20.281	2.197	0.509
1282.000	719.715	80.005	19.994	103.231	20.279	2.341	0.523
1284.000	720.684	80.006	19.995	103.233	20.276	2.575	0.496
1286.000	721.684	80.005	19.995	103.227	20.274	2.702	0.483
1288.000	722.687	80.006	19.996	103.221	20.276	2.548	0.508
1290.001	723.705	80.007	19.995	103.232	20.274	2.718	0.496
1292.001	724.699	80.007	19.994	103.232	20.274	2.753	0.505
1294.000	725.661	80.008	19.995	103.223	20.270	3.014	0.460
1296.000	726.656	80.008	19.995	103.229	20.272	2.842	0.491
1298.001	727.605	80.007	19.995	103.215	20.273	2.792	0.460
1300.001	728.629	80.006	19.995	103.224	20.275	2.618	0.522
1302.000	729.590	80.005	19.994	103.221	20.273	2.831	0.491
1304.001	730.564	80.004	19.994	103.219	20.271	2.949	0.501
1306.000	731.566	80.006	19.995	103.228	20.272	2.873	0.496
1308.001	732.571	80.005	19.994	103.222	20.269	3.119	0.500
1310.000	733.539	80.008	19.995	103.222	20.272	2.875	0.480
1312.001	734.516	80.006	19.993	103.220	20.267	3.269	0.502
1314.000	735.512	80.008	19.994	103.217	20.265	3.372	0.510
1316.001	736.493	80.008	19.994	103.233	20.268	3.187	0.506
1318.000	737.461	80.007	19.994	103.224	20.271	2.930	0.501
1320.000	738.493	80.007	19.994	103.223	20.271	2.926	0.528
1322.001	739.453	80.006	19.994	103.237	20.271	2.969	0.493
1324.001	740.415	80.005	19.995	103.226	20.271	2.983	0.458
1326.001	741.434	80.005	19.995	103.228	20.271	2.934	0.488
1328.001	742.459	80.005	19.994	103.222	20.275	2.676	0.494
1330.001	743.469	80.005	19.994	103.222	20.269	3.076	0.528