File: 01_Data/Window_Screen/MCC/Window_Screen_MCC_30K_min_211203_R2.txt
Sample ID:	C:\MCC\MCC Cal\Test\Window_Screen_MCC_30K_min_211203_R2.txt
Sample Weight (mg):	4.8
Heating Rate (C/s):	0.5
Combustor Temp (C):	900
N2 Flow Rate (cc/min):	80
O2 Flow Rate (cc/min):	20
Calibration File:	C:\MCC\MCC Cal\Coeff1 JN10440_30_210304.txt.txt
T Correction Coefficients:	0	1.024463	0
Time Shift (s):	14
*
Time (s)	Temperature (C)	N2 flow rate (cc/min)	O2 flow rate (cc/min)	Flow Rate (cc/min)	Oxygen (%)	HRR (W/g)	Heating rate (C/s)
-0.001	111.172	80.005	19.994	103.158	20.237	-0.030	-0.016
2.000	111.157	80.005	19.995	103.166	20.234	0.137	0.010
4.000	111.125	80.004	19.994	103.151	20.240	-0.209	-0.026
6.000	111.140	80.006	19.994	103.151	20.240	-0.220	-0.005
8.000	111.130	80.004	19.994	103.149	20.238	-0.115	-0.012
10.000	111.171	80.006	19.994	103.144	20.236	0.026	0.028
11.999	111.123	80.005	19.994	103.172	20.238	-0.083	-0.028
14.000	111.154	80.005	19.994	103.178	20.235	0.098	0.002
16.000	111.179	80.005	19.995	103.173	20.232	0.311	0.006
18.000	111.156	80.006	19.995	103.177	20.232	0.298	0.016
20.000	111.159	80.008	19.994	103.180	20.230	0.443	-0.019
22.000	111.166	80.006	19.994	103.204	20.231	0.367	0.028
24.000	111.192	80.007	19.995	103.217	20.228	0.534	-0.014
26.000	111.268	80.007	19.994	103.217	20.226	0.723	0.033
28.000	111.307	80.008	19.995	103.250	20.225	0.766	0.016
30.000	111.366	80.007	19.994	103.266	20.223	0.866	0.029
32.000	111.469	80.007	19.993	103.283	20.220	1.124	0.038
34.000	111.604	80.007	19.994	103.275	20.210	1.740	0.089
35.999	111.748	80.007	19.993	103.315	20.213	1.575	0.101
38.000	111.970	80.008	19.994	103.306	20.207	1.963	0.125
40.000	112.173	80.007	19.993	103.406	20.201	2.356	0.108
41.999	112.467	80.008	19.993	103.366	20.200	2.463	0.140
43.999	112.760	80.007	19.994	103.362	20.196	2.710	0.146
45.999	113.061	80.009	19.993	103.366	20.199	2.540	0.143
48.000	113.434	80.007	19.995	103.377	20.195	2.764	0.202
49.999	113.826	80.008	19.995	103.382	20.202	2.306	0.239
51.999	114.214	80.009	19.994	103.373	20.200	2.419	0.213
54.000	114.653	80.008	19.995	103.380	20.199	2.545	0.213
56.001	115.130	80.007	19.995	103.356	20.195	2.773	0.239
58.001	115.556	80.005	19.995	103.354	20.197	2.618	0.216
60.000	116.082	80.004	19.995	103.375	20.195	2.811	0.265
62.000	116.572	80.005	19.995	103.377	20.193	2.916	0.235
63.999	117.130	80.005	19.994	103.386	20.189	3.198	0.259
65.999	117.667	80.006	19.995	103.381	20.188	3.230	0.256
67.999	118.262	80.006	19.995	103.395	20.192	3.005	0.282
69.999	118.856	80.006	19.994	103.415	20.191	3.074	0.314
72.000	119.447	80.006	19.995	103.402	20.196	2.732	0.318
74.000	120.049	80.006	19.995	103.388	20.190	3.100	0.285
76.000	120.715	80.005	19.995	103.388	20.191	3.081	0.316
77.999	121.337	80.006	19.994	103.380	20.189	3.181	0.339
80.000	122.010	80.005	19.995	103.384	20.190	3.119	0.327
81.999	122.709	80.006	19.995	103.383	20.192	2.983	0.379
84.000	123.425	80.005	19.995	103.389	20.192	2.977	0.337
85.999	124.113	80.005	19.996	103.380	20.189	3.181	0.327
87.999	124.867	80.004	19.995	103.380	20.194	2.851	0.354
90.001	125.607	80.004	19.996	103.390	20.192	3.002	0.375
92.000	126.298	80.005	19.996	103.390	20.190	3.086	0.368
94.000	127.066	80.005	19.995	103.390	20.188	3.280	0.391
95.999	127.808	80.005	19.994	103.375	20.192	2.994	0.380
98.000	128.624	80.005	19.994	103.376	20.190	3.087	0.401
100.000	129.371	80.005	19.995	103.386	20.187	3.297	0.387
102.000	130.151	80.006	19.993	103.411	20.190	3.109	0.420
103.999	130.976	80.007	19.994	103.391	20.188	3.265	0.387
105.999	131.719	80.007	19.994	103.373	20.193	2.896	0.397
108.000	132.567	80.008	19.995	103.373	20.187	3.286	0.403
109.999	133.371	80.008	19.996	103.385	20.186	3.353	0.379
111.999	134.164	80.008	19.995	103.390	20.188	3.262	0.426
113.999	135.009	80.006	19.994	103.386	20.189	3.178	0.420
116.000	135.804	80.005	19.995	103.381	20.189	3.206	0.402
117.999	136.733	80.005	19.994	103.389	20.187	3.287	0.477
120.000	137.589	80.006	19.995	103.395	20.185	3.441	0.451
122.000	138.375	80.007	19.994	103.402	20.185	3.480	0.379
124.000	139.271	80.007	19.994	103.390	20.188	3.272	0.437
126.000	140.131	80.007	19.995	103.388	20.185	3.442	0.439
127.999	141.022	80.008	19.994	103.382	20.187	3.345	0.451
130.000	141.901	80.008	19.993	103.381	20.185	3.438	0.431
132.000	142.767	80.007	19.993	103.379	20.185	3.432	0.420
134.000	143.688	80.008	19.994	103.387	20.181	3.738	0.445
136.000	144.597	80.007	19.994	103.376	20.186	3.382	0.426
138.000	145.499	80.007	19.993	103.331	20.184	3.537	0.463
140.000	146.371	80.006	19.994	103.387	20.186	3.380	0.462
142.000	147.282	80.005	19.994	103.442	20.183	3.591	0.465
144.001	148.185	80.006	19.993	103.376	20.186	3.406	0.430
146.000	149.115	80.005	19.995	103.375	20.185	3.434	0.467
148.000	150.045	80.004	19.994	103.380	20.181	3.731	0.471
150.000	150.989	80.006	19.995	103.373	20.186	3.408	0.488
152.000	151.897	80.005	19.995	103.375	20.181	3.751	0.437
154.000	152.826	80.006	19.995	103.372	20.185	3.484	0.469
156.000	153.753	80.005	19.995	103.382	20.184	3.538	0.455
158.000	154.679	80.005	19.996	103.394	20.182	3.649	0.478
160.000	155.653	80.007	19.995	103.398	20.186	3.386	0.499
162.000	156.586	80.006	19.995	103.390	20.185	3.435	0.473
164.000	157.549	80.006	19.994	103.391	20.181	3.751	0.483
166.001	158.471	80.006	19.994	103.353	20.178	3.903	0.490
168.000	159.461	80.005	19.994	103.362	20.179	3.847	0.461
170.001	160.437	80.006	19.994	103.439	20.181	3.734	0.495
172.000	161.370	80.005	19.995	103.377	20.177	3.992	0.502
174.001	162.398	80.005	19.995	103.369	20.173	4.248	0.474
176.000	163.389	80.005	19.996	103.339	20.178	3.942	0.490
178.000	164.348	80.004	19.995	103.431	20.172	4.328	0.466
180.000	165.333	80.003	19.996	103.385	20.173	4.231	0.505
182.000	166.349	80.004	19.995	103.392	20.174	4.162	0.514
184.001	167.320	80.006	19.996	103.382	20.174	4.198	0.496
186.001	168.346	80.004	19.996	103.380	20.175	4.124	0.482
188.000	169.315	80.007	19.996	103.378	20.171	4.370	0.480
190.000	170.340	80.006	19.995	103.377	20.172	4.300	0.522
192.001	171.317	80.007	19.994	103.381	20.169	4.513	0.486
194.000	172.324	80.007	19.993	103.373	20.167	4.674	0.536
196.000	173.344	80.006	19.993	103.377	20.166	4.697	0.527
198.000	174.330	80.006	19.993	103.379	20.165	4.812	0.502
200.000	175.326	80.007	19.994	103.387	20.165	4.817	0.510
202.000	176.317	80.004	19.993	103.382	20.171	4.372	0.483
204.000	177.378	80.006	19.994	103.375	20.165	4.771	0.524
206.000	178.348	80.005	19.994	103.370	20.162	4.985	0.497
208.000	179.363	80.005	19.994	103.374	20.163	4.948	0.513
210.000	180.329	80.006	19.994	103.374	20.159	5.173	0.515
212.001	181.374	80.008	19.994	103.366	20.161	5.071	0.482
214.000	182.390	80.007	19.993	103.382	20.160	5.148	0.482
216.000	183.429	80.008	19.994	103.365	20.154	5.529	0.518
218.001	184.471	80.008	19.993	103.354	20.158	5.299	0.541
220.000	185.469	80.008	19.993	103.365	20.152	5.701	0.503
222.000	186.501	80.007	19.993	103.364	20.154	5.567	0.521
224.001	187.545	80.007	19.993	103.376	20.149	5.879	0.553
226.000	188.568	80.007	19.994	103.370	20.148	5.929	0.533
228.000	189.568	80.006	19.993	103.372	20.148	5.961	0.491
230.000	190.564	80.006	19.993	103.369	20.144	6.213	0.495
232.000	191.564	80.007	19.995	103.357	20.140	6.462	0.492
234.000	192.592	80.007	19.995	103.353	20.139	6.569	0.522
236.001	193.588	80.007	19.993	103.363	20.139	6.517	0.510
238.001	194.622	80.005	19.994	103.345	20.138	6.600	0.524
240.000	195.601	80.006	19.994	103.337	20.136	6.774	0.559
242.000	196.565	80.006	19.995	103.334	20.132	7.002	0.510
244.000	197.573	80.006	19.995	103.343	20.130	7.153	0.505
246.000	198.577	80.006	19.994	103.358	20.128	7.293	0.480
248.000	199.587	80.005	19.995	103.352	20.126	7.394	0.505
250.000	200.598	80.006	19.995	103.351	20.122	7.706	0.522
252.000	201.599	80.004	19.995	103.350	20.121	7.749	0.531
254.000	202.574	80.005	19.995	103.375	20.120	7.827	0.466
256.000	203.604	80.006	19.994	103.368	20.115	8.177	0.510
258.000	204.603	80.007	19.994	103.368	20.106	8.728	0.486
260.000	205.600	80.005	19.994	103.344	20.107	8.664	0.510
262.000	206.584	80.004	19.994	103.336	20.104	8.879	0.471
264.000	207.600	80.005	19.994	103.339	20.101	9.106	0.513
266.000	208.575	80.005	19.995	103.337	20.099	9.239	0.476
268.000	209.597	80.005	19.995	103.338	20.094	9.543	0.486
270.000	210.551	80.005	19.996	103.342	20.089	9.879	0.494
272.000	211.565	80.006	19.995	103.343	20.082	10.340	0.460
274.000	212.541	80.006	19.995	103.337	20.079	10.541	0.519
276.000	213.562	80.006	19.996	103.330	20.077	10.697	0.498
278.000	214.602	80.006	19.995	103.333	20.065	11.480	0.527
280.000	215.537	80.006	19.996	103.333	20.064	11.576	0.472
282.000	216.526	80.007	19.995	103.332	20.056	12.108	0.499
284.000	217.490	80.006	19.995	103.331	20.052	12.352	0.483
286.000	218.470	80.007	19.995	103.331	20.046	12.755	0.525
288.000	219.435	80.006	19.995	103.315	20.039	13.239	0.484
290.000	220.422	80.007	19.994	103.331	20.036	13.487	0.456
292.000	221.412	80.006	19.994	103.327	20.027	14.067	0.488
294.000	222.376	80.007	19.993	103.334	20.022	14.426	0.469
296.000	223.379	80.008	19.994	103.332	20.014	14.946	0.498
298.000	224.341	80.008	19.993	103.331	20.006	15.465	0.518
300.000	225.331	80.009	19.995	103.332	20.000	15.896	0.499
302.000	226.332	80.008	19.993	103.331	19.991	16.497	0.508
304.000	227.338	80.009	19.994	103.326	19.984	16.943	0.519
306.000	228.306	80.008	19.994	103.325	19.973	17.674	0.490
308.000	229.280	80.008	19.994	103.330	19.965	18.207	0.454
310.000	230.333	80.005	19.994	103.322	19.960	18.571	0.512
312.000	231.264	80.006	19.994	103.325	19.948	19.350	0.474
314.001	232.272	80.005	19.995	103.322	19.938	20.053	0.511
316.000	233.236	80.006	19.993	103.321	19.931	20.510	0.490
318.000	234.203	80.004	19.994	103.320	19.918	21.385	0.484
320.000	235.264	80.005	19.994	103.323	19.907	22.130	0.534
322.000	236.183	80.004	19.994	103.333	19.896	22.877	0.473
324.000	237.164	80.006	19.995	103.332	19.891	23.227	0.497
326.000	238.177	80.006	19.994	103.331	19.878	24.060	0.487
328.000	239.155	80.007	19.994	103.330	19.864	25.001	0.469
330.000	240.116	80.005	19.994	103.318	19.855	25.642	0.498
332.000	241.071	80.006	19.993	103.310	19.843	26.414	0.476
334.000	242.044	80.005	19.995	103.318	19.830	27.296	0.467
336.000	243.079	80.004	19.994	103.324	19.816	28.234	0.520
338.000	244.082	80.005	19.995	103.326	19.810	28.660	0.479
340.000	245.083	80.003	19.995	103.327	19.795	29.650	0.483
342.000	246.076	80.003	19.994	103.331	19.784	30.409	0.500
344.000	247.094	80.003	19.995	103.325	19.766	31.570	0.519
346.000	248.030	80.005	19.996	103.328	19.754	32.363	0.449
348.000	249.044	80.006	19.995	103.331	19.745	32.998	0.504
350.000	250.082	80.006	19.994	103.319	19.725	34.351	0.523
352.000	251.101	80.007	19.995	103.315	19.712	35.211	0.512
354.000	252.133	80.007	19.994	103.310	19.693	36.518	0.500
356.000	253.083	80.007	19.995	103.310	19.677	37.572	0.469
358.000	254.036	80.006	19.994	103.303	19.668	38.157	0.469
360.000	255.054	80.008	19.994	103.314	19.650	39.346	0.475
362.000	256.103	80.007	19.994	103.329	19.635	40.409	0.530
364.000	257.053	80.007	19.994	103.332	19.616	41.642	0.477
366.000	258.024	80.007	19.995	103.331	19.604	42.507	0.487
368.000	259.046	80.006	19.995	103.312	19.586	43.665	0.474
370.000	260.007	80.005	19.995	103.304	19.568	44.915	0.454
372.000	261.026	80.008	19.996	103.295	19.550	46.102	0.477
374.000	262.016	80.007	19.995	103.314	19.537	46.975	0.488
376.000	262.985	80.007	19.996	103.330	19.513	48.587	0.502
378.000	263.985	80.008	19.995	103.341	19.500	49.479	0.507
380.000	265.001	80.007	19.995	103.330	19.479	50.906	0.522
382.000	266.005	80.008	19.993	103.325	19.461	52.087	0.456
384.000	267.058	80.008	19.996	103.333	19.446	53.120	0.519
386.000	268.017	80.007	19.993	103.341	19.433	53.956	0.508
388.000	269.010	80.008	19.995	103.340	19.418	54.997	0.471
390.000	270.024	80.007	19.993	103.345	19.407	55.680	0.498
392.000	271.028	80.007	19.995	103.335	19.392	56.688	0.506
394.000	272.065	80.005	19.994	103.330	19.378	57.675	0.522
396.000	273.038	80.004	19.994	103.337	19.375	57.875	0.487
398.000	274.056	80.006	19.994	103.341	19.364	58.618	0.513
400.000	275.093	80.006	19.995	103.340	19.357	59.064	0.515
402.000	276.089	80.006	19.995	103.338	19.351	59.509	0.511
404.000	277.084	80.006	19.995	103.335	19.342	60.070	0.486
406.000	278.104	80.006	19.995	103.354	19.337	60.404	0.510
408.000	279.123	80.006	19.994	103.374	19.336	60.522	0.512
410.000	280.169	80.007	19.994	103.366	19.327	61.115	0.497
412.000	281.199	80.006	19.995	103.363	19.323	61.425	0.532
414.000	282.147	80.008	19.994	103.373	19.312	62.149	0.521
416.000	283.225	80.007	19.995	103.366	19.319	61.769	0.520
418.000	284.213	80.006	19.994	103.376	19.315	62.031	0.494
420.000	285.233	80.007	19.993	103.407	19.306	62.573	0.516
422.000	286.319	80.007	19.995	103.420	19.294	63.355	0.484
424.000	287.085	80.006	19.995	103.467	19.286	63.918	0.425
426.000	288.341	80.005	19.994	103.510	19.271	64.889	0.534
428.000	289.006	80.005	19.995	103.551	19.255	65.913	0.460
430.000	290.064	80.005	19.994	103.531	19.244	66.631	0.253
432.000	291.286	80.005	19.994	103.491	19.239	66.975	0.243
434.000	292.310	80.005	19.995	103.447	19.244	66.605	0.459
436.000	293.227	80.007	19.995	103.417	19.258	65.731	0.530
438.000	294.331	80.007	19.995	103.365	19.286	63.822	0.538
440.000	295.374	80.008	19.995	103.305	19.320	61.523	0.477
442.000	296.348	80.007	19.995	103.292	19.361	58.730	0.480
444.000	297.336	80.008	19.995	103.296	19.402	56.010	0.453
446.000	298.353	80.008	19.995	103.315	19.459	52.133	0.534
448.000	299.299	80.007	19.995	103.316	19.524	47.782	0.474
450.000	300.332	80.007	19.994	103.289	19.604	42.444	0.520
452.000	301.301	80.005	19.995	103.256	19.684	37.064	0.484
454.000	302.349	80.007	19.996	103.223	19.767	31.501	0.509
456.000	303.298	80.006	19.995	103.205	19.837	26.752	0.501
458.000	304.311	80.006	19.995	103.209	19.905	22.237	0.476
460.000	305.267	80.008	19.995	103.200	19.962	18.383	0.497
462.000	306.320	80.007	19.995	103.186	20.004	15.574	0.539
464.000	307.285	80.007	19.995	103.179	20.039	13.251	0.493
466.000	308.338	80.008	19.994	103.172	20.067	11.331	0.528
468.000	309.309	80.008	19.995	103.155	20.087	10.017	0.504
470.000	310.346	80.008	19.995	103.161	20.102	9.030	0.482
472.000	311.359	80.009	19.994	103.180	20.117	8.010	0.504
474.000	312.426	80.008	19.995	103.183	20.130	7.136	0.545
476.000	313.427	80.006	19.995	103.181	20.131	7.081	0.507
478.000	314.441	80.006	19.995	103.190	20.137	6.647	0.509
480.000	315.504	80.004	19.995	103.212	20.145	6.110	0.490
482.000	316.514	80.007	19.995	103.212	20.149	5.873	0.524
484.000	317.484	80.007	19.994	103.215	20.152	5.648	0.492
486.000	318.524	80.007	19.994	103.225	20.159	5.187	0.511
488.000	319.531	80.007	19.995	103.220	20.160	5.138	0.503
490.000	320.518	80.008	19.994	103.217	20.163	4.910	0.486
492.000	321.594	80.007	19.993	103.241	20.169	4.552	0.496
494.000	322.634	80.007	19.994	103.251	20.171	4.419	0.515
496.000	323.669	80.006	19.994	103.235	20.167	4.688	0.550
498.000	324.654	80.006	19.994	103.251	20.169	4.510	0.495
500.000	325.705	80.006	19.993	103.257	20.173	4.252	0.518
502.000	326.728	80.007	19.993	103.254	20.173	4.279	0.486
504.000	327.711	80.008	19.995	103.256	20.168	4.563	0.505
506.000	328.733	80.007	19.995	103.257	20.174	4.177	0.514
508.000	329.812	80.006	19.995	103.260	20.180	3.818	0.531
510.000	330.769	80.006	19.995	103.257	20.176	4.032	0.489
512.000	331.812	80.007	19.994	103.262	20.179	3.879	0.504
514.000	332.799	80.007	19.995	103.274	20.178	3.942	0.496
516.000	333.807	80.007	19.994	103.278	20.179	3.829	0.503
518.000	334.816	80.006	19.992	103.288	20.181	3.727	0.469
520.000	335.868	80.006	19.994	103.272	20.183	3.571	0.517
522.000	336.849	80.007	19.994	103.282	20.181	3.738	0.526
524.000	337.879	80.007	19.994	103.280	20.188	3.263	0.497
526.000	338.882	80.008	19.994	103.286	20.186	3.399	0.499
528.000	339.887	80.006	19.994	103.295	20.186	3.405	0.503
530.000	340.874	80.005	19.994	103.288	20.185	3.448	0.483
532.000	341.889	80.006	19.994	103.281	20.188	3.271	0.513
534.000	342.910	80.007	19.994	103.284	20.192	3.010	0.520
536.000	343.911	80.006	19.993	103.282	20.194	2.873	0.487
538.000	344.904	80.007	19.996	103.295	20.195	2.749	0.534
540.000	345.912	80.008	19.996	103.298	20.190	3.106	0.503
542.000	346.910	80.007	19.995	103.288	20.194	2.854	0.501
544.000	347.908	80.007	19.994	103.287	20.193	2.917	0.456
546.000	348.966	80.009	19.996	103.285	20.193	2.906	0.505
548.000	349.992	80.009	19.996	103.290	20.194	2.841	0.521
550.000	350.954	80.009	19.994	103.289	20.190	3.129	0.465
552.001	352.039	80.010	19.995	103.289	20.188	3.238	0.499
554.000	353.013	80.010	19.996	103.291	20.192	2.973	0.524
556.000	354.052	80.009	19.995	103.291	20.188	3.260	0.529
558.000	355.069	80.008	19.995	103.291	20.181	3.703	0.501
560.000	356.036	80.007	19.995	103.293	20.187	3.346	0.457
562.000	357.015	80.006	19.995	103.294	20.183	3.614	0.459
564.000	358.007	80.005	19.997	103.287	20.185	3.418	0.463
566.000	359.023	80.007	19.995	103.288	20.184	3.549	0.522
568.000	360.008	80.006	19.995	103.293	20.182	3.624	0.488
570.000	361.030	80.006	19.996	103.295	20.183	3.612	0.489
572.000	362.021	80.006	19.995	103.293	20.193	2.945	0.494
574.000	363.015	80.006	19.996	103.292	20.181	3.746	0.502
576.000	364.014	80.005	19.995	103.295	20.192	2.958	0.470
578.001	364.989	80.006	19.995	103.295	20.189	3.205	0.459
580.000	366.046	80.008	19.993	103.296	20.189	3.205	0.513
582.000	367.080	80.006	19.994	103.296	20.186	3.414	0.559
584.000	368.065	80.007	19.993	103.299	20.187	3.329	0.519
586.000	369.151	80.008	19.994	103.297	20.186	3.403	0.539
588.000	370.138	80.008	19.994	103.297	20.184	3.516	0.492
590.000	371.187	80.007	19.995	103.300	20.182	3.633	0.565
592.000	372.147	80.007	19.995	103.304	20.180	3.770	0.494
594.000	373.175	80.007	19.995	103.302	20.182	3.622	0.496
596.000	374.221	80.007	19.996	103.299	20.174	4.178	0.512
598.000	375.251	80.005	19.995	103.298	20.178	3.920	0.488
600.000	376.254	80.006	19.994	103.298	20.182	3.655	0.518
602.000	377.336	80.005	19.994	103.297	20.173	4.274	0.555
604.000	378.333	80.008	19.995	103.299	20.174	4.187	0.518
606.000	379.334	80.007	19.994	103.297	20.177	3.981	0.524
608.000	380.358	80.010	19.994	103.295	20.172	4.313	0.520
610.000	381.381	80.009	19.993	103.298	20.172	4.332	0.486
612.000	382.383	80.007	19.994	103.295	20.166	4.723	0.499
614.000	383.437	80.009	19.995	103.294	20.167	4.629	0.520
616.000	384.405	80.008	19.994	103.295	20.171	4.411	0.538
618.000	385.445	80.008	19.994	103.293	20.165	4.776	0.510
620.000	386.452	80.007	19.994	103.293	20.164	4.862	0.518
622.000	387.428	80.006	19.993	103.295	20.166	4.700	0.510
624.000	388.458	80.008	19.994	103.307	20.165	4.804	0.524
626.000	389.458	80.008	19.995	103.307	20.163	4.919	0.489
628.000	390.471	80.009	19.994	103.295	20.157	5.303	0.540
630.000	391.473	80.009	19.995	103.295	20.158	5.293	0.465
632.000	392.460	80.010	19.994	103.295	20.151	5.718	0.485
634.000	393.526	80.009	19.994	103.295	20.149	5.872	0.537
636.000	394.501	80.011	19.996	103.294	20.144	6.174	0.493
638.000	395.556	80.010	19.995	103.293	20.142	6.369	0.516
640.000	396.542	80.010	19.995	103.294	20.144	6.202	0.485
642.000	397.550	80.008	19.995	103.293	20.143	6.243	0.476
644.000	398.580	80.005	19.994	103.295	20.139	6.571	0.533
646.000	399.594	80.006	19.994	103.299	20.135	6.808	0.510
648.000	400.584	80.007	19.994	103.297	20.130	7.147	0.476
650.000	401.549	80.007	19.994	103.297	20.129	7.240	0.497
652.000	402.577	80.006	19.995	103.304	20.119	7.870	0.490
654.000	403.597	80.006	19.995	103.307	20.125	7.488	0.548
656.000	404.645	80.006	19.995	103.306	20.108	8.591	0.523
658.000	405.658	80.006	19.994	103.301	20.112	8.323	0.522
660.000	406.589	80.006	19.995	103.298	20.101	9.091	0.469
662.000	407.674	80.006	19.996	103.291	20.103	8.967	0.536
664.000	408.679	80.005	19.995	103.294	20.100	9.151	0.505
666.000	409.609	80.005	19.994	103.296	20.092	9.696	0.511
668.000	410.622	80.007	19.996	103.306	20.090	9.802	0.482
670.000	411.629	80.006	19.994	103.298	20.080	10.470	0.480
672.000	412.658	80.006	19.994	103.297	20.079	10.535	0.508
674.000	413.619	80.006	19.995	103.299	20.076	10.758	0.507
676.000	414.617	80.007	19.994	103.303	20.071	11.104	0.503
678.000	415.663	80.006	19.993	103.303	20.064	11.588	0.524
680.000	416.640	80.006	19.995	103.298	20.054	12.229	0.533
682.000	417.681	80.007	19.994	103.291	20.050	12.506	0.515
684.000	418.739	80.007	19.994	103.299	20.040	13.193	0.559
686.001	419.709	80.007	19.995	103.296	20.030	13.823	0.471
688.000	420.783	80.010	19.996	103.297	20.021	14.430	0.569
690.000	421.796	80.008	19.994	103.294	20.012	15.048	0.517
692.000	422.782	80.007	19.994	103.293	20.005	15.517	0.519
694.000	423.819	80.008	19.996	103.291	19.992	16.396	0.520
696.000	424.780	80.009	19.995	103.295	19.979	17.281	0.488
698.000	425.841	80.008	19.995	103.290	19.964	18.312	0.533
700.000	426.876	80.007	19.994	103.291	19.959	18.657	0.520
702.000	427.884	80.008	19.995	103.290	19.957	18.787	0.504
704.000	428.921	80.007	19.995	103.295	19.946	19.524	0.520
706.000	429.916	80.006	19.994	103.291	19.928	20.731	0.532
708.000	430.899	80.008	19.995	103.292	19.921	21.148	0.497
710.000	431.891	80.007	19.995	103.295	19.909	21.954	0.456
712.000	432.958	80.008	19.993	103.295	19.900	22.592	0.522
714.000	433.941	80.009	19.995	103.294	19.890	23.270	0.534
716.000	435.013	80.010	19.996	103.295	19.875	24.296	0.534
718.000	436.018	80.010	19.995	103.296	19.869	24.697	0.507
720.000	437.020	80.010	19.994	103.293	19.855	25.593	0.499
722.000	438.034	80.009	19.994	103.295	19.847	26.167	0.511
724.000	439.074	80.008	19.994	103.305	19.844	26.377	0.506
726.000	440.134	80.007	19.994	103.305	19.828	27.443	0.543
728.000	441.146	80.006	19.994	103.293	19.822	27.841	0.529
730.000	442.140	80.005	19.995	103.292	19.813	28.402	0.500
732.000	443.156	80.006	19.994	103.294	19.810	28.648	0.509
734.000	444.155	80.005	19.994	103.294	19.799	29.356	0.498
736.000	445.155	80.005	19.995	103.296	19.791	29.875	0.490
738.000	446.229	80.006	19.994	103.297	19.785	30.341	0.545
740.000	447.208	80.006	19.993	103.258	19.785	30.272	0.497
742.000	448.201	80.007	19.995	103.289	19.780	30.628	0.492
744.000	449.255	80.009	19.996	103.339	19.782	30.518	0.499
746.000	450.258	80.007	19.995	103.302	19.785	30.339	0.516
748.001	451.282	80.007	19.993	103.299	19.784	30.354	0.541
750.000	452.287	80.005	19.995	103.293	19.783	30.432	0.513
752.000	453.343	80.007	19.995	103.293	19.783	30.459	0.531
754.000	454.343	80.006	19.995	103.293	19.789	30.040	0.521
756.000	455.385	80.005	19.994	103.290	19.784	30.390	0.507
758.000	456.396	80.006	19.995	103.292	19.787	30.200	0.471
760.000	457.415	80.006	19.996	103.292	19.799	29.344	0.506
762.000	458.468	80.006	19.997	103.293	19.810	28.608	0.516
764.000	459.488	80.005	19.996	103.291	19.815	28.319	0.500
766.000	460.539	80.005	19.995	103.289	19.821	27.884	0.519
768.000	461.571	80.007	19.995	103.289	19.827	27.509	0.492
770.000	462.566	80.008	19.994	103.294	19.831	27.250	0.503
772.000	463.614	80.007	19.994	103.293	19.837	26.806	0.533
774.000	464.621	80.008	19.993	103.294	19.852	25.798	0.519
776.000	465.680	80.010	19.995	103.292	19.860	25.236	0.499
778.000	466.696	80.010	19.994	103.291	19.869	24.650	0.522
780.000	467.739	80.008	19.994	103.294	19.878	24.038	0.536
782.000	468.768	80.007	19.994	103.295	19.888	23.375	0.514
784.000	469.778	80.007	19.993	103.293	19.894	22.956	0.515
786.000	470.845	80.007	19.993	103.288	19.897	22.791	0.524
788.000	471.848	80.007	19.994	103.291	19.909	21.962	0.496
790.000	472.881	80.007	19.993	103.296	19.918	21.371	0.529
792.001	473.965	80.008	19.994	103.301	19.926	20.861	0.513
794.000	475.016	80.007	19.994	103.298	19.930	20.561	0.538
796.000	476.027	80.008	19.994	103.297	19.934	20.272	0.500
798.000	477.074	80.010	19.994	103.286	19.941	19.848	0.516
800.000	478.061	80.008	19.993	103.281	19.952	19.096	0.530
802.000	479.110	80.009	19.993	103.282	19.952	19.094	0.516
804.000	480.111	80.008	19.994	103.289	19.962	18.439	0.472
806.000	481.146	80.008	19.993	103.288	19.973	17.691	0.534
808.000	482.180	80.008	19.993	103.291	19.977	17.400	0.497
810.000	483.155	80.007	19.993	103.286	19.985	16.890	0.507
812.000	484.180	80.008	19.993	103.275	19.994	16.286	0.489
814.000	485.209	80.008	19.994	103.275	20.006	15.500	0.504
816.000	486.259	80.006	19.993	103.281	20.006	15.456	0.543
818.000	487.233	80.008	19.994	103.269	20.018	14.647	0.498
820.000	488.261	80.008	19.994	103.289	20.027	14.030	0.523
822.000	489.256	80.007	19.994	103.287	20.029	13.954	0.502
824.000	490.340	80.005	19.994	103.284	20.040	13.177	0.536
826.000	491.348	80.005	19.995	103.277	20.049	12.573	0.513
828.000	492.369	80.006	19.994	103.263	20.057	12.033	0.491
830.000	493.413	80.006	19.994	103.267	20.061	11.806	0.545
832.000	494.431	80.007	19.994	103.279	20.068	11.304	0.528
834.000	495.439	80.008	19.995	103.281	20.073	10.971	0.515
836.000	496.426	80.006	19.994	103.286	20.081	10.448	0.496
838.000	497.476	80.005	19.995	103.287	20.085	10.151	0.514
840.000	498.530	80.006	19.995	103.276	20.095	9.484	0.506
842.000	499.532	80.006	19.995	103.277	20.101	9.073	0.501
844.000	500.579	80.006	19.994	103.271	20.103	8.942	0.556
846.000	501.609	80.005	19.994	103.288	20.108	8.626	0.525
848.000	502.590	80.005	19.994	103.294	20.118	7.946	0.540
850.000	503.606	80.006	19.995	103.272	20.122	7.697	0.506
852.000	504.618	80.007	19.996	103.270	20.128	7.294	0.510
854.000	505.669	80.006	19.995	103.290	20.131	7.041	0.551
856.000	506.674	80.007	19.996	103.276	20.133	6.945	0.536
858.000	507.651	80.007	19.995	103.273	20.136	6.708	0.493
860.000	508.701	80.006	19.995	103.277	20.141	6.399	0.512
862.000	509.752	80.006	19.995	103.278	20.141	6.375	0.532
864.000	510.748	80.006	19.995	103.272	20.145	6.151	0.509
866.000	511.743	80.007	19.995	103.269	20.153	5.565	0.490
868.000	512.745	80.007	19.995	103.265	20.152	5.639	0.498
870.000	513.782	80.008	19.993	103.273	20.153	5.571	0.516
872.000	514.851	80.007	19.993	103.272	20.151	5.718	0.535
874.000	515.849	80.007	19.995	103.281	20.159	5.194	0.530
876.000	516.882	80.007	19.994	103.271	20.164	4.873	0.494
878.000	517.902	80.006	19.994	103.268	20.164	4.834	0.538
880.000	518.914	80.008	19.994	103.261	20.167	4.625	0.500
882.000	519.940	80.010	19.993	103.259	20.171	4.399	0.544
884.000	520.955	80.010	19.995	103.264	20.171	4.390	0.502
886.000	522.008	80.010	19.993	103.263	20.171	4.394	0.523
888.000	523.050	80.009	19.993	103.254	20.171	4.368	0.539
890.000	524.040	80.009	19.995	103.266	20.170	4.455	0.502
892.000	525.082	80.007	19.994	103.267	20.171	4.367	0.536
894.000	526.099	80.006	19.995	103.264	20.176	4.045	0.501
896.000	527.112	80.008	19.995	103.272	20.172	4.341	0.493
898.000	528.185	80.007	19.994	103.275	20.174	4.217	0.487
900.000	529.208	80.007	19.993	103.271	20.175	4.115	0.523
902.000	530.220	80.007	19.993	103.274	20.172	4.321	0.546
904.000	531.268	80.007	19.994	103.261	20.175	4.108	0.500
906.000	532.259	80.005	19.993	103.260	20.179	3.838	0.486
908.000	533.282	80.006	19.994	103.262	20.181	3.739	0.505
910.000	534.320	80.007	19.994	103.266	20.180	3.776	0.514
912.000	535.397	80.006	19.994	103.258	20.181	3.727	0.556
914.000	536.341	80.007	19.995	103.261	20.187	3.307	0.504
916.000	537.397	80.007	19.993	103.276	20.186	3.373	0.531
918.000	538.360	80.006	19.994	103.273	20.187	3.345	0.479
920.000	539.414	80.005	19.994	103.268	20.191	3.019	0.542
922.000	540.484	80.005	19.994	103.272	20.192	2.961	0.573
924.000	541.466	80.004	19.995	103.293	20.203	2.240	0.518
926.000	542.490	80.006	19.995	103.296	20.199	2.500	0.521
928.000	543.576	80.005	19.995	103.285	20.198	2.579	0.569
930.000	544.550	80.005	19.995	103.286	20.198	2.600	0.492
932.000	545.552	80.005	19.995	103.274	20.199	2.509	0.510
934.000	546.619	80.005	19.995	103.265	20.206	2.049	0.517
936.000	547.683	80.005	19.995	103.279	20.200	2.429	0.552
938.000	548.682	80.006	19.995	103.264	20.199	2.520	0.517
940.000	549.693	80.008	19.994	103.264	20.196	2.736	0.494
942.000	550.697	80.007	19.995	103.262	20.201	2.364	0.483
944.000	551.748	80.008	19.994	103.256	20.198	2.577	0.544
946.000	552.727	80.008	19.995	103.253	20.193	2.899	0.524
948.001	553.788	80.006	19.994	103.252	20.198	2.598	0.562
950.000	554.817	80.005	19.993	103.251	20.204	2.184	0.515
952.000	555.828	80.007	19.996	103.250	20.200	2.464	0.510
954.000	556.873	80.006	19.994	103.253	20.200	2.418	0.510
956.000	557.883	80.005	19.995	103.246	20.196	2.742	0.518
958.000	558.891	80.007	19.994	103.250	20.194	2.814	0.493
960.000	559.905	80.008	19.995	103.253	20.194	2.824	0.519
962.000	560.977	80.008	19.994	103.254	20.202	2.305	0.533
964.000	562.039	80.008	19.993	103.251	20.201	2.357	0.522
966.000	563.095	80.008	19.994	103.260	20.195	2.749	0.566
968.000	564.101	80.010	19.994	103.249	20.199	2.511	0.517
970.000	565.086	80.010	19.994	103.249	20.200	2.452	0.484
972.000	566.125	80.009	19.994	103.252	20.201	2.387	0.519
974.000	567.173	80.009	19.994	103.252	20.198	2.590	0.504
976.000	568.175	80.007	19.995	103.253	20.200	2.447	0.511
978.000	569.203	80.006	19.995	103.255	20.201	2.396	0.516
980.000	570.253	80.007	19.994	103.266	20.207	1.944	0.550
982.000	571.227	80.005	19.993	103.279	20.201	2.344	0.495
984.000	572.289	80.006	19.994	103.258	20.202	2.316	0.512
986.000	573.334	80.007	19.994	103.248	20.206	2.055	0.534
988.000	574.369	80.006	19.994	103.255	20.203	2.271	0.492
990.000	575.399	80.006	19.993	103.258	20.205	2.131	0.528
992.000	576.421	80.006	19.994	103.257	20.202	2.323	0.502
994.000	577.425	80.007	19.994	103.257	20.202	2.335	0.502
996.000	578.473	80.007	19.995	103.250	20.202	2.277	0.540
998.000	579.506	80.006	19.993	103.246	20.200	2.427	0.510
1000.000	580.551	80.006	19.993	103.254	20.202	2.324	0.536
1002.000	581.556	80.006	19.993	103.242	20.200	2.470	0.533
1004.000	582.566	80.005	19.993	103.257	20.198	2.568	0.500
1006.000	583.630	80.007	19.994	103.257	20.201	2.383	0.558
1008.000	584.682	80.006	19.994	103.263	20.204	2.160	0.539
1010.000	585.649	80.005	19.995	103.267	20.207	2.005	0.504
1012.000	586.704	80.007	19.994	103.264	20.205	2.105	0.498
1014.000	587.723	80.005	19.994	103.261	20.205	2.086	0.512
1016.000	588.755	80.005	19.994	103.259	20.208	1.927	0.514
1018.000	589.758	80.006	19.994	103.248	20.207	1.942	0.509
1020.000	590.758	80.007	19.994	103.252	20.206	2.023	0.501
1022.000	591.817	80.007	19.995	103.257	20.204	2.162	0.526
1024.000	592.833	80.007	19.995	103.246	20.204	2.140	0.514
1026.001	593.868	80.009	19.995	103.251	20.208	1.932	0.498
1027.999	594.892	80.008	19.995	103.251	20.207	1.979	0.533
1030.000	595.933	80.008	19.994	103.241	20.204	2.145	0.530
1031.999	596.943	80.008	19.994	103.241	20.208	1.934	0.522
1034.000	597.954	80.009	19.994	103.255	20.208	1.873	0.496
1036.000	598.914	80.007	19.995	103.252	20.212	1.666	0.481
1037.999	599.954	80.007	19.995	103.254	20.211	1.705	0.508
1040.000	600.994	80.007	19.995	103.251	20.212	1.662	0.532
1042.001	602.017	80.005	19.994	103.225	20.210	1.744	0.521
1044.000	603.035	80.006	19.996	103.238	20.210	1.762	0.512
1046.001	604.063	80.007	19.995	103.250	20.207	2.004	0.504
1048.000	605.122	80.008	19.994	103.256	20.207	1.990	0.525
1050.000	606.137	80.008	19.994	103.257	20.209	1.869	0.493
1052.000	607.160	80.009	19.995	103.267	20.209	1.818	0.526
1054.000	608.162	80.008	19.995	103.254	20.214	1.501	0.505
1056.000	609.163	80.009	19.995	103.229	20.211	1.673	0.500
1058.000	610.161	80.006	19.994	103.247	20.212	1.606	0.497
1060.000	611.136	80.007	19.994	103.252	20.209	1.827	0.503
1062.000	612.169	80.006	19.994	103.267	20.214	1.530	0.539
1064.000	613.165	80.006	19.994	103.261	20.208	1.903	0.519
1066.000	614.181	80.006	19.995	103.258	20.212	1.647	0.470
1068.000	615.240	80.004	19.994	103.261	20.211	1.690	0.512
1070.000	616.280	80.007	19.994	103.253	20.208	1.906	0.517
1072.000	617.251	80.006	19.993	103.242	20.210	1.793	0.525
1074.001	618.261	80.007	19.993	103.249	20.215	1.426	0.495
1076.001	619.280	80.005	19.994	103.249	20.211	1.717	0.511
1078.000	620.287	80.007	19.995	103.250	20.216	1.384	0.506
1080.000	621.323	80.007	19.994	103.254	20.215	1.417	0.547
1082.000	622.324	80.006	19.994	103.240	20.214	1.503	0.530
1084.000	623.348	80.006	19.994	103.245	20.211	1.677	0.500
1086.000	624.342	80.006	19.994	103.238	20.217	1.319	0.505
1088.000	625.416	80.005	19.995	103.252	20.213	1.602	0.540
1090.000	626.400	80.006	19.995	103.246	20.213	1.566	0.481
1092.000	627.483	80.005	19.994	103.255	20.216	1.366	0.535
1094.000	628.525	80.006	19.994	103.248	20.216	1.369	0.509
1096.000	629.583	80.005	19.994	103.241	20.219	1.134	0.538
1098.000	630.539	80.007	19.994	103.241	20.220	1.099	0.520
1100.000	631.564	80.006	19.994	103.245	20.222	0.993	0.533
1102.000	632.519	80.005	19.992	103.258	20.222	0.978	0.487
1104.000	633.560	80.007	19.995	103.257	20.217	1.280	0.508
1106.000	634.526	80.008	19.994	103.257	20.219	1.160	0.480
1108.000	635.632	80.007	19.994	103.257	20.218	1.210	0.519
1110.000	636.622	80.007	19.995	103.229	20.215	1.404	0.505
1112.000	637.633	80.006	19.996	103.242	20.219	1.154	0.511
1114.000	638.639	80.007	19.995	103.235	20.217	1.299	0.470
1116.000	639.602	80.007	19.995	103.243	20.218	1.234	0.505
1118.001	640.590	80.005	19.994	103.265	20.221	1.037	0.527
1120.000	641.605	80.006	19.996	103.244	20.218	1.256	0.488
1122.000	642.622	80.007	19.995	103.244	20.220	1.132	0.517
1124.000	643.571	80.009	19.996	103.232	20.218	1.221	0.485
1126.000	644.559	80.007	19.994	103.245	20.224	0.821	0.493
1128.000	645.537	80.008	19.994	103.239	20.227	0.628	0.495
1130.000	646.530	80.007	19.995	103.253	20.219	1.136	0.489
1132.000	647.579	80.008	19.994	103.253	20.218	1.234	0.533
1134.000	648.567	80.009	19.994	103.259	20.219	1.139	0.485
1136.000	649.560	80.009	19.994	103.245	20.218	1.249	0.482
1138.001	650.594	80.007	19.995	103.254	20.217	1.332	0.495
1140.000	651.566	80.008	19.994	103.248	20.222	0.995	0.500
1142.000	652.643	80.008	19.996	103.250	20.218	1.208	0.497
1144.000	653.606	80.005	19.996	103.238	20.218	1.230	0.485
1146.000	654.621	80.007	19.996	103.247	20.217	1.291	0.526
1148.000	655.658	80.008	19.995	103.238	20.218	1.261	0.522
1150.000	656.637	80.006	19.996	103.246	20.218	1.232	0.479
1152.000	657.701	80.005	19.996	103.235	20.219	1.180	0.519
1154.000	658.748	80.005	19.996	103.227	20.218	1.228	0.509
1156.000	659.765	80.007	19.995	103.233	20.222	0.973	0.493
1158.000	660.791	80.008	19.993	103.240	20.219	1.138	0.506
1160.001	661.767	80.007	19.995	103.236	20.219	1.178	0.514
1162.000	662.802	80.007	19.993	103.255	20.218	1.213	0.503
1164.000	663.812	80.008	19.995	103.257	20.219	1.191	0.531
1166.000	664.788	80.009	19.995	103.244	20.219	1.184	0.528
1168.000	665.794	80.006	19.994	103.236	20.221	1.030	0.498
1170.000	666.871	80.007	19.995	103.248	20.221	1.036	0.505
1172.000	667.873	80.006	19.995	103.255	20.223	0.930	0.484
1174.000	668.922	80.005	19.994	103.241	20.218	1.237	0.533
1176.001	669.976	80.006	19.993	103.245	20.216	1.350	0.525
1178.000	670.955	80.007	19.995	103.244	20.217	1.325	0.493
1180.000	672.023	80.005	19.995	103.229	20.215	1.404	0.522
1182.000	673.008	80.005	19.995	103.249	20.218	1.256	0.485
1184.000	674.150	80.007	19.994	103.227	20.221	1.010	0.541
1186.001	675.177	80.006	19.994	103.235	20.219	1.141	0.501
1188.000	676.218	80.007	19.994	103.242	20.220	1.082	0.552
1190.000	677.258	80.008	19.995	103.239	20.222	0.945	0.533
1192.000	678.275	80.007	19.994	103.234	20.223	0.908	0.521
1194.000	679.290	80.008	19.994	103.236	20.221	1.052	0.516
1196.000	680.364	80.007	19.993	103.240	20.220	1.112	0.532
1198.000	681.421	80.007	19.994	103.229	20.218	1.247	0.540
1200.000	682.470	80.008	19.993	103.231	20.219	1.174	0.506
1202.000	683.507	80.006	19.994	103.241	20.221	1.047	0.517
1204.000	684.528	80.006	19.994	103.244	20.222	0.937	0.486
1206.000	685.602	80.007	19.995	103.237	20.222	0.937	0.538
1208.000	686.603	80.006	19.995	103.254	20.219	1.182	0.511
1210.001	687.644	80.009	19.996	103.247	20.224	0.854	0.527
1212.000	688.632	80.007	19.994	103.237	20.223	0.883	0.497
1214.000	689.646	80.008	19.995	103.228	20.219	1.195	0.516
1216.000	690.650	80.008	19.994	103.234	20.219	1.165	0.481
1218.000	691.690	80.008	19.994	103.224	20.215	1.439	0.539
1220.000	692.693	80.010	19.993	103.216	20.218	1.204	0.507
1222.001	693.649	80.008	19.993	103.215	20.216	1.400	0.488
1224.000	694.682	80.006	19.994	103.225	20.215	1.458	0.500
1226.000	695.688	80.008	19.995	103.237	20.215	1.417	0.508
1228.000	696.733	80.005	19.993	103.229	20.216	1.348	0.498
1230.000	697.732	80.008	19.995	103.231	20.215	1.467	0.506
1232.000	698.713	80.008	19.994	103.221	20.216	1.352	0.484
1234.000	699.676	80.005	19.995	103.221	20.214	1.534	0.474
1236.000	700.707	80.005	19.995	103.221	20.216	1.374	0.520
1238.000	701.692	80.005	19.994	103.231	20.213	1.569	0.521
1240.000	702.702	80.006	19.995	103.238	20.220	1.128	0.504
1242.000	703.719	80.005	19.996	103.235	20.220	1.093	0.531
1244.000	704.684	80.005	19.995	103.244	20.219	1.143	0.475
1246.000	705.739	80.005	19.995	103.238	20.222	0.967	0.526
1248.000	706.680	80.006	19.996	103.229	20.221	1.002	0.466
1250.000	707.712	80.006	19.994	103.228	20.224	0.824	0.510
1252.000	708.750	80.007	19.995	103.230	20.224	0.856	0.487
1254.000	709.793	80.005	19.994	103.228	20.221	1.021	0.520
1256.000	710.824	80.004	19.994	103.220	20.224	0.861	0.553
1258.000	711.825	80.005	19.994	103.240	20.222	0.963	0.511
1260.000	712.875	80.006	19.994	103.238	20.222	0.995	0.535
1262.000	713.918	80.005	19.994	103.226	20.224	0.858	0.504
1264.000	714.921	80.005	19.994	103.230	20.224	0.861	0.494
1266.000	715.929	80.005	19.994	103.231	20.223	0.902	0.495
1268.000	716.941	80.006	19.995	103.228	20.227	0.628	0.537
1270.000	717.911	80.007	19.995	103.225	20.226	0.708	0.489
1272.000	718.959	80.009	19.994	103.248	20.227	0.602	0.504
1274.001	719.935	80.009	19.994	103.253	20.225	0.787	0.505
1276.000	720.917	80.008	19.994	103.239	20.224	0.819	0.513
1278.000	721.896	80.008	19.995	103.229	20.226	0.687	0.517
1280.000	722.931	80.008	19.995	103.224	20.228	0.558	0.488
1282.000	723.913	80.007	19.994	103.238	20.225	0.772	0.511
1284.000	724.883	80.007	19.994	103.232	20.226	0.728	0.490
1286.000	725.882	80.006	19.995	103.235	20.224	0.828	0.510
1288.000	726.888	80.006	19.995	103.226	20.223	0.869	0.504
1290.000	727.849	80.009	19.994	103.231	20.226	0.687	0.508
1292.000	728.911	80.008	19.994	103.229	20.222	0.980	0.505
1294.000	729.872	80.009	19.994	103.230	20.223	0.902	0.504
1296.001	730.897	80.008	19.993	103.229	20.223	0.911	0.499
1298.000	731.881	80.009	19.993	103.236	20.219	1.145	0.469
1300.000	732.907	80.009	19.995	103.238	20.223	0.919	0.510
1302.000	733.914	80.008	19.994	103.236	20.225	0.741	0.489
1304.000	734.939	80.009	19.994	103.236	20.222	0.961	0.483
1306.000	735.880	80.010	19.995	103.239	20.220	1.071	0.481
1308.000	736.859	80.008	19.995	103.237	20.222	0.972	0.496
1310.000	737.854	80.005	19.995	103.231	20.221	1.015	0.515
1312.000	738.858	80.006	19.995	103.230	20.219	1.195	0.500
1314.001	739.879	80.005	19.995	103.232	20.222	0.934	0.498
1316.000	740.884	80.006	19.994	103.231	20.227	0.661	0.497
1318.000	741.887	80.004	19.995	103.228	20.228	0.561	0.539
1320.001	742.908	80.007	19.994	103.235	20.226	0.715	0.517
1321.500	743.621	80.006	19.994	103.231	20.223	0.878	0.465