File: 01_Data/Window_Screen/MCC/Window_Screen_MCC_30K_min_211203_R1.txt
Sample ID:	C:\MCC\MCC Cal\Test\Window_Screen_MCC_30K_min_211203_R1.txt
Sample Weight (mg):	4.57
Heating Rate (C/s):	0.5
Combustor Temp (C):	900
N2 Flow Rate (cc/min):	80
O2 Flow Rate (cc/min):	20
Calibration File:	C:\MCC\MCC Cal\Coeff1 JN10440_30_210304.txt.txt
T Correction Coefficients:	0	1.024463	0
Time Shift (s):	14
*
Time (s)	Temperature (C)	N2 flow rate (cc/min)	O2 flow rate (cc/min)	Flow Rate (cc/min)	Oxygen (%)	HRR (W/g)	Heating rate (C/s)
0.000	109.484	80.005	19.995	103.104	20.236	0.338	-0.013
2.000	109.516	80.006	19.995	103.109	20.241	-0.049	0.029
4.000	109.517	80.004	19.994	103.111	20.238	0.159	0.030
6.000	109.515	80.006	19.995	103.126	20.236	0.329	0.006
8.001	109.532	80.008	19.995	103.129	20.238	0.171	-0.007
9.999	109.503	80.007	19.995	103.124	20.241	-0.054	-0.004
11.999	109.486	80.008	19.995	103.137	20.232	0.597	0.030
13.999	109.461	80.007	19.994	103.147	20.234	0.494	0.028
16.000	109.507	80.007	19.994	103.171	20.230	0.773	0.022
18.000	109.530	80.008	19.994	103.187	20.226	1.038	0.004
20.000	109.548	80.006	19.994	103.212	20.224	1.143	-0.006
22.000	109.612	80.008	19.995	103.244	20.221	1.365	0.023
24.000	109.712	80.005	19.994	103.207	20.216	1.723	0.028
26.000	109.864	80.007	19.994	103.319	20.211	2.060	0.046
28.000	110.005	80.006	19.995	103.351	20.210	2.169	0.077
30.000	110.241	80.007	19.995	103.311	20.203	2.648	0.145
32.000	110.464	80.009	19.995	103.309	20.207	2.401	0.103
34.000	110.737	80.006	19.995	103.313	20.203	2.637	0.133
35.999	111.002	80.010	19.994	103.324	20.205	2.534	0.122
37.999	111.351	80.008	19.995	103.303	20.206	2.434	0.145
40.000	111.665	80.008	19.995	103.325	20.204	2.612	0.166
41.999	112.046	80.007	19.995	103.331	20.204	2.590	0.172
44.000	112.403	80.007	19.995	103.323	20.202	2.721	0.186
45.999	112.838	80.007	19.996	103.342	20.200	2.875	0.210
47.999	113.227	80.007	19.996	103.334	20.197	3.086	0.202
49.999	113.685	80.007	19.995	103.343	20.195	3.220	0.227
52.001	114.203	80.007	19.996	103.344	20.192	3.426	0.263
53.999	114.684	80.007	19.996	103.350	20.194	3.283	0.255
55.999	115.244	80.006	19.996	103.358	20.192	3.458	0.272
58.000	115.774	80.006	19.995	103.354	20.189	3.628	0.273
60.000	116.331	80.008	19.996	103.325	20.190	3.572	0.245
62.001	116.913	80.006	19.997	103.340	20.192	3.410	0.283
63.999	117.491	80.004	19.996	103.432	20.194	3.254	0.304
66.001	118.151	80.005	19.998	103.389	20.191	3.521	0.295
68.000	118.813	80.006	19.997	103.382	20.190	3.595	0.323
69.999	119.492	80.006	19.996	103.385	20.185	3.915	0.355
72.000	120.188	80.006	19.996	103.390	20.188	3.725	0.321
74.000	120.909	80.005	19.995	103.392	20.185	3.901	0.349
76.000	121.656	80.006	19.995	103.386	20.188	3.714	0.401
77.999	122.423	80.004	19.993	103.387	20.182	4.141	0.370
79.999	123.176	80.006	19.996	103.394	20.186	3.863	0.389
81.999	123.980	80.005	19.996	103.383	20.183	4.075	0.417
84.000	124.718	80.004	19.995	103.390	20.183	4.040	0.383
86.000	125.533	80.004	19.995	103.384	20.184	3.976	0.392
88.000	126.323	80.004	19.994	103.387	20.182	4.145	0.397
90.000	127.137	80.006	19.995	103.409	20.184	4.003	0.403
92.000	127.983	80.007	19.995	103.411	20.184	3.964	0.407
94.000	128.878	80.007	19.994	103.406	20.185	3.940	0.418
95.999	129.718	80.008	19.995	103.401	20.187	3.815	0.430
98.000	130.566	80.007	19.994	103.391	20.187	3.772	0.416
100.001	131.523	80.007	19.995	103.399	20.184	3.960	0.459
102.000	132.432	80.007	19.995	103.411	20.184	4.004	0.489
104.000	133.353	80.004	19.994	103.393	20.184	3.988	0.452
105.999	134.274	80.006	19.995	103.387	20.182	4.119	0.471
108.000	135.234	80.007	19.994	103.387	20.180	4.302	0.483
109.999	136.182	80.006	19.994	103.395	20.186	3.825	0.468
111.999	137.150	80.008	19.993	103.391	20.181	4.180	0.471
113.999	138.109	80.007	19.994	103.382	20.183	4.061	0.472
115.999	139.055	80.008	19.994	103.376	20.182	4.106	0.457
117.999	139.992	80.006	19.994	103.376	20.181	4.179	0.461
120.000	141.016	80.008	19.994	103.376	20.178	4.405	0.508
121.999	142.015	80.008	19.994	103.380	20.182	4.107	0.547
124.000	143.057	80.008	19.994	103.393	20.187	3.811	0.565
126.000	144.050	80.008	19.995	103.393	20.187	3.780	0.514
128.000	145.027	80.006	19.996	103.385	20.186	3.877	0.495
130.000	146.021	80.006	19.995	103.384	20.188	3.702	0.504
132.000	147.086	80.006	19.996	103.380	20.190	3.583	0.517
134.000	148.113	80.005	19.995	103.382	20.189	3.655	0.524
136.000	149.165	80.007	19.995	103.383	20.184	3.972	0.525
138.000	150.222	80.005	19.995	103.377	20.187	3.746	0.516
140.001	151.221	80.006	19.995	103.378	20.187	3.799	0.499
142.000	152.251	80.005	19.994	103.382	20.192	3.456	0.528
144.000	153.288	80.006	19.994	103.378	20.183	4.034	0.499
146.000	154.326	80.006	19.994	103.376	20.182	4.153	0.516
148.000	155.306	80.006	19.994	103.374	20.179	4.332	0.494
150.000	156.311	80.005	19.993	103.376	20.179	4.324	0.529
152.000	157.373	80.006	19.995	103.372	20.177	4.466	0.528
154.000	158.432	80.005	19.995	103.355	20.178	4.412	0.529
156.000	159.424	80.005	19.996	103.349	20.180	4.302	0.531
158.000	160.406	80.005	19.995	103.358	20.181	4.218	0.511
160.000	161.428	80.005	19.995	103.351	20.182	4.148	0.496
162.000	162.451	80.004	19.996	103.350	20.181	4.180	0.522
164.000	163.465	80.004	19.997	103.351	20.185	3.889	0.510
166.000	164.439	80.005	19.996	103.345	20.183	4.076	0.489
168.000	165.506	80.005	19.995	103.339	20.180	4.279	0.489
170.000	166.519	80.007	19.995	103.341	20.182	4.154	0.517
172.000	167.567	80.006	19.994	103.343	20.181	4.177	0.542
174.001	168.536	80.007	19.995	103.340	20.175	4.659	0.524
176.000	169.587	80.007	19.994	103.338	20.178	4.425	0.523
177.999	170.616	80.007	19.994	103.335	20.175	4.608	0.524
179.999	171.626	80.007	19.995	103.335	20.175	4.635	0.510
182.000	172.588	80.007	19.994	103.335	20.172	4.818	0.488
183.999	173.578	80.006	19.994	103.334	20.171	4.921	0.476
185.999	174.589	80.006	19.996	103.285	20.169	5.028	0.493
188.000	175.551	80.006	19.994	103.350	20.172	4.830	0.483
189.999	176.602	80.007	19.995	103.382	20.169	5.044	0.522
191.999	177.612	80.007	19.994	103.334	20.168	5.117	0.527
194.000	178.556	80.007	19.995	103.324	20.172	4.830	0.458
196.000	179.527	80.007	19.995	103.325	20.170	4.977	0.480
197.999	180.514	80.009	19.994	103.336	20.167	5.161	0.454
199.999	181.504	80.009	19.994	103.337	20.168	5.126	0.491
202.000	182.489	80.008	19.995	103.323	20.164	5.431	0.475
204.000	183.461	80.009	19.994	103.333	20.164	5.408	0.494
205.999	184.390	80.008	19.993	103.332	20.162	5.560	0.430
207.999	185.425	80.008	19.994	103.323	20.162	5.521	0.525
210.000	186.494	80.009	19.994	103.333	20.161	5.636	0.547
211.999	187.409	80.006	19.994	103.337	20.159	5.737	0.488
213.999	188.398	80.006	19.994	103.328	20.157	5.864	0.503
215.999	189.354	80.005	19.993	103.334	20.155	6.051	0.465
217.999	190.357	80.005	19.995	103.332	20.154	6.126	0.473
219.999	191.297	80.005	19.994	103.334	20.155	6.031	0.479
222.000	192.278	80.005	19.995	103.333	20.149	6.430	0.489
223.999	193.277	80.007	19.995	103.333	20.148	6.540	0.499
226.000	194.236	80.006	19.995	103.335	20.145	6.714	0.463
228.000	195.216	80.006	19.995	103.327	20.149	6.439	0.466
229.999	196.142	80.007	19.995	103.324	20.146	6.684	0.501
231.999	197.169	80.007	19.995	103.325	20.139	7.134	0.516
233.999	198.124	80.008	19.995	103.333	20.138	7.207	0.494
235.999	199.117	80.007	19.995	103.327	20.137	7.337	0.494
238.000	200.089	80.006	19.994	103.315	20.132	7.685	0.500
239.999	201.025	80.006	19.995	103.310	20.132	7.643	0.459
242.000	202.093	80.006	19.995	103.308	20.125	8.164	0.504
243.999	203.039	80.006	19.996	103.319	20.123	8.287	0.437
245.999	203.995	80.005	19.996	103.330	20.124	8.234	0.475
248.000	204.956	80.005	19.995	103.311	20.115	8.855	0.479
250.000	205.968	80.004	19.996	103.314	20.116	8.807	0.500
251.999	206.927	80.004	19.995	103.310	20.111	9.149	0.491
253.999	207.952	80.005	19.995	103.315	20.106	9.487	0.503
255.999	208.942	80.006	19.996	103.319	20.104	9.653	0.478
258.000	209.920	80.006	19.995	103.310	20.096	10.197	0.488
260.000	210.931	80.005	19.995	103.300	20.092	10.488	0.513
262.000	211.914	80.006	19.996	103.321	20.088	10.793	0.501
264.000	212.838	80.005	19.996	103.324	20.079	11.370	0.456
266.000	213.874	80.007	19.995	103.325	20.080	11.356	0.511
268.000	214.856	80.006	19.994	103.328	20.069	12.094	0.497
270.000	215.859	80.007	19.994	103.334	20.066	12.323	0.514
272.000	216.843	80.006	19.995	103.323	20.067	12.255	0.499
274.000	217.851	80.007	19.995	103.315	20.059	12.818	0.508
276.000	218.806	80.006	19.994	103.331	20.049	13.518	0.490
278.000	219.765	80.006	19.994	103.305	20.045	13.771	0.458
280.000	220.765	80.007	19.995	103.315	20.045	13.791	0.479
282.000	221.754	80.007	19.995	103.328	20.035	14.520	0.499
284.000	222.782	80.007	19.993	103.334	20.029	14.896	0.489
286.000	223.759	80.008	19.994	103.326	20.019	15.619	0.502
288.000	224.765	80.006	19.993	103.315	20.014	16.000	0.512
290.000	225.756	80.007	19.993	103.303	20.007	16.443	0.507
292.000	226.799	80.006	19.994	103.316	19.999	17.036	0.499
294.000	227.803	80.005	19.995	103.317	19.995	17.308	0.517
296.000	228.842	80.007	19.995	103.312	19.986	17.956	0.499
298.000	229.900	80.005	19.995	103.310	19.976	18.661	0.535
300.000	230.880	80.005	19.994	103.306	19.967	19.276	0.518
302.000	231.863	80.006	19.995	103.312	19.961	19.707	0.490
304.000	232.911	80.005	19.994	103.304	19.956	20.077	0.480
306.000	233.912	80.005	19.995	103.301	19.940	21.195	0.516
308.000	234.927	80.007	19.995	103.304	19.933	21.723	0.518
310.000	235.941	80.005	19.995	103.301	19.916	22.902	0.509
312.000	236.891	80.007	19.995	103.301	19.912	23.176	0.489
314.000	237.988	80.006	19.995	103.308	19.904	23.764	0.540
316.000	238.945	80.004	19.995	103.305	19.892	24.554	0.493
318.000	239.947	80.005	19.996	103.304	19.886	24.974	0.518
320.000	240.919	80.006	19.996	103.298	19.874	25.874	0.479
322.000	241.915	80.005	19.996	103.300	19.860	26.810	0.496
324.000	242.922	80.005	19.996	103.311	19.850	27.570	0.495
326.000	243.924	80.005	19.996	103.308	19.837	28.442	0.478
328.000	244.973	80.005	19.995	103.303	19.827	29.155	0.527
330.000	245.942	80.004	19.996	103.299	19.815	30.032	0.482
332.000	246.960	80.005	19.995	103.300	19.810	30.401	0.522
334.000	247.940	80.003	19.995	103.308	19.797	31.276	0.502
336.000	248.921	80.005	19.995	103.307	19.780	32.460	0.492
338.000	249.940	80.005	19.995	103.302	19.769	33.236	0.491
340.000	250.966	80.007	19.996	103.302	19.756	34.180	0.496
342.000	251.998	80.006	19.995	103.303	19.744	35.016	0.515
344.000	252.972	80.006	19.996	103.302	19.731	35.919	0.477
346.000	254.035	80.004	19.995	103.301	19.717	36.905	0.538
348.000	255.011	80.005	19.996	103.307	19.703	37.888	0.514
350.000	255.983	80.004	19.995	103.305	19.690	38.802	0.485
352.000	256.997	80.005	19.996	103.303	19.681	39.472	0.521
354.000	257.992	80.006	19.996	103.300	19.663	40.738	0.491
356.000	258.997	80.006	19.996	103.310	19.654	41.370	0.477
358.000	259.955	80.006	19.996	103.308	19.641	42.250	0.477
360.000	260.958	80.006	19.995	103.304	19.627	43.278	0.491
362.000	261.948	80.008	19.994	103.297	19.614	44.220	0.465
364.000	262.895	80.008	19.994	103.294	19.604	44.865	0.477
366.000	263.959	80.008	19.995	103.296	19.590	45.909	0.517
368.000	264.954	80.008	19.995	103.298	19.577	46.832	0.491
370.000	265.932	80.008	19.994	103.299	19.558	48.123	0.487
372.000	266.916	80.006	19.994	103.308	19.543	49.178	0.514
374.000	267.923	80.007	19.994	103.307	19.534	49.823	0.535
376.000	268.867	80.006	19.995	103.313	19.518	50.942	0.474
378.000	269.928	80.004	19.994	103.308	19.508	51.672	0.523
380.000	270.925	80.004	19.994	103.317	19.492	52.789	0.490
382.000	271.987	80.005	19.995	103.309	19.480	53.636	0.531
384.000	272.948	80.004	19.995	103.314	19.475	53.994	0.476
386.000	273.912	80.006	19.995	103.316	19.465	54.741	0.495
388.000	274.913	80.004	19.995	103.323	19.454	55.509	0.523
390.000	275.930	80.006	19.995	103.320	19.450	55.790	0.521
392.000	276.924	80.005	19.994	103.335	19.447	56.021	0.501
394.000	277.896	80.003	19.994	103.339	19.438	56.656	0.489
396.000	278.918	80.007	19.994	103.342	19.431	57.097	0.509
398.000	279.954	80.006	19.996	103.348	19.423	57.698	0.529
400.000	280.907	80.005	19.994	103.352	19.415	58.252	0.492
402.000	281.885	80.006	19.995	103.356	19.414	58.414	0.480
404.000	282.912	80.005	19.994	103.344	19.402	59.235	0.475
406.000	283.945	80.004	19.993	103.343	19.394	59.789	0.515
408.000	284.930	80.005	19.995	103.367	19.389	60.111	0.479
410.000	285.935	80.005	19.995	103.385	19.373	61.302	0.530
412.000	286.922	80.005	19.996	103.433	19.361	62.134	0.488
414.000	287.932	80.004	19.994	103.465	19.352	62.789	0.476
416.000	288.923	80.006	19.996	103.455	19.341	63.503	0.495
418.000	289.932	80.005	19.995	103.432	19.328	64.389	0.507
420.000	290.932	80.006	19.995	103.441	19.329	64.333	0.463
422.000	291.968	80.005	19.995	103.484	19.313	65.410	0.538
424.000	292.972	80.007	19.994	103.470	19.311	65.536	0.508
426.000	293.978	80.007	19.996	103.446	19.309	65.697	0.495
428.000	294.978	80.006	19.994	103.388	19.322	64.712	0.494
430.000	295.978	80.005	19.994	103.337	19.345	63.033	0.487
432.000	297.002	80.006	19.995	103.307	19.375	60.961	0.502
434.000	297.986	80.007	19.995	103.308	19.416	58.054	0.505
436.000	298.971	80.007	19.995	103.274	19.468	54.384	0.495
438.000	300.003	80.007	19.995	103.214	19.542	49.216	0.482
440.000	300.980	80.007	19.995	103.160	19.622	43.590	0.472
442.001	301.968	80.007	19.994	103.138	19.705	37.741	0.503
444.000	302.948	80.007	19.995	103.142	19.778	32.613	0.504
446.000	303.976	80.006	19.995	103.164	19.856	27.073	0.501
448.000	304.985	80.008	19.996	103.178	19.914	22.998	0.500
450.000	305.971	80.009	19.994	103.190	19.970	19.045	0.537
452.000	306.974	80.009	19.996	103.182	20.013	16.026	0.510
454.000	307.959	80.007	19.996	103.178	20.046	13.702	0.511
456.000	308.960	80.007	19.995	103.184	20.073	11.838	0.509
458.000	309.980	80.006	19.994	103.195	20.090	10.603	0.517
460.000	311.005	80.006	19.996	103.214	20.116	8.781	0.490
462.000	312.008	80.006	19.995	103.202	20.130	7.772	0.515
464.000	313.025	80.005	19.996	103.192	20.141	7.039	0.527
466.000	314.040	80.006	19.995	103.214	20.150	6.387	0.488
468.000	315.084	80.004	19.995	103.229	20.151	6.297	0.518
470.000	316.064	80.004	19.995	103.221	20.159	5.751	0.507
472.000	317.113	80.005	19.994	103.220	20.166	5.281	0.503
474.000	318.102	80.005	19.995	103.224	20.169	5.044	0.508
476.000	319.107	80.006	19.995	103.224	20.171	4.873	0.498
478.000	320.132	80.005	19.994	103.223	20.174	4.671	0.502
480.000	321.156	80.006	19.995	103.226	20.176	4.544	0.528
482.000	322.167	80.005	19.994	103.236	20.182	4.122	0.502
484.000	323.152	80.005	19.993	103.252	20.183	4.048	0.459
486.000	324.194	80.004	19.995	103.256	20.182	4.108	0.535
488.000	325.209	80.005	19.994	103.261	20.180	4.248	0.519
490.000	326.240	80.006	19.995	103.270	20.188	3.691	0.488
492.000	327.258	80.006	19.995	103.262	20.182	4.104	0.505
494.000	328.239	80.005	19.994	103.262	20.189	3.666	0.494
496.000	329.286	80.006	19.995	103.260	20.186	3.865	0.517
498.000	330.308	80.005	19.994	103.255	20.191	3.518	0.511
500.000	331.362	80.007	19.995	103.237	20.191	3.516	0.498
502.000	332.353	80.007	19.995	103.248	20.193	3.320	0.559
504.000	333.343	80.008	19.994	103.258	20.193	3.386	0.555
506.000	334.353	80.009	19.997	103.259	20.195	3.190	0.499
508.000	335.390	80.007	19.995	103.255	20.196	3.174	0.532
510.000	336.419	80.007	19.995	103.252	20.202	2.734	0.491
512.000	337.412	80.008	19.996	103.255	20.199	2.898	0.501
514.000	338.467	80.005	19.996	103.258	20.201	2.796	0.528
516.000	339.503	80.006	19.996	103.261	20.196	3.118	0.547
518.000	340.490	80.007	19.996	103.257	20.200	2.841	0.511
520.000	341.530	80.008	19.995	103.258	20.200	2.870	0.451
522.000	342.735	80.007	19.996	103.257	20.200	2.845	0.671
524.000	343.447	80.006	19.995	103.257	20.196	3.143	0.735
526.000	344.419	80.005	19.996	103.259	20.203	2.641	0.412
528.000	345.672	80.008	19.994	103.266	20.204	2.567	0.584
530.000	346.542	80.008	19.994	103.259	20.198	2.974	0.513
532.001	347.584	80.008	19.994	103.259	20.207	2.353	0.475
534.000	348.575	80.007	19.995	103.258	20.210	2.174	0.419
536.000	349.699	80.007	19.995	103.262	20.206	2.464	0.494
538.000	350.697	80.004	19.995	103.263	20.210	2.150	0.486
540.000	351.744	80.005	19.996	103.267	20.206	2.448	0.513
542.000	352.803	80.003	19.996	103.271	20.209	2.258	0.540
544.000	353.802	80.004	19.993	103.258	20.211	2.096	0.532
546.000	354.808	80.005	19.996	103.272	20.213	1.960	0.494
548.000	355.850	80.004	19.996	103.263	20.211	2.084	0.487
550.000	356.820	80.005	19.994	103.261	20.214	1.882	0.524
552.000	357.853	80.006	19.996	103.266	20.211	2.113	0.506
554.000	358.815	80.005	19.995	103.263	20.209	2.197	0.482
556.000	359.835	80.006	19.995	103.260	20.205	2.481	0.493
558.000	360.879	80.005	19.994	103.259	20.212	2.036	0.495
560.000	361.866	80.005	19.995	103.261	20.209	2.205	0.523
562.000	362.864	80.006	19.994	103.261	20.209	2.259	0.501
564.000	363.878	80.007	19.996	103.262	20.208	2.304	0.496
566.000	364.844	80.007	19.995	103.269	20.209	2.256	0.498
568.000	365.905	80.005	19.995	103.261	20.208	2.328	0.528
570.000	366.838	80.006	19.995	103.253	20.205	2.513	0.499
572.000	367.860	80.006	19.995	103.254	20.204	2.575	0.489
574.000	368.869	80.004	19.994	103.258	20.204	2.598	0.484
576.000	369.829	80.005	19.996	103.258	20.205	2.518	0.481
578.000	370.797	80.004	19.995	103.269	20.206	2.446	0.481
580.000	371.792	80.007	19.995	103.272	20.204	2.614	0.506
582.000	372.826	80.007	19.995	103.284	20.204	2.550	0.500
584.000	373.857	80.007	19.994	103.252	20.205	2.505	0.495
586.000	374.870	80.007	19.994	103.254	20.201	2.777	0.494
588.000	375.821	80.008	19.995	103.264	20.200	2.867	0.477
590.000	376.844	80.007	19.994	103.272	20.199	2.927	0.497
592.000	377.803	80.008	19.995	103.283	20.199	2.929	0.494
594.000	378.798	80.007	19.994	103.270	20.201	2.758	0.485
596.000	379.807	80.008	19.996	103.262	20.198	2.989	0.493
598.000	380.832	80.006	19.994	103.268	20.188	3.701	0.498
600.000	381.814	80.006	19.995	103.276	20.196	3.112	0.473
602.000	382.833	80.006	19.995	103.273	20.195	3.217	0.529
604.000	383.850	80.006	19.995	103.261	20.195	3.231	0.525
606.000	384.862	80.005	19.995	103.263	20.187	3.756	0.510
608.000	385.838	80.007	19.995	103.260	20.186	3.822	0.495
610.000	386.880	80.007	19.995	103.260	20.186	3.818	0.524
612.000	387.855	80.008	19.994	103.260	20.189	3.620	0.500
614.000	388.881	80.008	19.995	103.263	20.193	3.339	0.520
616.000	389.888	80.009	19.995	103.261	20.181	4.223	0.472
618.000	390.839	80.007	19.995	103.261	20.179	4.309	0.478
620.000	391.851	80.006	19.994	103.261	20.179	4.322	0.528
622.000	392.886	80.007	19.995	103.264	20.180	4.297	0.484
624.000	393.938	80.005	19.996	103.260	20.176	4.558	0.548
626.000	394.959	80.005	19.995	103.258	20.173	4.748	0.495
628.000	396.022	80.006	19.996	103.259	20.177	4.457	0.513
630.000	397.004	80.004	19.995	103.258	20.170	4.951	0.522
632.000	398.034	80.003	19.995	103.260	20.164	5.433	0.513
634.000	399.020	80.005	19.996	103.255	20.173	4.795	0.495
636.000	400.046	80.004	19.996	103.258	20.164	5.410	0.543
638.000	401.036	80.005	19.996	103.261	20.167	5.157	0.492
640.000	402.031	80.005	19.995	103.258	20.160	5.645	0.488
642.000	403.038	80.007	19.997	103.260	20.164	5.406	0.484
644.000	404.080	80.005	19.995	103.257	20.158	5.793	0.505
646.000	405.097	80.006	19.994	103.257	20.161	5.632	0.493
648.000	406.125	80.007	19.996	103.255	20.152	6.243	0.527
650.000	407.115	80.005	19.995	103.256	20.152	6.245	0.500
652.000	408.153	80.006	19.995	103.258	20.149	6.467	0.501
654.000	409.178	80.003	19.995	103.259	20.141	7.026	0.510
656.000	410.201	80.004	19.995	103.257	20.132	7.672	0.513
658.000	411.224	80.005	19.995	103.260	20.128	7.906	0.504
660.000	412.226	80.005	19.996	103.261	20.128	7.915	0.505
662.000	413.205	80.005	19.996	103.263	20.120	8.532	0.505
664.000	414.188	80.006	19.993	103.265	20.123	8.322	0.474
666.000	415.197	80.008	19.997	103.263	20.115	8.821	0.528
668.000	416.205	80.005	19.994	103.257	20.109	9.252	0.505
670.000	417.241	80.005	19.994	103.250	20.104	9.637	0.520
672.000	418.223	80.007	19.995	103.260	20.100	9.910	0.531
674.000	419.235	80.007	19.994	103.275	20.089	10.707	0.517
676.000	420.204	80.006	19.994	103.285	20.088	10.752	0.493
678.000	421.228	80.007	19.995	103.264	20.075	11.650	0.504
680.000	422.258	80.005	19.994	103.259	20.074	11.739	0.499
682.000	423.256	80.006	19.995	103.251	20.069	12.079	0.498
684.000	424.234	80.006	19.993	103.246	20.058	12.839	0.508
686.000	425.271	80.007	19.995	103.252	20.051	13.352	0.522
688.000	426.264	80.005	19.994	103.245	20.044	13.832	0.506
690.000	427.296	80.008	19.996	103.248	20.039	14.212	0.519
692.000	428.275	80.008	19.995	103.241	20.026	15.096	0.500
694.000	429.285	80.008	19.994	103.234	20.015	15.895	0.514
696.000	430.265	80.008	19.994	103.240	20.008	16.422	0.488
698.000	431.309	80.008	19.994	103.252	20.000	16.974	0.495
700.000	432.315	80.006	19.997	103.255	19.995	17.340	0.542
702.000	433.313	80.007	19.995	103.258	19.980	18.387	0.477
704.000	434.354	80.006	19.996	103.240	19.966	19.368	0.511
706.000	435.337	80.006	19.996	103.229	19.956	20.079	0.488
708.000	436.355	80.007	19.995	103.240	19.943	21.005	0.489
710.000	437.362	80.005	19.995	103.244	19.935	21.555	0.494
712.000	438.368	80.005	19.996	103.248	19.925	22.252	0.534
714.000	439.349	80.005	19.995	103.255	19.919	22.701	0.492
716.000	440.389	80.004	19.995	103.248	19.905	23.630	0.505
718.000	441.358	80.005	19.995	103.249	19.887	24.927	0.467
720.000	442.387	80.006	19.996	103.251	19.881	25.371	0.540
722.000	443.376	80.004	19.995	103.244	19.880	25.413	0.491
724.000	444.387	80.005	19.995	103.244	19.872	25.949	0.497
726.000	445.393	80.006	19.996	103.239	19.863	26.590	0.512
728.000	446.426	80.005	19.995	103.250	19.851	27.485	0.517
730.000	447.448	80.006	19.996	103.251	19.852	27.417	0.508
732.000	448.456	80.004	19.994	103.253	19.849	27.586	0.513
734.000	449.465	80.004	19.995	103.259	19.842	28.067	0.504
736.000	450.477	80.005	19.998	103.254	19.836	28.515	0.492
738.000	451.530	80.005	19.996	103.258	19.830	28.968	0.519
740.000	452.531	80.005	19.996	103.247	19.832	28.807	0.488
742.000	453.540	80.006	19.995	103.247	19.826	29.205	0.498
744.000	454.587	80.005	19.996	103.257	19.826	29.190	0.519
746.000	455.646	80.005	19.995	103.258	19.826	29.228	0.520
748.000	456.635	80.005	19.994	103.254	19.828	29.082	0.489
750.000	457.686	80.007	19.995	103.248	19.829	29.029	0.513
752.000	458.700	80.006	19.993	103.240	19.827	29.134	0.533
754.000	459.714	80.008	19.995	103.255	19.829	28.996	0.519
756.000	460.692	80.007	19.994	103.257	19.826	29.215	0.470
758.000	461.746	80.007	19.995	103.244	19.828	29.049	0.474
760.000	462.779	80.006	19.995	103.254	19.835	28.552	0.524
762.000	463.844	80.008	19.995	103.238	19.836	28.498	0.530
764.000	464.873	80.007	19.994	103.229	19.841	28.131	0.536
766.000	465.863	80.007	19.996	103.239	19.846	27.778	0.520
768.000	466.824	80.007	19.995	103.249	19.851	27.478	0.495
770.000	467.862	80.007	19.996	103.234	19.859	26.894	0.481
772.000	468.891	80.009	19.996	103.233	19.864	26.573	0.517
774.000	469.923	80.007	19.995	103.245	19.875	25.762	0.558
776.000	470.911	80.009	19.994	103.244	19.879	25.468	0.511
778.000	471.979	80.007	19.994	103.240	19.877	25.607	0.544
780.000	472.949	80.009	19.994	103.246	19.888	24.878	0.489
782.000	474.048	80.008	19.995	103.238	19.904	23.747	0.552
784.000	475.152	80.007	19.993	103.236	19.902	23.870	0.532
786.000	476.169	80.006	19.994	103.234	19.915	22.934	0.554
788.000	477.187	80.007	19.995	103.245	19.917	22.813	0.522
790.000	478.245	80.004	19.996	103.241	19.927	22.136	0.533
792.000	479.236	80.005	19.995	103.242	19.932	21.725	0.508
794.000	480.325	80.005	19.994	103.240	19.946	20.784	0.558
796.000	481.334	80.006	19.996	103.247	19.955	20.146	0.496
798.000	482.358	80.005	19.995	103.252	19.963	19.587	0.524
800.000	483.385	80.007	19.997	103.247	19.979	18.456	0.503
802.000	484.389	80.006	19.997	103.246	19.978	18.538	0.504
804.000	485.443	80.005	19.994	103.249	19.990	17.630	0.519
806.000	486.463	80.005	19.994	103.241	20.003	16.773	0.504
808.000	487.498	80.006	19.996	103.244	20.016	15.846	0.500
810.000	488.575	80.007	19.995	103.236	20.019	15.585	0.529
812.000	489.633	80.006	19.994	103.230	20.025	15.219	0.523
814.000	490.669	80.005	19.996	103.222	20.036	14.423	0.512
816.000	491.670	80.005	19.994	103.229	20.049	13.495	0.525
818.000	492.658	80.005	19.995	103.232	20.053	13.195	0.537
820.000	493.751	80.006	19.995	103.226	20.061	12.646	0.545
822.000	494.801	80.005	19.995	103.223	20.071	11.923	0.546
824.000	495.787	80.006	19.996	103.227	20.076	11.591	0.491
826.000	496.832	80.006	19.996	103.229	20.088	10.738	0.500
828.000	497.910	80.006	19.996	103.237	20.092	10.491	0.531
830.000	498.916	80.006	19.996	103.251	20.105	9.573	0.551
832.000	499.968	80.006	19.996	103.241	20.112	9.058	0.516
834.000	501.026	80.008	19.996	103.231	20.118	8.663	0.535
836.000	502.067	80.007	19.996	103.219	20.126	8.101	0.541
838.000	503.058	80.007	19.995	103.229	20.124	8.224	0.541
840.000	504.091	80.007	19.994	103.247	20.135	7.447	0.514
842.000	505.131	80.006	19.994	103.224	20.135	7.432	0.528
844.000	506.171	80.006	19.994	103.238	20.145	6.762	0.499
846.000	507.228	80.006	19.994	103.256	20.149	6.431	0.527
848.000	508.291	80.006	19.995	103.241	20.156	5.949	0.534
850.000	509.291	80.007	19.995	103.227	20.160	5.689	0.515
852.000	510.284	80.007	19.994	103.222	20.157	5.881	0.527
854.000	511.272	80.006	19.994	103.239	20.165	5.335	0.484
856.000	512.343	80.008	19.995	103.255	20.176	4.530	0.506
858.000	513.362	80.008	19.994	103.241	20.175	4.592	0.509
860.000	514.413	80.009	19.994	103.229	20.173	4.735	0.519
862.000	515.464	80.009	19.994	103.226	20.180	4.298	0.554
864.000	516.440	80.007	19.995	103.223	20.180	4.299	0.511
866.000	517.443	80.007	19.995	103.247	20.190	3.555	0.504
868.000	518.491	80.007	19.995	103.246	20.189	3.630	0.497
870.000	519.526	80.006	19.996	103.227	20.189	3.625	0.496
872.000	520.536	80.005	19.996	103.236	20.189	3.627	0.515
874.000	521.589	80.005	19.994	103.250	20.194	3.253	0.527
876.000	522.600	80.007	19.995	103.259	20.200	2.845	0.498
878.000	523.606	80.005	19.993	103.233	20.194	3.267	0.523
880.000	524.633	80.005	19.994	103.231	20.198	3.018	0.500
882.000	525.615	80.006	19.994	103.240	20.204	2.594	0.513
884.000	526.611	80.005	19.996	103.238	20.203	2.633	0.510
886.000	527.627	80.006	19.994	103.245	20.205	2.498	0.502
888.000	528.706	80.007	19.995	103.232	20.209	2.204	0.566
890.000	529.710	80.005	19.996	103.238	20.205	2.539	0.500
892.000	530.721	80.005	19.995	103.234	20.206	2.418	0.481
894.000	531.755	80.006	19.996	103.248	20.207	2.370	0.519
896.000	532.773	80.006	19.996	103.240	20.212	2.049	0.509
898.000	533.827	80.006	19.995	103.235	20.207	2.387	0.531
900.000	534.832	80.006	19.995	103.232	20.209	2.209	0.488
902.000	535.880	80.007	19.996	103.224	20.208	2.302	0.526
904.000	536.860	80.003	19.993	103.222	20.210	2.189	0.498
906.000	537.896	80.004	19.995	103.241	20.210	2.150	0.500
908.000	538.943	80.008	19.995	103.226	20.214	1.868	0.521
910.000	539.974	80.005	19.995	103.248	20.215	1.772	0.516
912.000	540.973	80.006	19.995	103.256	20.210	2.168	0.498
914.000	542.003	80.007	19.996	103.250	20.212	2.021	0.537
916.000	543.005	80.005	19.997	103.240	20.213	1.978	0.466
918.000	544.020	80.008	19.995	103.236	20.214	1.906	0.505
920.000	545.027	80.007	19.996	103.218	20.215	1.798	0.508
922.000	546.108	80.006	19.995	103.239	20.213	1.934	0.546
924.000	547.113	80.006	19.995	103.236	20.214	1.840	0.485
926.000	548.152	80.006	19.996	103.223	20.215	1.829	0.507
928.000	549.172	80.006	19.995	103.221	20.216	1.761	0.496
930.000	550.165	80.005	19.995	103.221	20.216	1.739	0.518
932.000	551.218	80.007	19.996	103.222	20.217	1.632	0.525
934.000	552.208	80.006	19.995	103.224	20.217	1.630	0.486
936.000	553.261	80.007	19.995	103.223	20.220	1.479	0.511
938.000	554.306	80.007	19.993	103.230	20.219	1.512	0.543
940.000	555.340	80.007	19.994	103.230	20.223	1.230	0.536
942.000	556.390	80.006	19.993	103.225	20.218	1.617	0.504
944.000	557.422	80.008	19.995	103.223	20.224	1.187	0.508
946.000	558.422	80.007	19.994	103.230	20.218	1.574	0.510
948.000	559.476	80.008	19.994	103.235	20.220	1.424	0.553
950.000	560.521	80.006	19.995	103.235	20.222	1.337	0.534
952.000	561.588	80.005	19.994	103.239	20.222	1.277	0.528
954.000	562.614	80.006	19.994	103.247	20.221	1.377	0.531
956.000	563.610	80.006	19.994	103.226	20.221	1.348	0.500
958.000	564.619	80.005	19.995	103.230	20.219	1.543	0.522
960.000	565.626	80.005	19.995	103.234	20.223	1.239	0.503
962.000	566.652	80.005	19.995	103.251	20.225	1.128	0.476
964.000	567.701	80.005	19.994	103.241	20.227	0.922	0.507
966.000	568.690	80.006	19.995	103.227	20.228	0.856	0.498
968.000	569.763	80.007	19.994	103.240	20.232	0.632	0.505
970.000	570.769	80.007	19.994	103.242	20.227	0.936	0.516
972.000	571.762	80.006	19.994	103.228	20.229	0.792	0.525
974.000	572.835	80.007	19.995	103.227	20.233	0.533	0.533
976.000	573.863	80.006	19.994	103.223	20.227	0.990	0.518
978.000	574.917	80.004	19.993	103.223	20.225	1.082	0.526
980.000	575.980	80.025	19.998	103.253	20.228	0.899	0.528
982.000	576.990	80.008	19.995	103.239	20.230	0.751	0.511
984.000	578.050	80.005	19.995	103.253	20.227	0.936	0.517
986.000	579.064	80.005	19.996	103.247	20.230	0.763	0.517
988.000	580.054	80.005	19.994	103.231	20.230	0.755	0.500
990.000	581.049	80.005	19.997	103.235	20.228	0.895	0.490
992.000	582.059	80.007	19.996	103.232	20.232	0.621	0.487
994.000	583.049	80.006	19.995	103.228	20.235	0.372	0.482
996.000	584.069	80.006	19.996	103.230	20.232	0.589	0.515
998.000	585.029	80.007	19.996	103.227	20.229	0.811	0.469
1000.000	586.108	80.006	19.994	103.225	20.231	0.659	0.510
1002.000	587.147	80.008	19.994	103.222	20.228	0.876	0.524
1004.000	588.098	80.006	19.995	103.233	20.222	1.298	0.470
1006.000	589.139	80.006	19.994	103.225	20.225	1.129	0.517
1008.000	590.152	80.006	19.993	103.226	20.224	1.186	0.504
1010.000	591.169	80.006	19.995	103.225	20.222	1.310	0.516
1012.000	592.159	80.007	19.995	103.225	20.222	1.317	0.489
1014.000	593.195	80.006	19.996	103.248	20.225	1.064	0.522
1016.000	594.193	80.006	19.996	103.238	20.229	0.840	0.498
1018.000	595.193	80.005	19.996	103.205	20.226	1.000	0.472
1020.000	596.258	80.009	19.996	103.189	20.230	0.743	0.529
1022.000	597.240	80.007	19.996	103.271	20.225	1.121	0.507
1024.000	598.267	80.008	19.995	103.217	20.228	0.918	0.483
1026.001	599.310	80.008	19.995	103.222	20.228	0.866	0.526
1028.000	600.306	80.008	19.995	103.222	20.230	0.735	0.491
1030.000	601.346	80.007	19.995	103.220	20.232	0.629	0.537
1031.999	602.354	80.007	19.994	103.226	20.232	0.570	0.536
1033.999	603.405	80.007	19.994	103.226	20.231	0.663	0.524
1036.000	604.397	80.007	19.995	103.221	20.229	0.819	0.514
1037.999	605.406	80.005	19.994	103.200	20.227	0.973	0.488
1039.999	606.413	80.007	19.995	103.198	20.234	0.496	0.500
1042.000	607.440	80.005	19.995	103.270	20.230	0.735	0.519
1044.000	608.475	80.005	19.995	103.231	20.230	0.761	0.526
1046.001	609.469	80.006	19.996	103.229	20.232	0.578	0.490
1047.999	610.484	80.007	19.995	103.218	20.231	0.693	0.517
1050.000	611.501	80.007	19.995	103.220	20.237	0.249	0.479
1052.000	612.485	80.008	19.995	103.220	20.233	0.512	0.463
1053.999	613.509	80.006	19.994	103.228	20.233	0.537	0.488
1056.000	614.539	80.006	19.995	103.225	20.236	0.346	0.470
1058.000	615.570	80.006	19.994	103.221	20.233	0.566	0.533
1060.000	616.530	80.006	19.994	103.222	20.239	0.084	0.491
1062.000	617.614	80.005	19.994	103.222	20.236	0.346	0.528
1063.999	618.561	80.007	19.995	103.222	20.230	0.757	0.468
1065.999	619.569	80.005	19.993	103.224	20.232	0.605	0.499
1068.000	620.575	80.006	19.995	103.222	20.229	0.821	0.486
1069.999	621.597	80.006	19.995	103.230	20.231	0.648	0.540
1071.999	622.593	80.005	19.994	103.232	20.231	0.660	0.490
1073.999	623.611	80.005	19.995	103.238	20.234	0.498	0.518
1075.999	624.576	80.005	19.994	103.228	20.236	0.315	0.483
1078.000	625.581	80.007	19.994	103.236	20.235	0.377	0.483
1079.999	626.650	80.008	19.994	103.238	20.231	0.665	0.541
1081.999	627.675	80.007	19.995	103.240	20.228	0.854	0.533
1083.999	628.660	80.008	19.995	103.228	20.234	0.461	0.517
1085.999	629.707	80.005	19.996	103.233	20.229	0.794	0.517
1088.000	630.769	80.008	19.995	103.235	20.232	0.597	0.538
1089.999	631.787	80.007	19.994	103.236	20.234	0.482	0.501
1091.999	632.814	80.007	19.996	103.253	20.239	0.136	0.531
1093.999	633.855	80.007	19.995	103.236	20.243	-0.142	0.522
1095.999	634.868	80.007	19.995	103.225	20.239	0.084	0.549
1098.000	635.934	80.006	19.995	103.232	20.239	0.142	0.569
1099.999	636.918	80.006	19.994	103.223	20.233	0.519	0.515
1101.999	637.973	80.006	19.995	103.220	20.234	0.438	0.532
1104.000	639.000	80.010	19.996	103.220	20.238	0.173	0.525
1105.999	640.030	80.009	19.995	103.218	20.238	0.193	0.506
1107.999	641.047	80.008	19.996	103.220	20.238	0.167	0.519
1110.000	642.072	80.008	19.997	103.219	20.235	0.412	0.522
1112.000	643.139	80.009	19.996	103.232	20.235	0.389	0.551
1114.000	644.144	80.007	19.995	103.224	20.239	0.142	0.495
1115.999	645.107	80.006	19.997	103.222	20.238	0.206	0.504
1117.999	646.196	80.006	19.995	103.222	20.235	0.379	0.533
1119.999	647.184	80.005	19.995	103.230	20.236	0.339	0.506
1121.999	648.193	80.006	19.995	103.230	20.238	0.185	0.493
1124.000	649.239	80.007	19.996	103.229	20.237	0.220	0.498
1126.000	650.252	80.006	19.996	103.231	20.234	0.455	0.507
1128.001	651.261	80.004	19.995	103.223	20.234	0.473	0.522
1130.000	652.278	80.006	19.994	103.222	20.237	0.233	0.517
1132.000	653.289	80.006	19.995	103.231	20.236	0.356	0.503
1133.999	654.285	80.005	19.995	103.224	20.234	0.479	0.532
1135.999	655.346	80.005	19.995	103.228	20.234	0.492	0.525
1138.001	656.406	80.006	19.995	103.224	20.236	0.303	0.513
1139.999	657.356	80.005	19.995	103.224	20.239	0.123	0.477
1142.000	658.405	80.006	19.994	103.230	20.240	0.043	0.484
1144.001	659.379	80.004	19.994	103.237	20.238	0.200	0.492
1146.000	660.419	80.006	19.996	103.232	20.241	-0.008	0.526
1148.000	661.381	80.006	19.995	103.232	20.235	0.410	0.482
1149.999	662.469	80.005	19.995	103.213	20.238	0.167	0.558
1151.999	663.444	80.006	19.995	103.229	20.238	0.148	0.513
1153.999	664.494	80.006	19.995	103.220	20.237	0.220	0.513
1155.999	665.509	80.006	19.996	103.221	20.239	0.144	0.505
1158.000	666.518	80.008	19.995	103.220	20.236	0.292	0.498
1159.999	667.563	80.007	19.994	103.218	20.240	0.045	0.524
1161.999	668.538	80.007	19.994	103.222	20.238	0.165	0.483
1163.999	669.568	80.008	19.994	103.225	20.238	0.173	0.506
1166.000	670.609	80.006	19.995	103.227	20.237	0.282	0.530
1167.999	671.610	80.008	19.994	103.218	20.236	0.350	0.500
1170.000	672.652	80.006	19.994	103.219	20.233	0.537	0.522
1171.999	673.683	80.007	19.994	103.223	20.236	0.298	0.548
1173.999	674.746	80.006	19.994	103.221	20.238	0.204	0.529
1175.999	675.758	80.006	19.996	103.218	20.238	0.173	0.520
1178.000	676.721	80.006	19.994	103.224	20.234	0.438	0.501
1179.999	677.769	80.005	19.993	103.228	20.232	0.611	0.501
1181.999	678.778	80.005	19.994	103.217	20.239	0.091	0.507
1184.000	679.782	80.007	19.995	103.216	20.234	0.469	0.511
1185.999	680.820	80.006	19.995	103.222	20.231	0.667	0.524
1187.999	681.835	80.008	19.995	103.221	20.235	0.393	0.519
1189.999	682.848	80.008	19.995	103.220	20.238	0.177	0.477
1192.000	683.863	80.008	19.995	103.219	20.239	0.134	0.510
1193.999	684.859	80.007	19.995	103.220	20.235	0.393	0.504
1196.001	685.900	80.006	19.995	103.221	20.236	0.309	0.528
1197.999	686.888	80.004	19.995	103.218	20.238	0.214	0.479
1199.999	687.887	80.005	19.994	103.223	20.237	0.231	0.502
1201.999	688.952	80.005	19.995	103.222	20.237	0.263	0.538
1204.000	689.993	80.004	19.994	103.229	20.236	0.321	0.538
1206.000	690.995	80.005	19.996	103.227	20.236	0.327	0.558
1207.999	692.037	80.006	19.995	103.225	20.239	0.080	0.526
1210.000	693.082	80.004	19.995	103.226	20.236	0.317	0.518
1211.999	694.095	80.006	19.995	103.179	20.239	0.078	0.510
1214.000	695.130	80.006	19.995	103.260	20.236	0.309	0.505
1216.000	696.120	80.007	19.996	103.259	20.241	-0.019	0.491
1217.999	697.139	80.006	19.996	103.228	20.238	0.177	0.523
1220.000	698.151	80.006	19.995	103.217	20.240	0.021	0.501
1221.999	699.192	80.005	19.995	103.220	20.238	0.216	0.506
1223.999	700.189	80.006	19.994	103.223	20.241	-0.053	0.494
1225.999	701.123	80.005	19.994	103.216	20.241	-0.006	0.511
1227.999	702.138	80.006	19.995	103.221	20.238	0.181	0.479
1230.001	703.143	80.005	19.995	103.219	20.236	0.303	0.490
1231.999	704.094	80.006	19.995	103.221	20.235	0.403	0.455
1233.999	705.073	80.006	19.996	103.221	20.234	0.486	0.482
1235.999	706.090	80.005	19.995	103.225	20.238	0.177	0.496
1238.001	707.074	80.005	19.995	103.223	20.237	0.226	0.491
1239.999	708.106	80.006	19.995	103.220	20.234	0.471	0.494
1242.001	709.051	80.007	19.994	103.219	20.236	0.294	0.489
1244.000	710.047	80.008	19.996	103.222	20.236	0.350	0.501
1245.999	711.016	80.008	19.995	103.217	20.235	0.372	0.515
1247.999	712.038	80.008	19.995	103.226	20.233	0.541	0.507
1249.999	713.097	80.008	19.994	103.220	20.229	0.809	0.529
1251.999	714.086	80.008	19.994	103.230	20.234	0.459	0.489
1253.999	715.118	80.006	19.994	103.222	20.234	0.479	0.493
1255.999	716.149	80.007	19.995	103.224	20.236	0.302	0.527
1257.999	717.169	80.008	19.993	103.226	20.230	0.741	0.489
1259.999	718.186	80.007	19.993	103.224	20.234	0.444	0.504
1262.000	719.180	80.007	19.994	103.222	20.237	0.268	0.486
1263.999	720.236	80.007	19.995	103.228	20.236	0.354	0.497
1265.999	721.213	80.008	19.994	103.237	20.236	0.325	0.497
1267.999	722.281	80.008	19.993	103.232	20.237	0.231	0.531
1269.999	723.286	80.007	19.994	103.225	20.235	0.407	0.509
1271.999	724.267	80.009	19.995	103.232	20.235	0.428	0.492
1273.999	725.336	80.007	19.995	103.224	20.229	0.817	0.491
1275.999	726.342	80.006	19.994	103.221	20.229	0.817	0.500
1278.000	727.371	80.006	19.994	103.220	20.231	0.677	0.513
1279.999	728.377	80.007	19.993	103.218	20.235	0.377	0.540
1282.000	729.308	80.006	19.996	103.217	20.235	0.383	0.487
1283.999	730.329	80.006	19.996	103.220	20.234	0.473	0.514
1285.999	731.316	80.006	19.996	103.220	20.236	0.340	0.519
1288.001	732.311	80.005	19.994	103.229	20.233	0.516	0.499
1290.000	733.307	80.005	19.995	103.224	20.237	0.231	0.528
1292.000	734.294	80.006	19.995	103.227	20.233	0.556	0.514
1294.000	735.304	80.005	19.995	103.221	20.234	0.430	0.490
1296.000	736.341	80.006	19.995	103.222	20.234	0.484	0.510
1298.000	737.334	80.005	19.996	103.220	20.233	0.514	0.487
1300.000	738.308	80.005	19.996	103.222	20.232	0.628	0.477
1302.000	739.351	80.006	19.996	103.221	20.235	0.368	0.522
1304.000	740.343	80.005	19.995	103.220	20.234	0.496	0.487
1306.000	741.397	80.004	19.995	103.217	20.231	0.673	0.523
1308.000	742.382	80.006	19.996	103.217	20.234	0.479	0.500
1310.000	743.394	80.005	19.996	103.215	20.231	0.667	0.506