File: 01_Data/Cellulose_Insulation/Cone/Cellulose_Insulation_Cone_HF25Scan_220426_R2.csv
Names,Time,Stack TC,Smoke TC,Exh Press,Smoke Comp,Smoke Meas,CO Meter,CO2 Meter,O2 Meter,Sample Mass,Ext Coeff,Start Test,Flame Verif
Chan Gain,,500,500,1,1,1,1,1,1,1,1,1.0,1.0
Offset,,0,0,0.135223,0,0,0,0,0,0,0,0.0,0.0
Gain,,1,1,25.011,13.0939,14.0471,1,1,1,1.00088,1.00971,1.0,1.0
Units,sec,C,C,Pa,%,%,%,%,%,g,/m,,
Baseline,,20.1871,20.8996,151.807,97.3986,93.7049,0.0010329,0.0430103,21.0203,-834.065,0.342423,,
7,1.5,18.1423,18.9312,151.499,98.1939,94.4801,0.000742183,0.0520484,21.0116,-309.113,0.341487,0.0,0.0
14,3.25,18.3877,19.0367,147.108,98.2203,94.2915,0.000669905,0.0512943,21.0121,-309.133,0.361565,0.0,0.0
21,5,19.0758,18.8402,149.411,98.2303,94.1217,0.000757367,0.0512068,21.012,-309.163,0.378427,0.0,0.0
28,6.75,18.5235,19.183,152.899,98.2459,94.3922,0.000995013,0.051005,21.0119,-309.183,0.354413,0.0,0.0
35,8.5,18.3984,18.8619,150.823,98.2674,94.1427,0.00123953,0.0499698,21.0133,-309.173,0.3798,0.0,0.0
42,10.25,18.7363,19.3791,149.42,98.2714,94.2079,0.00135436,0.0484643,21.0159,-309.183,0.374032,0.0,0.0
49,12,19.034,19.2756,151.252,98.2874,94.5761,0.00132676,0.0468892,21.0173,-309.193,0.34092,0.0,0.0
56,13.75,18.2884,19.1259,149.055,98.295,94.3699,0.00124279,0.0458415,21.0181,-309.223,0.360936,0.0,0.0
63,15.5,18.5442,19.2128,151.189,98.3042,94.5993,0.00114943,0.0451171,21.0195,-309.203,0.340265,0.0,0.0
70,17.25,18.6969,19.2515,150.09,98.3102,94.649,0.00105918,0.0444273,21.0203,-309.233,0.33615,0.0,0.0
77,19,18.7864,19.9227,151.209,98.3222,94.6567,0.00100536,0.0438684,21.0207,-309.243,0.336508,0.0,0.0
84,20.75,18.8338,19.6268,149.162,98.3506,94.6524,0.00101512,0.0434946,21.0215,-309.243,0.339463,0.0,0.0
91,22.5,18.9399,19.1951,154.362,98.3641,94.6185,0.00106904,0.043241,21.0218,-309.253,0.343857,0.0,0.0
98,24.25,18.9029,19.7749,151.947,98.3494,94.5049,0.00110911,0.0430481,21.022,-309.253,0.353166,0.0,0.0
105,26,18.9096,20.0321,148.172,98.345,94.8055,0.00110729,0.0430398,21.0225,-309.233,0.324651,0.0,0.0
112,27.75,18.9428,19.4609,150.093,98.3601,94.532,0.00100202,0.0430638,21.0228,-309.233,0.351607,0.0,0.0
119,29.5,19.3798,19.6942,149.229,98.3697,94.4093,0.000914768,0.0429645,21.024,-309.233,0.363965,0.0,0.0
126,31.25,19.2182,19.7559,149.574,98.3677,94.5019,0.000906824,0.0429605,21.0247,-309.233,0.355103,0.0,0.0
133,33,19.0345,19.4416,151.683,98.3761,94.5178,0.000946258,0.042893,21.0251,-309.243,0.354372,0.0,0.0
140,34.75,19.5169,19.9786,147.752,98.3889,94.5954,0.000980575,0.0427557,21.0252,-309.263,0.348255,0.0,0.0
147,36.5,19.3835,19.8528,153.284,98.4049,94.5397,0.000999442,0.0428768,21.0253,-309.263,0.354913,0.0,0.0
154,38.25,19.5366,19.6809,151.145,98.4037,94.7536,0.00102215,0.0430062,21.0253,-309.283,0.334787,0.0,0.0
161,40,18.9147,19.6348,148.04,98.4101,94.7519,0.00104431,0.0430876,21.0253,-309.273,0.335523,0.0,0.0
168,41.75,18.9286,19.8627,152.373,98.4149,94.8839,0.00105157,0.0430557,21.0254,-309.283,0.323622,0.0,0.0
175,43.5,19.7645,20.2519,152.427,98.4349,94.7356,0.00108472,0.042942,21.025,-309.283,0.339275,0.0,0.0
182,45.25,19.263,20.0086,147.773,98.4361,94.7742,0.0011364,0.0428876,21.0247,-309.283,0.335777,0.0,0.0
189,47,19.0401,20.1336,147.549,98.4465,94.7493,0.00120317,0.0428825,21.0246,-309.283,0.339036,0.0,0.0
196,48.75,19.3016,19.7678,154.91,98.4353,94.6987,0.00121637,0.0429421,21.0246,-309.283,0.342759,0.0,0.0
203,50.5,19.4295,20.1417,153.506,98.4485,94.7064,0.00115307,0.0428948,21.0245,-309.303,0.343223,0.0,0.0
210,52.25,19.6344,19.7483,149.081,98.4612,94.6828,0.00103096,0.0429025,21.0245,-309.283,0.346579,0.0,0.0
217,54,19.5306,19.8996,148.453,98.4612,94.6563,0.000962708,0.0428493,21.0245,-309.293,0.349066,0.0,0.0
224,55.75,19.327,20.3839,151.785,98.454,94.7261,0.00104358,0.0428587,21.0245,-309.313,0.341882,0.0,0.0
231,57.5,19.2739,20.3596,153.798,98.474,94.9705,0.00117716,0.0427909,21.0245,-309.293,0.320863,0.0,0.0
238,59.25,19.4715,20.0804,150.974,98.4716,94.8976,0.00128186,0.0427326,21.0245,-309.293,0.327446,0.0,0.0
245,61,19.7291,20.2559,152.355,98.4748,94.7733,0.001276,0.0428559,21.0245,-309.323,0.339343,0.0,0.0
252,62.75,19.373,20.231,152.77,98.4752,94.7476,0.00118606,0.0429588,21.0245,-309.313,0.341784,0.0,0.0
259,64.5,19.9052,19.9994,154.001,98.4732,94.7351,0.00109459,0.0429586,21.0245,-309.313,0.342766,0.0,0.0
266,66.25,19.8754,19.9984,149.739,98.476,94.9353,0.00102248,0.0429594,21.0249,-309.323,0.324321,0.0,0.0
273,68,19.6353,20.0271,157.288,98.4788,94.7446,0.00100745,0.0428959,21.0252,-309.313,0.342388,0.0,0.0
280,69.75,19.5245,20.4112,155.838,98.4784,94.6683,0.000997797,0.0428656,21.0254,-309.313,0.349488,0.0,0.0
287,71.5,19.3957,20.8439,153.099,98.4764,94.751,0.000915141,0.042926,21.0254,-309.323,0.341571,0.0,0.0
294,73.25,19.5045,20.162,151.669,98.4836,94.8848,0.000804264,0.0429326,21.0246,-309.303,0.329724,0.0,0.0
301,75,19.8576,20.1961,151.857,98.482,94.5547,0.00074149,0.042958,21.0251,-309.323,0.360446,0.0,0.0
308,76.75,19.8951,20.094,152.231,98.4808,94.7729,0.000736492,0.0429774,21.0245,-309.313,0.339924,0.0,0.0
315,78.5,19.2451,20.4264,155.366,98.4796,94.9701,0.000784191,0.0430752,21.0239,-309.333,0.321405,0.0,0.0
322,80.25,19.8158,21.0224,150.715,98.4684,95.0026,0.000854091,0.0429925,21.0235,-309.333,0.317361,0.0,0.0
329,82,19.2793,20.4319,151.285,98.4852,94.9371,0.000912551,0.0429058,21.0234,-309.333,0.324988,0.0,0.0
336,83.75,19.636,20.5484,152.88,98.4856,94.6657,0.00095329,0.042823,21.0239,-309.323,0.350376,0.0,0.0
343,85.5,19.6594,20.3502,150.525,98.4812,94.6558,0.000965281,0.0428299,21.0235,-309.333,0.350903,0.0,0.0
350,87.25,19.9109,20.4832,150.365,98.4896,94.8226,0.000985579,0.0428714,21.0244,-309.343,0.336068,0.0,0.0
357,89,19.473,20.5859,148.007,98.4808,94.9135,0.00103173,0.0429501,21.0248,-309.353,0.326792,0.0,0.0
364,90.75,19.5094,20.7983,150.509,98.4888,94.7253,0.00116729,0.0430038,21.0241,-309.353,0.345089,0.0,0.0
371,92.5,19.6962,20.3673,152.985,98.4828,94.79,0.00127966,0.0429512,21.0238,-309.353,0.338501,0.0,0.0
378,94.25,19.4767,20.5941,153.788,98.4812,94.7176,0.00131725,0.0430374,21.0236,-309.363,0.345129,0.0,0.0
385,96,19.4401,20.597,150.094,98.4844,94.9302,0.00126359,0.0432314,21.0236,-309.353,0.325556,0.0,0.0
392,97.75,19.876,20.9248,150.677,98.5036,94.8003,0.00111598,0.0431917,21.0235,-309.373,0.339408,0.0,0.0
399,99.5,20.1879,20.455,151.621,98.4924,94.7712,0.000958934,0.0430625,21.0235,-309.353,0.341126,0.0,0.0
406,101.25,19.7706,20.387,149.616,98.5048,94.736,0.000855088,0.0430415,21.0235,-309.363,0.345526,0.0,0.0
413,103,19.583,21.0219,150.103,98.4824,94.883,0.000792899,0.0430229,21.0235,-309.353,0.329776,0.0,0.0
420,104.75,19.7923,20.4071,149.99,98.4876,94.9486,0.000807518,0.0428874,21.0235,-309.373,0.324124,0.0,0.0
427,106.5,19.599,20.6617,150.731,98.494,94.8183,0.000855124,0.0428894,21.0235,-309.363,0.336864,0.0,0.0
434,108.25,19.8877,20.853,149.361,98.5008,94.8303,0.000848124,0.0430497,21.0235,-309.383,0.336352,0.0,0.0
441,110,20.0136,20.903,151.563,98.5036,94.8427,0.000800983,0.0431054,21.0232,-309.373,0.335444,0.0,0.0
448,111.75,19.9984,21.1973,153.148,98.5,94.9696,0.000785573,0.0430397,21.0229,-309.373,0.323279,0.0,0.0
455,113.5,19.7931,20.6174,152.103,98.51,94.8367,0.000853517,0.0429485,21.0229,-309.363,0.336578,0.0,0.0
462,115.25,20.0461,20.8216,150.756,98.516,94.619,0.000962459,0.0429224,21.0229,-309.383,0.35748,0.0,0.0
469,117,19.9252,20.8238,153.244,98.5092,94.5521,0.00102936,0.0429209,21.0229,-309.363,0.363131,0.0,0.0
476,118.75,20.1905,20.5699,157.921,98.5176,94.8715,0.00102118,0.0429368,21.0229,-309.373,0.334019,0.0,0.0
483,120.5,20.0217,20.5029,150.554,98.5248,94.7587,0.000987815,0.04297,21.0239,-309.383,0.345198,0.0,0.0
490,122.25,20.1399,20.6908,151.444,98.52,94.82,0.000988803,0.0429322,21.0244,-309.383,0.339039,0.0,0.0
497,124,20.4257,20.9629,154.763,98.5168,94.7296,0.00100807,0.0429489,21.024,-309.393,0.347204,0.0,0.0
504,125.75,20.4784,21.3719,151.005,98.512,94.7994,0.00100223,0.0429449,21.0239,-309.383,0.340243,0.0,0.0
511,127.5,20.2268,21.2889,149.697,98.5036,94.6833,0.000919452,0.0428643,21.0238,-309.383,0.350349,0.0,0.0
518,129.25,20.2091,20.8298,147.517,98.5196,94.8916,0.000823386,0.0428519,21.0237,-309.403,0.332318,0.0,0.0
525,131,20.0517,21.1519,152.147,98.5172,94.7819,0.000836213,0.0429399,21.0237,-309.393,0.342352,0.0,0.0
532,132.75,20.3045,21.2013,153.719,98.5136,94.8629,0.00101388,0.0430227,21.0237,-309.403,0.33446,0.0,0.0
539,134.5,20.0481,21.3228,151.481,98.5096,94.709,0.00116463,0.0429892,21.0237,-309.403,0.348482,0.0,0.0
546,136.25,20.7686,21.2403,146.382,98.5184,94.8204,0.00118037,0.0429102,21.0247,-309.413,0.338855,0.0,0.0
553,138,20.1944,21.2702,151.738,98.52,94.736,0.00116824,0.0429958,21.0253,-309.403,0.34689,0.0,0.0
560,139.75,19.909,21.0487,156.062,98.5232,94.9692,0.00117198,0.0430397,21.0256,-309.423,0.325401,0.0,0.0
567,141.5,20.2588,21.0327,149.879,98.5144,94.6434,0.00113093,0.0429898,21.0257,-309.413,0.355049,0.0,0.0
574,143.25,20.0681,20.8482,154.498,98.5216,94.8269,0.000946328,0.0430067,21.0258,-309.413,0.338542,0.0,0.0
581,145,20.1392,21.1361,150.194,98.5388,94.805,0.000821171,0.0429725,21.0258,-309.423,0.342128,0.0,0.0
588,146.75,20.054,20.7431,153.568,98.5144,94.7999,0.000849202,0.0427942,21.0258,-309.413,0.340418,0.0,0.0
595,148.5,20.1932,21.0232,150.426,98.5328,94.8573,0.000913478,0.0428227,21.0258,-309.433,0.336704,0.0,0.0
602,150.25,20.2999,20.8067,155.413,98.512,94.7283,0.000989249,0.0428522,21.0258,-309.403,0.346893,0.0,0.0
609,152,20.277,21.0494,153.053,98.5192,94.7763,0.00107626,0.0429059,21.0258,-309.423,0.343052,0.0,0.0
616,153.75,20.3031,21.0269,147.646,98.5188,94.7844,0.00120028,0.0428939,21.0258,-309.423,0.342254,0.0,0.0
623,155.5,20.063,21.0646,150.894,98.5196,94.9276,0.00136931,0.0429215,21.0258,-309.433,0.328957,0.0,0.0
630,157.25,20.2945,21.3005,156.862,98.5196,94.8333,0.00144901,0.04298,21.0258,-309.423,0.337761,0.0,0.0
637,159,20.3776,21.0483,149.506,98.5248,94.709,0.00135762,0.043085,21.0254,-309.433,0.349847,0.0,0.0
644,160.75,20.3069,21.4296,151.657,98.5232,94.7454,0.00109889,0.0431145,21.0244,-309.433,0.346296,0.0,0.0
651,162.5,20.4975,20.7949,153.969,98.5212,94.6447,0.000938011,0.0430212,21.0239,-309.433,0.355539,0.0,0.0
658,164.25,20.4455,21.0373,149.016,98.5252,94.8256,0.000972578,0.0430498,21.0237,-309.413,0.338985,0.0,0.0
665,166,20.4067,20.9439,161.762,98.512,94.748,0.00110347,0.043032,21.0236,-309.423,0.345049,0.0,0.0
672,167.75,20.0652,21.129,150.917,98.5324,94.6889,0.00123524,0.0430657,21.0235,-309.423,0.352414,0.0,0.0
679,169.5,20.2939,21.0769,146.899,98.5224,94.8547,0.00126358,0.0430396,21.0235,-309.423,0.336012,0.0,0.0
686,171.25,20.2849,21.03,154.528,98.52,94.7994,0.00119068,0.0430765,21.0235,-309.413,0.340961,0.0,0.0
693,173,19.927,20.9105,149.46,98.5168,94.9756,0.00107681,0.0431758,21.0233,-309.443,0.324226,0.0,0.0
700,174.75,20.025,21.1449,148.823,98.5228,94.7266,0.000946801,0.0432199,21.0229,-309.443,0.348023,0.0,0.0
707,176.5,20.2496,21.1418,149.887,98.522,94.7643,0.000844882,0.043119,21.0228,-309.423,0.344425,0.0,0.0
714,178.25,20.3971,21.1133,150.203,98.5216,94.8873,0.000749345,0.0431065,21.0227,-309.433,0.332898,0.0,0.0
721,180,20.2328,21.3631,151.344,98.5108,94.7849,0.000694485,0.0430903,21.0227,-309.443,0.341496,0.0,0.0
728,181.75,20.2481,21.198,149.248,98.526,95.0279,0.000681124,0.0431064,21.0229,-309.453,0.320177,0.0,0.0
735,183.5,20.4337,20.6583,148.557,98.5196,94.724,0.000631546,0.0432015,21.0239,-309.443,0.347977,0.0,0.0
742,185.25,19.6437,21.1296,151.802,98.5208,94.6486,0.00055545,0.0431831,21.0244,-309.453,0.355142,0.0,0.0
749,187,20.3588,21.4345,150.348,98.5112,94.7287,0.000523571,0.0430758,21.0246,-309.463,0.346782,0.0,0.0
756,188.75,20.1148,21.3014,150.528,98.5144,94.7026,0.000529131,0.043062,21.0243,-309.453,0.349513,0.0,0.0
763,190.5,20.6417,21.3623,149.051,98.512,94.7956,0.000504719,0.0430561,21.0233,-309.453,0.340603,0.0,0.0
770,192.25,20.9736,21.3755,152.154,98.5336,94.8487,0.000423975,0.04309,21.0229,-309.443,0.337577,0.0,0.0
777,194,20.6733,21.1649,147.579,98.5192,94.5315,0.000393559,0.0430919,21.0227,-309.473,0.365957,0.0,0.0
784,195.75,20.4,21.192,154.45,98.5056,94.9306,0.000507505,0.0430322,21.0238,-309.453,0.32742,0.0,0.0
791,197.5,20.5071,21.5751,145.55,98.5208,94.6614,0.000643967,0.0430037,21.0243,-309.453,0.353939,0.0,0.0
798,199.25,20.3579,21.335,152.405,98.5152,94.862,0.000700388,0.04299,21.0246,-309.463,0.334684,0.0,0.0
805,201,20.2571,21.6452,150.081,98.5172,94.5757,0.000676192,0.0429972,21.0247,-309.463,0.361641,0.0,0.0
812,202.75,20.2093,20.9029,148.938,98.5144,94.7712,0.000650779,0.042975,21.0248,-309.473,0.343101,0.0,0.0
819,204.5,20.7967,21.1457,153.019,98.5064,94.7823,0.000703987,0.0428981,21.0248,-309.473,0.341341,0.0,0.0
826,206.25,20.3144,21.3294,151.23,98.518,94.9358,0.000811297,0.0428025,21.0245,-309.463,0.328054,0.0,0.0
833,208,20.6494,21.2532,147.915,98.5048,94.9581,0.000890273,0.0427994,21.0243,-309.463,0.324788,0.0,0.0
840,209.75,20.2757,21.2862,148.989,98.5092,94.7536,0.000907244,0.0428107,21.0242,-309.463,0.344278,0.0,0.0
847,211.5,20.623,21.6196,151.682,98.4888,94.8055,0.000839225,0.0429352,21.0242,-309.463,0.337598,0.0,0.0
854,213.25,20.6149,21.2854,148.561,98.5032,94.6897,0.000770448,0.0429611,21.0242,-309.463,0.349711,0.0,0.0
861,215,20.3991,21.3003,153.534,98.4908,94.6871,0.000798687,0.0429912,21.0245,-309.463,0.348837,0.0,0.0
868,216.75,20.0777,21.2704,150.204,98.4976,94.7004,0.000819944,0.0430835,21.0247,-309.483,0.348205,0.0,0.0
875,218.5,20.4662,21.5403,148.929,98.4848,94.8556,0.000791412,0.0431051,21.0249,-309.483,0.332553,0.0,0.0
882,220.25,20.5366,21.5029,152.508,98.4652,94.7896,0.000839469,0.043021,21.025,-309.483,0.336959,0.0,0.0
889,222,20.5455,21.5149,154.534,98.4792,94.6743,0.000959986,0.0429292,21.0239,-309.473,0.348999,0.0,0.0
896,223.75,20.4392,21.1159,150.027,98.4736,94.5795,0.00104139,0.0428815,21.0233,-309.473,0.357363,0.0,0.0
903,225.5,20.9337,21.2265,153.65,98.4624,94.6614,0.00109397,0.0428429,21.0237,-309.473,0.348692,0.0,0.0
910,227.25,20.4218,21.6627,151.043,98.4553,94.7489,0.00112233,0.0428883,21.0239,-309.483,0.339867,0.0,0.0
917,229,20.4856,21.3777,150.438,98.4529,94.613,0.00104766,0.0430757,21.0243,-309.483,0.352363,0.0,0.0
924,230.75,20.3229,21.3334,154.482,98.4624,94.7446,0.000953393,0.0430823,21.0246,-309.483,0.340914,0.0,0.0
931,232.5,20.7847,21.399,150.82,98.4441,94.5105,0.000942785,0.0429655,21.0247,-309.483,0.361169,0.0,0.0
938,234.25,20.8711,21.4975,149.909,98.4345,94.8929,0.000964169,0.0429344,21.0248,-309.503,0.324543,0.0,0.0
945,236,20.874,21.32,151.932,98.4365,95.0031,0.00100164,0.0428757,21.0248,-309.493,0.314445,0.0,0.0
952,237.75,20.8473,21.4859,152.154,98.4233,94.8157,0.00103368,0.042779,21.0248,-309.493,0.330742,0.0,0.0
959,239.5,20.4182,21.5014,148.024,98.4193,94.7583,0.00100267,0.0428069,21.0248,-309.503,0.33575,0.0,0.0
966,241.25,20.441,20.9964,154.157,98.4021,94.9049,0.000939259,0.0428225,21.0248,-309.493,0.32051,0.0,0.0
973,243,20.1762,21.1216,151.444,98.3985,94.6978,0.000906876,0.0429574,21.0248,-309.503,0.33953,0.0,0.0
980,244.75,20.3838,21.4867,146.901,98.3929,94.7283,0.000969338,0.0429679,21.0248,-309.503,0.336181,0.0,0.0
987,246.5,20.5667,21.4359,150.627,98.3921,94.631,0.00108337,0.0430104,21.025,-309.483,0.345212,0.0,0.0
994,248.25,20.59,21.3591,151.274,98.3789,94.5564,0.00112441,0.0429663,21.0254,-309.483,0.351009,0.0,0.0
1001,250,20.4072,21.1689,150.839,98.3561,94.8273,0.00100172,0.0429239,21.0255,-309.483,0.323617,0.0,0.0
1008,251.75,20.3107,21.3454,149.651,98.3454,94.6168,0.000779594,0.0429285,21.0258,-309.493,0.342326,0.0,0.0
1015,253.5,20.6603,21.3324,150.511,98.341,94.7772,0.000623594,0.0428652,21.0259,-309.503,0.326936,0.0,0.0
1022,255.25,20.5074,21.1431,151.176,98.317,94.4646,0.000593088,0.0429036,21.0252,-309.493,0.354029,0.0,0.0
1029,257,21.1033,21.3066,149.358,98.2938,94.6228,0.000649439,0.0429247,21.0246,-309.493,0.337121,0.0,0.0
1036,258.75,20.6148,21.3203,152.598,98.2842,94.7351,0.000751092,0.0429168,21.025,-309.493,0.32575,0.0,0.0
1043,260.5,20.5121,21.1599,151.277,98.2794,94.7017,0.00080685,0.0429543,21.0256,-309.483,0.328445,0.0,0.0
1050,262.25,20.295,21.5876,152.094,98.267,94.6241,0.000776567,0.0430067,21.0259,-309.483,0.334589,0.0,0.0
1057,264,20.3511,21.3463,149.533,98.2435,94.6593,0.000747631,0.0429688,21.026,-309.483,0.329172,0.0,0.0
1064,265.75,20.441,21.4272,153.233,98.2171,94.5525,0.00081016,0.0428706,21.0261,-309.493,0.336789,0.0,0.0
1071,267.5,20.8366,21.3432,152.688,98.2199,94.5011,0.000892497,0.042816,21.0261,-309.493,0.34186,0.0,0.0
1078,269.25,20.3923,20.7839,153.508,98.2099,94.5654,0.000938884,0.0427756,21.0261,-309.483,0.334935,0.0,0.0
1085,271,20.5684,21.1101,150.93,98.1971,94.4981,0.000954469,0.0427204,21.0261,-309.493,0.340087,0.0,0.0
1092,272.75,20.5859,21.5143,147.834,98.1859,94.562,0.000919671,0.0426829,21.0261,-309.493,0.333093,0.0,0.0
1099,274.5,20.3883,21.3092,151.279,98.1771,94.6794,0.000901944,0.0426641,21.0263,-309.493,0.321306,0.0,0.0
1106,276.25,20.073,21.1505,148.275,98.1747,94.6623,0.000932647,0.0427603,21.0266,-309.503,0.322693,0.0,0.0
1113,278,20.1957,21.3034,153.734,98.1647,94.3952,0.00105919,0.0429685,21.0261,-309.503,0.346817,0.0,0.0
1120,279.75,20.9117,21.0938,155.836,98.1731,94.6314,0.00110617,0.0430241,21.0248,-309.503,0.325438,0.0,0.0
1127,281.5,20.5749,21.0074,149.378,98.1855,94.6143,0.00104012,0.0430036,21.0242,-309.503,0.328161,0.0,0.0
1134,283.25,20.5967,21.1231,150.129,98.2718,94.7523,0.000937815,0.0430636,21.0239,-309.503,0.32303,0.0,0.0
1141,285,20.3835,21.3999,149.464,98.3418,94.712,0.000887231,0.0430856,21.0237,-309.503,0.333098,0.0,0.0
1148,286.75,20.3951,21.2129,149.267,98.4209,94.8595,0.000856802,0.0430972,21.0237,-309.493,0.326442,0.0,0.0
1155,288.5,20.5927,21.4543,152.613,98.4632,94.7489,0.000800671,0.0429599,21.0236,-309.483,0.340585,0.0,0.0
1162,290.25,20.5467,20.9624,149.517,98.5527,94.7394,0.000765068,0.042974,21.0236,-309.433,0.349514,0.0,0.0
1169,292,20.3336,21.25,152.005,98.6003,94.904,0.000763407,0.0430754,21.0236,-309.423,0.338412,0.0,0.0
1176,293.75,20.5338,21.3864,152.815,98.6574,95.0434,0.000812684,0.0430758,21.0236,-309.443,0.33055,0.0,0.0
1183,295.5,20.0497,21.2136,148.676,98.7014,94.9632,0.000846026,0.0429999,21.0236,-309.453,0.341969,0.0,0.0
1190,297.25,20.6795,21.1695,151.741,98.7601,95.1763,0.000852728,0.0429261,21.0236,-309.463,0.327388,0.0,0.0
1197,299,20.3786,21.3602,152.22,98.7997,95.2067,0.000750945,0.0428444,21.0233,-309.463,0.328104,0.0,0.0
1204,300.75,20.6516,21.3403,153.333,98.8421,95.409,0.000741968,0.0428722,21.0233,-309.473,0.313097,0.0,0.0
1211,302.5,20.8052,21.1056,153.03,98.8676,95.214,0.000832274,0.0429291,21.0233,-309.483,0.333514,0.0,0.0
1218,304.25,20.8582,21.3133,152.421,98.916,95.2641,0.000904749,0.0429627,21.0233,-309.483,0.33318,0.0,0.0
1225,306,20.3484,21.2922,149.075,98.924,95.4416,0.00081292,0.0429421,21.0233,-309.473,0.317411,0.0,0.0
1232,307.75,20.1432,21.3875,150.653,98.9455,95.418,0.000664812,0.042982,21.0233,-309.483,0.321531,0.0,0.0
1239,309.5,20.6343,21.3974,150.899,98.9755,95.4236,0.000563881,0.0431066,21.0232,-309.483,0.323696,0.0,0.0
1246,311.25,20.5243,21.524,155.752,98.9635,95.4043,0.000593198,0.043244,21.0228,-309.483,0.324414,0.0,0.0
1253,313,20.7422,20.9668,149.278,98.9711,95.2367,0.000737415,0.0432893,21.0227,-309.493,0.340668,0.0,0.0
1260,314.75,20.6961,21.5865,153.331,98.9755,95.4751,0.000960133,0.0434016,21.0226,-309.493,0.318923,0.0,0.0
1267,316.5,20.275,21.3932,153.285,98.9763,95.2431,0.00109296,0.0435329,21.0225,-309.503,0.340534,0.0,0.0
1274,318.25,20.9891,21.0483,152.982,98.9755,95.3263,0.00109849,0.0435827,21.0225,-309.493,0.332733,0.0,0.0
1281,320,20.2099,21.3706,150.915,98.9559,95.3066,0.00103866,0.0435913,21.0224,-309.503,0.332812,0.0,0.0
1288,321.75,20.7156,21.7151,148.464,98.9635,95.3117,0.000928892,0.0435818,21.0219,-309.493,0.333014,0.0,0.0
1295,323.5,20.9086,21.4805,154.04,98.9507,95.22,0.000779706,0.0435701,21.0217,-309.503,0.340398,0.0,0.0
1302,325.25,20.7706,21.2181,154.893,98.9452,95.2629,0.000693591,0.0435398,21.0216,-309.483,0.335911,0.0,0.0
1309,327,20.7634,21.6052,151.831,98.9176,95.1308,0.000697123,0.04355,21.0225,-309.473,0.345727,0.0,0.0
1316,328.75,20.6997,21.2868,147.835,98.9088,95.4017,0.000707217,0.0434373,21.0232,-309.473,0.319752,0.0,0.0
1323,330.5,20.3342,21.5373,150.39,98.9032,95.3297,0.000703716,0.0433609,21.0232,-309.503,0.325939,0.0,0.0
1330,332.25,20.5591,21.5315,151.412,98.888,95.1801,0.000698726,0.0434491,21.0226,-309.513,0.338491,0.0,0.0
1337,334,20.9837,21.5024,149.288,98.8628,95.3121,0.000702988,0.0434992,21.0223,-309.503,0.323958,0.0,0.0
1344,335.75,20.7176,21.6262,153.864,98.8624,95.301,0.000695028,0.0435105,21.0222,-309.503,0.324957,0.0,0.0
1351,337.5,20.4054,21.6023,149.26,98.8484,95.1634,0.000706991,0.0435126,21.0221,-309.503,0.336502,0.0,0.0
1358,339.25,20.7894,20.9957,151.849,98.8369,95.1711,0.000782751,0.0435576,21.0221,-309.513,0.334746,0.0,0.0
1365,341,20.8677,21.3516,150.357,98.8381,95.1287,0.000816774,0.0436133,21.0221,-309.503,0.338804,0.0,0.0
1372,342.75,20.563,21.5854,152.594,98.8025,95.0022,0.000795629,0.0437111,21.0221,-309.503,0.347399,0.0,0.0
1379,344.5,20.7854,21.6833,150.825,98.7913,95.3327,0.000774539,0.043691,21.0242,-309.513,0.315635,0.0,0.0
1386,346.25,20.4791,21.6911,153.425,98.7753,95.1471,0.00081615,0.0436558,21.0252,-309.523,0.331464,0.0,0.0
1393,348,20.9479,21.5106,152.383,98.7761,95.1591,0.000929157,0.0435777,21.0257,-309.533,0.330418,0.0,0.0
1400,349.75,20.7871,21.5546,149.716,98.751,95.0348,0.00107819,0.0435642,21.0259,-309.533,0.33974,0.0,0.0
1407,351.5,20.8643,21.5149,147.884,98.7298,95.1535,0.00118939,0.0435383,21.026,-309.523,0.32678,0.0,0.0
1414,353.25,20.8528,21.2092,151.812,98.7274,95.1737,0.00121239,0.0435667,21.0261,-309.523,0.324689,0.0,0.0
1421,355,20.5597,21.946,151.109,98.7142,95.0417,0.00111234,0.0435964,21.0261,-309.533,0.335802,0.0,0.0
1428,356.75,20.2478,21.7223,152.937,98.7106,95.1673,0.000929385,0.0435844,21.0261,-309.513,0.323783,0.0,0.0
1435,358.5,20.8581,21.4345,152.09,98.6962,95.1197,0.00084092,0.0434745,21.0261,-309.523,0.32692,0.0,0.0
1442,360.25,20.9085,21.4758,150.945,98.6906,95.0639,0.000867825,0.0433327,21.0261,-309.533,0.33161,0.0,0.0
1449,362,20.7841,21.2619,154.181,98.6846,94.8706,0.000946895,0.0433361,21.0264,-309.533,0.349103,0.0,0.0
1456,363.75,20.4758,21.151,153.137,98.6554,95.0927,0.000979216,0.0433903,21.0267,-309.523,0.325778,0.0,0.0
1463,365.5,20.2987,21.5655,151.099,98.6387,95.0639,0.000938051,0.0433889,21.0268,-309.523,0.326947,0.0,0.0
1470,367.25,20.6859,21.3595,154.478,98.6435,95.0425,0.000911787,0.0433066,21.0259,-309.533,0.329374,0.0,0.0
1477,369,21.0721,21.5013,150.97,98.6331,95.0554,0.000921331,0.043327,21.0251,-309.533,0.327243,0.0,0.0
1484,370.75,21.2007,21.3569,149.362,98.6387,94.9623,0.000904712,0.0434676,21.0248,-309.533,0.336417,0.0,0.0
1491,372.5,20.6142,21.7943,153.11,98.6179,94.9894,0.000842503,0.043533,21.0238,-309.533,0.332032,0.0,0.0
1498,374.25,20.529,21.5605,152.219,98.6047,95.1235,0.000746587,0.0435413,21.0229,-309.533,0.318345,0.0,0.0
1505,376,20.9807,21.8769,150.883,98.6071,94.9482,0.000676413,0.0434245,21.0226,-309.533,0.334902,0.0,0.0
1512,377.75,21.1283,21.7077,150.479,98.5871,94.8702,0.000650602,0.043394,21.0234,-309.533,0.340388,0.0,0.0
1519,379.5,20.6105,21.4979,148.786,98.5755,95.1167,0.000640068,0.0434892,21.024,-309.533,0.316364,0.0,0.0
1526,381.25,20.6509,21.7323,151.347,98.5524,94.9778,0.000640584,0.0435627,21.0242,-309.533,0.327225,0.0,0.0
1533,383,20.5572,21.481,147.267,98.5607,94.9015,0.000598737,0.0437007,21.0243,-309.543,0.335097,0.0,0.0
1540,384.75,20.7082,21.4757,151.494,98.5639,94.8908,0.000469091,0.0436777,21.0244,-309.543,0.336385,0.0,0.0
1547,386.5,20.4529,21.6634,151.636,98.5524,94.9641,0.000350234,0.0437502,21.0244,-309.543,0.328504,0.0,0.0
1554,388.25,20.2661,21.6496,152.843,98.5428,94.8286,0.000263185,0.0439289,21.0245,-309.533,0.340285,0.0,0.0
1561,390,20.4958,21.7759,151.735,98.538,94.8402,0.000319058,0.0439375,21.0245,-309.543,0.338773,0.0,0.0
1568,391.75,20.8063,21.2416,149.442,98.5488,95.1548,0.000541823,0.0440148,21.0245,-309.543,0.310406,0.0,0.0
1575,393.5,20.7679,21.5506,149.959,98.5428,95.0327,0.000727542,0.0440735,21.0245,-309.533,0.321247,0.0,0.0
1582,395.25,20.8458,21.2493,148.349,98.5184,94.8127,0.000824175,0.0440126,21.0245,-309.523,0.339575,0.0,0.0
1589,397,20.601,21.5081,154.356,98.5124,94.8445,0.000860211,0.0440169,21.0245,-309.533,0.336074,0.0,0.0
1596,398.75,20.8281,21.45,150.729,98.4876,94.8556,0.000911992,0.0438864,21.0245,-309.523,0.332805,0.0,0.0
1603,400.5,20.5693,21.9297,148.957,98.4708,94.9842,0.00100498,0.0437887,21.0245,-309.533,0.319295,0.0,0.0
1610,402.25,20.694,21.5859,153.037,98.4533,94.9392,0.00112485,0.0437031,21.0245,-309.523,0.321912,0.0,0.0
1617,404,20.5054,21.6446,149.624,98.4357,94.9503,0.00114181,0.0435967,21.0245,-309.533,0.31929,0.0,0.0
1624,405.75,20.7771,21.8373,150.349,98.4165,94.8114,0.00105976,0.0435515,21.0245,-309.523,0.33053,0.0,0.0
1631,407.5,20.9271,21.5475,150.617,98.4129,94.8805,0.000899931,0.0434948,21.0245,-309.523,0.323761,0.0,0.0
1638,409.25,20.8168,21.6085,151.072,98.4153,94.7171,0.000709457,0.0434755,21.0245,-309.533,0.339237,0.0,0.0
1645,411,20.7943,21.7589,149.1,98.4161,94.8175,0.000558741,0.0434282,21.0245,-309.543,0.329934,0.0,0.0
1652,412.75,20.878,21.7243,151.441,98.4185,94.7111,0.000483164,0.0434003,21.0235,-309.543,0.340086,0.0,0.0
1659,414.5,20.764,21.6938,154.435,98.4349,94.7291,0.000485853,0.0433017,21.0241,-309.533,0.339876,0.0,0.0
1666,416.25,20.7601,21.1302,148.655,98.4245,94.8526,0.000548886,0.0432733,21.0248,-309.543,0.327407,0.0,0.0
1673,418,20.7046,21.8633,149.567,98.4437,94.8822,0.000624564,0.043258,21.0252,-309.533,0.326371,0.0,0.0
1680,419.75,20.3931,21.6173,154.111,98.4369,94.7506,0.000683869,0.0433644,21.0253,-309.543,0.338052,0.0,0.0
1687,421.5,20.3376,21.336,148.761,98.4473,94.8607,0.000745658,0.0433679,21.0254,-309.553,0.328695,0.0,0.0
1694,423.25,20.5794,21.8049,149.051,98.4576,94.6588,0.000845307,0.0434089,21.0254,-309.523,0.348501,0.0,0.0
1701,425,20.7832,21.6674,150.229,98.4648,94.6961,0.000926798,0.0432929,21.0255,-309.543,0.34566,0.0,0.0
1708,426.75,20.6814,21.0213,148.839,98.4636,94.8535,0.00095324,0.0432052,21.0243,-309.543,0.330848,0.0,0.0
1715,428.5,20.8894,21.5355,148.648,98.4732,94.8389,0.000921986,0.0431386,21.0237,-309.563,0.333073,0.0,0.0
1722,430.25,20.5133,21.237,149.727,98.4864,94.6421,0.000909447,0.0430446,21.0234,-309.543,0.352654,0.0,0.0
1729,432,20.6632,21.6249,152.631,98.4944,94.9821,0.000927869,0.0430365,21.0242,-309.553,0.321616,0.0,0.0
1736,433.75,20.833,21.4792,150.755,98.4952,94.8187,0.000886983,0.0431328,21.0249,-309.553,0.336931,0.0,0.0
1743,435.5,20.8679,21.6581,148.884,98.5016,94.8929,0.0007997,0.043247,21.0252,-309.553,0.330581,0.0,0.0
1750,437.25,20.8439,21.7721,151.712,98.5116,94.853,0.000675849,0.0432577,21.0249,-309.543,0.335202,0.0,0.0
1757,439,20.6947,21.7216,150.767,98.5208,94.784,0.000642846,0.0432486,21.0239,-309.543,0.342475,0.0,0.0
1764,440.75,20.6362,21.7905,148.559,98.5212,94.7411,0.000624295,0.043237,21.023,-309.553,0.346518,0.0,0.0
1771,442.5,20.6308,21.8169,151.874,98.54,94.7956,0.000544112,0.0432514,21.0225,-309.533,0.343118,0.0,0.0
1778,444.25,20.9564,21.6738,148.649,98.5356,94.7274,0.000445844,0.0432194,21.0223,-309.533,0.349093,0.0,0.0
1785,446,20.5625,21.6198,152.683,98.5484,94.769,0.000416875,0.0432175,21.0225,-309.533,0.346355,0.0,0.0
1792,447.75,20.704,21.9871,149.277,98.5488,94.7047,0.000419938,0.0431955,21.0228,-309.533,0.352403,0.0,0.0
1799,449.5,20.6504,21.6454,149.826,98.54,94.8402,0.000440389,0.0431977,21.0241,-309.533,0.338952,0.0,0.0
1806,451.25,20.9143,21.5226,148.655,98.5516,94.8517,0.000500599,0.0432968,21.0247,-309.543,0.338914,0.0,0.0
1813,453,20.9896,21.481,152.592,98.5627,95.0219,0.000608892,0.0432445,21.025,-309.543,0.324041,0.0,0.0
1820,454.75,21.1346,21.7685,148.323,98.5791,94.778,0.000733373,0.0431455,21.0242,-309.543,0.348278,0.0,0.0
1827,456.5,20.6583,21.6913,154.627,98.5767,94.7407,0.000852187,0.0431167,21.0236,-309.543,0.351549,0.0,0.0
1834,458.25,20.5789,21.8226,147.749,98.5699,94.7291,0.000945601,0.0432219,21.0233,-309.553,0.352021,0.0,0.0
1841,460,21.2767,21.354,153.21,98.5915,94.7261,0.000936944,0.0433312,21.0228,-309.553,0.35424,0.0,0.0
1848,461.75,20.8915,21.4982,148.728,98.6039,94.9362,0.00092555,0.0433496,21.0225,-309.543,0.335734,0.0,0.0
1855,463.5,20.8736,22.0913,149.495,98.6003,94.8865,0.000964712,0.0433671,21.0223,-309.543,0.340052,0.0,0.0
1862,465.25,21.0242,21.8567,149.424,98.6087,94.7643,0.00100951,0.0434085,21.0224,-309.553,0.352217,0.0,0.0
1869,467,21.0261,22.1512,151.331,98.6007,94.9748,0.000966748,0.0433221,21.0228,-309.553,0.331848,0.0,0.0
1876,468.75,21.1833,21.9263,150.883,98.6163,95.1951,0.000879281,0.043284,21.0237,-309.553,0.312724,0.0,0.0
1883,470.5,21.0286,21.705,149.209,98.6203,94.9225,0.000796986,0.0432545,21.0241,-309.553,0.338486,0.0,0.0
1890,472.25,21.3924,21.3302,150.321,98.6231,94.847,0.000763122,0.0432243,21.0243,-309.553,0.34578,0.0,0.0
1897,474,21.2266,22.4787,147.043,98.6107,95.0957,0.000721424,0.0432844,21.0233,-309.533,0.32148,0.0,0.0
1904,475.75,20.702,22.0578,152.521,98.6247,95.1042,0.000661241,0.0434178,21.0227,-309.553,0.321937,0.0,0.0
1911,477.5,21.0672,21.6526,148.223,98.6195,95.0266,0.000640228,0.0434215,21.0225,-309.553,0.328699,0.0,0.0
1918,479.25,21.0223,21.9822,148.384,98.6211,94.9555,0.000657452,0.0434285,21.0231,-309.553,0.335477,0.0,0.0
1925,481,20.9167,22.1192,153.125,98.6207,94.808,0.000659989,0.0435829,21.0234,-309.553,0.349208,0.0,0.0
1932,482.75,20.8016,21.4038,151.591,98.6215,94.9932,0.000664386,0.0436169,21.0241,-309.553,0.331997,0.0,0.0
1939,484.5,21.0224,21.9155,152.674,98.6343,94.8972,0.000662231,0.043567,21.0239,-309.563,0.342102,0.0,0.0
1946,486.25,20.7895,21.8981,150.365,98.6467,94.9148,0.000623683,0.0437821,21.0237,-309.563,0.341575,0.0,0.0
1953,488,21.1993,21.6678,150.58,98.6311,94.8745,0.000628755,0.0439953,21.0236,-309.553,0.343936,0.0,0.0
1960,489.75,21.1677,21.5528,148.802,98.6399,94.8848,0.000691947,0.0441984,21.0235,-309.553,0.343765,0.0,0.0
1967,491.5,20.8996,21.7034,151.615,98.6383,95.0931,0.000795305,0.0444191,21.0235,-309.553,0.324195,0.0,0.0
1974,493.25,21.0136,21.4489,154.284,98.6463,94.9821,0.000890767,0.0443815,21.0235,-309.553,0.33526,0.0,0.0
1981,495,20.482,21.7061,150.766,98.6518,94.9379,0.000880798,0.0443232,21.0235,-309.533,0.33988,0.0,0.0
1988,496.75,20.2973,21.7717,151.277,98.6311,94.9859,0.000822242,0.0442531,21.0235,-309.533,0.333537,0.0,0.0
1995,498.5,20.9904,22.0124,148.225,98.6367,95.0832,0.000776875,0.0442049,21.0235,-309.533,0.324969,0.0,0.0
2002,500.25,20.7931,21.6076,149.191,98.6495,94.8573,0.000704572,0.0440907,21.0235,-309.533,0.347187,0.0,0.0
2009,502,20.7344,21.5626,151.538,98.6574,94.8865,0.000610714,0.0439399,21.0235,-309.533,0.345183,0.0,0.0
2016,503.75,21.1433,21.483,147.769,98.6479,95.2886,0.000627043,0.0439098,21.0247,-309.533,0.306868,0.0,0.0
2023,505.5,21.3221,21.5207,151.241,98.6614,94.9743,0.000741887,0.0439308,21.0252,-309.543,0.337342,0.0,0.0
2030,507.25,20.8635,21.7947,151.67,98.6714,94.8818,0.000879417,0.0439953,21.0247,-309.543,0.346879,0.0,0.0
2037,509,20.7457,21.915,150.273,98.6858,94.8329,0.000902696,0.0440117,21.0237,-309.533,0.352732,0.0,0.0
2044,510.75,21.4691,21.4039,151.249,98.6886,94.9396,0.000774102,0.0440034,21.0232,-309.533,0.34302,0.0,0.0
2051,512.5,20.6703,21.7503,147.749,98.6882,95.0922,0.000712029,0.0439218,21.023,-309.543,0.328759,0.0,0.0
2058,514.25,21.2711,21.6275,151.103,98.6922,95.0927,0.000721804,0.043791,21.0229,-309.543,0.329077,0.0,0.0
2065,516,21.1429,21.4508,151.519,98.6982,94.9186,0.000738801,0.0438637,21.0229,-309.543,0.345841,0.0,0.0
2072,517.75,21.158,21.4993,150.33,98.7114,95.0657,0.000699197,0.0437841,21.0228,-309.553,0.333315,0.0,0.0
2079,519.5,20.6246,22.0865,151.528,98.719,95.0918,0.000677837,0.0437881,21.0231,-309.543,0.331559,0.0,0.0
2086,521.25,20.6228,21.7179,149.71,98.7122,95.0764,0.000718476,0.0438667,21.0234,-309.553,0.332387,0.0,0.0
2093,523,20.8888,21.6896,148.682,98.7242,95.0862,0.000757241,0.0438487,21.0235,-309.553,0.332545,0.0,0.0
2100,524.75,21.1783,21.3967,150.613,98.7302,95.151,0.000732669,0.0436403,21.0236,-309.553,0.327055,0.0,0.0
2107,526.5,20.3809,22.0872,148.384,98.7326,95.0138,0.000680597,0.0436732,21.0236,-309.543,0.340049,0.0,0.0
2114,528.25,20.9602,21.3501,152.557,98.7342,95.0905,0.000660464,0.0437242,21.0236,-309.553,0.333042,0.0,0.0
2121,530,20.9707,22.305,151.644,98.7589,95.0014,0.00066679,0.0437486,21.0232,-309.543,0.343573,0.0,0.0
2128,531.75,20.5253,21.6796,149.214,98.7593,95.0652,0.000625616,0.0437531,21.023,-309.543,0.337655,0.0,0.0
2135,533.5,20.7309,21.9335,149.011,98.7645,95.0515,0.000636268,0.0437003,21.0229,-309.543,0.339399,0.0,0.0
2142,535.25,20.9764,21.4087,153.169,98.7745,95.1317,0.000765834,0.0437746,21.0228,-309.543,0.33283,0.0,0.0
2149,537,21.2671,21.2626,148.059,98.7841,95.1115,0.000875621,0.0438843,21.0228,-309.543,0.335566,0.0,0.0
2156,538.75,20.7713,21.7951,151.371,98.8037,95.1415,0.000927475,0.0439608,21.0228,-309.553,0.334527,0.0,0.0
2163,540.5,20.9696,21.7385,157.622,98.8065,95.3743,0.000932266,0.0440632,21.0228,-309.553,0.313134,0.0,0.0
2170,542.25,20.6626,21.9093,151.287,98.8465,95.1274,0.000909686,0.0440564,21.0224,-309.563,0.339676,0.0,0.0
2177,544,21.0219,21.1069,150.29,98.8233,95.2247,0.00088021,0.0440051,21.0221,-309.553,0.328543,0.0,0.0
2184,545.75,20.7707,21.5913,150.336,98.8576,95.1647,0.0008505,0.0440308,21.022,-309.553,0.337206,0.0,0.0
2191,547.5,20.7736,21.9596,151.454,98.8656,95.2376,0.000818988,0.0440095,21.022,-309.563,0.331141,0.0,0.0
2198,549.25,20.2495,21.8621,150.983,98.8724,95.1381,0.000736568,0.0440249,21.022,-309.543,0.341005,0.0,0.0
2205,551,21.0139,21.5796,150.355,98.8696,95.4849,0.000618186,0.044106,21.022,-309.553,0.308527,0.0,0.0
2212,552.75,20.6189,21.4184,149.498,98.8848,95.1981,0.000597195,0.0441345,21.0227,-309.563,0.336529,0.0,0.0
2219,554.5,20.7724,21.6293,148.701,98.9092,95.1445,0.000661907,0.0441317,21.0231,-309.553,0.343699,0.0,0.0
2226,556.25,20.4383,21.438,152.836,98.9096,95.1908,0.000708549,0.0440919,21.0227,-309.563,0.339426,0.0,0.0
2233,558,20.8156,20.8566,147.533,98.914,95.2641,0.00067,0.0440663,21.0219,-309.553,0.333001,0.0,0.0
2240,559.75,20.6805,21.7088,150.925,98.9264,95.1475,0.00059644,0.0440127,21.0215,-309.553,0.344958,0.0,0.0
2247,561.5,20.6466,21.4657,151.194,98.9428,95.3057,0.000579557,0.043942,21.0212,-309.563,0.331712,0.0,0.0
2254,563.25,20.8053,21.694,151.913,98.946,95.2693,0.000622018,0.0439196,21.0207,-309.563,0.335385,0.0,0.0
2261,565,20.8425,21.7298,151.335,98.9687,95.4365,0.000669559,0.0438197,21.0205,-309.563,0.321894,0.0,0.0
2268,566.75,20.8982,21.6156,146.729,98.9643,95.2684,0.000689955,0.0436044,21.0206,-309.563,0.33711,0.0,0.0
2275,568.5,20.7038,21.532,146.867,98.9775,95.343,0.00063812,0.0436885,21.0217,-309.563,0.331358,0.0,0.0
2282,570.25,20.9488,21.5691,152.218,98.9943,95.5381,0.000516916,0.0437863,21.0221,-309.573,0.314758,0.0,0.0
2289,572,20.5268,21.4765,153.34,99.0083,95.4369,0.000441367,0.0437763,21.0224,-309.553,0.325394,0.0,0.0
2296,573.75,20.9603,21.385,154.119,99.0203,95.3229,0.000406438,0.0437113,21.0219,-309.563,0.337056,0.0,0.0
2303,575.5,20.9046,21.9874,149.706,99.0299,95.4909,0.000448965,0.0436301,21.0218,-309.573,0.322313,0.0,0.0
2310,577.25,20.4827,21.4764,149.86,99.049,95.4232,0.000552069,0.04365,21.0218,-309.563,0.330313,0.0,0.0
2317,579,20.7489,21.0493,150.637,99.0566,95.4789,0.000609049,0.0436382,21.0218,-309.553,0.32582,0.0,0.0
2324,580.75,21.167,21.3945,152.468,99.073,95.3962,0.00055464,0.0436914,21.0229,-309.563,0.334964,0.0,0.0
2331,582.5,21.1639,21.4248,151.309,99.0746,95.4266,0.000542658,0.0437823,21.0233,-309.553,0.33228,0.0,0.0
2338,584.25,20.2715,21.5201,152.416,99.0946,95.4956,0.000548103,0.0439522,21.0233,-309.563,0.327663,0.0,0.0
2345,586,20.5507,21.5747,153.102,99.1106,95.4858,0.000523366,0.0440819,21.0223,-309.563,0.330006,0.0,0.0
2352,587.75,20.8583,21.1692,154.829,99.1222,95.4017,0.000516078,0.0442209,21.0216,-309.563,0.338839,0.0,0.0
2359,589.5,20.6418,21.558,152.944,99.1282,95.4875,0.000529733,0.0443,21.0213,-309.573,0.331419,0.0,0.0
2366,591.25,20.883,21.9794,150.303,99.1346,95.4905,0.000549977,0.0443383,21.0211,-309.563,0.331711,0.0,0.0
2373,593,20.8377,21.7006,153.292,99.1565,95.3829,0.000523582,0.0443205,21.0211,-309.563,0.343661,0.0,0.0
2380,594.75,20.7189,21.8625,152.384,99.1569,95.3186,0.000430776,0.044409,21.0215,-309.553,0.349669,0.0,0.0
2387,596.5,20.6649,21.8266,145.939,99.1653,95.355,0.00032818,0.0444514,21.0216,-309.583,0.347033,0.0,0.0
2394,598.25,21.1894,21.699,150.265,99.1757,95.5458,0.000349491,0.0443781,21.022,-309.553,0.33026,0.0,0.0
2401,600,20.8943,21.4919,144.647,99.1785,95.4472,0.000429065,0.044287,21.0225,-309.543,0.339653,0.0,0.0
2408,601.75,20.264,21.6582,149.613,99.1893,95.4395,0.000569057,0.0441316,21.0234,-309.553,0.341334,0.0,0.0
2415,603.5,20.5187,21.2512,151.911,99.1885,95.6864,0.000731793,0.0439924,21.0237,-309.543,0.318377,0.0,0.0
2422,605.25,20.1567,21.2807,156.344,99.1753,95.445,0.000826647,0.043761,21.0243,-309.543,0.339567,0.0,0.0
2429,607,20.2673,21.4215,151.325,99.1961,95.5569,0.000788448,0.0436036,21.0245,-309.563,0.331047,0.0,0.0
2436,608.75,20.2731,21.2059,154.382,99.2089,95.4712,0.000692706,0.0435786,21.0247,-309.563,0.340139,0.0,0.0
2443,610.5,20.1456,21.3878,148.538,99.2081,95.448,0.000656412,0.043432,21.0247,-309.553,0.342215,0.0,0.0
2450,612.25,20.8361,21.2455,148.336,99.2013,95.4669,0.000685617,0.0433467,21.0247,-309.543,0.339859,0.0,0.0
2457,614,20.2027,21.4843,154.62,99.2049,95.7044,0.000702883,0.0432386,21.0248,-309.553,0.318173,0.0,0.0
2464,615.75,20.0997,20.8538,149.682,99.2177,95.632,0.000689352,0.0432039,21.0248,-309.553,0.326022,0.0,0.0
2471,617.5,20.0771,21.4149,151.938,99.2133,95.349,0.000644544,0.0433227,21.0248,-309.533,0.351872,0.0,0.0
2478,619.25,20.0298,20.9811,150.519,99.2077,95.3915,0.00060752,0.0433565,21.0248,-309.543,0.347432,0.0,0.0
2485,621,20.288,21.3588,152.914,99.2025,95.3807,0.000654114,0.043366,21.0245,-309.553,0.347962,0.0,0.0
2492,622.75,20.2951,21.1975,149.662,99.2161,95.2834,0.000721811,0.0433032,21.0243,-309.563,0.358217,0.0,0.0
2499,624.5,20.0562,20.9316,153.258,99.2057,95.5638,0.000722427,0.0432941,21.0242,-309.543,0.331267,0.0,0.0
2506,626.25,20.6726,20.8045,149.074,99.2033,95.5372,0.000652691,0.0432598,21.0242,-309.543,0.333517,0.0,0.0
2513,628,20.0614,21.2385,152.167,99.1973,95.5089,0.00057198,0.0431966,21.0241,-309.583,0.335604,0.0,0.0
2520,629.75,20.4124,20.9493,149.287,99.2073,95.5055,0.000485589,0.0431838,21.0241,-309.553,0.336816,0.0,0.0
2527,631.5,20.2061,21.5074,148.069,99.1917,95.256,0.000377421,0.0432791,21.0241,-309.553,0.358591,0.0,0.0
2534,633.25,20.1949,21.3733,149.742,99.1833,95.3996,0.000402917,0.0432003,21.0241,-309.553,0.344499,0.0,0.0
2541,635,20.3859,21.2504,152.779,99.2089,95.4412,0.000556054,0.0430861,21.0241,-309.563,0.342923,0.0,0.0
2548,636.75,20.413,20.912,150.639,99.1761,95.4841,0.000693436,0.0430536,21.0241,-309.563,0.33602,0.0,0.0
2555,638.5,20.2024,21.3582,149.961,99.1845,95.3657,0.000731059,0.0430023,21.0241,-309.553,0.347751,0.0,0.0
2562,640.25,20.7002,21.6615,147.106,99.1809,95.3203,0.000749012,0.0429539,21.0241,-309.563,0.351652,0.0,0.0
2569,642,20.6854,21.3981,152.202,99.1745,95.6294,0.000718731,0.0430304,21.0241,-309.573,0.322407,0.0,0.0
2576,643.75,20.3734,20.9589,150.164,99.1629,95.2993,0.000648914,0.0430936,21.0247,-309.563,0.351997,0.0,0.0
2583,645.5,19.8805,21.6355,150.104,99.1609,95.3859,0.00060025,0.043051,21.0259,-309.563,0.343774,0.0,0.0
2590,647.25,20.4341,21.3032,150.858,99.1661,95.4348,0.000654784,0.0430175,21.0261,-309.563,0.339702,0.0,0.0
2597,649,20.3978,21.1532,150.454,99.1573,95.3194,0.000706598,0.0430727,21.0261,-309.563,0.349625,0.0,0.0
2604,650.75,19.9454,21.0817,148.466,99.1609,95.5051,0.000678365,0.0430365,21.0262,-309.563,0.332716,0.0,0.0
2611,652.5,20.3115,21.7415,152.193,99.1406,95.385,0.000643385,0.0431181,21.0262,-309.553,0.342034,0.0,0.0
2618,654.25,20.2189,21.3565,150.572,99.1537,95.3109,0.000645023,0.0432015,21.025,-309.563,0.3501,0.0,0.0
2625,656,20.2558,21.1932,151.002,99.1458,95.3932,0.000657046,0.0431776,21.0244,-309.573,0.341741,0.0,0.0
2632,657.75,20.7395,21.0868,151.216,99.121,95.3572,0.00064977,0.0430956,21.0258,-309.563,0.342872,0.0,0.0
2639,659.5,20.5711,21.343,150.147,99.1118,95.2886,0.000604038,0.0431303,21.0265,-309.553,0.348424,0.0,0.0
2646,661.25,20.5575,21.4552,149.406,99.1134,95.448,0.000501157,0.0431871,21.0268,-309.563,0.333756,0.0,0.0
2653,663,20.3102,21.4189,150.551,99.1146,95.388,0.000377794,0.043118,21.027,-309.563,0.339434,0.0,0.0
2660,664.75,20.2989,21.4454,150.039,99.0894,95.5248,0.000321406,0.043108,21.0264,-309.573,0.324496,0.0,0.0
2667,666.5,20.7016,21.4932,147.852,99.0838,95.2478,0.000373648,0.04303,21.0255,-309.563,0.349709,0.0,0.0
2674,668.25,20.0405,20.9917,150.409,99.0746,95.1788,0.000513038,0.042975,21.0247,-309.553,0.355308,0.0,0.0
2681,670,20.3775,21.0798,144.16,99.0698,95.4146,0.000586352,0.0429205,21.0242,-309.563,0.332967,0.0,0.0
2688,671.75,20.441,21.5405,152.914,99.0486,95.3957,0.000557535,0.0429603,21.024,-309.563,0.332823,0.0,0.0
2695,673.5,19.9916,21.6903,149.545,99.0339,95.4626,0.000493041,0.0430101,21.0239,-309.573,0.325294,0.0,0.0
2702,675.25,20.569,21.541,150.908,99.0215,95.223,0.000427005,0.043004,21.0238,-309.573,0.346449,0.0,0.0
2709,677,20.7316,21.0955,149.271,99.0075,95.3134,0.000424306,0.0430325,21.0238,-309.573,0.336787,0.0,0.0
2716,678.75,20.3983,20.9125,149.615,98.9895,95.1317,0.000464267,0.0432463,21.0238,-309.563,0.352086,0.0,0.0
2723,680.5,20.3502,21.1646,149.049,98.9807,95.3272,0.000465356,0.0433089,21.0238,-309.573,0.333118,0.0,0.0
2730,682.25,20.3065,21.3758,150.717,98.9695,95.1887,0.000422839,0.0431918,21.0238,-309.573,0.344992,0.0,0.0
2737,684,20.731,21.615,147.653,98.9511,95.253,0.000436782,0.0431749,21.0238,-309.563,0.337365,0.0,0.0
2744,685.75,20.6116,21.0863,154.499,98.9475,95.1445,0.000524258,0.0431224,21.0238,-309.563,0.347133,0.0,0.0
2751,687.5,20.3595,21.0981,151.391,98.916,95.1853,0.000550932,0.0432599,21.0238,-309.563,0.340517,0.0,0.0
2758,689.25,20.6048,21.2463,153.529,98.898,95.2526,0.000568833,0.0432694,21.0238,-309.563,0.332646,0.0,0.0
2765,691,21.0307,21.3249,149.187,98.8596,95.1115,0.000574111,0.043352,21.0231,-309.573,0.342335,0.0,0.0
2772,692.75,20.525,21.0725,148.402,98.8476,94.9906,0.000531417,0.043362,21.0228,-309.563,0.352524,0.0,0.0
2779,694.5,20.6729,21.8267,149.801,98.8249,95.1973,0.000501563,0.0434464,21.0226,-309.563,0.331238,0.0,0.0
2786,696.25,20.3482,21.3279,148.169,98.7969,94.88,0.000523319,0.0435774,21.0225,-309.573,0.358295,0.0,0.0
2793,698,19.9712,21.3485,147.375,98.7757,95.0652,0.000500562,0.0436979,21.0225,-309.553,0.339125,0.0,0.0
2800,699.75,20.385,20.881,148.717,98.749,95.0344,0.000334528,0.0437524,21.0212,-309.543,0.339601,0.0,0.0
2807,701.5,20.413,20.8863,153.348,98.7358,94.8959,0.000185552,0.0436868,21.0202,-309.563,0.351331,0.0,0.0
2814,703.25,20.3882,21.2815,152.466,98.7174,94.9165,0.000155309,0.0436164,21.0197,-309.553,0.347761,0.0,0.0
2821,705,20.0259,20.9771,148.201,98.685,94.859,0.000233262,0.0436343,21.0195,-309.563,0.35022,0.0,0.0
2828,706.75,20.1234,21.0654,149.761,98.6694,94.9191,0.000289993,0.0436482,21.0194,-309.553,0.343218,0.0,0.0
2835,708.5,19.9981,21.6619,149.089,98.6634,94.9156,0.000283385,0.043761,21.0193,-309.543,0.343001,0.0,0.0
2842,710.25,20.2839,21.7912,147.385,98.6475,94.9431,0.000319634,0.0439344,21.0193,-309.553,0.339006,0.0,0.0
2849,712,20.7578,21.2567,148.001,98.6323,94.8256,,0.0439118,,-309.563,0.348607,0.0,0.0
2856,713.75,20.8604,21.3472,152.027,98.6115,94.7934,,,,-309.563,0.349744,0.0,0.0
2863,715.5,20.8373,21.1087,147.765,98.5999,94.9966,,,,-309.553,0.329739,0.0,0.0
2870,717.25,20.2144,21.2201,150.242,98.5923,94.9028,,,,-309.563,0.337813,0.0,0.0
2877,719,20.4765,21.1999,152.453,98.5923,94.8895,,,,-309.573,0.339053,0.0,0.0
2884,720.75,20.7992,20.8614,148.856,98.5631,94.8835,,,,-309.583,0.336993,0.0,0.0
2886,721.25,20.6135,21.2489,155.195,98.5619,94.7896,,,,-309.563,0.345654,0.0,0.0