File: 01_Data/Cellulose_Insulation/Cone/Cellulose_Insulation_Cone_HF25Scan_220426_R1.csv
Names,Time,Stack TC,Smoke TC,Exh Press,Smoke Comp,Smoke Meas,CO Meter,CO2 Meter,O2 Meter,Sample Mass,Ext Coeff,Start Test,Flame Verif
Chan Gain,,500,500,1,1,1,1,1,1,1,1,1.0,1.0
Offset,,0,0,0.135223,0,0,0,0,0,0,0,0.0,0.0
Gain,,1,1,25.011,13.0939,14.0471,1,1,1,1.00088,1.00971,1.0,1.0
Units,sec,C,C,Pa,%,%,%,%,%,g,/m,,
Baseline,,19.7814,20.431,151.879,97.1797,93.98,0.000998649,0.0462581,21.0096,-834.16,0.296547,,
17,4,18.4679,18.5241,151.766,97.1662,93.5434,0.00120177,0.0494295,21.0075,-311.685,0.336543,0.0,0.0
34,8.25,18.077,19.3064,149.379,97.1606,93.5674,0.00135989,0.0492705,21.0077,-311.715,0.333759,0.0,0.0
51,12.5,18.6492,19.5621,152.282,97.1498,93.7462,0.00125265,0.0482826,21.0098,-311.755,0.315871,0.0,0.0
68,16.75,18.9254,19.4706,149.219,97.1534,93.5365,0.0010865,0.0467913,21.011,-311.755,0.336026,0.0,0.0
85,21,18.6932,19.3341,149.818,97.1634,93.8212,0.00101476,0.045838,21.0128,-311.755,0.310024,0.0,0.0
102,25.25,19.0605,19.7986,148.797,97.1458,93.7852,0.000910907,0.045429,21.0142,-311.805,0.311822,0.0,0.0
119,29.5,18.8336,19.5977,150.443,97.1698,93.9708,0.00122086,0.0450214,21.0145,-311.845,0.296494,0.0,0.0
136,33.75,19.3749,19.7136,149.196,97.1721,93.8203,0.00131472,0.0450746,21.0145,-311.795,0.310905,0.0,0.0
153,38,18.7614,19.6241,149.53,97.169,93.9519,0.00108316,0.0450095,21.0145,-311.835,0.298199,0.0,0.0
170,42.25,19.2923,19.7326,153.076,97.1706,93.8405,0.000983214,0.0449849,21.0139,-311.865,0.308858,0.0,0.0
187,46.5,19.4762,19.9423,150.536,97.1817,93.7367,0.00120554,0.0446827,21.015,-311.845,0.319675,0.0,0.0
204,50.75,18.7256,19.4744,153.131,97.1829,93.756,0.00113246,0.0446221,21.018,-311.835,0.317962,0.0,0.0
221,55,19.8531,20.2872,153.111,97.1809,93.9494,0.00107159,0.0444052,21.018,-311.845,0.299535,0.0,0.0
238,59.25,18.9679,19.9915,154.045,97.1901,93.6926,0.000900854,0.044263,21.0175,-311.815,0.324613,0.0,0.0
255,63.5,19.6041,20.0444,146.83,97.1905,94.0274,0.000716429,0.0444467,21.0174,-311.875,0.293057,0.0,0.0
272,67.75,19.3391,20.0588,153.25,97.1761,94.0467,0.000844704,0.0446448,21.0174,-311.855,0.289928,0.0,0.0
289,72,19.6745,20.3667,151.986,97.1881,93.9292,0.000867015,0.0457459,21.0159,-311.855,0.302089,0.0,0.0
306,76.25,19.9784,20.3943,149.104,97.1917,93.8268,0.00103769,0.0461799,21.0139,-311.875,0.312084,0.0,0.0
323,80.5,19.918,20.1533,153.06,97.1829,93.684,0.000863134,0.0459325,21.0136,-311.885,0.324769,0.0,0.0
340,84.75,19.6212,20.0447,151.828,97.1777,93.804,0.00069803,0.0455467,21.0135,-311.875,0.312954,0.0,0.0
357,89,19.7337,20.3134,152.85,97.1766,93.7667,0.000873656,0.0452747,21.0142,-311.905,0.316368,0.0,0.0
374,93.25,20.1675,20.468,149.395,97.1662,94.0501,0.000974838,0.045282,21.0147,-311.945,0.288695,0.0,0.0
391,97.5,19.7313,20.5494,148.673,97.157,93.9579,0.000902728,0.045224,21.0171,-311.965,0.296541,0.0,0.0
408,101.75,19.8235,20.8479,147.543,97.1658,94.255,0.00102284,0.0451691,21.0158,-311.945,0.269382,0.0,0.0
425,106,19.784,20.4808,148.933,97.1674,93.9335,0.00111766,0.0451189,21.0169,-311.965,0.299792,0.0,0.0
442,110.25,19.6353,21.0284,150.918,97.1534,94.1821,0.00116008,0.0447903,21.0177,-311.955,0.275103,0.0,0.0
459,114.5,19.5375,20.3343,152.54,97.1562,94.1196,0.00097805,0.0444659,21.0178,-311.895,0.281247,0.0,0.0
476,118.75,19.465,20.4304,151.073,97.149,93.9099,0.00109163,0.0445301,21.0191,-311.945,0.30034,0.0,0.0
493,123,19.5533,20.083,149.349,97.1398,94.0342,0.0010885,0.0445029,21.0194,-311.935,0.287784,0.0,0.0
510,127.25,19.7827,20.9543,152.923,97.155,93.8456,0.00111951,0.0445069,21.0195,-311.965,0.306952,0.0,0.0
527,131.5,19.639,20.5679,149.465,97.157,93.9901,0.00120667,0.0446,21.0195,-311.985,0.293511,0.0,0.0
544,135.75,19.9479,20.6156,146.163,97.153,93.7976,0.00108294,0.0444081,21.0195,-311.945,0.311303,0.0,0.0
561,140,20.0417,20.2876,153.788,97.1458,93.9215,0.00109511,0.044043,21.0204,-311.975,0.298957,0.0,0.0
578,144.25,20.0858,20.3833,155.581,97.1526,93.8529,0.00100916,0.0444198,21.0224,-312.025,0.306046,0.0,0.0
595,148.5,19.945,20.282,150.297,97.153,93.8709,0.000859009,0.0443215,21.0227,-311.955,0.304384,0.0,0.0
612,152.75,19.6556,20.372,152.628,97.1486,94.162,0.000774825,0.0441544,21.0227,-312.045,0.276561,0.0,0.0
629,157,20.1462,20.5742,149.08,97.153,93.8576,0.00111084,0.0440578,21.0227,-311.955,0.305637,0.0,0.0
646,161.25,20.215,20.7886,153.195,97.1498,93.816,0.00119864,0.0439837,21.0227,-311.985,0.309271,0.0,0.0
663,165.5,20.1729,20.8617,149.843,97.1378,93.8979,0.00121659,0.0440594,21.0206,-312.055,0.300451,0.0,0.0
680,169.75,19.7678,20.853,150.077,97.1458,93.8023,0.00107902,0.0441813,21.0199,-312.055,0.310202,0.0,0.0
697,174,19.8505,20.538,152.744,97.1514,93.9712,0.00101423,0.0440315,21.0185,-312.035,0.294779,0.0,0.0
714,178.25,19.8687,20.7428,149.22,97.1394,94.0304,0.00116114,0.043947,21.0185,-312.045,0.288111,0.0,0.0
731,182.5,20.1103,21.3772,149.732,97.1594,94.1513,0.000976111,0.0438308,21.0196,-311.995,0.278553,0.0,0.0
748,186.75,20.0976,20.4345,154.75,97.1542,93.9258,0.00109317,0.043626,21.0203,-312.055,0.299317,0.0,0.0
765,191,20.0216,20.8621,149.977,97.1554,93.9451,0.00109176,0.0437225,21.0215,-312.065,0.297607,0.0,0.0
782,195.25,19.7824,21.0951,152,97.1614,94.2173,0.000955182,0.0437375,21.0217,-312.055,0.272527,0.0,0.0
799,199.5,20.0058,20.8587,149.926,97.1698,94.0758,0.00080206,0.0436635,21.0217,-312.015,0.286601,0.0,0.0
816,203.75,20.1228,20.6282,148.85,97.1658,94.0424,0.000748028,0.0435957,21.0217,-312.085,0.289385,0.0,0.0
833,208,20.4378,20.7307,152.574,97.1749,93.9622,0.000514904,0.0433092,21.0217,-312.075,0.297776,0.0,0.0
850,212.25,20.1401,20.4725,156.399,97.1698,93.9614,0.000486783,0.043313,21.0223,-312.035,0.297383,0.0,0.0
867,216.5,19.8899,20.9369,150.161,97.1682,93.8049,0.000746315,0.0431568,21.0207,-312.025,0.311999,0.0,0.0
884,220.75,19.8968,21.0045,151.711,97.1478,93.7646,0.000839503,0.0431367,21.0218,-312.045,0.313948,0.0,0.0
901,225,20.4242,21.1236,149.423,97.1562,93.9292,0.00119823,0.0432725,21.0212,-312.015,0.299175,0.0,0.0
918,229.25,20.2332,21.3104,149.488,97.1566,94.1303,0.00111275,0.0432739,21.0203,-312.065,0.280275,0.0,0.0
935,233.5,20.0355,21.0779,147.254,97.1554,93.9005,0.00086664,0.0432122,21.0226,-312.035,0.301813,0.0,0.0
952,237.75,20.4237,21.0367,151.941,97.1526,94.0788,0.000974744,0.0431644,21.0226,-312.015,0.284752,0.0,0.0
969,242,20.0882,20.9668,153.741,97.1594,93.8315,0.000960234,0.0431173,21.0224,-312.075,0.308688,0.0,0.0
986,246.25,19.7614,20.4337,153.597,97.1514,93.9284,0.000790125,0.0430006,21.0243,-312.085,0.29882,0.0,0.0
1003,250.5,20.1301,20.9024,152.892,97.149,93.8139,0.000723806,0.0429382,21.024,-312.065,0.309401,0.0,0.0
1020,254.75,20.124,20.7658,150.536,97.145,94.2199,0.00102542,0.0430876,21.0246,-312.025,0.270792,0.0,0.0
1037,259,19.6893,20.4421,150.478,97.1474,94.2452,0.000975698,0.0429138,21.0239,-312.065,0.268632,0.0,0.0
1054,263.25,19.9418,21.0313,154.761,97.147,93.8066,0.000660965,0.0430283,21.0219,-312.065,0.309906,0.0,0.0
1071,267.5,19.9374,21.0634,147.416,97.1498,94.12,0.000650799,0.0428503,21.0215,-312.055,0.280623,0.0,0.0
1088,271.75,20.5223,21.0625,150.742,97.1574,93.8606,0.00079719,0.0429585,21.0214,-312.045,0.305755,0.0,0.0
1105,276,20.2005,20.8453,149.689,97.147,93.9155,0.000823048,0.0428903,21.0214,-312.065,0.299632,0.0,0.0
1122,280.25,20.0854,20.9579,153.44,97.1538,93.8872,0.000900666,0.0428681,21.0218,-312.055,0.30292,0.0,0.0
1139,284.5,20.2603,20.7929,149.953,97.1582,93.9957,0.000973907,0.0429304,21.022,-312.045,0.293094,0.0,0.0
1156,288.75,19.8634,20.3384,149.597,97.1454,93.7367,0.000918208,0.0428594,21.0202,-312.075,0.316361,0.0,0.0
1173,293,20.7509,21.2029,149.507,97.153,94.0857,0.000915806,0.0428314,21.0207,-312.055,0.284143,0.0,0.0
1190,297.25,20.0579,20.5344,152.025,97.1582,93.9858,0.00108538,0.0427939,21.0216,-312.045,0.294023,0.0,0.0
1207,301.5,20.2638,20.9876,151.829,97.1578,93.8713,0.000864789,0.0428199,21.022,-312.075,0.304781,0.0,0.0
1224,305.75,19.7467,21.3734,148.962,97.1446,94.0591,0.00064176,0.0429286,21.0236,-312.085,0.28588,0.0,0.0
1241,310,20.3259,20.6096,150.074,97.1666,93.7732,0.000845592,0.0429108,21.0229,-312.055,0.314849,0.0,0.0
1258,314.25,20.2042,21.0978,151.593,97.1721,93.9326,0.000671385,0.0425713,21.0219,-312.035,0.300309,0.0,0.0
1275,318.5,20.443,21.1908,154.55,97.1833,94.3429,0.000736525,0.0427947,21.0231,-312.035,0.26273,0.0,0.0
1292,322.75,20.4924,21.1205,148.505,97.2105,94.0445,0.000800683,0.0427674,21.0239,-312.025,0.293262,0.0,0.0
1309,327,19.71,20.8768,152.127,97.2401,93.8885,0.000644436,0.0426507,21.0244,-312.045,0.310663,0.0,0.0
1326,331.25,20.815,21.0835,149.002,97.2509,94.0132,0.000582149,0.0426954,21.0246,-312.035,0.299886,0.0,0.0
1343,335.5,19.9228,21.0624,152.462,97.2948,94.2653,0.000601469,0.0425465,21.0247,-312.035,0.280174,0.0,0.0
1360,339.75,20.5384,21.1634,154.409,97.358,93.8049,0.000594198,0.0426345,21.0247,-312.055,0.329284,0.0,0.0
1377,344,19.9375,20.9254,153.013,97.3795,94.1363,0.000511691,0.0427948,21.0247,-312.075,0.300012,0.0,0.0
1394,348.25,20.2628,21.114,150.907,97.4307,94.2237,0.000547382,0.042579,21.0247,-312.065,0.296439,0.0,0.0
1411,352.5,20.0502,20.9759,150.329,97.4882,94.2409,0.000887404,0.0425447,21.0257,-312.085,0.300057,0.0,0.0
1428,356.75,20.1201,21.0243,151.615,97.539,94.4406,0.000889428,0.0425382,21.0259,-312.105,0.285913,0.0,0.0
1445,361,19.8847,20.8968,149.603,97.5813,94.4008,0.000568613,0.042541,21.026,-312.045,0.293497,0.0,0.0
1462,365.25,20.6029,21.0671,151.704,97.6449,94.2867,0.000561041,0.0426805,21.026,-312.055,0.309967,0.0,0.0
1479,369.5,20.3684,21.1346,152.715,97.6832,94.4441,0.000814598,0.04292,21.026,-312.075,0.29868,0.0,0.0
1496,373.75,20.2093,21.256,150.069,97.7156,94.4171,0.000705591,0.0427858,21.0251,-312.075,0.304147,0.0,0.0
1513,378,20.1545,20.898,153.42,97.7552,94.61,0.000765965,0.0425924,21.0248,-312.055,0.289654,0.0,0.0
1530,382.25,20.2945,21.1623,151.427,97.7975,94.6421,0.000690066,0.0425785,21.0247,-312.065,0.290482,0.0,0.0
1547,386.5,20.44,20.924,149.543,97.8131,94.8839,0.000584749,0.0425262,21.0247,-312.095,0.269296,0.0,0.0
1564,390.75,19.8806,20.8593,150.763,97.8583,94.6113,0.000764818,0.0424159,21.0247,-312.075,0.29887,0.0,0.0
1581,395,20.2898,21.2333,152.678,97.8898,94.4891,0.00100421,0.0425448,21.0243,-312.045,0.313171,0.0,0.0
1598,399.25,20.0879,21.2562,156.503,97.9266,94.8295,0.00101019,0.0432015,21.0238,-312.055,0.28465,0.0,0.0
1615,403.5,20.2969,20.872,152.556,97.9805,94.6181,0.000621185,0.0441698,21.0237,-312.045,0.309288,0.0,0.0
1632,407.75,20.5921,21.3444,152.301,98.0377,94.7304,0.00072248,0.0441757,21.0248,-312.065,0.303944,0.0,0.0
1649,412,20.325,21.1897,148.755,98.0668,94.9834,0.000856802,0.0437314,21.024,-312.065,0.282963,0.0,0.0
1666,416.25,20.6384,21.4257,151.793,98.1,95.3469,0.00073504,0.0436677,21.0237,-312.075,0.252125,0.0,0.0
1683,420.5,20.2103,21.1252,150.874,98.136,95.0378,0.000386447,0.043686,21.0242,-312.075,0.28413,0.0,0.0
1700,424.75,20.4345,21.8769,151.796,98.1851,95.0472,0.00051674,0.0434645,21.0243,-312.085,0.287686,0.0,0.0
1717,429,20.5596,21.0585,150.273,98.1895,95.0369,0.000674909,0.0433587,21.024,-312.065,0.289041,0.0,0.0
1734,433.25,20.1895,21.0436,152.237,98.2067,95.5089,0.000886312,0.043257,21.0236,-312.075,0.246712,0.0,0.0
1751,437.5,20.3319,21.4423,154.949,98.2131,95.1643,0.000807924,0.0429658,21.0235,-312.085,0.27931,0.0,0.0
1768,441.75,20.6811,21.2561,147.527,98.1855,95.181,0.000843888,0.042924,21.0258,-312.075,0.275266,0.0,0.0
1785,446,20.627,21.4052,151.126,98.1603,95.2076,0.000980186,0.0429762,21.0258,-312.065,0.270523,0.0,0.0
1802,450.25,20.2105,21.0435,148.326,98.1172,95.0061,0.000707652,0.0430943,21.0257,-312.065,0.285391,0.0,0.0
1819,454.5,20.4669,21.336,149.115,98.0692,94.8719,0.000843743,0.0432532,21.0257,-312.075,0.29358,0.0,0.0
1836,458.75,20.2539,21.0004,147.077,98.0105,94.8303,0.00104319,0.0434539,21.0244,-312.055,0.292156,0.0,0.0
1853,463,20.1586,20.752,148.646,97.9498,95.0322,0.000829226,0.0438928,21.0235,-312.065,0.267827,0.0,0.0
1870,467.25,20.3584,20.8014,151.009,97.8986,94.9782,0.000836325,0.0445707,21.0234,-312.075,0.268236,0.0,0.0
1887,471.5,20.2786,20.6427,150.332,97.8515,94.6528,0.000700969,0.0446409,21.0233,-312.085,0.294363,0.0,0.0
1904,475.75,20.2066,21.4385,152.306,97.8039,94.3926,0.000879173,0.0442534,21.0233,-312.085,0.314441,0.0,0.0
1921,480,20.4844,21.3794,149.584,97.7544,94.7317,0.000792838,0.0436266,21.0233,-312.085,0.278192,0.0,0.0
1938,484.25,20.6515,21.1961,151.706,97.7044,94.5508,0.000495645,0.0430638,21.0233,-312.085,0.290596,0.0,0.0
1955,488.5,20.7298,21.303,149.729,97.6605,94.3969,0.000758682,0.0430942,21.0221,-312.075,0.301038,0.0,0.0
1972,492.75,20.5201,20.9631,154.312,97.6045,94.3828,0.000743723,0.0427798,21.024,-312.065,0.29729,0.0,0.0
1989,497,20.5851,21.3481,152.489,97.5398,94.246,0.000208988,0.0427382,21.0261,-312.085,0.304256,0.0,0.0
2006,501.25,20.709,21.2945,148.894,97.5178,94.2987,0.000411939,0.0427351,21.0245,-312.085,0.297306,0.0,0.0
2023,505.5,20.2449,21.3646,146.282,97.4723,94.4428,0.000647369,0.042874,21.0236,-312.075,0.27965,0.0,0.0
2040,509.75,19.9818,20.9984,153.1,97.4347,94.3712,0.000868818,0.042791,21.0234,-312.065,0.282951,0.0,0.0
2057,514,20.4753,21.3127,150.921,97.4055,94.0737,0.000776906,0.0426104,21.0241,-312.085,0.308267,0.0,0.0
2074,518.25,20.169,21.2628,152.237,97.3704,94.3652,0.000726748,0.0425321,21.0247,-312.085,0.277666,0.0,0.0
2091,522.5,20.2183,21.2741,152.77,97.33,93.9489,0.000838635,0.0426063,21.0248,-312.085,0.313149,0.0,0.0
2108,526.75,20.288,20.4428,147.206,97.298,94.1393,0.000658262,0.0425928,21.0235,-312.075,0.292314,0.0,0.0
2125,531,20.7773,21.337,149.771,97.2717,94.3703,0.000486986,0.0424192,21.0232,-312.085,0.2682,0.0,0.0
2142,535.25,20.32,21.4911,150.261,97.2505,94.1333,0.000500006,0.0427217,21.0243,-312.085,0.288549,0.0,0.0
2159,539.5,20.5155,21.1739,148.319,97.2217,93.9262,0.000589076,0.0427777,21.0257,-312.095,0.305431,0.0,0.0
2176,543.75,20.2633,21.1009,151.613,97.1997,94.0805,0.000845189,0.0428423,21.0249,-312.085,0.288888,0.0,0.0
2193,548,20.3025,20.8882,150.285,97.1805,93.8572,0.000948421,0.0429996,21.0262,-312.075,0.308191,0.0,0.0
2210,552.25,20.0023,21.2009,151.816,97.1494,94.1046,0.00081147,0.0429735,21.0267,-312.075,0.282039,0.0,0.0
2227,556.5,20.636,21.044,148.392,97.1506,94.15,0.000861489,0.0430774,21.0265,-312.065,0.277873,0.0,0.0
2244,560.75,20.4458,21.321,152.612,97.1566,94.204,0.000715444,0.0429867,21.0237,-312.075,0.273339,0.0,0.0
2261,565,20.4421,21.2718,154.604,97.1398,93.9489,0.000547596,0.0429566,21.0231,-312.075,0.295823,0.0,0.0
2278,569.25,19.5188,20.7921,152.65,97.159,94.2203,0.000644747,0.0430149,21.023,-312.085,0.272026,0.0,0.0
2295,573.5,20.5604,21.516,150.725,97.171,94.1041,0.000772713,0.0429492,21.023,-312.075,0.284046,0.0,0.0
2312,577.75,20.2606,21.5819,150.583,97.1813,93.9511,0.00122794,0.0431015,21.023,-312.065,0.299409,0.0,0.0
2329,582,19.9037,21.6196,151.612,97.2073,94.3523,0.00110909,0.0430962,21.0242,-312.095,0.26403,0.0,0.0
2346,586.25,20.2077,21.3394,153.68,97.2421,94.0377,0.000926452,0.0429568,21.0245,-312.115,0.296783,0.0,0.0
2363,590.5,20.8014,21.1654,152.982,97.2872,94.2756,0.000540763,0.0429602,21.026,-312.095,0.278515,0.0,0.0
2380,594.75,20.7215,20.9445,151.263,97.3488,94.174,0.00060127,0.0429579,21.0246,-312.075,0.293665,0.0,0.0
2397,599,20.5975,21.2437,148.943,97.4099,94.5354,0.000834928,0.0430486,21.0257,-312.075,0.265303,0.0,0.0
2414,603.25,20.4856,20.8967,154.879,97.4706,94.4016,0.000821989,0.0428123,21.0264,-312.115,0.283365,0.0,0.0
2431,607.5,20.8604,21.4974,153.113,97.5362,94.5204,0.000797379,0.0427472,21.0274,-312.105,0.278184,0.0,0.0
2448,611.75,20.3638,21.0693,151.235,97.5997,94.3613,0.000797287,0.0427737,21.0283,-312.095,0.298866,0.0,0.0
2465,616,20.1235,21.0262,152.709,97.6752,94.5911,0.000580743,0.042823,21.028,-312.075,0.284175,0.0,0.0
2482,620.25,20.0303,20.9287,151.785,97.732,94.7081,0.000747421,0.0427986,21.0265,-312.095,0.278369,0.0,0.0
2499,624.5,20.0919,21.342,153.137,97.7979,94.8406,0.000643171,0.0429303,21.0262,-312.115,0.271963,0.0,0.0
2516,628.75,20.2969,20.9326,149.424,97.8539,94.8496,0.00045162,0.04283,21.0254,-312.095,0.276187,0.0,0.0
2533,633,20.3025,20.9837,153.238,97.893,94.7857,0.000444344,0.0427611,21.0247,-312.085,0.285698,0.0,0.0
2550,637.25,20.3423,21.2147,149.27,97.939,94.8402,0.00029503,0.0427912,21.0263,-312.095,0.284769,0.0,0.0
2567,641.5,19.9798,20.8764,149.446,97.9709,94.7283,0.000366919,0.0427623,21.0253,-312.125,0.298114,0.0,0.0
2584,645.75,20.1306,21.5203,149,98.0037,95.1561,0.000854949,0.0428209,21.0249,-312.135,0.261164,0.0,0.0
2601,650,20.5468,21.002,153.692,98.0241,94.9585,0.000825061,0.0426491,21.0249,-312.155,0.281419,0.0,0.0
2618,654.25,20.6975,21.1207,156.407,98.0692,94.9349,0.000750363,0.0427572,21.0252,-312.135,0.287698,0.0,0.0
2635,658.5,20.5707,21.4793,151.003,98.0884,94.9705,0.000507367,0.0426428,21.0253,-312.075,0.286112,0.0,0.0
2652,662.75,20.0747,20.7591,149.355,98.106,95.0468,0.000610725,0.0425288,21.0253,-312.095,0.280585,0.0,0.0
2669,667,20.648,20.6844,151.91,98.1619,95.0369,0.000967472,0.0426532,21.0253,-312.085,0.286554,0.0,0.0
2686,671.25,20.5632,20.9941,151.441,98.1775,95.3507,0.000984409,0.0425896,21.0247,-312.115,0.258763,0.0,0.0
2703,675.5,20.3708,21.4191,149.073,98.2051,95.0554,0.000726394,0.0426319,21.0235,-312.065,0.288728,0.0,0.0
2720,679.75,20.7205,21.2484,150.911,98.2391,95.1342,0.000560281,0.0426843,21.0233,-312.085,0.284444,0.0,0.0
2737,684,20.3653,20.869,149.479,98.2654,94.9675,0.00083218,0.0427287,21.0239,-312.065,0.302361,0.0,0.0
2754,688.25,20.1973,20.953,152.676,98.2814,95.0035,0.000975748,0.0425827,21.0255,-312.075,0.300444,0.0,0.0
2771,692.5,20.3794,21.2471,149.353,98.297,95.4047,0.000948174,0.0424706,21.0263,-312.095,0.26452,0.0,0.0
2788,696.75,20.3204,21.1214,151.628,98.3206,95.3036,0.000743375,0.0424257,21.0256,-312.075,0.27604,0.0,0.0
2805,701,21.0021,21.0112,149.465,98.3314,95.3957,0.000439927,0.0426935,21.0256,-312.085,0.268451,0.0,0.0
2822,705.25,20.5164,21.4006,147.186,98.3322,95.2633,0.000463896,0.0425708,21.0262,-312.085,0.28083,0.0,0.0
2839,709.5,20.6557,20.9242,151.774,98.3382,95.4219,0.000737749,0.0424718,21.0266,-312.075,0.266635,0.0,0.0
2856,713.75,20.2673,21.3203,148.666,98.3554,95.4699,0.00074513,0.042442,21.027,-312.085,0.263727,0.0,0.0
2873,718,20.4752,21.5899,151.018,98.3561,95.0022,0.000833264,0.0424072,21.0258,-312.075,0.307295,0.0,0.0
2890,722.25,20.4009,21.6781,149.328,98.3661,95.2766,0.000659753,0.0423934,21.0256,-312.085,0.282654,0.0,0.0
2907,726.5,20.385,21.0374,150.084,98.3749,95.103,0.000566052,0.0423584,21.0256,-312.065,0.2996,0.0,0.0
2924,730.75,20.1896,21.2077,154.221,98.3633,95.2196,0.000529027,0.042358,21.0256,-312.065,0.287703,0.0,0.0
2941,735,20.2313,21.2584,152.112,98.3673,95.7275,0.00039931,0.0421802,21.0256,-312.115,0.240937,0.0,0.0
2958,739.25,19.646,20.7266,153.465,98.3785,94.841,0.000535572,0.0421787,21.0256,-312.075,0.324351,0.0,0.0
2975,743.5,20.3465,21.2038,151.39,98.347,95.0039,0.000619132,0.0423668,21.0261,-312.075,0.306308,0.0,0.0
2992,747.75,20.0444,20.8517,149.027,98.3458,95.1437,0.00052597,0.0423551,21.0262,-312.085,0.293181,0.0,0.0
3009,752,20.7479,21.1484,152.016,98.3374,95.4686,0.000540462,0.0424222,21.0262,-312.085,0.262228,0.0,0.0
3026,756.25,20.3814,21.8406,153.326,98.3282,95.163,0.000393621,0.042365,21.0262,-312.085,0.289802,0.0,0.0
3043,760.5,20.1351,21.2578,149.987,98.3334,95.0729,0.000367606,0.0422901,21.0262,-312.095,0.298653,0.0,0.0
3060,764.75,19.961,21.1658,152.373,98.323,95.1874,0.00049601,0.042365,21.0262,-312.085,0.28706,0.0,0.0
3077,769,20.5949,21.6248,153.138,98.3182,95.3134,0.000882447,0.0426711,21.0262,-312.085,0.274909,0.0,0.0
3094,773.25,20.9328,21.4151,155.548,98.3154,95.1947,0.000682222,0.0425677,21.0262,-312.085,0.285698,0.0,0.0
3111,777.5,20.1327,21.3615,152.587,98.3018,95.2371,0.000827854,0.0424503,21.0262,-312.085,0.280525,0.0,0.0
3128,781.75,20.0428,21.472,147.627,98.3058,95.343,0.000975055,0.0424713,21.0262,-312.085,0.271044,0.0,0.0
3145,786,20.233,21.195,151.706,98.2926,95.3949,0.00100281,0.0425028,21.0262,-312.095,0.265038,0.0,0.0
3162,790.25,20.9023,21.6499,150.887,98.2978,94.916,0.000940842,0.0426557,21.0262,-312.095,0.310078,0.0,0.0
3179,794.5,20.3156,21.4441,153.298,98.3058,95.112,0.000940693,0.0426979,21.0262,-312.085,0.292535,0.0,0.0
3196,798.75,20.2327,21.3931,148.475,98.3098,95.5612,0.000464201,0.0426896,21.0262,-312.085,0.251157,0.0,0.0
3213,803,20.8402,21.5923,149.753,98.3046,95.1137,0.000565471,0.0426248,21.0256,-312.075,0.292267,0.0,0.0
3230,807.25,20.6836,21.3691,154.633,98.3222,95.0854,0.000615801,0.0427323,21.0261,-312.105,0.296486,0.0,0.0
3247,811.5,20.5945,21.1482,148.572,98.3318,95.1587,0.000549371,0.0426154,21.0257,-312.075,0.290525,0.0,0.0
3264,815.75,20.5908,21.287,152.671,98.3382,95.3139,0.000636709,0.0425192,21.0257,-312.075,0.276668,0.0,0.0
3281,820,20.2388,21.5358,152.791,98.3633,95.5728,0.000758243,0.042508,21.0267,-312.095,0.254907,0.0,0.0
3298,824.25,20.6683,21.4297,152.142,98.3645,95.2491,0.000539735,0.0426168,21.0253,-312.095,0.28506,0.0,0.0
3315,828.5,20.3108,21.5987,147.339,98.3793,95.4176,0.000140063,0.0427197,21.0247,-312.085,0.270739,0.0,0.0
3332,832.75,20.3121,20.7657,151.636,98.3949,95.2303,0.000301472,0.0426257,21.0264,-312.075,0.289549,0.0,0.0
3349,837,20.6601,20.9575,150.927,98.4161,95.2967,0.000440486,0.0426527,21.0274,-312.095,0.285277,0.0,0.0
3366,841.25,20.3245,20.8221,153.656,98.4105,95.4673,0.00053627,0.0426375,21.0282,-312.075,0.26893,0.0,0.0
3383,845.5,20.5274,21.568,150.072,98.4425,95.3053,0.000717371,0.0426428,21.0281,-312.085,0.286854,0.0,0.0
3400,849.75,20.4119,21.0067,150.512,98.4421,95.4635,0.000577256,0.0427205,21.0265,-312.055,0.272128,0.0,0.0
3417,854,20.13,21.2784,150.422,98.4389,94.9443,0.00065753,0.0425945,21.0268,-312.075,0.320138,0.0,0.0
3434,858.25,21.001,21.4984,150.573,98.4493,95.2937,0.000711114,0.0424682,21.0277,-312.085,0.288541,0.0,0.0
3451,862.5,20.3503,20.9011,156.486,98.4616,94.9199,0.000643498,0.0423594,21.0268,-312.095,0.324468,0.0,0.0
3468,866.75,20.2778,21.3351,152.986,98.4616,95.4759,0.000500597,0.0423146,21.0259,-312.095,0.272738,0.0,0.0
3485,871,20.6342,21.4685,152.556,98.4553,95.4167,0.000547392,0.0424656,21.0269,-312.085,0.277653,0.0,0.0
3502,875.25,21.0266,21.0372,146.914,98.4461,95.1248,0.000438544,0.0425222,21.0276,-312.095,0.303965,0.0,0.0
3519,879.5,20.3449,20.3115,149.405,98.4397,95.3902,0.000423433,0.0422379,21.0261,-312.085,0.278717,0.0,0.0
3536,883.75,20.4692,20.9653,151.823,98.4201,95.2517,0.00050378,0.0424343,21.0265,-312.075,0.289821,0.0,0.0
3553,888,20.4471,21.3528,150.019,98.4325,95.5325,0.00079737,0.0423357,21.0266,-312.075,0.264865,0.0,0.0
3570,892.25,20.3896,21.3363,152.054,98.4133,95.2363,0.000852349,0.0422454,21.0266,-312.075,0.290645,0.0,0.0
3587,896.5,20.4072,21.3295,151.588,98.3861,95.1844,0.000935255,0.0422684,21.0266,-312.125,0.293025,0.0,0.0
3604,900.75,19.9763,20.9065,152.134,98.3713,95.211,0.000764449,0.0424623,21.0266,-312.065,0.289221,0.0,0.0
3621,905,20.0263,20.8457,152.186,98.3589,95.0704,0.000874979,0.0424274,21.0266,-312.075,0.301195,0.0,0.0
3638,909.25,20.1311,21.2339,151.496,98.3498,94.7819,0.00101011,0.0422689,21.0266,-312.065,0.327286,0.0,0.0
3655,913.5,19.9845,20.8645,147.228,98.3454,95.2453,0.000926655,0.0422022,21.0266,-312.085,0.283692,0.0,0.0
3672,917.75,20.2324,21.2578,150.004,98.3274,95.0211,0.000531612,0.0422521,21.0266,-312.115,0.302945,0.0,0.0
3689,922,20.2786,21.0873,149.5,98.3242,95.1908,0.00026406,0.042175,21.0266,-312.095,0.286848,0.0,0.0
3706,926.25,20.2044,20.7325,154.72,98.301,95.0751,0.000562435,0.0421112,21.0266,-312.055,0.295537,0.0,0.0
3723,930.5,20.768,21.4536,152.847,98.3098,95.2526,0.000994363,0.0422036,21.0266,-312.075,0.279811,0.0,0.0
3740,934.75,20.554,21.176,149.449,98.2866,95.0507,0.000755438,0.0421679,21.0271,-312.085,0.296517,0.0,0.0
3757,939,20.3349,21.3149,150.706,98.2718,95.232,0.000615477,0.0421428,21.0266,-312.115,0.278303,0.0,0.0
3774,943.25,19.8637,21.0124,153.169,98.2754,95.3812,0.000349284,0.0423119,21.0266,-312.105,0.264763,0.0,0.0
3791,947.5,20.2709,21.2904,151.69,98.2714,95.1763,0.000395458,0.0423002,21.0266,-312.085,0.283452,0.0,0.0
3808,951.75,20.1644,21.4632,146.417,98.2638,95.2547,3.86056e-05,0.0422586,21.028,-312.115,0.275471,0.0,0.0
3825,956,20.0425,21.6053,151.531,98.2658,95.0485,0.000159996,0.0421728,21.0284,-312.095,0.294844,0.0,0.0
3842,960.25,20.3648,21.0308,149.829,98.263,95.1025,0.000328485,0.0422016,21.0304,-312.085,0.28956,0.0,0.0
3859,964.5,20.5204,21.2941,151.17,98.2706,94.9392,0.000375489,0.0421774,21.0308,-312.095,0.305468,0.0,0.0
3876,968.75,20.2486,21.0073,152.966,98.2894,95.0922,0.000467172,0.042297,21.0308,-312.065,0.292895,0.0,0.0
3893,973,20.3899,21.3518,154.639,98.3038,95.2247,0.000566263,0.0421928,21.0295,-312.075,0.281862,0.0,0.0
3910,977.25,19.9541,21.1132,152.138,98.3282,95.0112,0.000740992,0.0423689,21.0271,-312.075,0.303937,0.0,0.0
3927,981.5,20.5149,21.1186,152.279,98.3302,94.9285,0.000754598,0.0423519,21.0266,-312.085,0.311833,0.0,0.0
3944,985.75,20.4281,21.0152,148.231,98.3637,95.3302,0.000569933,0.0422285,21.0264,-312.075,0.277458,0.0,0.0
3961,990,20.4265,21.3156,154.722,98.3797,95.4215,0.000740206,0.0421431,21.0258,-312.135,0.270418,0.0,0.0
3978,994.25,20.2853,21.1957,150.475,98.3769,95.271,0.0010626,0.042036,21.0257,-312.135,0.284143,0.0,0.0
3995,998.5,20.9673,21.1811,146.414,98.4069,95.1561,0.000777513,0.0419802,21.0285,-312.095,0.297528,0.0,0.0
4012,1002.75,20.461,20.901,150.68,98.4197,95.0168,0.000615797,0.0420474,21.0292,-312.115,0.311656,0.0,0.0
4029,1007,20.561,20.9206,150.23,98.4261,95.3276,0.000338724,0.0422119,21.028,-312.135,0.283307,0.0,0.0
4046,1011.25,20.5981,20.7119,146.199,98.4377,95.3087,0.000328024,0.0423011,21.0289,-312.175,0.286103,0.0,0.0
4063,1015.5,20.3547,21.3682,153.385,98.4565,95.112,0.000554638,0.04223,21.0289,-312.155,0.306098,0.0,0.0
4080,1019.75,20.6855,21.2635,152.081,98.458,95.172,0.000756217,0.0421528,21.0269,-312.085,0.300654,0.0,0.0
4097,1024,20.4431,20.9575,151.77,98.4744,95.1651,0.000864633,0.0421943,21.0263,-312.095,0.302767,0.0,0.0
4114,1028.25,20.4976,21.2667,150.132,98.4932,95.3289,0.000813089,0.0423011,21.0266,-312.135,0.289227,0.0,0.0
4131,1032.5,20.2454,21.3529,152.683,98.4948,95.4871,0.000838792,0.042001,21.0275,-312.095,0.274687,0.0,0.0
4148,1036.75,20.3376,21.2812,152.248,98.502,95.5248,0.000518502,0.0419856,21.0276,-312.125,0.271834,0.0,0.0
4165,1041,20.3384,20.6191,152.156,98.5068,95.1291,0.000346878,0.0421144,21.028,-312.065,0.309028,0.0,0.0
4182,1045.25,20.3429,20.8604,153.024,98.512,95.5145,0.000640112,0.0422225,21.0273,-312.075,0.273687,0.0,0.0
4199,1049.5,20.1487,21.2321,151.816,98.5004,95.5411,0.000578465,0.0420952,21.0269,-312.075,0.270181,0.0,0.0
4216,1053.75,20.409,21.3163,150.024,98.5232,95.4811,0.000645813,0.0421323,21.0269,-312.065,0.277793,0.0,0.0
4233,1058,20.1772,21.074,145.551,98.522,94.9473,0.00051436,0.042049,21.0285,-312.075,0.327334,0.0,0.0
4250,1062.25,20.4533,21.1511,148.989,98.5204,95.4399,0.000377858,0.04229,21.0272,-312.065,0.28136,0.0,0.0
4267,1066.5,20.4526,21.0944,148.881,98.5188,95.4039,0.000575658,0.0422531,21.0285,-312.075,0.284559,0.0,0.0
4284,1070.75,20.6248,20.9844,155.323,98.5292,95.68,0.00073847,0.0421272,21.0302,-312.065,0.259901,0.0,0.0
4301,1075,20.0557,21.0194,150.551,98.5252,95.5274,0.000265713,0.0420996,21.0296,-312.105,0.273679,0.0,0.0
4318,1079.25,20.1794,21.0747,154.957,98.5168,95.5702,0.000347627,0.0421818,21.0284,-312.145,0.268952,0.0,0.0
4335,1083.5,20.192,20.7777,150.743,98.5212,95.3957,0.0011794,0.0420794,21.0276,-312.085,0.285531,0.0,0.0
4352,1087.75,19.9128,21.1296,149.873,98.53,95.4592,0.00100536,0.042009,21.0291,-312.095,0.280433,0.0,0.0
4369,1092,19.9831,21.0817,151.815,98.5204,95.0489,0.000655707,0.0420782,21.0295,-312.105,0.317718,0.0,0.0
4386,1096.25,20.3124,20.9755,151.853,98.5256,96.0345,0.000821257,0.0419361,21.03,-312.095,0.22682,0.0,0.0
4403,1100.5,20.4814,20.9366,151.185,98.534,95.6675,0.000982255,0.0420982,21.0282,-312.065,0.261483,0.0,0.0
4420,1104.75,20.3757,20.7657,150.093,98.5028,95.2449,0.000750618,0.0421166,21.0296,-312.105,0.297899,0.0,0.0
4437,1109,20.4127,20.8786,149.275,98.5116,95.4832,0.000656072,0.0420069,21.0297,-312.115,0.276554,0.0,0.0
4454,1113.25,20.5505,20.9754,146.311,98.5336,95.5672,0.000488172,0.0419144,21.0287,-312.115,0.270739,0.0,0.0
4471,1117.5,20.1918,20.8246,151.972,98.5044,95.3893,0.000508182,0.0421006,21.029,-312.095,0.284619,0.0,0.0
4488,1121.75,20.018,20.716,151.735,98.5104,95.6731,0.000703768,0.0421872,21.029,-312.135,0.258847,0.0,0.0
4505,1126,20.1942,21.2442,150.761,98.5264,95.4198,0.000770135,0.0421815,21.0285,-312.085,0.283769,0.0,0.0
4522,1130.25,20.303,21.0602,147.891,98.5044,95.1278,0.00102126,0.0420474,21.0292,-312.055,0.308934,0.0,0.0
4539,1134.5,20.531,21.3427,150.293,98.4836,95.217,0.000912029,0.0421149,21.0297,-312.085,0.298766,0.0,0.0
4556,1138.75,20.9355,21.3102,151.352,98.4836,95.0699,0.000854211,0.0421328,21.0285,-312.065,0.312454,0.0,0.0
4573,1143,20.5875,21.2519,151.019,98.47,95.3666,0.00103749,0.0421996,21.0282,-312.065,0.283639,0.0,0.0
4590,1147.25,20.186,21.0327,152.368,98.4381,95.3782,0.00100588,0.042304,21.0276,-312.065,0.279688,0.0,0.0
4607,1151.5,20.4378,21.3102,151.918,98.4325,95.6821,0.00085541,0.0422116,21.0298,-312.075,0.251005,0.0,0.0
4624,1155.75,20.7851,20.9807,154.179,98.4149,95.1655,0.00067624,0.0421033,21.0311,-312.075,0.297369,0.0,0.0
4641,1160,20.0766,20.5197,151.58,98.3769,95.4275,0.000587457,0.0421438,21.0301,-312.085,0.269608,0.0,0.0
4658,1164.25,20.3855,20.6815,147.357,98.3518,95.3272,0.00041682,0.0421996,21.0296,-312.065,0.276657,0.0,0.0
4675,1168.5,20.3546,21.5468,150.511,98.3274,95.1235,0.000335809,0.0422004,21.0295,-312.065,0.293401,0.0,0.0
4692,1172.75,20.717,21.4997,150.696,98.2866,95.4493,0.000533173,0.0424213,21.0295,-312.055,0.259444,0.0,0.0
4709,1177,20.5735,21.1151,150.877,98.2714,94.9641,0.000800343,0.0423223,21.0295,-312.055,0.303222,0.0,0.0
4726,1181.25,20.5983,21.0686,148.143,98.2539,94.9392,0.000521636,0.0422104,21.0297,-312.065,0.303955,0.0,0.0
4743,1185.5,20.1117,21.4117,152.276,98.2159,94.9653,0.000562856,0.0419802,21.0298,-312.065,0.298094,0.0,0.0
4760,1189.75,20.4049,21.203,155.352,98.1823,94.9551,0.000886194,0.0418399,21.0305,-312.065,0.296027,0.0,0.0
4777,1194,20.4083,20.9378,148.075,98.16,94.9555,0.000630914,0.0419733,21.0307,-312.055,0.293967,0.0,0.0
4794,1198.25,20.2805,20.719,151.667,98.1204,94.787,0.000273505,0.0421558,21.0303,-312.055,0.306125,0.0,0.0
4811,1202.5,20.44,21.0697,154.478,98.0808,94.9615,0.000292921,0.0422174,21.03,-312.075,0.286266,0.0,0.0
4828,1206.75,20.0662,21.4772,153.959,98.0592,94.8114,0.000566867,0.0421756,21.0274,-312.075,0.298322,0.0,0.0
4845,1211,20.396,21.464,152.163,98.0313,94.7999,0.000840677,0.0420506,21.0281,-312.075,0.296876,0.0,0.0
4862,1215.25,20.1469,20.8009,150.182,97.9829,94.9341,0.00069232,0.0420576,21.0271,-312.075,0.27998,0.0,0.0
4879,1219.5,20.636,21.2231,151.497,97.9482,94.5602,0.000430289,0.0419421,21.0269,-312.065,0.311781,0.0,0.0
4896,1223.75,20.1404,21.0507,149.587,97.915,94.6378,0.000710946,0.0421839,21.0269,-312.085,0.301517,0.0,0.0
4913,1228,20.0139,21.4006,152.839,97.8782,94.8595,0.000846581,0.0420206,21.0283,-312.045,0.277472,0.0,0.0
4930,1232.25,20.387,21.3414,151.444,97.8411,94.6618,0.000762521,0.0421472,21.0287,-312.055,0.29258,0.0,0.0
4947,1236.5,20.3709,21.4708,150.548,97.8127,94.6533,0.000608548,0.0421618,21.0288,-312.065,0.290814,0.0,0.0
4964,1240.75,20.1128,21.4495,147.636,97.7703,94.4629,0.000431047,0.0421152,21.0275,-312.045,0.304806,0.0,0.0
4981,1245,20.4123,21.2923,150.214,97.7432,94.4711,0.000737429,0.0422048,21.0273,-312.065,0.30158,0.0,0.0
4998,1249.25,20.4605,21.1068,150.965,97.7148,94.5075,0.000868365,0.0422526,21.0293,-312.065,0.295594,0.0,0.0
5015,1253.5,20.2698,20.9738,149.743,97.6772,94.8989,0.000899911,0.0422584,21.0301,-312.075,0.255584,0.0,0.0
5032,1257.75,20.1696,20.9328,150.72,97.6517,94.7261,0.000683437,0.0423549,21.03,-312.065,0.269403,0.0,0.0
5049,1262,20.4201,21.068,148.61,97.6425,94.4509,0.000443311,0.0423439,21.0297,-312.065,0.294341,0.0,0.0
5066,1266.25,20.2575,21.1239,151.957,97.6285,94.4226,0.000323069,0.0422449,21.03,-312.055,0.295724,0.0,0.0
5083,1270.5,20.4602,20.9639,150.918,97.5977,94.3622,0.000302753,0.0422042,21.0312,-312.065,0.298605,0.0,0.0
5100,1274.75,20.2619,20.8963,147.095,97.5853,94.0553,0.000445779,0.042248,21.0314,-312.075,0.326337,0.0,0.0
5117,1279,20.5402,21.238,149.81,97.5622,94.6207,0.000573053,0.0423372,21.0315,-312.045,0.271146,0.0,0.0
5134,1283.25,20.6828,21.1576,151.212,97.5462,94.1907,0.000490847,0.0422433,21.0299,-312.055,0.310035,0.0,0.0
5151,1287.5,20.7042,21.6794,152.695,97.5154,94.4835,0.000456321,0.0421811,21.031,-312.055,0.279752,0.0,0.0
5168,1291.75,20.5564,21.6272,152.139,97.4846,94.4612,0.000640625,0.0421869,21.0314,-312.065,0.279046,0.0,0.0
5185,1296,20.2442,20.9043,151.929,97.4607,94.5324,0.000728365,0.0421357,21.0306,-312.075,0.270198,0.0,0.0
5202,1300.25,20.2783,20.8473,150.051,97.4235,94.0608,0.000535873,0.04219,21.028,-312.105,0.311111,0.0,0.0
5219,1304.5,20.2785,21.0795,153.71,97.4107,94.2825,0.00057138,0.0421125,21.0292,-312.095,0.289105,0.0,0.0
5236,1308.75,20.3237,21.4813,151.829,97.3967,94.5662,0.000512772,0.0421513,21.0294,-312.055,0.261213,0.0,0.0
5253,1313,20.3588,21.7757,152.508,97.3672,94.0492,0.000371304,0.0421461,21.0295,-312.075,0.307079,0.0,0.0
5270,1317.25,20.3926,20.8963,151.175,97.358,94.3035,0.000444521,0.0422346,21.0276,-312.085,0.282334,0.0,0.0
5287,1321.5,20.6059,21.4372,154.062,97.3424,94.1328,0.000465181,0.042286,21.0286,-312.115,0.296955,0.0,0.0
5304,1325.75,20.5129,21.1577,153.23,97.3192,93.9481,0.000902557,0.0421814,21.0291,-312.105,0.312248,0.0,0.0
5321,1330,20.1698,21.2,153.195,97.3208,94.1547,0.000824019,0.0421045,21.0291,-312.065,0.292934,0.0,0.0
5338,1334.25,20.4113,20.4918,150.723,97.322,94.1839,0.000607971,0.0419826,21.0291,-312.055,0.290301,0.0,0.0
5355,1338.5,19.8734,21.2073,151.172,97.2928,94.0913,0.000709453,0.0422439,21.0291,-312.055,0.296358,0.0,0.0
5372,1342.75,19.969,21.001,150.447,97.2952,93.9357,0.000803161,0.0421759,21.0291,-312.095,0.311237,0.0,0.0
5389,1347,20.2028,21.3135,150.648,97.2904,94.204,0.000855422,0.0419904,21.0291,-312.105,0.285534,0.0,0.0
5406,1351.25,20.2396,21.1986,152.394,97.2964,94.2769,0.000656594,0.0420235,21.0289,-312.075,0.27923,0.0,0.0
5423,1355.5,20.4297,20.5086,153.037,97.2856,94.156,0.00068103,0.0421455,21.028,-312.035,0.289614,0.0,0.0
5440,1359.75,19.8623,21.1704,151.583,97.2908,94.255,0.000743134,0.041929,21.0289,-312.055,0.280775,0.0,0.0
5457,1364,20.3492,21.0062,151.307,97.312,94.4218,0.000710403,0.041929,21.0291,-312.055,0.267047,0.0,0.0
5474,1368.25,20.0665,21.2183,152.342,97.2972,94.1779,0.00058716,0.0418921,21.0287,-312.045,0.288611,0.0,0.0
5491,1372.5,20.5635,21.1324,152.706,97.3288,94.0947,0.000695382,0.0417594,21.0285,-312.055,0.29931,0.0,0.0
5508,1376.75,20.5526,21.3111,151.505,97.352,94.1787,0.000761625,0.041987,21.0285,-312.065,0.293513,0.0,0.0
5525,1381,20.58,20.7499,150.687,97.3492,94.3922,0.00070126,0.0419241,21.0285,-312.055,0.273204,0.0,0.0
5542,1385.25,20.3143,20.7832,150.369,97.3716,94.3982,0.000602658,0.041815,21.0285,-312.075,0.274676,0.0,0.0
5559,1389.5,20.1898,20.7983,152.804,97.3815,94.069,0.000662693,0.0417839,21.0286,-312.065,0.30653,0.0,0.0
5576,1393.75,20.5359,20.9214,153.15,97.3763,94.4218,0.000467156,0.0417226,21.0291,-312.115,0.2729,0.0,0.0
5593,1398,19.8835,20.7879,151.621,97.3879,94.5379,0.000506534,0.0418124,21.0291,-312.055,0.263064,0.0,0.0
5610,1402.25,20.0803,20.8529,148.627,97.3871,94.5208,0.000528532,0.0417939,21.0291,-312.095,0.264598,0.0,0.0
5627,1406.5,20.4502,20.9447,152.885,97.3935,94.1663,0.000613506,0.0419764,21.0273,-312.095,0.298463,0.0,0.0
5644,1410.75,20.2806,21.194,150.57,97.4035,94.3039,0.000763703,0.0419097,21.0269,-312.105,0.286437,0.0,0.0
5661,1415,20.2059,21.0632,158.986,97.3943,94.3348,0.000447583,0.0418941,21.0278,-312.055,0.282703,0.0,0.0
5678,1419.25,20.4952,21.3342,157.135,97.4079,94.4304,0.000396793,0.0419416,21.0287,-312.065,0.274967,0.0,0.0
5695,1423.5,20.2298,21.0598,151.786,97.3955,94.1963,0.000526749,0.042099,21.0286,-312.045,0.295821,0.0,0.0
5712,1427.75,20.6544,20.8805,150.674,97.4159,94.4775,0.000449788,0.0419657,21.0292,-312.125,0.271272,0.0,0.0
5729,1432,20.482,20.7778,151.553,97.4363,94.6168,0.000479019,0.0419741,21.0302,-312.055,0.260074,0.0,0.0
5746,1436.25,20.3249,21.0092,152.928,97.4359,94.3776,0.000722435,0.0418662,21.029,-312.075,0.282456,0.0,0.0
5763,1440.5,20.7819,21.0747,148.326,97.4539,94.204,0.000947454,0.0419033,21.0297,-312.055,0.3004,0.0,0.0
5780,1444.75,20.2829,20.9597,153.737,97.4738,94.3095,0.000937683,0.0419615,21.0298,-312.085,0.292307,0.0,0.0
5797,1449,20.1003,20.551,148.069,97.4782,94.1256,0.000700618,0.0420085,21.0298,-312.085,0.309994,0.0,0.0
5814,1453.25,20.192,21.2343,150.022,97.4834,94.2615,0.000672641,0.0419548,21.0287,-312.075,0.297688,0.0,0.0
5831,1457.5,20.958,21.1006,149.893,97.4886,94.5662,0.000452634,0.0418975,21.0277,-312.045,0.269567,0.0,0.0
5848,1461.75,19.934,21.0645,146.945,97.4954,94.562,0.000596862,0.041932,21.0291,-312.055,0.270585,0.0,0.0
5865,1466,20.0651,21.2835,149.552,97.485,94.6545,0.000734188,0.0418232,21.0295,-312.055,0.260974,0.0,0.0
5882,1470.25,20.8808,21.2434,152.268,97.5134,94.2962,0.000658352,0.0418933,21.0278,-312.055,0.297149,0.0,0.0
5899,1474.5,20.2925,20.9769,154.508,97.5198,94.3626,0.000643611,0.0419206,21.0275,-312.105,0.291491,0.0,0.0
5916,1478.75,20.3065,21.2291,156.075,97.5258,94.1684,0.000483904,0.0420965,21.0275,-312.075,0.31028,0.0,0.0
5933,1483,20.2205,21.2493,152.785,97.5394,94.4051,0.000553846,0.041911,21.0284,-312.065,0.289286,0.0,0.0
5950,1487.25,20.382,21.2029,150.022,97.5602,94.8055,0.000499323,0.0418929,21.029,-312.035,0.253687,0.0,0.0
5967,1491.5,20.0305,20.9943,149.403,97.5578,94.5157,0.000448957,0.0418908,21.0294,-312.035,0.280585,0.0,0.0
5984,1495.75,20.0722,20.9052,149.801,97.5777,94.1444,0.000294704,0.0419028,21.0292,-312.065,0.317256,0.0,0.0
6001,1500,20.0748,21.1733,151.141,97.6121,94.2092,0.000324934,0.0418455,21.0292,-312.045,0.314286,0.0,0.0
6018,1504.25,20.3445,21.4807,146.046,97.6373,94.5645,0.00012538,0.0419807,21.0292,-312.055,0.283222,0.0,0.0
6035,1508.5,20.3261,21.1637,152.83,97.6445,94.3275,0.000349911,0.0418326,21.0284,-312.055,0.306106,0.0,0.0
6052,1512.75,20.1738,20.6852,153.305,97.6824,94.5825,0.000456003,0.04199,21.0282,-312.025,0.285631,0.0,0.0
6069,1517,20.4388,21.2853,151.712,97.7032,94.7609,0.000499275,0.0420119,21.0282,-312.045,0.270832,0.0,0.0
6086,1521.25,20.2794,21.7615,150.834,97.7168,94.4595,0.000382203,0.041926,21.0282,-312.045,0.300276,0.0,0.0
6103,1525.5,20.0643,20.9885,150.139,97.746,94.8166,0.000394726,0.0420299,21.0287,-312.025,0.269499,0.0,0.0
6120,1529.75,20.0916,20.9732,149.795,97.7699,94.4492,0.000388364,0.0419064,21.0288,-312.025,0.306056,0.0,0.0
6137,1534,20.326,20.8921,147.385,97.7779,94.3613,0.000151534,0.0419002,21.0288,-312.055,0.315025,0.0,0.0
6154,1538.25,20.4235,21.0455,155.89,97.7991,94.6494,0.000134868,0.0419169,21.0281,-312.025,0.289945,0.0,0.0
6171,1542.5,20.2307,20.8892,155.329,97.8203,94.4642,0.000271256,0.0419801,21.028,-312.045,0.309209,0.0,0.0
6188,1546.75,20.6116,21.0941,148.61,97.8019,94.7064,0.000453472,0.0420388,21.0279,-312.035,0.284865,0.0,0.0
6205,1551,20.5238,21.29,150.709,97.8127,94.625,0.000823302,0.0419509,21.0281,-312.045,0.293462,0.0,0.0
6222,1555.25,20.3461,20.9698,151.455,97.8155,94.685,0.00109383,0.0420498,21.0287,-312.035,0.288099,0.0,0.0
6239,1559.5,20.5522,21.0377,153.681,97.8199,94.4505,0.00077516,0.0420991,21.0288,-312.035,0.310459,0.0,0.0
6256,1563.75,20.4584,21.0547,156.107,97.8023,94.8573,0.000765843,0.042081,21.0288,-312.045,0.270799,0.0,0.0
6273,1568,19.9388,21.1405,152.524,97.7987,94.9306,0.000532384,0.0421214,21.0288,-312.035,0.263631,0.0,0.0
6290,1572.25,20.6001,21.1326,148.897,97.8107,94.5109,0.000531608,0.0421309,21.0288,-312.025,0.303961,0.0,0.0
6307,1576.5,20.0405,21.027,148.195,97.7795,94.5272,0.00039048,0.0421511,21.0292,-312.045,0.299611,0.0,0.0
6324,1580.75,20.3594,21.1954,151.865,97.7875,94.7073,0.000381682,0.0420943,21.0294,-312.035,0.283481,0.0,0.0
6341,1585,21.1187,20.7273,148.805,97.7771,94.6366,0.000345654,0.0421695,21.0294,-312.045,0.289157,0.0,0.0
6358,1589.25,20.1099,21.1037,149.402,97.754,94.6678,0.000162389,0.0422864,21.0294,-312.055,0.28413,0.0,0.0
6375,1593.5,20.5487,21.013,151.612,97.7476,94.4141,0.000432518,0.0421477,21.0294,-312.065,0.307325,0.0,0.0
6392,1597.75,20.5232,21.4227,150.423,97.7404,94.4582,0.000679548,0.042117,21.0294,-312.035,0.302533,0.0,0.0
6409,1602,19.9496,21.3653,151.783,97.7304,94.7772,0.000927679,0.0420444,21.0294,-312.035,0.271772,0.0,0.0
6426,1606.25,19.9315,20.9877,147.342,97.7124,94.6438,0.000750539,0.0420317,21.0294,-312.035,0.282609,0.0,0.0
6443,1610.5,20.7556,21.6035,151.7,97.71,94.3009,0.00055378,0.0418576,21.0288,-312.055,0.314545,0.0,0.0
6460,1614.75,20.4172,21.1561,149.501,97.698,94.6781,0.000630808,0.04179,21.0286,-312.045,0.278097,0.0,0.0
6477,1619,20.4716,21.262,149.876,97.6904,94.6507,0.000733565,0.0418239,21.0297,-312.035,0.279976,0.0,0.0
6494,1623.25,20.4863,20.8687,151.12,97.6872,94.5624,0.000645181,0.0419436,21.0303,-312.035,0.287954,0.0,0.0
6511,1627.5,20.1265,20.9171,149.046,97.7004,94.4942,0.000625078,0.042079,21.0304,-312.055,0.295535,0.0,0.0
6528,1631.75,20.2412,21.5035,150.4,97.7012,94.4496,0.000498108,0.0420225,21.0291,-312.035,0.299788,0.0,0.0
6545,1636,20.2472,21.2212,149.987,97.7092,94.7956,0.000719205,0.0421236,21.0288,-312.035,0.26813,0.0,0.0
6562,1640.25,20.1387,20.6682,152.82,97.7304,94.6434,0.00080394,0.0420593,21.0284,-312.045,0.284279,0.0,0.0
6579,1644.5,19.9355,21.1477,150.725,97.7416,94.5392,0.000768567,0.0420811,21.0298,-312.045,0.295047,0.0,0.0
6596,1648.75,20.3498,21.0628,155.318,97.7731,94.1881,0.000640801,0.042162,21.0306,-312.035,0.330862,0.0,0.0
6613,1653,20.1473,21.1609,152.262,97.8003,94.748,0.000399717,0.0423157,21.0307,-312.035,0.280831,0.0,0.0
6630,1657.25,20.5981,21.3171,151.399,97.8399,94.6241,0.000592581,0.0422795,21.03,-312.055,0.296002,0.0,0.0
6647,1661.5,20.4302,21.2692,153.255,97.8567,94.4689,0.000716745,0.0421988,21.0283,-312.055,0.312059,0.0,0.0
6664,1665.75,20.0844,21.1237,150.144,97.9042,94.8243,0.000462003,0.0422519,21.0295,-312.035,0.283106,0.0,0.0
6681,1670,20.4922,20.9581,150.904,97.9434,94.799,0.000706557,0.0420894,21.0292,-312.055,0.28901,0.0,0.0
6698,1674.25,20.8508,20.8705,152.146,97.9622,94.7454,0.000593671,0.0419751,21.0305,-312.045,0.295716,0.0,0.0
6715,1678.5,20.6894,21.3857,152.518,98.0157,94.9409,0.000593214,0.0421494,21.0308,-312.045,0.282301,0.0,0.0
6732,1682.75,20.6895,21.3979,151.038,98.0712,94.6726,0.000652806,0.0419968,21.031,-312.065,0.31239,0.0,0.0
6749,1687,20.5271,21.0415,149.9,98.1048,94.9718,0.000571559,0.0420999,21.0321,-312.055,0.28747,0.0,0.0
6766,1691.25,20.4722,21.1201,151.857,98.1679,94.8505,0.000586171,0.0421224,21.0315,-312.105,0.30449,0.0,0.0
6783,1695.5,20.0071,21.2925,150.888,98.2383,95.0031,0.000452208,0.0420369,21.0316,-312.055,0.296594,0.0,0.0
6800,1699.75,20.2586,20.8428,149.577,98.2714,95.2016,0.000344554,0.0421106,21.0316,-312.025,0.281098,0.0,0.0
6817,1704,20.3287,20.6322,150.293,98.331,95.1595,0.000546478,0.0419509,21.0312,-312.035,0.290373,0.0,0.0
6834,1708.25,20.1781,21.1839,150.44,98.3761,95.253,0.000599098,0.0420403,21.0308,-312.005,0.285745,0.0,0.0
6851,1712.5,20.0767,21.0492,149.053,98.4133,94.9671,0.000570118,0.0420086,21.0308,-312.035,0.315717,0.0,0.0
6868,1716.75,20.5616,21.1776,150.996,98.4373,95.3276,0.000591296,0.0420115,21.0313,-312.035,0.284315,0.0,0.0
6885,1721,19.6848,21.0144,152.432,98.4588,95.3915,0.000784844,0.0419627,21.0314,-312.035,0.280324,0.0,0.0
6902,1725.25,20.2672,21.2261,149.924,98.4736,95.2166,0.000522731,0.0419314,21.0306,-312.075,0.297908,0.0,0.0
6919,1729.5,20.3363,21.5561,151.498,98.4888,95.3392,0.000318328,0.0419803,21.0294,-312.045,0.287876,0.0,0.0
6936,1733.75,20.2939,21.3256,150.742,98.4872,95.5681,0.000471707,0.0418465,21.0302,-312.065,0.266492,0.0,0.0
6953,1738,19.8851,21.0643,152.5,98.5028,95.3121,0.00048436,0.0420482,21.032,-312.055,0.291643,0.0,0.0
6970,1742.25,20.0934,21.0022,149.572,98.4964,95.3443,0.000430099,0.0418744,21.0309,-312.015,0.288081,0.0,0.0
6987,1746.5,19.8375,20.9971,150.015,98.506,95.2483,0.000499712,0.0418091,21.0305,-312.055,0.297869,0.0,0.0
7004,1750.75,20.3393,20.8855,151.773,98.5016,95.109,0.000491127,0.0417291,21.0304,-311.995,0.310437,0.0,0.0
7021,1755,19.835,20.9928,154.027,98.4848,95.0841,0.000637729,0.0419528,21.0304,-312.045,0.311244,0.0,0.0
7038,1759.25,20.1687,21.0609,155.205,98.4844,95.5183,0.000517349,0.0419401,21.0304,-312.045,0.270849,0.0,0.0
7055,1763.5,19.9164,21.2382,151.648,98.4796,95.4446,0.000478937,0.0420551,21.0324,-312.045,0.277258,0.0,0.0
7072,1767.75,20.354,21.1218,154.241,98.466,95.6521,0.00037405,0.0419795,21.0333,-312.025,0.256803,0.0,0.0
7089,1772,20.4691,20.7863,150.445,98.4688,95.5055,0.000506562,0.0419075,21.0336,-312.015,0.27064,0.0,0.0
7106,1776.25,19.7373,20.6843,151.555,98.454,95.2911,0.000532146,0.041871,21.0332,-312.015,0.289211,0.0,0.0
7123,1780.5,20.2906,20.9353,146.724,98.4381,95.0854,0.000523227,0.0418449,21.0328,-312.015,0.306919,0.0,0.0
7140,1784.75,20.4212,20.9629,152.589,98.4049,95.7143,0.000518649,0.041729,21.03,-312.015,0.245548,0.0,0.0
7157,1789,20.7669,21.002,151.557,98.3681,95.1531,0.000171528,0.0418906,21.0293,-312.025,0.294318,0.0,0.0
7174,1793.25,20.6946,21.0315,151.902,98.3358,95.3803,0.000345619,0.0418895,21.0293,-312.045,0.27028,0.0,0.0
7191,1797.5,20.7343,20.9755,149.435,98.2834,95.3404,0.000415591,0.041835,21.0292,-312.025,0.269266,0.0,0.0
7208,1801.75,20.2916,20.586,153.331,98.257,95.5514,0.00041566,0.0418928,21.0286,-312.015,0.247317,0.0,0.0
7225,1806,19.8893,20.5312,147.66,98.2311,95.0657,0.000410557,0.0419974,21.029,-312.005,0.290112,0.0,0.0
7242,1810.25,19.8582,20.5469,151.885,98.1895,95.0309,0.000651499,0.0419249,21.0302,-312.025,0.2896,0.0,0.0
7259,1814.5,20.053,20.3473,149.912,98.1807,94.8989,0.000600505,0.0418284,21.0304,-312.035,0.301122,0.0,0.0
7276,1818.75,19.5567,20.6782,153.49,98.347,95.5286,0.000225288,0.0420542,21.0307,-312.015,0.257525,0.0,0.0
7293,1823,19.7271,20.7602,149.982,98.4792,95.3572,0.000442546,0.0420167,21.03,-312.025,0.285341,0.0,0.0
7310,1827.25,19.7249,20.4655,152.512,98.6095,95.7331,0.000811148,0.0419164,21.0291,-312.035,0.262199,0.0,0.0
7327,1831.5,19.8182,20.9136,148.61,98.7122,95.5466,0.000701877,0.0419049,21.0298,-312.065,0.288687,0.0,0.0
7344,1835.75,19.8181,20.5645,153.511,98.7657,95.7387,0.000780152,0.0418179,21.0283,-312.045,0.275705,0.0,0.0
7361,1840,20.0896,20.6267,149.626,98.8081,95.7365,0.000747062,0.0418932,21.0274,-312.025,0.279701,0.0,0.0
7378,1844.25,20.1342,20.5136,153.934,98.8445,95.7263,0.000655855,0.041947,21.0267,-312.025,0.283912,0.0,0.0
7395,1848.5,19.956,20.3246,150.79,98.872,95.8527,0.000478901,0.0417995,21.0266,-312.015,0.274689,0.0,0.0
7412,1852.75,20.1422,20.212,154.425,98.874,95.7803,0.000442063,0.0419759,21.0281,-312.005,0.281565,0.0,0.0
7429,1857,20.0164,20.6217,153.945,98.9016,96.0439,0.000571646,0.0419662,21.03,-312.025,0.259688,0.0,0.0
7446,1861.25,19.7347,20.8985,152.169,98.9128,95.7108,0.000543388,0.0420968,21.0285,-312.025,0.291461,0.0,0.0
7463,1865.5,20.1612,20.668,152.013,98.91,95.8236,0.000644231,0.0419993,21.0293,-312.045,0.280783,0.0,0.0
7480,1869.75,19.7232,20.4789,150.011,98.9204,95.5535,0.000513513,0.0420913,21.0295,-312.045,0.306712,0.0,0.0
7497,1874,19.7791,20.2601,150.951,98.9264,95.5072,0.000383996,0.0419781,21.0281,-312.055,0.31154,0.0,0.0
7514,1878.25,19.9187,19.9794,151.883,98.9084,95.2942,0.000451972,0.0419839,21.0283,-312.045,0.329711,0.0,0.0
7531,1882.5,20.0223,20.4881,150.524,98.9016,95.5552,0.000609574,0.042094,21.0287,-312.025,0.30487,0.0,0.0
7548,1886.75,19.9955,20.7085,154.05,98.8816,95.7936,0.000445827,0.0420603,21.0287,-312.015,0.281016,0.0,0.0
7565,1891,19.7078,20.1722,152.358,98.8588,96.1121,0.00035763,0.0420269,21.0287,-312.015,0.249575,0.0,0.0
7582,1895.25,20.2145,20.7272,151.417,98.8237,95.7293,0.000280829,0.0421056,21.0298,-312.035,0.281772,0.0,0.0
7599,1899.5,19.5201,20.1894,149.555,98.8261,95.5989,0.000419876,0.041713,21.0309,-311.995,0.294053,0.0,0.0
7616,1903.75,19.911,20.492,148.088,98.7821,95.5767,0.000355238,0.0419978,21.0292,-312.025,0.292178,0.0,0.0
7633,1908,19.4873,20.7134,150.941,98.7514,95.5402,0.000496971,0.0420321,21.0299,-312.005,0.292796,0.0,0.0
7650,1912.25,19.8197,20.7967,153.851,98.7314,95.3246,,0.0420606,,-312.015,0.311016,0.0,0.0
7667,1916.5,20.0161,20.6153,150.24,98.7162,95.5591,,,,-312.035,0.287894,0.0,0.0
7684,1920.75,19.7163,20.51,152.505,98.6926,95.1797,,,,-312.025,0.321012,0.0,0.0
7688,1921.75,19.7366,20.424,151.866,98.6858,95.3666,,,,-312.025,0.303026,0.0,0.0