File: 01_Data/MDF/MCC/MDF_MCC_30K_min_210308_R2.txt
Sample ID:	C:\MCC\MCC Cal\Test\MDF_30_2.txt
Sample Weight (mg):	4.66
Heating Rate (C/s):	0.5
Combustor Temp (C):	900
N2 Flow Rate (cc/min):	80
O2 Flow Rate (cc/min):	20
Calibration File:	C:\MCC\MCC Cal\Coeff1 JN10440_30_210304.txt.txt
T Correction Coefficients:	0	1.024463	0
Time Shift (s):	14
*
Time (s)	Temperature (C)	N2 flow rate (cc/min)	O2 flow rate (cc/min)	Flow Rate (cc/min)	Oxygen (%)	HRR (W/g)	Heating rate (C/s)
0.000	106.899	79.990	19.991	99.643	20.324	0.038	0.004
1.500	106.868	79.991	19.991	99.641	20.321	0.219	-0.025
3.000	106.855	79.992	19.992	99.636	20.326	-0.082	-0.022
4.500	106.889	79.992	19.991	99.638	20.325	0.000	0.029
6.000	106.881	79.992	19.992	99.634	20.325	0.000	-0.007
7.500	106.879	79.991	19.992	99.632	20.326	-0.117	-0.002
9.000	106.876	79.991	19.992	99.633	20.324	0.022	0.005
10.500	106.870	79.989	19.992	99.638	20.321	0.219	-0.009
12.000	106.839	79.991	19.991	99.641	20.322	0.177	0.001
13.500	106.848	79.991	19.991	99.643	20.324	0.071	-0.004
15.000	106.849	79.990	19.991	99.649	20.324	0.040	-0.011
16.500	106.887	79.989	19.989	99.670	20.319	0.404	0.035
18.000	106.912	79.990	19.991	99.680	20.319	0.353	0.017
19.500	106.910	79.990	19.993	99.681	20.323	0.134	0.033
21.000	106.953	79.989	19.991	99.687	20.315	0.633	0.044
22.500	106.963	79.989	19.991	99.710	20.310	0.962	0.012
24.000	106.992	79.990	19.991	99.723	20.317	0.494	0.033
25.500	107.075	79.989	19.991	99.726	20.309	1.022	0.073
27.000	107.117	79.990	19.991	99.726	20.310	1.011	0.027
28.500	107.145	79.991	19.991	99.729	20.307	1.202	0.026
30.000	107.289	79.992	19.991	99.752	20.304	1.348	0.096
31.500	107.366	79.991	19.992	99.748	20.304	1.409	0.050
33.000	107.493	79.989	19.991	99.727	20.303	1.440	0.108
34.500	107.675	79.990	19.992	99.724	20.308	1.107	0.122
36.000	107.724	79.990	19.991	99.735	20.302	1.506	0.059
37.500	107.891	79.991	19.991	99.757	20.299	1.696	0.120
39.000	108.017	79.990	19.991	99.774	20.299	1.707	0.078
40.500	108.136	79.991	19.992	99.787	20.298	1.797	0.090
42.000	108.306	79.989	19.991	99.789	20.298	1.768	0.112
43.500	108.435	79.989	19.992	99.800	20.290	2.305	0.094
45.000	108.700	79.989	19.991	99.795	20.291	2.222	0.184
46.500	108.891	79.990	19.991	99.801	20.291	2.221	0.134
48.000	109.132	79.990	19.991	99.803	20.289	2.413	0.134
49.500	109.359	79.989	19.991	99.804	20.284	2.698	0.148
51.000	109.591	79.991	19.990	99.817	20.286	2.583	0.160
52.501	109.903	79.992	19.990	99.837	20.282	2.871	0.208
54.000	110.132	79.991	19.991	99.848	20.283	2.759	0.165
55.500	110.415	79.991	19.991	99.845	20.283	2.809	0.172
57.000	110.739	79.990	19.990	99.855	20.281	2.931	0.229
58.500	111.032	79.993	19.993	99.856	20.280	2.963	0.188
60.000	111.348	79.993	19.992	99.860	20.274	3.400	0.221
61.500	111.679	79.993	19.991	99.870	20.277	3.157	0.226
63.000	112.055	79.992	19.991	99.870	20.272	3.494	0.254
64.500	112.421	79.990	19.991	99.874	20.273	3.444	0.245
66.000	112.828	79.990	19.991	99.880	20.275	3.353	0.268
67.500	113.221	79.991	19.992	99.879	20.274	3.402	0.267
69.000	113.630	79.991	19.991	99.877	20.273	3.424	0.269
70.500	114.071	79.991	19.991	99.872	20.272	3.530	0.316
72.000	114.500	79.992	19.992	99.875	20.271	3.576	0.284
73.500	114.955	79.989	19.992	99.881	20.276	3.235	0.296
75.000	115.420	79.991	19.991	99.879	20.273	3.466	0.326
76.500	115.861	79.993	19.992	99.880	20.273	3.455	0.309
78.000	116.352	79.993	19.992	99.882	20.274	3.417	0.321
79.500	116.824	79.993	19.992	99.885	20.271	3.564	0.321
81.000	117.339	79.993	19.991	99.884	20.275	3.334	0.333
82.500	117.832	79.994	19.991	99.878	20.270	3.671	0.337
84.000	118.366	79.992	19.992	99.879	20.272	3.538	0.356
85.500	118.946	79.992	19.992	99.880	20.274	3.410	0.376
87.000	119.412	79.992	19.992	99.880	20.273	3.482	0.317
88.500	119.976	79.992	19.992	99.888	20.268	3.791	0.359
90.000	120.515	79.991	19.991	99.900	20.271	3.590	0.367
91.500	121.073	79.991	19.993	99.909	20.267	3.879	0.369
93.000	121.684	79.991	19.992	99.914	20.270	3.660	0.407
94.500	122.245	79.991	19.993	99.905	20.269	3.729	0.382
96.000	122.855	79.990	19.993	99.907	20.270	3.657	0.411
97.500	123.446	79.991	19.993	99.916	20.272	3.511	0.390
99.000	124.086	79.991	19.990	99.913	20.272	3.508	0.420
100.500	124.674	79.991	19.990	99.911	20.266	3.918	0.416
102.000	125.256	79.991	19.991	99.914	20.267	3.871	0.382
103.500	125.916	79.992	19.990	99.914	20.270	3.629	0.450
105.000	126.556	79.991	19.992	99.903	20.268	3.783	0.413
106.500	127.157	79.991	19.991	99.893	20.264	4.052	0.388
108.000	127.839	79.990	19.991	99.908	20.266	3.903	0.456
109.500	128.505	79.991	19.992	99.914	20.264	4.081	0.441
111.000	129.118	79.991	19.991	99.916	20.268	3.777	0.406
112.500	129.788	79.991	19.992	99.919	20.264	4.041	0.422
114.000	130.440	79.990	19.990	99.920	20.264	4.052	0.427
115.500	131.074	79.990	19.991	99.920	20.264	4.053	0.412
117.000	131.811	79.990	19.992	99.916	20.266	3.909	0.487
118.500	132.465	79.990	19.989	99.918	20.267	3.830	0.443
120.000	133.100	79.989	19.991	99.921	20.266	3.942	0.411
121.500	133.836	79.990	19.990	99.917	20.265	3.966	0.476
123.000	134.505	79.991	19.991	99.915	20.268	3.801	0.440
124.500	135.213	79.990	19.990	99.919	20.266	3.951	0.478
126.000	135.912	79.990	19.990	99.915	20.266	3.940	0.488
127.500	136.640	79.989	19.991	99.916	20.271	3.605	0.492
129.000	137.342	79.991	19.991	99.918	20.265	3.997	0.461
130.500	138.060	79.990	19.991	99.913	20.266	3.903	0.455
132.000	138.769	79.990	19.990	99.919	20.267	3.840	0.497
133.500	139.484	79.991	19.992	99.919	20.270	3.672	0.489
135.000	140.292	79.991	19.991	99.912	20.269	3.727	0.523
136.500	141.003	79.992	19.991	99.916	20.266	3.956	0.494
138.000	141.750	79.992	19.992	99.918	20.264	4.033	0.525
139.500	142.456	79.993	19.992	99.914	20.263	4.156	0.473
141.000	143.198	79.992	19.993	99.910	20.264	4.024	0.485
142.500	143.970	79.991	19.992	99.901	20.266	3.900	0.512
144.000	144.710	79.990	19.991	99.896	20.268	3.757	0.518
145.500	145.455	79.991	19.992	99.904	20.266	3.901	0.508
147.000	146.202	79.990	19.992	99.909	20.267	3.857	0.503
148.500	146.953	79.991	19.992	99.910	20.260	4.298	0.479
150.000	147.667	79.992	19.992	99.907	20.263	4.092	0.466
151.500	148.437	79.991	19.991	99.910	20.262	4.215	0.499
153.000	149.191	79.991	19.991	99.915	20.267	3.857	0.537
154.501	149.938	79.991	19.992	99.915	20.266	3.949	0.510
156.000	150.695	79.992	19.990	99.913	20.268	3.811	0.505
157.500	151.436	79.991	19.992	99.915	20.265	3.969	0.505
159.000	152.211	79.993	19.992	99.904	20.268	3.808	0.515
160.500	152.909	79.993	19.992	99.909	20.264	4.082	0.462
162.000	153.643	79.993	19.991	99.916	20.266	3.921	0.486
163.500	154.394	79.993	19.991	99.915	20.261	4.230	0.503
165.000	155.147	79.992	19.992	99.908	20.265	4.018	0.512
166.500	155.953	79.993	19.991	99.905	20.263	4.094	0.514
168.000	156.736	79.992	19.991	99.910	20.262	4.162	0.497
169.500	157.462	79.991	19.992	99.905	20.261	4.266	0.488
171.000	158.208	79.991	19.992	99.900	20.265	3.999	0.501
172.500	158.972	79.990	19.991	99.891	20.264	4.084	0.508
174.000	159.748	79.989	19.991	99.895	20.263	4.107	0.503
175.500	160.490	79.989	19.992	99.891	20.265	3.961	0.462
177.000	161.280	79.990	19.992	99.884	20.261	4.243	0.532
178.500	162.017	79.989	19.993	99.885	20.263	4.116	0.483
180.000	162.743	79.989	19.992	99.884	20.264	4.036	0.477
181.500	163.542	79.990	19.991	99.886	20.263	4.092	0.508
183.000	164.298	79.990	19.993	99.888	20.270	3.657	0.498
184.500	165.129	79.991	19.991	99.883	20.266	3.942	0.553
186.001	165.879	79.990	19.991	99.880	20.267	3.871	0.503
187.500	166.654	79.989	19.991	99.884	20.269	3.697	0.510
189.000	167.354	79.989	19.992	99.886	20.268	3.799	0.476
190.500	168.078	79.988	19.991	99.888	20.263	4.112	0.479
192.000	168.866	79.991	19.990	99.884	20.265	3.968	0.528
193.500	169.672	79.990	19.991	99.884	20.270	3.653	0.517
195.000	170.394	79.991	19.991	99.886	20.268	3.807	0.486
196.500	171.179	79.990	19.990	99.883	20.267	3.838	0.532
198.000	171.967	79.990	19.992	99.883	20.264	4.069	0.513
199.500	172.760	79.990	19.991	99.881	20.262	4.178	0.525
201.001	173.519	79.990	19.992	99.880	20.262	4.219	0.499
202.500	174.206	79.990	19.990	99.879	20.262	4.167	0.469
204.000	174.958	79.990	19.991	99.881	20.264	4.041	0.490
205.500	175.713	79.988	19.992	99.882	20.260	4.330	0.485
207.000	176.455	79.990	19.990	99.878	20.263	4.147	0.521
208.500	177.207	79.989	19.992	99.879	20.266	3.949	0.483
210.000	177.973	79.990	19.990	99.879	20.263	4.132	0.509
211.500	178.698	79.990	19.991	99.879	20.263	4.151	0.475
213.000	179.452	79.991	19.992	99.879	20.262	4.217	0.500
214.500	180.143	79.991	19.991	99.880	20.264	4.061	0.471
216.000	180.880	79.992	19.991	99.879	20.259	4.389	0.514
217.500	181.689	79.991	19.991	99.878	20.261	4.259	0.513
219.000	182.424	79.993	19.991	99.879	20.263	4.131	0.504
220.500	183.171	79.993	19.990	99.876	20.262	4.195	0.496
222.000	183.850	79.991	19.991	99.878	20.264	4.083	0.457
223.500	184.667	79.992	19.990	99.879	20.262	4.175	0.528
225.000	185.398	79.993	19.991	99.878	20.262	4.160	0.476
226.500	186.164	79.992	19.990	99.876	20.260	4.334	0.505
228.000	186.946	79.992	19.991	99.876	20.260	4.297	0.536
229.500	187.642	79.991	19.991	99.877	20.259	4.395	0.454
231.000	188.421	79.991	19.992	99.878	20.257	4.502	0.511
232.500	189.136	79.989	19.991	99.873	20.260	4.349	0.473
234.000	189.875	79.989	19.991	99.874	20.258	4.448	0.494
235.500	190.617	79.990	19.992	99.876	20.259	4.391	0.493
237.000	191.392	79.990	19.991	99.877	20.261	4.277	0.491
238.500	192.126	79.990	19.992	99.879	20.261	4.250	0.483
240.000	192.835	79.992	19.991	99.881	20.260	4.343	0.477
241.501	193.574	79.991	19.991	99.877	20.260	4.345	0.508
243.000	194.282	79.992	19.991	99.876	20.255	4.669	0.460
244.500	195.019	79.992	19.992	99.880	20.257	4.528	0.499
246.001	195.779	79.992	19.992	99.879	20.255	4.678	0.475
247.500	196.497	79.992	19.991	99.877	20.259	4.360	0.479
249.000	197.229	79.990	19.990	99.875	20.254	4.757	0.472
250.500	197.961	79.992	19.990	99.876	20.254	4.735	0.511
252.000	198.660	79.992	19.991	99.874	20.251	4.918	0.470
253.500	199.478	79.990	19.991	99.876	20.253	4.773	0.507
255.000	200.176	79.989	19.992	99.881	20.245	5.301	0.478
256.500	200.888	79.989	19.992	99.882	20.254	4.735	0.463
258.000	201.667	79.988	19.992	99.881	20.244	5.372	0.501
259.500	202.384	79.987	19.992	99.880	20.250	5.019	0.464
261.000	203.123	79.990	19.992	99.879	20.247	5.207	0.497
262.500	203.849	79.990	19.993	99.880	20.251	4.938	0.463
264.000	204.538	79.992	19.993	99.879	20.249	5.026	0.443
265.500	205.329	79.989	19.992	99.877	20.248	5.149	0.499
267.000	206.018	79.989	19.993	99.876	20.248	5.116	0.456
268.500	206.757	79.990	19.992	99.875	20.244	5.418	0.505
270.000	207.526	79.989	19.992	99.877	20.242	5.555	0.508
271.500	208.300	79.991	19.992	99.870	20.245	5.339	0.484
273.000	209.018	79.991	19.991	99.868	20.238	5.777	0.486
274.500	209.706	79.991	19.990	99.876	20.245	5.332	0.458
276.000	210.531	79.991	19.992	99.876	20.245	5.339	0.539
277.500	211.266	79.990	19.991	99.875	20.244	5.423	0.490
279.000	211.994	79.991	19.990	99.872	20.241	5.562	0.488
280.500	212.737	79.992	19.991	99.876	20.239	5.720	0.475
282.000	213.449	79.991	19.990	99.878	20.238	5.788	0.495
283.500	214.217	79.990	19.992	99.877	20.238	5.804	0.499
285.000	214.928	79.989	19.991	99.873	20.236	5.912	0.477
286.500	215.667	79.990	19.990	99.874	20.238	5.793	0.512
288.000	216.432	79.990	19.991	99.874	20.238	5.779	0.491
289.500	217.164	79.991	19.992	99.875	20.236	5.901	0.500
291.000	217.924	79.991	19.992	99.876	20.239	5.753	0.518
292.500	218.614	79.991	19.991	99.877	20.231	6.242	0.471
294.000	219.354	79.990	19.991	99.875	20.238	5.803	0.477
295.500	220.076	79.990	19.991	99.875	20.233	6.118	0.457
297.000	220.847	79.991	19.991	99.878	20.235	6.015	0.510
298.500	221.631	79.991	19.991	99.879	20.230	6.299	0.507
300.000	222.383	79.993	19.991	99.880	20.235	6.009	0.478
301.500	223.118	79.991	19.990	99.880	20.230	6.315	0.501
303.000	223.836	79.991	19.990	99.881	20.230	6.308	0.479
304.500	224.587	79.993	19.990	99.880	20.232	6.209	0.488
306.000	225.321	79.990	19.990	99.880	20.227	6.535	0.516
307.500	226.100	79.990	19.990	99.881	20.226	6.629	0.504
309.000	226.847	79.992	19.991	99.880	20.229	6.396	0.495
310.500	227.591	79.992	19.991	99.880	20.226	6.568	0.495
312.000	228.357	79.991	19.991	99.881	20.226	6.581	0.516
313.500	229.105	79.991	19.991	99.884	20.220	6.984	0.511
315.000	229.882	79.990	19.990	99.885	20.221	6.914	0.500
316.500	230.643	79.990	19.991	99.881	20.222	6.853	0.522
318.001	231.381	79.990	19.990	99.885	20.220	6.967	0.467
319.500	232.110	79.991	19.990	99.884	20.215	7.326	0.490
321.000	232.864	79.990	19.992	99.880	20.216	7.262	0.520
322.500	233.623	79.992	19.991	99.881	20.212	7.533	0.503
324.000	234.339	79.992	19.991	99.881	20.212	7.520	0.475
325.501	235.099	79.992	19.991	99.882	20.206	7.903	0.513
327.000	235.873	79.993	19.991	99.881	20.202	8.190	0.510
328.500	236.615	79.993	19.992	99.879	20.207	7.872	0.498
330.000	237.389	79.993	19.991	99.878	20.203	8.146	0.527
331.500	238.116	79.992	19.991	99.877	20.201	8.301	0.490
333.000	238.846	79.990	19.991	99.881	20.202	8.207	0.490
334.501	239.640	79.989	19.992	99.884	20.194	8.732	0.551
336.000	240.374	79.990	19.992	99.884	20.193	8.798	0.469
337.500	241.092	79.990	19.991	99.881	20.190	9.037	0.490
339.000	241.893	79.991	19.992	99.884	20.190	8.985	0.531
340.500	242.632	79.990	19.992	99.894	20.187	9.190	0.491
342.000	243.386	79.989	19.992	99.901	20.186	9.296	0.479
343.500	244.149	79.990	19.992	99.886	20.182	9.552	0.508
345.000	244.971	79.989	19.992	99.890	20.183	9.494	0.544
346.500	245.693	79.990	19.992	99.903	20.183	9.460	0.483
348.001	246.454	79.990	19.992	99.897	20.174	10.086	0.489
349.500	247.183	79.989	19.991	99.883	20.176	9.947	0.489
351.000	247.926	79.991	19.992	99.881	20.173	10.152	0.505
352.500	248.676	79.990	19.992	99.894	20.172	10.214	0.496
354.000	249.484	79.989	19.992	99.899	20.166	10.596	0.580
355.500	250.281	79.989	19.992	99.896	20.167	10.537	0.525
357.000	251.076	79.990	19.992	99.892	20.163	10.789	0.542
358.500	251.811	79.990	19.992	99.896	20.159	11.099	0.505
360.000	252.596	79.989	19.991	99.909	20.156	11.251	0.529
361.500	253.329	79.990	19.991	99.910	20.155	11.357	0.498
363.000	254.108	79.991	19.991	99.914	20.154	11.403	0.521
364.500	254.902	79.990	19.991	99.914	20.147	11.857	0.501
366.000	255.611	79.990	19.992	99.909	20.148	11.793	0.484
367.500	256.358	79.990	19.990	99.913	20.145	12.022	0.508
369.000	257.144	79.990	19.990	99.919	20.137	12.557	0.510
370.501	257.888	79.989	19.991	99.920	20.137	12.528	0.495
372.000	258.676	79.989	19.992	99.921	20.133	12.830	0.515
373.500	259.428	79.989	19.991	99.921	20.131	12.938	0.499
375.001	260.158	79.990	19.991	99.920	20.125	13.368	0.459
376.500	260.918	79.991	19.991	99.920	20.123	13.498	0.513
378.000	261.686	79.990	19.991	99.921	20.120	13.662	0.496
379.500	262.443	79.991	19.991	99.922	20.115	14.053	0.503
381.000	263.229	79.992	19.991	99.923	20.109	14.420	0.518
382.500	263.969	79.993	19.991	99.921	20.107	14.575	0.500
384.000	264.684	79.991	19.991	99.920	20.103	14.795	0.483
385.500	265.460	79.992	19.991	99.920	20.097	15.227	0.528
387.000	266.231	79.991	19.991	99.930	20.095	15.391	0.523
388.500	266.994	79.991	19.990	99.933	20.090	15.730	0.526
390.000	267.764	79.991	19.991	99.921	20.084	16.113	0.511
391.500	268.529	79.991	19.990	99.920	20.079	16.431	0.523
393.000	269.230	79.991	19.991	99.929	20.077	16.575	0.482
394.500	270.007	79.993	19.991	99.926	20.072	16.920	0.507
396.000	270.838	79.992	19.991	99.918	20.068	17.176	0.548
397.501	271.536	79.993	19.990	99.923	20.057	17.886	0.463
399.000	272.312	79.992	19.992	99.926	20.057	17.929	0.507
400.500	273.041	79.992	19.990	99.922	20.055	18.073	0.499
402.000	273.781	79.993	19.990	99.929	20.046	18.668	0.505
403.500	274.529	79.994	19.992	99.930	20.043	18.836	0.498
405.000	275.303	79.993	19.991	99.936	20.040	19.077	0.505
406.500	276.014	79.994	19.991	99.946	20.036	19.288	0.456
408.000	276.749	79.994	19.991	99.940	20.030	19.689	0.492
409.500	277.497	79.995	19.991	99.932	20.024	20.150	0.515
411.000	278.276	79.994	19.991	99.942	20.021	20.299	0.531
412.500	279.010	79.993	19.992	99.945	20.015	20.698	0.501
414.001	279.793	79.992	19.992	99.945	20.007	21.232	0.511
415.500	280.465	79.992	19.992	99.954	20.005	21.372	0.448
417.000	281.242	79.992	19.991	99.954	20.003	21.545	0.489
418.500	281.998	79.991	19.991	99.955	19.998	21.864	0.504
420.000	282.734	79.991	19.992	99.958	19.995	22.055	0.480
421.500	283.488	79.990	19.992	99.960	19.992	22.273	0.486
423.000	284.230	79.991	19.991	99.959	19.987	22.626	0.502
424.500	284.963	79.990	19.992	99.961	19.981	22.996	0.499
426.000	285.733	79.989	19.991	99.961	19.977	23.275	0.512
427.500	286.442	79.990	19.990	99.960	19.976	23.353	0.477
429.000	287.167	79.990	19.991	99.962	19.970	23.704	0.506
430.500	287.968	79.989	19.991	99.968	19.965	24.051	0.520
432.000	288.618	79.991	19.992	99.973	19.961	24.368	0.421
433.500	289.395	79.989	19.992	99.963	19.956	24.700	0.516
435.000	290.170	79.990	19.992	99.963	19.953	24.861	0.531
436.500	290.889	79.989	19.992	99.970	19.950	25.108	0.486
438.000	291.653	79.990	19.992	99.968	19.947	25.275	0.492
439.500	292.409	79.990	19.992	99.965	19.941	25.661	0.508
441.000	293.126	79.991	19.991	99.965	19.937	25.931	0.497
442.500	293.886	79.989	19.992	99.966	19.935	26.085	0.509
444.000	294.638	79.990	19.991	99.965	19.928	26.526	0.498
445.500	295.377	79.990	19.991	99.968	19.925	26.782	0.501
447.000	296.095	79.990	19.991	99.973	19.922	26.987	0.498
448.500	296.862	79.990	19.991	99.973	19.919	27.183	0.514
450.000	297.614	79.990	19.991	99.971	19.914	27.462	0.499
451.500	298.383	79.990	19.991	99.986	19.910	27.785	0.517
453.000	299.085	79.990	19.991	99.981	19.907	27.985	0.452
454.500	299.902	79.992	19.991	99.985	19.901	28.340	0.544
456.000	300.611	79.991	19.991	99.989	19.896	28.667	0.493
457.500	301.333	79.992	19.992	99.986	19.895	28.773	0.512
459.000	302.122	79.992	19.991	99.992	19.889	29.163	0.531
460.500	302.886	79.991	19.991	99.995	19.882	29.666	0.489
462.000	303.615	79.993	19.991	99.993	19.876	30.061	0.512
463.500	304.342	79.993	19.991	99.995	19.874	30.157	0.486
465.000	305.150	79.993	19.991	99.994	19.869	30.524	0.537
466.500	305.886	79.992	19.991	99.991	19.862	30.967	0.506
468.000	306.616	79.990	19.991	99.989	19.859	31.148	0.496
469.500	307.402	79.991	19.992	99.991	19.853	31.561	0.511
471.000	308.145	79.992	19.991	99.995	19.852	31.641	0.496
472.500	308.887	79.991	19.991	100.000	19.841	32.381	0.492
474.000	309.641	79.991	19.992	99.998	19.837	32.669	0.507
475.500	310.409	79.992	19.990	99.996	19.836	32.731	0.511
477.000	311.157	79.992	19.990	99.999	19.827	33.329	0.515
478.500	311.906	79.992	19.991	100.000	19.822	33.631	0.511
480.000	312.732	79.992	19.990	100.004	19.817	33.965	0.562
481.500	313.497	79.993	19.990	100.004	19.808	34.567	0.507
483.000	314.234	79.991	19.990	100.004	19.809	34.564	0.499
484.500	314.992	79.992	19.990	100.005	19.801	35.042	0.521
486.000	315.743	79.994	19.990	100.017	19.797	35.309	0.517
487.500	316.467	79.994	19.990	100.024	19.791	35.710	0.476
489.000	317.263	79.992	19.991	100.009	19.786	36.067	0.540
490.500	318.021	79.993	19.991	100.017	19.782	36.320	0.493
492.000	318.806	79.992	19.991	100.026	19.778	36.600	0.525
493.500	319.557	79.991	19.990	100.025	19.768	37.269	0.486
495.000	320.284	79.992	19.991	100.033	19.761	37.781	0.462
496.500	321.096	79.990	19.991	100.034	19.753	38.313	0.533
498.000	321.859	79.990	19.992	100.033	19.748	38.633	0.508
499.500	322.577	79.989	19.991	100.036	19.743	38.973	0.495
501.000	323.377	79.991	19.991	100.034	19.733	39.625	0.543
502.500	324.118	79.991	19.991	100.030	19.723	40.310	0.514
504.000	324.914	79.990	19.990	100.032	19.718	40.648	0.539
505.500	325.690	79.988	19.991	100.036	19.710	41.168	0.526
507.000	326.448	79.990	19.991	100.040	19.700	41.832	0.498
508.500	327.172	79.990	19.991	100.038	19.695	42.142	0.485
510.000	327.938	79.989	19.991	100.040	19.688	42.649	0.510
511.500	328.680	79.991	19.991	100.043	19.683	43.016	0.516
513.000	329.436	79.990	19.991	100.046	19.678	43.312	0.483
514.500	330.254	79.991	19.991	100.053	19.668	43.983	0.525
516.000	330.958	79.990	19.991	100.058	19.658	44.690	0.460
517.500	331.730	79.990	19.992	100.053	19.652	45.078	0.496
519.000	332.483	79.991	19.993	100.046	19.646	45.477	0.512
520.500	333.235	79.990	19.992	100.050	19.634	46.282	0.504
522.000	334.040	79.991	19.992	100.066	19.619	47.261	0.515
523.500	334.770	79.990	19.992	100.071	19.610	47.867	0.499
525.000	335.559	79.990	19.992	100.072	19.605	48.231	0.544
526.500	336.323	79.991	19.992	100.074	19.591	49.182	0.501
528.000	337.091	79.988	19.992	100.073	19.579	49.958	0.511
529.500	337.872	79.990	19.992	100.077	19.574	50.288	0.501
531.000	338.656	79.991	19.992	100.082	19.567	50.802	0.529
532.500	339.381	79.990	19.992	100.085	19.556	51.541	0.488
534.000	340.126	79.991	19.991	100.096	19.541	52.505	0.508
535.500	340.890	79.991	19.991	100.111	19.531	53.200	0.526
537.000	341.621	79.992	19.992	100.111	19.522	53.835	0.482
538.500	342.378	79.992	19.990	100.112	19.511	54.558	0.499
540.000	343.125	79.991	19.990	100.113	19.495	55.645	0.519
541.500	343.901	79.992	19.990	100.115	19.483	56.434	0.516
543.000	344.638	79.992	19.990	100.113	19.476	56.903	0.496
544.500	345.391	79.993	19.991	100.122	19.463	57.780	0.518
546.000	346.168	79.993	19.991	100.135	19.451	58.576	0.511
547.500	346.909	79.993	19.990	100.147	19.436	59.565	0.498
549.000	347.630	79.992	19.991	100.149	19.422	60.556	0.455
550.500	348.421	79.992	19.990	100.150	19.411	61.308	0.533
552.000	349.154	79.993	19.991	100.152	19.395	62.318	0.497
553.500	349.899	79.993	19.991	100.157	19.384	63.065	0.481
555.000	350.651	79.993	19.991	100.157	19.371	63.977	0.489
556.500	351.494	79.991	19.990	100.170	19.353	65.180	0.544
558.000	352.218	79.994	19.990	100.172	19.344	65.758	0.483
559.500	353.058	79.990	19.991	100.177	19.330	66.708	0.571
561.000	353.825	79.992	19.991	100.175	19.318	67.523	0.501
562.500	354.553	79.992	19.990	100.172	19.305	68.392	0.516
564.000	355.320	79.994	19.990	100.174	19.293	69.173	0.511
565.500	356.084	79.994	19.992	100.190	19.279	70.126	0.515
567.000	356.835	79.995	19.991	100.191	19.269	70.818	0.511
568.500	357.658	79.992	19.990	100.189	19.260	71.404	0.538
570.000	358.378	79.992	19.990	100.191	19.253	71.879	0.489
571.500	359.143	79.993	19.990	100.193	19.242	72.611	0.516
573.000	359.898	79.992	19.991	100.193	19.240	72.739	0.504
574.500	360.689	79.991	19.990	100.193	19.228	73.525	0.536
576.000	361.469	79.991	19.991	100.191	19.220	74.069	0.517
577.500	362.233	79.991	19.991	100.193	19.219	74.134	0.498
579.000	362.978	79.990	19.991	100.188	19.214	74.434	0.489
580.500	363.789	79.991	19.991	100.175	19.213	74.517	0.527
582.000	364.503	79.989	19.992	100.159	19.213	74.524	0.496
583.500	365.289	79.990	19.990	100.152	19.211	74.600	0.527
585.000	366.038	79.992	19.992	100.152	19.216	74.281	0.516
586.500	366.819	79.989	19.992	100.150	19.219	74.034	0.513
588.000	367.560	79.989	19.991	100.128	19.236	72.911	0.508
589.500	368.331	79.990	19.991	100.121	19.245	72.302	0.499
591.000	369.077	79.992	19.991	100.116	19.260	71.299	0.498
592.500	369.810	79.989	19.991	100.098	19.270	70.571	0.491
594.000	370.590	79.991	19.991	100.083	19.293	69.010	0.522
595.500	371.356	79.991	19.991	100.072	19.315	67.576	0.502
597.001	372.133	79.991	19.991	100.051	19.340	65.841	0.497
598.500	372.906	79.990	19.992	100.041	19.369	63.905	0.536
600.000	373.663	79.990	19.992	100.023	19.399	61.878	0.518
601.500	374.435	79.991	19.991	100.000	19.429	59.868	0.539
603.000	375.212	79.990	19.992	99.977	19.466	57.431	0.509
604.500	376.005	79.990	19.992	99.955	19.505	54.780	0.513
606.000	376.722	79.989	19.993	99.944	19.541	52.383	0.465
607.500	377.530	79.991	19.992	99.924	19.578	49.908	0.529
609.000	378.293	79.991	19.992	99.905	19.618	47.218	0.523
610.501	379.085	79.990	19.992	99.887	19.656	44.689	0.509
612.000	379.829	79.990	19.993	99.878	19.701	41.709	0.482
613.501	380.596	79.990	19.992	99.869	19.741	39.040	0.514
615.000	381.341	79.990	19.992	99.869	19.780	36.379	0.526
616.500	382.125	79.989	19.992	99.856	19.819	33.816	0.535
618.000	382.915	79.991	19.992	99.853	19.857	31.240	0.527
619.500	383.666	79.991	19.991	99.851	19.890	29.063	0.496
621.000	384.442	79.990	19.991	99.855	19.923	26.834	0.511
622.500	385.160	79.992	19.990	99.857	19.953	24.828	0.493
624.000	385.946	79.991	19.990	99.843	19.980	23.057	0.520
625.500	386.658	79.994	19.991	99.845	20.004	21.430	0.447
627.000	387.436	79.993	19.990	99.850	20.027	19.917	0.514
628.500	388.212	79.991	19.990	99.860	20.047	18.560	0.496
630.000	388.969	79.990	19.991	99.860	20.067	17.201	0.489
631.500	389.778	79.991	19.991	99.859	20.079	16.418	0.515
633.000	390.526	79.992	19.991	99.862	20.093	15.503	0.494
634.500	391.276	79.991	19.991	99.867	20.105	14.677	0.492
636.000	392.065	79.991	19.992	99.874	20.115	14.048	0.546
637.500	392.835	79.991	19.990	99.872	20.121	13.642	0.505
639.000	393.636	79.992	19.991	99.856	20.128	13.124	0.540
640.500	394.430	79.990	19.991	99.857	20.134	12.715	0.538
642.000	395.207	79.991	19.991	99.860	20.138	12.477	0.527
643.500	395.993	79.992	19.991	99.858	20.144	12.109	0.519
645.000	396.707	79.993	19.990	99.853	20.147	11.871	0.476
646.501	397.533	79.993	19.990	99.860	20.154	11.440	0.543
648.000	398.270	79.993	19.990	99.847	20.152	11.543	0.483
649.500	398.990	79.994	19.990	99.843	20.157	11.194	0.479
651.000	399.743	79.995	19.990	99.849	20.159	11.090	0.508
652.500	400.528	79.994	19.991	99.863	20.163	10.799	0.525
654.000	401.315	79.993	19.990	99.873	20.165	10.704	0.515
655.500	402.071	79.993	19.991	99.859	20.166	10.631	0.504
657.000	402.838	79.992	19.991	99.848	20.167	10.551	0.530
658.500	403.576	79.992	19.991	99.848	20.166	10.598	0.501
660.000	404.380	79.991	19.991	99.851	20.168	10.463	0.538
661.500	405.155	79.991	19.990	99.855	20.167	10.562	0.481
663.000	405.926	79.991	19.992	99.864	20.167	10.539	0.523
664.500	406.679	79.992	19.991	99.851	20.170	10.330	0.506
666.000	407.517	79.991	19.992	99.840	20.169	10.381	0.534
667.500	408.270	79.991	19.992	99.847	20.169	10.434	0.538
669.001	408.978	79.991	19.991	99.847	20.173	10.146	0.496
670.500	409.785	79.989	19.992	99.852	20.171	10.258	0.509
672.000	410.510	79.990	19.991	99.858	20.174	10.065	0.482
673.500	411.311	79.991	19.991	99.845	20.176	9.916	0.528
675.000	411.995	79.991	19.992	99.849	20.180	9.665	0.475
676.500	412.788	79.992	19.991	99.858	20.178	9.835	0.503
678.000	413.551	79.993	19.991	99.851	20.177	9.851	0.495
679.500	414.323	79.991	19.992	99.848	20.179	9.718	0.532
681.000	415.046	79.992	19.991	99.844	20.178	9.816	0.479
682.500	415.823	79.991	19.991	99.855	20.177	9.857	0.521
684.001	416.547	79.992	19.991	99.851	20.179	9.748	0.503
685.501	417.335	79.991	19.992	99.849	20.178	9.799	0.533
687.000	418.067	79.991	19.992	99.849	20.181	9.628	0.471
688.500	418.852	79.990	19.992	99.844	20.179	9.741	0.505
690.000	419.615	79.990	19.991	99.846	20.183	9.467	0.479
691.500	420.546	79.990	19.991	99.844	20.184	9.399	0.594
693.000	421.184	79.989	19.992	99.843	20.183	9.483	0.520
694.500	421.955	79.989	19.993	99.852	20.185	9.352	0.535
696.000	422.710	79.990	19.992	99.855	20.182	9.532	0.534
697.500	423.456	79.989	19.992	99.842	20.187	9.227	0.490
699.000	424.221	79.989	19.992	99.845	20.188	9.153	0.523
700.500	425.051	79.992	19.992	99.844	20.184	9.377	0.550
702.000	425.798	79.990	19.992	99.841	20.187	9.174	0.521
703.500	426.585	79.991	19.991	99.842	20.187	9.201	0.510
705.000	427.320	79.993	19.991	99.848	20.189	9.093	0.516
706.500	428.117	79.993	19.990	99.844	20.191	8.966	0.519
708.000	428.884	79.993	19.990	99.841	20.192	8.888	0.517
709.500	429.611	79.991	19.990	99.840	20.192	8.879	0.491
711.000	430.334	79.993	19.990	99.839	20.192	8.847	0.460
712.500	431.099	79.992	19.990	99.839	20.190	9.003	0.536
714.000	431.917	79.992	19.991	99.842	20.192	8.882	0.515
715.500	432.650	79.992	19.992	99.839	20.193	8.786	0.479
717.000	433.431	79.992	19.991	99.837	20.197	8.548	0.514
718.500	434.265	79.992	19.990	99.838	20.194	8.745	0.566
720.000	435.005	79.992	19.990	99.838	20.196	8.620	0.499
721.500	435.779	79.993	19.989	99.839	20.196	8.613	0.525
723.000	436.522	79.991	19.991	99.838	20.199	8.403	0.493
724.500	437.307	79.994	19.991	99.838	20.197	8.509	0.512
726.000	438.006	79.994	19.991	99.840	20.199	8.430	0.493
727.500	438.837	79.995	19.991	99.843	20.197	8.524	0.568
729.000	439.587	79.995	19.992	99.838	20.196	8.626	0.482
730.500	440.354	79.994	19.990	99.836	20.196	8.600	0.510
732.000	441.103	79.995	19.991	99.836	20.198	8.441	0.492
733.500	441.872	79.993	19.991	99.837	20.203	8.143	0.485
735.000	442.664	79.993	19.990	99.837	20.199	8.410	0.539
736.500	443.410	79.993	19.990	99.838	20.202	8.180	0.497
738.000	444.160	79.992	19.990	99.842	20.205	7.993	0.499
739.500	444.920	79.991	19.990	99.841	20.205	8.031	0.489
741.000	445.705	79.992	19.989	99.840	20.207	7.845	0.511
742.500	446.439	79.992	19.990	99.840	20.211	7.625	0.498
744.000	447.212	79.993	19.990	99.843	20.209	7.750	0.518
745.500	447.968	79.993	19.990	99.841	20.211	7.590	0.509
747.000	448.763	79.991	19.992	99.841	20.212	7.515	0.529
748.500	449.501	79.991	19.991	99.842	20.213	7.458	0.491
750.000	450.265	79.993	19.991	99.841	20.210	7.697	0.524
751.500	451.060	79.991	19.991	99.841	20.207	7.860	0.555
753.000	451.830	79.991	19.991	99.841	20.215	7.356	0.509
754.500	452.565	79.992	19.991	99.843	20.213	7.448	0.509
756.000	453.337	79.991	19.992	99.843	20.214	7.426	0.502
757.500	454.094	79.992	19.991	99.841	20.213	7.437	0.483
759.000	454.855	79.990	19.991	99.840	20.219	7.071	0.470
760.500	455.682	79.992	19.991	99.841	20.217	7.186	0.556
762.000	456.494	79.990	19.991	99.844	20.217	7.212	0.497
763.500	457.156	79.990	19.991	99.843	20.216	7.235	0.478
765.000	457.976	79.991	19.991	99.842	20.218	7.120	0.517
766.500	458.673	79.991	19.991	99.844	20.216	7.292	0.531
768.001	459.515	79.991	19.992	99.842	20.219	7.047	0.503
769.500	460.305	79.990	19.991	99.843	20.222	6.845	0.510
771.000	461.038	79.990	19.991	99.845	20.219	7.050	0.510
772.500	461.805	79.991	19.992	99.844	20.219	7.043	0.509
774.000	462.529	79.991	19.991	99.840	20.222	6.856	0.515
775.500	463.340	79.992	19.992	99.841	20.224	6.728	0.502
777.000	464.142	79.991	19.992	99.839	20.222	6.865	0.483
778.500	464.873	79.990	19.992	99.839	20.225	6.693	0.471
780.000	465.606	79.992	19.991	99.838	20.225	6.631	0.482
781.500	466.399	79.991	19.993	99.837	20.225	6.671	0.516
783.000	467.207	79.992	19.992	99.837	20.229	6.362	0.534
784.500	467.957	79.993	19.992	99.837	20.228	6.437	0.457
786.000	468.616	79.994	19.992	99.836	20.219	7.034	0.433
787.500	469.493	79.994	19.992	99.834	20.227	6.499	0.564
789.000	470.301	79.995	19.993	99.836	20.222	6.854	0.541
790.500	471.066	79.993	19.992	99.836	20.221	6.955	0.441
792.000	471.876	79.993	19.991	99.834	20.221	6.932	0.637
793.500	472.706	79.993	19.991	99.835	20.222	6.863	0.543
795.000	473.523	79.992	19.991	99.833	20.226	6.598	0.530
796.500	474.086	79.991	19.989	99.835	20.226	6.591	0.484
798.000	474.774	79.992	19.990	99.841	20.231	6.285	0.507
799.500	475.926	79.993	19.991	99.840	20.223	6.779	0.569
801.000	476.516	79.994	19.991	99.837	20.224	6.761	0.506
802.500	477.430	79.993	19.991	99.831	20.231	6.258	0.489
804.000	478.252	79.992	19.991	99.826	20.233	6.127	0.673
805.500	478.980	79.994	19.990	99.836	20.236	5.900	0.506
807.000	479.692	79.994	19.991	99.837	20.234	6.089	0.426
808.500	480.341	79.994	19.991	99.838	20.228	6.451	0.521
810.000	481.124	79.994	19.990	99.839	20.236	5.896	0.504
811.500	481.732	79.994	19.991	99.839	20.230	6.298	0.455
813.001	482.666	79.994	19.991	99.840	20.232	6.190	0.480
814.500	483.620	79.994	19.990	99.833	20.235	5.976	0.706
816.000	484.094	79.994	19.991	99.832	20.234	6.053	0.470
817.500	484.910	79.992	19.990	99.839	20.235	6.020	0.421
819.000	485.695	79.990	19.991	99.844	20.231	6.285	0.344
820.500	486.751	79.992	19.991	99.852	20.235	5.987	0.716
822.000	487.365	79.991	19.991	99.840	20.238	5.807	0.237
823.500	487.992	79.991	19.991	99.841	20.235	5.992	0.380
825.000	488.729	79.990	19.990	99.840	20.242	5.493	0.456
826.500	489.600	79.991	19.990	99.838	20.229	6.421	0.548
828.000	490.553	79.992	19.990	99.836	20.231	6.274	0.614
829.500	491.202	79.991	19.991	99.839	20.240	5.655	0.424
831.000	492.039	79.990	19.990	99.841	20.234	6.047	0.489
832.500	492.816	79.993	19.990	99.838	20.241	5.573	0.495
834.000	493.592	79.992	19.991	99.839	20.237	5.888	0.541
835.500	494.265	79.992	19.991	99.840	20.239	5.697	0.482
837.000	495.327	79.991	19.991	99.840	20.233	6.113	0.496
838.500	495.835	79.991	19.991	99.838	20.238	5.809	0.210
840.000	496.900	79.991	19.991	99.836	20.235	6.011	0.714
841.500	497.745	79.992	19.990	99.841	20.234	6.089	0.611
843.000	498.601	79.992	19.991	99.837	20.236	5.928	0.558
844.500	499.042	79.991	19.991	99.832	20.237	5.890	0.190
846.000	499.857	79.992	19.991	99.836	20.241	5.602	0.459
847.500	500.783	79.992	19.991	99.837	20.236	5.901	0.424
849.000	501.547	79.991	19.992	99.834	20.241	5.573	0.459
850.500	502.120	79.992	19.991	99.835	20.239	5.721	0.232
852.001	503.045	79.990	19.991	99.839	20.237	5.833	0.667
853.501	503.902	79.991	19.991	99.839	20.239	5.716	0.533
855.000	504.691	79.991	19.991	99.836	20.240	5.676	0.503
856.500	505.431	79.991	19.991	99.836	20.237	5.853	0.491
858.000	506.153	79.992	19.991	99.834	20.239	5.692	0.468
859.500	506.979	79.992	19.991	99.835	20.240	5.661	0.536
861.000	507.762	79.992	19.991	99.836	20.240	5.666	0.451
862.500	508.560	79.992	19.992	99.837	20.238	5.760	0.554
864.000	509.249	79.992	19.992	99.837	20.240	5.659	0.484
865.500	510.135	79.994	19.993	99.836	20.240	5.665	0.498
867.000	510.963	79.992	19.992	99.836	20.242	5.536	0.462
868.500	511.673	79.992	19.992	99.836	20.239	5.696	0.473
870.001	512.378	79.993	19.991	99.837	20.241	5.605	0.486
871.500	513.237	79.991	19.992	99.837	20.239	5.722	0.557
873.000	514.077	79.992	19.992	99.837	20.241	5.589	0.537
874.500	514.775	79.991	19.993	99.834	20.241	5.562	0.422
876.000	515.584	79.990	19.992	99.834	20.243	5.428	0.508
877.500	516.373	79.991	19.991	99.836	20.243	5.446	0.517
879.000	517.176	79.991	19.991	99.835	20.240	5.681	0.558
880.500	517.958	79.992	19.991	99.831	20.244	5.413	0.519
882.000	518.754	79.993	19.991	99.821	20.239	5.701	0.452
883.500	519.448	79.993	19.990	99.827	20.241	5.578	0.491
885.000	520.367	79.993	19.991	99.834	20.243	5.449	0.590
886.500	521.154	79.992	19.991	99.830	20.244	5.423	0.519
888.000	521.783	79.994	19.991	99.829	20.244	5.412	0.459
889.500	522.595	79.994	19.990	99.827	20.245	5.307	0.571
891.000	523.431	79.995	19.990	99.823	20.246	5.267	0.501
892.500	524.160	79.993	19.990	99.832	20.248	5.139	0.492
894.000	524.906	79.993	19.990	99.828	20.250	4.973	0.539
895.500	525.663	79.994	19.990	99.834	20.247	5.214	0.582
897.000	526.449	79.992	19.991	99.836	20.247	5.181	0.538
898.500	527.200	79.991	19.991	99.834	20.246	5.280	0.500
900.000	528.004	79.991	19.991	99.830	20.246	5.240	0.547
901.500	528.771	79.991	19.991	99.827	20.244	5.374	0.529
903.000	529.535	79.991	19.991	99.827	20.241	5.595	0.504
904.500	530.288	79.992	19.990	99.834	20.243	5.477	0.505
906.000	531.087	79.992	19.991	99.832	20.248	5.127	0.521
907.500	531.809	79.992	19.990	99.824	20.242	5.507	0.497
909.000	532.597	79.991	19.991	99.828	20.244	5.375	0.519
910.500	533.354	79.991	19.990	99.837	20.244	5.416	0.478
912.000	534.130	79.991	19.991	99.837	20.249	5.078	0.484
913.500	534.881	79.993	19.990	99.832	20.247	5.187	0.530
915.000	535.650	79.992	19.991	99.826	20.244	5.383	0.472
916.500	536.403	79.993	19.991	99.836	20.247	5.209	0.513
918.000	537.107	79.991	19.991	99.837	20.251	4.910	0.456
919.500	537.947	79.992	19.991	99.837	20.247	5.216	0.551
921.000	538.648	79.991	19.992	99.838	20.247	5.177	0.462
922.500	539.470	79.992	19.991	99.829	20.247	5.194	0.550
924.000	540.227	79.992	19.991	99.825	20.244	5.396	0.494
925.500	540.965	79.993	19.991	99.834	20.247	5.198	0.479
927.000	541.738	79.993	19.991	99.835	20.245	5.315	0.501
928.500	542.519	79.990	19.992	99.831	20.247	5.185	0.519
930.000	543.298	79.992	19.992	99.828	20.246	5.289	0.520
931.500	544.062	79.991	19.991	99.828	20.249	5.055	0.491
933.000	544.763	79.991	19.991	99.837	20.248	5.108	0.502
934.500	545.589	79.992	19.992	99.839	20.247	5.181	0.501
936.000	546.294	79.991	19.992	99.837	20.246	5.262	0.495
937.500	547.105	79.991	19.992	99.835	20.248	5.152	0.506
939.000	547.829	79.991	19.991	99.841	20.248	5.145	0.475
940.500	548.614	79.991	19.991	99.839	20.249	5.086	0.478
942.000	549.346	79.993	19.991	99.832	20.250	5.006	0.502
943.500	550.148	79.993	19.991	99.835	20.250	4.994	0.534
945.000	550.916	79.994	19.990	99.837	20.249	5.040	0.485
946.500	551.691	79.992	19.992	99.839	20.247	5.165	0.486
948.000	552.466	79.991	19.991	99.839	20.249	5.080	0.499
949.500	553.161	79.992	19.992	99.839	20.246	5.258	0.467
951.000	553.944	79.992	19.992	99.839	20.246	5.255	0.514
952.500	554.738	79.992	19.992	99.836	20.245	5.326	0.498
954.000	555.580	79.992	19.991	99.832	20.246	5.249	0.527
955.500	556.315	79.993	19.991	99.828	20.245	5.319	0.501
957.000	557.091	79.990	19.992	99.835	20.248	5.110	0.499
958.500	557.852	79.992	19.992	99.832	20.248	5.148	0.473
960.000	558.621	79.993	19.991	99.833	20.249	5.055	0.504
961.500	559.375	79.992	19.992	99.838	20.248	5.148	0.488
963.000	560.142	79.993	19.992	99.836	20.249	5.088	0.512
964.500	560.911	79.994	19.991	99.835	20.247	5.166	0.508
966.000	561.689	79.993	19.991	99.836	20.250	4.987	0.522
967.500	562.469	79.994	19.991	99.833	20.251	4.914	0.528
969.000	563.206	79.993	19.989	99.834	20.253	4.760	0.473
970.500	563.963	79.994	19.990	99.837	20.252	4.857	0.524
972.000	564.754	79.995	19.990	99.836	20.255	4.683	0.532
973.500	565.508	79.994	19.990	99.834	20.250	5.001	0.489
975.000	566.261	79.994	19.991	99.832	20.255	4.659	0.508
976.500	567.071	79.994	19.990	99.827	20.253	4.758	0.505
978.000	567.814	79.992	19.991	99.823	20.252	4.857	0.517
979.500	568.646	79.993	19.991	99.826	20.250	4.995	0.571
981.000	569.407	79.991	19.991	99.833	20.250	4.967	0.507
982.500	570.180	79.992	19.991	99.834	20.251	4.949	0.501
984.000	570.961	79.992	19.992	99.821	20.252	4.879	0.481
985.500	571.705	79.991	19.991	99.822	20.254	4.698	0.502
987.000	572.487	79.991	19.991	99.827	20.254	4.724	0.514
988.500	573.304	79.993	19.991	99.831	20.251	4.914	0.535
990.000	574.138	79.992	19.991	99.836	20.252	4.845	0.559
991.501	574.882	79.992	19.991	99.838	20.253	4.793	0.495
993.000	575.700	79.992	19.991	99.836	20.255	4.678	0.528
994.500	576.398	79.991	19.990	99.833	20.254	4.700	0.480
996.000	577.158	79.993	19.990	99.833	20.258	4.457	0.495
997.500	578.000	79.992	19.990	99.838	20.257	4.497	0.538
999.000	578.760	79.992	19.991	99.841	20.256	4.611	0.491
1000.500	579.500	79.992	19.990	99.840	20.255	4.688	0.482
1002.000	580.268	79.993	19.990	99.838	20.259	4.387	0.514
1003.500	580.996	79.993	19.990	99.833	20.258	4.429	0.496
1005.000	581.777	79.991	19.991	99.832	20.257	4.531	0.513
1006.500	582.574	79.991	19.990	99.840	20.257	4.515	0.538
1008.000	583.314	79.992	19.990	99.836	20.257	4.511	0.495
1009.500	584.090	79.991	19.990	99.819	20.256	4.578	0.491
1011.000	584.853	79.991	19.991	99.821	20.255	4.626	0.521
1012.500	585.611	79.989	19.991	99.829	20.256	4.577	0.477
1014.000	586.394	79.990	19.991	99.821	20.255	4.674	0.506
1015.500	587.117	79.991	19.991	99.824	20.254	4.729	0.500
1017.000	587.875	79.991	19.991	99.828	20.255	4.674	0.518
1018.500	588.661	79.992	19.991	99.821	20.257	4.516	0.517
1020.000	589.475	79.992	19.992	99.813	20.254	4.708	0.545
1021.500	590.168	79.992	19.992	99.816	20.255	4.668	0.468
1023.001	590.917	79.994	19.991	99.824	20.258	4.430	0.501
1024.500	591.676	79.994	19.992	99.825	20.257	4.511	0.519
1026.000	592.434	79.995	19.991	99.822	20.258	4.476	0.509
1027.500	593.187	79.994	19.990	99.828	20.256	4.581	0.489
1029.000	593.973	79.994	19.991	99.825	20.257	4.513	0.532
1030.500	594.709	79.992	19.991	99.813	20.254	4.727	0.491
1032.001	595.484	79.993	19.991	99.810	20.255	4.677	0.519
1033.500	596.234	79.992	19.991	99.809	20.253	4.776	0.481
1035.000	596.998	79.993	19.991	99.812	20.251	4.899	0.508
1036.500	597.759	79.991	19.991	99.826	20.257	4.553	0.501
1038.000	598.515	79.991	19.991	99.824	20.252	4.871	0.491
1039.500	599.229	79.992	19.992	99.822	20.253	4.822	0.469
1041.000	600.037	79.992	19.992	99.821	20.255	4.654	0.532
1042.501	600.760	79.991	19.991	99.823	20.258	4.445	0.499
1044.001	601.555	79.993	19.992	99.825	20.253	4.798	0.537
1045.500	602.289	79.994	19.991	99.826	20.253	4.809	0.493
1047.001	603.099	79.994	19.993	99.826	20.256	4.588	0.552
1048.501	603.761	79.994	19.992	99.818	20.254	4.732	0.467
1050.001	604.518	79.993	19.991	99.815	20.255	4.650	0.508
1051.500	605.271	79.994	19.991	99.822	20.259	4.356	0.508
1053.000	605.989	79.995	19.990	99.827	20.255	4.645	0.477
1054.500	606.755	79.995	19.990	99.830	20.255	4.654	0.499
1056.000	607.537	79.993	19.991	99.823	20.255	4.634	0.523
1057.500	608.297	79.992	19.991	99.822	20.256	4.599	0.517
1059.000	609.022	79.992	19.990	99.822	20.258	4.473	0.472
1060.500	609.801	79.991	19.990	99.821	20.261	4.252	0.500
1062.000	610.560	79.991	19.991	99.833	20.261	4.242	0.488
1063.500	611.307	79.990	19.991	99.836	20.264	4.030	0.498
1065.001	612.083	79.991	19.990	99.835	20.262	4.171	0.536
1066.500	612.856	79.992	19.991	99.832	20.259	4.389	0.509
1068.001	613.567	79.991	19.990	99.831	20.258	4.435	0.488
1069.500	614.339	79.991	19.991	99.837	20.262	4.213	0.526
1071.000	615.118	79.993	19.991	99.839	20.260	4.319	0.501
1072.500	615.941	79.992	19.991	99.829	20.259	4.362	0.540
1074.000	616.685	79.991	19.990	99.824	20.259	4.415	0.514
1075.500	617.439	79.991	19.992	99.839	20.260	4.312	0.487
1077.000	618.238	79.990	19.991	99.828	20.263	4.147	0.519
1078.500	619.041	79.991	19.991	99.831	20.261	4.266	0.513
1080.000	619.742	79.991	19.991	99.833	20.264	4.045	0.475
1081.500	620.520	79.991	19.990	99.834	20.261	4.240	0.516
1083.000	621.291	79.991	19.991	99.840	20.261	4.227	0.496
1084.501	622.059	79.993	19.991	99.837	20.264	4.048	0.500
1086.000	622.858	79.992	19.990	99.835	20.262	4.169	0.537
1087.500	623.626	79.992	19.991	99.829	20.262	4.213	0.528
1089.001	624.374	79.991	19.991	99.833	20.263	4.112	0.510
1090.500	625.127	79.992	19.991	99.837	20.262	4.190	0.524
1092.001	625.923	79.993	19.991	99.829	20.266	3.920	0.535
1093.500	626.712	79.990	19.992	99.822	20.265	4.017	0.548
1095.001	627.494	79.991	19.991	99.834	20.263	4.112	0.528
1096.501	628.262	79.991	19.991	99.836	20.265	4.002	0.521
1098.001	629.045	79.992	19.992	99.832	20.266	3.920	0.511
1099.500	629.835	79.991	19.992	99.830	20.265	4.002	0.510
1101.000	630.617	79.992	19.991	99.813	20.263	4.092	0.536
1102.500	631.400	79.992	19.992	99.815	20.264	4.081	0.514
1104.000	632.199	79.993	19.992	99.824	20.264	4.020	0.538
1105.500	632.991	79.994	19.992	99.825	20.262	4.164	0.536
1107.001	633.787	79.992	19.992	99.823	20.264	4.064	0.528
1108.500	634.564	79.992	19.990	99.817	20.259	4.374	0.524
1110.001	635.382	79.991	19.993	99.822	20.258	4.423	0.532
1111.501	636.173	79.992	19.991	99.824	20.261	4.271	0.528
1113.001	636.897	79.993	19.991	99.824	20.263	4.097	0.481
1114.500	637.675	79.992	19.991	99.815	20.261	4.229	0.499
1116.001	638.463	79.991	19.991	99.810	20.263	4.094	0.505
1117.500	639.247	79.991	19.992	99.808	20.260	4.322	0.522
1119.000	640.014	79.991	19.994	99.820	20.261	4.225	0.498
1120.500	640.738	79.993	19.990	99.827	20.263	4.102	0.493
1122.000	641.507	79.992	19.990	99.814	20.262	4.170	0.494
1123.500	642.286	79.992	19.992	99.819	20.264	4.075	0.506
1125.000	643.035	79.992	19.992	99.833	20.262	4.194	0.513
1126.500	643.789	79.992	19.991	99.825	20.262	4.170	0.503
1128.000	644.597	79.991	19.992	99.825	20.260	4.290	0.534
1129.500	645.284	79.992	19.990	99.820	20.264	4.064	0.451
1131.000	646.102	79.992	19.993	99.810	20.260	4.329	0.565
1132.500	646.865	79.993	19.992	99.815	20.261	4.256	0.515
1134.000	647.646	79.993	19.991	99.809	20.263	4.098	0.533
1135.500	648.402	79.995	19.991	99.807	20.259	4.376	0.498
1137.000	649.165	79.992	19.991	99.807	20.259	4.392	0.497
1138.500	649.918	79.992	19.989	99.800	20.259	4.377	0.510
1140.000	650.688	79.991	19.991	99.815	20.259	4.381	0.533
1141.500	651.482	79.991	19.991	99.815	20.259	4.408	0.507
1143.000	652.259	79.992	19.990	99.811	20.260	4.298	0.512
1144.501	653.002	79.990	19.992	99.823	20.262	4.155	0.504
1146.001	653.724	79.992	19.990	99.822	20.260	4.351	0.491
1147.500	654.471	79.991	19.993	99.816	20.262	4.185	0.496
1149.000	655.292	79.991	19.991	99.815	20.260	4.300	0.553
1150.501	656.041	79.991	19.990	99.819	20.261	4.247	0.491
1152.001	656.775	79.992	19.990	99.819	20.263	4.137	0.491
1153.501	657.526	79.991	19.992	99.813	20.260	4.337	0.494
1155.001	658.303	79.989	19.991	99.804	20.259	4.399	0.499
1156.501	659.119	79.992	19.991	99.811	20.260	4.353	0.528
1158.000	659.874	79.990	19.991	99.815	20.261	4.264	0.539
1159.500	660.629	79.992	19.991	99.812	20.262	4.178	0.514
1161.001	661.389	79.993	19.991	99.810	20.262	4.206	0.534
1162.500	662.154	79.993	19.992	99.813	20.260	4.293	0.494
1164.000	662.919	79.992	19.991	99.811	20.260	4.291	0.514
1165.501	663.629	79.992	19.991	99.817	20.264	4.079	0.472
1167.000	664.464	79.993	19.991	99.818	20.261	4.278	0.535
1168.500	665.202	79.992	19.990	99.816	20.255	4.632	0.512
1170.001	665.975	79.991	19.991	99.821	20.261	4.246	0.518
1171.501	666.784	79.992	19.992	99.828	20.263	4.116	0.518
1173.000	667.523	79.992	19.991	99.824	20.258	4.476	0.474
1174.500	668.250	79.994	19.990	99.822	20.262	4.167	0.477
1176.000	668.985	79.993	19.991	99.814	20.257	4.522	0.490
1177.500	669.748	79.991	19.990	99.818	20.257	4.535	0.509
1179.000	670.524	79.993	19.991	99.829	20.258	4.487	0.526
1180.500	671.255	79.991	19.992	99.830	20.258	4.453	0.491
1182.000	672.000	79.992	19.991	99.833	20.258	4.433	0.502
1183.500	672.816	79.991	19.991	99.830	20.260	4.351	0.542
1185.000	673.541	79.993	19.991	99.831	20.257	4.507	0.471
1186.500	674.315	79.991	19.992	99.836	20.262	4.213	0.511
1188.000	675.100	79.993	19.990	99.828	20.259	4.355	0.518
1189.500	675.830	79.993	19.991	99.831	20.263	4.145	0.478
1191.001	676.627	79.992	19.991	99.827	20.259	4.371	0.512
1192.500	677.330	79.993	19.991	99.829	20.260	4.334	0.465
1194.000	678.098	79.991	19.990	99.823	20.258	4.434	0.527
1195.500	678.896	79.992	19.992	99.811	20.260	4.313	0.569
1197.000	679.619	79.993	19.991	99.820	20.263	4.115	0.494
1198.500	680.391	79.991	19.990	99.829	20.262	4.165	0.492
1200.000	681.150	79.991	19.991	99.819	20.271	3.559	0.509
1201.500	681.898	79.991	19.992	99.806	20.261	4.229	0.478
1203.001	682.639	79.992	19.991	99.800	20.262	4.194	0.501
1204.500	683.424	79.993	19.991	99.809	20.262	4.198	0.533
1206.000	684.166	79.993	19.991	99.829	20.263	4.148	0.511
1207.500	684.902	79.993	19.992	99.820	20.262	4.200	0.491
1209.001	685.686	79.991	19.990	99.820	20.265	4.008	0.512
1210.500	686.494	79.993	19.990	99.823	20.264	4.066	0.529
1212.000	687.233	79.993	19.991	99.817	20.263	4.098	0.483
1213.500	687.672	79.992	19.992	99.814	20.267	3.869	0.318
1215.000	688.752	79.994	19.992	99.823	20.259	4.388	0.632
1216.500	689.462	79.994	19.992	99.813	20.259	4.368	0.514
1218.000	690.230	79.993	19.991	99.811	20.260	4.299	0.520
1219.501	690.983	79.992	19.992	99.822	20.262	4.214	0.510
1221.001	691.736	79.990	19.991	99.816	20.261	4.273	0.517
1222.500	692.476	79.990	19.992	99.825	20.261	4.279	0.509
1224.000	693.245	79.991	19.992	99.834	20.261	4.283	0.518
1225.500	694.004	79.992	19.992	99.829	20.257	4.538	0.522
1227.000	694.752	79.992	19.992	99.824	20.258	4.460	0.522
1228.500	695.549	79.992	19.992	99.829	20.259	4.419	0.537
1230.001	696.271	79.989	19.991	99.821	20.257	4.517	0.505
1231.500	696.992	79.990	19.991	99.820	20.258	4.422	0.503
1233.000	697.735	79.992	19.991	99.828	20.256	4.567	0.494
1234.500	698.535	79.991	19.991	99.830	20.258	4.484	0.545
1236.000	699.286	79.990	19.991	99.825	20.258	4.432	0.499
1237.500	700.052	79.991	19.992	99.823	20.258	4.434	0.508
1239.000	700.795	79.993	19.992	99.830	20.259	4.417	0.498
1240.500	701.538	79.992	19.992	99.810	20.258	4.473	0.491
1242.000	702.339	79.991	19.991	99.810	20.257	4.503	0.538
1243.500	703.097	79.993	19.991	99.806	20.256	4.567	0.501
1245.000	703.850	79.993	19.991	99.801	20.255	4.644	0.497
1246.501	704.617	79.992	19.991	99.806	20.256	4.571	0.497
1248.000	705.384	79.993	19.991	99.808	20.255	4.645	0.494
1249.500	706.152	79.992	19.991	99.807	20.256	4.594	0.522
1251.000	706.914	79.992	19.991	99.802	20.254	4.721	0.515
1252.500	707.695	79.992	19.991	99.805	20.257	4.532	0.533
1254.000	708.466	79.994	19.991	99.806	20.257	4.534	0.528
1255.500	709.274	79.990	19.991	99.812	20.254	4.719	0.522
1257.001	710.021	79.991	19.991	99.812	20.255	4.655	0.506
1258.501	710.773	79.991	19.990	99.802	20.252	4.876	0.495
1260.000	711.536	79.992	19.991	99.806	20.254	4.703	0.504
1261.501	712.301	79.992	19.991	99.817	20.253	4.777	0.499
1263.000	713.098	79.990	19.992	99.812	20.251	4.924	0.523
1264.500	713.878	79.993	19.991	99.805	20.251	4.953	0.535
1266.000	714.676	79.994	19.991	99.810	20.250	4.964	0.532
1267.500	715.448	79.994	19.991	99.821	20.253	4.794	0.495
1269.001	716.220	79.994	19.991	99.813	20.252	4.826	0.525
1270.500	717.013	79.992	19.990	99.810	20.249	5.068	0.529
1272.000	717.776	79.992	19.991	99.812	20.253	4.807	0.509
1273.500	718.543	79.990	19.992	99.807	20.252	4.882	0.531
1275.000	719.322	79.993	19.992	99.815	20.253	4.782	0.518
1276.500	720.121	79.992	19.991	99.809	20.255	4.668	0.515
1278.000	720.855	79.994	19.992	99.804	20.254	4.746	0.489
1279.501	721.605	79.992	19.991	99.818	20.252	4.883	0.500
1281.000	722.351	79.993	19.992	99.832	20.257	4.532	0.486
1282.500	723.107	79.993	19.992	99.819	20.251	4.895	0.518
1284.000	723.845	79.992	19.991	99.811	20.252	4.840	0.492
1285.500	724.623	79.994	19.991	99.822	20.256	4.596	0.509
1287.000	725.341	79.994	19.991	99.823	20.253	4.796	0.474
1288.500	726.113	79.993	19.991	99.811	20.254	4.748	0.505
1290.000	726.837	79.992	19.991	99.805	20.257	4.534	0.488
1291.500	727.562	79.994	19.992	99.803	20.253	4.811	0.499
1293.001	728.297	79.993	19.991	99.808	20.256	4.574	0.501
1294.500	729.065	79.994	19.991	99.810	20.252	4.827	0.494
1296.000	729.778	79.992	19.992	99.806	20.255	4.687	0.475
1297.501	730.514	79.993	19.992	99.816	20.256	4.614	0.496
1299.000	731.214	79.993	19.991	99.815	20.256	4.576	0.473
1300.500	732.027	79.991	19.992	99.810	20.258	4.432	0.563
1302.001	732.733	79.991	19.992	99.816	20.256	4.595	0.492
1303.500	733.520	79.993	19.992	99.808	20.257	4.507	0.523
1305.000	734.278	79.989	19.992	99.803	20.254	4.746	0.515
1306.501	735.023	79.991	19.993	99.803	20.256	4.585	0.485
1308.000	735.751	79.991	19.992	99.804	20.254	4.709	0.495
1309.500	736.547	79.991	19.992	99.805	20.252	4.861	0.525
1311.000	737.309	79.992	19.990	99.804	20.254	4.711	0.516
1312.500	738.085	79.994	19.991	99.811	20.254	4.697	0.512
1314.000	738.852	79.992	19.991	99.815	20.250	4.971	0.523
1315.500	739.635	79.992	19.992	99.813	20.253	4.758	0.550
1317.000	740.314	79.991	19.991	99.803	20.256	4.611	0.487
1318.500	741.120	79.991	19.990	99.802	20.252	4.843	0.522
1320.000	741.877	79.991	19.990	99.803	20.256	4.598	0.499
1321.500	742.659	79.992	19.990	99.803	20.251	4.895	0.528
1323.000	743.456	79.993	19.991	99.804	20.251	4.904	0.556