File: 01_Data/MDF/MCC/MDF_MCC_DataDF.csv
Temperature (C),HRR (W/g),HRR correction,R1,HRR (W/g),HRR correction,R2,HRR (W/g),HRR correction,R3
150.00,5.26,5.26,0.00,4.95,4.95,0.00,3.95,3.95,0.00
151.00,4.89,5.23,-0.35,4.85,4.95,-0.10,3.92,3.94,-0.02
152.00,4.94,5.21,-0.27,4.86,4.95,-0.09,3.86,3.93,-0.07
153.00,4.89,5.19,-0.30,5.01,4.95,0.06,3.79,3.93,-0.14
154.00,4.75,5.17,-0.41,4.97,4.95,0.02,3.70,3.92,-0.22
155.00,4.46,5.15,-0.69,4.92,4.95,-0.03,3.62,3.91,-0.29
156.00,4.70,5.13,-0.43,5.08,4.95,0.13,3.51,3.91,-0.39
157.00,4.49,5.10,-0.61,5.13,4.95,0.18,3.61,3.90,-0.28
158.00,4.45,5.08,-0.63,4.88,4.95,-0.07,3.54,3.89,-0.35
159.00,4.69,5.06,-0.37,5.08,4.95,0.12,3.60,3.88,-0.28
160.00,4.48,5.04,-0.56,4.93,4.96,-0.03,3.63,3.88,-0.24
161.00,4.45,5.02,-0.57,5.28,4.96,0.32,3.61,3.87,-0.26
162.00,4.40,5.00,-0.59,5.13,4.96,0.18,3.83,3.86,-0.03
163.00,4.63,4.97,-0.34,4.98,4.96,0.02,3.70,3.85,-0.16
164.00,4.56,4.95,-0.40,4.96,4.96,0.00,3.65,3.85,-0.20
165.00,4.71,4.93,-0.22,4.86,4.96,-0.10,4.04,3.84,0.20
166.00,4.84,4.91,-0.07,4.61,4.96,-0.35,3.65,3.83,-0.18
167.00,4.96,4.89,0.07,4.87,4.96,-0.09,3.69,3.83,-0.14
168.00,4.78,4.87,-0.09,4.97,4.96,0.01,3.87,3.82,0.05
169.00,4.72,4.84,-0.13,4.88,4.96,-0.08,3.93,3.81,0.12
170.00,4.48,4.82,-0.34,4.92,4.96,-0.04,3.79,3.80,-0.01
171.00,4.55,4.80,-0.25,4.60,4.96,-0.36,3.93,3.80,0.13
172.00,4.31,4.78,-0.47,5.08,4.97,0.12,3.79,3.79,0.00
173.00,4.57,4.76,-0.19,5.08,4.97,0.12,3.88,3.78,0.10
174.00,4.20,4.74,-0.54,5.07,4.97,0.10,4.06,3.78,0.28
175.00,4.32,4.71,-0.39,4.80,4.97,-0.16,3.74,3.77,-0.03
176.00,4.81,4.69,0.12,4.96,4.97,-0.01,4.06,3.76,0.30
177.00,4.23,4.67,-0.45,5.08,4.97,0.11,4.06,3.75,0.30
178.00,4.43,4.65,-0.22,5.07,4.97,0.10,4.05,3.75,0.30
179.00,4.55,4.63,-0.08,5.34,4.97,0.37,4.04,3.74,0.30
180.00,4.37,4.61,-0.23,4.97,4.97,-0.00,4.06,3.73,0.32
181.00,4.24,4.59,-0.34,5.28,4.97,0.31,4.11,3.73,0.39
182.00,4.29,4.56,-0.27,5.14,4.97,0.16,3.97,3.72,0.25
183.00,4.48,4.54,-0.06,5.12,4.97,0.14,4.24,3.71,0.53
184.00,4.33,4.52,-0.19,5.02,4.97,0.04,4.13,3.70,0.42
185.00,4.48,4.50,-0.02,5.09,4.98,0.12,4.14,3.70,0.44
186.00,4.38,4.48,-0.10,5.31,4.98,0.33,4.28,3.69,0.59
187.00,4.30,4.46,-0.15,5.37,4.98,0.39,4.27,3.68,0.58
188.00,4.46,4.43,0.02,5.05,4.98,0.08,4.22,3.68,0.55
189.00,3.95,4.41,-0.46,5.42,4.98,0.44,4.29,3.67,0.62
190.00,4.16,4.39,-0.23,5.48,4.98,0.50,4.40,3.66,0.74
191.00,4.06,4.37,-0.31,5.58,4.98,0.60,4.37,3.65,0.72
192.00,4.41,4.35,0.06,5.61,4.98,0.63,4.43,3.65,0.78
193.00,4.12,4.33,-0.21,5.30,4.98,0.31,4.49,3.64,0.85
194.00,4.33,4.30,0.03,5.50,4.98,0.52,4.58,3.63,0.94
195.00,3.92,4.28,-0.37,5.58,4.98,0.60,4.62,3.63,0.99
196.00,4.19,4.26,-0.07,5.67,4.98,0.69,4.49,3.62,0.87
197.00,4.32,4.24,0.08,5.89,4.98,0.90,4.34,3.61,0.72
198.00,4.25,4.22,0.03,5.87,4.99,0.89,4.59,3.60,0.98
199.00,4.51,4.20,0.32,6.11,4.99,1.12,4.40,3.60,0.81
200.00,4.67,4.17,0.50,6.27,4.99,1.28,4.47,3.59,0.88
201.00,4.75,4.15,0.60,5.92,4.99,0.93,4.67,3.58,1.09
202.00,4.73,4.13,0.60,6.03,4.99,1.04,4.71,3.58,1.13
203.00,4.51,4.11,0.40,6.21,4.99,1.22,4.86,3.57,1.30
204.00,4.61,4.09,0.53,6.16,4.99,1.17,4.92,3.56,1.35
205.00,4.34,4.07,0.28,6.38,4.99,1.39,5.21,3.55,1.65
206.00,4.49,4.04,0.44,6.40,4.99,1.41,5.30,3.55,1.76
207.00,4.74,4.02,0.71,6.70,4.99,1.70,5.39,3.54,1.85
208.00,4.72,4.00,0.72,6.37,4.99,1.37,5.51,3.53,1.98
209.00,5.07,3.98,1.09,6.89,4.99,1.90,5.76,3.53,2.23
210.00,5.01,3.96,1.05,6.72,5.00,1.72,5.90,3.52,2.38
211.00,5.22,3.94,1.29,7.07,5.00,2.07,6.08,3.51,2.57
212.00,5.25,3.91,1.34,6.95,5.00,1.95,6.23,3.50,2.73
213.00,5.31,3.89,1.41,7.20,5.00,2.20,6.33,3.50,2.83
214.00,5.35,3.87,1.47,7.13,5.00,2.13,6.41,3.49,2.92
215.00,5.38,3.85,1.53,7.12,5.00,2.12,6.45,3.48,2.96
216.00,5.39,3.83,1.57,7.14,5.00,2.14,6.45,3.48,2.97
217.00,5.37,3.81,1.56,7.17,5.00,2.17,6.54,3.47,3.07
218.00,5.26,3.79,1.48,7.10,5.00,2.10,6.46,3.46,3.00
219.00,5.23,3.76,1.47,7.39,5.00,2.39,6.63,3.45,3.17
220.00,5.65,3.74,1.91,7.54,5.00,2.53,6.64,3.45,3.19
221.00,5.91,3.72,2.19,7.42,5.00,2.42,6.74,3.44,3.30
222.00,6.37,3.70,2.67,7.64,5.00,2.64,6.92,3.43,3.48
223.00,6.25,3.68,2.57,7.68,5.01,2.67,7.07,3.43,3.65
224.00,6.39,3.66,2.74,7.71,5.01,2.71,7.18,3.42,3.76
225.00,6.53,3.63,2.90,7.80,5.01,2.79,7.34,3.41,3.93
226.00,6.48,3.61,2.87,8.09,5.01,3.08,7.40,3.40,4.00
227.00,6.67,3.59,3.08,8.16,5.01,3.15,7.53,3.40,4.13
228.00,6.72,3.57,3.15,8.13,5.01,3.12,7.72,3.39,4.33
229.00,6.71,3.55,3.16,8.47,5.01,3.46,7.99,3.38,4.61
230.00,6.64,3.53,3.12,8.36,5.01,3.35,8.02,3.38,4.64
231.00,6.98,3.50,3.47,8.59,5.01,3.58,8.16,3.37,4.79
232.00,7.27,3.48,3.79,8.83,5.01,3.82,8.18,3.36,4.82
233.00,7.36,3.46,3.90,8.94,5.01,3.93,8.34,3.35,4.98
234.00,7.39,3.44,3.95,9.04,5.01,4.03,8.50,3.35,5.15
235.00,7.49,3.42,4.07,9.56,5.01,4.54,8.67,3.34,5.33
236.00,7.91,3.40,4.51,10.07,5.02,5.06,8.99,3.33,5.66
237.00,7.82,3.37,4.45,9.65,5.02,4.63,9.25,3.33,5.93
238.00,7.88,3.35,4.53,9.98,5.02,4.96,9.15,3.32,5.83
239.00,8.04,3.33,4.71,10.22,5.02,5.20,9.48,3.31,6.16
240.00,8.44,3.31,5.13,10.72,5.02,5.70,9.77,3.30,6.47
241.00,8.58,3.29,5.30,11.07,5.02,6.05,10.07,3.30,6.77
242.00,8.73,3.27,5.46,11.01,5.02,5.99,10.40,3.29,7.11
243.00,8.61,3.24,5.37,11.28,5.02,6.26,10.50,3.28,7.22
244.00,8.92,3.22,5.69,11.68,5.02,6.66,10.52,3.28,7.24
245.00,9.33,3.20,6.13,11.57,5.02,6.54,10.84,3.27,7.57
246.00,9.52,3.18,6.34,11.91,5.02,6.89,11.15,3.26,7.89
247.00,9.47,3.16,6.32,12.25,5.02,7.22,11.37,3.25,8.12
248.00,9.50,3.14,6.36,12.33,5.03,7.30,11.56,3.25,8.32
249.00,9.67,3.11,6.55,12.71,5.03,7.68,11.87,3.24,8.63
250.00,10.05,3.09,6.96,12.94,5.03,7.92,12.16,3.23,8.92
251.00,10.32,3.07,7.25,13.35,5.03,8.32,12.50,3.23,9.28
252.00,10.24,3.05,7.19,13.62,5.03,8.59,12.71,3.22,9.50
253.00,10.39,3.03,7.36,13.85,5.03,8.82,13.13,3.21,9.92
254.00,10.78,3.01,7.77,14.11,5.03,9.08,13.62,3.20,10.41
255.00,11.21,2.99,8.23,14.63,5.03,9.60,13.76,3.20,10.56
256.00,11.89,2.96,8.93,14.65,5.03,9.62,13.96,3.19,10.77
257.00,12.21,2.94,9.27,15.34,5.03,10.31,14.48,3.18,11.30
258.00,12.56,2.92,9.64,15.49,5.03,10.46,14.68,3.18,11.51
259.00,12.76,2.90,9.86,16.01,5.03,10.97,15.28,3.17,12.11
260.00,13.10,2.88,10.22,16.35,5.03,11.32,15.59,3.16,12.43
261.00,13.58,2.86,10.72,16.55,5.04,11.51,16.11,3.15,12.96
262.00,13.86,2.83,11.03,16.81,5.04,11.77,16.52,3.15,13.38
263.00,14.55,2.81,11.74,17.53,5.04,12.49,17.00,3.14,13.86
264.00,15.07,2.79,12.28,17.97,5.04,12.93,17.33,3.13,14.20
265.00,15.42,2.77,12.65,18.66,5.04,13.62,17.85,3.13,14.73
266.00,15.46,2.75,12.71,18.90,5.04,13.86,18.46,3.12,15.34
267.00,15.99,2.73,13.27,19.44,5.04,14.40,18.84,3.11,15.72
268.00,16.93,2.70,14.22,19.82,5.04,14.78,19.28,3.10,16.18
269.00,17.21,2.68,14.53,20.38,5.04,15.34,19.71,3.10,16.61
270.00,17.62,2.66,14.96,20.81,5.04,15.77,20.07,3.09,16.98
271.00,18.08,2.64,15.44,21.27,5.04,16.23,20.75,3.08,17.67
272.00,18.64,2.62,16.02,21.74,5.04,16.70,21.11,3.08,18.04
273.00,18.94,2.60,16.34,22.16,5.04,17.12,21.80,3.07,18.73
274.00,19.39,2.57,16.82,22.90,5.05,17.86,22.31,3.06,19.25
275.00,19.89,2.55,17.33,23.46,5.05,18.42,22.74,3.05,19.69
276.00,20.49,2.53,17.96,23.74,5.05,18.69,23.44,3.05,20.39
277.00,20.89,2.51,18.38,24.27,5.05,19.22,23.99,3.04,20.95
278.00,21.22,2.49,18.74,24.82,5.05,19.77,24.35,3.03,21.32
279.00,21.35,2.47,18.88,25.28,5.05,20.23,24.75,3.03,21.73
280.00,22.25,2.44,19.81,26.10,5.05,21.05,25.30,3.02,22.29
281.00,22.55,2.42,20.13,26.41,5.05,21.36,25.65,3.01,22.64
282.00,22.89,2.40,20.49,26.87,5.05,21.82,26.23,3.00,23.23
283.00,23.50,2.38,21.12,27.12,5.05,22.07,26.65,3.00,23.65
284.00,24.19,2.36,21.83,27.82,5.05,22.77,27.02,2.99,24.03
285.00,24.25,2.34,21.91,28.25,5.05,23.20,27.41,2.98,24.43
286.00,24.55,2.31,22.24,28.72,5.06,23.66,27.84,2.98,24.87
287.00,25.07,2.29,22.77,29.12,5.06,24.06,28.37,2.97,25.41
288.00,25.47,2.27,23.19,29.59,5.06,24.54,28.64,2.96,25.67
289.00,25.97,2.25,23.72,30.16,5.06,25.10,29.13,2.95,26.17
290.00,26.23,2.23,24.00,30.47,5.06,25.41,29.51,2.95,26.56
291.00,26.54,2.21,24.33,30.95,5.06,25.89,29.87,2.94,26.93
292.00,27.18,2.19,24.99,31.43,5.06,26.37,30.66,2.93,27.72
293.00,27.51,2.16,25.35,31.83,5.06,26.77,31.04,2.93,28.11
294.00,28.10,2.14,25.96,32.31,5.06,27.25,31.38,2.92,28.46
295.00,28.51,2.12,26.39,32.70,5.06,27.64,31.98,2.91,29.06
296.00,29.36,2.10,27.26,33.06,5.06,28.00,32.63,2.90,29.73
297.00,29.50,2.08,27.42,33.45,5.06,28.38,32.98,2.90,30.09
298.00,29.61,2.06,27.56,33.97,5.06,28.91,33.46,2.89,30.57
299.00,30.01,2.03,27.98,34.42,5.07,29.36,34.24,2.88,31.36
300.00,30.49,2.01,28.48,34.77,5.07,29.70,34.58,2.88,31.70
301.00,30.67,1.99,28.68,35.27,5.07,30.20,34.75,2.87,31.88
302.00,31.71,1.97,29.74,35.94,5.07,30.87,35.32,2.86,32.46
303.00,32.00,1.95,30.05,36.49,5.07,31.42,35.88,2.85,33.02
304.00,32.72,1.93,30.79,37.05,5.07,31.98,36.37,2.85,33.52
305.00,33.28,1.90,31.38,37.58,5.07,32.51,36.99,2.84,34.15
306.00,33.48,1.88,31.60,38.11,5.07,33.04,37.58,2.83,34.75
307.00,34.02,1.86,32.16,38.43,5.07,33.36,38.02,2.83,35.19
308.00,34.77,1.84,32.93,38.82,5.07,33.75,38.44,2.82,35.62
309.00,35.30,1.82,33.48,39.87,5.07,34.79,38.89,2.81,36.08
310.00,35.88,1.80,34.08,40.42,5.07,35.35,39.47,2.80,36.67
311.00,36.71,1.77,34.94,40.95,5.07,35.87,40.19,2.80,37.39
312.00,36.79,1.75,35.04,41.36,5.08,36.28,40.83,2.79,38.04
313.00,37.61,1.73,35.88,41.84,5.08,36.77,41.36,2.78,38.58
314.00,38.18,1.71,36.47,42.36,5.08,37.28,42.00,2.78,39.22
315.00,38.77,1.69,37.08,43.22,5.08,38.14,42.45,2.77,39.68
316.00,39.49,1.67,37.82,43.56,5.08,38.49,43.09,2.76,40.33
317.00,39.80,1.64,38.15,44.25,5.08,39.17,43.77,2.75,41.01
318.00,40.47,1.62,38.85,44.65,5.08,39.57,44.33,2.75,41.58
319.00,40.89,1.60,39.29,45.17,5.08,40.09,45.10,2.74,42.36
320.00,41.67,1.58,40.09,45.99,5.08,40.90,45.61,2.73,42.88
321.00,42.10,1.56,40.54,46.98,5.08,41.90,46.41,2.73,43.68
322.00,43.00,1.54,41.46,47.59,5.08,42.51,47.15,2.72,44.43
323.00,43.37,1.51,41.86,48.43,5.08,43.34,47.83,2.71,45.12
324.00,43.98,1.49,42.49,49.49,5.09,44.40,48.60,2.70,45.90
325.00,44.81,1.47,43.34,49.98,5.09,44.89,49.43,2.70,46.74
326.00,45.32,1.45,43.87,51.06,5.09,45.97,50.11,2.69,47.42
327.00,46.23,1.43,44.80,51.71,5.09,46.63,51.01,2.68,48.33
328.00,46.90,1.41,45.49,52.42,5.09,47.33,51.95,2.68,49.27
329.00,47.46,1.39,46.07,53.25,5.09,48.16,52.86,2.67,50.19
330.00,48.15,1.36,46.78,53.98,5.09,48.89,53.56,2.66,50.90
331.00,48.85,1.34,47.51,54.81,5.09,49.72,54.63,2.65,51.98
332.00,49.82,1.32,48.50,55.75,5.09,50.66,55.49,2.65,52.85
333.00,50.42,1.30,49.12,56.81,5.09,51.72,56.47,2.64,53.83
334.00,51.74,1.28,50.47,57.80,5.09,52.71,57.03,2.63,54.39
335.00,52.46,1.26,51.20,58.94,5.09,53.84,58.31,2.63,55.68
336.00,53.29,1.23,52.05,59.90,5.09,54.80,59.61,2.62,56.99
337.00,54.50,1.21,53.29,61.11,5.10,56.01,60.56,2.61,57.95
338.00,55.27,1.19,54.08,61.93,5.10,56.83,61.96,2.60,59.36
339.00,56.33,1.17,55.16,63.02,5.10,57.92,62.91,2.60,60.32
340.00,57.28,1.15,56.13,64.32,5.10,59.22,64.02,2.59,61.43
341.00,58.48,1.13,57.36,65.46,5.10,60.36,65.29,2.58,62.71
342.00,59.57,1.10,58.46,66.61,5.10,61.51,66.64,2.57,64.07
343.00,60.42,1.08,59.33,68.22,5.10,63.12,67.99,2.57,65.43
344.00,61.80,1.06,60.74,69.44,5.10,64.34,69.27,2.56,66.71
345.00,63.21,1.04,62.17,70.56,5.10,65.46,70.55,2.55,68.00
346.00,64.67,1.02,63.65,71.87,5.10,66.77,71.85,2.55,69.30
347.00,66.12,1.00,65.13,73.42,5.10,68.32,73.15,2.54,70.61
348.00,66.92,0.97,65.94,74.97,5.10,69.86,74.68,2.53,72.15
349.00,67.84,0.95,66.88,76.41,5.10,71.30,76.10,2.52,73.58
350.00,69.56,0.93,68.63,77.62,5.11,72.52,77.59,2.52,75.07
351.00,70.59,0.91,69.68,79.30,5.11,74.19,78.98,2.51,76.47
352.00,72.43,0.89,71.54,80.61,5.11,75.51,80.27,2.50,77.77
353.00,73.89,0.87,73.03,81.83,5.11,76.72,81.75,2.50,79.25
354.00,75.21,0.84,74.36,83.21,5.11,78.10,83.03,2.49,80.54
355.00,76.70,0.82,75.88,84.29,5.11,79.18,84.26,2.48,81.78
356.00,78.18,0.80,77.38,85.93,5.11,80.82,85.51,2.47,83.04
357.00,79.40,0.78,78.62,87.09,5.11,81.97,86.07,2.47,83.60
358.00,80.74,0.76,79.99,88.23,5.11,83.12,87.05,2.46,84.59
359.00,82.01,0.74,81.27,89.13,5.11,84.02,88.03,2.45,85.58
360.00,83.19,0.71,82.47,89.59,5.11,84.47,88.79,2.45,86.35
361.00,84.18,0.69,83.48,90.69,5.11,85.57,89.24,2.44,86.80
362.00,85.15,0.67,84.47,91.03,5.12,85.92,89.38,2.43,86.95
363.00,85.97,0.65,85.32,91.58,5.12,86.47,89.34,2.42,86.92
364.00,86.46,0.63,85.84,91.81,5.12,86.70,89.34,2.42,86.93
365.00,86.80,0.61,86.19,91.61,5.12,86.49,88.76,2.41,86.35
366.00,87.27,0.59,86.69,91.37,5.12,86.25,87.94,2.40,85.53
367.00,86.59,0.56,86.02,90.72,5.12,85.60,86.90,2.40,84.51
368.00,86.75,0.54,86.21,89.55,5.12,84.43,85.62,2.39,83.23
369.00,86.57,0.52,86.05,87.91,5.12,82.79,83.73,2.38,81.35
370.00,85.46,0.50,84.96,86.23,5.12,81.11,81.51,2.37,79.14
371.00,83.99,0.48,83.51,83.96,5.12,78.83,78.76,2.37,76.39
372.00,82.72,0.46,82.26,81.28,5.12,76.16,75.88,2.36,73.52
373.00,80.66,0.43,80.23,78.15,5.12,73.03,72.73,2.35,70.37
374.00,78.10,0.41,77.69,74.79,5.12,69.66,68.90,2.35,66.56
375.00,75.38,0.39,74.99,70.91,5.13,65.79,65.99,2.34,63.65
376.00,71.90,0.37,71.53,67.82,5.13,62.69,61.81,2.33,59.48
377.00,68.39,0.35,68.04,63.93,5.13,58.81,57.51,2.32,55.19
378.00,64.42,0.33,64.09,59.73,5.13,54.60,53.19,2.32,50.88
379.00,60.05,0.30,59.75,55.34,5.13,50.21,48.90,2.31,46.59
380.00,55.79,0.28,55.50,50.76,5.13,45.63,44.71,2.30,42.41
381.00,51.01,0.26,50.75,46.45,5.13,41.32,40.57,2.30,38.28
382.00,46.23,0.24,45.99,42.22,5.13,37.09,36.53,2.29,34.24
383.00,42.73,0.22,42.51,37.98,5.13,32.85,33.04,2.28,30.76
384.00,38.54,0.20,38.35,34.36,5.13,29.23,29.51,2.27,27.24
385.00,34.01,0.17,33.84,30.89,5.13,25.76,27.31,2.27,25.04
386.00,30.29,0.15,30.14,28.06,5.13,22.93,24.53,2.26,22.27
387.00,26.65,0.13,26.52,25.23,5.13,20.10,22.19,2.25,19.94
388.00,23.20,0.11,23.09,23.08,5.14,17.94,20.24,2.25,18.00
389.00,20.41,0.09,20.32,20.96,5.14,15.83,18.61,2.24,16.37
390.00,18.38,0.07,18.31,19.96,5.14,14.83,17.52,2.23,15.29
391.00,16.49,0.04,16.44,18.67,5.14,13.53,16.56,2.22,14.33
392.00,15.01,0.02,14.99,17.39,5.14,12.25,15.59,2.22,13.37
393.00,13.35,0.00,13.35,16.59,5.14,11.45,14.97,2.21,12.76
394.00,12.59,-0.02,12.61,15.86,5.14,10.72,14.50,2.20,12.30
395.00,11.57,-0.04,11.61,15.44,5.14,10.30,13.66,2.20,11.47
396.00,10.91,-0.06,10.97,14.95,5.14,9.81,13.44,2.19,11.26
397.00,10.33,-0.09,10.41,14.30,5.14,9.16,13.20,2.18,11.01
398.00,9.93,-0.11,10.03,14.16,5.14,9.02,12.95,2.17,10.77
399.00,9.32,-0.13,9.45,13.68,5.14,8.54,12.72,2.17,10.55
400.00,9.14,-0.15,9.29,13.52,5.15,8.37,12.32,2.16,10.16
401.00,8.79,-0.17,8.96,13.15,5.15,8.00,12.09,2.15,9.94
402.00,8.56,-0.19,8.75,12.99,5.15,7.84,11.69,2.15,9.54
403.00,8.63,-0.21,8.84,13.04,5.15,7.89,11.45,2.14,9.31
404.00,8.73,-0.24,8.97,12.95,5.15,7.80,11.28,2.13,9.15
405.00,7.93,-0.26,8.19,12.93,5.15,7.79,11.15,2.12,9.03
406.00,7.90,-0.28,8.18,12.83,5.15,7.68,10.91,2.12,8.80
407.00,7.51,-0.30,7.81,12.81,5.15,7.66,10.91,2.11,8.80
408.00,7.52,-0.32,7.84,12.58,5.15,7.42,10.72,2.10,8.61
409.00,7.36,-0.34,7.70,12.51,5.15,7.36,10.81,2.10,8.71
410.00,6.80,-0.37,7.17,12.67,5.15,7.52,10.56,2.09,8.47
411.00,7.00,-0.39,7.38,12.35,5.15,7.20,10.28,2.08,8.20
412.00,7.13,-0.41,7.54,11.96,5.15,6.81,10.13,2.07,8.05
413.00,6.82,-0.43,7.25,12.30,5.16,7.14,10.23,2.07,8.16
414.00,6.53,-0.45,6.98,12.44,5.16,7.28,10.09,2.06,8.03
415.00,6.76,-0.47,7.23,12.04,5.16,6.88,10.16,2.05,8.11
416.00,6.72,-0.50,7.21,12.16,5.16,7.00,9.98,2.05,7.93
417.00,6.58,-0.52,7.10,12.02,5.16,6.86,9.91,2.04,7.87
418.00,6.60,-0.54,7.13,12.00,5.16,6.84,9.93,2.03,7.90
419.00,5.74,-0.56,6.30,11.81,5.16,6.65,9.69,2.02,7.67
420.00,6.43,-0.58,7.02,11.89,5.16,6.73,9.74,2.02,7.72
421.00,5.86,-0.60,6.46,11.71,5.16,6.55,9.54,2.01,7.53
422.00,6.08,-0.63,6.71,11.46,5.16,6.30,9.51,2.00,7.51
423.00,6.00,-0.65,6.64,11.52,5.16,6.36,9.42,2.00,7.42
424.00,5.89,-0.67,6.56,11.51,5.16,6.34,9.35,1.99,7.36
425.00,5.49,-0.69,6.18,11.57,5.16,6.41,9.29,1.98,7.30
426.00,5.55,-0.71,6.27,11.08,5.17,5.91,9.33,1.97,7.36
427.00,5.19,-0.73,5.93,11.34,5.17,6.18,9.01,1.97,7.04
428.00,5.73,-0.76,6.48,11.04,5.17,5.87,9.09,1.96,7.13
429.00,5.36,-0.78,6.14,10.93,5.17,5.77,9.06,1.95,7.10
430.00,5.02,-0.80,5.82,10.87,5.17,5.71,9.07,1.95,7.13
431.00,4.89,-0.82,5.71,11.03,5.17,5.87,8.82,1.94,6.88
432.00,4.30,-0.84,5.14,10.94,5.17,5.77,8.57,1.93,6.64
433.00,4.34,-0.86,5.20,10.74,5.17,5.56,8.41,1.92,6.48
434.00,4.11,-0.89,5.00,10.94,5.17,5.76,8.31,1.92,6.40
435.00,3.91,-0.91,4.81,10.60,5.17,5.43,8.26,1.91,6.35
436.00,3.68,-0.93,4.61,10.51,5.17,5.34,8.03,1.90,6.13
437.00,3.77,-0.95,4.72,10.47,5.17,5.29,7.89,1.90,5.99
438.00,3.74,-0.97,4.71,10.49,5.17,5.31,7.80,1.89,5.91
439.00,3.54,-0.99,4.53,10.54,5.18,5.36,7.72,1.88,5.84
440.00,3.82,-1.01,4.84,10.54,5.18,5.36,7.79,1.87,5.92
441.00,3.63,-1.04,4.67,10.31,5.18,5.13,7.65,1.87,5.78
442.00,3.40,-1.06,4.46,10.03,5.18,4.85,7.56,1.86,5.71
443.00,3.30,-1.08,4.38,9.75,5.18,4.57,7.54,1.85,5.69
444.00,2.95,-1.10,4.05,9.89,5.18,4.71,7.47,1.85,5.62
445.00,3.17,-1.12,4.29,9.72,5.18,4.54,7.54,1.84,5.70
446.00,3.25,-1.14,4.39,9.66,5.18,4.47,7.43,1.83,5.60
447.00,3.31,-1.17,4.47,9.49,5.18,4.31,7.42,1.82,5.60
448.00,2.57,-1.19,3.76,9.41,5.18,4.22,7.15,1.82,5.33
449.00,2.66,-1.21,3.87,9.27,5.18,4.09,7.06,1.81,5.25
450.00,2.48,-1.23,3.71,9.29,5.18,4.11,6.98,1.80,5.18
451.00,2.81,-1.25,4.07,9.56,5.19,4.38,6.94,1.80,5.14
452.00,2.78,-1.27,4.06,9.11,5.19,3.93,7.09,1.79,5.30
453.00,2.43,-1.30,3.73,8.98,5.19,3.80,6.94,1.78,5.16
454.00,2.41,-1.32,3.73,9.05,5.19,3.86,6.80,1.77,5.02
455.00,2.31,-1.34,3.65,8.84,5.19,3.65,6.85,1.77,5.08
456.00,2.10,-1.36,3.46,8.92,5.19,3.73,6.63,1.76,4.87
457.00,2.06,-1.38,3.44,8.79,5.19,3.60,6.38,1.75,4.63
458.00,1.86,-1.40,3.26,8.71,5.19,3.52,6.54,1.75,4.80
459.00,2.27,-1.43,3.70,8.93,5.19,3.73,6.28,1.74,4.55
460.00,2.02,-1.45,3.47,8.47,5.19,3.28,6.15,1.73,4.42
461.00,1.72,-1.47,3.19,8.60,5.19,3.40,6.14,1.72,4.42
462.00,2.02,-1.49,3.51,8.64,5.19,3.44,6.19,1.72,4.47
463.00,1.81,-1.51,3.32,8.60,5.19,3.40,6.16,1.71,4.45
464.00,1.78,-1.53,3.31,8.28,5.20,3.09,6.14,1.70,4.44
465.00,1.62,-1.56,3.17,8.29,5.20,3.10,5.99,1.70,4.30
466.00,1.80,-1.58,3.38,8.17,5.20,2.97,5.87,1.69,4.18
467.00,1.62,-1.60,3.22,7.95,5.20,2.75,5.90,1.68,4.22
468.00,1.42,-1.62,3.04,8.20,5.20,3.00,5.90,1.67,4.23
469.00,1.63,-1.64,3.27,8.21,5.20,3.01,5.75,1.67,4.08
470.00,1.61,-1.66,3.28,8.26,5.20,3.06,5.66,1.66,4.00
471.00,1.07,-1.69,2.75,8.36,5.20,3.16,5.64,1.65,3.98
472.00,0.99,-1.71,2.69,8.50,5.20,3.30,5.33,1.65,3.69
473.00,1.22,-1.73,2.95,8.22,5.20,3.01,5.26,1.64,3.62
474.00,1.05,-1.75,2.80,8.16,5.20,2.95,5.21,1.63,3.58
475.00,1.05,-1.77,2.83,8.08,5.20,2.88,5.33,1.62,3.70
476.00,0.66,-1.79,2.45,8.14,5.20,2.93,5.14,1.62,3.53
477.00,0.66,-1.81,2.48,8.29,5.21,3.08,5.32,1.61,3.71
478.00,0.97,-1.84,2.80,7.98,5.21,2.78,5.08,1.60,3.48
479.00,0.68,-1.86,2.54,7.27,5.21,2.06,5.16,1.60,3.56
480.00,0.74,-1.88,2.62,7.73,5.21,2.52,5.14,1.59,3.55
481.00,0.61,-1.90,2.51,7.62,5.21,2.41,5.17,1.58,3.59
482.00,0.28,-1.92,2.20,7.52,5.21,2.31,5.10,1.57,3.52
483.00,0.28,-1.94,2.23,7.41,5.21,2.20,5.13,1.57,3.56
484.00,0.05,-1.97,2.01,7.45,5.21,2.24,5.11,1.56,3.55
485.00,-0.03,-1.99,1.96,7.38,5.21,2.16,4.97,1.55,3.42
486.00,0.29,-2.01,2.29,7.64,5.21,2.43,4.87,1.55,3.33
487.00,0.18,-2.03,2.21,7.37,5.21,2.16,4.89,1.54,3.36
488.00,-0.01,-2.05,2.04,7.48,5.21,2.27,4.83,1.53,3.30
489.00,0.26,-2.07,2.34,6.81,5.22,1.60,4.89,1.52,3.37
490.00,0.09,-2.10,2.18,7.51,5.22,2.29,4.75,1.52,3.23
491.00,-0.23,-2.12,1.89,7.04,5.22,1.82,4.87,1.51,3.36
492.00,-0.36,-2.14,1.78,7.54,5.22,2.32,4.97,1.50,3.46
493.00,-0.57,-2.16,1.59,7.38,5.22,2.16,4.80,1.50,3.30
494.00,-0.85,-2.18,1.33,7.69,5.22,2.47,4.76,1.49,3.27
495.00,-0.63,-2.20,1.57,7.52,5.22,2.30,4.42,1.48,2.94
496.00,-0.64,-2.23,1.59,7.12,5.22,1.90,4.25,1.47,2.78
497.00,-0.74,-2.25,1.51,6.96,5.22,1.74,4.27,1.47,2.80
498.00,-1.00,-2.27,1.27,7.21,5.22,1.98,4.30,1.46,2.84
499.00,-1.10,-2.29,1.19,7.30,5.22,2.08,4.22,1.45,2.76
500.00,-0.83,-2.31,1.48,7.08,5.22,1.85,4.13,1.45,2.68
501.00,-1.38,-2.33,0.95,7.20,5.22,1.98,4.43,1.44,2.99
502.00,-1.29,-2.36,1.07,7.07,5.23,1.84,4.20,1.43,2.77
503.00,-1.58,-2.38,0.79,7.06,5.23,1.84,4.03,1.42,2.61
504.00,-1.44,-2.40,0.95,6.96,5.23,1.74,4.10,1.42,2.69
505.00,-1.38,-2.42,1.04,7.39,5.23,2.16,4.09,1.41,2.68
506.00,-1.65,-2.44,0.79,7.07,5.23,1.84,4.12,1.40,2.72
507.00,-1.37,-2.46,1.09,7.01,5.23,1.78,3.88,1.40,2.48
508.00,-1.45,-2.49,1.04,7.16,5.23,1.93,3.89,1.39,2.50
509.00,-1.24,-2.51,1.27,7.07,5.23,1.84,3.79,1.38,2.41
510.00,-1.72,-2.53,0.81,6.88,5.23,1.65,3.58,1.37,2.20
511.00,-1.25,-2.55,1.30,6.84,5.23,1.61,4.00,1.37,2.63
512.00,-1.31,-2.57,1.26,6.92,5.23,1.68,3.59,1.36,2.23
513.00,-1.59,-2.59,1.00,6.95,5.23,1.71,3.60,1.35,2.25
514.00,-1.53,-2.61,1.09,6.80,5.23,1.56,3.46,1.35,2.11
515.00,-1.72,-2.64,0.91,6.86,5.24,1.63,3.72,1.34,2.38
516.00,-2.05,-2.66,0.61,6.89,5.24,1.66,3.75,1.33,2.42
517.00,-1.80,-2.68,0.88,6.93,5.24,1.69,3.58,1.32,2.26
518.00,-1.80,-2.70,0.90,6.74,5.24,1.50,3.61,1.32,2.29
519.00,-1.67,-2.72,1.05,6.75,5.24,1.52,3.61,1.31,2.30
520.00,-1.54,-2.74,1.21,6.68,5.24,1.44,3.38,1.30,2.08
521.00,-1.52,-2.77,1.25,6.65,5.24,1.41,3.48,1.29,2.19
522.00,-1.81,-2.79,0.98,6.45,5.24,1.21,3.51,1.29,2.23
523.00,-2.01,-2.81,0.80,6.32,5.24,1.08,3.50,1.28,2.22
524.00,-2.46,-2.83,0.37,6.40,5.24,1.15,3.55,1.27,2.27
525.00,-2.10,-2.85,0.75,6.21,5.24,0.97,3.23,1.27,1.96
526.00,-2.19,-2.87,0.68,6.31,5.24,1.07,3.26,1.26,2.00
527.00,-1.79,-2.90,1.11,6.55,5.25,1.31,3.34,1.25,2.08
528.00,-1.95,-2.92,0.96,6.36,5.25,1.12,3.27,1.24,2.02
529.00,-1.85,-2.94,1.09,6.73,5.25,1.49,3.51,1.24,2.27
530.00,-2.34,-2.96,0.62,6.65,5.25,1.40,3.14,1.23,1.91
531.00,-2.31,-2.98,0.67,6.27,5.25,1.02,3.08,1.22,1.86
532.00,-2.22,-3.00,0.78,6.69,5.25,1.44,3.28,1.22,2.06
533.00,-2.27,-3.03,0.75,6.51,5.25,1.26,3.00,1.21,1.80
534.00,-2.54,-3.05,0.51,6.39,5.25,1.13,2.88,1.20,1.68
535.00,-2.57,-3.07,0.50,6.45,5.25,1.19,2.93,1.19,1.74
536.00,-2.43,-3.09,0.66,6.54,5.25,1.29,2.85,1.19,1.67
537.00,-2.35,-3.11,0.77,6.09,5.25,0.83,2.94,1.18,1.76
538.00,-2.22,-3.13,0.91,6.33,5.25,1.07,2.84,1.17,1.66
539.00,-2.46,-3.16,0.70,6.48,5.25,1.23,2.97,1.17,1.81
540.00,-2.60,-3.18,0.58,6.51,5.26,1.25,2.94,1.16,1.78
541.00,-2.70,-3.20,0.50,6.50,5.26,1.24,2.84,1.15,1.69
542.00,-2.93,-3.22,0.29,6.39,5.26,1.13,2.92,1.14,1.78
543.00,-3.02,-3.24,0.22,6.45,5.26,1.19,2.76,1.14,1.62
544.00,-2.73,-3.26,0.53,6.27,5.26,1.01,2.82,1.13,1.69
545.00,-2.93,-3.29,0.36,6.31,5.26,1.05,2.81,1.12,1.69
546.00,-3.01,-3.31,0.30,6.46,5.26,1.20,2.86,1.12,1.74
547.00,-2.71,-3.33,0.62,6.47,5.26,1.21,2.82,1.11,1.71
548.00,-3.06,-3.35,0.29,6.26,5.26,0.99,2.83,1.10,1.73
549.00,-3.26,-3.37,0.11,6.31,5.26,1.05,2.91,1.09,1.82
550.00,-3.65,-3.39,-0.25,6.18,5.26,0.92,2.75,1.09,1.66
551.00,-3.41,-3.41,0.01,6.28,5.26,1.01,2.85,1.08,1.77
552.00,-3.34,-3.44,0.10,6.56,5.26,1.30,2.73,1.07,1.66
553.00,-3.48,-3.46,-0.02,6.34,5.27,1.08,2.64,1.07,1.58
554.00,-3.56,-3.48,-0.08,6.26,5.27,0.99,2.51,1.06,1.45
555.00,-3.66,-3.50,-0.16,6.39,5.27,1.13,2.57,1.05,1.52
556.00,-3.76,-3.52,-0.24,6.54,5.27,1.27,2.57,1.04,1.53
557.00,-4.17,-3.54,-0.63,6.33,5.27,1.07,2.50,1.04,1.47
558.00,-3.63,-3.57,-0.07,6.38,5.27,1.11,2.32,1.03,1.29
559.00,-3.66,-3.59,-0.08,6.38,5.27,1.11,2.41,1.02,1.39
560.00,-3.72,-3.61,-0.11,6.26,5.27,0.99,2.25,1.02,1.24
561.00,-3.83,-3.63,-0.20,6.26,5.27,0.99,2.35,1.01,1.34
562.00,-3.90,-3.65,-0.25,5.89,5.27,0.62,2.30,1.00,1.30
563.00,-4.18,-3.67,-0.51,5.75,5.27,0.47,2.36,0.99,1.37
564.00,-3.71,-3.70,-0.01,6.04,5.27,0.77,2.36,0.99,1.37
565.00,-3.86,-3.72,-0.15,5.84,5.28,0.56,2.04,0.98,1.06
566.00,-3.84,-3.74,-0.10,5.74,5.28,0.46,2.39,0.97,1.42
567.00,-3.85,-3.76,-0.09,5.81,5.28,0.54,2.04,0.97,1.08
568.00,-4.04,-3.78,-0.26,5.93,5.28,0.66,2.23,0.96,1.27
569.00,-4.09,-3.80,-0.29,5.96,5.28,0.68,2.07,0.95,1.11
570.00,-4.11,-3.83,-0.29,6.09,5.28,0.81,2.16,0.94,1.22
571.00,-4.00,-3.85,-0.16,5.95,5.28,0.67,2.16,0.94,1.23
572.00,-3.83,-3.87,0.04,5.82,5.28,0.53,2.13,0.93,1.20
573.00,-3.99,-3.89,-0.10,5.78,5.28,0.50,2.01,0.92,1.09
574.00,-4.22,-3.91,-0.31,5.96,5.28,0.67,2.20,0.92,1.29
575.00,-4.07,-3.93,-0.14,5.89,5.28,0.60,2.19,0.91,1.28
576.00,-4.18,-3.96,-0.23,5.73,5.28,0.45,1.96,0.90,1.06
577.00,-4.04,-3.98,-0.06,5.53,5.28,0.25,2.10,0.89,1.21
578.00,-4.40,-4.00,-0.40,5.66,5.29,0.38,1.85,0.89,0.96
579.00,-4.23,-4.02,-0.21,5.54,5.29,0.25,1.79,0.88,0.91
580.00,-4.41,-4.04,-0.37,5.50,5.29,0.22,2.12,0.87,1.25
581.00,-4.56,-4.06,-0.50,5.49,5.29,0.21,1.82,0.87,0.95
582.00,-4.85,-4.09,-0.76,5.52,5.29,0.23,1.70,0.86,0.84
583.00,-4.60,-4.11,-0.50,5.57,5.29,0.28,1.65,0.85,0.80
584.00,-4.56,-4.13,-0.44,5.58,5.29,0.29,0.97,0.84,0.12
585.00,-4.83,-4.15,-0.68,5.71,5.29,0.41,1.00,0.84,0.16
586.00,-4.73,-4.17,-0.56,5.70,5.29,0.41,1.60,0.83,0.77
587.00,-4.93,-4.19,-0.73,5.70,5.29,0.40,1.81,0.82,0.99
588.00,-4.68,-4.21,-0.46,5.71,5.29,0.42,1.77,0.82,0.96
589.00,-4.73,-4.24,-0.49,5.51,5.29,0.22,1.65,0.81,0.84
590.00,-4.62,-4.26,-0.37,5.72,5.29,0.43,1.83,0.80,1.03
591.00,-4.52,-4.28,-0.24,5.61,5.30,0.31,1.72,0.79,0.93
592.00,-4.59,-4.30,-0.29,5.55,5.30,0.26,1.71,0.79,0.92
593.00,-4.81,-4.32,-0.49,5.61,5.30,0.31,1.70,0.78,0.92
594.00,-5.01,-4.34,-0.67,5.49,5.30,0.19,1.44,0.77,0.67
595.00,-4.97,-4.37,-0.61,5.41,5.30,0.11,1.51,0.77,0.74
596.00,-4.92,-4.39,-0.53,5.75,5.30,0.45,1.57,0.76,0.81
597.00,-4.77,-4.41,-0.37,5.94,5.30,0.64,1.72,0.75,0.97
598.00,-4.82,-4.43,-0.39,5.59,5.30,0.29,1.64,0.74,0.90
599.00,-5.01,-4.45,-0.56,5.89,5.30,0.59,1.59,0.74,0.85
600.00,-4.98,-4.47,-0.50,5.81,5.30,0.50,1.47,0.73,0.74
601.00,-4.92,-4.50,-0.43,5.64,5.30,0.33,1.59,0.72,0.87
602.00,-4.89,-4.52,-0.37,5.91,5.30,0.61,1.47,0.72,0.76
603.00,-5.20,-4.54,-0.67,5.67,5.31,0.37,1.46,0.71,0.75
604.00,-4.99,-4.56,-0.43,5.70,5.31,0.40,1.42,0.70,0.72
605.00,-5.17,-4.58,-0.59,5.64,5.31,0.33,1.48,0.69,0.79
606.00,-4.98,-4.60,-0.38,5.73,5.31,0.43,1.43,0.69,0.74
607.00,-5.03,-4.63,-0.40,5.76,5.31,0.45,1.45,0.68,0.77
608.00,-5.01,-4.65,-0.37,5.48,5.31,0.17,1.62,0.67,0.95
609.00,-4.83,-4.67,-0.16,5.48,5.31,0.17,1.42,0.67,0.75
610.00,-4.92,-4.69,-0.23,5.12,5.31,-0.19,1.46,0.66,0.80
611.00,-4.71,-4.71,0.00,5.31,5.31,0.00,1.49,0.65,0.84
612.00,-5.07,-4.73,-0.34,5.11,5.31,-0.20,1.23,0.64,0.59
613.00,-5.05,-4.76,-0.30,5.30,5.31,-0.01,1.32,0.64,0.68
614.00,-4.94,-4.78,-0.16,5.27,5.31,-0.05,1.24,0.63,0.61
615.00,-4.46,-4.80,0.34,5.15,5.31,-0.16,1.36,0.62,0.74
616.00,-4.77,-4.82,0.05,5.35,5.32,0.03,1.31,0.62,0.69
617.00,-5.01,-4.84,-0.17,5.32,5.32,-0.00,1.12,0.61,0.51
618.00,-5.16,-4.86,-0.30,5.21,5.32,-0.11,1.11,0.60,0.51
619.00,-5.31,-4.88,-0.42,5.12,5.32,-0.20,0.97,0.59,0.38
620.00,-5.39,-4.91,-0.48,5.16,5.32,-0.15,0.72,0.59,0.13
621.00,-5.67,-4.93,-0.74,5.20,5.32,-0.11,0.83,0.58,0.25
622.00,-5.35,-4.95,-0.40,5.07,5.32,-0.25,0.79,0.57,0.21
623.00,-5.58,-4.97,-0.61,5.05,5.32,-0.27,0.86,0.57,0.29
624.00,-5.53,-4.99,-0.54,5.02,5.32,-0.30,0.98,0.56,0.42
625.00,-5.46,-5.01,-0.44,4.98,5.32,-0.34,1.12,0.55,0.56
626.00,-5.43,-5.04,-0.40,5.06,5.32,-0.26,1.01,0.54,0.47
627.00,-5.48,-5.06,-0.42,5.21,5.32,-0.11,0.94,0.54,0.40
628.00,-5.21,-5.08,-0.13,5.07,5.32,-0.26,1.11,0.53,0.58
629.00,-5.58,-5.10,-0.48,4.99,5.33,-0.34,0.89,0.52,0.36
630.00,-5.30,-5.12,-0.17,4.99,5.33,-0.34,1.06,0.52,0.54
631.00,-5.46,-5.14,-0.31,5.03,5.33,-0.30,0.93,0.51,0.42
632.00,-5.39,-5.17,-0.22,4.88,5.33,-0.44,0.99,0.50,0.49
633.00,-5.50,-5.19,-0.31,5.17,5.33,-0.16,0.94,0.49,0.45
634.00,-5.61,-5.21,-0.40,4.93,5.33,-0.40,0.90,0.49,0.41
635.00,-5.49,-5.23,-0.26,5.12,5.33,-0.21,0.81,0.48,0.33
636.00,-5.67,-5.25,-0.42,5.40,5.33,0.07,0.99,0.47,0.52
637.00,-5.67,-5.27,-0.39,5.10,5.33,-0.23,0.98,0.47,0.52
638.00,-5.78,-5.30,-0.48,5.11,5.33,-0.23,0.92,0.46,0.46
639.00,-5.75,-5.32,-0.43,5.31,5.33,-0.03,0.82,0.45,0.37
640.00,-5.77,-5.34,-0.43,5.09,5.33,-0.25,0.93,0.44,0.49
641.00,-5.72,-5.36,-0.36,5.07,5.34,-0.27,0.89,0.44,0.46
642.00,-5.83,-5.38,-0.45,5.17,5.34,-0.16,0.79,0.43,0.36
643.00,-6.00,-5.40,-0.60,5.06,5.34,-0.28,0.79,0.42,0.37
644.00,-5.85,-5.43,-0.43,5.13,5.34,-0.20,0.82,0.42,0.40
645.00,-6.08,-5.45,-0.64,4.95,5.34,-0.39,0.92,0.41,0.51
646.00,-5.82,-5.47,-0.35,5.33,5.34,-0.01,0.61,0.40,0.21
647.00,-5.88,-5.49,-0.39,5.27,5.34,-0.07,0.74,0.39,0.35
648.00,-6.01,-5.51,-0.50,5.17,5.34,-0.17,0.72,0.39,0.34
649.00,-5.93,-5.53,-0.39,5.37,5.34,0.02,0.51,0.38,0.13
650.00,-5.78,-5.56,-0.23,5.16,5.34,-0.18,0.81,0.37,0.44
651.00,-5.63,-5.58,-0.05,5.40,5.34,0.05,0.74,0.37,0.37
652.00,-5.99,-5.60,-0.39,5.34,5.34,-0.01,0.67,0.36,0.31
653.00,-5.98,-5.62,-0.36,5.22,5.34,-0.12,0.65,0.35,0.30
654.00,-5.75,-5.64,-0.11,5.08,5.35,-0.26,0.81,0.34,0.47
655.00,-5.86,-5.66,-0.20,5.28,5.35,-0.07,0.64,0.34,0.30
656.00,-6.14,-5.68,-0.45,5.15,5.35,-0.20,0.72,0.33,0.39
657.00,-6.29,-5.71,-0.59,5.14,5.35,-0.21,0.78,0.32,0.46
658.00,-5.82,-5.73,-0.10,5.19,5.35,-0.15,0.59,0.32,0.27
659.00,-6.14,-5.75,-0.39,5.34,5.35,-0.01,0.87,0.31,0.56
660.00,-6.29,-5.77,-0.52,5.24,5.35,-0.11,0.84,0.30,0.54
661.00,-6.00,-5.79,-0.20,5.17,5.35,-0.18,0.72,0.29,0.43
662.00,-6.27,-5.81,-0.46,5.29,5.35,-0.07,0.71,0.29,0.43
663.00,-6.23,-5.84,-0.40,5.36,5.35,0.01,0.72,0.28,0.44
664.00,-6.07,-5.86,-0.21,5.19,5.35,-0.16,0.93,0.27,0.66
665.00,-6.30,-5.88,-0.42,5.55,5.35,0.19,0.68,0.27,0.42
666.00,-6.33,-5.90,-0.43,5.12,5.35,-0.24,0.70,0.26,0.44
667.00,-6.35,-5.92,-0.42,5.15,5.36,-0.20,0.61,0.25,0.36
668.00,-6.25,-5.94,-0.31,5.10,5.36,-0.26,0.55,0.24,0.31
669.00,-6.15,-5.97,-0.18,5.47,5.36,0.11,0.42,0.24,0.19
670.00,-6.16,-5.99,-0.17,5.61,5.36,0.26,0.43,0.23,0.20
671.00,-6.28,-6.01,-0.27,5.44,5.36,0.08,0.46,0.22,0.24
672.00,-6.20,-6.03,-0.16,5.45,5.36,0.09,0.39,0.22,0.17
673.00,-6.02,-6.05,0.03,5.38,5.36,0.02,0.13,0.21,-0.07
674.00,-6.16,-6.07,-0.09,5.40,5.36,0.04,0.56,0.20,0.36
675.00,-6.02,-6.10,0.07,5.30,5.36,-0.07,0.57,0.19,0.38
676.00,-6.29,-6.12,-0.18,5.08,5.36,-0.28,0.50,0.19,0.31
677.00,-5.87,-6.14,0.27,5.35,5.36,-0.01,0.28,0.18,0.10
678.00,-5.89,-6.16,0.27,5.41,5.36,0.04,0.30,0.17,0.13
679.00,-6.22,-6.18,-0.04,5.24,5.37,-0.12,0.33,0.17,0.16
680.00,-5.90,-6.20,0.31,5.26,5.37,-0.11,0.28,0.16,0.12
681.00,-5.98,-6.23,0.25,4.79,5.37,-0.58,0.35,0.15,0.20
682.00,-6.16,-6.25,0.08,5.02,5.37,-0.34,0.23,0.14,0.09
683.00,-5.96,-6.27,0.31,5.27,5.37,-0.10,0.08,0.14,-0.06
684.00,-5.98,-6.29,0.31,5.23,5.37,-0.14,0.14,0.13,0.01
685.00,-6.49,-6.31,-0.18,5.09,5.37,-0.28,0.20,0.12,0.08
686.00,-6.36,-6.33,-0.03,5.21,5.37,-0.16,0.20,0.12,0.08
687.00,-6.13,-6.36,0.22,5.09,5.37,-0.28,0.11,0.11,0.00
688.00,-6.25,-6.38,0.13,5.02,5.37,-0.35,0.26,0.10,0.16
689.00,-6.44,-6.40,-0.04,5.37,5.37,0.00,0.07,0.09,-0.02
690.00,-6.43,-6.42,-0.01,5.34,5.37,-0.04,0.04,0.09,-0.04
691.00,-5.90,-6.44,0.54,5.34,5.37,-0.03,0.01,0.08,-0.06
692.00,-6.38,-6.46,0.09,5.37,5.38,-0.01,0.15,0.07,0.08
693.00,-6.34,-6.48,0.15,5.26,5.38,-0.12,0.23,0.07,0.17
694.00,-6.45,-6.51,0.06,5.44,5.38,0.06,0.11,0.06,0.05
695.00,-6.25,-6.53,0.28,5.45,5.38,0.07,0.18,0.05,0.13
696.00,-6.51,-6.55,0.04,5.52,5.38,0.14,0.04,0.04,-0.01
697.00,-6.81,-6.57,-0.24,5.48,5.38,0.10,0.16,0.04,0.12
698.00,-6.57,-6.59,0.02,5.56,5.38,0.18,0.43,0.03,0.40
699.00,-6.63,-6.61,-0.02,5.50,5.38,0.12,0.19,0.02,0.17
700.00,-6.64,-6.64,0.00,5.38,5.38,0.00,0.01,0.01,-0.00