File: 01_Data/MDF/MCC/MDF_MCC_30K_min_210308_R3.txt
Sample ID:	C:\MCC\MCC Cal\Test\MDF_30_3.txt
Sample Weight (mg):	5.97
Heating Rate (C/s):	0.5
Combustor Temp (C):	900
N2 Flow Rate (cc/min):	80
O2 Flow Rate (cc/min):	20
Calibration File:	C:\MCC\MCC Cal\Coeff1 JN10440_30_210304.txt.txt
T Correction Coefficients:	0	1.024463	0
Time Shift (s):	14
*
Time (s)	Temperature (C)	N2 flow rate (cc/min)	O2 flow rate (cc/min)	Flow Rate (cc/min)	Oxygen (%)	HRR (W/g)	Heating rate (C/s)
0.000	108.867	79.993	19.991	99.602	20.359	0.066	-0.026
1.500	108.846	79.994	19.993	99.602	20.360	0.011	-0.035
3.000	108.816	79.994	19.991	99.602	20.363	-0.113	-0.014
4.500	108.819	79.994	19.992	99.609	20.359	0.058	-0.011
6.000	108.822	79.994	19.991	99.614	20.360	0.027	0.020
7.500	108.826	79.993	19.991	99.607	20.358	0.138	0.007
9.000	108.837	79.993	19.991	99.607	20.356	0.213	-0.007
10.500	108.801	79.993	19.991	99.618	20.357	0.201	-0.009
12.001	108.798	79.995	19.992	99.612	20.353	0.386	-0.001
13.500	108.815	79.994	19.992	99.612	20.356	0.262	-0.015
15.000	108.828	79.993	19.992	99.634	20.353	0.371	0.009
16.500	108.812	79.994	19.991	99.629	20.354	0.327	-0.006
18.000	108.847	79.996	19.991	99.593	20.354	0.364	0.015
19.500	108.863	79.995	19.991	99.636	20.358	0.114	0.017
21.001	108.828	79.996	19.991	99.702	20.359	0.081	-0.006
22.501	108.811	79.995	19.991	99.671	20.355	0.311	-0.007
24.000	108.823	79.995	19.991	99.678	20.353	0.374	0.008
25.500	108.881	79.995	19.990	99.703	20.342	0.984	0.042
27.000	108.949	79.995	19.991	99.729	20.340	1.064	0.028
28.500	109.007	79.995	19.991	99.768	20.337	1.254	0.042
30.000	109.083	79.994	19.992	99.792	20.333	1.428	0.062
31.500	109.227	79.994	19.991	99.793	20.328	1.720	0.100
33.000	109.333	79.994	19.991	99.795	20.329	1.638	0.068
34.501	109.448	79.993	19.991	99.796	20.325	1.873	0.084
36.000	109.612	79.995	19.991	99.797	20.326	1.780	0.104
37.501	109.751	79.994	19.991	99.798	20.325	1.876	0.099
39.000	109.931	79.994	19.991	99.804	20.324	1.895	0.113
40.500	110.088	79.994	19.992	99.807	20.322	1.989	0.107
42.000	110.324	79.992	19.992	99.811	20.321	2.088	0.141
43.500	110.544	79.993	19.991	99.824	20.322	2.017	0.142
45.000	110.755	79.996	19.992	99.833	20.323	1.977	0.157
46.500	111.047	79.995	19.991	99.844	20.316	2.311	0.204
48.000	111.247	79.994	19.992	99.843	20.317	2.254	0.164
49.500	111.545	79.993	19.991	99.851	20.315	2.360	0.195
51.001	111.834	79.994	19.992	99.859	20.312	2.536	0.215
52.500	112.150	79.994	19.992	99.858	20.312	2.558	0.198
54.000	112.477	79.993	19.992	99.869	20.308	2.763	0.198
55.500	112.777	79.993	19.991	99.880	20.307	2.805	0.189
57.000	113.185	79.993	19.991	99.881	20.308	2.727	0.274
58.501	113.569	79.992	19.991	99.891	20.304	2.940	0.246
60.000	113.968	79.992	19.991	99.906	20.306	2.854	0.260
61.500	114.348	79.992	19.992	99.909	20.303	3.026	0.257
63.000	114.734	79.993	19.992	99.923	20.305	2.921	0.249
64.500	115.176	79.992	19.992	99.926	20.303	2.996	0.303
66.000	115.618	79.992	19.991	99.918	20.305	2.895	0.297
67.500	116.085	79.993	19.992	99.917	20.300	3.158	0.285
69.000	116.572	79.993	19.992	99.916	20.301	3.087	0.318
70.500	117.058	79.993	19.992	99.919	20.303	3.031	0.317
72.000	117.593	79.994	19.991	99.921	20.303	3.016	0.338
73.500	118.052	79.994	19.991	99.925	20.301	3.109	0.305
75.000	118.572	79.994	19.992	99.932	20.299	3.216	0.340
76.500	119.159	79.994	19.992	99.937	20.301	3.126	0.381
78.000	119.746	79.994	19.991	99.952	20.298	3.255	0.351
79.500	120.282	79.995	19.991	99.953	20.299	3.224	0.367
81.000	120.833	79.993	19.992	99.951	20.296	3.394	0.372
82.501	121.475	79.994	19.993	99.943	20.297	3.327	0.448
84.000	122.070	79.993	19.991	99.940	20.295	3.416	0.403
85.500	122.696	79.992	19.991	99.942	20.291	3.613	0.415
87.000	123.309	79.993	19.992	99.949	20.293	3.514	0.397
88.500	123.925	79.992	19.993	99.950	20.293	3.523	0.405
90.000	124.554	79.993	19.992	99.950	20.292	3.593	0.418
91.500	125.243	79.993	19.991	99.938	20.296	3.361	0.475
93.000	125.873	79.993	19.992	99.940	20.296	3.375	0.434
94.500	126.479	79.996	19.991	99.949	20.297	3.334	0.424
96.001	127.171	79.995	19.990	99.954	20.295	3.431	0.443
97.500	127.884	79.996	19.991	99.953	20.295	3.430	0.460
99.000	128.549	79.996	19.991	99.954	20.294	3.456	0.433
100.501	129.252	79.996	19.990	99.959	20.298	3.277	0.472
102.002	129.974	79.996	19.991	99.953	20.293	3.513	0.480
103.500	130.722	79.997	19.991	99.951	20.296	3.395	0.484
105.001	131.451	79.995	19.990	99.951	20.296	3.379	0.506
106.500	132.164	79.994	19.990	99.951	20.296	3.392	0.458
108.000	132.937	79.994	19.992	99.954	20.294	3.492	0.512
109.501	133.691	79.994	19.991	99.954	20.298	3.259	0.510
111.001	134.449	79.993	19.991	99.951	20.298	3.242	0.510
112.500	135.194	79.995	19.991	99.951	20.296	3.358	0.477
114.001	135.932	79.993	19.991	99.951	20.297	3.338	0.509
115.501	136.677	79.994	19.991	99.945	20.296	3.377	0.500
117.000	137.469	79.993	19.992	99.941	20.294	3.492	0.531
118.500	138.240	79.994	19.991	99.932	20.294	3.453	0.520
120.001	139.025	79.994	19.991	99.927	20.292	3.570	0.545
121.500	139.743	79.995	19.991	99.929	20.295	3.412	0.472
123.000	140.548	79.994	19.990	99.936	20.294	3.476	0.528
124.500	141.377	79.994	19.990	99.945	20.291	3.628	0.544
126.000	142.132	79.994	19.991	99.934	20.291	3.609	0.515
127.500	142.935	79.994	19.990	99.922	20.291	3.626	0.547
129.000	143.687	79.995	19.990	99.917	20.293	3.510	0.513
130.500	144.445	79.995	19.990	99.919	20.293	3.514	0.514
132.000	145.295	79.995	19.991	99.920	20.292	3.576	0.560
133.500	146.041	79.994	19.990	99.918	20.295	3.409	0.508
135.000	146.829	79.992	19.990	99.922	20.297	3.317	0.537
136.500	147.584	79.994	19.991	99.921	20.298	3.264	0.527
138.000	148.402	79.993	19.992	99.920	20.299	3.194	0.544
139.500	149.200	79.992	19.992	99.919	20.297	3.327	0.527
141.000	149.905	79.992	19.991	99.917	20.299	3.208	0.455
142.500	150.702	79.991	19.992	99.919	20.301	3.115	0.530
144.000	151.546	79.994	19.992	99.918	20.303	3.024	0.553
145.500	152.325	79.993	19.991	99.917	20.303	3.004	0.522
147.000	153.114	79.993	19.991	99.917	20.303	3.024	0.532
148.500	153.856	79.994	19.992	99.917	20.305	2.875	0.475
150.000	154.654	79.994	19.992	99.916	20.305	2.927	0.549
151.500	155.414	79.993	19.992	99.917	20.304	2.941	0.523
153.000	156.192	79.994	19.991	99.913	20.304	2.944	0.523
154.500	156.983	79.994	19.991	99.914	20.308	2.726	0.537
156.000	157.735	79.995	19.991	99.914	20.307	2.792	0.506
157.500	158.562	79.995	19.991	99.913	20.306	2.846	0.530
159.001	159.333	79.996	19.990	99.912	20.306	2.839	0.506
160.500	160.109	79.995	19.992	99.912	20.305	2.921	0.520
162.000	160.881	79.995	19.992	99.911	20.305	2.912	0.503
163.500	161.641	79.994	19.991	99.908	20.304	2.957	0.517
165.000	162.411	79.994	19.992	99.909	20.303	3.018	0.543
166.500	163.167	79.993	19.992	99.910	20.304	2.958	0.510
168.000	163.945	79.993	19.992	99.903	20.305	2.919	0.536
169.500	164.719	79.993	19.992	99.900	20.298	3.258	0.535
171.000	165.512	79.994	19.992	99.911	20.303	2.994	0.498
172.501	166.229	79.994	19.992	99.908	20.304	2.964	0.475
174.000	166.964	79.994	19.993	99.910	20.306	2.869	0.495
175.500	167.716	79.995	19.992	99.909	20.303	3.016	0.488
177.000	168.455	79.995	19.991	99.901	20.304	2.971	0.504
178.500	169.232	79.994	19.992	99.895	20.299	3.206	0.507
180.000	170.000	79.994	19.991	99.896	20.301	3.088	0.507
181.500	170.701	79.995	19.991	99.902	20.299	3.210	0.453
183.001	171.463	79.997	19.990	99.910	20.298	3.250	0.502
184.500	172.181	79.996	19.990	99.906	20.303	3.015	0.491
186.000	172.975	79.996	19.990	99.906	20.299	3.201	0.510
187.500	173.681	79.995	19.990	99.911	20.302	3.079	0.463
189.000	174.348	79.995	19.991	99.915	20.302	3.057	0.450
190.500	175.104	79.992	19.991	99.903	20.301	3.130	0.531
192.000	175.851	79.992	19.992	99.883	20.301	3.131	0.503
193.500	176.607	79.993	19.991	99.884	20.300	3.139	0.495
195.000	177.312	79.994	19.991	99.889	20.297	3.332	0.470
196.500	178.081	79.992	19.991	99.897	20.299	3.205	0.526
198.000	178.804	79.994	19.990	99.888	20.298	3.244	0.483
199.500	179.525	79.991	19.991	99.901	20.300	3.185	0.476
201.000	180.259	79.993	19.991	99.910	20.300	3.178	0.489
202.500	180.968	79.992	19.991	99.911	20.298	3.272	0.472
204.000	181.754	79.993	19.990	99.898	20.297	3.297	0.510
205.500	182.433	79.992	19.991	99.899	20.295	3.433	0.455
207.000	183.117	79.991	19.991	99.912	20.294	3.463	0.453
208.500	183.882	79.991	19.991	99.913	20.297	3.331	0.500
210.000	184.625	79.992	19.990	99.909	20.296	3.391	0.484
211.500	185.363	79.994	19.989	99.911	20.294	3.489	0.481
213.000	186.112	79.994	19.991	99.908	20.294	3.473	0.510
214.500	186.844	79.994	19.990	99.913	20.295	3.399	0.476
216.000	187.539	79.993	19.990	99.913	20.298	3.271	0.464
217.500	188.280	79.994	19.990	99.912	20.295	3.413	0.489
219.000	189.013	79.994	19.990	99.898	20.295	3.421	0.509
220.500	189.727	79.994	19.991	99.887	20.292	3.556	0.480
222.000	190.459	79.992	19.991	99.894	20.291	3.610	0.495
223.500	191.138	79.993	19.991	99.908	20.294	3.494	0.446
225.000	191.895	79.992	19.991	99.900	20.291	3.607	0.493
226.500	192.605	79.991	19.992	99.898	20.292	3.571	0.477
228.000	193.315	79.992	19.992	99.910	20.292	3.561	0.450
229.500	193.993	79.992	19.992	99.912	20.292	3.597	0.469
231.000	194.754	79.993	19.991	99.911	20.292	3.597	0.507
232.500	195.482	79.994	19.991	99.906	20.291	3.615	0.466
234.000	196.233	79.994	19.992	99.909	20.291	3.619	0.503
235.501	196.945	79.994	19.992	99.912	20.294	3.480	0.491
237.000	197.659	79.995	19.993	99.913	20.291	3.617	0.483
238.500	198.372	79.995	19.991	99.912	20.291	3.606	0.477
240.000	199.112	79.995	19.992	99.911	20.293	3.533	0.479
241.500	199.850	79.994	19.992	99.911	20.292	3.586	0.476
243.000	200.576	79.996	19.991	99.922	20.287	3.866	0.499
244.500	201.294	79.993	19.991	99.926	20.286	3.873	0.505
246.000	202.052	79.994	19.991	99.912	20.288	3.779	0.524
247.500	202.807	79.993	19.992	99.917	20.286	3.877	0.502
249.000	203.562	79.993	19.993	99.917	20.286	3.909	0.480
250.500	204.266	79.992	19.992	99.914	20.285	3.965	0.488
252.000	205.011	79.993	19.992	99.914	20.281	4.159	0.489
253.501	205.793	79.994	19.992	99.916	20.280	4.182	0.496
255.000	206.500	79.993	19.993	99.918	20.281	4.148	0.487
256.500	207.214	79.994	19.993	99.916	20.278	4.322	0.482
258.000	207.952	79.991	19.993	99.914	20.277	4.358	0.490
259.501	208.658	79.994	19.992	99.917	20.272	4.624	0.483
261.000	209.473	79.995	19.992	99.916	20.271	4.677	0.525
262.500	210.223	79.995	19.992	99.913	20.271	4.678	0.501
264.000	210.968	79.995	19.991	99.913	20.269	4.797	0.498
265.500	211.660	79.994	19.992	99.914	20.267	4.889	0.473
267.000	212.381	79.995	19.991	99.915	20.266	4.942	0.475
268.500	213.194	79.994	19.991	99.915	20.265	4.988	0.520
270.000	213.924	79.994	19.991	99.917	20.262	5.128	0.478
271.501	214.621	79.993	19.991	99.916	20.262	5.135	0.476
273.001	215.392	79.992	19.991	99.919	20.265	4.965	0.488
274.500	216.114	79.994	19.990	99.929	20.262	5.173	0.494
276.000	216.804	79.992	19.992	99.932	20.261	5.203	0.468
277.500	217.565	79.994	19.990	99.926	20.262	5.128	0.477
279.000	218.344	79.992	19.991	99.928	20.261	5.197	0.517
280.500	219.065	79.993	19.991	99.925	20.260	5.237	0.480
282.000	219.786	79.993	19.992	99.922	20.258	5.364	0.486
283.500	220.586	79.992	19.991	99.924	20.257	5.402	0.544
285.000	221.326	79.993	19.991	99.939	20.255	5.515	0.503
286.500	222.125	79.992	19.992	99.940	20.254	5.563	0.549
288.000	222.834	79.993	19.991	99.935	20.252	5.674	0.463
289.500	223.608	79.994	19.991	99.944	20.249	5.815	0.522
291.000	224.379	79.994	19.990	99.928	20.251	5.744	0.523
292.500	225.159	79.995	19.991	99.917	20.246	5.970	0.525
294.000	225.863	79.994	19.992	99.916	20.249	5.832	0.473
295.500	226.648	79.994	19.991	99.915	20.244	6.108	0.520
297.000	227.476	79.995	19.991	99.918	20.243	6.145	0.542
298.500	228.243	79.994	19.992	99.922	20.240	6.276	0.508
300.000	228.983	79.994	19.992	99.922	20.240	6.302	0.480
301.500	229.736	79.993	19.990	99.921	20.236	6.500	0.491
303.000	230.511	79.993	19.991	99.917	20.234	6.591	0.512
304.500	231.286	79.993	19.991	99.929	20.236	6.512	0.511
306.000	232.039	79.995	19.991	99.939	20.236	6.487	0.496
307.500	232.803	79.994	19.992	99.934	20.233	6.656	0.507
309.000	233.574	79.994	19.991	99.928	20.229	6.859	0.520
310.500	234.320	79.992	19.991	99.930	20.228	6.916	0.514
312.000	235.075	79.994	19.990	99.941	20.227	6.964	0.507
313.500	235.803	79.993	19.991	99.934	20.223	7.195	0.479
315.000	236.551	79.993	19.992	99.926	20.223	7.192	0.524
316.500	237.371	79.993	19.991	99.936	20.222	7.234	0.530
318.000	238.081	79.994	19.990	99.945	20.220	7.362	0.488
319.500	238.823	79.995	19.991	99.943	20.215	7.619	0.484
321.000	239.615	79.995	19.991	99.947	20.213	7.731	0.529
322.500	240.367	79.993	19.993	99.940	20.208	7.951	0.502
324.000	241.094	79.994	19.992	99.935	20.207	8.020	0.482
325.500	241.880	79.995	19.992	99.933	20.201	8.352	0.541
327.000	242.629	79.994	19.992	99.943	20.199	8.413	0.511
328.500	243.366	79.993	19.992	99.953	20.200	8.405	0.504
330.000	244.160	79.996	19.992	99.951	20.199	8.421	0.528
331.500	244.908	79.993	19.992	99.954	20.193	8.733	0.501
333.000	245.692	79.994	19.990	99.954	20.194	8.677	0.517
334.500	246.431	79.992	19.991	99.955	20.189	8.938	0.492
336.000	247.170	79.994	19.991	99.956	20.187	9.053	0.479
337.500	247.913	79.993	19.992	99.958	20.184	9.249	0.478
339.000	248.634	79.995	19.992	99.958	20.183	9.254	0.478
340.500	249.491	79.996	19.992	99.958	20.180	9.420	0.589
342.000	250.205	79.995	19.991	99.955	20.175	9.672	0.499
343.500	251.000	79.995	19.991	99.956	20.169	9.998	0.522
345.000	251.742	79.996	19.992	99.967	20.167	10.115	0.478
346.500	252.506	79.996	19.992	99.980	20.163	10.336	0.492
348.000	253.268	79.996	19.992	99.970	20.157	10.645	0.501
349.500	254.020	79.996	19.991	99.953	20.153	10.861	0.500
351.000	254.736	79.995	19.992	99.950	20.151	10.961	0.476
352.500	255.514	79.993	19.992	99.951	20.148	11.104	0.506
354.000	256.251	79.993	19.992	99.958	20.143	11.386	0.517
355.500	256.980	79.993	19.992	99.957	20.141	11.458	0.517
357.000	257.755	79.994	19.992	99.956	20.136	11.739	0.512
358.500	258.509	79.994	19.990	99.972	20.129	12.102	0.514
360.000	259.250	79.992	19.990	99.977	20.126	12.283	0.496
361.500	259.994	79.993	19.992	99.976	20.121	12.536	0.489
363.000	260.704	79.993	19.991	99.980	20.116	12.795	0.451
364.500	261.552	79.992	19.991	99.989	20.111	13.051	0.561
366.000	262.289	79.994	19.990	99.990	20.105	13.335	0.488
367.500	263.049	79.994	19.991	99.994	20.099	13.653	0.528
369.000	263.794	79.993	19.992	99.992	20.096	13.835	0.501
370.500	264.557	79.994	19.991	99.993	20.091	14.080	0.499
372.000	265.322	79.993	19.991	99.995	20.084	14.455	0.500
373.500	266.038	79.994	19.992	99.996	20.076	14.873	0.489
375.000	266.801	79.995	19.991	100.000	20.075	14.926	0.494
376.500	267.558	79.994	19.991	100.011	20.071	15.160	0.511
378.000	268.332	79.993	19.991	100.027	20.064	15.490	0.528
379.500	269.031	79.994	19.990	100.032	20.057	15.840	0.455
381.000	269.871	79.992	19.991	100.027	20.053	16.054	0.550
382.500	270.665	79.992	19.991	100.014	20.046	16.436	0.517
384.000	271.428	79.993	19.991	100.010	20.041	16.718	0.514
385.500	272.123	79.994	19.992	100.019	20.035	17.020	0.469
387.000	272.881	79.992	19.991	100.023	20.028	17.398	0.499
388.500	273.633	79.993	19.991	100.019	20.023	17.654	0.509
390.000	274.442	79.994	19.991	100.011	20.016	18.026	0.526
391.500	275.175	79.994	19.992	100.026	20.011	18.300	0.499
393.000	275.975	79.994	19.991	100.035	20.001	18.777	0.523
394.500	276.744	79.993	19.990	100.034	19.996	19.043	0.494
396.000	277.468	79.995	19.991	100.033	19.992	19.276	0.498
397.500	278.247	79.994	19.991	100.036	19.986	19.562	0.508
399.000	278.951	79.995	19.991	100.036	19.982	19.777	0.475
400.500	279.671	79.996	19.991	100.034	19.978	20.015	0.487
402.000	280.431	79.996	19.992	100.034	19.970	20.393	0.504
403.500	281.192	79.995	19.992	100.037	19.968	20.544	0.521
405.000	281.935	79.996	19.991	100.037	19.959	20.978	0.496
406.501	282.683	79.994	19.991	100.033	19.954	21.272	0.481
408.000	283.440	79.995	19.992	100.032	19.952	21.356	0.501
409.500	284.164	79.995	19.991	100.041	19.944	21.778	0.472
411.000	284.911	79.994	19.992	100.052	19.941	21.916	0.489
412.500	285.646	79.995	19.992	100.037	19.935	22.248	0.489
414.000	286.423	79.994	19.992	100.031	19.933	22.375	0.523
415.500	287.188	79.994	19.992	100.040	19.925	22.753	0.508
417.000	287.929	79.995	19.990	100.048	19.923	22.872	0.485
418.500	288.685	79.994	19.990	100.053	19.916	23.223	0.495
420.000	289.404	79.995	19.991	100.067	19.910	23.574	0.490
421.500	290.190	79.994	19.991	100.066	19.909	23.609	0.505
423.000	290.956	79.996	19.991	100.054	19.902	23.964	0.502
424.500	291.735	79.996	19.991	100.046	19.894	24.385	0.512
426.000	292.487	79.996	19.991	100.053	19.890	24.591	0.519
427.500	293.204	79.996	19.991	100.049	19.885	24.867	0.482
429.000	293.974	79.996	19.990	100.054	19.882	25.045	0.485
430.500	294.740	79.995	19.992	100.066	19.871	25.585	0.509
432.000	295.475	79.996	19.992	100.065	19.870	25.668	0.498
433.500	296.222	79.994	19.992	100.056	19.862	26.050	0.482
435.000	296.933	79.992	19.993	100.059	19.856	26.370	0.492
436.500	297.725	79.994	19.992	100.061	19.849	26.765	0.536
438.000	298.481	79.994	19.993	100.065	19.844	27.020	0.495
439.500	299.242	79.993	19.993	100.070	19.836	27.439	0.504
441.000	299.925	79.994	19.992	100.072	19.832	27.660	0.476
442.500	300.715	79.992	19.992	100.072	19.828	27.846	0.542
444.000	301.472	79.992	19.992	100.074	19.825	27.997	0.520
445.500	302.238	79.993	19.991	100.077	19.818	28.386	0.498
447.000	302.942	79.994	19.991	100.076	19.811	28.770	0.478
448.501	303.681	79.993	19.991	100.084	19.806	29.012	0.489
450.000	304.422	79.993	19.992	100.084	19.801	29.253	0.481
451.500	305.192	79.993	19.991	100.075	19.792	29.749	0.518
453.000	305.941	79.994	19.992	100.075	19.785	30.083	0.484
454.500	306.705	79.995	19.991	100.075	19.782	30.246	0.504
456.000	307.481	79.994	19.992	100.077	19.776	30.602	0.514
457.500	308.303	79.994	19.990	100.089	19.770	30.904	0.572
459.000	309.010	79.995	19.991	100.090	19.764	31.235	0.478
460.500	309.774	79.993	19.990	100.082	19.757	31.551	0.503
462.000	310.546	79.993	19.992	100.089	19.751	31.911	0.508
463.500	311.307	79.993	19.991	100.090	19.742	32.367	0.511
465.000	312.050	79.994	19.990	100.093	19.735	32.746	0.511
466.500	312.874	79.992	19.992	100.098	19.728	33.074	0.544
468.000	313.643	79.994	19.991	100.104	19.721	33.464	0.511
469.500	314.374	79.993	19.991	100.105	19.716	33.730	0.509
471.000	315.128	79.993	19.992	100.107	19.710	34.032	0.503
472.500	315.896	79.994	19.990	100.109	19.703	34.377	0.504
474.000	316.655	79.994	19.992	100.107	19.691	35.024	0.502
475.500	317.363	79.994	19.990	100.107	19.688	35.163	0.471
477.000	318.130	80.006	19.991	100.109	19.681	35.547	0.504
478.500	318.860	80.014	19.993	100.120	19.674	35.933	0.498
480.000	319.590	80.016	19.997	100.124	19.667	36.301	0.500
481.500	320.352	80.009	19.993	100.116	19.657	36.798	0.511
483.000	321.125	79.996	19.991	100.114	19.649	37.218	0.498
484.500	321.889	79.995	19.991	100.111	19.643	37.559	0.520
486.000	322.646	79.995	19.990	100.113	19.631	38.184	0.492
487.500	323.360	79.997	19.995	100.128	19.626	38.449	0.500
489.000	324.139	79.995	19.992	100.136	19.616	38.970	0.542
490.501	324.909	79.996	19.991	100.119	19.605	39.553	0.509
492.000	325.649	79.994	19.991	100.124	19.600	39.804	0.492
493.500	326.406	79.994	19.992	100.133	19.589	40.376	0.506
495.000	327.169	79.994	19.992	100.131	19.580	40.876	0.505
496.500	327.949	79.993	19.991	100.143	19.567	41.547	0.502
498.000	328.663	79.994	19.992	100.141	19.557	42.080	0.493
499.500	329.429	79.993	19.992	100.143	19.549	42.489	0.501
501.000	330.247	79.996	19.991	100.148	19.541	42.927	0.532
502.501	330.945	79.995	19.991	100.148	19.528	43.584	0.467
504.000	331.695	79.995	19.992	100.149	19.515	44.264	0.477
505.500	332.492	79.994	19.992	100.157	19.509	44.590	0.520
507.000	333.237	79.996	19.991	100.164	19.495	45.330	0.502
508.500	334.006	79.995	19.991	100.175	19.488	45.669	0.510
510.000	334.751	79.996	19.990	100.173	19.476	46.330	0.485
511.500	335.500	79.995	19.991	100.174	19.463	46.992	0.506
513.000	336.235	79.993	19.991	100.186	19.447	47.855	0.477
514.500	337.010	79.994	19.990	100.188	19.433	48.605	0.506
516.000	337.771	79.993	19.991	100.188	19.417	49.436	0.495
517.500	338.513	79.992	19.991	100.194	19.406	50.013	0.504
519.000	339.273	79.993	19.992	100.205	19.393	50.674	0.510
520.500	340.028	79.993	19.992	100.204	19.380	51.353	0.508
522.000	340.845	79.992	19.992	100.216	19.365	52.161	0.555
523.500	341.590	79.992	19.992	100.232	19.348	53.065	0.520
525.000	342.325	79.991	19.992	100.231	19.334	53.773	0.489
526.500	343.091	79.992	19.992	100.231	19.319	54.561	0.510
528.000	343.815	79.992	19.992	100.231	19.304	55.350	0.477
529.500	344.556	79.992	19.991	100.234	19.289	56.148	0.480
531.000	345.315	79.993	19.991	100.243	19.273	57.020	0.520
532.500	346.079	79.994	19.992	100.252	19.259	57.747	0.507
534.000	346.855	79.992	19.992	100.257	19.245	58.477	0.510
535.500	347.580	79.993	19.991	100.265	19.226	59.454	0.459
537.000	348.324	79.993	19.991	100.272	19.210	60.308	0.536
538.500	349.097	79.993	19.990	100.272	19.199	60.893	0.530
540.000	349.858	79.994	19.990	100.274	19.178	61.973	0.508
541.500	350.622	79.994	19.991	100.274	19.164	62.722	0.486
543.000	351.385	79.994	19.991	100.289	19.144	63.762	0.526
544.500	352.139	79.994	19.992	100.302	19.132	64.407	0.517
546.000	352.935	79.994	19.991	100.306	19.114	65.349	0.520
547.500	353.711	79.994	19.990	100.307	19.100	66.063	0.503
549.000	354.453	79.992	19.991	100.306	19.083	66.969	0.501
550.500	355.174	79.993	19.991	100.309	19.072	67.532	0.493
552.000	355.935	79.994	19.991	100.311	19.058	68.300	0.524
553.500	356.738	79.993	19.991	100.322	19.047	68.839	0.561
555.000	357.495	79.993	19.992	100.313	19.035	69.487	0.494
556.500	358.253	79.993	19.991	100.306	19.020	70.255	0.521
558.000	359.036	79.994	19.991	100.309	19.015	70.536	0.531
559.500	359.768	79.994	19.991	100.310	19.004	71.085	0.500
561.000	360.495	79.995	19.991	100.307	18.997	71.420	0.499
562.500	361.223	79.995	19.991	100.304	18.997	71.420	0.480
564.000	362.014	79.996	19.990	100.301	18.992	71.677	0.519
565.500	362.770	79.995	19.991	100.295	18.993	71.645	0.521
567.000	363.566	79.996	19.991	100.284	18.991	71.724	0.542
568.500	364.271	79.995	19.991	100.276	18.995	71.504	0.476
570.000	365.027	79.995	19.991	100.269	19.002	71.121	0.480
571.500	365.791	79.997	19.991	100.259	19.014	70.499	0.508
573.000	366.573	79.995	19.990	100.243	19.023	70.009	0.504
574.500	367.297	79.996	19.991	100.233	19.037	69.235	0.494
576.000	368.068	79.995	19.991	100.224	19.052	68.416	0.540
577.500	368.865	79.994	19.992	100.205	19.074	67.274	0.549
579.000	369.604	79.994	19.991	100.188	19.099	65.935	0.512
580.500	370.361	79.995	19.991	100.167	19.125	64.591	0.503
582.000	371.138	79.996	19.992	100.149	19.162	62.651	0.519
583.500	371.899	79.996	19.992	100.128	19.192	61.068	0.504
585.000	372.727	79.995	19.992	100.100	19.228	59.164	0.568
586.500	373.480	79.994	19.991	100.079	19.269	57.006	0.502
588.000	374.215	79.995	19.992	100.063	19.311	54.791	0.502
589.501	375.001	79.996	19.992	100.038	19.357	52.395	0.520
591.000	375.808	79.996	19.992	100.022	19.405	49.883	0.553
592.500	376.552	79.995	19.992	99.998	19.453	47.372	0.489
594.000	377.310	79.996	19.992	99.981	19.504	44.737	0.520
595.500	378.055	79.994	19.990	99.961	19.553	42.147	0.492
597.000	378.840	79.995	19.992	99.953	19.602	39.606	0.498
598.500	379.587	79.994	19.991	99.940	19.648	37.177	0.506
600.000	380.374	79.993	19.992	99.917	19.699	34.526	0.516
601.500	381.129	79.993	19.991	99.906	19.746	32.063	0.518
603.000	381.903	79.992	19.992	99.889	19.792	29.660	0.518
604.500	382.703	79.993	19.992	99.881	19.838	27.266	0.532
606.000	383.486	79.992	19.992	99.887	19.875	25.326	0.497
607.500	384.259	79.993	19.992	99.885	19.915	23.249	0.519
609.000	385.041	79.993	19.993	99.880	19.947	21.571	0.520
610.500	385.800	79.991	19.993	99.882	19.980	19.885	0.493
612.000	386.582	79.992	19.992	99.879	20.013	18.151	0.507
613.500	387.337	79.993	19.994	99.891	20.029	17.310	0.537
615.000	388.103	79.991	19.992	99.893	20.053	16.041	0.476
616.500	388.882	79.994	19.992	99.887	20.071	15.110	0.529
618.000	389.665	79.993	19.992	99.880	20.085	14.395	0.545
619.500	390.399	79.995	19.992	99.876	20.098	13.713	0.470
621.001	391.171	79.993	19.992	99.889	20.109	13.134	0.505
622.500	391.976	79.993	19.992	99.896	20.119	12.596	0.506
624.000	392.810	79.992	19.991	99.892	20.129	12.112	0.547
625.500	393.591	79.993	19.992	99.887	20.138	11.639	0.507
627.000	394.318	79.994	19.991	99.901	20.144	11.285	0.476
628.500	395.084	79.993	19.991	99.900	20.154	10.802	0.513
630.000	395.888	79.992	19.991	99.901	20.151	10.917	0.543
631.500	396.649	79.992	19.991	99.901	20.159	10.525	0.492
633.000	397.379	79.993	19.992	99.906	20.157	10.615	0.493
634.500	398.132	79.994	19.992	99.906	20.161	10.402	0.494
636.000	398.919	79.994	19.991	99.899	20.164	10.269	0.523
637.500	399.669	79.993	19.991	99.892	20.170	9.954	0.492
639.000	400.422	79.994	19.992	99.892	20.171	9.869	0.519
640.500	401.207	79.994	19.990	99.888	20.175	9.711	0.491
642.000	401.976	79.993	19.991	99.888	20.181	9.384	0.523
643.500	402.734	79.995	19.992	99.902	20.183	9.248	0.490
645.000	403.487	79.995	19.992	99.894	20.182	9.329	0.510
646.500	404.227	79.994	19.992	99.882	20.188	8.996	0.502
648.000	404.962	79.994	19.991	99.877	20.189	8.931	0.492
649.500	405.772	79.995	19.991	99.878	20.194	8.700	0.522
651.000	406.509	79.994	19.991	99.888	20.194	8.713	0.488
652.501	407.271	79.994	19.991	99.891	20.194	8.678	0.510
654.000	408.008	79.992	19.991	99.889	20.197	8.548	0.495
655.500	408.739	79.994	19.991	99.885	20.193	8.720	0.497
657.000	409.557	79.994	19.991	99.881	20.198	8.502	0.554
658.500	410.342	79.994	19.992	99.885	20.199	8.446	0.521
660.001	411.096	79.994	19.991	99.885	20.202	8.278	0.541
661.500	411.822	79.995	19.991	99.883	20.204	8.149	0.490
663.000	412.586	79.996	19.991	99.889	20.207	8.032	0.523
664.500	413.413	79.996	19.991	99.890	20.203	8.242	0.549
666.000	414.105	79.997	19.991	99.883	20.208	7.943	0.482
667.500	414.839	79.995	19.992	99.875	20.203	8.209	0.485
669.000	415.525	79.996	19.992	99.875	20.205	8.121	0.439
670.500	416.347	79.996	19.991	99.875	20.209	7.888	0.568
672.000	417.079	79.997	19.992	99.878	20.207	8.030	0.505
673.500	417.838	79.997	19.992	99.889	20.209	7.915	0.491
675.000	418.647	79.996	19.992	99.896	20.209	7.887	0.524
676.500	419.338	79.995	19.992	99.893	20.211	7.832	0.467
678.000	420.095	79.995	19.992	99.885	20.213	7.713	0.512
679.500	420.859	79.995	19.992	99.881	20.214	7.662	0.500
681.001	421.612	79.994	19.991	99.876	20.214	7.666	0.484
682.500	422.319	79.994	19.992	99.874	20.218	7.452	0.488
684.000	423.089	79.994	19.991	99.875	20.216	7.542	0.514
685.500	423.839	79.994	19.991	99.873	20.217	7.492	0.491
687.000	424.601	79.994	19.992	99.873	20.219	7.373	0.509
688.500	425.327	79.993	19.992	99.875	20.222	7.230	0.487
690.000	426.077	79.994	19.992	99.876	20.217	7.492	0.492
691.500	426.803	79.994	19.992	99.875	20.221	7.277	0.467
693.000	427.566	79.994	19.992	99.875	20.224	7.102	0.515
694.501	428.290	79.993	19.993	99.877	20.221	7.261	0.456
696.000	429.045	79.992	19.992	99.877	20.221	7.278	0.514
697.500	429.791	79.993	19.993	99.876	20.223	7.196	0.474
699.000	430.534	79.994	19.991	99.876	20.224	7.121	0.498
700.500	431.340	79.991	19.993	99.876	20.227	6.969	0.530
702.000	432.081	79.993	19.993	99.884	20.231	6.777	0.488
703.500	432.816	79.994	19.993	99.885	20.231	6.753	0.506
705.000	433.619	79.994	19.992	99.880	20.233	6.652	0.542
706.500	434.381	79.993	19.993	99.879	20.236	6.523	0.516
708.000	435.131	79.993	19.991	99.882	20.233	6.640	0.497
709.500	435.883	79.993	19.991	99.883	20.236	6.520	0.475
711.000	436.640	79.992	19.991	99.879	20.236	6.506	0.494
712.500	437.369	79.992	19.991	99.877	20.240	6.294	0.495
714.000	438.164	79.992	19.991	99.877	20.242	6.176	0.525
715.500	438.883	79.991	19.991	99.878	20.242	6.175	0.490
717.000	439.706	79.992	19.991	99.879	20.241	6.235	0.536
718.500	440.424	79.993	19.992	99.880	20.243	6.118	0.486
720.000	441.208	79.992	19.991	99.881	20.242	6.168	0.515
721.500	441.943	79.994	19.991	99.883	20.245	6.024	0.483
723.000	442.725	79.994	19.992	99.881	20.244	6.082	0.521
724.500	443.492	79.995	19.991	99.879	20.242	6.167	0.496
726.000	444.282	79.996	19.991	99.878	20.246	5.977	0.527
727.501	445.026	79.995	19.991	99.874	20.246	5.958	0.499
729.000	445.792	79.994	19.991	99.874	20.246	6.004	0.515
730.500	446.514	79.996	19.991	99.869	20.244	6.067	0.494
732.000	447.296	79.995	19.991	99.871	20.248	5.857	0.518
733.500	448.089	79.994	19.991	99.873	20.252	5.684	0.517
735.000	448.846	79.994	19.991	99.873	20.253	5.628	0.485
736.500	449.623	79.993	19.991	99.873	20.252	5.651	0.529
738.001	450.350	79.994	19.991	99.874	20.253	5.589	0.489
739.500	451.125	79.994	19.991	99.873	20.253	5.592	0.497
741.000	451.891	79.995	19.991	99.874	20.250	5.777	0.537
742.500	452.685	79.994	19.991	99.872	20.255	5.485	0.540
744.000	453.425	79.995	19.991	99.872	20.254	5.562	0.498
745.500	454.237	79.995	19.990	99.876	20.257	5.419	0.534
747.000	455.006	79.995	19.991	99.875	20.256	5.452	0.515
748.501	455.799	79.998	19.990	99.873	20.257	5.397	0.519
750.000	456.582	79.998	19.992	99.875	20.264	5.018	0.536
751.500	457.307	79.996	19.991	99.875	20.262	5.148	0.473
753.000	458.100	79.997	19.991	99.873	20.260	5.263	0.523
754.500	458.884	79.997	19.991	99.873	20.264	5.013	0.534
756.000	459.604	79.995	19.991	99.873	20.262	5.158	0.482
757.500	460.408	79.995	19.992	99.864	20.266	4.925	0.542
759.000	461.140	79.993	19.992	99.861	20.266	4.939	0.476
760.500	461.950	79.993	19.992	99.872	20.264	5.022	0.518
762.000	462.703	79.993	19.992	99.874	20.269	4.775	0.521
763.500	463.497	79.992	19.992	99.869	20.268	4.840	0.540
765.000	464.251	79.993	19.993	99.872	20.263	5.067	0.505
766.500	464.983	79.994	19.992	99.875	20.271	4.662	0.505
768.000	465.749	79.993	19.992	99.875	20.269	4.764	0.526
769.500	466.534	79.994	19.992	99.877	20.271	4.683	0.521
771.000	467.305	79.993	19.992	99.876	20.273	4.563	0.517
772.500	468.111	79.994	19.991	99.874	20.269	4.789	0.534
774.000	468.853	79.994	19.991	99.870	20.275	4.465	0.515
775.500	469.595	79.994	19.992	99.876	20.272	4.643	0.486
777.000	470.365	79.993	19.992	99.877	20.271	4.653	0.506
778.500	471.108	79.992	19.992	99.878	20.276	4.437	0.505
780.000	471.906	79.992	19.993	99.877	20.278	4.331	0.516
781.500	472.671	79.994	19.992	99.877	20.279	4.245	0.510
783.000	473.454	79.993	19.992	99.875	20.280	4.220	0.512
784.500	474.265	79.993	19.993	99.876	20.280	4.210	0.522
786.000	474.958	79.992	19.994	99.872	20.278	4.293	0.448
787.500	475.798	79.994	19.992	99.873	20.282	4.092	0.540
789.000	476.534	79.993	19.992	99.872	20.282	4.090	0.489
790.500	477.294	79.992	19.993	99.868	20.280	4.189	0.507
792.000	478.058	79.994	19.993	99.872	20.281	4.152	0.534
793.500	478.849	79.993	19.992	99.866	20.282	4.074	0.536
795.000	479.594	79.994	19.992	99.860	20.283	4.069	0.494
796.500	480.401	79.994	19.991	99.865	20.280	4.207	0.516
798.000	481.118	79.992	19.992	99.871	20.282	4.120	0.492
799.500	481.919	79.995	19.992	99.872	20.282	4.076	0.520
801.000	482.666	79.995	19.992	99.874	20.283	4.032	0.533
802.500	483.376	79.994	19.991	99.876	20.284	3.993	0.477
804.000	484.151	79.995	19.991	99.871	20.283	4.044	0.500
805.500	484.926	79.996	19.991	99.871	20.287	3.854	0.506
807.000	485.694	79.995	19.993	99.874	20.286	3.880	0.493
808.500	486.446	79.996	19.991	99.873	20.289	3.737	0.496
810.000	487.166	79.995	19.991	99.873	20.286	3.881	0.491
811.500	487.970	79.995	19.991	99.873	20.286	3.884	0.540
813.000	488.697	79.997	19.991	99.874	20.285	3.926	0.485
814.500	489.467	79.994	19.991	99.873	20.286	3.895	0.508
816.000	490.228	79.995	19.992	99.873	20.289	3.750	0.494
817.500	490.974	79.996	19.991	99.874	20.284	3.983	0.512
819.000	491.749	79.994	19.991	99.873	20.281	4.165	0.523
820.500	492.503	79.995	19.991	99.871	20.281	4.129	0.502
822.000	493.326	79.994	19.991	99.873	20.286	3.882	0.549
823.501	494.077	79.996	19.992	99.875	20.287	3.842	0.461
825.000	494.829	79.996	19.991	99.876	20.292	3.577	0.508
826.500	495.594	79.996	19.991	99.876	20.293	3.537	0.529
828.000	496.366	79.997	19.990	99.877	20.292	3.597	0.516
829.500	497.168	79.998	19.991	99.878	20.294	3.497	0.536
831.001	497.894	79.999	19.991	99.874	20.296	3.394	0.488
832.500	498.588	79.997	19.990	99.874	20.295	3.415	0.482
834.000	499.370	79.998	19.991	99.876	20.295	3.417	0.508
835.500	500.182	79.996	19.990	99.877	20.298	3.283	0.542
837.000	500.955	79.996	19.991	99.876	20.291	3.630	0.542
838.500	501.742	79.994	19.991	99.877	20.297	3.317	0.534
840.000	502.538	79.994	19.991	99.875	20.295	3.407	0.503
841.500	503.299	79.994	19.991	99.877	20.293	3.523	0.506
843.000	504.015	79.994	19.991	99.869	20.295	3.403	0.500
844.500	504.844	79.994	19.991	99.859	20.299	3.238	0.539
846.000	505.595	79.993	19.992	99.869	20.296	3.344	0.517
847.500	506.375	79.994	19.992	99.876	20.298	3.263	0.505
849.000	507.101	79.994	19.991	99.866	20.300	3.165	0.481
850.500	507.859	79.993	19.992	99.860	20.301	3.097	0.502
852.001	508.668	79.995	19.991	99.863	20.300	3.141	0.546
853.500	509.420	79.995	19.992	99.866	20.306	2.861	0.519
855.000	510.172	79.995	19.992	99.867	20.303	3.005	0.513
856.500	510.940	79.995	19.992	99.866	20.301	3.132	0.501
858.000	511.767	79.995	19.992	99.872	20.308	2.720	0.545
859.500	512.422	79.995	19.992	99.868	20.302	3.039	0.467
861.000	513.219	79.995	19.991	99.865	20.306	2.847	0.555
862.500	514.058	79.995	19.992	99.865	20.306	2.868	0.568
864.000	514.827	79.993	19.992	99.863	20.303	3.009	0.523
865.500	515.620	79.995	19.991	99.859	20.308	2.736	0.516
867.000	516.410	79.994	19.992	99.857	20.302	3.049	0.527
868.500	517.216	79.994	19.992	99.846	20.306	2.826	0.552
870.000	517.966	79.994	19.993	99.851	20.304	2.977	0.466
871.500	518.767	79.995	19.993	99.868	20.304	2.942	0.543
873.000	519.514	79.993	19.993	99.860	20.308	2.767	0.476
874.500	520.292	79.993	19.993	99.858	20.304	2.964	0.529
876.000	521.100	79.994	19.991	99.862	20.307	2.811	0.537
877.500	521.856	79.994	19.991	99.858	20.307	2.794	0.502
879.000	522.611	79.994	19.992	99.859	20.305	2.898	0.477
880.500	523.376	79.994	19.993	99.858	20.305	2.892	0.520
882.000	524.135	79.996	19.992	99.870	20.307	2.791	0.490
883.500	524.938	79.996	19.992	99.864	20.311	2.583	0.541
885.000	525.735	79.996	19.991	99.861	20.310	2.648	0.530
886.500	526.515	79.997	19.991	99.863	20.308	2.722	0.508
888.000	527.304	79.995	19.992	99.863	20.307	2.772	0.537
889.500	528.087	79.997	19.991	99.869	20.311	2.590	0.523
891.000	528.832	79.996	19.991	99.873	20.308	2.765	0.478
892.500	529.586	79.995	19.991	99.857	20.311	2.591	0.501
894.000	530.345	79.994	19.991	99.854	20.316	2.345	0.535
895.500	531.122	79.996	19.991	99.861	20.315	2.369	0.509
897.000	531.901	79.995	19.991	99.867	20.310	2.642	0.528
898.500	532.705	79.994	19.992	99.857	20.316	2.351	0.531
900.000	533.430	79.995	19.991	99.847	20.316	2.309	0.486
901.500	534.239	79.995	19.991	99.849	20.316	2.323	0.535
903.000	535.002	79.994	19.992	99.855	20.314	2.417	0.499
904.500	535.746	79.996	19.991	99.855	20.317	2.287	0.501
906.000	536.522	79.996	19.992	99.852	20.318	2.225	0.504
907.500	537.306	79.996	19.991	99.866	20.317	2.289	0.503
909.001	538.071	79.997	19.991	99.864	20.315	2.356	0.515
910.500	538.839	79.997	19.990	99.847	20.314	2.406	0.506
912.000	539.659	79.998	19.991	99.841	20.318	2.196	0.545
913.500	540.370	79.997	19.991	99.840	20.318	2.243	0.495
915.000	541.152	79.999	19.991	99.840	20.317	2.255	0.546
916.500	541.948	79.997	19.991	99.845	20.315	2.398	0.532
918.000	542.691	79.996	19.991	99.849	20.321	2.089	0.507
919.500	543.425	79.995	19.991	99.856	20.320	2.138	0.507
921.000	544.164	79.994	19.991	99.859	20.317	2.272	0.481
922.500	544.937	79.996	19.991	99.851	20.320	2.123	0.502
924.000	545.665	79.995	19.991	99.852	20.313	2.505	0.480
925.500	546.447	79.995	19.991	99.857	20.318	2.229	0.502
927.000	547.214	79.995	19.991	99.855	20.318	2.228	0.506
928.500	547.955	79.994	19.991	99.859	20.317	2.283	0.505
930.000	548.679	79.993	19.991	99.852	20.317	2.290	0.488
931.500	549.461	79.995	19.992	99.840	20.317	2.270	0.515
933.000	550.247	79.994	19.992	99.850	20.319	2.150	0.525
934.500	551.014	79.993	19.992	99.860	20.318	2.232	0.512
936.000	551.720	79.995	19.992	99.849	20.319	2.143	0.475
937.500	552.477	79.993	19.992	99.849	20.321	2.052	0.502
939.000	553.220	79.996	19.991	99.862	20.320	2.142	0.495
940.500	554.042	79.995	19.992	99.853	20.322	2.005	0.544
942.000	554.806	79.995	19.992	99.845	20.321	2.045	0.521
943.500	555.560	79.993	19.991	99.851	20.320	2.096	0.485
945.000	556.332	79.994	19.992	99.856	20.324	1.899	0.523
946.500	557.035	79.994	19.991	99.848	20.324	1.886	0.460
948.000	557.877	79.993	19.991	99.850	20.327	1.772	0.542
949.500	558.578	79.993	19.991	99.854	20.325	1.873	0.454
951.000	559.325	79.993	19.991	99.869	20.322	2.002	0.497
952.500	560.102	79.994	19.992	99.866	20.325	1.872	0.502
954.000	560.887	79.993	19.992	99.862	20.326	1.789	0.545
955.500	561.635	79.994	19.992	99.863	20.325	1.838	0.489
957.000	562.393	79.993	19.991	99.861	20.325	1.862	0.509
958.500	563.166	79.992	19.992	99.851	20.324	1.893	0.514
960.000	563.904	79.993	19.992	99.839	20.325	1.857	0.459
961.500	564.676	79.993	19.992	99.836	20.327	1.767	0.532
963.000	565.419	79.994	19.992	99.837	20.325	1.869	0.506
964.500	566.184	79.995	19.992	99.844	20.327	1.760	0.508
966.000	566.962	79.994	19.992	99.850	20.328	1.673	0.517
967.501	567.678	79.997	19.992	99.862	20.327	1.763	0.507
969.000	568.444	79.994	19.992	99.846	20.326	1.829	0.502
970.500	569.241	79.996	19.991	99.843	20.328	1.683	0.515
972.000	569.979	79.996	19.991	99.849	20.328	1.701	0.501
973.500	570.738	79.994	19.991	99.852	20.329	1.667	0.491
975.000	571.538	79.995	19.991	99.845	20.330	1.606	0.535
976.500	572.293	79.996	19.992	99.846	20.327	1.752	0.523
978.000	573.082	79.995	19.991	99.850	20.332	1.479	0.540
979.500	573.876	79.995	19.991	99.841	20.328	1.712	0.515
981.000	574.680	79.996	19.992	99.844	20.333	1.439	0.548
982.500	575.437	79.995	19.990	99.863	20.328	1.723	0.491
984.000	576.181	79.995	19.991	99.854	20.333	1.445	0.513
985.500	576.988	79.995	19.991	99.837	20.328	1.699	0.528
987.000	577.693	79.996	19.991	99.843	20.329	1.623	0.464
988.500	578.480	79.998	19.992	99.849	20.328	1.706	0.522
990.000	579.343	79.996	19.991	99.848	20.333	1.462	0.527
991.500	580.061	79.997	19.992	99.846	20.327	1.746	0.522
993.000	580.780	79.998	19.991	99.850	20.331	1.517	0.505
994.500	581.626	79.996	19.991	99.850	20.333	1.413	0.567
996.000	582.295	79.996	19.991	99.850	20.334	1.395	0.451
997.500	583.151	79.997	19.991	99.849	20.339	1.143	0.565
999.000	583.891	79.997	19.992	99.842	20.349	0.626	0.477
1000.500	584.641	79.996	19.990	99.838	20.343	0.903	0.556
1002.000	585.496	79.995	19.992	99.844	20.324	1.923	0.542
1003.500	586.185	79.995	19.990	99.848	20.331	1.566	0.553
1005.000	586.938	79.995	19.991	99.851	20.333	1.446	0.475
1006.500	587.694	79.996	19.991	99.857	20.331	1.545	0.488
1008.000	588.467	79.994	19.991	99.845	20.332	1.480	0.497
1009.501	589.389	79.995	19.990	99.846	20.332	1.477	0.554
1011.000	590.042	79.996	19.991	99.858	20.329	1.622	0.481
1012.500	591.295	79.995	19.991	99.853	20.334	1.369	0.888
1014.000	591.195	79.992	19.991	99.845	20.335	1.350	-0.009
1015.500	592.834	79.996	19.991	99.855	20.334	1.402	1.109
1017.001	593.670	79.996	19.992	99.862	20.334	1.400	0.264
1018.500	594.028	79.995	19.992	99.851	20.338	1.182	-0.070
1020.000	594.638	79.994	19.992	99.847	20.337	1.223	0.447
1021.500	595.463	79.995	19.991	99.845	20.334	1.386	0.521
1023.000	596.346	79.993	19.991	99.845	20.334	1.397	0.609
1024.500	597.110	79.993	19.992	99.843	20.335	1.307	0.506
1026.000	597.825	79.993	19.992	99.843	20.335	1.313	0.435
1027.500	598.566	79.994	19.992	99.857	20.340	1.066	0.469
1029.000	599.341	79.993	19.991	99.855	20.339	1.133	0.545
1030.500	600.227	79.994	19.992	99.845	20.338	1.160	0.531
1032.001	600.975	79.994	19.992	99.852	20.336	1.303	0.508
1033.500	601.680	79.992	19.991	99.846	20.336	1.306	0.519
1035.000	602.471	79.993	19.992	99.845	20.339	1.122	0.536
1036.501	603.260	79.993	19.992	99.848	20.338	1.179	0.537
1038.000	604.006	79.993	19.992	99.855	20.339	1.104	0.516
1039.501	604.843	79.994	19.992	99.850	20.340	1.084	0.551
1041.000	605.623	79.994	19.992	99.846	20.336	1.292	0.542
1042.500	606.439	79.995	19.992	99.846	20.337	1.233	0.520
1044.000	607.166	79.994	19.992	99.853	20.337	1.237	0.497
1045.500	607.922	79.995	19.991	99.852	20.336	1.287	0.491
1047.000	608.768	79.995	19.993	99.836	20.339	1.120	0.522
1048.500	609.578	79.996	19.993	99.839	20.344	0.867	0.543
1050.001	610.392	79.996	19.991	99.843	20.340	1.090	0.550
1051.500	611.144	79.995	19.993	99.847	20.339	1.132	0.515
1053.001	611.915	79.995	19.992	99.837	20.344	0.887	0.506
1054.500	612.723	79.995	19.993	99.834	20.343	0.932	0.514
1056.001	613.504	79.995	19.992	99.850	20.339	1.146	0.525
1057.501	614.318	79.995	19.991	99.852	20.344	0.870	0.533
1059.001	615.060	79.995	19.991	99.849	20.340	1.070	0.499
1060.500	615.876	79.995	19.991	99.859	20.341	1.039	0.559
1062.000	616.671	79.995	19.991	99.860	20.343	0.893	0.532
1063.500	617.454	79.995	19.991	99.854	20.345	0.797	0.530
1065.000	618.229	79.996	19.991	99.845	20.344	0.849	0.516
1066.500	619.030	79.996	19.991	99.841	20.345	0.792	0.538
1068.000	619.792	79.997	19.991	99.842	20.352	0.436	0.518
1069.502	620.568	79.997	19.991	99.850	20.347	0.713	0.512
1071.000	621.358	79.997	19.991	99.852	20.350	0.544	0.514
1072.500	622.108	79.999	19.991	99.845	20.347	0.724	0.513
1074.000	622.900	79.996	19.991	99.836	20.349	0.597	0.522
1075.500	623.696	79.996	19.991	99.835	20.346	0.772	0.569
1077.000	624.443	79.997	19.992	99.843	20.346	0.770	0.495
1078.500	625.206	79.997	19.990	99.845	20.345	0.790	0.494
1080.000	626.014	79.995	19.991	99.839	20.346	0.744	0.529
1081.500	626.818	79.995	19.990	99.841	20.345	0.830	0.519
1083.000	627.587	79.994	19.991	99.849	20.346	0.756	0.498
1084.501	628.329	79.995	19.992	99.854	20.348	0.679	0.477
1086.000	629.110	79.994	19.991	99.849	20.347	0.726	0.535
1087.500	629.879	79.995	19.993	99.845	20.345	0.833	0.525
1089.000	630.635	79.995	19.991	99.852	20.347	0.697	0.497
1090.500	631.382	79.995	19.991	99.847	20.347	0.693	0.477
1092.000	632.162	79.994	19.991	99.850	20.344	0.869	0.512
1093.501	632.946	79.994	19.991	99.850	20.347	0.702	0.515
1095.000	633.701	79.995	19.991	99.842	20.345	0.800	0.517
1096.500	634.472	79.994	19.992	99.853	20.348	0.664	0.520
1098.000	635.287	79.994	19.991	99.852	20.347	0.694	0.559
1099.501	636.081	79.994	19.991	99.850	20.347	0.716	0.511
1101.000	636.823	79.994	19.991	99.844	20.343	0.904	0.519
1102.500	637.577	79.994	19.990	99.849	20.343	0.917	0.502
1104.001	638.355	79.994	19.992	99.856	20.344	0.870	0.498
1105.500	639.098	79.995	19.992	99.847	20.348	0.660	0.496
1107.000	639.825	79.994	19.992	99.841	20.346	0.764	0.471
1108.500	640.611	79.995	19.992	99.843	20.343	0.897	0.541
1110.001	641.417	79.993	19.993	99.847	20.346	0.740	0.537
1111.500	642.149	79.993	19.992	99.848	20.347	0.710	0.500
1113.000	642.940	79.994	19.992	99.854	20.349	0.604	0.531
1114.500	643.713	79.995	19.992	99.846	20.348	0.636	0.506
1116.000	644.451	79.993	19.992	99.836	20.347	0.722	0.510
1117.500	645.186	79.994	19.992	99.841	20.347	0.690	0.494
1119.001	645.983	79.993	19.993	99.844	20.353	0.377	0.527
1120.500	646.764	79.994	19.992	99.839	20.350	0.547	0.518
1122.000	647.514	79.994	19.992	99.853	20.351	0.500	0.512
1123.500	648.262	79.995	19.992	99.844	20.350	0.549	0.528
1125.000	649.107	79.995	19.993	99.842	20.352	0.443	0.535
1126.500	649.876	79.997	19.992	99.848	20.346	0.743	0.513
1128.002	650.610	79.996	19.992	99.836	20.352	0.434	0.493
1129.501	651.353	79.996	19.991	99.834	20.372	-0.582	0.497
1131.000	652.152	79.996	19.992	99.834	20.350	0.562	0.522
1132.500	652.943	79.995	19.992	99.833	20.351	0.491	0.528
1134.000	653.670	79.995	19.992	99.842	20.347	0.687	0.480
1135.500	654.513	79.995	19.992	99.843	20.350	0.559	0.553
1137.000	655.262	79.994	19.992	99.835	20.352	0.451	0.488
1138.501	656.053	79.992	19.993	99.842	20.349	0.612	0.533
1140.001	656.769	79.995	19.992	99.855	20.347	0.723	0.458
1141.500	657.535	79.994	19.992	99.851	20.349	0.609	0.504
1143.000	658.055	79.993	19.992	99.840	20.349	0.612	0.394
1144.500	658.813	79.995	19.992	99.838	20.347	0.684	0.382
1146.000	659.823	79.996	19.991	99.846	20.348	0.677	0.610
1147.500	660.615	79.996	19.991	99.846	20.350	0.556	0.558
1149.000	661.341	79.997	19.990	99.843	20.349	0.612	0.492
1150.500	662.125	79.996	19.990	99.858	20.349	0.597	0.540
1152.001	662.884	79.997	19.992	99.850	20.349	0.590	0.499
1153.500	663.584	79.995	19.990	99.849	20.347	0.714	0.477
1155.001	664.397	79.997	19.991	99.853	20.346	0.750	0.545
1156.500	665.125	79.996	19.991	99.852	20.349	0.583	0.488
1158.000	665.956	79.995	19.991	99.850	20.350	0.530	0.550
1159.500	666.710	79.995	19.992	99.841	20.351	0.521	0.522
1161.000	667.428	79.994	19.989	99.851	20.348	0.637	0.449
1162.500	668.215	79.992	19.992	99.844	20.352	0.433	0.516
1164.000	668.968	79.993	19.991	99.850	20.355	0.296	0.497
1165.501	669.705	79.992	19.990	99.858	20.350	0.543	0.473
1167.000	670.475	79.993	19.990	99.857	20.353	0.374	0.527
1168.500	671.236	79.993	19.991	99.849	20.354	0.356	0.499
1170.000	672.030	79.993	19.991	99.837	20.356	0.256	0.531
1171.500	672.760	79.994	19.991	99.837	20.365	-0.224	0.492
1173.000	673.576	79.993	19.991	99.835	20.355	0.307	0.538
1174.500	674.390	79.994	19.992	99.837	20.353	0.379	0.540
1176.001	675.173	79.993	19.991	99.840	20.352	0.470	0.531
1177.501	675.914	79.993	19.991	99.838	20.354	0.367	0.471
1179.000	676.663	79.995	19.991	99.834	20.356	0.223	0.498
1180.500	677.481	79.993	19.992	99.836	20.353	0.406	0.543
1182.000	678.210	79.994	19.991	99.836	20.359	0.056	0.506
1183.500	678.981	79.995	19.991	99.844	20.354	0.363	0.542
1185.000	679.677	79.995	19.990	99.846	20.356	0.260	0.467
1186.500	680.345	79.994	19.990	99.841	20.357	0.180	0.275
1188.001	681.238	79.994	19.991	99.839	20.354	0.356	0.582
1189.500	682.036	79.994	19.992	99.843	20.359	0.077	0.537
1191.000	682.765	79.993	19.991	99.843	20.360	0.017	0.516
1192.500	683.606	79.993	19.992	99.848	20.361	-0.024	0.552
1194.001	684.369	79.993	19.993	99.837	20.359	0.091	0.553
1195.501	685.104	79.994	19.991	99.840	20.357	0.169	0.501
1197.000	685.877	79.994	19.993	99.837	20.357	0.191	0.514
1198.500	686.665	79.994	19.992	99.840	20.357	0.201	0.507
1200.000	687.398	79.993	19.992	99.840	20.358	0.143	0.482
1201.501	688.148	79.994	19.992	99.837	20.355	0.279	0.507
1203.001	688.910	79.994	19.992	99.838	20.358	0.143	0.501
1204.500	689.721	79.994	19.990	99.844	20.359	0.083	0.533
1206.000	690.408	79.995	19.992	99.839	20.363	-0.149	0.448
1207.501	691.211	79.996	19.991	99.847	20.361	-0.037	0.523
1209.000	692.024	79.996	19.992	99.848	20.358	0.130	0.536
1210.500	692.720	79.996	19.992	99.839	20.359	0.070	0.477
1212.000	693.487	79.996	19.990	99.838	20.358	0.107	0.510
1213.500	694.291	79.994	19.992	99.839	20.361	0.001	0.526
1215.001	695.016	79.994	19.992	99.839	20.358	0.109	0.477
1216.500	695.821	79.994	19.993	99.838	20.362	-0.053	0.541
1218.000	696.584	79.993	19.992	99.840	20.356	0.253	0.503
1219.500	697.347	79.994	19.991	99.842	20.356	0.227	0.524
1221.000	698.108	79.995	19.993	99.845	20.354	0.344	0.482
1222.501	698.846	79.994	19.993	99.843	20.358	0.144	0.485
1224.000	699.616	79.993	19.993	99.850	20.357	0.180	0.519
1225.500	700.367	79.993	19.992	99.846	20.358	0.140	0.478
1227.001	701.148	79.994	19.992	99.838	20.362	-0.099	0.501
1228.500	701.891	79.995	19.992	99.839	20.359	0.100	0.485
1230.000	702.650	79.995	19.992	99.845	20.357	0.209	0.512
1231.501	703.363	79.996	19.991	99.845	20.362	-0.059	0.478
1233.001	704.141	79.996	19.992	99.838	20.358	0.121	0.500
1234.501	704.899	79.997	19.991	99.852	20.359	0.103	0.488
1236.000	705.671	79.997	19.991	99.846	20.361	-0.007	0.512
1237.501	706.424	79.997	19.991	99.835	20.359	0.083	0.500
1239.000	707.189	79.996	19.991	99.840	20.360	0.030	0.521
1240.500	707.944	79.994	19.990	99.838	20.358	0.109	0.501
1242.000	708.693	79.993	19.990	99.838	20.358	0.107	0.500
1243.501	709.443	79.994	19.991	99.838	20.362	-0.100	0.504
1245.001	710.177	79.993	19.991	99.835	20.362	-0.090	0.472
1246.500	710.931	79.993	19.991	99.845	20.363	-0.153	0.517
1248.000	711.692	79.994	19.992	99.851	20.364	-0.190	0.505
1249.500	712.498	79.993	19.990	99.837	20.363	-0.146	0.519
1251.000	713.233	79.993	19.992	99.837	20.365	-0.241	0.495
1252.500	714.035	79.994	19.991	99.838	20.366	-0.289	0.522
1254.000	714.814	79.994	19.992	99.835	20.365	-0.234	0.518
1255.500	715.592	79.994	19.992	99.838	20.369	-0.419	0.542
1257.000	716.380	79.994	19.992	99.837	20.367	-0.337	0.508
1258.500	717.177	79.994	19.992	99.837	20.363	-0.139	0.518
1260.001	717.929	79.995	19.991	99.834	20.364	-0.177	0.500
1261.500	718.733	79.994	19.991	99.833	20.364	-0.194	0.521
1263.000	719.501	79.995	19.991	99.834	20.364	-0.203	0.519
1264.501	720.209	79.995	19.991	99.835	20.363	-0.136	0.496
1266.001	721.024	79.995	19.991	99.836	20.366	-0.284	0.543
1267.501	721.840	79.994	19.990	99.837	20.365	-0.239	0.541
1269.000	722.564	79.994	19.991	99.839	20.361	-0.044	0.481
1270.500	723.336	79.994	19.991	99.844	20.366	-0.281	0.507
1272.000	724.107	79.994	19.992	99.843	20.367	-0.329	0.520
1273.501	724.895	79.994	19.991	99.842	20.369	-0.460	0.513
1275.000	725.670	79.993	19.992	99.843	20.365	-0.256	0.539
1276.500	726.477	79.992	19.991	99.840	20.360	0.010	0.545
1278.000	727.244	79.993	19.991	99.839	20.366	-0.264	0.530
1279.500	728.025	79.993	19.992	99.838	20.364	-0.193	0.527
1281.000	728.779	79.995	19.991	99.833	20.365	-0.256	0.503
1282.500	729.560	79.993	19.992	99.832	20.364	-0.200	0.524
1284.000	730.327	79.996	19.992	99.838	20.367	-0.313	0.502
1285.501	731.112	79.996	19.992	99.837	20.367	-0.323	0.509
1287.000	731.833	79.995	19.991	99.828	20.364	-0.204	0.481
1288.501	732.619	79.995	19.991	99.830	20.368	-0.367	0.530
1290.001	733.400	79.994	19.992	99.839	20.367	-0.347	0.524
1291.500	734.098	79.995	19.991	99.839	20.365	-0.246	0.494
1293.000	734.789	79.994	19.991	99.839	20.366	-0.286	0.475
1294.500	735.533	79.995	19.992	99.838	20.363	-0.114	0.512
1296.001	736.235	79.995	19.992	99.837	20.367	-0.344	0.472
1297.500	737.037	79.995	19.992	99.839	20.368	-0.374	0.518
1299.000	737.717	79.995	19.992	99.836	20.367	-0.354	0.445
1300.500	738.480	79.995	19.992	99.836	20.367	-0.323	0.480
1302.000	739.203	79.996	19.993	99.837	20.364	-0.193	0.489
1303.500	739.963	79.996	19.992	99.840	20.365	-0.221	0.505
1305.000	740.729	79.996	19.992	99.839	20.367	-0.314	0.507
1306.500	741.419	79.997	19.992	99.837	20.368	-0.384	0.460
1308.000	742.219	79.996	19.992	99.842	20.365	-0.230	0.513
1309.500	742.944	79.995	19.993	99.856	20.369	-0.466	0.479
1311.000	743.676	79.996	19.992	99.852	20.369	-0.433	0.491