File: 01_Data/MDF/MCC/MDF_MCC_30K_min_210308_R1.txt
Sample ID:	C:\MCC\MCC Cal\Test\MDF_30_1.txt
Sample Weight (mg):	3.87
Heating Rate (C/s):	0.5
Combustor Temp (C):	900
N2 Flow Rate (cc/min):	80
O2 Flow Rate (cc/min):	20
Calibration File:	C:\MCC\MCC Cal\Coeff1 JN10440_30_210304.txt.txt
T Correction Coefficients:	0	1.024463	0
Time Shift (s):	14
*
Time (s)	Temperature (C)	N2 flow rate (cc/min)	O2 flow rate (cc/min)	Flow Rate (cc/min)	Oxygen (%)	HRR (W/g)	Heating rate (C/s)
0.000	105.521	79.987	19.991	99.378	20.183	-0.369	-0.021
1.500	105.483	79.987	19.991	99.380	20.184	-0.437	-0.022
3.000	105.521	79.987	19.992	99.373	20.178	0.077	0.023
4.500	105.502	79.987	19.993	99.383	20.186	-0.630	-0.006
6.000	105.518	79.987	19.991	99.386	20.181	-0.180	0.007
7.500	105.518	79.987	19.993	99.379	20.181	-0.208	0.006
9.000	105.501	79.988	19.993	99.382	20.182	-0.237	-0.002
10.500	105.515	79.988	19.992	99.394	20.181	-0.169	0.017
12.000	105.530	79.987	19.993	99.390	20.179	-0.040	0.005
13.500	105.525	79.988	19.992	99.390	20.183	-0.330	-0.004
15.000	105.473	79.988	19.992	99.409	20.183	-0.338	-0.038
16.500	105.529	79.987	19.990	99.415	20.180	-0.081	0.039
18.000	105.526	79.987	19.991	99.414	20.177	0.123	-0.006
19.500	105.565	79.988	19.991	99.436	20.177	0.119	0.005
21.000	105.583	79.988	19.992	99.470	20.174	0.407	0.006
22.500	105.637	79.988	19.990	99.492	20.170	0.726	0.037
24.000	105.613	79.989	19.991	99.524	20.164	1.214	-0.012
25.501	105.723	79.988	19.990	99.559	20.161	1.403	0.065
27.000	105.805	79.990	19.991	99.582	20.156	1.790	0.071
28.500	105.907	79.989	19.992	99.604	20.149	2.373	0.062
30.000	106.022	79.990	19.991	99.614	20.148	2.461	0.077
31.500	106.154	79.989	19.991	99.621	20.149	2.343	0.093
33.001	106.373	79.989	19.991	99.612	20.148	2.484	0.125
34.500	106.550	79.991	19.991	99.617	20.138	3.234	0.097
36.000	106.753	79.989	19.991	99.633	20.137	3.348	0.149
37.500	106.949	79.987	19.990	99.644	20.137	3.317	0.136
39.000	107.211	79.988	19.991	99.634	20.140	3.071	0.173
40.500	107.453	79.990	19.991	99.634	20.139	3.190	0.160
42.001	107.726	79.988	19.991	99.647	20.137	3.381	0.184
43.500	107.970	79.988	19.990	99.650	20.137	3.311	0.181
45.000	108.291	79.989	19.990	99.663	20.140	3.100	0.207
46.500	108.609	79.989	19.990	99.661	20.137	3.321	0.208
48.000	108.921	79.989	19.990	99.653	20.134	3.554	0.218
49.501	109.216	79.992	19.990	99.657	20.139	3.210	0.185
51.000	109.578	79.991	19.990	99.655	20.135	3.468	0.239
52.500	109.933	79.991	19.991	99.659	20.135	3.521	0.256
54.000	110.327	79.992	19.991	99.658	20.132	3.756	0.257
55.500	110.752	79.991	19.991	99.664	20.135	3.523	0.282
57.000	111.166	79.991	19.990	99.683	20.134	3.561	0.272
58.500	111.604	79.990	19.991	99.684	20.133	3.658	0.285
60.000	111.974	79.990	19.991	99.683	20.136	3.400	0.252
61.500	112.456	79.989	19.992	99.683	20.133	3.645	0.308
63.000	112.952	79.987	19.992	99.692	20.133	3.632	0.321
64.501	113.374	79.987	19.992	99.691	20.134	3.562	0.279
66.000	113.859	79.988	19.991	99.687	20.136	3.465	0.321
67.500	114.366	79.988	19.992	99.694	20.135	3.487	0.350
69.000	114.890	79.988	19.991	99.699	20.132	3.711	0.332
70.501	115.391	79.988	19.991	99.697	20.128	4.039	0.333
72.001	115.897	79.989	19.991	99.710	20.131	3.850	0.331
73.500	116.453	79.988	19.991	99.717	20.129	4.011	0.386
75.001	117.010	79.989	19.992	99.719	20.128	4.088	0.365
76.500	117.521	79.991	19.991	99.724	20.129	3.974	0.355
78.000	118.096	79.989	19.991	99.722	20.129	3.987	0.368
79.500	118.651	79.989	19.992	99.722	20.126	4.266	0.376
81.000	119.248	79.988	19.991	99.722	20.129	3.972	0.395
82.500	119.798	79.989	19.991	99.724	20.128	4.084	0.370
84.000	120.380	79.985	19.991	99.725	20.131	3.829	0.390
85.500	120.977	79.987	19.992	99.725	20.128	4.069	0.391
87.000	121.602	79.987	19.993	99.725	20.128	4.073	0.434
88.501	122.227	79.987	19.992	99.727	20.131	3.864	0.400
90.000	122.862	79.986	19.993	99.726	20.132	3.765	0.407
91.500	123.460	79.986	19.992	99.736	20.130	3.937	0.394
93.000	124.084	79.987	19.993	99.742	20.125	4.274	0.407
94.500	124.758	79.987	19.992	99.740	20.124	4.355	0.450
96.000	125.455	79.988	19.992	99.744	20.124	4.423	0.468
97.500	126.058	79.987	19.991	99.750	20.122	4.525	0.414
99.001	126.711	79.988	19.992	99.739	20.126	4.252	0.436
100.500	127.378	79.987	19.992	99.737	20.121	4.660	0.454
102.000	128.104	79.987	19.991	99.741	20.124	4.409	0.498
103.500	128.805	79.988	19.990	99.738	20.119	4.834	0.447
105.000	129.463	79.988	19.991	99.741	20.128	4.100	0.443
106.500	130.139	79.990	19.991	99.739	20.120	4.719	0.463
108.000	130.842	79.989	19.991	99.746	20.128	4.060	0.483
109.500	131.529	79.990	19.991	99.760	20.126	4.217	0.445
111.001	132.233	79.989	19.992	99.755	20.127	4.151	0.477
112.501	132.905	79.989	19.991	99.762	20.126	4.235	0.450
114.000	133.656	79.989	19.991	99.761	20.127	4.118	0.484
115.500	134.361	79.989	19.992	99.753	20.130	3.895	0.457
117.000	135.068	79.988	19.992	99.748	20.126	4.234	0.486
118.500	135.816	79.988	19.992	99.749	20.127	4.138	0.498
120.000	136.541	79.989	19.991	99.748	20.125	4.320	0.498
121.500	137.303	79.989	19.991	99.750	20.126	4.270	0.520
123.001	138.071	79.988	19.992	99.753	20.125	4.285	0.503
124.501	138.823	79.990	19.992	99.761	20.129	4.012	0.491
126.000	139.582	79.988	19.991	99.752	20.127	4.149	0.513
127.500	140.298	79.989	19.990	99.743	20.126	4.217	0.475
129.000	141.074	79.990	19.991	99.756	20.127	4.164	0.516
130.500	141.822	79.990	19.991	99.753	20.128	4.034	0.508
132.000	142.612	79.992	19.991	99.751	20.129	4.003	0.538
133.500	143.400	79.990	19.991	99.753	20.128	4.100	0.510
135.000	144.148	79.992	19.990	99.754	20.128	4.078	0.503
136.500	144.924	79.991	19.991	99.753	20.128	4.067	0.522
138.000	145.719	79.989	19.991	99.755	20.129	4.023	0.514
139.500	146.456	79.989	19.990	99.757	20.130	3.926	0.505
141.000	147.169	79.991	19.990	99.756	20.126	4.230	0.496
142.500	147.951	79.987	19.990	99.753	20.125	4.287	0.534
144.000	148.752	79.989	19.992	99.753	20.131	3.864	0.539
145.500	149.534	79.987	19.991	99.752	20.125	4.331	0.519
147.000	150.292	79.988	19.991	99.757	20.127	4.116	0.500
148.500	151.075	79.987	19.992	99.753	20.130	3.939	0.520
150.000	151.866	79.986	19.992	99.739	20.128	4.035	0.532
151.500	152.587	79.987	19.992	99.743	20.131	3.820	0.504
153.000	153.362	79.988	19.991	99.746	20.130	3.917	0.522
154.500	154.096	79.988	19.992	99.745	20.130	3.948	0.485
156.000	154.869	79.988	19.992	99.741	20.135	3.527	0.510
157.501	155.602	79.989	19.992	99.747	20.133	3.648	0.489
159.000	156.393	79.987	19.992	99.752	20.135	3.514	0.539
160.500	157.139	79.987	19.991	99.736	20.130	3.903	0.503
162.000	157.900	79.986	19.991	99.733	20.134	3.604	0.518
163.500	158.647	79.989	19.991	99.742	20.134	3.551	0.492
165.000	159.437	79.986	19.991	99.747	20.130	3.927	0.527
166.500	160.207	79.988	19.991	99.740	20.131	3.802	0.513
168.000	160.992	79.985	19.991	99.729	20.134	3.551	0.533
169.500	161.722	79.987	19.991	99.730	20.133	3.679	0.490
171.000	162.509	79.987	19.992	99.731	20.134	3.551	0.523
172.500	163.266	79.987	19.992	99.732	20.133	3.698	0.486
174.000	164.051	79.987	19.993	99.728	20.132	3.758	0.524
175.500	164.818	79.986	19.991	99.728	20.130	3.949	0.499
177.000	165.535	79.986	19.992	99.728	20.128	4.033	0.469
178.500	166.309	79.987	19.993	99.728	20.128	4.037	0.479
180.001	167.055	79.986	19.992	99.727	20.130	3.940	0.498
181.500	167.766	79.988	19.992	99.725	20.130	3.945	0.473
183.000	168.549	79.988	19.992	99.724	20.130	3.883	0.522
184.500	169.306	79.988	19.992	99.726	20.131	3.863	0.497
186.000	170.028	79.988	19.991	99.728	20.134	3.568	0.491
187.500	170.790	79.990	19.991	99.728	20.134	3.566	0.522
189.000	171.530	79.989	19.991	99.725	20.131	3.828	0.490
190.500	172.287	79.991	19.991	99.723	20.134	3.551	0.516
192.000	172.978	79.991	19.991	99.727	20.132	3.747	0.452
193.500	173.775	79.989	19.991	99.725	20.137	3.320	0.521
195.000	174.488	79.989	19.991	99.723	20.137	3.381	0.488
196.500	175.256	79.988	19.991	99.725	20.135	3.529	0.519
198.001	175.985	79.987	19.990	99.723	20.129	3.972	0.507
199.500	176.724	79.988	19.991	99.725	20.134	3.599	0.497
201.000	177.491	79.989	19.992	99.723	20.136	3.389	0.501
202.500	178.230	79.989	19.990	99.724	20.135	3.547	0.496
204.000	178.959	79.988	19.990	99.725	20.132	3.763	0.484
205.500	179.717	79.988	19.991	99.727	20.133	3.677	0.490
207.000	180.457	79.989	19.991	99.726	20.131	3.840	0.496
208.500	181.209	79.990	19.991	99.731	20.136	3.398	0.516
210.000	181.950	79.991	19.991	99.729	20.135	3.496	0.481
211.500	182.687	79.991	19.991	99.737	20.134	3.582	0.488
213.000	183.419	79.990	19.990	99.747	20.132	3.749	0.498
214.500	184.166	79.991	19.990	99.739	20.135	3.494	0.494
216.000	184.927	79.990	19.991	99.740	20.134	3.602	0.495
217.500	185.669	79.993	19.991	99.744	20.136	3.426	0.509
219.000	186.411	79.991	19.991	99.754	20.133	3.633	0.498
220.500	187.188	79.989	19.991	99.748	20.136	3.437	0.502
222.000	187.904	79.987	19.990	99.732	20.133	3.685	0.478
223.500	188.618	79.987	19.990	99.735	20.137	3.323	0.491
225.000	189.377	79.987	19.992	99.735	20.135	3.472	0.523
226.500	190.114	79.987	19.991	99.736	20.137	3.309	0.480
228.000	190.860	79.988	19.991	99.733	20.139	3.223	0.485
229.500	191.581	79.988	19.991	99.730	20.134	3.582	0.485
231.000	192.348	79.988	19.991	99.735	20.134	3.569	0.496
232.500	193.098	79.988	19.992	99.734	20.134	3.562	0.497
234.000	193.795	79.988	19.992	99.739	20.135	3.523	0.466
235.500	194.519	79.987	19.990	99.747	20.138	3.256	0.469
237.000	195.302	79.989	19.992	99.737	20.135	3.544	0.519
238.500	196.031	79.989	19.993	99.732	20.137	3.348	0.484
240.000	196.745	79.988	19.992	99.735	20.136	3.450	0.476
241.500	197.518	79.989	19.992	99.734	20.131	3.822	0.517
243.000	198.279	79.988	19.993	99.732	20.134	3.565	0.504
244.501	199.002	79.987	19.991	99.735	20.133	3.653	0.478
246.000	199.749	79.989	19.991	99.729	20.133	3.663	0.482
247.500	200.422	79.987	19.991	99.725	20.136	3.426	0.464
249.001	201.252	79.989	19.992	99.723	20.131	3.791	0.531
250.500	201.983	79.988	19.992	99.731	20.132	3.787	0.493
252.000	202.712	79.987	19.991	99.731	20.131	3.811	0.487
253.501	203.428	79.987	19.992	99.736	20.138	3.302	0.487
255.000	204.153	79.986	19.991	99.746	20.130	3.875	0.490
256.500	204.920	79.986	19.992	99.731	20.135	3.531	0.508
258.000	205.662	79.987	19.992	99.734	20.135	3.523	0.508
259.500	206.432	79.987	19.992	99.743	20.130	3.932	0.502
261.001	207.136	79.988	19.993	99.737	20.131	3.824	0.455
262.501	207.918	79.987	19.992	99.735	20.131	3.846	0.511
264.000	208.636	79.987	19.992	99.730	20.126	4.214	0.499
265.500	209.365	79.989	19.992	99.731	20.130	3.891	0.503
267.000	210.151	79.989	19.992	99.725	20.127	4.121	0.508
268.500	210.923	79.991	19.992	99.732	20.125	4.344	0.519
270.000	211.605	79.989	19.992	99.743	20.125	4.278	0.471
271.500	212.439	79.988	19.991	99.742	20.123	4.463	0.534
273.000	213.136	79.989	19.991	99.741	20.126	4.212	0.490
274.500	213.833	79.989	19.992	99.739	20.127	4.139	0.461
276.000	214.599	79.989	19.991	99.745	20.123	4.507	0.522
277.500	215.322	79.989	19.990	99.739	20.125	4.302	0.465
279.000	216.082	79.988	19.990	99.737	20.124	4.388	0.485
280.500	216.837	79.987	19.991	99.739	20.123	4.502	0.508
282.000	217.559	79.989	19.991	99.734	20.126	4.267	0.482
283.500	218.288	79.988	19.992	99.732	20.127	4.162	0.490
285.000	219.033	79.989	19.991	99.742	20.127	4.118	0.497
286.500	219.804	79.988	19.991	99.742	20.122	4.523	0.492
288.000	220.518	79.989	19.991	99.733	20.120	4.707	0.470
289.500	221.270	79.990	19.991	99.733	20.116	5.031	0.523
291.000	222.023	79.989	19.990	99.734	20.116	5.073	0.475
292.500	222.769	79.991	19.990	99.740	20.117	4.950	0.519
294.000	223.540	79.991	19.990	99.748	20.115	5.084	0.499
295.500	224.304	79.989	19.989	99.751	20.115	5.142	0.530
297.000	225.063	79.990	19.990	99.750	20.113	5.239	0.510
298.500	225.800	79.989	19.992	99.744	20.112	5.347	0.496
300.000	226.547	79.987	19.991	99.738	20.111	5.474	0.487
301.500	227.310	79.989	19.992	99.738	20.111	5.432	0.510
303.000	228.021	79.989	19.991	99.742	20.112	5.349	0.490
304.500	228.801	79.989	19.991	99.751	20.109	5.602	0.521
306.001	229.528	79.988	19.990	99.749	20.112	5.367	0.476
307.500	230.281	79.987	19.991	99.758	20.107	5.750	0.537
309.000	231.075	79.988	19.991	99.760	20.108	5.644	0.512
310.500	231.802	79.990	19.992	99.758	20.105	5.919	0.467
312.001	232.536	79.988	19.991	99.752	20.102	6.201	0.484
313.500	233.291	79.988	19.991	99.753	20.103	6.102	0.489
315.000	234.073	79.987	19.991	99.757	20.107	5.781	0.527
316.500	234.829	79.988	19.991	99.762	20.105	5.897	0.501
318.000	235.586	79.988	19.991	99.762	20.101	6.250	0.469
319.500	236.331	79.986	19.991	99.762	20.097	6.589	0.525
321.000	237.083	79.988	19.992	99.758	20.100	6.345	0.493
322.500	237.817	79.990	19.992	99.760	20.099	6.375	0.503
324.000	238.512	79.988	19.992	99.757	20.096	6.686	0.456
325.500	239.281	79.989	19.991	99.758	20.098	6.503	0.518
327.000	240.086	79.991	19.993	99.761	20.092	6.990	0.537
328.500	240.799	79.987	19.992	99.761	20.093	6.895	0.476
330.000	241.580	79.989	19.991	99.761	20.093	6.873	0.501
331.500	242.331	79.989	19.991	99.761	20.090	7.111	0.490
333.001	243.066	79.986	19.990	99.763	20.091	7.052	0.503
334.501	243.807	79.989	19.991	99.764	20.089	7.226	0.518
336.000	244.621	79.989	19.991	99.765	20.088	7.292	0.527
337.500	245.369	79.989	19.991	99.765	20.083	7.713	0.515
339.000	246.110	79.988	19.992	99.766	20.082	7.750	0.516
340.500	246.869	79.988	19.992	99.766	20.082	7.769	0.483
342.000	247.613	79.988	19.992	99.767	20.079	7.979	0.495
343.500	248.418	79.989	19.992	99.768	20.079	8.036	0.538
345.000	249.229	79.992	19.992	99.764	20.082	7.811	0.521
346.501	250.003	79.991	19.992	99.764	20.077	8.204	0.530
348.000	250.724	79.989	19.995	99.766	20.076	8.288	0.513
349.500	251.504	79.990	19.993	99.768	20.074	8.402	0.519
351.000	252.237	79.988	19.993	99.762	20.077	8.156	0.471
352.500	252.973	79.987	19.991	99.764	20.075	8.337	0.501
354.000	253.690	79.990	19.991	99.765	20.070	8.751	0.460
355.500	254.497	79.991	19.991	99.765	20.069	8.808	0.525
357.000	255.280	79.990	19.991	99.766	20.066	9.038	0.525
358.500	256.001	79.988	19.992	99.769	20.058	9.698	0.492
360.000	256.764	79.988	19.991	99.773	20.056	9.893	0.494
361.500	257.503	79.988	19.990	99.771	20.054	10.020	0.478
363.000	258.274	79.988	19.990	99.778	20.049	10.400	0.507
364.501	259.050	79.991	19.991	99.785	20.049	10.458	0.531
366.000	259.779	79.990	19.991	99.782	20.048	10.504	0.500
367.500	260.534	79.991	19.991	99.786	20.046	10.642	0.495
369.000	261.277	79.992	19.991	99.784	20.042	11.017	0.497
370.500	261.963	79.994	19.992	99.785	20.039	11.256	0.456
372.000	262.705	79.991	19.991	99.790	20.035	11.538	0.490
373.500	263.454	79.988	19.991	99.789	20.029	12.040	0.507
375.000	264.230	79.994	19.991	99.797	20.026	12.309	0.489
376.500	264.979	79.990	19.990	99.796	20.024	12.428	0.484
378.000	265.694	79.991	19.991	99.793	20.021	12.692	0.479
379.501	266.467	79.991	19.991	99.798	20.018	12.941	0.516
381.001	267.222	79.989	19.992	99.801	20.016	13.051	0.487
382.500	267.943	79.988	19.991	99.802	20.010	13.585	0.471
384.001	268.694	79.988	19.991	99.802	20.007	13.810	0.506
385.500	269.432	79.990	19.991	99.803	20.006	13.862	0.477
387.000	270.220	79.989	19.991	99.807	19.998	14.514	0.519
388.500	270.957	79.992	19.991	99.807	19.998	14.546	0.515
390.000	271.721	79.993	19.992	99.803	19.992	15.053	0.531
391.500	272.442	79.990	19.992	99.803	19.992	14.995	0.482
393.001	273.208	79.989	19.990	99.805	19.986	15.468	0.499
394.500	273.974	79.989	19.991	99.811	19.984	15.661	0.494
396.000	274.727	79.989	19.991	99.816	19.980	15.996	0.504
397.500	275.438	79.990	19.991	99.816	19.976	16.288	0.464
399.000	276.204	79.989	19.991	99.821	19.971	16.672	0.499
400.500	276.943	79.988	19.991	99.830	19.968	16.926	0.503
402.000	277.729	79.989	19.993	99.824	19.966	17.152	0.518
403.500	278.478	79.988	19.991	99.821	19.964	17.290	0.492
405.000	279.219	79.987	19.991	99.827	19.962	17.425	0.488
406.500	279.978	79.990	19.991	99.837	19.957	17.866	0.494
408.000	280.734	79.988	19.992	99.832	19.950	18.366	0.481
409.500	281.489	79.987	19.991	99.831	19.949	18.453	0.531
411.000	282.220	79.989	19.992	99.842	19.947	18.661	0.489
412.500	282.995	79.987	19.991	99.836	19.941	19.162	0.498
414.001	283.742	79.986	19.991	99.838	19.939	19.292	0.489
415.500	284.507	79.990	19.991	99.845	19.935	19.631	0.499
417.000	285.281	79.989	19.992	99.844	19.931	19.930	0.527
418.500	286.042	79.990	19.992	99.843	19.929	20.070	0.511
420.000	286.793	79.990	19.991	99.839	19.927	20.274	0.466
421.500	287.531	79.989	19.991	99.840	19.922	20.668	0.499
423.000	288.341	79.990	19.991	99.845	19.920	20.833	0.537
424.500	289.039	79.992	19.992	99.845	19.917	21.037	0.458
426.000	289.850	79.990	19.991	99.843	19.916	21.113	0.531
427.500	290.598	79.989	19.991	99.841	19.912	21.496	0.531
429.000	291.318	79.992	19.993	99.844	19.908	21.765	0.479
430.500	292.076	79.989	19.992	99.845	19.906	21.981	0.512
432.000	292.824	79.988	19.991	99.844	19.901	22.387	0.516
433.500	293.585	79.988	19.993	99.846	19.899	22.547	0.497
435.000	294.365	79.990	19.993	99.843	19.894	22.916	0.534
436.500	295.119	79.988	19.992	99.846	19.888	23.392	0.499
438.001	295.904	79.989	19.992	99.847	19.884	23.746	0.509
439.500	296.654	79.989	19.992	99.851	19.886	23.576	0.495
441.000	297.425	79.988	19.991	99.868	19.885	23.659	0.499
442.500	298.194	79.990	19.991	99.861	19.878	24.210	0.534
444.000	298.924	79.990	19.991	99.857	19.876	24.385	0.486
445.500	299.701	79.989	19.990	99.870	19.873	24.600	0.504
447.000	300.449	79.990	19.990	99.862	19.872	24.702	0.491
448.500	301.221	79.992	19.991	99.851	19.872	24.724	0.507
450.000	301.958	79.992	19.992	99.858	19.862	25.476	0.494
451.500	302.717	79.992	19.991	99.864	19.858	25.819	0.503
453.000	303.494	79.994	19.991	99.871	19.854	26.107	0.539
454.500	304.229	79.991	19.991	99.872	19.845	26.829	0.500
456.000	305.000	79.992	19.991	99.866	19.843	27.003	0.513
457.500	305.773	79.992	19.991	99.866	19.843	27.016	0.516
459.000	306.544	79.989	19.992	99.876	19.835	27.676	0.510
460.500	307.275	79.989	19.991	99.880	19.833	27.826	0.493
462.000	308.073	79.988	19.991	99.875	19.827	28.348	0.534
463.500	308.812	79.991	19.992	99.875	19.824	28.538	0.488
465.000	309.566	79.989	19.990	99.882	19.821	28.827	0.501
466.500	310.352	79.989	19.991	99.881	19.814	29.332	0.521
468.000	311.059	79.990	19.991	99.883	19.810	29.649	0.482
469.500	311.870	79.989	19.991	99.884	19.809	29.789	0.564
471.000	312.635	79.991	19.990	99.884	19.804	30.196	0.512
472.500	313.356	79.989	19.990	99.885	19.799	30.567	0.495
474.000	314.178	79.991	19.990	99.884	19.792	31.168	0.542
475.500	314.895	79.991	19.991	99.884	19.789	31.371	0.484
477.000	315.647	79.991	19.991	99.885	19.783	31.821	0.504
478.500	316.426	79.990	19.990	99.884	19.779	32.145	0.539
480.000	317.208	79.990	19.990	99.888	19.777	32.305	0.526
481.500	317.987	79.989	19.990	99.894	19.773	32.690	0.506
483.000	318.737	79.990	19.991	99.891	19.770	32.918	0.498
484.501	319.473	79.991	19.991	99.889	19.762	33.553	0.478
486.000	320.241	79.989	19.990	99.892	19.757	33.960	0.514
487.500	321.004	79.990	19.991	99.887	19.751	34.429	0.506
489.000	321.742	79.990	19.991	99.884	19.750	34.513	0.501
490.500	322.519	79.989	19.992	99.887	19.743	35.075	0.522
492.000	323.273	79.988	19.992	99.897	19.739	35.445	0.504
493.500	324.052	79.986	19.992	99.896	19.732	35.938	0.510
495.000	324.851	79.990	19.991	99.895	19.730	36.115	0.540
496.500	325.599	79.990	19.991	99.900	19.724	36.630	0.518
498.000	326.392	79.990	19.991	99.897	19.718	37.093	0.515
499.500	327.133	79.991	19.992	99.901	19.713	37.496	0.499
501.000	327.888	79.991	19.992	99.908	19.705	38.122	0.502
502.500	328.677	79.991	19.992	99.918	19.709	37.867	0.534
504.000	329.401	79.992	19.991	99.917	19.700	38.560	0.469
505.500	330.183	79.991	19.992	99.917	19.694	39.071	0.528
507.000	330.939	79.993	19.992	99.919	19.690	39.329	0.491
508.500	331.723	79.991	19.991	99.920	19.681	40.106	0.516
510.000	332.461	79.990	19.991	99.919	19.671	40.911	0.493
511.500	333.227	79.990	19.992	99.917	19.668	41.118	0.505
513.000	334.035	79.990	19.992	99.919	19.657	42.038	0.538
514.500	334.793	79.989	19.992	99.921	19.652	42.419	0.521
516.000	335.583	79.990	19.992	99.930	19.646	42.906	0.538
517.500	336.311	79.989	19.993	99.939	19.638	43.547	0.463
519.000	337.111	79.992	19.992	99.928	19.630	44.249	0.511
520.500	337.867	79.989	19.992	99.938	19.624	44.688	0.503
522.000	338.625	79.990	19.991	99.940	19.619	45.092	0.501
523.500	339.379	79.989	19.990	99.943	19.606	46.128	0.521
525.000	340.136	79.992	19.990	99.945	19.599	46.692	0.517
526.500	340.897	79.992	19.991	99.956	19.592	47.285	0.495
528.000	341.659	79.992	19.991	99.960	19.584	47.943	0.512
529.500	342.429	79.991	19.990	99.960	19.576	48.572	0.502
531.000	343.159	79.993	19.990	99.960	19.571	48.983	0.476
532.500	343.944	79.991	19.990	99.965	19.560	49.898	0.521
534.000	344.658	79.991	19.990	99.966	19.550	50.712	0.479
535.500	345.431	79.989	19.990	99.973	19.539	51.598	0.491
537.001	346.180	79.989	19.991	99.978	19.527	52.550	0.495
538.500	346.951	79.988	19.991	99.978	19.515	53.522	0.522
540.000	347.692	79.987	19.991	99.985	19.506	54.217	0.515
541.500	348.476	79.989	19.991	99.998	19.501	54.612	0.500
543.000	349.237	79.989	19.991	100.000	19.490	55.524	0.525
544.500	349.973	79.990	19.991	100.000	19.481	56.246	0.491
546.000	350.749	79.989	19.991	100.003	19.470	57.167	0.514
547.500	351.509	79.991	19.991	100.003	19.456	58.260	0.492
549.000	352.241	79.990	19.992	100.005	19.446	59.089	0.497
550.500	353.029	79.989	19.991	100.015	19.437	59.845	0.556
552.000	353.792	79.989	19.991	100.013	19.423	60.980	0.517
553.500	354.527	79.990	19.991	100.018	19.414	61.651	0.470
555.000	355.286	79.989	19.990	100.034	19.401	62.716	0.525
556.500	356.087	79.990	19.990	100.035	19.390	63.579	0.527
558.000	356.828	79.991	19.991	100.035	19.381	64.317	0.505
559.500	357.603	79.990	19.991	100.037	19.367	65.418	0.522
561.000	358.334	79.990	19.990	100.038	19.357	66.268	0.489
562.500	359.111	79.989	19.990	100.038	19.351	66.773	0.516
564.000	359.900	79.989	19.990	100.038	19.342	67.444	0.533
565.500	360.604	79.991	19.991	100.039	19.337	67.855	0.491
567.000	361.370	79.989	19.991	100.038	19.327	68.703	0.509
568.500	362.100	79.990	19.991	100.038	19.319	69.342	0.488
570.000	362.845	79.988	19.990	100.038	19.315	69.646	0.501
571.500	363.606	79.989	19.991	100.036	19.308	70.231	0.523
573.000	364.360	79.990	19.991	100.036	19.308	70.229	0.510
574.500	365.081	79.991	19.992	100.033	19.302	70.673	0.473
576.000	365.880	79.988	19.992	100.031	19.297	71.031	0.516
577.500	366.605	79.991	19.992	100.022	19.305	70.408	0.487
579.000	367.383	79.990	19.991	100.013	19.302	70.630	0.525
580.500	368.105	79.991	19.993	100.006	19.305	70.415	0.474
582.000	368.873	79.991	19.991	100.001	19.304	70.434	0.520
583.500	369.632	79.992	19.990	99.998	19.317	69.429	0.508
585.000	370.402	79.990	19.992	99.998	19.322	68.978	0.483
586.500	371.127	79.991	19.991	99.986	19.335	67.919	0.501
588.000	371.873	79.991	19.991	99.970	19.341	67.417	0.516
589.500	372.635	79.989	19.992	99.962	19.357	66.131	0.501
591.000	373.398	79.991	19.990	99.950	19.374	64.784	0.510
592.500	374.164	79.991	19.991	99.937	19.396	62.967	0.497
594.000	374.902	79.990	19.992	99.926	19.413	61.650	0.520
595.500	375.677	79.988	19.991	99.912	19.441	59.378	0.528
597.000	376.433	79.988	19.991	99.894	19.463	57.603	0.514
598.500	377.161	79.989	19.992	99.881	19.495	54.965	0.502
600.000	377.946	79.991	19.993	99.871	19.524	52.637	0.522
601.500	378.724	79.991	19.992	99.857	19.556	50.075	0.528
603.000	379.478	79.990	19.992	99.840	19.588	47.525	0.510
604.500	380.241	79.991	19.991	99.826	19.622	44.779	0.490
606.000	380.969	79.991	19.990	99.816	19.658	41.876	0.492
607.500	381.756	79.993	19.991	99.805	19.694	38.992	0.508
609.000	382.516	79.991	19.990	99.796	19.728	36.232	0.530
610.500	383.281	79.993	19.990	99.793	19.764	33.340	0.510
612.000	384.060	79.991	19.991	99.787	19.796	30.783	0.534
613.500	384.803	79.992	19.991	99.777	19.830	28.018	0.502
615.000	385.597	79.990	19.990	99.765	19.856	25.981	0.529
616.500	386.436	79.990	19.991	99.765	19.890	23.179	0.567
618.000	387.175	79.988	19.992	99.766	19.915	21.182	0.502
619.500	387.925	79.989	19.991	99.767	19.944	18.860	0.506
621.000	388.713	79.989	19.992	99.765	19.961	17.500	0.528
622.500	389.474	79.991	19.991	99.764	19.985	15.596	0.513
624.000	390.281	79.988	19.991	99.765	20.001	14.314	0.537
625.500	391.040	79.988	19.992	99.767	20.018	12.951	0.519
627.000	391.844	79.988	19.990	99.763	20.025	12.383	0.537
628.500	392.602	79.988	19.991	99.767	20.038	11.298	0.512
630.000	393.378	79.989	19.993	99.767	20.045	10.710	0.523
631.501	394.196	79.988	19.991	99.768	20.051	10.285	0.551
633.000	394.985	79.989	19.990	99.765	20.062	9.393	0.522
634.500	395.730	79.989	19.992	99.763	20.066	9.096	0.519
636.000	396.517	79.989	19.991	99.764	20.071	8.640	0.529
637.500	397.277	79.991	19.993	99.765	20.076	8.246	0.533
639.000	398.071	79.990	19.990	99.766	20.080	7.944	0.524
640.501	398.886	79.990	19.991	99.769	20.085	7.541	0.556
642.000	399.635	79.988	19.992	99.769	20.086	7.481	0.492
643.500	400.434	79.988	19.990	99.767	20.087	7.395	0.518
645.000	401.186	79.989	19.991	99.766	20.091	7.069	0.503
646.500	401.946	79.991	19.993	99.766	20.091	7.027	0.524
648.000	402.730	79.989	19.992	99.768	20.095	6.761	0.508
649.500	403.507	79.989	19.992	99.767	20.093	6.913	0.534
651.000	404.273	79.988	19.992	99.767	20.099	6.437	0.531
652.500	405.025	79.988	19.991	99.767	20.101	6.231	0.498
654.000	405.810	79.988	19.991	99.767	20.098	6.479	0.528
655.500	406.580	79.987	19.990	99.765	20.100	6.314	0.516
657.000	407.304	79.990	19.992	99.765	20.099	6.369	0.502
658.500	408.119	79.989	19.991	99.766	20.104	6.028	0.531
660.000	408.892	79.992	19.991	99.766	20.108	5.693	0.532
661.500	409.630	79.991	19.992	99.766	20.109	5.629	0.499
663.000	410.389	79.989	19.991	99.766	20.109	5.587	0.500
664.500	411.196	79.989	19.991	99.770	20.109	5.563	0.543
666.000	411.953	79.988	19.992	99.761	20.106	5.834	0.519
667.500	412.692	79.990	19.990	99.762	20.113	5.303	0.491
669.000	413.438	79.988	19.991	99.766	20.111	5.411	0.510
670.500	414.177	79.988	19.990	99.766	20.114	5.169	0.465
672.000	414.960	79.990	19.992	99.765	20.109	5.572	0.527
673.500	415.746	79.990	19.991	99.765	20.110	5.558	0.519
675.000	416.500	79.989	19.991	99.765	20.115	5.113	0.490
676.500	417.267	79.992	19.992	99.763	20.109	5.582	0.509
678.000	418.027	79.991	19.993	99.765	20.112	5.331	0.492
679.500	418.758	79.991	19.992	99.762	20.118	4.911	0.507
681.000	419.544	79.992	19.992	99.761	20.119	4.801	0.532
682.500	420.320	79.992	19.991	99.761	20.114	5.199	0.516
684.000	421.092	79.990	19.991	99.760	20.118	4.838	0.502
685.500	421.774	79.989	19.993	99.760	20.116	5.003	0.470
687.000	422.561	79.990	19.991	99.759	20.124	4.387	0.521
688.500	423.344	79.992	19.991	99.761	20.118	4.865	0.518
690.000	424.069	79.991	19.993	99.761	20.120	4.688	0.486
691.500	424.828	79.988	19.991	99.760	20.122	4.589	0.479
693.000	425.605	79.990	19.991	99.759	20.121	4.627	0.495
694.500	426.332	79.990	19.991	99.763	20.126	4.202	0.474
696.000	427.103	79.990	19.991	99.763	20.128	4.107	0.482
697.500	427.857	79.988	19.992	99.763	20.122	4.561	0.508
699.000	428.583	79.989	19.991	99.762	20.124	4.360	0.480
700.500	429.359	79.989	19.991	99.760	20.125	4.332	0.506
702.000	430.120	79.989	19.990	99.757	20.129	4.006	0.515
703.500	430.829	79.988	19.990	99.759	20.131	3.828	0.464
705.000	431.584	79.987	19.990	99.766	20.134	3.623	0.500
706.500	432.360	79.989	19.989	99.764	20.136	3.457	0.524
708.000	433.109	79.989	19.990	99.760	20.134	3.614	0.518
709.500	433.937	79.988	19.991	99.763	20.136	3.392	0.543
711.000	434.708	79.987	19.990	99.763	20.135	3.524	0.517
712.500	435.423	79.991	19.991	99.763	20.137	3.343	0.487
714.000	436.187	79.988	19.992	99.765	20.142	2.982	0.508
715.500	437.002	79.988	19.991	99.766	20.140	3.121	0.543
717.000	437.742	79.989	19.990	99.762	20.136	3.427	0.488
718.500	438.532	79.990	19.990	99.759	20.138	3.290	0.523
720.000	439.277	79.989	19.991	99.763	20.139	3.171	0.513
721.500	440.054	79.988	19.992	99.767	20.140	3.114	0.509
723.000	440.810	79.989	19.992	99.767	20.141	3.006	0.486
724.500	441.521	79.987	19.992	99.760	20.147	2.508	0.485
726.000	442.330	79.989	19.990	99.760	20.139	3.184	0.518
727.501	443.082	79.987	19.993	99.767	20.143	2.832	0.491
729.000	443.810	79.987	19.990	99.765	20.147	2.511	0.457
730.500	444.585	79.988	19.990	99.769	20.158	1.638	0.523
732.000	445.315	79.988	19.991	99.769	20.146	2.660	0.478
733.500	446.083	79.989	19.991	99.768	20.150	2.336	0.514
735.000	446.790	79.989	19.991	99.767	20.147	2.570	0.483
736.500	447.573	79.988	19.990	99.765	20.152	2.147	0.514
738.001	448.366	79.991	19.991	99.763	20.155	1.923	0.512
739.500	449.060	79.990	19.991	99.764	20.154	1.973	0.462
741.000	449.855	79.990	19.991	99.765	20.154	1.982	0.528
742.500	450.618	79.990	19.992	99.757	20.156	1.782	0.528
744.000	451.360	79.991	19.992	99.757	20.155	1.876	0.485
745.500	452.122	79.991	19.992	99.764	20.150	2.295	0.519
747.000	452.900	79.988	19.990	99.766	20.154	1.977	0.495
748.501	453.629	79.988	19.992	99.762	20.151	2.204	0.499
750.001	454.417	79.989	19.992	99.761	20.154	1.951	0.524
751.500	455.183	79.990	19.992	99.761	20.153	2.021	0.501
753.000	455.909	79.992	19.992	99.758	20.156	1.817	0.488
754.500	456.724	79.990	19.992	99.758	20.156	1.801	0.534
756.000	457.470	79.989	19.990	99.761	20.154	1.980	0.487
757.500	458.206	79.989	19.992	99.756	20.162	1.306	0.502
759.000	458.941	79.989	19.993	99.753	20.156	1.784	0.494
760.500	459.752	79.990	19.990	99.761	20.158	1.621	0.525
762.000	460.528	79.992	19.991	99.758	20.155	1.925	0.510
763.501	461.266	79.991	19.991	99.749	20.160	1.495	0.495
765.000	462.019	79.991	19.992	99.755	20.159	1.572	0.488
766.500	462.779	79.992	19.991	99.755	20.162	1.365	0.497
768.000	463.549	79.989	19.992	99.759	20.157	1.729	0.511
769.500	464.317	79.989	19.991	99.753	20.163	1.242	0.512
771.000	465.018	79.989	19.992	99.751	20.160	1.484	0.471
772.500	465.813	79.989	19.990	99.755	20.158	1.621	0.532
774.000	466.565	79.987	19.992	99.754	20.163	1.231	0.506
775.500	467.360	79.987	19.991	99.756	20.163	1.275	0.537
777.000	468.096	79.988	19.990	99.764	20.167	0.962	0.494
778.500	468.874	79.988	19.991	99.766	20.164	1.178	0.518
780.000	469.655	79.989	19.991	99.764	20.163	1.233	0.527
781.500	470.391	79.990	19.990	99.766	20.166	0.987	0.498
783.000	471.178	79.988	19.991	99.765	20.166	0.987	0.530
784.501	471.928	79.988	19.990	99.762	20.169	0.815	0.496
786.000	472.675	79.989	19.991	99.763	20.167	0.896	0.488
787.500	473.445	79.989	19.990	99.756	20.166	0.982	0.512
789.000	474.254	79.989	19.990	99.761	20.168	0.874	0.552
790.500	474.989	79.988	19.992	99.763	20.167	0.967	0.497
792.000	475.775	79.989	19.991	99.765	20.175	0.297	0.506
793.500	476.534	79.988	19.991	99.768	20.173	0.440	0.509
795.000	477.326	79.989	19.991	99.759	20.167	0.943	0.559
796.500	478.100	79.989	19.991	99.757	20.169	0.742	0.530
798.000	478.836	79.989	19.990	99.763	20.170	0.718	0.466
799.500	479.606	79.989	19.990	99.763	20.175	0.253	0.501
801.000	480.378	79.989	19.991	99.759	20.171	0.636	0.504
802.500	481.147	79.986	19.990	99.758	20.169	0.777	0.511
804.000	481.877	79.989	19.992	99.763	20.174	0.407	0.516
805.501	482.707	79.987	19.990	99.763	20.172	0.513	0.549
807.000	483.422	79.988	19.992	99.758	20.174	0.341	0.481
808.500	484.200	79.988	19.991	99.757	20.177	0.115	0.503
810.000	484.972	79.989	19.990	99.757	20.179	-0.048	0.531
811.500	485.749	79.986	19.990	99.760	20.175	0.291	0.510
813.000	486.537	79.989	19.991	99.747	20.183	-0.319	0.523
814.501	487.308	79.989	19.990	99.752	20.184	-0.447	0.524
816.000	488.054	79.991	19.991	99.762	20.182	-0.242	0.515
817.500	488.822	79.989	19.990	99.764	20.175	0.291	0.519
819.000	489.574	79.989	19.991	99.757	20.178	0.020	0.485
820.500	490.345	79.990	19.991	99.758	20.175	0.277	0.513
822.000	491.123	79.989	19.992	99.757	20.182	-0.236	0.518
823.500	491.933	79.990	19.991	99.752	20.183	-0.333	0.530
825.000	492.720	79.990	19.991	99.752	20.184	-0.429	0.501
826.500	493.455	79.991	19.990	99.751	20.184	-0.401	0.500
828.000	494.243	79.989	19.991	99.754	20.188	-0.782	0.513
829.500	494.997	79.989	19.991	99.752	20.187	-0.634	0.504
831.000	495.758	79.988	19.992	99.752	20.187	-0.652	0.520
832.500	496.550	79.990	19.992	99.757	20.186	-0.570	0.520
834.000	497.273	79.989	19.991	99.755	20.189	-0.832	0.503
835.500	498.069	79.991	19.991	99.748	20.190	-0.909	0.515
837.000	498.823	79.989	19.990	99.742	20.192	-1.097	0.500
838.500	499.592	79.990	19.992	99.754	20.189	-0.826	0.501
840.000	500.384	79.990	19.991	99.759	20.192	-1.110	0.538
841.500	501.181	79.990	19.991	99.759	20.194	-1.200	0.539
843.000	501.956	79.990	19.992	99.760	20.193	-1.185	0.522
844.500	502.706	79.991	19.991	99.760	20.193	-1.189	0.507
846.000	503.489	79.991	19.991	99.753	20.193	-1.119	0.504
847.500	504.260	79.989	19.990	99.754	20.190	-0.907	0.519
849.000	505.024	79.988	19.992	99.757	20.191	-0.991	0.518
850.500	505.801	79.987	19.992	99.758	20.195	-1.343	0.510
852.000	506.575	79.986	19.993	99.758	20.194	-1.209	0.515
853.500	507.311	79.985	19.991	99.758	20.195	-1.348	0.505
855.000	508.117	79.987	19.992	99.754	20.194	-1.216	0.535
856.500	508.881	79.987	19.992	99.750	20.189	-0.835	0.532
858.000	509.613	79.988	19.992	99.747	20.196	-1.372	0.489
859.500	510.392	79.988	19.991	99.751	20.195	-1.301	0.506
861.000	511.152	79.987	19.992	99.756	20.193	-1.125	0.503
862.500	511.918	79.988	19.991	99.755	20.193	-1.191	0.520
864.000	512.641	79.988	19.991	99.751	20.196	-1.427	0.498
865.500	513.443	79.989	19.991	99.758	20.197	-1.508	0.528
867.000	514.233	79.988	19.991	99.760	20.194	-1.226	0.543
868.500	515.017	79.990	19.991	99.750	20.195	-1.348	0.523
870.000	515.753	79.990	19.991	99.743	20.199	-1.665	0.504
871.500	516.541	79.989	19.990	99.743	20.192	-1.092	0.527
873.000	517.340	79.988	19.990	99.746	20.199	-1.618	0.552
874.500	518.077	79.988	19.990	99.755	20.197	-1.438	0.488
876.000	518.857	79.987	19.990	99.754	20.197	-1.445	0.510
877.500	519.642	79.987	19.992	99.749	20.196	-1.425	0.519
879.000	520.406	79.988	19.992	99.759	20.196	-1.427	0.502
880.500	521.144	79.987	19.992	99.760	20.196	-1.370	0.498
882.000	521.956	79.987	19.991	99.761	20.198	-1.579	0.544
883.500	522.720	79.987	19.991	99.756	20.200	-1.691	0.520
885.000	523.487	79.987	19.991	99.755	20.201	-1.803	0.516
886.500	524.257	79.988	19.991	99.761	20.199	-1.616	0.528
888.000	525.016	79.989	19.991	99.754	20.200	-1.755	0.506
889.500	525.792	79.990	19.991	99.747	20.200	-1.684	0.503
891.000	526.530	79.990	19.991	99.758	20.202	-1.916	0.507
892.500	527.295	79.988	19.990	99.757	20.199	-1.658	0.509
894.000	528.087	79.990	19.991	99.754	20.198	-1.583	0.551
895.500	528.875	79.989	19.991	99.746	20.196	-1.411	0.519
897.000	529.642	79.989	19.990	99.739	20.197	-1.486	0.520
898.500	530.420	79.990	19.990	99.746	20.206	-2.178	0.530
900.000	531.222	79.990	19.991	99.747	20.201	-1.779	0.514
901.500	531.958	79.990	19.991	99.747	20.202	-1.841	0.511
903.000	532.715	79.990	19.991	99.755	20.204	-2.034	0.532
904.500	533.516	79.990	19.992	99.756	20.201	-1.821	0.524
906.000	534.277	79.988	19.991	99.754	20.198	-1.592	0.499
907.500	535.058	79.988	19.991	99.752	20.207	-2.246	0.534
909.000	535.842	79.988	19.991	99.756	20.204	-2.048	0.519
910.500	536.636	79.989	19.991	99.755	20.200	-1.731	0.538
912.000	537.415	79.989	19.991	99.750	20.204	-2.023	0.508
913.500	538.212	79.989	19.991	99.743	20.201	-1.803	0.527
915.000	538.972	79.989	19.992	99.753	20.202	-1.898	0.515
916.500	539.774	79.991	19.992	99.750	20.206	-2.210	0.533
918.000	540.529	79.991	19.991	99.737	20.209	-2.477	0.515
919.500	541.302	79.991	19.991	99.738	20.204	-2.034	0.515
921.000	542.065	79.992	19.992	99.739	20.211	-2.563	0.526
922.500	542.863	79.990	19.991	99.746	20.210	-2.530	0.524
924.000	543.616	79.991	19.991	99.740	20.205	-2.133	0.502
925.500	544.327	79.990	19.990	99.742	20.206	-2.235	0.480
927.000	545.106	79.990	19.992	99.734	20.209	-2.442	0.510
928.500	545.855	79.989	19.991	99.743	20.207	-2.288	0.497
930.000	546.695	79.987	19.991	99.737	20.207	-2.320	0.548
931.500	547.462	79.988	19.992	99.737	20.212	-2.644	0.514
933.000	548.228	79.989	19.991	99.738	20.209	-2.424	0.505
934.500	549.026	79.988	19.992	99.734	20.212	-2.706	0.520
936.000	549.822	79.989	19.993	99.725	20.217	-3.058	0.531
937.500	550.581	79.988	19.992	99.740	20.210	-2.545	0.502
939.000	551.324	79.988	19.991	99.747	20.211	-2.578	0.511
940.500	552.104	79.989	19.991	99.731	20.214	-2.864	0.532
942.001	552.887	79.989	19.992	99.729	20.213	-2.748	0.520
943.500	553.643	79.989	19.991	99.730	20.213	-2.783	0.518
945.000	554.446	79.989	19.991	99.727	20.217	-3.082	0.539
946.500	555.213	79.989	19.991	99.729	20.215	-2.955	0.503
948.000	556.007	79.990	19.990	99.734	20.216	-2.988	0.524
949.500	556.740	79.991	19.991	99.731	20.213	-2.766	0.493
951.000	557.489	79.991	19.991	99.732	20.218	-3.137	0.497
952.500	558.256	79.989	19.991	99.737	20.215	-2.937	0.511
954.000	559.005	79.988	19.990	99.734	20.216	-2.990	0.507
955.500	559.780	79.988	19.990	99.730	20.214	-2.827	0.492
957.000	560.553	79.988	19.991	99.731	20.212	-2.708	0.505
958.500	561.306	79.988	19.992	99.744	20.216	-2.966	0.496
960.000	562.093	79.989	19.990	99.748	20.218	-3.177	0.513
961.500	562.818	79.989	19.992	99.735	20.220	-3.294	0.492
963.000	563.558	79.988	19.992	99.734	20.216	-2.970	0.511
964.500	564.352	79.989	19.991	99.732	20.218	-3.177	0.511
966.000	565.057	79.989	19.991	99.736	20.216	-3.010	0.456
967.500	565.832	79.988	19.991	99.738	20.218	-3.186	0.488
969.000	566.611	79.989	19.991	99.742	20.222	-3.448	0.486
970.500	567.352	79.990	19.992	99.736	20.217	-3.105	0.504
972.000	568.101	79.990	19.991	99.748	20.219	-3.228	0.502
973.500	568.883	79.990	19.990	99.751	20.220	-3.320	0.500
975.000	569.620	79.990	19.990	99.741	20.218	-3.175	0.506
976.500	570.395	79.990	19.990	99.740	20.218	-3.181	0.537
978.000	571.105	79.990	19.990	99.741	20.219	-3.221	0.469
979.500	571.870	79.991	19.990	99.750	20.216	-2.990	0.516
981.000	572.634	79.991	19.991	99.747	20.217	-3.069	0.513
982.500	573.468	79.989	19.990	99.743	20.220	-3.305	0.543
984.000	574.222	79.989	19.992	99.752	20.220	-3.329	0.502
985.500	575.028	79.991	19.990	99.735	20.223	-3.551	0.527
987.000	575.791	79.990	19.991	99.727	20.220	-3.324	0.511
988.500	576.594	79.989	19.991	99.741	20.222	-3.503	0.519
990.000	577.298	79.989	19.991	99.750	20.224	-3.611	0.471
991.500	578.096	79.989	19.991	99.740	20.222	-3.509	0.546
993.000	578.857	79.990	19.991	99.739	20.224	-3.613	0.481
994.500	579.593	79.992	19.991	99.738	20.221	-3.387	0.476
996.000	580.378	79.990	19.992	99.734	20.222	-3.496	0.515
997.500	581.175	79.991	19.992	99.728	20.226	-3.809	0.536
999.000	581.929	79.991	19.991	99.732	20.229	-4.044	0.492
1000.500	582.688	79.990	19.992	99.745	20.225	-3.697	0.521
1002.000	583.454	79.991	19.991	99.732	20.227	-3.901	0.501
1003.500	584.219	79.991	19.991	99.731	20.226	-3.807	0.503
1005.000	584.996	79.991	19.991	99.748	20.229	-4.086	0.525
1006.500	585.736	79.990	19.991	99.738	20.228	-3.954	0.520
1008.000	586.541	79.990	19.992	99.736	20.227	-3.915	0.539
1009.500	587.265	79.990	19.992	99.742	20.225	-3.697	0.504
1011.000	588.034	79.988	19.992	99.741	20.225	-3.760	0.515
1012.500	588.809	79.989	19.991	99.743	20.227	-3.925	0.516
1014.000	589.605	79.988	19.992	99.734	20.227	-3.870	0.522
1015.500	590.356	79.987	19.992	99.733	20.227	-3.880	0.519
1017.000	591.130	79.988	19.992	99.731	20.224	-3.668	0.529
1018.500	591.918	79.987	19.992	99.745	20.226	-3.833	0.531
1020.000	592.674	79.988	19.992	99.742	20.226	-3.771	0.506
1021.500	593.434	79.988	19.992	99.727	20.229	-4.088	0.509
1023.000	594.200	79.987	19.992	99.733	20.229	-4.018	0.501
1024.501	594.960	79.988	19.991	99.736	20.228	-3.968	0.519
1026.000	595.752	79.987	19.991	99.745	20.227	-3.926	0.530
1027.500	596.493	79.990	19.992	99.750	20.227	-3.866	0.488
1029.000	597.268	79.990	19.991	99.730	20.229	-4.089	0.520
1030.500	598.016	79.989	19.991	99.728	20.226	-3.826	0.506
1032.000	598.797	79.989	19.991	99.731	20.227	-3.881	0.524
1033.500	599.554	79.989	19.991	99.731	20.231	-4.211	0.506
1035.000	600.322	79.988	19.991	99.741	20.228	-3.930	0.519
1036.500	601.071	79.988	19.990	99.740	20.227	-3.883	0.492
1038.001	601.869	79.987	19.991	99.736	20.229	-4.035	0.552
1039.500	602.585	79.987	19.991	99.742	20.231	-4.238	0.466
1041.000	603.333	79.988	19.991	99.736	20.234	-4.447	0.509
1042.500	604.111	79.988	19.991	99.732	20.231	-4.189	0.521
1044.000	604.899	79.988	19.991	99.730	20.230	-4.101	0.501
1045.500	605.660	79.988	19.992	99.730	20.229	-4.070	0.507
1047.001	606.449	79.989	19.991	99.726	20.228	-4.002	0.530
1048.500	607.192	79.989	19.991	99.726	20.229	-4.079	0.501
1050.000	607.944	79.989	19.991	99.730	20.230	-4.158	0.508
1051.500	608.719	79.990	19.991	99.733	20.228	-3.991	0.516
1053.001	609.454	79.991	19.991	99.727	20.228	-3.934	0.477
1054.500	610.263	79.990	19.991	99.726	20.229	-4.011	0.530
1056.000	611.017	79.990	19.990	99.729	20.228	-3.985	0.482
1057.500	611.751	79.990	19.991	99.727	20.231	-4.207	0.460
1059.000	612.540	79.989	19.991	99.728	20.228	-4.005	0.529
1060.500	613.265	79.990	19.991	99.724	20.228	-3.965	0.486
1062.000	614.058	79.989	19.990	99.724	20.229	-4.088	0.535
1063.500	614.844	79.989	19.991	99.725	20.222	-3.489	0.514
1065.000	615.579	79.989	19.990	99.729	20.223	-3.604	0.485
1066.500	616.346	79.989	19.991	99.732	20.229	-4.053	0.534
1068.000	617.112	79.990	19.991	99.729	20.230	-4.110	0.521
1069.500	617.866	79.989	19.990	99.730	20.232	-4.266	0.492
1071.000	618.662	79.990	19.991	99.736	20.230	-4.148	0.541
1072.500	619.445	79.991	19.991	99.726	20.234	-4.418	0.520
1074.000	620.185	79.991	19.991	99.726	20.235	-4.493	0.472
1075.500	620.964	79.990	19.992	99.724	20.238	-4.773	0.500
1077.000	621.696	79.991	19.991	99.726	20.232	-4.289	0.501
1078.500	622.479	79.992	19.990	99.734	20.234	-4.434	0.530
1080.000	623.256	79.991	19.992	99.730	20.235	-4.500	0.530
1081.500	624.011	79.991	19.990	99.726	20.232	-4.328	0.526
1083.000	624.792	79.989	19.991	99.729	20.234	-4.458	0.508
1084.500	625.599	79.989	19.991	99.729	20.233	-4.332	0.546
1086.000	626.355	79.988	19.992	99.739	20.232	-4.266	0.514
1087.500	627.119	79.988	19.992	99.736	20.235	-4.568	0.485
1089.000	627.868	79.989	19.991	99.728	20.230	-4.152	0.512
1090.500	628.667	79.989	19.991	99.727	20.234	-4.436	0.546
1092.000	629.432	79.988	19.992	99.726	20.234	-4.456	0.499
1093.500	630.139	79.989	19.991	99.728	20.232	-4.255	0.488
1095.001	630.962	79.988	19.991	99.729	20.234	-4.480	0.547
1096.501	631.689	79.987	19.991	99.727	20.233	-4.379	0.491
1098.000	632.443	79.987	19.992	99.728	20.232	-4.251	0.506
1099.501	633.217	79.988	19.992	99.731	20.234	-4.442	0.543
1101.002	633.981	79.987	19.991	99.729	20.234	-4.473	0.511
1102.500	634.758	79.988	19.992	99.728	20.233	-4.388	0.506
1104.001	635.563	79.988	19.991	99.728	20.235	-4.504	0.539
1105.501	636.309	79.988	19.992	99.728	20.231	-4.240	0.514
1107.000	637.028	79.989	19.993	99.729	20.235	-4.519	0.484
1108.500	637.852	79.988	19.993	99.731	20.237	-4.660	0.532
1110.000	638.634	79.989	19.992	99.725	20.237	-4.671	0.523
1111.500	639.366	79.990	19.992	99.723	20.233	-4.383	0.492
1113.000	640.139	79.990	19.991	99.730	20.237	-4.671	0.541
1114.500	640.957	79.989	19.991	99.728	20.236	-4.649	0.528
1116.000	641.681	79.989	19.991	99.725	20.237	-4.685	0.480
1117.500	642.469	79.990	19.991	99.724	20.234	-4.491	0.532
1119.000	643.179	79.989	19.991	99.724	20.238	-4.737	0.490
1120.500	643.959	79.988	19.991	99.725	20.237	-4.713	0.517
1122.000	644.674	79.987	19.991	99.728	20.239	-4.889	0.477
1123.500	645.444	79.988	19.991	99.728	20.237	-4.687	0.526
1125.000	646.256	79.989	19.990	99.727	20.238	-4.788	0.541
1126.500	647.027	79.989	19.991	99.726	20.239	-4.825	0.522
1128.000	647.792	79.991	19.990	99.724	20.238	-4.759	0.511
1129.501	648.608	79.991	19.991	99.725	20.236	-4.636	0.549
1131.000	649.352	79.991	19.991	99.724	20.236	-4.641	0.514
1132.500	650.144	79.990	19.991	99.722	20.237	-4.660	0.525
1134.000	650.926	79.990	19.991	99.723	20.236	-4.643	0.499
1135.500	651.689	79.990	19.992	99.724	20.236	-4.594	0.512
1137.000	652.486	79.990	19.992	99.725	20.235	-4.494	0.527
1138.500	653.240	79.990	19.992	99.726	20.238	-4.771	0.515
1140.000	654.043	79.990	19.991	99.725	20.239	-4.832	0.506
1141.500	654.815	79.991	19.990	99.725	20.237	-4.726	0.519
1143.000	655.603	79.990	19.992	99.726	20.233	-4.379	0.534
1144.500	656.375	79.988	19.990	99.725	20.240	-4.931	0.504
1146.000	657.149	79.990	19.991	99.725	20.240	-4.960	0.519
1147.500	657.953	79.991	19.991	99.735	20.236	-4.605	0.531
1149.001	658.707	79.991	19.990	99.736	20.242	-5.072	0.478
1150.501	659.473	79.991	19.990	99.727	20.240	-4.929	0.482
1152.000	660.248	79.991	19.990	99.726	20.243	-5.149	0.530
1153.500	661.012	79.992	19.991	99.724	20.238	-4.803	0.512
1155.000	661.817	79.992	19.991	99.727	20.239	-4.876	0.539
1156.500	662.612	79.990	19.990	99.730	20.240	-4.967	0.512
1158.000	663.380	79.991	19.991	99.729	20.241	-5.011	0.523
1159.500	664.161	79.990	19.991	99.726	20.238	-4.737	0.498
1161.000	664.954	79.990	19.991	99.728	20.242	-5.061	0.538
1162.500	665.727	79.987	19.991	99.726	20.240	-4.955	0.531
1164.000	666.520	79.988	19.991	99.726	20.244	-5.251	0.513
1165.500	667.310	79.988	19.990	99.726	20.241	-5.015	0.523
1167.000	668.044	79.988	19.990	99.729	20.242	-5.061	0.499
1168.501	668.842	79.990	19.991	99.729	20.239	-4.863	0.519
1170.000	669.622	79.989	19.991	99.726	20.241	-5.032	0.516
1171.500	670.399	79.989	19.992	99.726	20.246	-5.389	0.505
1173.002	671.164	79.989	19.991	99.724	20.243	-5.171	0.521
1174.500	671.893	79.990	19.992	99.733	20.241	-4.977	0.514
1176.000	672.671	79.989	19.991	99.734	20.242	-5.074	0.512
1177.500	673.525	79.990	19.991	99.724	20.242	-5.070	0.572
1179.000	674.284	79.988	19.991	99.727	20.239	-4.885	0.530
1180.500	675.082	79.988	19.991	99.727	20.241	-4.986	0.538
1182.000	675.888	79.990	19.993	99.726	20.240	-4.957	0.564
1183.501	676.606	79.987	19.992	99.723	20.239	-4.869	0.508
1185.002	677.407	79.988	19.992	99.727	20.237	-4.660	0.521
1186.500	678.199	79.989	19.992	99.726	20.240	-4.940	0.509
1188.000	678.973	79.988	19.993	99.721	20.243	-5.156	0.502
1189.500	679.737	79.988	19.992	99.722	20.237	-4.660	0.504
1191.000	680.507	79.989	19.992	99.723	20.241	-5.010	0.502
1192.500	681.280	79.989	19.992	99.722	20.239	-4.828	0.504
1194.000	682.062	79.988	19.991	99.722	20.239	-4.832	0.529
1195.501	682.820	79.988	19.992	99.722	20.238	-4.768	0.546
1197.000	683.563	79.988	19.990	99.723	20.242	-5.085	0.484
1198.500	684.297	79.989	19.991	99.723	20.242	-5.085	0.520
1200.000	685.105	79.988	19.991	99.723	20.244	-5.242	0.552
1201.500	685.872	79.989	19.990	99.722	20.246	-5.446	0.508
1203.000	686.670	79.989	19.991	99.723	20.243	-5.156	0.527
1204.500	687.424	79.990	19.990	99.725	20.246	-5.380	0.506
1206.000	688.181	79.990	19.990	99.722	20.242	-5.114	0.523
1207.500	688.929	79.990	19.990	99.721	20.247	-5.490	0.513
1209.001	689.716	79.991	19.990	99.726	20.241	-5.046	0.504
1210.500	690.496	79.989	19.991	99.726	20.246	-5.438	0.524
1212.000	691.256	79.990	19.991	99.725	20.236	-4.631	0.511
1213.500	692.018	79.989	19.991	99.727	20.245	-5.351	0.518
1215.000	692.813	79.990	19.991	99.727	20.246	-5.402	0.529
1216.501	693.605	79.988	19.990	99.724	20.238	-4.766	0.511
1218.001	694.379	79.989	19.991	99.726	20.245	-5.356	0.515
1219.500	695.135	79.989	19.991	99.727	20.243	-5.213	0.490
1221.000	695.924	79.989	19.990	99.727	20.242	-5.118	0.536
1222.500	696.693	79.989	19.990	99.723	20.247	-5.514	0.509
1224.000	697.486	79.989	19.991	99.717	20.247	-5.492	0.540
1225.500	698.255	79.990	19.991	99.727	20.245	-5.301	0.508
1227.000	698.933	79.990	19.989	99.729	20.246	-5.384	0.446
1228.500	699.730	79.990	19.990	99.722	20.244	-5.239	0.508
1230.001	700.428	79.993	19.990	99.723	20.248	-5.558	0.453
1231.500	701.128	79.992	19.990	99.725	20.255	-6.140	0.469
1233.001	701.869	79.993	19.990	99.723	20.249	-5.644	0.464
1234.501	702.653	79.993	19.990	99.722	20.249	-5.640	0.501
1236.001	703.431	79.991	19.991	99.724	20.257	-6.303	0.526
1237.500	704.217	79.990	19.990	99.723	20.247	-5.506	0.524
1239.000	704.934	79.990	19.992	99.721	20.250	-5.701	0.490
1240.500	705.646	79.988	19.991	99.723	20.252	-5.917	0.473
1242.000	706.408	79.989	19.991	99.725	20.250	-5.759	0.494
1243.500	707.186	79.989	19.991	99.724	20.250	-5.719	0.512
1245.000	707.922	79.990	19.993	99.723	20.250	-5.706	0.499
1246.500	708.698	79.989	19.992	99.725	20.251	-5.792	0.545
1248.000	709.476	79.990	19.992	99.725	20.249	-5.664	0.518
1249.500	710.179	79.989	19.992	99.721	20.246	-5.411	0.464
1251.000	710.908	79.989	19.992	99.725	20.248	-5.545	0.469
1252.500	711.698	79.989	19.991	99.724	20.248	-5.616	0.518
1254.000	712.462	79.989	19.991	99.724	20.251	-5.789	0.476
1255.501	713.224	79.989	19.990	99.724	20.244	-5.255	0.506
1257.000	713.963	79.988	19.991	99.724	20.251	-5.856	0.497
1258.500	714.730	79.989	19.991	99.723	20.239	-4.823	0.536
1260.000	715.492	79.988	19.990	99.724	20.248	-5.605	0.477
1261.501	716.225	79.988	19.992	99.724	20.248	-5.543	0.471
1263.000	717.002	79.989	19.991	99.724	20.246	-5.411	0.517
1264.500	717.772	79.988	19.993	99.724	20.244	-5.220	0.500
1266.000	718.469	79.989	19.993	99.723	20.248	-5.569	0.517
1267.500	719.271	79.988	19.992	99.724	20.247	-5.532	0.551
1269.000	719.995	79.987	19.991	99.719	20.246	-5.429	0.451
1270.500	720.644	79.987	19.992	99.721	20.253	-5.975	0.491
1272.000	721.378	79.986	19.991	99.724	20.247	-5.471	0.284
1273.501	722.324	79.987	19.994	99.726	20.251	-5.816	1.038
1275.000	722.965	79.988	19.992	99.726	20.249	-5.620	0.522
1276.500	723.791	79.988	19.992	99.724	20.251	-5.858	0.514
1278.000	724.431	79.987	19.991	99.724	20.248	-5.579	0.480
1279.500	725.169	79.987	19.990	99.726	20.252	-5.913	0.447
1281.000	725.973	79.988	19.991	99.726	20.249	-5.649	0.586
1282.500	726.732	79.989	19.991	99.727	20.254	-6.054	0.491
1284.000	727.520	79.990	19.991	99.726	20.251	-5.836	0.509
1285.500	728.307	79.990	19.990	99.725	20.255	-6.142	0.538
1287.001	729.045	79.990	19.989	99.727	20.253	-5.957	0.476
1288.500	729.767	79.988	19.990	99.732	20.255	-6.120	0.470
1290.001	730.549	79.988	19.990	99.730	20.254	-6.076	0.495
1291.500	731.330	79.991	19.990	99.727	20.252	-5.899	0.494
1293.000	732.018	79.989	19.990	99.727	20.251	-5.827	0.520
1294.501	732.859	79.990	19.991	99.725	20.256	-6.210	0.570
1296.000	733.591	79.990	19.991	99.725	20.256	-6.206	0.487
1297.501	734.316	79.989	19.990	99.722	20.253	-5.963	0.472
1299.000	735.158	79.989	19.991	99.721	20.252	-5.904	0.552
1300.500	735.906	79.991	19.992	99.724	20.250	-5.741	0.494
1302.000	736.654	79.991	19.991	99.720	20.249	-5.662	0.497
1303.500	737.412	79.991	19.990	99.723	20.251	-5.858	0.499
1305.000	738.213	79.991	19.990	99.725	20.249	-5.646	0.492
1306.501	738.957	79.992	19.991	99.726	20.254	-6.047	0.492
1308.000	739.752	79.991	19.990	99.722	20.254	-6.047	0.554
1309.501	740.501	79.992	19.990	99.721	20.248	-5.567	0.506
1311.000	741.280	79.992	19.990	99.724	20.251	-5.803	0.509
1312.500	742.041	79.991	19.990	99.724	20.253	-5.955	0.521
1314.000	742.812	79.992	19.990	99.723	20.255	-6.120	0.512
1315.500	743.563	79.992	19.990	99.723	20.253	-5.954	0.515
1317.000	744.366	79.991	19.991	99.717	20.252	-5.901	0.533
1318.000	744.862	79.991	19.991	99.717	20.257	-6.316	0.511