File: 01_Data/PLA_3D_Printer_Filament/STA/N2/3K_min/PLA_STA_N2_3KData_220503_R1.csv
##Temp./Â°C,Time/min,Mass loss(subtr.2)/mg,DSC(subtr.2)/(mW/mg),Sensit./(uV/mW)
50.394,10.01667,-0.01119,0.00676563,1.05028
50.994,11.0794,-0.01160157,0.0287041,1.05018
51.594,11.4411,-0.01269467,0.042225,1.05007
52.194,11.73082,-0.01183816,0.05310225,1.04996
52.794,11.99088,-0.0127083,0.05961444,1.04986
53.394,12.2355,-0.01138893,0.0628748,1.04975
53.994,12.47187,-0.01273613,0.06334075,1.04964
54.594,12.70359,-0.01385654,0.06415206,1.04953
55.194,12.93235,-0.01407402,0.06617389,1.04942
55.794,13.15831,-0.01257555,0.06823644,1.04931
56.394,13.3815,-0.01459296,0.0713216,1.0492
56.994,13.6015,-0.01272215,0.07090381,1.04908
57.594,13.81971,-0.01372668,0.07497339,1.04897
58.194,14.0352,-0.01532893,0.07698416,1.04886
58.794,14.2499,-0.01535,0.08148699,1.04875
59.394,14.46398,-0.01534127,0.08506018,1.04863
59.994,14.67653,-0.01542734,0.0900696,1.04852
60.594,14.8875,-0.01535109,0.10176,1.0484
61.194,15.09634,-0.0139795,0.11445,1.04829
61.794,15.3045,-0.01535556,0.12762,1.04817
62.394,15.5122,-0.01535005,0.13215,1.04805
62.994,15.7189,-0.01666055,0.131,1.04793
63.594,15.925,-0.01666714,0.12211,1.04782
64.194,16.13,-0.01534623,0.11005,1.0477
64.794,16.33442,-0.01534864,0.10038,1.04758
65.394,16.53956,-0.01665899,0.0942165,1.04746
65.994,16.74395,-0.0165689,0.08800918,1.04734
66.594,16.94717,-0.01667777,0.08872934,1.04722
67.194,17.1491,-0.0169993,0.08892207,1.0471
67.794,17.35077,-0.0173208,0.08720745,1.04697
68.394,17.5527,-0.01730056,0.08820405,1.04685
68.994,17.75496,-0.01971284,0.08745331,1.04673
69.594,17.95645,-0.01914031,0.08526974,1.0466
70.194,18.1567,-0.01995997,0.08455562,1.04648
70.794,18.35719,-0.01999707,0.08378854,1.04635
71.394,18.55796,-0.01990068,0.08316026,1.04623
71.994,18.75964,-0.02123317,0.08315891,1.0461
72.594,18.96218,-0.01998611,0.08035312,1.04598
73.194,19.1633,-0.02094055,0.08164643,1.04585
73.794,19.36463,-0.01992949,0.07785335,1.04572
74.394,19.56555,-0.02095339,0.07731709,1.04559
74.994,19.76673,-0.02127968,0.07780315,1.04546
75.594,19.9684,-0.0229152,0.07758051,1.04533
76.194,20.1695,-0.02293919,0.07365693,1.0452
76.794,20.36925,-0.02172878,0.07076216,1.04507
77.394,20.5691,-0.02291298,0.06837816,1.04494
77.994,20.7687,-0.02258411,0.06696314,1.04481
78.594,20.9698,-0.02128132,0.06098498,1.04468
79.194,21.16938,-0.02178043,0.05532128,1.04454
79.794,21.3698,-0.02423793,0.0514746,1.04441
80.394,21.56867,-0.02290974,0.04357149,1.04428
80.994,21.76899,-0.02455912,0.03517165,1.04414
81.594,21.96894,-0.02420432,0.03246134,1.04401
82.194,22.17008,-0.02357827,0.02593997,1.04387
82.794,22.37069,-0.02388421,0.02173309,1.04373
83.394,22.57122,-0.02391003,0.01448298,1.0436
83.994,22.77126,-0.02426811,0.01398538,1.04346
84.594,22.9707,-0.02390048,0.0137152,1.04332
85.194,23.17024,-0.02390029,0.01407453,1.04318
85.794,23.37034,-0.02356191,0.02197891,1.04304
86.394,23.57065,-0.02294331,0.02405288,1.0429
86.994,23.77101,-0.02423995,0.03121597,1.04276
87.594,23.97109,-0.02428873,0.03482351,1.04262
88.194,24.17052,-0.0244994,0.04301741,1.04248
88.794,24.36884,-0.02424354,0.04631643,1.04234
89.394,24.56768,-0.0245679,0.05357696,1.0422
89.994,24.7671,-0.02523442,0.05597569,1.04205
90.594,24.96686,-0.0255498,0.06138642,1.04191
91.194,25.16767,-0.02555439,0.06636956,1.04176
91.794,25.36694,-0.02556001,0.06838018,1.04162
92.394,25.5666,-0.02554982,0.0698394,1.04147
92.994,25.76701,-0.02622095,0.07181264,1.04133
93.594,25.96666,-0.0262099,0.0748932,1.04118
94.194,26.1653,-0.02618933,0.07589269,1.04103
94.794,26.36366,-0.02609128,0.07962205,1.04089
95.394,26.5626,-0.02882007,0.07734172,1.04074
95.994,26.7614,-0.02753169,0.08100741,1.04059
96.594,26.96104,-0.02714444,0.08154457,1.04044
97.194,27.16025,-0.0272983,0.08218377,1.04029
97.794,27.3594,-0.02459993,0.08221836,1.04014
98.394,27.5584,-0.02619135,0.0837531,1.03999
98.994,27.7569,-0.02518418,0.08462812,1.03983
99.594,27.95523,-0.02682053,0.08260844,1.03968
100.194,28.15302,-0.02621108,0.08666792,1.03953
100.794,28.3513,-0.02753,0.08543781,1.03937
101.394,28.54938,-0.02622018,0.08706989,1.03922
101.994,28.7481,-0.0265398,0.08707784,1.03907
102.594,28.9469,-0.0274546,0.08754766,1.03891
103.194,29.14456,-0.02753335,0.08833213,1.03875
103.794,29.3421,-0.02767984,0.09012915,1.0386
104.394,29.54007,-0.02783581,0.08829588,1.03844
104.994,29.73982,-0.0278603,0.09226933,1.03828
105.594,29.93889,-0.02723063,0.08971597,1.03813
106.194,30.1387,-0.02808272,0.091509,1.03797
106.794,30.33687,-0.02889923,0.09092204,1.03781
107.394,30.53402,-0.02877031,0.0899776,1.03765
107.994,30.73095,-0.02774976,0.09349928,1.03749
108.594,30.92815,-0.02840002,0.09462495,1.03733
109.194,31.1256,-0.02839995,0.0944799,1.03717
109.794,31.32348,-0.02972072,0.09380021,1.037
110.394,31.522,-0.02878727,0.09720987,1.03684
110.994,31.72011,-0.0284094,0.09446969,1.03668
111.594,31.91975,-0.02840689,0.09447925,1.03651
112.194,32.1192,-0.029392,0.0956612,1.03635
112.794,32.31845,-0.02939,0.09343932,1.03618
113.394,32.51741,-0.02939005,0.09728783,1.03602
113.994,32.7161,-0.02903105,0.09599831,1.03585
114.594,32.9148,-0.03070243,0.09413352,1.03569
115.194,33.11303,-0.02972002,0.09306134,1.03552
115.794,33.31129,-0.02891989,0.09173637,1.03535
116.394,33.50843,-0.03134834,0.09251974,1.03518
116.994,33.70597,-0.03136986,0.09301594,1.03501
117.594,33.90352,-0.03002906,0.09166641,1.03484
118.194,34.10109,-0.0313711,0.09048971,1.03467
118.794,34.29872,-0.03169,0.09277125,1.0345
119.394,34.49609,-0.03168977,0.0932071,1.03433
119.994,34.6935,-0.03168468,0.09459554,1.03416
120.594,34.8902,-0.03170173,0.0948665,1.03399
121.194,35.08788,-0.03193264,0.09178991,1.03381
121.794,35.2858,-0.03269011,0.09316417,1.03364
122.394,35.48515,-0.03431619,0.09364259,1.03347
122.994,35.68392,-0.03531995,0.09359052,1.03329
123.594,35.88276,-0.0336718,0.09444828,1.03312
124.194,36.08038,-0.03225793,0.0953584,1.03294
124.794,36.27746,-0.03322014,0.09683558,1.03276
125.394,36.47472,-0.03356033,0.09674582,1.03259
125.994,36.67212,-0.034866,0.09808305,1.03241
126.594,36.8694,-0.03389001,0.09615605,1.03223
127.194,37.067,-0.0338906,0.09691916,1.03205
127.794,37.2632,-0.03519785,0.09620358,1.03187
128.394,37.46031,-0.03392557,0.09883568,1.03169
128.994,37.65735,-0.03422051,0.09832012,1.03151
129.594,37.85456,-0.03388997,0.09857545,1.03133
130.194,38.0517,-0.03513199,0.1002,1.03115
130.794,38.24892,-0.03516695,0.09968248,1.03097
131.394,38.44658,-0.0352155,0.09822223,1.03079
131.994,38.64371,-0.03520927,0.09865394,1.0306
132.594,38.84073,-0.03522375,0.10012,1.03042
133.194,39.03702,-0.0338293,0.09682182,1.03024
133.794,39.23346,-0.03520994,0.09531388,1.03005
134.394,39.4295,-0.03487537,0.09689685,1.02987
134.994,39.6265,-0.03519532,0.09486812,1.02968
135.594,39.82367,-0.03651984,0.0966682,1.02949
136.194,40.02083,-0.03421324,0.09653992,1.02931
136.794,40.21737,-0.03556229,0.09806939,1.02912
137.394,40.41429,-0.03611678,0.09709203,1.02893
137.994,40.61112,-0.03684537,0.09705518,1.02874
138.594,40.80852,-0.03654488,0.09773881,1.02855
139.194,41.00651,-0.03583779,0.0961969,1.02836
139.794,41.20366,-0.03750344,0.09512209,1.02817
140.394,41.4002,-0.03620366,0.09495461,1.02798
140.994,41.59473,-0.03879619,0.09525721,1.02779
141.594,41.79005,-0.03751341,0.09613325,1.0276
142.194,41.98765,-0.03883003,0.09518315,1.0274
142.794,42.18628,-0.04014921,0.0945909,1.02721
143.394,42.38428,-0.03750691,0.09158321,1.02702
143.994,42.5812,-0.03881749,0.09027814,1.02682
144.594,42.77778,-0.04015002,0.08832758,1.02663
145.194,42.97509,-0.04014285,0.08493454,1.02643
145.794,43.17238,-0.03914593,0.0839872,1.02623
146.394,43.36895,-0.0401053,0.08253668,1.02604
146.994,43.56516,-0.03816302,0.08025484,1.02584
147.594,43.7616,-0.03815995,0.07906699,1.02564
148.194,43.9571,-0.03950251,0.08032228,1.02544
148.794,44.15372,-0.04045633,0.07936148,1.02524
149.394,44.35038,-0.04046996,0.08245792,1.02505
149.994,44.54697,-0.04047293,0.08528212,1.02485
150.594,44.74368,-0.04046993,0.08611455,1.02464
151.194,44.93951,-0.04043944,0.08833528,1.02444
151.794,45.13542,-0.03961475,0.0885137,1.02424
152.394,45.33184,-0.0417843,0.09281697,1.02404
152.994,45.52875,-0.03947188,0.09785512,1.02384
153.594,45.72489,-0.0408,0.10016,1.02363
154.194,45.92114,-0.04131779,0.10562,1.02343
154.794,46.11683,-0.04146618,0.10652,1.02322
155.394,46.3131,-0.04202825,0.10965,1.02302
155.994,46.50962,-0.04124312,0.11554,1.02281
156.594,46.70609,-0.0439435,0.1209,1.02261
157.194,46.9033,-0.04165299,0.12264,1.0224
157.794,47.10067,-0.04113015,0.12544,1.02219
158.394,47.2976,-0.04145178,0.13324,1.02198
158.994,47.49457,-0.0428272,0.14083,1.02177
159.594,47.6911,-0.04278,0.14846,1.02157
160.194,47.88722,-0.04170254,0.15967,1.02136
160.794,48.083,-0.04212,0.16883,1.02115
161.394,48.27858,-0.04077227,0.18056,1.02093
161.994,48.47501,-0.04308595,0.19333,1.02072
162.594,48.6714,-0.04310037,0.20767,1.02051
163.194,48.86817,-0.04212001,0.22184,1.0203
163.794,49.06496,-0.04442825,0.23759,1.02009
164.394,49.26182,-0.04343,0.2561,1.01987
164.994,49.4587,-0.04411856,0.27512,1.01966
165.594,49.65634,-0.04427484,0.29468,1.01944
166.194,49.8542,-0.04343,0.3155,1.01923
166.794,50.0516,-0.04343,0.33405,1.01901
167.394,50.248,-0.04398979,0.34822,1.01879
167.994,50.44433,-0.04583589,0.3487,1.01858
168.594,50.63988,-0.04376486,0.32703,1.01836
169.194,50.83436,-0.04506983,0.2724,1.01814
169.794,51.02814,-0.04626298,0.19829,1.01792
170.394,51.22128,-0.04265863,0.13977,1.0177
170.994,51.41455,-0.04365,0.1157,1.01748
171.594,51.60856,-0.04365419,0.10742,1.01726
172.194,51.80274,-0.04463086,0.10463,1.01704
172.794,51.99662,-0.04594849,0.10369,1.01682
173.394,52.19083,-0.0458141,0.10213,1.0166
173.994,52.38445,-0.04431011,0.10196,1.01638
174.594,52.5789,-0.04496875,0.10373,1.01615
175.194,52.77254,-0.04595734,0.10233,1.01593
175.794,52.96683,-0.04628001,0.10273,1.0157
176.394,53.16176,-0.04632567,0.10206,1.01548
176.994,53.35611,-0.04619697,0.10293,1.01525
177.594,53.55211,-0.04595906,0.1034,1.01503
178.194,53.74819,-0.04595036,0.09921911,1.0148
178.794,53.944,-0.04742998,0.09987352,1.01457
179.394,54.13935,-0.04759181,0.10098,1.01435
179.994,54.33452,-0.04928605,0.09912058,1.01412
180.594,54.52865,-0.04660959,0.10121,1.01389
181.194,54.72229,-0.04798081,0.10024,1.01366
181.794,54.9161,-0.04892012,0.10399,1.01343
182.394,55.11209,-0.04793172,0.10046,1.0132
182.994,55.30819,-0.04929499,0.10027,1.01297
183.594,55.50493,-0.04858822,0.09987809,1.01274
184.194,55.7008,-0.04854913,0.10055,1.0125
184.794,55.89526,-0.04988366,0.10059,1.01227
185.394,56.0897,-0.04923561,0.1007,1.01204
185.994,56.2841,-0.04760957,0.10021,1.0118
186.594,56.47935,-0.04892635,0.10343,1.01157
187.194,56.6744,-0.04776116,0.10049,1.01133
187.794,56.86948,-0.04959096,0.10313,1.0111
188.394,57.06456,-0.04924038,0.10122,1.01086
188.994,57.2595,-0.04954205,0.09979283,1.01063
189.594,57.45466,-0.04827465,0.09918272,1.01039
190.194,57.6498,-0.04958,0.10072,1.01015
190.794,57.84575,-0.05054772,0.10006,1.00991
191.394,58.04161,-0.05056025,0.10084,1.00967
191.994,58.2371,-0.04925042,0.09922267,1.00943
192.594,58.43225,-0.04926398,0.09742922,1.00919
193.194,58.6275,-0.04730939,0.09609767,1.00895
193.794,58.8232,-0.05093992,0.09766184,1.00871
194.394,59.0188,-0.04956994,0.09546712,1.00847
194.994,59.21448,-0.04858965,0.09622723,1.00823
195.594,59.41021,-0.05007367,0.09614895,1.00799
196.194,59.6054,-0.05058484,0.09643214,1.00774
196.794,59.79994,-0.05155,0.09819189,1.0075
197.394,59.9943,-0.05064471,0.09731945,1.00725
197.994,60.1888,-0.05188002,0.09832382,1.00701
198.594,60.38375,-0.0505599,0.09914394,1.00676
199.194,60.57821,-0.05056,0.09634705,1.00652
199.794,60.77235,-0.05056014,0.0957396,1.00627
200.394,60.96742,-0.05185934,0.0955715,1.00602
200.994,61.16248,-0.05087473,0.09666217,1.00578
201.594,61.3579,-0.05253068,0.09652527,1.00553
202.194,61.55378,-0.05286016,0.0939553,1.00528
202.794,61.74884,-0.05257171,0.09384092,1.00503
203.394,61.94445,-0.05281345,0.0952606,1.00478
203.994,62.1391,-0.05056575,0.09486045,1.00453
204.594,62.3337,-0.05285703,0.09648061,1.00428
205.194,62.5268,-0.05157544,0.09725183,1.00403
205.794,62.72096,-0.05187653,0.09818044,1.00377
206.394,62.9147,-0.05320064,0.09884654,1.00352
206.994,63.10861,-0.05187995,0.0995004,1.00327
207.594,63.3014,-0.05256949,0.09539804,1.00301
208.194,63.49429,-0.0525142,0.09777386,1.00276
208.794,63.68889,-0.05122,0.09466672,1.0025
209.394,63.88541,-0.05121853,0.09347993,1.00225
209.994,64.0823,-0.0499042,0.09214086,1.00199
210.594,64.27772,-0.0499,0.0916239,1.00174
211.194,64.4726,-0.04989987,0.09147297,1.00148
211.794,64.6669,-0.05088911,0.09171134,1.00122
212.394,64.86182,-0.05108271,0.09221694,1.00096
212.994,65.0565,-0.05089,0.09101502,1.0007
213.594,65.25123,-0.05088999,0.09089875,1.00044
214.194,65.44619,-0.0518789,0.08963114,1.00018
214.794,65.64095,-0.05057019,0.09118883,0.99992
215.394,65.8352,-0.05198332,0.08959909,0.99966
215.994,66.0295,-0.05218498,0.0941916,0.9994
216.594,66.22323,-0.05085793,0.09250744,0.99914
217.194,66.41721,-0.05023713,0.09041319,0.99888
217.794,66.61102,-0.05155001,0.09232468,0.99861
218.394,66.80611,-0.05121984,0.09128189,0.99835
218.994,67.00125,-0.05053295,0.08973324,0.99809
219.594,67.19644,-0.05146267,0.09140155,0.99782
220.194,67.39193,-0.05055957,0.08972122,0.99756
220.794,67.58708,-0.05320354,0.09016151,0.99729
221.394,67.78148,-0.05187999,0.08914068,0.99702
221.994,67.97589,-0.05188,0.08944096,0.99676
222.594,68.1708,-0.05200416,0.08895487,0.99649
223.194,68.366,-0.05419337,0.0882063,0.99622
223.794,68.56101,-0.05220834,0.08774486,0.99595
224.394,68.754,-0.05285402,0.08880833,0.99568
224.994,68.9478,-0.05292561,0.09160551,0.99541
225.594,69.1413,-0.05283072,0.08825721,0.99514
226.194,69.33543,-0.05419,0.0909386,0.99487
226.794,69.53089,-0.05319553,0.08977634,0.9946
227.394,69.7251,-0.05451933,0.08862485,0.99433
227.994,69.9191,-0.05335044,0.08898101,0.99405
228.594,70.1135,-0.05320012,0.08786898,0.99378
229.194,70.30771,-0.05419616,0.08900421,0.99351
229.794,70.50245,-0.05418641,0.08807027,0.99323
230.394,70.69714,-0.05287002,0.0877395,0.99296
230.994,70.89201,-0.05384894,0.08809871,0.99268
231.594,71.08717,-0.05385,0.08632373,0.99241
232.194,71.28139,-0.05385,0.08624039,0.99213
232.794,71.47515,-0.05385,0.0876976,0.99186
233.394,71.66835,-0.05385,0.08674784,0.99158
233.994,71.86188,-0.05255147,0.08751849,0.9913
234.594,72.05656,-0.05319812,0.08727926,0.99102
235.194,72.2512,-0.0532,0.08836164,0.99074
235.794,72.44511,-0.05350563,0.08702515,0.99046
236.394,72.6397,-0.05285948,0.0859977,0.99018
236.994,72.83335,-0.05252998,0.08538499,0.9899
237.594,73.0275,-0.05387177,0.0868564,0.98962
238.194,73.22358,-0.05447878,0.08599984,0.98934
238.794,73.4185,-0.05583002,0.08597135,0.98906
239.394,73.61389,-0.05648746,0.08385335,0.98877
239.994,73.80874,-0.05450543,0.08450296,0.98849
240.594,74.00345,-0.05451006,0.08398826,0.98821
241.194,74.19792,-0.05559275,0.0868882,0.98792
241.794,74.39323,-0.05681023,0.08428671,0.98764
242.394,74.58768,-0.0567859,0.08476409,0.98735
242.994,74.78318,-0.05680999,0.08315494,0.98707
243.594,74.97821,-0.0572183,0.08462446,0.98678
244.194,75.17334,-0.05813,0.08523231,0.98649
244.794,75.36835,-0.05778242,0.08595429,0.9862
245.394,75.56309,-0.05676249,0.08447571,0.98592
245.994,75.75802,-0.05944981,0.08552312,0.98563
246.594,75.95299,-0.0594484,0.08658543,0.98534
247.194,76.14832,-0.05976984,0.08697381,0.98505
247.794,76.34356,-0.05968331,0.08572918,0.98476
248.394,76.53891,-0.06241026,0.08603747,0.98447
248.994,76.7337,-0.06340691,0.0868531,0.98417
249.594,76.9277,-0.06101353,0.08663013,0.98388
250.194,77.12135,-0.0610898,0.08782379,0.98359
250.794,77.3146,-0.06243291,0.08776816,0.9833
251.394,77.5082,-0.06348794,0.08983053,0.983
251.994,77.70184,-0.06306854,0.08807385,0.98271
252.594,77.8956,-0.06609877,0.09029188,0.98241
253.194,78.089,-0.0650751,0.08717401,0.98212
253.794,78.28286,-0.06505034,0.0893171,0.98182
254.394,78.47734,-0.06542243,0.08693555,0.98153
254.994,78.6721,-0.06643282,0.08622316,0.98123
255.594,78.8668,-0.06767001,0.08847112,0.98093
256.194,79.0616,-0.06668983,0.08719277,0.98063
256.794,79.25627,-0.06800889,0.0882893,0.98034
257.394,79.45067,-0.06737588,0.08859452,0.98004
257.994,79.64522,-0.06841278,0.08881316,0.97974
258.594,79.8391,-0.07098478,0.09079584,0.97944
259.194,80.03367,-0.07029684,0.09178653,0.97914
259.794,80.228,-0.07163345,0.09014409,0.97884
260.394,80.42314,-0.07318327,0.09176666,0.97853
260.994,80.61846,-0.073704,0.08845324,0.97823
261.594,80.81181,-0.07500285,0.09108786,0.97793
262.194,81.00647,-0.07527925,0.0928996,0.97763
262.794,81.19945,-0.0775277,0.09395025,0.97732
263.394,81.39341,-0.0765636,0.09673239,0.97702
263.994,81.58929,-0.07753999,0.09436198,0.97671
264.594,81.78514,-0.08018019,0.09451508,0.97641
265.194,81.9817,-0.07985524,0.09209774,0.9761
265.794,82.17692,-0.08147953,0.0947932,0.9758
266.394,82.37089,-0.08281,0.09638896,0.97549
266.994,82.56615,-0.08412958,0.09664926,0.97518
267.594,82.76084,-0.08577479,0.09489873,0.97487
268.194,82.95617,-0.08518529,0.09765161,0.97456
268.794,83.1507,-0.0884015,0.10028,0.97426
269.394,83.3449,-0.08947048,0.09954532,0.97395
269.994,83.5388,-0.09037336,0.10022,0.97364
270.594,83.7332,-0.09168996,0.10087,0.97332
271.194,83.92738,-0.09437734,0.10179,0.97301
271.794,84.1212,-0.09596984,0.10261,0.9727
272.394,84.31518,-0.09728694,0.10385,0.97239
272.994,84.50924,-0.09729365,0.10251,0.97208
273.594,84.70317,-0.09966632,0.10556,0.97176
274.194,84.8971,-0.10222,0.10503,0.97145
274.794,85.09135,-0.10385,0.10334,0.97114
275.394,85.2852,-0.10792,0.10285,0.97082
275.994,85.48068,-0.10916,0.1021,0.97051
276.594,85.67608,-0.11191,0.09881347,0.97019
277.194,85.8728,-0.1114,0.10195,0.96987
277.794,86.06783,-0.11505,0.10023,0.96956
278.394,86.26344,-0.11841,0.10286,0.96924
278.994,86.45865,-0.11962,0.10236,0.96892
279.594,86.65415,-0.12102,0.10145,0.9686
280.194,86.8499,-0.12361,0.10562,0.96828
280.794,87.04544,-0.12617,0.10486,0.96796
281.394,87.24074,-0.12892,0.10791,0.96764
281.994,87.43566,-0.13151,0.1056,0.96732
282.594,87.63015,-0.13545,0.10651,0.967
283.194,87.82562,-0.13678,0.10774,0.96668
283.794,88.02121,-0.14105,0.10951,0.96636
284.394,88.21695,-0.14468,0.11075,0.96603
284.994,88.41209,-0.14597,0.10994,0.96571
285.594,88.60843,-0.14817,0.10879,0.96539
286.194,88.8051,-0.15282,0.10734,0.96506
286.794,89.00236,-0.15623,0.11098,0.96474
287.394,89.1986,-0.15785,0.1102,0.96441
287.994,89.394,-0.16179,0.10989,0.96409
288.594,89.58919,-0.16705,0.11197,0.96376
289.194,89.78386,-0.17102,0.11571,0.96343
289.794,89.97815,-0.17222,0.11594,0.96311
290.394,90.17265,-0.17776,0.1181,0.96278
290.994,90.36668,-0.18186,0.11502,0.96245
291.594,90.5615,-0.18654,0.12016,0.96212
292.194,90.757,-0.18942,0.11925,0.96179
292.794,90.95276,-0.19466,0.1216,0.96146
293.394,91.14822,-0.19863,0.12071,0.96113
293.994,91.3434,-0.20347,0.12384,0.9608
294.594,91.53881,-0.20801,0.12289,0.96047
295.194,91.7335,-0.21192,0.12407,0.96014
295.794,91.92871,-0.21707,0.12623,0.9598
296.394,92.12386,-0.22258,0.12624,0.95947
296.994,92.3191,-0.22639,0.12871,0.95914
297.594,92.5145,-0.22991,0.13148,0.9588
298.194,92.70917,-0.23608,0.13246,0.95847
298.794,92.90361,-0.24138,0.13339,0.95813
299.394,93.09744,-0.24816,0.13501,0.9578
299.994,93.29138,-0.25388,0.13792,0.95746
300.594,93.48612,-0.25953,0.14053,0.95712
301.194,93.68086,-0.26532,0.13834,0.95679
301.794,93.87626,-0.27149,0.143,0.95645
302.394,94.07218,-0.27908,0.14338,0.95611
302.994,94.268,-0.28787,0.14659,0.95577
303.594,94.464,-0.29392,0.15036,0.95543
304.194,94.65919,-0.29998,0.15181,0.95509
304.794,94.85534,-0.307,0.15497,0.95475
305.394,95.05086,-0.31527,0.15738,0.95441
305.994,95.24696,-0.32375,0.15743,0.95407
306.594,95.44275,-0.33221,0.16121,0.95373
307.194,95.63835,-0.34051,0.16311,0.95339
307.794,95.83411,-0.35016,0.1709,0.95304
308.394,96.02977,-0.35842,0.17204,0.9527
308.994,96.22506,-0.36851,0.17655,0.95236
309.594,96.42061,-0.37812,0.18011,0.95201
310.194,96.61599,-0.38694,0.18822,0.95167
310.794,96.81104,-0.39844,0.1934,0.95132
311.394,97.00635,-0.40882,0.20051,0.95098
311.994,97.2021,-0.4215,0.20626,0.95063
312.594,97.39777,-0.43199,0.21548,0.95028
313.194,97.59251,-0.44384,0.22085,0.94994
313.794,97.78781,-0.45472,0.22795,0.94959
314.394,97.9833,-0.46934,0.23698,0.94924
314.994,98.17891,-0.48365,0.24105,0.94889
315.594,98.37486,-0.49743,0.24927,0.94854
316.194,98.57072,-0.51218,0.25956,0.94819
316.794,98.7668,-0.52847,0.2697,0.94784
317.394,98.9632,-0.54202,0.28116,0.94749
317.994,99.15929,-0.5588,0.29413,0.94714
318.594,99.3554,-0.57571,0.30407,0.94679
319.194,99.5513,-0.59303,0.31668,0.94643
319.794,99.74778,-0.61134,0.32747,0.94608
320.394,99.9443,-0.62989,0.34029,0.94573
320.994,100.141,-0.65007,0.35264,0.94537
321.594,100.337,-0.67219,0.36698,0.94502
322.194,100.534,-0.69172,0.38211,0.94466
322.794,100.73,-0.71461,0.39728,0.94431
323.394,100.927,-0.73784,0.41514,0.94395
323.994,101.124,-0.76219,0.43374,0.9436
324.594,101.32,-0.78628,0.45048,0.94324
325.194,101.517,-0.81346,0.47161,0.94288
325.794,101.713,-0.83955,0.48004,0.94252
326.394,101.91,-0.86624,0.50022,0.94217
326.994,102.106,-0.89485,0.52211,0.94181
327.594,102.303,-0.92671,0.54979,0.94145
328.194,102.5,-0.95696,0.57438,0.94109
328.794,102.696,-0.98895,0.60716,0.94073
329.394,102.892,-1.02553,0.634,0.94037
329.994,103.089,-1.05975,0.66142,0.94001
330.594,103.285,-1.09791,0.69552,0.93964
331.194,103.483,-1.13787,0.72772,0.93928
331.794,103.68,-1.17879,0.76167,0.93892
332.394,103.878,-1.22173,0.79753,0.93855
332.994,104.075,-1.26725,0.83514,0.93819
333.594,104.272,-1.31307,0.87224,0.93783
334.194,104.469,-1.36387,0.91089,0.93746
334.794,104.668,-1.41322,0.94859,0.9371
335.394,104.866,-1.46776,0.98826,0.93673
335.994,105.065,-1.52398,1.02836,0.93636
336.594,105.264,-1.58146,1.06549,0.936
337.194,105.462,-1.63945,1.10422,0.93563
337.794,105.661,-1.70083,1.14386,0.93526
338.394,105.858,-1.76557,1.178,0.93489
338.994,106.056,-1.83181,1.21542,0.93452
339.594,106.254,-1.90057,1.24814,0.93416
340.194,106.452,-1.96818,1.27818,0.93379
340.794,106.65,-2.03974,1.30377,0.93342
341.394,106.848,-2.11487,1.32939,0.93304
341.994,107.046,-2.18797,1.34994,0.93267
342.594,107.244,-2.26326,1.36527,0.9323
343.194,107.442,-2.33985,1.38195,0.93193
343.794,107.639,-2.41873,1.39039,0.93156
344.394,107.836,-2.49743,1.39338,0.93118
344.994,108.032,-2.57463,1.39153,0.93081
345.594,108.228,-2.65215,1.38659,0.93044
346.194,108.424,-2.7305,1.37244,0.93006
346.794,108.62,-2.80831,1.35331,0.92969
347.394,108.816,-2.88675,1.32587,0.92931
347.994,109.012,-2.96339,1.29026,0.92893
348.594,109.207,-3.03802,1.24909,0.92856
349.194,109.402,-3.11297,1.20218,0.92818
349.794,109.5956,-3.18347,1.14192,0.9278
350.394,109.789,-3.25223,1.08144,0.92743
350.994,109.983,-3.31894,1.01137,0.92705
351.594,110.176,-3.38397,0.931,0.92667
352.194,110.369,-3.44705,0.84732,0.92629
352.794,110.561,-3.50397,0.75254,0.92591
353.394,110.753,-3.56054,0.64345,0.92553
353.994,110.945,-3.60728,0.51604,0.92515
354.594,111.135,-3.6471,0.38951,0.92477
355.194,111.324,-3.67991,0.27844,0.92438
355.794,111.513,-3.70331,0.18262,0.924
356.394,111.703,-3.72027,0.10812,0.92362
356.994,111.896,-3.73392,0.05822236,0.92324
357.594,112.09,-3.74288,0.02497718,0.92285
358.194,112.284,-3.74836,0.0064608,0.92247
358.794,112.479,-3.75516,-0.006753399,0.92208
359.394,112.674,-3.76027,-0.01466498,0.9217
359.994,112.868,-3.76624,-0.02050931,0.92131
360.594,113.062,-3.77006,-0.02567962,0.92093
361.194,113.256,-3.77421,-0.03182872,0.92054
361.794,113.4513,-3.778,-0.03513108,0.92015
362.394,113.646,-3.7807,-0.03608165,0.91976
362.994,113.842,-3.78199,-0.04171024,0.91938
363.594,114.038,-3.78588,-0.04420136,0.91899
364.194,114.2344,-3.78867,-0.04615614,0.9186
364.794,114.43,-3.78728,-0.04978766,0.91821
365.394,114.625,-3.7927,-0.05206709,0.91782
365.994,114.821,-3.7926,-0.0534211,0.91743
366.594,115.018,-3.79393,-0.05238632,0.91704
367.194,115.215,-3.79653,-0.05377646,0.91665
367.794,115.414,-3.79788,-0.05728979,0.91626
368.394,115.612,-3.79919,-0.05959367,0.91586
368.994,115.81,-3.79953,-0.0614594,0.91547
369.594,116.007,-3.80196,-0.05908562,0.91508
370.194,116.2041,-3.80344,-0.05973536,0.91468
370.794,116.402,-3.80413,-0.05916065,0.91429
371.394,116.5988,-3.80676,-0.06125758,0.9139
371.994,116.796,-3.80706,-0.06049482,0.9135
372.594,116.992,-3.80821,-0.06073458,0.9131
373.194,117.187,-3.81035,-0.06096219,0.91271
373.794,117.383,-3.81071,-0.06251538,0.91231
374.394,117.579,-3.80992,-0.06407347,0.91192
374.994,117.7769,-3.81247,-0.06415556,0.91152
375.594,117.974,-3.81224,-0.06610468,0.91112
376.194,118.17,-3.81499,-0.06587815,0.91072
376.794,118.368,-3.81499,-0.06575671,0.91032
377.394,118.565,-3.8163,-0.06853746,0.90992
377.994,118.763,-3.81864,-0.06620378,0.90952
378.594,118.961,-3.81767,-0.06785906,0.90912
379.194,119.159,-3.81893,-0.0676744,0.90872
379.794,119.356,-3.81882,-0.06886139,0.90832
380.394,119.553,-3.82157,-0.06692812,0.90792
380.994,119.749,-3.82289,-0.06935004,0.90752
381.594,119.946,-3.82388,-0.07063313,0.90712
382.194,120.144,-3.82387,-0.06867701,0.90671
382.794,120.34,-3.82648,-0.0675494,0.90631
383.394,120.537,-3.82551,-0.06873945,0.90591
383.994,120.733,-3.82747,-0.06977973,0.9055
384.594,120.929,-3.82782,-0.06881797,0.9051
385.194,121.127,-3.82914,-0.06766364,0.90469
385.794,121.325,-3.83046,-0.06736311,0.90429
386.394,121.522,-3.82968,-0.07019538,0.90388
386.994,121.72,-3.83177,-0.06851296,0.90347
387.594,121.918,-3.83309,-0.06929597,0.90307
388.194,122.115,-3.83543,-0.06958979,0.90266
388.794,122.312,-3.83677,-0.07158765,0.90225
389.394,122.508,-3.83803,-0.06993193,0.90184
389.994,122.705,-3.83809,-0.06933105,0.90143
390.594,122.902,-3.83937,-0.06946388,0.90103
391.194,123.099,-3.83968,-0.06995516,0.90062
391.794,123.296,-3.83993,-0.07290456,0.90021
392.394,123.4932,-3.8423,-0.07416354,0.89979
392.994,123.69,-3.84198,-0.07138733,0.89938
393.594,123.888,-3.84329,-0.07494318,0.89897
394.194,124.086,-3.8433,-0.07371152,0.89856
394.794,124.283,-3.84593,-0.07577482,0.89815
395.394,124.481,-3.84724,-0.08044857,0.89773
395.994,124.68,-3.84863,-0.07866929,0.89732
396.594,124.878,-3.84781,-0.07864681,0.89691
397.194,125.076,-3.8494,-0.08028873,0.89649
397.794,125.273,-3.85085,-0.07807839,0.89608
398.394,125.4697,-3.85218,-0.07827296,0.89566
398.994,125.666,-3.85218,-0.08163039,0.89525
399.594,125.862,-3.85348,-0.083145,0.89483
400.194,126.0586,-3.85579,-0.08459577,0.89442
400.794,126.256,-3.85647,-0.08526119,0.894
401.394,126.454,-3.85777,-0.08699192,0.89358
401.994,126.652,-3.85902,-0.08595302,0.89316
402.594,126.85,-3.86171,-0.0844078,0.89275
403.194,127.0478,-3.8626,-0.08736909,0.89233
403.794,127.246,-3.86268,-0.08976075,0.89191
404.394,127.445,-3.86402,-0.0873504,0.89149
404.994,127.643,-3.86663,-0.08932013,0.89107
405.594,127.841,-3.86591,-0.08847723,0.89065
406.194,128.038,-3.86765,-0.0884003,0.89023
406.794,128.236,-3.86968,-0.08580663,0.88981
407.394,128.433,-3.8706,-0.08390093,0.88938
407.994,128.631,-3.87389,-0.08670848,0.88896
408.594,128.828,-3.87529,-0.08866501,0.88854
409.194,129.025,-3.87512,-0.08816202,0.88812
409.794,129.222,-3.87784,-0.09085985,0.88769
410.394,129.42,-3.87787,-0.09155783,0.88727
410.994,129.618,-3.87982,-0.08951148,0.88685
411.594,129.816,-3.88051,-0.09135055,0.88642
412.194,130.013,-3.88087,-0.09301219,0.886
412.794,130.209,-3.88212,-0.09344534,0.88557
413.394,130.406,-3.8807,-0.09248823,0.88514
413.994,130.603,-3.88484,-0.0919953,0.88472
414.594,130.8,-3.88474,-0.09369662,0.88429
415.194,130.998,-3.88837,-0.09556215,0.88386
415.794,131.195,-3.88869,-0.0960045,0.88344
416.394,131.394,-3.89131,-0.09538852,0.88301
416.994,131.594,-3.89002,-0.09636126,0.88258
417.594,131.793,-3.89134,-0.09830185,0.88215
418.194,131.992,-3.89134,-0.0967234,0.88172
418.794,132.191,-3.89542,-0.09723243,0.88129
419.394,132.3899,-3.89528,-0.09473392,0.88086
419.994,132.589,-3.89528,-0.09777997,0.88043
420.594,132.787,-3.89758,-0.09945394,0.88
421.194,132.985,-3.89798,-0.09964215,0.87957
421.794,133.182,-3.9012,-0.10049,0.87913
422.394,133.38,-3.90253,-0.10086,0.8787
422.994,133.578,-3.90449,-0.10132,0.87827
423.594,133.775,-3.90589,-0.09819881,0.87784
424.194,133.974,-3.90585,-0.10028,0.8774
424.794,134.171,-3.90601,-0.09909562,0.87697
425.394,134.369,-3.90908,-0.10007,0.87653
425.994,134.566,-3.91108,-0.1015,0.8761
426.594,134.763,-3.90961,-0.10393,0.87566
427.194,134.96,-3.91207,-0.10195,0.87523
427.794,135.158,-3.91602,-0.10204,0.87479
428.394,135.355,-3.91743,-0.10105,0.87435
428.994,135.553,-3.91832,-0.10039,0.87392
429.594,135.751,-3.91865,-0.10475,0.87348
430.194,135.949,-3.92128,-0.10583,0.87304
430.794,136.146,-3.92358,-0.10262,0.8726
431.394,136.344,-3.92496,-0.10477,0.87217
431.994,136.541,-3.92653,-0.10385,0.87173
432.594,136.739,-3.92753,-0.10616,0.87129
433.194,136.937,-3.92828,-0.10542,0.87085
433.794,137.135,-3.92945,-0.10489,0.87041
434.394,137.334,-3.93181,-0.10662,0.86997
434.994,137.534,-3.93312,-0.10732,0.86952
435.594,137.733,-3.93575,-0.10542,0.86908
436.194,137.9314,-3.93575,-0.10873,0.86864
436.794,138.129,-3.93795,-0.10704,0.8682
437.394,138.328,-3.93973,-0.10643,0.86776
437.994,138.526,-3.94173,-0.1086,0.86731
438.594,138.725,-3.94304,-0.10879,0.86687
439.194,138.923,-3.94544,-0.10983,0.86642
439.794,139.122,-3.94662,-0.11003,0.86598
440.394,139.32,-3.94661,-0.11068,0.86554
440.994,139.518,-3.94924,-0.11169,0.86509
441.594,139.716,-3.94925,-0.11332,0.86464
442.194,139.914,-3.95303,-0.11397,0.8642
442.794,140.112,-3.95451,-0.11704,0.86375
443.394,140.31,-3.95669,-0.11537,0.8633
443.994,140.509,-3.95548,-0.11801,0.86286
444.594,140.707,-3.95704,-0.11843,0.86241
445.194,140.905,-3.96174,-0.1169,0.86196
445.794,141.103,-3.96241,-0.11829,0.86151
446.394,141.3,-3.96373,-0.11615,0.86106
446.994,141.498,-3.96636,-0.11826,0.86061
447.594,141.695,-3.96471,-0.11528,0.86017
448.194,141.893,-3.96735,-0.11965,0.85972
448.794,142.0919,-3.96932,-0.11703,0.85926
449.394,142.2906,-3.96932,-0.11651,0.85881
449.994,142.489,-3.97148,-0.1168,0.85836
450.594,142.687,-3.97393,-0.1155,0.85791
451.194,142.886,-3.97329,-0.11795,0.85746
451.794,143.084,-3.97363,-0.11909,0.85701
452.394,143.283,-3.97853,-0.12028,0.85655
452.994,143.482,-3.97976,-0.12051,0.8561
453.594,143.681,-3.97985,-0.11996,0.85565
454.194,143.88,-3.98115,-0.12039,0.85519
454.794,144.0804,-3.97985,-0.11943,0.85474
455.394,144.281,-3.98252,-0.11885,0.85428
455.994,144.48,-3.98247,-0.12214,0.85383
456.594,144.6796,-3.98289,-0.12216,0.85337
457.194,144.878,-3.98515,-0.12,0.85292
457.794,145.077,-3.98643,-0.1193,0.85246
458.394,145.276,-3.98643,-0.12045,0.852
458.994,145.475,-3.9877,-0.11806,0.85155
459.594,145.674,-3.98646,-0.12107,0.85109
460.194,145.873,-3.99031,-0.12197,0.85063
460.794,146.072,-3.98774,-0.12091,0.85017
461.394,146.271,-3.99064,-0.11913,0.84971
461.994,146.4685,-3.99037,-0.12042,0.84925
462.594,146.6659,-3.99004,-0.11808,0.84879
463.194,146.864,-3.99137,-0.11937,0.84833
463.794,147.061,-3.99235,-0.11735,0.84787
464.394,147.259,-3.993,-0.11535,0.84741
464.994,147.457,-3.99301,-0.11607,0.84695
465.594,147.656,-3.99301,-0.11668,0.84649
466.194,147.855,-3.99401,-0.11561,0.84603
466.794,148.055,-3.99268,-0.11297,0.84557
467.394,148.255,-3.99499,-0.1135,0.8451
467.994,148.454,-3.99445,-0.11514,0.84464
468.594,148.654,-3.99466,-0.11775,0.84418
469.194,148.854,-3.99465,-0.11639,0.84371
469.794,149.053,-3.9959,-0.11684,0.84325
470.394,149.253,-3.99462,-0.12269,0.84279
470.994,149.453,-3.99598,-0.12557,0.84232
471.594,149.654,-3.99816,-0.12686,0.84186
472.194,149.853,-3.99565,-0.12977,0.84139
472.794,150.052,-3.99699,-0.13233,0.84093
473.394,150.251,-3.9963,-0.1361,0.84046
473.994,150.45,-3.995,-0.13982,0.83999
474.594,150.649,-3.99431,-0.14214,0.83952
475.194,150.848,-3.99817,-0.14754,0.83906
475.794,151.048,-3.99704,-0.14763,0.83859
476.394,151.248,-3.9973,-0.15111,0.83812
476.994,151.448,-3.99699,-0.15227,0.83765
477.594,151.647,-3.99564,-0.15153,0.83718
478.194,151.846,-3.99706,-0.15327,0.83671
478.794,152.045,-3.99666,-0.15473,0.83625
479.394,152.244,-3.99663,-0.15407,0.83578
479.994,152.443,-3.99594,-0.15544,0.8353
480.594,152.642,-3.99564,-0.15334,0.83483
481.194,152.842,-3.99708,-0.15386,0.83436
481.794,153.041,-3.99678,-0.15537,0.83389
482.394,153.24,-3.9983,-0.15311,0.83342
482.994,153.439,-3.99827,-0.15389,0.83295
483.594,153.637,-3.99431,-0.15623,0.83248
484.194,153.836,-3.99699,-0.15589,0.832
484.794,154.035,-3.99894,-0.15417,0.83153
485.394,154.235,-3.99762,-0.1531,0.83106
485.994,154.4348,-3.99763,-0.15527,0.83058
486.594,154.635,-3.99861,-0.15706,0.83011
487.194,154.835,-3.99759,-0.15724,0.82963
487.794,155.035,-3.99762,-0.15614,0.82916
488.394,155.235,-3.99705,-0.15742,0.82868
488.994,155.435,-3.99831,-0.15599,0.82821
489.594,155.634,-3.99596,-0.15791,0.82773
490.194,155.834,-3.99992,-0.15438,0.82725
490.794,156.033,-3.99762,-0.1558,0.82678
491.394,156.2311,-3.99894,-0.15564,0.8263
491.994,156.431,-3.9994,-0.15624,0.82582
492.594,156.629,-3.99996,-0.1578,0.82534
493.194,156.827,-3.9986,-0.15488,0.82487
493.794,157.026,-3.99719,-0.15431,0.82439
494.394,157.225,-3.99867,-0.1563,0.82391
494.994,157.425,-3.99795,-0.15418,0.82343
495.594,157.624,-4.00063,-0.15592,0.82295
496.194,157.824,-3.99795,-0.155,0.82247
496.794,158.024,-4.00063,-0.15678,0.82199
497.394,158.225,-3.99782,-0.15447,0.82151
497.994,158.426,-3.99629,-0.16032,0.82103
498.594,158.628,-3.99642,-0.15947,0.82055
499.194,158.828,-3.99894,-0.15969,0.82006
499.794,159.028,-3.99961,-0.15824,0.81958
500.394,159.228,-3.99694,-0.16262,0.8191
500.994,159.4268,-3.99826,-0.15827,0.81862
501.594,159.626,-3.99838,-0.16065,0.81813
502.194,159.825,-3.99565,-0.16106,0.81765
502.794,160.025,-3.99696,-0.16223,0.81717
503.394,160.225,-3.99795,-0.16131,0.81668
503.994,160.426,-3.99649,-0.1596,0.8162
504.594,160.627,-3.99663,-0.16036,0.81571
505.194,160.828,-3.99924,-0.15931,0.81523
505.794,161.028,-4.00033,-0.16182,0.81474
506.394,161.229,-3.99796,-0.16103,0.81426
506.994,161.429,-3.99762,-0.15903,0.81377
507.594,161.628,-4.00024,-0.16202,0.81328
508.194,161.828,-4.00183,-0.16079,0.8128
508.794,162.028,-3.99919,-0.15968,0.81231
509.394,162.228,-3.999,-0.16302,0.81182
509.994,162.427,-4.00045,-0.16451,0.81133
510.594,162.6264,-3.99927,-0.16214,0.81085
511.194,162.826,-4.00091,-0.15856,0.81036
511.794,163.026,-4.00111,-0.16421,0.80987
512.394,163.225,-3.9986,-0.16484,0.80938
512.994,163.425,-3.99885,-0.16606,0.80889
513.594,163.624,-3.99992,-0.1661,0.8084
514.194,163.824,-3.99995,-0.16457,0.80791
514.794,164.023,-4.00152,-0.16585,0.80742
515.394,164.223,-4.00221,-0.16259,0.80693
515.994,164.423,-4.00042,-0.16388,0.80644
516.594,164.624,-3.99926,-0.16488,0.80595
517.194,164.825,-3.99926,-0.16536,0.80545
517.794,165.0244,-3.9986,-0.16373,0.80496
518.394,165.225,-4.00137,-0.16532,0.80447
518.994,165.424,-4.00125,-0.16568,0.80398
519.594,165.624,-4.00328,-0.16811,0.80348
520.194,165.824,-3.99908,-0.16613,0.80299
520.794,166.025,-4.00196,-0.16654,0.8025
521.394,166.225,-4.0004,-0.16417,0.802
521.994,166.424,-3.99983,-0.16559,0.80151
522.594,166.624,-3.99989,-0.16653,0.80101
523.194,166.824,-3.99981,-0.16554,0.80052
523.794,167.025,-3.99981,-0.16904,0.80002
524.394,167.225,-3.99981,-0.16696,0.79953
524.994,167.426,-4.0008,-0.16737,0.79903
525.594,167.627,-3.99939,-0.16887,0.79854
526.194,167.828,-3.99978,-0.1674,0.79804
526.794,168.028,-4.00099,-0.16979,0.79754
527.394,168.228,-3.99874,-0.16648,0.79705
527.994,168.428,-3.99916,-0.16767,0.79655
528.594,168.628,-3.99916,-0.17148,0.79605
529.194,168.828,-4.00071,-0.16801,0.79555
529.794,169.028,-3.99981,-0.16917,0.79505
530.394,169.227,-3.99981,-0.16809,0.79455
530.994,169.427,-4.00068,-0.16774,0.79406
531.594,169.627,-3.99876,-0.17259,0.79356
532.194,169.828,-3.99948,-0.17032,0.79306
532.794,170.029,-4.0008,-0.16865,0.79256
533.394,170.23,-4.0008,-0.17097,0.79206
533.994,170.432,-4.0008,-0.16996,0.79156
534.594,170.634,-4.0008,-0.17119,0.79106
535.194,170.835,-4.0008,-0.17554,0.79055
535.794,171.036,-4.00046,-0.17421,0.79005
536.394,171.237,-3.99968,-0.17201,0.78955
536.994,171.438,-4.00112,-0.17569,0.78905
537.594,171.639,-3.99999,-0.17301,0.78855
538.194,171.839,-3.99742,-0.17243,0.78804
538.794,172.039,-3.99882,-0.17404,0.78754
539.394,172.239,-3.99903,-0.17473,0.78704
539.994,172.438,-4.00044,-0.17395,0.78653
540.594,172.637,-4.00103,-0.17371,0.78603
541.194,172.836,-3.99751,-0.17499,0.78553
541.794,173.036,-3.9985,-0.17262,0.78502
542.394,173.237,-3.9985,-0.17403,0.78452
542.994,173.437,-3.99718,-0.17509,0.78401
543.594,173.637,-3.99859,-0.17738,0.78351
544.194,173.837,-3.99915,-0.17788,0.783
544.794,174.038,-3.99852,-0.17797,0.78249
545.394,174.238,-3.99848,-0.18055,0.78199
545.994,174.44,-3.99963,-0.17657,0.78148
546.594,174.642,-3.99985,-0.17528,0.78098
547.194,174.843,-3.99849,-0.17578,0.78047
547.794,175.045,-3.99841,-0.1775,0.77996
548.394,175.246,-3.99985,-0.17832,0.77945
548.994,175.448,-3.99883,-0.1816,0.77895
549.594,175.649,-3.99982,-0.17896,0.77844
550.194,175.851,-3.9998,-0.18034,0.77793
550.794,176.052,-3.99817,-0.18042,0.77742
551.394,176.2536,-3.99917,-0.18226,0.77691
551.994,176.454,-3.99788,-0.17996,0.7764
552.594,176.6538,-3.99925,-0.17821,0.77589
553.194,176.853,-3.99916,-0.17643,0.77538
553.794,177.053,-3.99718,-0.17736,0.77487
554.394,177.253,-3.99823,-0.17878,0.77436
554.994,177.453,-3.99817,-0.17706,0.77385
555.594,177.652,-3.99819,-0.17765,0.77334
556.194,177.851,-3.99816,-0.17704,0.77283
556.794,178.05,-3.99849,-0.17557,0.77232
557.394,178.25,-3.99817,-0.17733,0.7718
557.994,178.4511,-3.99818,-0.17836,0.77129
558.594,178.653,-3.99746,-0.17683,0.77078
559.194,178.854,-3.99629,-0.17909,0.77027
559.794,179.054,-3.99751,-0.18075,0.76975
560.394,179.253,-3.99751,-0.17605,0.76924
560.994,179.453,-3.99817,-0.17436,0.76873
561.594,179.653,-3.99685,-0.17731,0.76821
562.194,179.854,-3.99757,-0.17353,0.7677
562.794,180.056,-3.99817,-0.17511,0.76719
563.394,180.256,-3.99966,-0.176,0.76667
563.994,180.457,-3.99631,-0.17581,0.76616
564.594,180.659,-3.99553,-0.176,0.76564
565.194,180.86,-3.99553,-0.17486,0.76512
565.794,181.061,-3.99682,-0.1734,0.76461
566.394,181.263,-3.99619,-0.17461,0.76409
566.994,181.464,-3.99619,-0.17598,0.76358
567.594,181.667,-3.99751,-0.17865,0.76306
568.194,181.868,-3.99487,-0.17805,0.76254
568.794,182.069,-3.99489,-0.17757,0.76203
569.394,182.2696,-3.99586,-0.17914,0.76151
569.994,182.47,-3.99323,-0.1812,0.76099
570.594,182.671,-3.99553,-0.17868,0.76047
571.194,182.872,-3.99515,-0.17714,0.75996
571.794,183.072,-3.99551,-0.18066,0.75944
572.394,183.273,-3.99528,-0.1772,0.75892
572.994,183.472,-3.99522,-0.17793,0.7584
573.594,183.672,-3.99389,-0.17611,0.75788
574.194,183.874,-3.99426,-0.17831,0.75736
574.794,184.075,-3.99572,-0.1753,0.75684
575.394,184.2778,-3.99654,-0.17469,0.75632
575.994,184.481,-3.99588,-0.17405,0.7558
576.594,184.684,-3.99389,-0.17654,0.75528
577.194,184.887,-3.99276,-0.17953,0.75476
577.794,185.087,-3.99422,-0.17659,0.75424
578.394,185.288,-3.99554,-0.1768,0.75372
578.994,185.488,-3.99553,-0.17615,0.7532
579.594,185.688,-3.99489,-0.17704,0.75268
580.194,185.889,-3.99479,-0.17755,0.75216
580.794,186.0889,-3.99752,-0.17342,0.75163
581.394,186.29,-3.99684,-0.17569,0.75111
581.994,186.492,-3.99654,-0.17714,0.75059
582.594,186.693,-3.99751,-0.17516,0.75007
583.194,186.894,-3.99913,-0.17448,0.74954
583.794,187.095,-3.99916,-0.17335,0.74902
584.394,187.295,-3.9979,-0.17467,0.7485
584.994,187.498,-3.99685,-0.17688,0.74797
585.594,187.7,-3.99816,-0.17966,0.74745
586.194,187.903,-3.99787,-0.17728,0.74692
586.794,188.104,-3.99448,-0.17799,0.7464
587.394,188.305,-3.99581,-0.17587,0.74588
587.994,188.507,-3.99719,-0.17782,0.74535
588.594,188.708,-3.99619,-0.17601,0.74483
589.194,188.91,-3.99751,-0.17673,0.7443
589.794,189.112,-3.99668,-0.17913,0.74377
590.394,189.313,-3.99685,-0.17844,0.74325
590.994,189.515,-3.99627,-0.17746,0.74272
591.594,189.715,-3.99815,-0.17769,0.7422
592.194,189.916,-3.99819,-0.17765,0.74167
592.794,190.116,-3.9978,-0.17603,0.74114
593.394,190.317,-3.99949,-0.17472,0.74062
593.994,190.518,-3.99883,-0.17865,0.74009
594.594,190.719,-3.99724,-0.17549,0.73956
595.194,190.921,-3.99751,-0.18002,0.73903
595.794,191.1219,-3.99655,-0.1811,0.7385
596.394,191.324,-4.00047,-0.18076,0.73798
596.994,191.525,-3.99784,-0.17814,0.73745
597.594,191.727,-3.99916,-0.17801,0.73692
598.194,191.928,-3.99934,-0.1765,0.73639
598.794,192.13,-3.9985,-0.17579,0.73586
599.394,192.332,-3.99981,-0.1764,0.73533
599.994,192.5335,-3.99981,-0.17535,0.7348
600.594,192.735,-3.99982,-0.17571,0.73427
601.194,192.9353,-3.99949,-0.17331,0.73374
601.794,193.137,-3.99982,-0.17225,0.73321
602.394,193.339,-3.99982,-0.17636,0.73268
602.994,193.541,-3.99849,-0.17463,0.73215
603.594,193.744,-3.9985,-0.17375,0.73162
604.194,193.947,-3.99932,-0.17029,0.73109
604.794,194.15,-3.9985,-0.17201,0.73056
605.394,194.352,-3.99982,-0.17346,0.73003
605.994,194.553,-3.99715,-0.17302,0.7295
606.594,194.753,-4.0008,-0.17634,0.72896
607.194,194.954,-3.99881,-0.1757,0.72843
607.794,195.155,-4.0008,-0.17272,0.7279
608.394,195.357,-4.00016,-0.1727,0.72737
608.994,195.558,-4.00122,-0.17342,0.72683
609.594,195.757,-4.00002,-0.17117,0.7263
610.194,195.957,-4.00054,-0.17175,0.72577
610.794,196.1561,-4.00081,-0.17085,0.72523
611.394,196.356,-4.00081,-0.17007,0.7247
611.994,196.556,-4.00046,-0.17008,0.72417
612.594,196.757,-4.00143,-0.17429,0.72363
613.194,196.959,-4.00167,-0.16972,0.7231
613.794,197.162,-4.00219,-0.17017,0.72256
614.394,197.364,-4.00288,-0.16704,0.72203
614.994,197.567,-4.00047,-0.16948,0.7215
615.594,197.77,-4.00076,-0.17073,0.72096
616.194,197.973,-3.99974,-0.16767,0.72043
616.794,198.176,-4.0019,-0.17012,0.71989
617.394,198.378,-4.00115,-0.16814,0.71935
617.994,198.58,-4.00179,-0.16603,0.71882
618.594,198.782,-4.00178,-0.16652,0.71828
619.194,198.984,-4.00044,-0.16435,0.71775
619.794,199.186,-4.00249,-0.16152,0.71721
620.394,199.387,-3.99982,-0.16385,0.71667
620.994,199.589,-4.00245,-0.16251,0.71614
621.594,199.79,-4.00152,-0.16408,0.7156
622.194,199.993,-4.00143,-0.16515,0.71506
622.794,200.195,-4.00149,-0.16467,0.71453
623.394,200.397,-4.00278,-0.15986,0.71399
623.994,200.598,-4.00177,-0.16398,0.71345
624.594,200.799,-4.00139,-0.16375,0.71291
625.194,200.999,-4.00179,-0.16353,0.71237
625.794,201.201,-4.00177,-0.16939,0.71184
626.394,201.4037,-4.00041,-0.16462,0.7113
626.994,201.607,-4.00048,-0.16334,0.71076
627.594,201.811,-4.00098,-0.16521,0.71022
628.194,202.015,-3.99192,-0.16715,0.70968
628.794,202.217,-3.99893,-0.16718,0.70914
629.394,202.419,-4.00364,-0.16612,0.7086
629.994,202.62,-4.00047,-0.16652,0.70806
630.594,202.822,-4.00337,-0.16869,0.70752
631.194,203.024,-4.00664,-0.16406,0.70698
631.794,203.224,-4.01379,-0.16314,0.70644
632.394,203.426,-4.00609,-0.16555,0.7059
632.994,203.628,-4.00361,-0.16565,0.70536
633.594,203.83,-4.00157,-0.1698,0.70482
634.194,204.032,-4.00161,-0.16756,0.70428
634.794,204.235,-4.00263,-0.16658,0.70374
635.394,204.438,-4.00321,-0.16856,0.7032
635.994,204.64,-4.00321,-0.16658,0.70266
636.594,204.842,-4.00353,-0.16502,0.70212
637.194,205.044,-4.0055,-0.1635,0.70157
637.794,205.245,-4.00453,-0.16232,0.70103
638.394,205.446,-4.0032,-0.16612,0.70049
638.994,205.6472,-4.00387,-0.16604,0.69995
639.594,205.848,-4.0042,-0.16772,0.69941
640.194,206.05,-4.00321,-0.16643,0.69886
640.794,206.252,-4.00355,-0.16555,0.69832
641.394,206.455,-4.00487,-0.1673,0.69778
641.994,206.658,-4.00394,-0.16565,0.69723
642.594,206.86,-4.00255,-0.16079,0.69669
643.194,207.062,-4.00317,-0.16446,0.69615
643.794,207.264,-4.0032,-0.16289,0.6956
644.394,207.465,-4.00287,-0.16163,0.69506
644.994,207.667,-4.00289,-0.16558,0.69452
645.594,207.869,-4.00288,-0.16411,0.69397
646.194,208.071,-4.00255,-0.16523,0.69343
646.794,208.274,-4.00354,-0.1636,0.69288
647.394,208.476,-4.0042,-0.16885,0.69234
647.994,208.678,-4.0042,-0.1684,0.6918
648.594,208.8805,-4.0042,-0.1644,0.69125
649.194,209.083,-4.0042,-0.16737,0.69071
649.794,209.285,-4.00348,-0.16517,0.69016
650.394,209.487,-4.00486,-0.16497,0.68962
650.994,209.689,-4.00486,-0.16632,0.68907
651.594,209.8912,-4.00323,-0.16342,0.68852
651.894,209.991,-4.00453,-0.16257,0.68825