File: 01_Data/Engineered_Flooring/MCC/Engineered_Flooring_30K_min_211025_R2.txt
Sample ID:	C:\MCC\MCC Cal\Test\Engineered_Flooring_30K_min_211025_R2.txt
Sample Weight (mg):	4.68
Heating Rate (C/s):	0.5
Combustor Temp (C):	900
N2 Flow Rate (cc/min):	80
O2 Flow Rate (cc/min):	20
Calibration File:	C:\MCC\MCC Cal\Coeff1 JN10440_30_210304.txt.txt
T Correction Coefficients:	0	1.024463	0
Time Shift (s):	14
*
Time (s)	Temperature (C)	N2 flow rate (cc/min)	O2 flow rate (cc/min)	Flow Rate (cc/min)	Oxygen (%)	HRR (W/g)	Heating rate (C/s)
0.000	109.021	79.997	19.998	103.005	20.023	-0.070	-0.001
2.000	108.982	79.998	19.996	103.003	20.025	-0.264	-0.023
4.000	108.992	79.998	19.996	103.004	20.024	-0.183	-0.028
6.000	109.022	79.998	19.996	103.003	20.020	0.092	0.025
8.000	108.995	79.998	19.994	103.006	20.021	0.053	-0.009
10.000	108.979	79.998	19.995	103.002	20.024	-0.160	-0.002
12.000	108.989	79.999	19.996	103.011	20.024	-0.170	0.018
14.000	109.019	79.998	19.995	103.005	20.024	-0.191	0.016
16.000	109.008	79.999	19.995	103.025	20.021	0.034	-0.006
18.000	109.015	79.999	19.995	103.035	20.019	0.181	0.008
20.000	108.968	80.000	19.996	103.055	20.013	0.612	-0.008
22.000	109.054	79.998	19.996	103.111	20.011	0.699	0.036
24.000	109.130	79.998	19.995	103.132	20.009	0.872	0.049
26.000	109.193	79.998	19.996	103.122	20.006	1.044	0.073
28.000	109.305	79.998	19.996	103.130	20.007	0.980	0.070
30.000	109.410	79.998	19.996	103.146	20.006	1.046	0.035
32.000	109.550	79.998	19.996	103.137	20.001	1.411	0.079
33.999	109.707	79.998	19.995	103.147	19.999	1.534	0.076
35.999	109.928	79.999	19.996	103.146	20.000	1.488	0.105
37.999	110.135	80.000	19.995	103.167	19.997	1.666	0.088
39.999	110.366	80.000	19.995	103.156	19.998	1.647	0.135
41.999	110.588	80.000	19.994	103.157	19.994	1.885	0.113
43.999	110.871	79.999	19.995	103.163	19.989	2.212	0.149
45.999	111.138	80.001	19.996	103.191	19.990	2.154	0.144
47.999	111.487	79.999	19.994	103.198	19.990	2.177	0.180
50.000	111.786	80.000	19.994	103.198	19.989	2.220	0.158
51.999	112.186	79.998	19.995	103.198	19.990	2.190	0.224
53.999	112.535	79.998	19.996	103.200	19.989	2.235	0.155
55.999	112.958	79.999	19.995	103.208	19.985	2.509	0.194
58.001	113.340	79.999	19.997	103.216	19.988	2.298	0.225
59.999	113.778	79.998	19.997	103.230	19.988	2.338	0.256
61.999	114.235	80.000	19.994	103.234	19.987	2.375	0.196
63.999	114.715	80.001	19.995	103.231	19.985	2.491	0.236
66.000	115.215	80.001	19.995	103.234	19.981	2.799	0.264
68.000	115.733	80.002	19.995	103.237	19.981	2.791	0.241
69.999	116.212	80.001	19.994	103.238	19.980	2.838	0.236
72.000	116.815	80.001	19.995	103.243	19.982	2.740	0.270
73.999	117.415	79.999	19.995	103.248	19.982	2.763	0.301
75.999	117.960	79.999	19.996	103.250	19.981	2.774	0.255
77.999	118.557	79.999	19.998	103.250	19.981	2.827	0.289
79.999	119.178	80.000	19.996	103.248	19.978	2.980	0.298
82.000	119.824	80.000	19.997	103.246	19.979	2.922	0.308
84.000	120.446	80.000	19.996	103.256	19.981	2.809	0.300
85.999	121.140	79.999	19.996	103.254	19.981	2.784	0.356
87.999	121.855	79.998	19.998	103.238	19.980	2.867	0.342
89.999	122.525	79.999	19.997	103.239	19.981	2.774	0.355
91.999	123.262	79.998	19.997	103.252	19.981	2.818	0.359
93.999	123.940	79.999	19.995	103.243	19.976	3.111	0.376
95.999	124.705	80.000	19.994	103.270	19.978	2.975	0.368
97.999	125.479	80.000	19.996	103.268	19.976	3.170	0.405
99.999	126.191	79.999	19.996	103.244	19.973	3.353	0.378
102.000	126.945	80.000	19.996	103.259	19.975	3.219	0.383
104.000	127.732	79.997	19.994	103.248	19.975	3.229	0.387
105.999	128.513	79.999	19.997	103.270	19.975	3.202	0.411
108.000	129.292	79.998	19.996	103.267	19.975	3.219	0.383
109.999	130.108	79.998	19.995	103.272	19.975	3.191	0.423
111.999	130.912	79.999	19.996	103.276	19.972	3.403	0.405
113.999	131.733	79.998	19.995	103.278	19.977	3.055	0.425
116.000	132.571	80.001	19.996	103.277	19.975	3.179	0.435
117.999	133.426	80.000	19.995	103.277	19.980	2.858	0.438
120.000	134.248	80.001	19.996	103.271	19.976	3.164	0.399
121.999	135.103	80.000	19.995	103.275	19.976	3.161	0.406
123.999	135.972	80.001	19.996	103.274	19.976	3.177	0.397
125.999	136.832	80.000	19.995	103.278	19.974	3.261	0.407
128.000	137.779	80.001	19.995	103.271	19.976	3.155	0.475
130.000	138.636	79.999	19.995	103.274	19.974	3.253	0.468
132.000	139.566	80.000	19.995	103.234	19.970	3.524	0.454
134.000	140.451	80.000	19.994	103.256	19.976	3.128	0.475
136.000	141.359	80.000	19.995	103.336	19.972	3.389	0.461
138.000	142.311	80.001	19.995	103.276	19.974	3.247	0.483
140.000	143.182	80.001	19.996	103.275	19.973	3.334	0.428
142.000	144.185	80.001	19.997	103.274	19.974	3.296	0.483
144.000	145.132	80.002	19.996	103.273	19.975	3.198	0.464
146.000	146.054	80.000	19.995	103.272	19.972	3.448	0.460
148.000	146.985	80.001	19.995	103.269	19.970	3.567	0.477
150.000	147.936	80.001	19.997	103.272	19.969	3.614	0.470
152.000	148.913	80.000	19.997	103.254	19.969	3.591	0.494
154.000	149.852	80.000	19.996	103.257	19.968	3.673	0.473
156.000	150.838	79.999	19.997	103.272	19.966	3.805	0.472
158.000	151.788	79.997	19.997	103.258	19.969	3.624	0.508
160.000	152.761	79.999	19.997	103.267	19.968	3.720	0.505
162.000	153.672	79.998	19.996	103.267	19.969	3.643	0.469
164.000	154.618	79.999	19.997	103.259	19.972	3.395	0.492
166.000	155.648	79.999	19.996	103.274	19.971	3.478	0.524
168.000	156.547	80.000	19.996	103.269	19.968	3.693	0.479
170.000	157.555	79.999	19.996	103.274	19.966	3.812	0.464
172.000	158.548	79.999	19.997	103.273	19.965	3.888	0.508
174.000	159.519	79.999	19.997	103.273	19.966	3.862	0.463
176.000	160.563	79.999	19.998	103.271	19.966	3.863	0.524
178.000	161.562	79.997	19.997	103.257	19.966	3.822	0.541
180.000	162.551	79.999	19.997	103.263	19.963	4.065	0.506
182.000	163.528	79.999	19.997	103.262	19.958	4.379	0.481
184.000	164.566	79.997	19.997	103.274	19.960	4.249	0.506
186.000	165.546	79.998	19.996	103.269	19.960	4.276	0.481
188.000	166.568	79.998	19.996	103.254	19.957	4.466	0.512
190.000	167.581	79.998	19.994	103.257	19.956	4.496	0.494
192.000	168.575	79.997	19.995	103.254	19.954	4.661	0.503
194.000	169.591	79.997	19.996	103.253	19.950	4.941	0.536
196.000	170.579	79.998	19.995	103.259	19.950	4.919	0.481
198.000	171.586	79.999	19.995	103.264	19.949	5.021	0.476
200.000	172.576	80.000	19.995	103.251	19.946	5.233	0.473
202.000	173.581	79.999	19.996	103.252	19.945	5.308	0.499
204.000	174.600	80.001	19.994	103.260	19.944	5.316	0.495
206.000	175.588	80.001	19.996	103.249	19.944	5.322	0.517
208.000	176.576	80.000	19.997	103.242	19.943	5.420	0.486
210.000	177.563	80.000	19.997	103.252	19.939	5.671	0.466
212.000	178.567	80.000	19.996	103.241	19.938	5.769	0.475
214.000	179.617	80.000	19.995	103.251	19.936	5.915	0.535
216.000	180.560	79.999	19.995	103.249	19.934	6.036	0.475
218.000	181.606	80.000	19.996	103.259	19.933	6.087	0.530
220.000	182.635	80.000	19.995	103.242	19.928	6.470	0.506
222.000	183.608	80.000	19.996	103.240	19.927	6.521	0.495
224.000	184.603	80.000	19.994	103.238	19.928	6.434	0.514
226.000	185.618	80.002	19.996	103.242	19.925	6.680	0.480
228.000	186.639	80.001	19.995	103.236	19.921	6.897	0.506
230.000	187.622	80.002	19.995	103.240	19.920	6.966	0.476
232.000	188.621	80.000	19.996	103.238	19.918	7.158	0.483
234.000	189.573	80.001	19.995	103.236	19.916	7.285	0.504
236.000	190.559	79.998	19.995	103.234	19.913	7.455	0.489
238.000	191.517	79.999	19.997	103.236	19.911	7.595	0.511
240.000	192.476	79.999	19.997	103.245	19.907	7.920	0.487
242.000	193.434	79.999	19.997	103.243	19.909	7.780	0.472
244.000	194.352	79.998	19.996	103.238	19.907	7.859	0.448
246.000	195.341	79.999	19.996	103.237	19.906	7.954	0.483
248.000	196.263	79.998	19.995	103.236	19.901	8.336	0.454
250.000	197.247	79.998	19.996	103.240	19.899	8.458	0.491
252.000	198.157	79.999	19.996	103.244	19.897	8.555	0.445
254.000	199.157	79.998	19.995	103.239	19.897	8.579	0.476
256.000	200.088	79.999	19.998	103.239	19.896	8.631	0.454
258.000	201.069	79.998	19.995	103.240	19.893	8.868	0.474
260.000	201.993	79.997	19.995	103.238	19.892	8.894	0.490
262.000	202.980	79.997	19.997	103.239	19.889	9.120	0.492
264.000	203.924	79.997	19.996	103.239	19.886	9.360	0.474
266.000	204.878	79.998	19.997	103.239	19.887	9.259	0.492
268.000	205.829	79.996	19.997	103.241	19.882	9.586	0.492
270.000	206.805	79.996	19.997	103.235	19.883	9.545	0.475
272.000	207.776	79.998	19.996	103.254	19.883	9.577	0.495
274.000	208.765	79.998	19.997	103.244	19.883	9.537	0.490
276.000	209.712	79.999	19.996	103.239	19.881	9.658	0.476
278.000	210.710	80.000	19.996	103.236	19.879	9.796	0.465
280.000	211.654	80.000	19.996	103.236	19.881	9.666	0.463
282.000	212.641	80.000	19.996	103.234	19.882	9.633	0.484
284.000	213.636	79.999	19.996	103.235	19.878	9.856	0.505
286.000	214.604	80.000	19.995	103.241	19.877	9.977	0.472
288.000	215.586	80.000	19.995	103.236	19.879	9.837	0.482
290.000	216.544	79.998	19.995	103.238	19.879	9.792	0.506
292.000	217.510	79.999	19.997	103.239	19.877	9.975	0.468
294.000	218.494	79.999	19.995	103.233	19.877	9.960	0.459
296.000	219.463	79.999	19.996	103.233	19.876	10.042	0.459
298.000	220.449	79.998	19.996	103.234	19.879	9.847	0.464
300.000	221.423	79.999	19.995	103.236	19.879	9.786	0.472
302.000	222.412	79.999	19.995	103.237	19.881	9.710	0.467
304.000	223.414	80.000	19.994	103.235	19.875	10.061	0.487
306.000	224.348	80.000	19.995	103.236	19.877	9.983	0.451
308.000	225.374	80.000	19.995	103.237	19.877	9.936	0.492
310.000	226.332	80.001	19.994	103.236	19.876	10.006	0.466
312.000	227.315	80.000	19.995	103.239	19.875	10.123	0.480
314.000	228.296	79.999	19.995	103.243	19.873	10.237	0.468
316.000	229.337	79.999	19.996	103.240	19.870	10.414	0.533
318.000	230.343	79.999	19.995	103.241	19.870	10.448	0.494
320.000	231.302	79.998	19.995	103.239	19.871	10.365	0.477
322.000	232.324	79.999	19.995	103.240	19.870	10.416	0.496
324.000	233.311	79.998	19.995	103.241	19.872	10.317	0.508
326.000	234.318	79.998	19.996	103.244	19.867	10.652	0.530
328.000	235.275	79.999	19.995	103.239	19.872	10.314	0.471
330.000	236.252	80.000	19.996	103.237	19.869	10.529	0.488
332.000	237.243	79.999	19.996	103.236	19.867	10.665	0.492
334.000	238.211	79.998	19.996	103.236	19.864	10.878	0.486
336.000	239.185	79.999	19.996	103.237	19.864	10.856	0.491
338.000	240.217	79.999	19.996	103.239	19.868	10.543	0.498
340.000	241.139	79.999	19.997	103.252	19.866	10.693	0.475
342.000	242.205	79.999	19.996	103.247	19.868	10.561	0.503
344.000	243.143	79.998	19.997	103.238	19.864	10.846	0.468
346.000	244.130	79.998	19.997	103.257	19.865	10.812	0.503
348.000	245.125	79.999	19.996	103.254	19.859	11.188	0.485
350.000	246.164	79.997	19.997	103.269	19.859	11.192	0.496
352.000	247.188	79.998	19.995	103.270	19.857	11.336	0.493
354.000	248.214	79.998	19.996	103.269	19.858	11.298	0.518
356.000	249.274	79.999	19.997	103.265	19.856	11.374	0.528
358.000	250.345	79.999	19.997	103.271	19.853	11.605	0.544
360.000	251.370	79.997	19.998	103.271	19.853	11.639	0.522
362.000	252.372	79.999	19.996	103.268	19.851	11.783	0.484
364.000	253.441	79.999	19.997	103.270	19.851	11.756	0.525
366.000	254.480	79.998	19.996	103.272	19.846	12.083	0.518
368.000	255.502	80.000	19.996	103.272	19.844	12.218	0.525
370.000	256.561	79.999	19.996	103.274	19.838	12.641	0.513
372.000	257.597	80.000	19.996	103.275	19.836	12.760	0.520
374.000	258.635	79.999	19.995	103.276	19.831	13.097	0.497
376.000	259.715	79.999	19.996	103.278	19.828	13.347	0.525
378.000	260.763	80.001	19.996	103.277	19.827	13.416	0.533
380.000	261.776	80.000	19.996	103.280	19.820	13.880	0.506
382.000	262.815	80.000	19.995	103.274	19.818	14.020	0.512
384.000	263.892	79.999	19.996	103.278	19.811	14.501	0.552
386.000	264.898	80.001	19.996	103.280	19.807	14.765	0.500
388.000	265.914	80.000	19.994	103.284	19.804	15.010	0.508
390.000	266.965	80.000	19.995	103.287	19.793	15.729	0.490
392.000	267.991	80.001	19.995	103.284	19.790	15.973	0.511
394.000	269.026	80.000	19.996	103.282	19.786	16.227	0.518
396.000	270.046	79.999	19.995	103.298	19.780	16.660	0.499
398.000	271.128	79.998	19.996	103.296	19.775	17.007	0.517
400.000	272.157	79.998	19.996	103.296	19.763	17.802	0.508
402.000	273.200	80.000	19.996	103.294	19.757	18.200	0.505
404.000	274.166	79.999	19.995	103.304	19.753	18.474	0.467
406.000	275.168	79.999	19.995	103.306	19.747	18.944	0.501
408.000	276.213	79.999	19.995	103.298	19.741	19.317	0.541
410.000	277.189	79.999	19.996	103.300	19.732	19.933	0.486
412.000	278.178	80.000	19.996	103.303	19.725	20.457	0.513
414.000	279.181	79.998	19.996	103.309	19.720	20.801	0.492
416.000	280.183	79.999	19.996	103.312	19.711	21.401	0.491
418.000	281.151	80.000	19.996	103.312	19.706	21.721	0.485
420.000	282.117	79.999	19.996	103.312	19.700	22.144	0.503
422.000	283.126	79.999	19.996	103.312	19.695	22.495	0.513
424.000	284.077	79.998	19.996	103.310	19.688	23.002	0.494
426.000	285.025	79.997	19.996	103.311	19.679	23.568	0.477
428.000	285.991	79.999	19.996	103.312	19.678	23.660	0.511
430.000	286.914	79.997	19.996	103.319	19.669	24.261	0.452
432.000	287.903	79.997	19.996	103.321	19.665	24.577	0.457
434.000	288.891	79.996	19.997	103.316	19.660	24.917	0.495
436.000	289.836	79.998	19.996	103.319	19.656	25.191	0.487
438.000	290.799	79.999	19.997	103.326	19.653	25.408	0.475
440.000	291.761	79.998	19.996	103.325	19.644	26.009	0.484
442.000	292.723	79.999	19.996	103.322	19.636	26.591	0.476
444.000	293.721	79.999	19.996	103.265	19.639	26.386	0.459
446.000	294.701	79.998	19.996	103.310	19.632	26.821	0.473
448.000	295.703	79.998	19.997	103.394	19.625	27.344	0.470
450.000	296.698	79.998	19.996	103.338	19.624	27.422	0.513
452.000	297.694	79.997	19.996	103.348	19.616	27.944	0.510
454.000	298.638	79.999	19.998	103.338	19.611	28.262	0.477
456.000	299.650	79.999	19.996	103.343	19.604	28.768	0.494
458.000	300.678	80.000	19.997	103.340	19.602	28.892	0.537
460.000	301.670	80.000	19.996	103.342	19.597	29.287	0.493
462.000	302.622	80.001	19.995	103.329	19.592	29.630	0.463
464.000	303.652	80.000	19.995	103.343	19.586	30.018	0.507
466.000	304.659	80.002	19.996	103.347	19.582	30.272	0.507
468.000	305.642	80.001	19.996	103.344	19.573	30.936	0.518
470.000	306.683	80.000	19.996	103.345	19.572	30.959	0.486
472.000	307.691	80.000	19.996	103.347	19.566	31.384	0.538
474.000	308.701	80.000	19.996	103.350	19.562	31.651	0.485
476.000	309.718	79.999	19.995	103.351	19.558	31.935	0.497
478.000	310.766	79.997	19.996	103.352	19.552	32.367	0.510
480.000	311.804	80.000	19.996	103.352	19.548	32.618	0.504
482.000	312.817	79.999	19.997	103.351	19.545	32.865	0.534
484.000	313.870	79.998	19.994	103.351	19.535	33.519	0.531
486.000	314.890	80.000	19.997	103.351	19.530	33.863	0.520
488.000	315.877	79.999	19.995	103.351	19.525	34.233	0.488
490.000	316.921	80.000	19.996	103.355	19.522	34.460	0.510
492.000	317.940	80.000	19.995	103.351	19.517	34.770	0.483
494.000	318.990	80.000	19.996	103.352	19.510	35.264	0.520
496.000	319.959	79.999	19.995	103.353	19.504	35.645	0.489
498.000	321.016	80.000	19.995	103.355	19.495	36.316	0.523
500.000	322.014	79.999	19.996	103.356	19.492	36.484	0.507
502.000	322.994	79.998	19.996	103.355	19.481	37.287	0.505
504.000	324.033	79.998	19.995	103.356	19.477	37.551	0.523
506.000	325.030	79.997	19.995	103.372	19.471	37.953	0.515
508.000	326.052	79.998	19.997	103.373	19.465	38.389	0.492
510.000	327.035	79.996	19.995	103.361	19.458	38.870	0.504
512.000	328.033	79.997	19.996	103.371	19.450	39.435	0.497
514.000	329.051	79.997	19.996	103.385	19.443	39.912	0.506
516.000	330.071	79.998	19.996	103.384	19.431	40.693	0.543
518.000	331.058	79.998	19.996	103.384	19.427	40.991	0.501
520.000	332.101	80.000	19.997	103.390	19.419	41.536	0.546
522.000	333.108	79.999	19.996	103.391	19.409	42.216	0.516
524.000	334.115	80.000	19.995	103.391	19.401	42.780	0.494
526.000	335.139	80.000	19.996	103.389	19.396	43.107	0.522
528.000	336.130	80.001	19.996	103.390	19.384	43.944	0.501
530.000	337.163	79.999	19.996	103.393	19.376	44.505	0.516
532.000	338.186	80.000	19.996	103.394	19.367	45.170	0.515
534.000	339.178	79.998	19.997	103.401	19.358	45.755	0.482
536.000	340.150	79.997	19.995	103.411	19.341	46.964	0.507
538.000	341.181	79.999	19.997	103.400	19.336	47.276	0.507
540.000	342.194	79.999	19.997	103.415	19.326	47.975	0.505
542.000	343.196	79.999	19.997	103.420	19.315	48.725	0.503
544.000	344.191	80.000	19.996	103.426	19.303	49.527	0.508
546.000	345.170	80.001	19.998	103.426	19.294	50.199	0.501
548.000	346.179	80.001	19.996	103.430	19.282	51.046	0.493
550.000	347.190	80.001	19.995	103.442	19.270	51.817	0.554
552.000	348.211	80.000	19.996	103.436	19.258	52.666	0.517
554.000	349.219	79.999	19.995	103.445	19.248	53.344	0.506
556.000	350.236	79.999	19.995	103.441	19.237	54.091	0.510
558.000	351.248	79.998	19.996	103.461	19.222	55.151	0.512
560.000	352.239	80.000	19.995	103.464	19.211	55.886	0.501
562.000	353.296	79.999	19.995	103.464	19.199	56.776	0.525
564.000	354.289	79.996	19.995	103.468	19.188	57.481	0.495
566.000	355.310	79.997	19.995	103.469	19.179	58.123	0.498
568.000	356.295	79.998	19.995	103.468	19.167	58.931	0.478
570.000	357.327	79.999	19.996	103.469	19.161	59.375	0.534
572.000	358.322	79.997	19.996	103.472	19.149	60.224	0.503
574.000	359.335	79.998	19.995	103.471	19.141	60.747	0.487
576.000	360.363	79.997	19.995	103.471	19.132	61.347	0.516
578.000	361.391	79.997	19.995	103.472	19.126	61.749	0.504
580.000	362.422	79.998	19.996	103.472	19.126	61.778	0.533
582.000	363.392	79.999	19.995	103.466	19.124	61.900	0.490
584.000	364.393	79.997	19.994	103.465	19.126	61.776	0.514
586.000	365.410	79.998	19.994	103.470	19.128	61.601	0.496
588.000	366.422	79.999	19.996	103.452	19.133	61.237	0.523
590.000	367.415	79.999	19.994	103.434	19.141	60.683	0.512
592.000	368.409	79.999	19.995	103.431	19.156	59.671	0.482
594.000	369.445	79.998	19.997	103.424	19.170	58.661	0.488
596.000	370.451	79.998	19.995	103.408	19.184	57.710	0.497
598.000	371.501	79.999	19.996	103.393	19.210	55.875	0.506
600.000	372.503	79.999	19.996	103.373	19.235	54.133	0.482
602.000	373.500	80.000	19.995	103.355	19.265	52.108	0.476
604.000	374.505	79.999	19.995	103.345	19.296	49.946	0.473
606.000	375.517	80.000	19.996	103.326	19.331	47.542	0.482
608.000	376.554	79.999	19.996	103.311	19.368	44.967	0.506
610.000	377.545	79.999	19.996	103.300	19.408	42.226	0.489
612.000	378.566	80.001	19.997	103.275	19.449	39.400	0.537
614.000	379.606	80.000	19.996	103.269	19.487	36.807	0.547
616.000	380.608	79.999	19.996	103.262	19.524	34.269	0.527
618.000	381.624	80.000	19.995	103.238	19.569	31.173	0.495
620.000	382.565	80.000	19.995	103.237	19.602	28.875	0.467
622.000	383.621	79.999	19.995	103.234	19.638	26.409	0.516
624.000	384.675	80.000	19.995	103.233	19.669	24.235	0.536
626.000	385.667	80.000	19.995	103.230	19.694	22.508	0.520
628.000	386.653	80.000	19.995	103.210	19.732	19.943	0.480
630.000	387.705	80.000	19.996	103.201	19.750	18.712	0.503
632.000	388.738	80.001	19.995	103.199	19.771	17.267	0.525
634.000	389.672	79.999	19.996	103.197	19.789	16.026	0.472
636.000	390.729	79.999	19.996	103.196	19.802	15.087	0.552
638.000	391.642	79.998	19.997	103.192	19.812	14.443	0.456
640.000	392.401	79.996	19.996	103.197	19.823	13.668	0.295
642.000	393.940	79.998	19.995	103.198	19.831	13.101	0.402
644.000	394.757	79.997	19.996	103.199	19.837	12.680	0.598
646.000	395.732	79.998	19.996	103.198	19.840	12.478	0.617
648.000	396.711	79.998	19.994	103.197	19.846	12.051	0.534
650.000	397.653	79.999	19.995	103.196	19.853	11.626	0.508
652.000	398.621	79.998	19.995	103.194	19.854	11.520	0.455
654.000	399.609	79.999	19.995	103.194	19.860	11.112	0.523
656.000	400.547	79.998	19.994	103.195	19.858	11.237	0.490
658.000	401.553	79.999	19.995	103.194	19.862	10.972	0.502
660.000	402.473	79.998	19.994	103.194	19.867	10.657	0.477
662.000	403.488	79.998	19.995	103.194	19.866	10.704	0.520
664.000	404.461	79.999	19.995	103.194	19.867	10.631	0.494
666.000	405.419	79.998	19.995	103.190	19.870	10.443	0.485
668.000	406.391	79.998	19.996	103.193	19.870	10.415	0.490
670.000	407.379	79.999	19.995	103.192	19.870	10.400	0.538
672.000	408.369	79.998	19.996	103.193	19.873	10.219	0.490
674.000	409.383	79.999	19.996	103.195	19.877	9.928	0.492
676.000	410.313	79.999	19.996	103.193	19.878	9.891	0.466
678.000	411.304	79.999	19.995	103.191	19.877	9.970	0.494
680.000	412.264	80.001	19.994	103.189	19.878	9.887	0.449
682.000	413.247	80.000	19.994	103.191	19.880	9.733	0.476
684.000	414.194	80.001	19.994	103.197	19.882	9.618	0.471
686.000	415.134	80.000	19.994	103.197	19.880	9.732	0.486
688.000	416.111	80.000	19.993	103.201	19.879	9.848	0.502
690.000	417.127	79.999	19.995	103.197	19.879	9.787	0.503
692.000	418.037	79.999	19.995	103.195	19.880	9.755	0.513
694.000	419.062	79.999	19.996	103.196	19.883	9.551	0.479
696.000	420.089	79.999	19.994	103.197	19.885	9.373	0.502
698.000	421.086	80.000	19.996	103.202	19.882	9.617	0.519
700.000	422.070	79.999	19.996	103.197	19.883	9.511	0.502
702.000	423.077	79.999	19.996	103.198	19.891	9.006	0.485
704.000	424.105	79.999	19.996	103.204	19.887	9.286	0.520
706.000	425.112	80.001	19.995	103.201	19.889	9.114	0.513
708.000	426.185	80.001	19.996	103.201	19.890	9.029	0.516
710.000	427.264	79.999	19.995	103.197	19.888	9.189	0.546
712.000	428.248	80.001	19.996	103.196	19.889	9.138	0.498
714.000	429.331	80.001	19.995	103.197	19.889	9.151	0.531
716.000	430.412	80.000	19.995	103.195	19.891	9.019	0.541
718.000	431.409	79.999	19.996	103.191	19.894	8.793	0.520
720.000	432.490	79.998	19.996	103.192	19.893	8.859	0.524
722.000	433.553	79.998	19.996	103.196	19.892	8.936	0.536
724.000	434.603	79.997	19.996	103.193	19.894	8.781	0.520
726.000	435.676	79.998	19.996	103.193	19.892	8.915	0.532
728.000	436.748	79.996	19.998	103.192	19.893	8.861	0.546
730.000	437.761	79.998	19.997	103.193	19.897	8.596	0.495
732.000	438.828	79.997	19.997	103.190	19.894	8.788	0.493
734.000	439.901	79.998	19.997	103.192	19.896	8.615	0.559
736.000	440.946	79.998	19.996	103.190	19.901	8.288	0.523
738.000	441.943	79.998	19.996	103.194	19.901	8.267	0.506
740.000	443.018	80.000	19.996	103.192	19.902	8.254	0.517
742.000	444.016	80.000	19.995	103.190	19.902	8.213	0.529
744.000	445.060	79.997	19.996	103.189	19.904	8.083	0.534
746.000	446.123	79.999	19.995	103.195	19.907	7.864	0.518
748.000	447.200	79.999	19.995	103.192	19.907	7.896	0.557
750.000	448.213	79.998	19.996	103.193	19.910	7.661	0.508
752.000	449.263	79.999	19.996	103.195	19.910	7.682	0.553
754.000	450.295	79.999	19.995	103.196	19.911	7.591	0.520
756.000	451.348	79.998	19.996	103.197	19.913	7.479	0.510
758.000	452.373	79.997	19.995	103.197	19.911	7.595	0.522
760.000	453.426	79.997	19.994	103.195	19.914	7.432	0.526
762.000	454.442	79.999	19.996	103.194	19.913	7.485	0.540
764.000	455.536	80.000	19.995	103.195	19.918	7.164	0.518
766.000	456.515	79.999	19.995	103.183	19.914	7.424	0.469
768.000	457.564	80.000	19.996	103.190	19.916	7.245	0.485
770.000	458.651	80.000	19.996	103.187	19.913	7.492	0.557
772.000	459.636	80.000	19.995	103.192	19.918	7.109	0.543
774.000	460.647	79.999	19.994	103.187	19.917	7.177	0.483
776.000	461.679	79.997	19.995	103.189	19.919	7.032	0.501
778.000	462.709	79.999	19.996	103.181	19.920	6.972	0.522
780.000	463.732	79.999	19.995	103.178	19.927	6.539	0.483
782.000	464.708	80.000	19.995	103.186	19.924	6.696	0.488
784.000	465.726	79.999	19.996	103.187	19.923	6.759	0.483
786.000	466.745	80.001	19.996	103.184	19.923	6.761	0.492
788.000	467.774	80.001	19.995	103.180	19.924	6.688	0.475
790.000	468.841	80.000	19.996	103.177	19.925	6.652	0.505
792.000	469.834	80.000	19.996	103.186	19.925	6.666	0.513
794.000	470.911	80.001	19.996	103.183	19.928	6.425	0.529
796.000	471.929	80.001	19.995	103.179	19.930	6.328	0.506
798.000	472.951	80.000	19.996	103.185	19.929	6.389	0.508
800.000	473.986	79.998	19.996	103.180	19.931	6.241	0.526
802.000	475.045	80.000	19.996	103.182	19.928	6.432	0.518
804.000	476.018	79.998	19.995	103.174	19.929	6.357	0.480
806.000	477.077	79.999	19.995	103.170	19.928	6.446	0.500
808.000	478.092	79.998	19.996	103.177	19.929	6.363	0.524
810.000	479.139	79.999	19.997	103.175	19.934	6.032	0.529
812.000	480.129	79.999	19.996	103.176	19.931	6.234	0.495
814.000	481.182	79.998	19.996	103.171	19.932	6.168	0.519
816.000	482.205	79.999	19.996	103.179	19.934	6.047	0.508
818.000	483.200	79.998	19.996	103.187	19.933	6.071	0.504
820.000	484.205	79.999	19.996	103.188	19.935	5.951	0.490
822.000	485.235	79.999	19.997	103.175	19.936	5.881	0.493
824.000	486.290	79.999	19.995	103.177	19.938	5.735	0.525
826.000	487.277	79.997	19.997	103.180	19.936	5.896	0.506
828.000	488.295	79.998	19.995	103.170	19.938	5.787	0.518
830.000	489.331	79.998	19.996	103.174	19.932	6.138	0.503
832.000	490.347	79.997	19.995	103.180	19.936	5.862	0.529
834.000	491.342	79.999	19.996	103.173	19.931	6.209	0.523
836.000	492.395	79.996	19.996	103.171	19.934	6.031	0.499
838.000	493.387	79.998	19.995	103.187	19.936	5.909	0.504
840.000	494.433	79.999	19.996	103.171	19.937	5.845	0.498
842.000	495.470	80.000	19.995	103.189	19.939	5.711	0.501
844.000	496.462	79.999	19.996	103.181	19.937	5.798	0.485
846.000	497.517	80.002	19.996	103.167	19.940	5.633	0.548
848.000	498.521	80.000	19.995	103.169	19.937	5.804	0.523
850.000	499.509	80.000	19.997	103.170	19.940	5.631	0.503
852.000	500.540	79.999	19.995	103.176	19.938	5.754	0.491
854.000	501.576	80.000	19.996	103.177	19.939	5.663	0.532
856.000	502.598	79.998	19.994	103.174	19.937	5.824	0.511
858.000	503.632	80.000	19.995	103.157	19.941	5.525	0.505
860.000	504.667	80.001	19.995	103.161	19.942	5.493	0.505
862.000	505.663	79.999	19.995	103.168	19.944	5.308	0.482
864.000	506.728	80.000	19.996	103.186	19.954	4.669	0.507
866.000	507.711	80.001	19.995	103.196	19.957	4.419	0.481
868.000	508.728	80.001	19.994	103.193	19.962	4.117	0.501
870.000	509.763	80.002	19.994	103.195	19.966	3.838	0.529
872.000	510.803	80.002	19.995	103.194	19.965	3.900	0.519
874.000	511.834	80.003	19.994	103.192	19.965	3.928	0.530
876.000	512.868	80.001	19.995	103.176	19.962	4.108	0.509
878.000	513.868	80.001	19.995	103.182	19.959	4.289	0.522
880.000	514.929	80.000	19.997	103.175	19.960	4.255	0.513
882.000	515.958	79.999	19.996	103.176	19.959	4.311	0.506
884.000	517.002	79.997	19.996	103.167	19.961	4.177	0.531
886.000	517.977	79.998	19.997	103.179	19.958	4.393	0.529
888.000	518.995	79.998	19.996	103.189	19.959	4.304	0.491
890.000	520.023	79.998	19.997	103.176	19.955	4.577	0.499
892.000	520.982	79.997	19.996	103.167	19.956	4.515	0.513
894.000	521.997	79.999	19.996	103.167	19.952	4.779	0.487
896.000	523.028	79.997	19.996	103.177	19.955	4.565	0.514
898.000	524.056	79.999	19.996	103.176	19.956	4.525	0.514
900.000	525.067	79.997	19.995	103.164	19.952	4.778	0.507
902.000	526.083	79.998	19.995	103.172	19.950	4.913	0.499
904.000	527.121	79.999	19.996	103.170	19.952	4.823	0.524
906.000	528.184	79.999	19.997	103.170	19.952	4.766	0.536
908.000	529.210	79.997	19.996	103.179	19.951	4.846	0.544
910.000	530.230	79.998	19.997	103.166	19.953	4.704	0.524
912.000	531.267	79.998	19.997	103.165	19.952	4.778	0.497
914.000	532.326	79.997	19.997	103.166	19.952	4.821	0.530
916.000	533.373	79.996	19.997	103.164	19.952	4.800	0.535
918.000	534.389	79.996	19.997	103.161	19.951	4.832	0.536
920.000	535.491	79.997	19.997	103.176	19.950	4.944	0.540
922.000	536.535	79.999	19.996	103.165	19.954	4.655	0.522
924.000	537.565	79.998	19.995	103.176	19.949	5.017	0.514
926.000	538.617	79.999	19.995	103.169	19.951	4.885	0.504
928.000	539.695	80.000	19.995	103.169	19.949	4.998	0.538
930.000	540.713	80.001	19.996	103.170	19.947	5.131	0.528
932.000	541.726	80.002	19.995	103.161	19.948	5.043	0.536
934.000	542.736	80.001	19.995	103.169	19.947	5.107	0.497
936.000	543.806	80.000	19.995	103.157	19.947	5.110	0.531
938.000	544.792	80.000	19.995	103.159	19.949	5.021	0.508
940.000	545.836	80.000	19.995	103.169	19.953	4.753	0.548
942.000	546.896	79.999	19.995	103.158	19.952	4.779	0.542
944.000	547.886	79.998	19.995	103.172	19.951	4.829	0.512
946.000	548.851	80.001	19.996	103.169	19.953	4.736	0.467
948.000	549.950	79.998	19.994	103.161	19.954	4.668	0.532
950.000	550.950	80.000	19.996	103.169	19.953	4.730	0.497
952.000	551.930	80.000	19.995	103.168	19.951	4.866	0.538
954.000	552.990	80.001	19.996	103.168	19.952	4.811	0.497
956.000	553.995	80.002	19.995	103.165	19.954	4.643	0.502
958.000	555.038	80.000	19.995	103.170	19.953	4.689	0.504
960.000	556.044	80.000	19.995	103.164	19.953	4.702	0.526
962.000	557.005	79.999	19.996	103.165	19.952	4.813	0.483
964.000	558.032	79.998	19.994	103.160	19.953	4.726	0.490
966.000	559.015	79.999	19.996	103.165	19.952	4.807	0.488
968.000	559.964	79.998	19.996	103.160	19.950	4.949	0.489
970.000	560.987	79.999	19.995	103.169	19.953	4.749	0.486
972.000	561.968	79.999	19.996	103.161	19.952	4.815	0.492
974.000	562.947	79.998	19.996	103.159	19.951	4.826	0.470
976.000	563.945	79.999	19.996	103.155	19.951	4.847	0.505
978.000	564.870	79.998	19.996	103.160	19.951	4.855	0.485
980.000	565.842	79.999	19.996	103.159	19.951	4.856	0.477
982.000	566.812	79.999	19.997	103.165	19.950	4.894	0.472
984.000	567.806	80.000	19.996	103.165	19.950	4.917	0.504
986.000	568.786	80.000	19.997	103.157	19.951	4.836	0.480
988.000	569.790	79.998	19.996	103.173	19.953	4.694	0.501
990.000	570.781	79.998	19.996	103.160	19.950	4.943	0.465
992.000	571.794	79.999	19.996	103.155	19.950	4.920	0.519
994.000	572.777	79.998	19.996	103.156	19.950	4.917	0.513
996.000	573.775	79.998	19.996	103.158	19.950	4.926	0.506
998.000	574.821	79.998	19.996	103.161	19.951	4.839	0.528
1000.000	575.801	79.998	19.996	103.157	19.951	4.892	0.475
1002.000	576.810	79.998	19.996	103.165	19.953	4.734	0.491
1004.000	577.791	79.998	19.996	103.173	19.954	4.651	0.488
1006.000	578.769	80.000	19.997	103.159	19.950	4.957	0.520
1008.000	579.788	79.998	19.998	103.154	19.948	5.095	0.516
1010.000	580.774	79.997	19.998	103.156	19.952	4.774	0.482
1012.000	581.779	79.999	19.997	103.157	19.949	4.994	0.514
1014.000	582.780	79.999	19.996	103.157	19.946	5.210	0.511
1016.000	583.779	79.998	19.995	103.165	19.950	4.943	0.518
1018.000	584.797	79.999	19.995	103.159	19.947	5.145	0.504
1020.000	585.786	79.998	19.994	103.162	19.946	5.184	0.493
1022.000	586.778	79.999	19.995	103.159	19.947	5.105	0.509
1024.000	587.830	79.999	19.994	103.163	19.947	5.168	0.488
1025.999	588.844	79.999	19.995	103.163	19.946	5.189	0.541
1027.999	589.839	79.999	19.996	103.160	19.947	5.168	0.502
1029.999	590.837	79.999	19.995	103.162	19.945	5.270	0.511
1031.999	591.857	80.001	19.996	103.174	19.946	5.212	0.489
1033.999	592.844	80.001	19.995	103.167	19.944	5.321	0.486
1035.999	593.883	80.000	19.994	103.164	19.946	5.195	0.507
1037.999	594.946	80.003	19.996	103.171	19.944	5.336	0.533
1039.999	595.958	80.002	19.995	103.158	19.944	5.327	0.497
1041.999	596.925	79.999	19.996	103.169	19.946	5.208	0.492
1043.999	597.945	80.000	19.995	103.161	19.947	5.146	0.518
1045.999	598.947	79.998	19.995	103.172	19.944	5.338	0.520
1047.999	599.975	80.000	19.997	103.163	19.948	5.093	0.496
1050.000	600.996	80.000	19.996	103.160	19.945	5.303	0.516
1051.999	602.016	79.998	19.995	103.160	19.943	5.429	0.511
1053.999	603.033	80.000	19.995	103.160	19.947	5.112	0.527
1055.999	604.033	80.000	19.995	103.166	19.951	4.883	0.498
1058.000	605.062	80.000	19.996	103.163	19.949	4.970	0.525
1059.999	606.050	80.000	19.994	103.176	19.947	5.113	0.498
1061.999	607.085	80.001	19.996	103.164	19.949	5.028	0.476
1063.999	608.134	79.999	19.996	103.163	19.948	5.047	0.525
1065.999	609.152	79.999	19.996	103.159	19.944	5.342	0.536
1068.000	610.193	80.000	19.996	103.165	19.948	5.045	0.509
1069.999	611.275	80.000	19.998	103.158	19.942	5.453	0.521
1071.999	612.228	79.999	19.998	103.157	19.943	5.434	0.488
1073.999	613.283	79.999	19.996	103.158	19.943	5.427	0.500
1075.999	614.320	79.999	19.997	103.159	19.941	5.529	0.512
1077.999	615.337	79.999	19.996	103.160	19.948	5.098	0.514
1079.999	616.376	79.998	19.997	103.159	19.947	5.151	0.505
1081.999	617.365	79.999	19.996	103.160	19.945	5.272	0.498
1083.999	618.362	79.999	19.996	103.160	19.943	5.397	0.494
1086.000	619.351	79.999	19.996	103.164	19.945	5.289	0.505
1087.999	620.372	79.999	19.995	103.166	19.945	5.278	0.493
1090.000	621.368	80.000	19.995	103.149	19.943	5.410	0.519
1092.000	622.395	80.000	19.996	103.155	19.945	5.274	0.505
1094.001	623.391	80.000	19.997	103.161	19.947	5.140	0.516
1096.000	624.399	80.000	19.996	103.164	19.949	4.973	0.491
1098.000	625.376	80.001	19.997	103.162	19.950	4.960	0.480
1100.001	626.415	79.999	19.996	103.157	19.948	5.045	0.506
1101.999	627.409	80.000	19.998	103.160	19.948	5.079	0.548
1103.999	628.387	79.999	19.998	103.163	19.945	5.240	0.494
1105.999	629.413	79.999	19.997	103.156	19.947	5.166	0.508
1107.999	630.441	80.000	19.995	103.156	19.945	5.283	0.511
1109.999	631.442	79.999	19.997	103.154	19.948	5.068	0.514
1111.999	632.437	80.001	19.996	103.155	19.945	5.296	0.489
1113.999	633.461	80.002	19.995	103.157	19.945	5.304	0.538
1115.999	634.487	80.001	19.996	103.154	19.943	5.379	0.512
1118.000	635.458	80.002	19.994	103.159	19.945	5.242	0.506
1120.000	636.472	80.002	19.995	103.156	19.941	5.529	0.521
1121.999	637.470	80.001	19.995	103.155	19.940	5.619	0.529
1124.000	638.470	80.000	19.995	103.154	19.944	5.357	0.491
1125.999	639.491	79.999	19.995	103.156	19.945	5.302	0.510
1127.999	640.517	79.999	19.995	103.155	19.940	5.631	0.515
1129.999	641.554	80.000	19.995	103.156	19.939	5.718	0.501
1131.999	642.522	79.999	19.995	103.156	19.944	5.359	0.493
1134.000	643.541	79.999	19.996	103.156	19.942	5.502	0.484
1135.999	644.554	79.999	19.997	103.155	19.939	5.716	0.484
1137.999	645.617	80.000	19.995	103.161	19.938	5.719	0.525
1139.999	646.568	79.999	19.995	103.157	19.936	5.906	0.486
1141.999	647.606	79.998	19.995	103.159	19.942	5.485	0.514
1143.999	648.627	79.999	19.995	103.161	19.939	5.699	0.508
1146.000	649.652	79.999	19.994	103.159	19.943	5.394	0.521
1147.999	650.667	80.000	19.995	103.158	19.939	5.695	0.516
1149.999	651.695	79.999	19.995	103.157	19.938	5.759	0.512
1151.999	652.666	79.998	19.995	103.157	19.942	5.451	0.497
1153.999	653.690	79.999	19.996	103.155	19.939	5.695	0.497
1155.999	654.730	79.999	19.995	103.152	19.944	5.326	0.540
1157.999	655.691	79.997	19.995	103.147	19.944	5.350	0.447
1159.999	656.681	79.998	19.995	103.158	19.941	5.523	0.493
1161.999	657.680	79.997	19.996	103.156	19.943	5.428	0.470
1163.999	658.642	79.997	19.996	103.160	19.940	5.627	0.460
1165.999	659.624	79.998	19.996	103.154	19.939	5.683	0.480
1167.999	660.627	79.998	19.996	103.142	19.938	5.731	0.510
1169.999	661.596	79.999	19.996	103.147	19.941	5.578	0.498
1171.999	662.526	80.000	19.997	103.148	19.941	5.579	0.482
1174.000	663.534	80.000	19.996	103.153	19.940	5.589	0.484
1175.999	664.510	80.000	19.996	103.155	19.938	5.757	0.521
1178.000	665.516	80.001	19.995	103.154	19.938	5.779	0.494
1179.999	666.562	79.999	19.996	103.156	19.940	5.649	0.525
1181.999	667.603	80.000	19.996	103.155	19.942	5.508	0.513
1183.999	668.645	79.999	19.995	103.153	19.938	5.738	0.507
1185.999	669.713	80.000	19.996	103.156	19.940	5.617	0.535
1187.999	670.809	79.998	19.997	103.154	19.938	5.749	0.534
1190.000	671.859	79.998	19.996	103.151	19.941	5.576	0.507
1192.000	672.927	79.999	19.996	103.155	19.937	5.817	0.524
1193.999	674.072	79.998	19.996	103.153	19.941	5.521	0.523
1195.999	675.157	80.000	19.996	103.150	19.939	5.693	0.570
1197.999	676.260	80.001	19.996	103.151	19.940	5.646	0.557
1199.999	677.319	80.000	19.996	103.153	19.937	5.836	0.515
1201.999	678.386	80.000	19.994	103.148	19.939	5.663	0.532
1203.999	679.516	80.000	19.995	103.156	19.939	5.704	0.537
1206.000	680.582	79.999	19.995	103.158	19.943	5.385	0.535
1208.000	681.705	80.000	19.996	103.160	19.940	5.600	0.562
1209.999	682.815	79.998	19.995	103.159	19.942	5.457	0.564
1212.000	683.942	79.999	19.995	103.154	19.939	5.665	0.606
1213.999	684.981	79.998	19.994	103.155	19.939	5.689	0.533
1216.000	686.077	79.999	19.995	103.152	19.939	5.707	0.531
1217.999	687.168	79.998	19.994	103.157	19.942	5.498	0.557
1219.999	688.268	79.999	19.997	103.155	19.940	5.647	0.544
1222.001	689.283	79.998	19.995	103.156	19.937	5.794	0.510
1224.000	690.428	79.998	19.996	103.158	19.937	5.813	0.558
1225.999	691.442	79.998	19.994	103.143	19.941	5.556	0.536
1227.999	692.508	79.999	19.995	103.155	19.938	5.775	0.534
1229.999	693.552	79.998	19.996	103.148	19.938	5.743	0.521
1231.999	694.625	79.999	19.997	103.148	19.940	5.621	0.533
1233.999	695.684	79.998	19.996	103.139	19.940	5.644	0.542
1235.999	696.693	79.999	19.995	103.150	19.941	5.526	0.499
1238.000	697.716	80.000	19.995	103.135	19.939	5.713	0.508
1239.999	698.731	79.998	19.996	103.136	19.941	5.576	0.504
1241.999	699.707	79.998	19.995	103.135	19.939	5.670	0.496
1243.999	700.746	79.997	19.995	103.155	19.943	5.439	0.506
1245.999	701.734	79.998	19.996	103.154	19.940	5.649	0.529
1247.999	702.735	79.999	19.996	103.149	19.943	5.387	0.512
1249.999	703.741	79.999	19.997	103.150	19.937	5.794	0.533
1251.999	704.728	80.000	19.994	103.153	19.939	5.702	0.504
1253.999	705.728	79.999	19.996	103.152	19.937	5.804	0.485
1256.000	706.707	79.998	19.997	103.149	19.936	5.869	0.499
1258.000	707.742	79.999	19.996	103.154	19.937	5.817	0.521
1259.999	708.681	79.997	19.996	103.151	19.936	5.907	0.474
1261.999	709.762	79.999	19.996	103.141	19.939	5.662	0.507
1263.999	710.735	79.998	19.995	103.149	19.938	5.770	0.514
1265.999	711.728	79.999	19.995	103.141	19.936	5.894	0.484
1267.999	712.699	79.999	19.997	103.143	19.942	5.448	0.490
1269.999	713.686	80.000	19.996	103.140	19.939	5.714	0.495
1271.999	714.637	79.999	19.997	103.136	19.942	5.453	0.478
1273.999	715.648	79.999	19.995	103.150	19.936	5.864	0.492
1275.999	716.611	80.001	19.996	103.155	19.936	5.917	0.507
1278.000	717.596	79.999	19.995	103.140	19.939	5.666	0.486
1280.001	718.584	80.001	19.996	103.142	19.934	6.034	0.459
1281.999	719.568	80.001	19.997	103.156	19.936	5.879	0.507
1283.999	720.526	80.001	19.997	103.145	19.935	5.976	0.473
1285.999	721.570	80.000	19.998	103.151	19.934	6.042	0.490
1287.999	722.589	79.999	19.996	103.146	19.938	5.774	0.507
1289.999	723.608	79.998	19.996	103.156	19.934	6.053	0.526
1291.999	724.624	79.998	19.998	103.153	19.935	5.938	0.504
1293.999	725.644	79.998	19.996	103.152	19.933	6.102	0.491
1295.999	726.726	79.998	19.996	103.155	19.936	5.923	0.538
1297.999	727.741	79.998	19.995	103.152	19.935	5.932	0.497
1300.000	728.830	80.000	19.997	103.154	19.928	6.468	0.521
1301.999	729.884	80.000	19.996	103.154	19.932	6.172	0.551
1304.000	730.943	79.998	19.995	103.151	19.932	6.179	0.540
1305.999	732.029	80.000	19.996	103.152	19.931	6.204	0.545
1307.999	733.130	79.999	19.996	103.155	19.931	6.204	0.536
1309.999	734.185	80.000	19.997	103.149	19.932	6.161	0.524
1311.999	735.251	80.000	19.996	103.147	19.935	5.993	0.525
1314.001	736.347	79.999	19.995	103.134	19.935	5.932	0.561
1315.999	737.382	79.998	19.995	103.147	19.932	6.142	0.528
1317.999	738.476	79.999	19.995	103.147	19.934	6.044	0.540
1319.999	739.563	79.998	19.996	103.151	19.935	5.972	0.530
1321.999	740.634	79.998	19.996	103.147	19.933	6.070	0.550
1324.000	741.733	79.999	19.997	103.150	19.935	5.957	0.544
1325.999	742.885	79.999	19.997	103.151	19.932	6.187	0.573
1326.499	743.155	79.999	19.996	103.152	19.930	6.291	0.571