File: 01_Data/Engineered_Flooring/MCC/Engineered_Flooring_30K_min_211026_R3.txt
Sample ID:	C:\MCC\MCC Cal\Test\Engineered_Flooring_30K_min_211026_R3.txt
Sample Weight (mg):	5
Heating Rate (C/s):	0.5
Combustor Temp (C):	900
N2 Flow Rate (cc/min):	80
O2 Flow Rate (cc/min):	20
Calibration File:	C:\MCC\MCC Cal\Coeff1 JN10440_30_210304.txt.txt
T Correction Coefficients:	0	1.024463	0
Time Shift (s):	14
*
Time (s)	Temperature (C)	N2 flow rate (cc/min)	O2 flow rate (cc/min)	Flow Rate (cc/min)	Oxygen (%)	HRR (W/g)	Heating rate (C/s)
0.000	107.561	79.994	19.999	102.943	20.175	0.155	0.003
2.000	107.564	79.997	19.998	102.967	20.177	0.022	-0.016
4.000	107.575	79.993	19.997	102.947	20.176	0.070	0.009
6.000	107.536	80.010	19.995	102.947	20.176	0.087	-0.035
8.000	107.513	79.987	19.996	102.952	20.173	0.267	-0.040
10.001	107.559	80.006	19.995	102.977	20.168	0.573	0.027
12.000	107.590	80.006	19.995	103.009	20.174	0.222	0.031
14.000	107.562	79.995	19.996	103.006	20.173	0.260	-0.028
16.000	107.632	79.990	19.997	103.011	20.172	0.329	0.024
18.000	107.675	80.012	19.995	103.025	20.172	0.311	0.059
20.000	107.693	80.007	19.996	103.039	20.166	0.705	0.007
22.000	107.774	79.998	19.996	103.073	20.164	0.873	-0.001
24.000	107.901	79.990	19.995	103.093	20.154	1.494	0.039
26.000	108.003	79.991	19.997	103.105	20.157	1.309	0.050
28.000	108.205	79.993	19.998	103.091	20.156	1.397	0.080
30.000	108.309	79.999	19.998	103.079	20.154	1.497	0.056
32.000	108.510	79.981	19.998	103.073	20.159	1.157	0.094
34.000	108.753	79.997	19.996	103.099	20.158	1.213	0.094
36.000	108.956	79.997	19.997	103.071	20.160	1.107	0.103
38.000	109.122	79.988	19.997	103.042	20.156	1.362	0.063
40.000	109.363	80.004	19.997	103.070	20.153	1.578	0.114
42.000	109.630	79.997	19.997	103.103	20.153	1.540	0.119
44.000	109.878	79.985	19.997	103.092	20.152	1.607	0.123
46.001	110.180	79.997	19.996	103.108	20.151	1.703	0.132
48.001	110.461	79.989	19.996	103.138	20.144	2.114	0.128
50.000	110.787	79.995	19.998	103.144	20.148	1.890	0.150
52.000	111.143	79.996	19.998	103.158	20.143	2.225	0.193
54.000	111.511	79.992	19.999	103.142	20.141	2.328	0.191
56.000	111.937	79.997	19.996	103.167	20.142	2.266	0.231
58.000	112.322	79.999	19.997	103.172	20.141	2.344	0.228
60.000	112.766	79.997	19.998	103.192	20.138	2.547	0.238
62.000	113.225	79.995	19.996	103.196	20.141	2.308	0.248
64.000	113.717	79.998	19.998	103.198	20.138	2.512	0.270
66.000	114.211	79.998	19.997	103.197	20.136	2.681	0.247
68.000	114.777	79.996	19.996	103.196	20.135	2.713	0.255
70.000	115.325	79.995	19.997	103.189	20.135	2.693	0.273
72.000	115.876	79.996	19.996	103.188	20.139	2.452	0.261
74.000	116.439	79.994	19.996	103.180	20.136	2.686	0.291
76.000	117.042	79.997	19.996	103.196	20.137	2.588	0.288
78.001	117.672	79.994	19.996	103.196	20.138	2.506	0.270
80.000	118.327	79.994	19.997	103.185	20.136	2.629	0.312
82.000	118.978	79.995	19.998	103.183	20.136	2.667	0.321
84.000	119.613	79.994	19.996	103.183	20.137	2.614	0.315
86.000	120.291	79.996	19.996	103.180	20.137	2.621	0.347
88.000	120.976	79.997	19.997	103.177	20.134	2.775	0.337
90.000	121.668	79.995	19.996	103.174	20.137	2.582	0.364
92.000	122.342	79.996	19.996	103.166	20.138	2.552	0.343
94.000	123.120	79.995	19.996	103.187	20.138	2.505	0.387
96.000	123.789	79.994	19.997	103.214	20.137	2.586	0.348
98.000	124.557	79.995	19.997	103.219	20.134	2.813	0.374
100.000	125.296	79.994	19.996	103.228	20.135	2.701	0.373
102.000	126.068	79.995	19.996	103.205	20.133	2.860	0.394
104.000	126.837	79.995	19.996	103.160	20.135	2.708	0.381
106.000	127.643	79.993	19.997	103.213	20.136	2.668	0.408
108.000	128.418	79.995	19.996	103.276	20.137	2.581	0.374
110.000	129.199	79.996	19.996	103.237	20.134	2.784	0.343
112.000	130.032	79.996	19.997	103.202	20.135	2.725	0.401
114.000	130.852	80.000	19.996	103.216	20.134	2.819	0.417
116.000	131.665	79.996	19.997	103.215	20.133	2.858	0.406
118.000	132.445	79.996	19.997	103.190	20.132	2.930	0.406
120.001	133.323	79.997	19.997	103.182	20.132	2.929	0.398
122.000	134.155	79.996	19.997	103.218	20.131	3.002	0.458
124.000	134.985	79.996	19.997	103.209	20.135	2.736	0.375
126.000	135.828	79.999	19.997	103.208	20.134	2.811	0.430
128.000	136.720	79.994	19.996	103.203	20.134	2.779	0.423
130.000	137.630	79.996	19.998	103.187	20.132	2.929	0.450
132.000	138.480	79.995	19.997	103.205	20.131	2.949	0.429
134.000	139.390	79.998	19.997	103.228	20.132	2.937	0.450
136.000	140.278	79.995	19.996	103.246	20.130	3.043	0.442
138.000	141.196	79.995	19.997	103.236	20.131	3.012	0.450
140.000	142.104	79.997	19.997	103.217	20.132	2.937	0.435
142.000	143.015	79.996	19.997	103.194	20.130	3.025	0.447
144.000	143.920	79.995	19.997	103.212	20.131	2.966	0.471
146.000	144.847	79.998	19.996	103.227	20.129	3.124	0.434
148.000	145.788	79.999	19.997	103.217	20.134	2.806	0.461
150.000	146.704	79.999	19.997	103.217	20.133	2.882	0.443
152.000	147.671	79.991	19.998	103.226	20.129	3.106	0.471
154.000	148.619	79.995	19.997	103.183	20.128	3.153	0.477
156.000	149.602	79.993	19.998	103.187	20.124	3.425	0.508
158.000	150.523	79.995	19.996	103.188	20.128	3.171	0.503
160.000	151.484	79.994	19.997	103.208	20.126	3.274	0.483
162.000	152.454	79.993	19.996	103.195	20.129	3.104	0.477
164.000	153.421	79.992	19.996	103.215	20.127	3.206	0.482
166.000	154.340	79.993	19.996	103.210	20.126	3.284	0.472
168.000	155.286	79.996	19.996	103.212	20.127	3.265	0.473
170.000	156.277	79.995	19.996	103.186	20.124	3.451	0.485
172.000	157.211	79.996	19.995	103.191	20.121	3.638	0.492
174.000	158.246	79.994	19.997	103.183	20.124	3.420	0.545
176.000	159.176	79.997	19.997	103.212	20.121	3.631	0.504
178.000	160.116	79.996	19.996	103.211	20.118	3.820	0.484
180.000	161.119	79.994	19.997	103.195	20.119	3.771	0.487
182.000	162.108	79.995	19.997	103.180	20.116	3.948	0.480
184.000	163.044	79.991	19.998	103.207	20.120	3.703	0.489
186.000	164.057	79.994	19.997	103.248	20.121	3.626	0.500
188.000	165.055	79.997	19.998	103.249	20.118	3.848	0.490
190.000	166.009	79.999	19.996	103.211	20.116	3.928	0.432
192.000	166.996	79.996	19.996	103.208	20.116	3.938	0.450
194.000	167.988	79.996	19.997	103.227	20.112	4.204	0.492
196.000	168.961	79.997	19.996	103.233	20.115	4.015	0.484
198.000	169.978	79.998	19.995	103.208	20.111	4.238	0.521
200.000	170.948	79.997	19.996	103.195	20.111	4.271	0.475
202.000	171.949	79.997	19.996	103.196	20.109	4.405	0.475
204.000	172.922	79.997	19.997	103.195	20.107	4.554	0.483
206.000	173.882	79.995	19.996	103.189	20.106	4.562	0.488
208.000	174.913	79.994	19.996	103.213	20.107	4.521	0.513
210.000	175.873	79.995	19.997	103.192	20.103	4.764	0.508
212.000	176.854	79.993	19.997	103.179	20.101	4.887	0.493
214.000	177.860	79.997	19.996	103.194	20.097	5.161	0.489
216.000	178.858	79.991	19.996	103.219	20.101	4.889	0.506
218.000	179.845	79.991	19.996	103.207	20.098	5.125	0.470
220.000	180.842	79.998	19.996	103.182	20.094	5.361	0.501
222.000	181.857	80.006	19.995	103.202	20.094	5.333	0.513
224.000	182.860	79.995	19.996	103.193	20.093	5.446	0.506
226.000	183.824	79.994	19.996	103.221	20.091	5.574	0.460
228.000	184.836	79.997	19.996	103.238	20.088	5.728	0.515
230.000	185.827	79.994	19.996	103.201	20.089	5.696	0.521
232.000	186.839	79.995	19.996	103.182	20.085	5.927	0.495
234.000	187.857	79.994	19.997	103.183	20.084	6.005	0.503
236.000	188.834	79.995	19.997	103.190	20.079	6.352	0.483
238.000	189.835	79.996	19.997	103.181	20.080	6.257	0.502
240.000	190.766	79.995	19.997	103.186	20.077	6.455	0.506
242.000	191.765	79.995	19.997	103.214	20.076	6.519	0.476
244.000	192.799	79.994	19.997	103.210	20.075	6.608	0.519
246.000	193.748	79.995	19.997	103.214	20.070	6.902	0.489
248.000	194.739	79.996	19.997	103.201	20.069	6.984	0.517
250.000	195.696	79.997	19.995	103.188	20.068	7.040	0.501
252.000	196.709	79.995	19.996	103.201	20.065	7.209	0.511
254.000	197.629	79.995	19.996	103.177	20.059	7.591	0.454
256.000	198.667	79.994	19.995	103.197	20.060	7.580	0.518
258.000	199.669	79.993	19.996	103.211	20.061	7.520	0.483
260.000	200.605	79.995	19.998	103.211	20.058	7.660	0.468
262.000	201.625	79.995	19.997	103.197	20.060	7.584	0.525
264.000	202.615	79.996	19.996	103.202	20.056	7.839	0.510
266.000	203.622	79.993	19.996	103.185	20.055	7.865	0.463
268.000	204.579	79.995	19.996	103.209	20.053	8.013	0.490
270.000	205.572	79.995	19.996	103.218	20.052	8.060	0.495
272.000	206.591	79.996	19.995	103.216	20.053	8.027	0.504
274.000	207.635	79.994	19.996	103.219	20.052	8.090	0.513
276.000	208.641	79.998	19.996	103.209	20.049	8.256	0.536
278.000	209.656	79.997	19.995	103.200	20.048	8.328	0.533
280.000	210.684	79.996	19.995	103.189	20.046	8.478	0.496
282.000	211.647	79.997	19.996	103.193	20.047	8.396	0.488
284.000	212.611	79.996	19.995	103.180	20.045	8.548	0.471
286.000	213.627	79.995	19.995	103.182	20.041	8.779	0.477
288.000	214.675	79.994	19.996	103.181	20.047	8.420	0.519
290.000	215.599	79.995	19.996	103.193	20.042	8.712	0.486
292.000	216.588	79.995	19.996	103.200	20.042	8.686	0.483
294.000	217.573	79.996	19.996	103.182	20.041	8.749	0.503
296.000	218.602	79.997	19.996	103.183	20.041	8.793	0.513
298.000	219.553	79.997	19.996	103.186	20.045	8.514	0.493
300.000	220.574	79.999	19.996	103.210	20.040	8.808	0.486
302.000	221.549	79.998	19.996	103.183	20.042	8.735	0.514
304.000	222.564	79.999	19.996	103.183	20.039	8.875	0.506
306.000	223.516	79.997	19.996	103.193	20.043	8.632	0.468
308.000	224.563	79.998	19.996	103.197	20.042	8.716	0.523
310.000	225.547	79.995	19.998	103.192	20.045	8.524	0.503
312.000	226.529	79.995	19.996	103.177	20.041	8.772	0.490
314.000	227.498	79.994	19.997	103.178	20.041	8.748	0.482
316.000	228.509	79.996	19.997	103.173	20.042	8.701	0.515
318.000	229.535	79.994	19.996	103.177	20.038	8.996	0.508
320.000	230.535	79.996	19.996	103.177	20.041	8.781	0.487
322.000	231.526	79.994	19.997	103.183	20.044	8.613	0.496
324.000	232.537	79.995	19.997	103.179	20.039	8.927	0.504
326.000	233.514	79.997	19.997	103.178	20.041	8.756	0.487
328.000	234.528	79.993	19.997	103.176	20.039	8.930	0.492
330.000	235.493	79.997	19.997	103.184	20.040	8.847	0.508
332.000	236.510	79.991	19.998	103.180	20.040	8.868	0.489
334.000	237.455	79.994	19.997	103.176	20.040	8.837	0.462
336.000	238.448	79.994	19.997	103.178	20.040	8.842	0.503
338.000	239.405	79.993	19.998	103.165	20.044	8.606	0.472
340.000	240.400	79.995	19.997	103.183	20.043	8.622	0.486
342.000	241.344	79.995	19.996	103.207	20.041	8.757	0.471
344.000	242.347	79.993	19.997	103.191	20.038	8.951	0.491
346.000	243.412	79.994	19.996	103.175	20.040	8.813	0.540
348.000	244.374	79.995	19.996	103.182	20.042	8.728	0.517
350.000	245.344	79.995	19.996	103.186	20.039	8.908	0.501
352.000	246.385	79.999	19.995	103.182	20.038	8.983	0.513
354.000	247.354	79.994	19.996	103.177	20.034	9.232	0.524
356.000	248.343	79.997	19.996	103.180	20.036	9.098	0.511
358.000	249.336	79.998	19.997	103.177	20.036	9.083	0.508
360.000	250.365	79.996	19.996	103.182	20.034	9.216	0.531
362.000	251.367	79.995	19.997	103.184	20.034	9.198	0.526
364.000	252.357	79.997	19.997	103.116	20.035	9.139	0.505
366.000	253.305	79.996	19.996	103.239	20.031	9.413	0.463
368.000	254.333	79.994	19.997	103.204	20.030	9.463	0.516
370.000	255.291	79.996	19.996	103.202	20.029	9.578	0.496
372.000	256.344	79.996	19.996	103.216	20.027	9.679	0.511
374.000	257.303	79.997	19.995	103.208	20.023	9.930	0.456
376.000	258.319	79.997	19.996	103.193	20.019	10.181	0.482
378.000	259.349	79.996	19.996	103.189	20.016	10.391	0.559
380.000	260.321	79.995	19.996	103.206	20.014	10.498	0.518
382.000	261.302	79.996	19.996	103.209	20.012	10.640	0.501
384.000	262.328	79.999	19.996	103.209	20.006	11.057	0.490
386.000	263.288	79.997	19.997	103.216	19.999	11.498	0.476
388.000	264.263	79.997	19.996	103.215	19.995	11.711	0.491
390.000	265.288	79.993	19.998	103.212	19.993	11.874	0.512
392.000	266.310	79.994	19.996	103.200	19.984	12.440	0.516
394.000	267.302	79.994	19.997	103.201	19.980	12.699	0.514
396.000	268.303	79.996	19.997	103.209	19.979	12.774	0.485
398.000	269.323	79.995	19.997	103.218	19.971	13.302	0.486
400.000	270.357	79.994	19.996	103.216	19.963	13.795	0.513
402.000	271.372	79.995	19.997	103.220	19.957	14.167	0.523
404.000	272.445	79.996	19.996	103.238	19.948	14.761	0.548
406.000	273.394	79.994	19.996	103.218	19.942	15.143	0.501
408.000	274.445	79.994	19.995	103.222	19.935	15.614	0.519
410.000	275.439	79.995	19.996	103.227	19.935	15.640	0.517
412.000	276.428	79.993	19.996	103.222	19.923	16.387	0.485
414.000	277.441	79.994	19.997	103.221	19.919	16.636	0.511
416.000	278.453	79.994	19.997	103.227	19.911	17.132	0.509
418.000	279.445	79.994	19.998	103.240	19.906	17.488	0.477
420.000	280.450	79.994	19.998	103.248	19.899	17.906	0.513
422.000	281.511	79.995	19.997	103.253	19.890	18.535	0.488
424.000	282.507	79.994	19.998	103.252	19.882	19.007	0.548
426.000	283.491	79.993	19.998	103.262	19.878	19.300	0.484
428.000	284.497	79.995	19.996	103.261	19.870	19.805	0.520
430.000	285.524	79.997	19.995	103.255	19.864	20.156	0.512
432.000	286.524	79.996	19.996	103.257	19.858	20.596	0.505
434.000	287.565	79.997	19.997	103.257	19.849	21.164	0.515
436.000	288.537	79.997	19.995	103.256	19.846	21.357	0.510
438.000	289.529	79.996	19.996	103.253	19.841	21.686	0.501
440.000	290.576	79.996	19.996	103.254	19.832	22.219	0.539
442.000	291.556	79.996	19.996	103.259	19.832	22.260	0.528
444.000	292.544	79.997	19.996	103.255	19.829	22.431	0.512
446.000	293.560	79.996	19.996	103.257	19.824	22.737	0.511
448.000	294.537	79.995	19.997	103.257	19.820	22.992	0.504
450.000	295.557	79.996	19.996	103.250	19.812	23.568	0.488
452.000	296.539	79.996	19.996	103.229	19.808	23.804	0.471
454.000	297.551	79.996	19.996	103.213	19.801	24.227	0.495
456.000	298.573	79.997	19.996	103.215	19.794	24.677	0.478
458.000	299.566	79.998	19.996	103.229	19.789	25.048	0.488
460.000	300.585	79.997	19.996	103.275	19.786	25.191	0.515
462.000	301.596	79.996	19.995	103.279	19.779	25.644	0.522
464.000	302.580	79.998	19.994	103.259	19.778	25.728	0.499
466.000	303.590	79.996	19.996	103.276	19.772	26.139	0.505
468.000	304.549	79.998	19.995	103.282	19.768	26.359	0.488
470.000	305.544	79.995	19.995	103.283	19.763	26.663	0.494
472.000	306.544	79.994	19.996	103.265	19.757	27.072	0.490
474.000	307.524	79.995	19.996	103.266	19.753	27.335	0.473
476.000	308.515	79.992	19.997	103.267	19.751	27.503	0.484
478.000	309.508	79.994	19.996	103.252	19.747	27.747	0.490
480.000	310.524	79.994	19.996	103.258	19.738	28.314	0.507
482.000	311.498	79.993	19.996	103.277	19.740	28.181	0.514
484.000	312.562	79.994	19.998	103.295	19.731	28.777	0.541
486.000	313.537	79.996	19.997	103.281	19.729	28.887	0.493
488.000	314.600	79.996	19.997	103.279	19.722	29.341	0.547
490.000	315.569	79.995	19.996	103.254	19.720	29.458	0.490
492.000	316.570	79.994	19.996	103.241	19.712	29.978	0.494
494.000	317.545	79.997	19.996	103.254	19.705	30.451	0.492
496.000	318.534	79.996	19.998	103.263	19.698	30.863	0.489
498.000	319.531	79.996	19.997	103.300	19.696	30.990	0.511
500.000	320.533	79.995	19.997	103.268	19.691	31.309	0.504
502.000	321.550	79.994	19.997	103.293	19.686	31.647	0.519
504.000	322.543	79.994	19.998	103.277	19.679	32.138	0.490
506.000	323.512	79.993	19.997	103.261	19.669	32.744	0.477
508.000	324.473	79.994	19.998	103.276	19.665	32.992	0.486
510.000	325.497	79.995	19.998	103.249	19.655	33.660	0.507
512.000	326.512	79.996	19.997	103.249	19.646	34.235	0.516
514.000	327.451	79.995	19.998	103.276	19.639	34.686	0.477
516.000	328.463	79.997	19.997	103.278	19.638	34.789	0.504
518.000	329.514	79.997	19.998	103.289	19.629	35.312	0.525
520.000	330.469	79.996	19.996	103.308	19.625	35.582	0.476
522.000	331.506	79.996	19.997	103.266	19.617	36.113	0.492
524.000	332.518	79.996	19.996	103.305	19.610	36.582	0.528
526.000	333.552	79.995	19.996	103.309	19.602	37.120	0.520
528.000	334.586	79.997	19.996	103.299	19.592	37.757	0.522
530.000	335.591	79.997	19.996	103.301	19.581	38.452	0.505
532.000	336.632	79.997	19.995	103.308	19.574	38.912	0.509
534.000	337.634	79.995	19.996	103.301	19.562	39.635	0.526
536.000	338.680	79.994	19.996	103.310	19.554	40.205	0.503
538.000	339.701	79.999	19.996	103.325	19.547	40.672	0.502
540.000	340.709	79.996	19.996	103.351	19.531	41.652	0.514
542.000	341.726	79.997	19.996	103.334	19.521	42.323	0.526
544.000	342.742	79.997	19.995	103.300	19.510	43.037	0.535
546.000	343.718	79.996	19.995	103.326	19.499	43.751	0.517
548.000	344.753	79.995	19.995	103.332	19.490	44.338	0.493
550.000	345.746	79.996	19.996	103.349	19.479	45.035	0.511
552.000	346.778	79.996	19.996	103.344	19.465	45.936	0.494
554.000	347.771	79.995	19.996	103.330	19.456	46.484	0.509
556.000	348.809	79.995	19.995	103.364	19.445	47.211	0.507
558.000	349.811	79.993	19.997	103.368	19.434	47.948	0.509
560.000	350.796	79.994	19.996	103.376	19.421	48.777	0.493
562.000	351.852	79.995	19.997	103.375	19.411	49.455	0.515
564.000	352.902	79.995	19.996	103.338	19.397	50.307	0.539
566.000	353.855	79.996	19.996	103.354	19.387	50.958	0.465
568.000	354.880	79.994	19.997	103.368	19.376	51.699	0.494
570.000	355.886	79.995	19.997	103.369	19.370	52.037	0.503
572.000	356.891	79.995	19.996	103.375	19.363	52.537	0.485
574.000	357.959	79.996	19.997	103.388	19.353	53.166	0.549
576.000	358.947	79.994	19.997	103.377	19.349	53.422	0.512
578.000	359.942	79.996	19.997	103.370	19.343	53.781	0.528
580.000	360.941	79.994	19.997	103.363	19.338	54.105	0.483
582.000	361.952	79.993	19.998	103.366	19.335	54.299	0.528
584.000	362.988	79.996	19.997	103.352	19.334	54.333	0.519
586.000	364.018	79.995	19.997	103.360	19.333	54.409	0.510
588.000	365.014	79.995	19.997	103.338	19.341	53.924	0.516
590.000	366.063	79.995	19.997	103.338	19.345	53.622	0.495
592.000	367.072	79.997	19.996	103.333	19.352	53.174	0.527
594.000	368.114	79.996	19.996	103.314	19.369	52.052	0.511
596.000	369.113	79.997	19.997	103.309	19.386	51.013	0.513
598.000	370.099	79.996	19.997	103.295	19.404	49.794	0.533
600.000	371.179	79.995	19.996	103.301	19.424	48.483	0.554
602.000	372.179	79.996	19.997	103.282	19.449	46.862	0.535
604.000	373.227	79.995	19.997	103.258	19.478	44.987	0.519
606.000	374.264	79.994	19.997	103.256	19.507	43.127	0.507
608.000	375.311	79.995	19.996	103.235	19.543	40.819	0.536
610.000	376.281	79.996	19.996	103.195	19.576	38.718	0.487
612.000	377.325	79.997	19.996	103.202	19.620	35.873	0.509
614.000	378.330	79.996	19.997	103.184	19.653	33.756	0.515
616.000	379.379	79.995	19.996	103.159	19.696	30.945	0.530
618.000	380.376	79.998	19.996	103.145	19.733	28.603	0.498
620.000	381.348	79.997	19.995	103.134	19.767	26.406	0.510
622.000	382.383	79.998	19.995	103.127	19.803	24.051	0.493
624.000	383.400	79.999	19.996	103.135	19.837	21.897	0.471
626.000	384.433	79.998	19.996	103.117	19.871	19.733	0.498
628.000	385.418	79.995	19.996	103.120	19.900	17.852	0.484
630.000	386.469	79.996	19.997	103.115	19.925	16.214	0.516
632.000	387.517	79.994	19.996	103.119	19.952	14.496	0.519
634.000	388.529	79.996	19.997	103.101	19.968	13.443	0.517
636.000	389.511	79.997	19.996	103.101	19.986	12.289	0.478
638.000	390.556	79.995	19.997	103.101	20.001	11.332	0.520
640.000	391.605	79.996	19.996	103.099	20.015	10.445	0.517
642.000	392.652	79.997	19.996	103.102	20.025	9.828	0.544
644.000	393.690	79.996	19.996	103.099	20.036	9.119	0.573
646.000	394.738	79.995	19.996	103.097	20.042	8.711	0.556
648.000	395.719	79.995	19.995	103.099	20.045	8.491	0.497
650.000	396.768	79.997	19.996	103.109	20.050	8.182	0.500
652.000	397.774	79.996	19.996	103.113	20.057	7.727	0.510
654.000	398.801	79.995	19.995	103.108	20.057	7.737	0.508
656.000	399.816	79.996	19.997	103.113	20.059	7.637	0.545
658.000	400.806	79.995	19.997	103.078	20.061	7.500	0.511
660.000	401.804	79.994	19.996	103.065	20.064	7.311	0.481
662.000	402.799	79.994	19.997	103.086	20.064	7.279	0.516
664.000	403.846	79.994	19.997	103.111	20.065	7.230	0.531
666.000	404.810	79.993	19.996	103.091	20.071	6.855	0.516
668.000	405.843	79.993	19.996	103.096	20.068	7.058	0.523
670.000	406.807	79.995	19.997	103.108	20.070	6.901	0.492
672.000	407.806	79.995	19.997	103.093	20.070	6.893	0.523
674.000	408.777	79.996	19.996	103.072	20.072	6.802	0.496
676.001	409.750	79.998	19.996	103.086	20.074	6.653	0.484
678.000	410.752	79.996	19.996	103.097	20.076	6.539	0.498
680.001	411.741	79.996	19.997	103.103	20.079	6.342	0.509
682.000	412.700	79.996	19.996	103.090	20.080	6.266	0.473
684.000	413.692	79.995	19.997	103.060	20.078	6.363	0.498
686.000	414.631	79.994	19.997	103.065	20.080	6.234	0.471
688.000	415.614	79.996	19.998	103.067	20.081	6.214	0.474
690.000	416.598	79.996	19.997	103.090	20.080	6.234	0.485
692.000	417.601	79.994	19.997	103.099	20.085	5.965	0.466
694.000	418.581	79.997	19.998	103.097	20.084	5.978	0.477
696.000	419.565	79.996	19.997	103.090	20.084	5.987	0.500
698.000	420.581	79.998	19.996	103.076	20.082	6.118	0.495
700.000	421.565	79.998	19.995	103.082	20.084	5.997	0.484
702.000	422.606	79.997	19.996	103.079	20.086	5.871	0.495
704.000	423.594	79.997	19.995	103.094	20.086	5.843	0.493
706.000	424.589	79.997	19.996	103.097	20.090	5.596	0.513
708.000	425.630	79.995	19.996	103.108	20.091	5.578	0.502
710.000	426.660	79.994	19.997	103.100	20.092	5.509	0.487
712.000	427.662	79.994	19.997	103.110	20.091	5.526	0.524
714.000	428.736	79.994	19.996	103.116	20.096	5.241	0.520
716.000	429.759	79.994	19.997	103.083	20.095	5.307	0.515
718.000	430.767	79.994	19.996	103.102	20.098	5.111	0.516
720.000	431.814	79.994	19.997	103.117	20.098	5.129	0.512
722.000	432.839	79.993	19.997	103.073	20.102	4.867	0.503
724.000	433.873	79.994	19.996	103.066	20.102	4.837	0.500
726.000	434.910	79.996	19.996	103.079	20.099	5.041	0.524
728.000	435.941	79.995	19.995	103.079	20.102	4.866	0.515
730.000	436.982	79.994	19.997	103.076	20.101	4.912	0.492
732.000	437.986	79.995	19.995	103.076	20.103	4.789	0.483
734.000	439.046	79.995	19.996	103.094	20.100	4.969	0.549
736.000	440.029	79.994	19.996	103.103	20.106	4.605	0.515
738.000	441.041	79.996	19.995	103.083	20.107	4.512	0.531
740.000	442.084	79.996	19.996	103.113	20.109	4.370	0.525
742.000	443.047	79.994	19.997	103.099	20.107	4.520	0.503
744.000	444.048	79.994	19.997	103.107	20.111	4.251	0.515
746.000	445.075	79.995	19.997	103.105	20.113	4.158	0.524
748.000	446.025	79.997	19.997	103.104	20.113	4.164	0.479
750.000	447.063	79.996	19.997	103.074	20.112	4.169	0.479
752.000	448.059	79.997	19.996	103.121	20.112	4.181	0.503
754.000	449.038	79.995	19.997	103.101	20.111	4.258	0.512
756.000	449.991	79.996	19.997	103.053	20.110	4.309	0.485
758.000	450.998	79.996	19.997	103.079	20.111	4.288	0.486
760.000	452.011	79.997	19.996	103.089	20.108	4.425	0.529
762.000	453.012	79.995	19.997	103.059	20.113	4.148	0.487
764.000	454.048	79.995	19.997	103.088	20.115	4.004	0.521
766.000	455.015	79.997	19.997	103.072	20.118	3.839	0.496
768.000	456.062	79.998	19.997	103.061	20.117	3.860	0.492
770.000	457.064	79.996	19.997	103.125	20.117	3.854	0.511
772.000	458.082	79.997	19.997	103.081	20.120	3.654	0.508
774.000	459.112	79.995	19.998	103.078	20.117	3.858	0.524
776.000	460.168	79.996	19.997	103.074	20.123	3.509	0.541
778.000	461.198	79.998	19.997	103.090	20.122	3.542	0.538
780.000	462.229	79.998	19.997	103.055	20.122	3.548	0.532
782.000	463.261	79.997	19.997	103.075	20.128	3.196	0.503
784.000	464.286	79.996	19.997	103.076	20.127	3.242	0.533
786.000	465.317	79.997	19.996	103.065	20.130	3.034	0.528
788.000	466.319	79.995	19.996	103.077	20.132	2.927	0.517
790.000	467.341	79.995	19.997	103.100	20.134	2.795	0.507
792.000	468.329	79.995	19.997	103.087	20.134	2.815	0.486
794.000	469.341	79.995	19.996	103.078	20.135	2.741	0.493
796.000	470.364	79.995	19.996	103.097	20.134	2.792	0.508
798.000	471.369	79.995	19.996	103.068	20.134	2.757	0.483
800.000	472.401	79.996	19.997	103.067	20.134	2.800	0.499
802.000	473.399	79.996	19.997	103.064	20.138	2.540	0.500
804.000	474.428	79.995	19.996	103.083	20.137	2.618	0.532
806.000	475.454	79.996	19.997	103.090	20.142	2.271	0.505
808.000	476.472	79.996	19.996	103.075	20.145	2.050	0.546
810.000	477.473	79.995	19.996	103.064	20.143	2.195	0.518
812.000	478.441	79.995	19.995	103.075	20.142	2.278	0.510
814.000	479.432	79.994	19.996	103.067	20.145	2.097	0.513
816.000	480.452	79.995	19.996	103.073	20.140	2.390	0.458
818.000	481.518	79.995	19.996	103.075	20.143	2.177	0.546
820.000	482.519	79.995	19.996	103.070	20.147	1.925	0.523
822.000	483.551	79.996	19.996	103.068	20.145	2.092	0.513
824.000	484.484	79.996	19.996	103.087	20.148	1.870	0.450
826.000	485.542	79.996	19.997	103.071	20.144	2.137	0.525
828.000	486.546	79.997	19.996	103.067	20.149	1.826	0.511
830.000	487.517	79.997	19.997	103.075	20.148	1.887	0.485
832.000	488.538	79.996	19.997	103.064	20.149	1.842	0.507
834.000	489.551	79.997	19.997	103.087	20.150	1.761	0.483
836.000	490.567	79.997	19.997	103.091	20.146	1.998	0.459
838.000	491.599	79.996	19.996	103.081	20.153	1.589	0.515
840.000	492.570	79.998	19.996	103.060	20.153	1.553	0.500
842.001	493.670	79.997	19.996	103.084	20.144	2.124	0.514
844.000	494.707	79.996	19.997	103.070	20.145	2.048	0.513
846.000	495.773	79.997	19.997	103.085	20.146	2.030	0.456
848.000	496.795	79.997	19.996	103.081	20.149	1.837	0.418
850.000	497.919	79.997	19.997	103.068	20.147	1.940	0.593
852.000	498.781	79.996	19.998	103.063	20.151	1.716	0.647
854.000	500.390	79.997	19.998	103.068	20.150	1.766	1.348
856.000	500.631	79.996	19.997	103.075	20.150	1.757	0.716
858.000	501.876	79.997	19.996	103.064	20.151	1.681	0.467
860.000	503.021	79.996	19.996	103.067	20.150	1.764	0.590
862.000	504.018	79.996	19.995	103.071	20.152	1.642	0.516
864.000	505.013	79.996	19.996	103.073	20.153	1.540	0.553
866.000	506.127	79.995	19.998	103.067	20.155	1.424	0.564
868.000	507.078	79.994	19.997	103.063	20.152	1.620	0.466
870.000	508.141	79.994	19.997	103.061	20.153	1.559	0.555
872.000	509.142	79.993	19.998	103.065	20.155	1.446	0.543
874.000	510.110	79.995	19.997	103.069	20.154	1.477	0.493
876.000	511.155	79.995	19.998	103.060	20.154	1.527	0.520
878.000	512.160	79.994	19.997	103.060	20.156	1.378	0.522
880.000	513.149	79.994	19.996	103.070	20.158	1.236	0.489
882.000	514.121	79.996	19.997	103.084	20.153	1.553	0.486
884.000	515.153	79.994	19.996	103.061	20.157	1.327	0.480
886.000	516.122	79.994	19.996	103.055	20.159	1.195	0.499
888.000	517.128	79.996	19.996	103.065	20.156	1.341	0.482
890.000	518.165	79.996	19.997	103.067	20.156	1.354	0.541
892.000	519.157	79.995	19.996	103.060	20.159	1.186	0.526
894.000	520.161	79.996	19.996	103.083	20.155	1.444	0.527
896.000	521.163	79.995	19.997	103.091	20.157	1.291	0.500
898.000	522.171	79.994	19.997	103.061	20.157	1.292	0.493
900.000	523.221	79.995	19.997	103.061	20.158	1.246	0.530
902.000	524.206	79.994	19.997	103.060	20.157	1.328	0.503
904.000	525.212	79.995	19.997	103.062	20.155	1.427	0.472
906.000	526.223	79.995	19.998	103.060	20.155	1.427	0.494
908.000	527.222	79.996	19.996	103.066	20.156	1.343	0.499
910.000	528.282	79.995	19.997	103.062	20.155	1.435	0.519
912.000	529.276	79.996	19.996	103.097	20.160	1.092	0.528
914.000	530.251	79.998	19.995	103.114	20.157	1.316	0.492
916.000	531.286	79.997	19.997	103.098	20.156	1.356	0.478
918.000	532.321	79.998	19.996	103.102	20.158	1.252	0.501
920.000	533.296	79.996	19.996	103.072	20.157	1.296	0.480
922.000	534.315	79.995	19.997	103.036	20.157	1.327	0.513
924.000	535.315	79.996	19.995	103.076	20.154	1.510	0.477
926.000	536.309	79.996	19.997	103.006	20.158	1.251	0.481
928.000	537.339	79.994	19.996	103.142	20.160	1.125	0.488
930.000	538.335	79.995	19.996	103.077	20.161	1.020	0.500
932.000	539.328	79.996	19.997	103.075	20.159	1.169	0.505
934.000	540.340	79.997	19.997	103.090	20.156	1.338	0.496
936.000	541.320	79.996	19.996	103.059	20.158	1.266	0.465
938.000	542.294	79.998	19.997	103.050	20.153	1.537	0.499
940.000	543.326	79.996	19.997	103.075	20.153	1.563	0.503
942.000	544.292	79.998	19.997	103.050	20.152	1.655	0.473
944.000	545.287	79.998	19.996	103.066	20.154	1.467	0.468
946.000	546.288	79.995	19.997	103.067	20.154	1.513	0.502
948.000	547.332	79.997	19.997	103.079	20.152	1.623	0.533
950.000	548.329	79.994	19.996	103.091	20.159	1.162	0.491
952.000	549.320	79.996	19.998	103.123	20.159	1.195	0.486
954.000	550.368	79.996	19.997	103.129	20.157	1.294	0.544
956.000	551.399	79.996	19.997	103.075	20.158	1.227	0.526
958.000	552.423	79.994	19.998	103.051	20.157	1.325	0.543
960.000	553.464	79.997	19.997	103.058	20.153	1.578	0.519
962.000	554.469	79.996	19.998	103.052	20.151	1.671	0.484
964.000	555.528	79.995	19.997	103.024	20.153	1.557	0.524
966.000	556.509	79.995	19.997	103.043	20.155	1.465	0.482
968.000	557.574	79.995	19.997	103.079	20.154	1.477	0.534
970.000	558.641	79.996	19.995	103.087	20.154	1.474	0.550
972.000	559.650	79.996	19.996	103.061	20.157	1.316	0.489
974.000	560.649	79.995	19.997	103.091	20.156	1.354	0.518
976.000	561.716	79.993	19.996	103.099	20.159	1.188	0.526
978.000	562.774	79.995	19.995	103.087	20.157	1.283	0.516
980.000	563.766	79.995	19.996	103.078	20.156	1.392	0.493
982.000	564.821	79.995	19.997	103.079	20.155	1.465	0.509
984.000	565.806	79.995	19.996	103.070	20.153	1.555	0.520
986.000	566.892	79.994	19.997	103.065	20.149	1.830	0.549
988.000	567.891	79.996	19.996	103.068	20.155	1.407	0.536
990.000	568.939	79.998	19.996	103.066	20.156	1.359	0.541
992.000	569.963	79.995	19.995	103.076	20.154	1.481	0.520
994.000	570.975	79.998	19.997	103.100	20.158	1.242	0.500
996.000	572.038	79.998	19.996	103.098	20.158	1.269	0.526
998.000	573.043	79.996	19.997	103.087	20.159	1.177	0.511
1000.000	574.106	79.998	19.995	103.076	20.156	1.361	0.552
1002.000	575.135	79.997	19.996	103.062	20.156	1.363	0.494
1004.000	576.194	79.998	19.995	103.066	20.155	1.444	0.522
1006.000	577.187	79.996	19.995	103.065	20.158	1.216	0.495
1008.000	578.243	79.996	19.997	103.058	20.154	1.513	0.522
1010.000	579.245	79.996	19.996	103.060	20.156	1.343	0.489
1012.000	580.292	79.995	19.997	103.055	20.157	1.334	0.522
1014.000	581.276	79.998	19.996	103.042	20.155	1.423	0.518
1016.000	582.292	79.998	19.996	103.059	20.155	1.412	0.471
1018.000	583.314	79.997	19.996	103.044	20.153	1.539	0.497
1020.000	584.337	79.996	19.997	103.047	20.155	1.401	0.517
1022.000	585.377	79.998	19.996	103.089	20.157	1.289	0.500
1024.000	586.414	79.996	19.996	103.076	20.157	1.285	0.538
1026.000	587.440	79.995	19.996	103.052	20.156	1.380	0.486
1028.000	588.440	79.993	19.997	103.098	20.156	1.343	0.510
1030.000	589.523	79.996	19.998	103.104	20.158	1.244	0.546
1032.000	590.568	79.995	19.996	103.096	20.154	1.505	0.535
1034.000	591.563	79.995	19.996	103.081	20.154	1.494	0.527
1036.000	592.622	79.996	19.997	103.085	20.155	1.441	0.525
1038.000	593.650	79.995	19.996	103.094	20.159	1.171	0.535
1040.000	594.714	79.994	19.997	103.082	20.156	1.374	0.523
1042.000	595.769	79.995	19.996	103.087	20.155	1.401	0.543
1044.000	596.794	79.996	19.998	103.104	20.152	1.598	0.532
1046.000	597.817	79.995	19.999	103.119	20.157	1.318	0.493
1048.000	598.887	79.995	19.997	103.070	20.157	1.322	0.542
1050.000	599.887	79.995	19.997	103.065	20.155	1.435	0.521
1052.000	600.931	79.994	19.996	103.072	20.152	1.640	0.531
1054.000	601.952	79.994	19.998	103.054	20.151	1.685	0.523
1056.001	602.961	79.993	19.996	103.053	20.153	1.585	0.485
1058.000	603.994	79.996	19.997	103.096	20.151	1.682	0.521
1060.000	605.038	79.994	19.996	103.083	20.150	1.738	0.525
1062.000	606.064	79.996	19.996	103.051	20.148	1.886	0.479
1064.000	607.087	79.996	19.996	103.078	20.149	1.836	0.527
1066.000	608.115	79.996	19.996	103.061	20.154	1.510	0.498
1068.000	609.129	79.997	19.996	103.074	20.152	1.607	0.515
1070.000	610.166	79.996	19.997	103.094	20.153	1.531	0.496
1072.000	611.176	79.995	19.997	103.096	20.155	1.444	0.516
1074.000	612.217	79.999	19.996	103.115	20.158	1.233	0.515
1076.001	613.258	79.999	19.996	103.111	20.156	1.363	0.523
1078.000	614.293	79.996	19.997	103.063	20.153	1.562	0.542
1080.000	615.344	79.997	19.997	103.059	20.153	1.551	0.515
1082.000	616.395	79.996	19.996	103.066	20.151	1.679	0.516
1084.000	617.370	79.997	19.996	103.058	20.150	1.739	0.475
1086.000	618.407	79.996	19.997	103.066	20.148	1.859	0.496
1088.000	619.416	79.998	19.996	103.086	20.152	1.621	0.486
1090.000	620.451	79.997	19.996	103.069	20.149	1.827	0.495
1092.000	621.487	79.995	19.996	103.066	20.153	1.567	0.510
1094.000	622.496	79.999	19.996	103.073	20.147	1.938	0.505
1096.000	623.486	79.997	19.996	103.094	20.154	1.471	0.510
1098.000	624.528	79.997	19.995	103.145	20.154	1.510	0.517
1100.000	625.566	79.997	19.996	103.131	20.155	1.429	0.524
1102.000	626.607	79.997	19.996	103.087	20.152	1.620	0.523
1104.000	627.637	79.996	19.996	103.071	20.152	1.622	0.490
1106.000	628.699	79.994	19.996	103.049	20.150	1.725	0.558
1108.000	629.698	79.995	19.998	103.073	20.154	1.524	0.502
1110.000	630.728	79.995	19.997	103.114	20.154	1.468	0.504
1112.000	631.790	79.993	19.996	103.105	20.157	1.336	0.529
1114.000	632.825	79.994	19.998	103.095	20.154	1.470	0.520
1116.000	633.886	79.996	19.996	103.064	20.152	1.620	0.529
1118.000	634.965	79.995	19.997	103.100	20.151	1.659	0.556
1120.000	636.050	79.995	19.996	103.088	20.150	1.737	0.532
1122.000	637.082	79.995	19.997	103.071	20.151	1.673	0.523
1124.000	638.116	79.997	19.997	103.059	20.156	1.399	0.496
1126.000	639.197	79.994	19.996	103.067	20.153	1.587	0.536
1128.000	640.253	79.996	19.996	103.055	20.149	1.844	0.543
1130.000	641.265	79.997	19.998	102.998	20.151	1.676	0.558
1132.001	642.277	79.994	19.997	103.114	20.151	1.692	0.498
1134.000	643.315	79.994	19.998	103.090	20.153	1.547	0.513
1136.000	644.356	79.996	19.997	103.089	20.152	1.654	0.523
1138.000	645.402	79.996	19.998	103.067	20.152	1.658	0.534
1140.000	646.439	79.994	19.997	103.056	20.153	1.555	0.535
1142.001	647.459	79.992	19.997	103.056	20.150	1.766	0.503
1144.000	648.502	79.994	19.997	103.053	20.151	1.689	0.539
1146.000	649.520	79.995	19.997	103.060	20.151	1.707	0.541
1148.000	650.598	79.997	19.996	103.086	20.152	1.651	0.566
1150.000	651.597	79.996	19.995	103.075	20.154	1.497	0.514
1152.000	652.643	79.996	19.996	103.099	20.153	1.576	0.527
1154.000	653.648	79.997	19.996	103.021	20.150	1.768	0.504
1156.000	654.668	79.996	19.996	103.052	20.152	1.652	0.500
1158.000	655.730	79.997	19.996	103.120	20.153	1.578	0.530
1160.000	656.735	79.996	19.995	103.077	20.154	1.482	0.535
1162.000	657.804	79.994	19.997	103.047	20.155	1.457	0.538
1164.000	658.807	79.995	19.997	103.074	20.154	1.515	0.507
1166.000	659.830	79.995	19.997	103.069	20.156	1.388	0.483
1168.000	660.846	79.996	19.994	103.066	20.154	1.522	0.508
1170.000	661.868	79.995	19.995	103.060	20.152	1.602	0.540
1172.000	662.878	79.995	19.997	103.083	20.156	1.345	0.488
1174.000	663.896	79.998	19.996	103.080	20.155	1.407	0.485
1176.000	664.886	79.997	19.996	103.057	20.155	1.437	0.502
1178.000	665.947	79.997	19.995	103.058	20.156	1.379	0.497
1180.000	666.932	79.996	19.996	103.056	20.155	1.421	0.486
1182.000	667.947	79.996	19.996	103.063	20.155	1.448	0.513
1184.000	668.956	79.996	19.996	103.087	20.159	1.181	0.477
1186.000	669.991	79.997	19.996	103.078	20.154	1.501	0.539
1188.000	671.001	79.995	19.997	103.057	20.162	0.973	0.485
1190.000	671.967	79.996	19.996	103.061	20.155	1.459	0.494
1192.000	672.983	79.995	19.996	103.070	20.155	1.450	0.480
1194.000	673.997	79.995	19.997	103.017	20.152	1.620	0.520
1196.000	675.055	79.995	19.997	103.037	20.153	1.553	0.517
1198.000	676.039	79.993	19.998	103.101	20.154	1.490	0.476
1200.000	677.086	79.993	19.997	103.057	20.156	1.368	0.515
1202.001	678.156	79.995	19.997	103.058	20.155	1.452	0.507
1204.000	679.100	79.995	19.998	103.077	20.157	1.311	0.476
1206.000	680.105	79.996	19.997	103.062	20.159	1.144	0.476
1208.000	681.120	79.995	19.996	103.062	20.154	1.484	0.544
1210.000	682.107	79.994	19.997	103.068	20.154	1.468	0.476
1212.000	683.122	79.994	19.997	103.060	20.152	1.618	0.506
1214.000	684.111	79.996	19.996	103.060	20.153	1.553	0.497
1216.000	685.131	79.995	19.997	103.061	20.153	1.536	0.505
1218.000	686.126	79.994	19.997	103.063	20.155	1.453	0.543
1220.000	687.172	79.994	19.997	103.063	20.154	1.499	0.492
1222.000	688.113	79.994	19.998	103.071	20.153	1.551	0.502
1224.000	689.124	79.994	19.999	103.062	20.152	1.636	0.503
1226.000	690.082	79.995	19.996	103.051	20.152	1.594	0.492
1228.001	691.069	79.995	19.999	103.052	20.154	1.497	0.481
1230.000	692.058	79.995	19.997	103.057	20.152	1.596	0.483
1232.000	693.048	79.996	19.996	103.061	20.151	1.672	0.524
1234.001	694.061	79.995	19.997	103.067	20.152	1.614	0.495
1236.000	695.023	79.995	19.997	103.069	20.151	1.697	0.500
1238.000	695.994	79.996	19.997	103.061	20.153	1.557	0.484
1240.000	697.010	79.994	19.997	103.071	20.154	1.500	0.477
1242.000	698.044	79.994	19.995	103.068	20.152	1.609	0.504
1244.000	699.006	79.994	19.997	103.070	20.150	1.744	0.494
1246.000	699.984	79.995	19.996	103.057	20.150	1.777	0.481
1248.000	700.968	79.996	19.995	103.067	20.155	1.430	0.482
1250.000	701.993	79.997	19.995	103.072	20.153	1.573	0.499
1252.000	702.998	79.998	19.996	103.061	20.153	1.563	0.514
1254.001	704.024	79.998	19.996	103.064	20.153	1.544	0.517
1256.000	705.068	79.998	19.997	103.064	20.153	1.551	0.503
1258.000	706.046	79.999	19.996	103.080	20.152	1.601	0.475
1260.000	707.071	79.997	19.995	103.069	20.152	1.609	0.507
1262.000	708.129	79.998	19.997	103.051	20.157	1.289	0.521
1264.000	709.175	79.996	19.997	103.047	20.154	1.509	0.508
1266.000	710.162	79.996	19.997	103.051	20.159	1.195	0.503
1268.001	711.235	79.997	19.997	103.048	20.156	1.377	0.475
1270.000	712.278	79.995	19.995	103.045	20.152	1.612	0.534
1272.000	713.306	79.996	19.996	103.057	20.153	1.546	0.528
1274.000	714.352	79.995	19.997	103.066	20.155	1.423	0.537
1276.000	715.360	79.995	19.996	103.063	20.155	1.417	0.544
1278.000	716.429	79.995	19.996	103.059	20.153	1.580	0.507
1280.000	717.508	79.996	19.997	103.048	20.151	1.702	0.553
1282.000	718.479	79.995	19.996	103.057	20.157	1.327	0.524
1284.001	719.495	79.995	19.996	103.077	20.156	1.350	0.480
1286.001	720.534	79.995	19.997	103.083	20.154	1.509	0.504
1288.000	721.541	79.995	19.997	103.029	20.159	1.151	0.493
1290.000	722.535	79.995	19.997	103.134	20.157	1.319	0.485
1292.000	723.569	79.994	19.997	103.078	20.160	1.115	0.518
1294.000	724.571	79.994	19.998	103.069	20.158	1.220	0.516
1296.000	725.602	79.994	19.997	103.064	20.157	1.298	0.529
1298.000	726.593	79.994	19.996	103.043	20.156	1.341	0.505
1300.000	727.571	79.993	19.997	103.045	20.151	1.715	0.488
1302.000	728.623	79.994	19.998	103.058	20.153	1.540	0.493
1304.000	729.618	79.995	19.996	103.064	20.152	1.613	0.472
1306.000	730.639	79.995	19.997	103.071	20.155	1.405	0.499
1308.000	731.655	79.994	19.996	103.079	20.156	1.380	0.538
1310.000	732.639	79.995	19.997	103.055	20.155	1.405	0.499
1312.001	733.632	79.997	19.997	103.060	20.158	1.265	0.484
1314.000	734.617	79.997	19.997	103.090	20.159	1.202	0.472
1316.001	735.618	79.995	19.998	103.085	20.159	1.177	0.519
1318.000	736.621	79.996	19.998	103.088	20.157	1.310	0.502
1320.000	737.607	79.996	19.997	103.070	20.158	1.271	0.500
1322.000	738.620	79.994	19.997	103.059	20.154	1.528	0.516
1324.000	739.621	79.995	19.997	103.053	20.153	1.585	0.483
1326.000	740.646	79.996	19.996	103.044	20.152	1.654	0.514
1328.001	741.702	79.996	19.996	103.046	20.151	1.706	0.523
1330.000	742.702	79.996	19.997	103.057	20.150	1.743	0.501
1331.500	743.474	79.997	19.997	103.058	20.153	1.542	0.495