File: 01_Data/Engineered_Flooring/MCC/Engineered_Flooring_30K_min_211025_R1.txt
Sample ID:	C:\MCC\MCC Cal\Test\Engineered_Flooring_30K_min_211025_R1.txt
Sample Weight (mg):	4.66
Heating Rate (C/s):	0.5
Combustor Temp (C):	900
N2 Flow Rate (cc/min):	80
O2 Flow Rate (cc/min):	20
Calibration File:	C:\MCC\MCC Cal\Coeff1 JN10440_30_210304.txt.txt
T Correction Coefficients:	0	1.024463	0
Time Shift (s):	14
*
Time (s)	Temperature (C)	N2 flow rate (cc/min)	O2 flow rate (cc/min)	Flow Rate (cc/min)	Oxygen (%)	HRR (W/g)	Heating rate (C/s)
0.000	109.022	80.000	19.996	103.005	20.017	-0.034	-0.039
2.000	109.067	80.000	19.996	103.007	20.019	-0.131	0.011
4.000	109.032	80.000	19.996	103.013	20.021	-0.314	-0.007
6.000	109.030	79.999	19.995	103.010	20.020	-0.220	0.001
8.000	109.028	79.998	19.995	103.032	20.018	-0.121	0.033
10.001	109.046	79.998	19.995	103.041	20.019	-0.155	0.017
12.000	109.031	79.998	19.995	103.043	20.018	-0.093	0.010
14.001	109.002	79.998	19.996	103.043	20.014	0.167	-0.014
16.000	109.073	79.998	19.996	103.073	20.010	0.470	0.035
18.000	109.113	79.997	19.997	103.100	20.014	0.171	0.005
20.000	109.179	79.997	19.996	103.114	20.005	0.789	0.023
22.000	109.240	79.998	19.996	103.102	20.006	0.732	0.016
24.000	109.331	79.999	19.997	103.117	20.003	0.916	0.053
26.000	109.465	79.999	19.996	103.118	20.004	0.873	0.055
28.000	109.558	79.999	19.996	103.118	20.000	1.172	0.069
30.000	109.709	80.000	19.996	103.144	19.998	1.281	0.056
32.000	109.880	79.999	19.996	103.170	19.994	1.577	0.102
34.000	110.031	79.999	19.995	103.188	19.991	1.765	0.095
36.001	110.287	79.998	19.995	103.195	19.988	2.008	0.124
38.000	110.507	79.998	19.996	103.190	19.988	1.990	0.113
40.000	110.826	79.997	19.996	103.190	19.985	2.154	0.178
42.000	111.106	79.998	19.996	103.209	19.988	1.955	0.129
44.000	111.430	79.999	19.995	103.206	19.981	2.431	0.188
46.000	111.767	79.999	19.994	103.228	19.982	2.416	0.171
48.001	112.129	79.998	19.995	103.222	19.984	2.283	0.169
50.000	112.558	79.999	19.995	103.225	19.983	2.336	0.199
52.001	112.991	79.999	19.995	103.234	19.982	2.386	0.224
54.000	113.392	80.000	19.995	103.233	19.979	2.619	0.223
56.000	113.878	80.000	19.995	103.230	19.981	2.435	0.230
58.000	114.345	80.000	19.995	103.234	19.982	2.390	0.227
60.000	114.847	79.999	19.995	103.231	19.979	2.620	0.277
62.000	115.376	80.000	19.996	103.235	19.981	2.470	0.259
64.000	115.902	79.998	19.994	103.240	19.979	2.595	0.268
66.000	116.444	79.999	19.995	103.246	19.978	2.658	0.258
68.000	117.021	80.001	19.995	103.256	19.977	2.770	0.272
70.001	117.602	80.001	19.994	103.265	19.976	2.823	0.307
72.001	118.185	80.000	19.994	103.272	19.977	2.715	0.282
74.000	118.824	80.002	19.995	103.276	19.976	2.833	0.308
76.000	119.521	80.003	19.994	103.274	19.976	2.806	0.358
78.000	120.126	80.002	19.993	103.268	19.976	2.808	0.323
80.000	120.819	80.002	19.995	103.274	19.972	3.055	0.305
82.000	121.553	80.000	19.995	103.275	19.973	3.007	0.366
84.000	122.231	80.001	19.995	103.277	19.974	2.920	0.356
86.000	122.989	79.999	19.995	103.276	19.974	2.958	0.381
88.000	123.745	79.999	19.995	103.271	19.974	2.918	0.371
90.001	124.490	79.999	19.997	103.274	19.974	2.977	0.379
92.000	125.248	80.000	19.996	103.273	19.973	3.030	0.362
94.000	126.050	79.999	19.995	103.275	19.974	2.948	0.394
96.000	126.825	79.998	19.996	103.274	19.974	2.962	0.386
98.000	127.633	79.999	19.996	103.273	19.972	3.087	0.404
100.001	128.459	79.999	19.995	103.273	19.972	3.068	0.385
102.000	129.315	80.000	19.996	103.272	19.971	3.144	0.418
104.000	130.116	79.998	19.995	103.273	19.972	3.070	0.419
106.000	130.977	79.999	19.996	103.271	19.967	3.447	0.440
108.000	131.862	79.999	19.996	103.274	19.974	2.950	0.461
110.000	132.730	79.999	19.996	103.273	19.973	3.037	0.414
112.000	133.582	79.999	19.995	103.273	19.969	3.273	0.417
114.000	134.478	80.000	19.997	103.267	19.969	3.280	0.460
116.000	135.321	79.998	19.996	103.268	19.971	3.161	0.426
118.001	136.229	79.999	19.997	103.270	19.972	3.089	0.446
120.000	137.133	79.998	19.996	103.272	19.974	2.962	0.491
122.001	138.060	79.998	19.996	103.273	19.970	3.212	0.458
124.000	138.937	79.998	19.997	103.273	19.970	3.191	0.445
126.001	139.869	79.998	19.995	103.269	19.975	2.853	0.462
128.000	140.812	79.999	19.995	103.275	19.970	3.248	0.487
130.000	141.778	80.000	19.995	103.273	19.973	3.022	0.514
132.000	142.734	80.000	19.994	103.273	19.971	3.168	0.492
134.000	143.657	80.001	19.995	103.275	19.972	3.117	0.475
136.000	144.638	80.000	19.995	103.271	19.973	2.986	0.497
138.000	145.595	80.001	19.996	103.268	19.971	3.170	0.493
140.000	146.519	79.999	19.995	103.255	19.972	3.090	0.491
142.000	147.442	79.999	19.996	103.257	19.969	3.288	0.444
144.000	148.452	79.999	19.995	103.269	19.968	3.346	0.486
146.000	149.407	79.999	19.996	103.263	19.969	3.264	0.480
148.000	150.419	79.999	19.995	103.263	19.965	3.597	0.484
150.000	151.403	79.999	19.996	103.266	19.968	3.357	0.486
152.000	152.376	79.999	19.996	103.249	19.967	3.416	0.496
154.000	153.362	80.001	19.995	103.253	19.967	3.412	0.513
156.000	154.271	80.001	19.994	103.244	19.970	3.217	0.467
158.000	155.223	80.002	19.995	103.250	19.969	3.259	0.452
160.000	156.224	80.004	19.996	103.250	19.967	3.413	0.488
162.000	157.166	80.002	19.994	103.237	19.964	3.612	0.461
164.000	158.170	80.001	19.994	103.242	19.965	3.564	0.493
166.000	159.171	80.001	19.995	103.235	19.968	3.359	0.496
168.000	160.126	80.000	19.996	103.243	19.964	3.604	0.522
170.001	161.171	79.999	19.997	103.247	19.967	3.444	0.550
172.000	162.109	79.999	19.996	103.249	19.965	3.536	0.466
174.000	163.077	80.000	19.997	103.248	19.963	3.741	0.500
176.000	164.073	80.000	19.996	103.236	19.964	3.634	0.502
178.000	165.067	80.000	19.996	103.241	19.960	3.906	0.479
180.000	166.036	79.999	19.996	103.237	19.962	3.788	0.499
182.000	167.028	79.999	19.996	103.238	19.959	3.984	0.475
184.000	168.033	80.000	19.997	103.235	19.960	3.921	0.500
186.000	169.015	80.000	19.995	103.241	19.957	4.145	0.505
188.000	169.973	80.001	19.996	103.241	19.952	4.500	0.470
190.000	170.977	79.999	19.995	103.234	19.954	4.355	0.502
192.000	171.942	79.998	19.993	103.239	19.952	4.456	0.478
194.000	172.948	79.999	19.997	103.239	19.949	4.648	0.499
196.000	173.894	79.999	19.995	103.243	19.948	4.745	0.506
198.000	174.875	79.999	19.995	103.238	19.946	4.862	0.500
200.000	175.830	79.996	19.996	103.241	19.944	5.018	0.487
202.000	176.807	79.998	19.996	103.239	19.942	5.130	0.487
204.000	177.809	79.997	19.995	103.239	19.941	5.255	0.476
206.000	178.816	79.998	19.996	103.240	19.936	5.557	0.495
208.000	179.747	79.998	19.996	103.240	19.935	5.640	0.466
210.000	180.732	79.999	19.996	103.244	19.938	5.426	0.495
212.000	181.747	79.999	19.996	103.239	19.936	5.579	0.521
214.000	182.783	80.001	19.996	103.239	19.934	5.693	0.498
216.000	183.724	80.000	19.997	103.238	19.931	5.929	0.467
218.000	184.709	80.002	19.996	103.236	19.926	6.280	0.470
220.000	185.675	80.001	19.994	103.235	19.925	6.323	0.536
222.000	186.716	80.000	19.996	103.233	19.926	6.244	0.506
224.000	187.698	80.001	19.995	103.234	19.922	6.513	0.469
226.000	188.683	80.000	19.996	103.234	19.922	6.557	0.506
228.000	189.684	80.001	19.995	103.236	19.920	6.676	0.524
230.000	190.666	80.002	19.996	103.234	19.916	6.931	0.484
232.000	191.643	80.002	19.995	103.235	19.917	6.860	0.480
234.000	192.581	80.001	19.994	103.234	19.916	6.929	0.467
236.000	193.612	80.001	19.995	103.240	19.911	7.300	0.503
238.000	194.634	80.002	19.995	103.237	19.909	7.472	0.527
240.000	195.629	80.003	19.996	103.244	19.909	7.445	0.519
242.000	196.580	80.003	19.996	103.240	19.905	7.734	0.500
244.000	197.556	80.002	19.995	103.233	19.904	7.811	0.488
246.000	198.567	80.003	19.995	103.236	19.900	8.033	0.504
248.000	199.564	80.001	19.994	103.254	19.901	7.986	0.489
250.000	200.550	79.999	19.995	103.236	19.900	8.081	0.503
252.000	201.552	80.000	19.994	103.241	19.895	8.432	0.498
254.000	202.567	80.000	19.994	103.237	19.897	8.249	0.500
256.000	203.597	80.000	19.994	103.236	19.895	8.439	0.502
258.000	204.645	79.998	19.996	103.239	19.895	8.429	0.539
260.000	205.613	79.999	19.995	103.238	19.892	8.606	0.493
262.000	206.620	79.999	19.996	103.240	19.895	8.434	0.512
264.000	207.613	80.001	19.996	103.232	19.893	8.540	0.465
266.000	208.701	79.999	19.995	103.231	19.891	8.714	0.544
268.000	209.675	79.999	19.996	103.231	19.884	9.145	0.477
270.000	210.669	79.999	19.995	103.235	19.885	9.102	0.499
272.000	211.655	79.998	19.996	103.236	19.889	8.851	0.488
274.000	212.696	79.998	19.996	103.234	19.881	9.342	0.513
276.000	213.718	79.999	19.995	103.235	19.887	8.926	0.529
278.000	214.701	79.998	19.996	103.233	19.884	9.135	0.509
280.000	215.682	79.999	19.996	103.237	19.886	9.047	0.446
282.000	216.672	79.997	19.996	103.236	19.886	9.033	0.471
284.000	217.668	79.997	19.995	103.232	19.886	9.059	0.511
286.000	218.696	79.999	19.996	103.227	19.887	8.931	0.512
288.000	219.655	79.998	19.996	103.230	19.887	8.972	0.468
290.000	220.647	79.998	19.995	103.228	19.884	9.178	0.519
292.000	221.653	79.999	19.996	103.218	19.886	8.994	0.504
294.000	222.664	79.999	19.997	103.217	19.885	9.112	0.510
296.000	223.640	79.999	19.996	103.229	19.885	9.090	0.485
298.000	224.623	80.000	19.997	103.209	19.888	8.919	0.473
300.000	225.640	80.000	19.996	103.212	19.885	9.063	0.501
302.000	226.629	79.999	19.996	103.221	19.886	9.030	0.470
304.000	227.589	80.000	19.996	103.227	19.886	9.043	0.450
306.000	228.634	80.000	19.997	103.221	19.888	8.863	0.500
308.000	229.618	79.999	19.996	103.206	19.886	9.038	0.471
310.000	230.619	80.000	19.998	103.216	19.890	8.723	0.478
312.000	231.613	80.000	19.995	103.216	19.888	8.873	0.499
314.000	232.592	80.001	19.996	103.217	19.889	8.825	0.469
316.000	233.549	80.000	19.995	103.215	19.887	8.964	0.475
318.000	234.568	80.001	19.995	103.227	19.888	8.871	0.503
320.001	235.524	80.003	19.996	103.219	19.886	9.052	0.505
322.000	236.495	80.001	19.996	103.217	19.886	9.007	0.506
324.000	237.499	80.000	19.996	103.229	19.888	8.863	0.485
326.000	238.440	80.001	19.995	103.218	19.890	8.745	0.463
328.000	239.407	80.000	19.995	103.225	19.887	8.955	0.474
330.000	240.355	79.998	19.995	103.217	19.886	9.005	0.474
332.000	241.311	79.999	19.995	103.214	19.888	8.872	0.479
334.000	242.309	79.998	19.994	103.227	19.889	8.791	0.498
336.000	243.286	79.998	19.995	103.227	19.884	9.154	0.478
338.000	244.251	79.998	19.996	103.237	19.886	9.033	0.488
340.000	245.234	79.999	19.995	103.235	19.888	8.876	0.499
342.000	246.204	79.998	19.995	103.237	19.887	8.931	0.482
344.000	247.156	79.999	19.995	103.234	19.879	9.546	0.483
346.000	248.135	80.000	19.994	103.221	19.882	9.322	0.494
348.000	249.142	79.998	19.995	103.232	19.880	9.415	0.519
350.000	250.101	79.998	19.995	103.230	19.879	9.534	0.465
352.000	251.118	79.999	19.996	103.234	19.880	9.432	0.511
354.000	252.097	80.001	19.994	103.238	19.875	9.789	0.473
356.000	253.071	79.998	19.996	103.236	19.874	9.831	0.469
358.000	254.021	79.999	19.996	103.237	19.871	10.041	0.489
360.000	255.007	79.999	19.996	103.235	19.867	10.334	0.475
362.000	256.007	79.998	19.996	103.237	19.866	10.419	0.499
364.000	256.991	79.997	19.996	103.237	19.863	10.655	0.498
366.000	257.963	79.998	19.996	103.251	19.856	11.140	0.478
368.000	258.994	79.999	19.996	103.251	19.854	11.245	0.523
370.000	259.984	79.999	19.995	103.253	19.850	11.542	0.516
372.000	260.971	79.999	19.996	103.250	19.843	12.034	0.479
374.000	261.971	79.999	19.996	103.266	19.842	12.047	0.500
376.000	262.990	80.000	19.995	103.268	19.836	12.475	0.516
378.000	263.997	80.000	19.994	103.267	19.829	12.968	0.493
380.000	264.982	80.000	19.995	103.270	19.827	13.092	0.500
382.000	265.994	79.999	19.995	103.274	19.821	13.519	0.531
384.000	267.007	80.000	19.997	103.272	19.815	13.975	0.515
386.000	268.037	79.998	19.996	103.275	19.810	14.321	0.499
388.000	269.076	79.998	19.996	103.276	19.802	14.872	0.531
390.000	270.109	79.998	19.996	103.277	19.797	15.154	0.542
392.001	271.114	79.998	19.997	103.279	19.788	15.831	0.521
394.000	272.202	79.998	19.997	103.276	19.784	16.114	0.533
396.000	273.197	79.999	19.997	103.280	19.774	16.775	0.515
398.000	274.255	80.000	19.996	103.281	19.768	17.163	0.514
400.000	275.296	80.001	19.995	103.281	19.760	17.753	0.526
402.001	276.358	80.002	19.995	103.283	19.751	18.381	0.525
404.000	277.344	80.003	19.995	103.306	19.745	18.774	0.516
406.000	278.385	80.002	19.994	103.292	19.738	19.238	0.528
408.000	279.463	80.001	19.995	103.301	19.731	19.737	0.508
410.000	280.510	79.999	19.996	103.295	19.729	19.915	0.518
412.000	281.511	79.999	19.995	103.288	19.719	20.581	0.522
414.000	282.539	79.999	19.996	103.301	19.712	21.042	0.548
416.000	283.572	79.999	19.996	103.309	19.709	21.273	0.511
418.000	284.617	79.999	19.996	103.312	19.701	21.835	0.519
420.000	285.615	79.999	19.995	103.306	19.696	22.179	0.479
422.000	286.711	80.000	19.996	103.310	19.689	22.638	0.553
424.000	287.734	79.999	19.995	103.310	19.680	23.291	0.525
426.000	288.716	80.000	19.996	103.307	19.681	23.245	0.487
428.000	289.752	80.000	19.996	103.305	19.666	24.223	0.486
430.000	290.786	80.000	19.995	103.307	19.665	24.336	0.522
432.000	291.831	79.999	19.994	103.311	19.654	25.060	0.513
434.000	292.828	80.000	19.996	103.311	19.650	25.391	0.500
436.000	293.847	79.999	19.994	103.310	19.647	25.559	0.503
438.000	294.851	79.999	19.995	103.307	19.638	26.220	0.489
440.000	295.909	80.000	19.995	103.311	19.638	26.157	0.539
442.000	296.894	79.999	19.996	103.313	19.631	26.666	0.502
444.000	297.902	80.001	19.995	103.315	19.625	27.107	0.482
446.000	298.911	79.998	19.995	103.315	19.622	27.266	0.503
448.000	299.920	79.999	19.994	103.312	19.616	27.722	0.489
450.000	300.942	79.999	19.994	103.314	19.614	27.851	0.503
452.000	301.989	79.999	19.996	103.311	19.610	28.125	0.494
454.000	302.975	80.000	19.998	103.321	19.606	28.404	0.514
456.000	303.996	80.000	19.996	103.313	19.602	28.661	0.520
458.000	304.990	80.002	19.996	103.314	19.595	29.135	0.511
460.000	306.018	80.001	19.996	103.314	19.591	29.457	0.518
462.000	306.978	80.000	19.996	103.307	19.588	29.652	0.501
464.000	308.007	80.000	19.996	103.311	19.585	29.861	0.494
466.000	308.992	80.000	19.995	103.314	19.583	29.972	0.487
468.000	310.026	80.000	19.996	103.318	19.576	30.462	0.507
470.000	310.996	79.999	19.997	103.321	19.571	30.803	0.526
472.000	312.043	80.000	19.996	103.312	19.566	31.202	0.494
474.000	313.002	80.001	19.995	103.316	19.562	31.431	0.486
476.000	314.036	80.000	19.997	103.316	19.556	31.837	0.510
478.000	315.009	80.001	19.996	103.322	19.553	32.044	0.475
480.000	315.993	80.001	19.995	103.320	19.553	32.065	0.512
482.001	316.995	80.001	19.995	103.313	19.552	32.147	0.508
484.000	317.972	80.001	19.997	103.311	19.536	33.241	0.482
486.000	318.854	80.001	19.996	103.312	19.536	33.248	0.438
488.000	319.901	80.000	19.996	103.313	19.529	33.735	0.434
490.000	320.825	80.001	19.996	103.324	19.526	33.971	0.502
492.000	321.790	79.998	19.996	103.326	19.520	34.345	0.439
494.000	322.715	79.999	19.997	103.321	19.513	34.816	0.568
496.000	323.698	80.000	19.996	103.323	19.505	35.418	0.565
498.000	324.553	80.000	19.995	103.326	19.503	35.546	0.450
500.000	325.661	80.001	19.995	103.329	19.498	35.917	0.455
502.000	326.688	79.999	19.994	103.338	19.489	36.501	0.511
504.000	327.657	80.001	19.994	103.331	19.487	36.676	0.475
506.000	328.575	79.997	19.996	103.334	19.477	37.349	0.480
508.000	329.593	79.999	19.996	103.346	19.471	37.782	0.497
510.000	330.540	79.999	19.995	103.344	19.463	38.334	0.452
512.000	331.485	79.998	19.996	103.352	19.454	38.967	0.466
514.000	332.508	79.998	19.995	103.354	19.448	39.337	0.487
516.000	333.522	79.998	19.995	103.354	19.436	40.207	0.502
518.000	334.488	79.999	19.996	103.355	19.427	40.786	0.516
520.000	335.494	79.999	19.995	103.355	19.418	41.417	0.534
522.000	336.446	79.998	19.995	103.360	19.414	41.717	0.458
524.000	337.437	79.997	19.995	103.359	19.404	42.442	0.486
526.000	338.485	79.999	19.996	103.369	19.395	43.054	0.508
528.000	339.496	79.999	19.995	103.382	19.382	43.912	0.509
530.000	340.463	79.999	19.995	103.377	19.371	44.714	0.502
532.000	341.467	80.001	19.995	103.393	19.358	45.599	0.490
534.000	342.460	80.000	19.995	103.390	19.351	46.100	0.519
536.000	343.477	80.000	19.995	103.393	19.340	46.873	0.504
538.000	344.481	80.000	19.995	103.392	19.330	47.546	0.507
540.000	345.505	80.001	19.996	103.392	19.314	48.615	0.539
542.000	346.530	80.002	19.995	103.391	19.305	49.275	0.504
544.000	347.518	80.001	19.996	103.399	19.295	49.984	0.497
546.000	348.525	79.999	19.995	103.402	19.283	50.812	0.506
548.000	349.530	79.999	19.997	103.406	19.274	51.444	0.497
550.000	350.584	79.998	19.996	103.405	19.262	52.282	0.512
552.000	351.578	79.999	19.995	103.419	19.255	52.738	0.466
554.000	352.645	80.001	19.997	103.426	19.242	53.669	0.527
556.000	353.637	79.998	19.995	103.418	19.230	54.469	0.510
558.000	354.681	80.000	19.995	103.421	19.220	55.175	0.508
560.000	355.700	79.999	19.995	103.419	19.216	55.403	0.533
562.000	356.719	80.000	19.996	103.423	19.204	56.299	0.512
564.000	357.737	80.000	19.996	103.428	19.197	56.713	0.505
566.000	358.774	80.002	19.996	103.418	19.192	57.110	0.527
568.000	359.735	80.001	19.996	103.418	19.183	57.690	0.499
570.000	360.742	80.000	19.995	103.419	19.187	57.424	0.492
572.000	361.745	79.998	19.997	103.425	19.186	57.462	0.485
574.000	362.784	79.998	19.996	103.414	19.185	57.517	0.534
576.000	363.795	79.996	19.996	103.404	19.192	57.033	0.524
578.000	364.822	79.998	19.997	103.401	19.198	56.675	0.497
580.000	365.868	79.998	19.997	103.393	19.206	56.114	0.516
582.000	366.885	79.999	19.998	103.388	19.218	55.274	0.510
584.000	367.944	79.998	19.996	103.364	19.235	54.054	0.527
586.000	368.972	79.999	19.997	103.357	19.248	53.189	0.524
588.001	370.005	79.999	19.996	103.354	19.266	51.871	0.543
590.000	371.055	79.998	19.995	103.346	19.294	49.985	0.533
592.000	372.037	79.999	19.997	103.329	19.317	48.379	0.518
594.000	373.058	79.999	19.995	103.319	19.345	46.404	0.484
596.000	374.115	79.999	19.995	103.315	19.371	44.605	0.516
598.000	375.167	79.998	19.996	103.295	19.406	42.164	0.503
600.000	376.217	79.999	19.995	103.278	19.440	39.873	0.513
602.000	377.251	79.999	19.995	103.267	19.476	37.351	0.485
604.000	378.309	79.998	19.995	103.239	19.506	35.247	0.529
606.000	379.358	79.997	19.995	103.236	19.544	32.621	0.535
608.000	380.403	79.998	19.996	103.226	19.573	30.637	0.525
610.000	381.430	79.998	19.996	103.206	19.611	28.041	0.502
612.000	382.460	79.998	19.995	103.197	19.644	25.759	0.522
614.000	383.501	80.000	19.996	103.197	19.676	23.537	0.518
616.000	384.537	80.001	19.996	103.198	19.705	21.506	0.512
618.000	385.489	80.000	19.996	103.196	19.738	19.235	0.473
620.000	386.553	80.000	19.995	103.183	19.762	17.621	0.495
622.000	387.556	80.001	19.996	103.175	19.785	15.984	0.474
624.000	388.578	80.000	19.996	103.162	19.805	14.623	0.521
626.000	389.582	80.000	19.995	103.168	19.824	13.318	0.492
628.000	390.577	80.000	19.995	103.161	19.837	12.421	0.529
630.000	391.630	80.001	19.995	103.158	19.852	11.344	0.487
632.000	392.633	79.999	19.995	103.159	19.862	10.683	0.485
634.000	393.646	80.000	19.995	103.159	19.870	10.104	0.481
636.000	394.673	80.001	19.996	103.159	19.878	9.552	0.526
638.000	395.672	80.000	19.995	103.159	19.887	8.964	0.488
640.000	396.663	80.001	19.995	103.159	19.887	8.951	0.501
642.000	397.694	80.000	19.996	103.165	19.893	8.540	0.497
644.000	398.696	80.001	19.995	103.160	19.898	8.172	0.537
646.000	399.687	80.001	19.996	103.161	19.900	8.065	0.533
648.000	400.692	80.002	19.995	103.157	19.905	7.739	0.509
650.000	401.683	80.001	19.995	103.158	19.903	7.824	0.506
652.000	402.717	79.999	19.995	103.163	19.903	7.849	0.505
654.000	403.693	79.998	19.995	103.164	19.906	7.644	0.469
656.000	404.702	79.999	19.995	103.161	19.909	7.401	0.495
658.000	405.706	79.997	19.995	103.159	19.907	7.544	0.529
660.000	406.701	79.998	19.995	103.155	19.907	7.566	0.493
662.000	407.735	79.997	19.996	103.160	19.908	7.513	0.518
664.000	408.708	79.998	19.996	103.162	19.909	7.423	0.472
666.000	409.718	79.998	19.996	103.161	19.911	7.284	0.483
668.000	410.761	79.999	19.995	103.161	19.911	7.295	0.498
670.000	411.774	79.998	19.996	103.160	19.913	7.138	0.503
672.000	412.749	79.997	19.996	103.154	19.915	7.005	0.468
674.000	413.714	79.998	19.996	103.152	19.916	6.929	0.483
676.000	414.746	79.999	19.996	103.152	19.918	6.813	0.540
678.000	415.742	80.000	19.996	103.151	19.920	6.705	0.501
680.000	416.761	79.999	19.997	103.152	19.917	6.878	0.522
682.000	417.808	79.999	19.994	103.157	19.922	6.563	0.501
684.001	418.782	79.999	19.995	103.158	19.922	6.538	0.484
686.000	419.796	80.000	19.996	103.157	19.923	6.477	0.510
688.000	420.811	79.999	19.996	103.157	19.925	6.301	0.494
690.000	421.861	79.999	19.996	103.152	19.924	6.392	0.513
692.000	422.856	79.999	19.995	103.152	19.926	6.274	0.508
694.000	423.866	79.999	19.995	103.153	19.925	6.294	0.501
696.000	424.864	80.000	19.996	103.143	19.923	6.461	0.512
698.000	425.892	80.001	19.995	103.152	19.926	6.288	0.521
700.000	426.923	80.000	19.996	103.154	19.930	5.982	0.520
702.000	427.924	80.000	19.995	103.154	19.928	6.103	0.503
704.000	428.913	79.999	19.995	103.149	19.933	5.757	0.522
706.000	429.889	80.000	19.995	103.146	19.931	5.929	0.494
708.000	430.896	80.002	19.996	103.141	19.934	5.695	0.495
710.000	431.894	80.000	19.996	103.157	19.937	5.481	0.495
712.000	432.881	80.001	19.994	103.136	19.940	5.303	0.507
714.000	433.899	80.000	19.995	103.142	19.936	5.580	0.505
716.000	434.889	80.000	19.995	103.143	19.942	5.167	0.476
718.000	435.902	80.000	19.994	103.137	19.939	5.330	0.527
720.000	436.851	80.001	19.995	103.135	19.944	5.011	0.472
722.000	437.825	80.002	19.995	103.139	19.944	5.014	0.478
724.000	438.837	80.001	19.994	103.141	19.940	5.303	0.510
726.000	439.819	80.000	19.995	103.136	19.943	5.082	0.481
728.000	440.803	80.001	19.996	103.139	19.944	4.985	0.483
730.000	441.776	80.000	19.997	103.142	19.949	4.662	0.466
732.000	442.756	79.999	19.995	103.132	19.948	4.749	0.488
734.000	443.721	79.998	19.996	103.136	19.946	4.846	0.455
736.000	444.704	79.999	19.996	103.146	19.949	4.670	0.489
738.000	445.652	79.998	19.995	103.148	19.953	4.412	0.450
740.000	446.582	79.999	19.996	103.139	19.952	4.446	0.447
742.000	447.629	79.999	19.997	103.142	19.950	4.621	0.487
744.000	448.608	79.999	19.996	103.139	19.953	4.420	0.496
746.000	449.578	80.000	19.996	103.134	19.954	4.321	0.496
748.000	450.537	79.998	19.995	103.148	19.957	4.090	0.472
750.000	451.490	79.998	19.996	103.136	19.954	4.308	0.439
752.000	452.496	80.000	19.996	103.144	19.959	3.974	0.479
754.000	453.448	79.999	19.996	103.141	19.954	4.340	0.482
756.000	454.486	79.999	19.997	103.136	19.954	4.304	0.515
758.000	455.476	79.999	19.997	103.148	19.958	4.051	0.519
760.000	456.478	80.000	19.997	103.138	19.959	3.946	0.505
762.000	457.484	79.998	19.998	103.141	19.962	3.767	0.508
764.000	458.499	79.999	19.997	103.136	19.964	3.641	0.524
766.000	459.537	79.998	19.997	103.142	19.964	3.659	0.532
768.000	460.505	79.999	19.996	103.139	19.965	3.563	0.503
770.000	461.519	79.999	19.996	103.145	19.963	3.706	0.499
772.000	462.549	79.999	19.996	103.146	19.967	3.458	0.503
774.000	463.579	80.000	19.996	103.143	19.968	3.386	0.497
776.000	464.574	80.000	19.995	103.151	19.966	3.517	0.519
778.000	465.578	80.000	19.994	103.148	19.969	3.270	0.516
780.000	466.633	80.001	19.995	103.140	19.965	3.568	0.508
782.000	467.590	80.000	19.995	103.135	19.966	3.483	0.492
784.000	468.575	80.000	19.996	103.134	19.967	3.414	0.464
786.000	469.587	79.999	19.995	103.127	19.968	3.329	0.470
788.000	470.581	80.000	19.995	103.127	19.971	3.118	0.504
790.000	471.591	80.000	19.995	103.131	19.968	3.365	0.496
792.000	472.591	79.999	19.995	103.134	19.975	2.862	0.490
794.000	473.565	80.001	19.995	103.128	19.970	3.200	0.469
796.000	474.605	80.001	19.996	103.124	19.973	3.044	0.509
798.000	475.583	80.001	19.996	103.126	19.976	2.775	0.475
800.000	476.569	80.003	19.995	103.117	19.976	2.794	0.497
802.000	477.544	80.002	19.994	103.117	19.978	2.688	0.476
804.000	478.511	80.002	19.995	103.123	19.978	2.669	0.486
806.000	479.471	80.002	19.994	103.120	19.974	2.955	0.482
808.000	480.414	80.002	19.995	103.124	19.975	2.846	0.475
810.000	481.400	80.001	19.995	103.121	19.977	2.713	0.488
812.000	482.330	80.001	19.994	103.117	19.980	2.563	0.459
814.000	483.305	80.000	19.994	103.117	19.980	2.517	0.463
816.000	484.278	79.999	19.995	103.120	19.980	2.525	0.508
818.000	485.218	80.001	19.996	103.132	19.982	2.413	0.493
820.000	486.180	80.000	19.997	103.132	19.982	2.372	0.483
822.000	487.199	80.000	19.997	103.122	19.981	2.453	0.501
824.000	488.197	80.000	19.997	103.123	19.985	2.152	0.493
826.000	489.180	80.001	19.997	103.120	19.984	2.275	0.465
828.000	490.171	80.001	19.996	103.121	19.984	2.241	0.479
830.000	491.213	80.000	19.995	103.125	19.985	2.215	0.500
832.000	492.156	79.998	19.995	103.134	19.986	2.137	0.492
834.000	493.130	80.001	19.995	103.131	19.982	2.382	0.495
836.000	494.192	79.999	19.995	103.122	19.988	1.987	0.531
838.000	495.217	80.000	19.996	103.134	19.987	2.078	0.503
840.001	496.212	80.000	19.995	103.146	19.985	2.173	0.474
842.000	497.206	79.999	19.995	103.141	19.982	2.416	0.479
844.000	498.272	79.999	19.996	103.150	19.986	2.138	0.516
846.000	499.344	79.998	19.997	103.136	19.986	2.144	0.515
848.000	500.383	79.997	19.996	103.130	19.983	2.325	0.560
850.000	501.494	79.996	19.996	103.147	19.984	2.281	0.568
852.000	502.560	79.999	19.996	103.152	19.985	2.193	0.538
854.000	503.608	79.998	19.996	103.131	19.985	2.207	0.547
856.000	504.662	80.000	19.996	103.128	19.985	2.199	0.521
858.000	505.775	80.001	19.996	103.153	19.984	2.282	0.530
860.000	506.857	80.002	19.997	103.141	19.983	2.349	0.548
862.000	507.960	80.001	19.995	103.139	19.988	1.993	0.543
864.000	509.000	80.000	19.995	103.130	19.986	2.114	0.525
866.000	510.116	80.001	19.994	103.121	19.985	2.186	0.540
868.000	511.228	80.001	19.995	103.125	19.981	2.440	0.546
870.000	512.295	80.001	19.995	103.126	19.985	2.176	0.554
872.000	513.369	80.000	19.996	103.129	19.987	2.036	0.514
874.000	514.501	80.000	19.996	103.133	19.986	2.100	0.560
876.000	515.612	80.001	19.996	103.140	19.986	2.085	0.559
878.001	516.678	80.002	19.995	103.123	19.987	2.021	0.546
880.000	517.714	80.001	19.995	103.126	19.987	2.047	0.533
882.000	518.818	80.001	19.994	103.122	19.993	1.611	0.537
884.000	519.833	80.002	19.995	103.116	19.995	1.516	0.500
886.000	520.918	80.003	19.995	103.118	19.990	1.822	0.514
888.000	521.934	80.003	19.995	103.117	19.990	1.862	0.501
890.000	522.970	80.001	19.995	103.113	19.987	2.068	0.507
892.000	524.008	80.001	19.995	103.117	19.991	1.774	0.512
894.000	524.969	80.000	19.994	103.119	19.990	1.816	0.511
896.000	525.965	80.000	19.995	103.120	19.990	1.805	0.494
898.000	526.967	80.000	19.995	103.123	19.990	1.841	0.501
900.000	528.012	80.001	19.994	103.124	19.988	2.002	0.528
902.000	528.952	80.000	19.994	103.129	19.988	1.949	0.486
904.000	529.958	79.999	19.995	103.128	19.990	1.864	0.491
906.000	531.053	79.999	19.995	103.122	19.989	1.879	0.535
908.000	532.067	80.001	19.996	103.131	19.991	1.736	0.521
910.000	533.099	79.999	19.996	103.130	19.988	1.949	0.509
912.000	534.143	79.999	19.995	103.129	19.993	1.636	0.556
914.000	535.190	79.997	19.996	103.140	19.992	1.687	0.541
916.000	536.265	79.998	19.996	103.126	19.992	1.693	0.540
918.000	537.347	80.000	19.995	103.128	19.987	2.038	0.540
920.000	538.350	79.999	19.996	103.123	19.990	1.814	0.525
922.000	539.445	79.998	19.995	103.125	19.991	1.782	0.528
924.000	540.519	80.001	19.995	103.124	19.990	1.854	0.545
926.000	541.540	80.001	19.996	103.130	19.995	1.522	0.517
928.000	542.664	79.999	19.997	103.130	19.990	1.839	0.527
930.000	543.714	80.001	19.996	103.135	19.988	1.966	0.567
932.000	544.789	79.999	19.995	103.122	19.993	1.653	0.538
934.000	545.864	80.000	19.996	103.134	19.990	1.860	0.557
936.000	546.967	80.000	19.996	103.128	19.989	1.894	0.546
938.000	548.079	80.001	19.995	103.130	19.990	1.826	0.560
940.000	549.170	80.001	19.996	103.138	19.992	1.685	0.540
942.000	550.269	80.001	19.996	103.132	19.990	1.839	0.529
944.000	551.381	79.999	19.996	103.133	19.991	1.737	0.547
946.000	552.463	80.003	19.997	103.126	19.990	1.833	0.571
948.000	553.525	79.999	19.996	103.124	19.987	2.040	0.546
950.000	554.622	80.000	19.995	103.126	19.990	1.852	0.536
952.000	555.730	80.000	19.995	103.118	19.991	1.790	0.553
954.000	556.856	80.001	19.996	103.131	19.984	2.262	0.568
956.000	557.930	80.000	19.995	103.124	19.991	1.797	0.554
958.000	559.038	80.001	19.995	103.126	19.992	1.670	0.547
960.000	560.117	80.003	19.995	103.127	19.986	2.089	0.536
962.000	561.184	80.001	19.995	103.126	19.989	1.890	0.534
964.000	562.281	80.002	19.995	103.128	19.991	1.780	0.529
966.000	563.359	80.001	19.995	103.129	19.988	1.990	0.546
968.000	564.441	80.001	19.993	103.142	19.989	1.879	0.545
970.000	565.536	80.002	19.995	103.125	19.991	1.803	0.583
972.000	566.604	80.001	19.995	103.134	19.990	1.805	0.563
974.000	567.653	80.000	19.995	103.134	19.987	2.015	0.532
976.000	568.691	80.001	19.995	103.124	19.986	2.148	0.535
978.000	569.754	79.999	19.996	103.128	19.985	2.176	0.540
980.000	570.806	79.999	19.997	103.131	19.986	2.089	0.531
982.000	571.874	80.000	19.996	103.129	19.984	2.277	0.518
984.000	572.926	80.000	19.995	103.121	19.988	1.954	0.506
986.000	573.951	80.000	19.995	103.119	19.982	2.400	0.526
988.000	575.050	80.001	19.996	103.116	19.988	2.002	0.554
990.000	576.017	79.999	19.994	103.118	19.986	2.100	0.502
992.000	576.997	79.999	19.995	103.117	19.989	1.881	0.486
994.000	577.999	80.001	19.995	103.111	19.989	1.886	0.505
996.000	578.982	80.000	19.995	103.107	19.991	1.767	0.489
998.000	579.949	80.000	19.995	103.107	19.983	2.311	0.469
1000.000	580.929	80.000	19.993	103.116	19.993	1.649	0.468
1002.000	581.883	79.999	19.996	103.118	19.992	1.689	0.495
1004.000	582.872	79.999	19.996	103.134	19.990	1.860	0.472
1006.001	583.842	80.000	19.996	103.120	19.992	1.702	0.486
1008.000	584.780	79.997	19.995	103.118	19.993	1.621	0.465
1010.000	585.753	80.000	19.996	103.119	19.991	1.791	0.471
1012.000	586.786	80.000	19.995	103.119	19.993	1.653	0.481
1014.000	587.712	80.001	19.996	103.121	19.989	1.905	0.479
1016.001	588.736	80.003	19.996	103.119	19.994	1.545	0.491
1018.000	589.721	79.999	19.996	103.117	19.991	1.757	0.469
1020.000	590.722	80.003	19.997	103.118	19.993	1.636	0.516
1022.000	591.668	80.002	19.996	103.119	19.997	1.350	0.497
1024.000	592.654	80.001	19.995	103.120	19.993	1.619	0.466
1026.000	593.674	80.003	19.996	103.121	19.989	1.888	0.495
1028.001	594.646	80.000	19.996	103.123	19.989	1.939	0.496
1030.000	595.668	79.998	19.995	103.121	19.990	1.860	0.467
1032.000	596.673	79.998	19.995	103.118	19.992	1.668	0.498
1034.000	597.664	80.000	19.998	103.119	19.997	1.353	0.518
1036.000	598.589	80.000	19.997	103.120	19.994	1.579	0.463
1038.000	599.615	79.999	19.996	103.127	19.990	1.827	0.486
1040.000	600.651	80.001	19.996	103.120	19.994	1.541	0.513
1042.000	601.652	80.000	19.995	103.129	19.990	1.808	0.482
1044.000	602.696	80.001	19.994	103.124	19.990	1.837	0.530
1046.000	603.717	80.001	19.996	103.122	19.992	1.714	0.493
1048.000	604.756	80.003	19.996	103.121	19.991	1.769	0.515
1050.000	605.800	80.004	19.995	103.120	19.989	1.894	0.535
1052.001	606.805	80.001	19.994	103.117	19.987	2.011	0.479
1054.000	607.893	80.000	19.995	103.122	19.988	1.956	0.544
1056.000	608.911	79.998	19.996	103.123	19.988	1.975	0.504
1058.000	609.949	79.999	19.995	103.119	19.985	2.169	0.518
1060.000	611.008	80.000	19.995	103.118	19.985	2.180	0.533
1062.000	612.055	80.001	19.996	103.124	19.984	2.233	0.510
1064.000	613.141	79.999	19.996	103.122	19.987	2.019	0.545
1066.000	614.148	79.999	19.995	103.119	19.984	2.248	0.515
1068.000	615.261	80.000	19.995	103.119	19.985	2.182	0.538
1070.001	616.277	80.000	19.997	103.119	19.983	2.298	0.504
1072.000	617.314	79.999	19.995	103.118	19.984	2.222	0.519
1074.000	618.401	80.000	19.994	103.117	19.988	1.970	0.542
1076.000	619.476	80.000	19.995	103.120	19.986	2.135	0.548
1078.000	620.530	80.002	19.995	103.124	19.985	2.161	0.528
1080.001	621.546	80.001	19.996	103.120	19.986	2.144	0.507
1082.000	622.630	79.998	19.995	103.127	19.988	1.981	0.540
1084.001	623.670	79.999	19.996	103.127	19.989	1.879	0.490
1086.000	624.717	79.997	19.995	103.122	19.990	1.841	0.533
1088.000	625.794	79.998	19.996	103.121	19.986	2.133	0.530
1090.000	626.848	79.998	19.995	103.121	19.986	2.142	0.508
1092.000	627.910	79.996	19.996	103.123	19.984	2.277	0.530
1094.000	628.962	80.000	19.995	103.121	19.989	1.930	0.551
1096.001	630.001	79.999	19.997	103.119	19.987	2.064	0.519
1098.001	631.100	80.001	19.996	103.121	19.984	2.258	0.538
1100.000	632.128	79.999	19.995	103.128	19.982	2.356	0.522
1102.000	633.188	80.001	19.995	103.120	19.988	1.968	0.518
1104.000	634.232	80.000	19.996	103.120	19.983	2.324	0.538
1106.001	635.292	79.998	19.995	103.116	19.988	1.964	0.551
1108.000	636.330	79.999	19.994	103.123	19.984	2.223	0.504
1110.000	637.326	79.999	19.996	103.117	19.990	1.863	0.499
1112.000	638.366	79.997	19.995	103.118	19.985	2.172	0.523
1114.000	639.378	79.998	19.993	103.115	19.987	2.017	0.518
1116.001	640.401	80.000	19.997	103.109	19.987	2.066	0.508
1118.000	641.355	80.001	19.996	103.114	19.991	1.748	0.485
1120.001	642.421	80.001	19.996	103.116	19.989	1.924	0.531
1122.000	643.414	80.000	19.995	103.115	19.986	2.100	0.504
1124.001	644.438	80.002	19.997	103.114	19.988	1.998	0.499
1126.001	645.439	80.002	19.995	103.113	19.987	2.030	0.498
1128.000	646.482	80.003	19.997	103.112	19.990	1.846	0.539
1130.001	647.489	80.000	19.996	103.113	19.988	1.946	0.511
1132.000	648.513	80.002	19.996	103.113	19.987	2.017	0.514
1134.001	649.524	79.999	19.996	103.108	19.992	1.712	0.518
1136.002	650.587	79.999	19.996	103.108	19.988	1.956	0.516
1138.000	651.606	80.000	19.995	103.101	19.990	1.846	0.503
1140.000	652.658	80.001	19.996	103.107	19.986	2.089	0.503
1142.000	653.713	80.000	19.995	103.094	19.992	1.695	0.532
1144.000	654.773	79.996	19.995	103.111	19.991	1.793	0.522
1146.001	655.787	79.997	19.995	103.107	19.989	1.933	0.478
1148.000	656.794	79.999	19.994	103.100	19.987	2.059	0.489
1150.000	657.863	79.999	19.995	103.111	19.991	1.751	0.501
1152.000	658.880	80.000	19.995	103.116	19.992	1.719	0.498
1154.000	659.903	80.000	19.997	103.118	19.986	2.127	0.514
1156.000	660.879	79.998	19.996	103.115	19.988	1.947	0.495
1158.000	661.900	79.999	19.996	103.119	19.989	1.888	0.512
1160.000	662.884	79.999	19.993	103.112	19.986	2.108	0.499
1162.000	663.918	79.999	19.994	103.110	19.988	1.960	0.527
1164.000	664.862	80.000	19.995	103.117	19.988	2.009	0.502
1166.000	665.903	79.997	19.996	103.120	19.981	2.453	0.513
1168.000	666.867	80.001	19.995	103.114	19.986	2.125	0.503
1170.000	667.848	79.997	19.995	103.113	19.986	2.093	0.482
1172.000	668.892	80.000	19.995	103.121	19.986	2.085	0.520
1174.000	669.869	80.000	19.995	103.120	19.983	2.328	0.495
1176.000	670.866	80.000	19.995	103.099	19.988	2.003	0.497
1178.000	671.872	80.001	19.995	103.106	19.992	1.690	0.511
1180.000	672.892	79.998	19.994	103.110	19.987	2.017	0.509
1182.000	673.932	80.002	19.996	103.110	19.992	1.717	0.524
1184.000	674.915	80.001	19.996	103.113	19.992	1.710	0.514
1186.000	675.972	80.002	19.996	103.113	19.986	2.130	0.491
1188.000	676.961	80.000	19.996	103.091	19.991	1.765	0.494
1190.000	678.003	80.001	19.998	103.109	19.989	1.891	0.503
1192.000	679.048	80.000	19.996	103.117	19.988	1.948	0.480
1194.000	680.045	80.001	19.996	103.115	19.988	1.997	0.500
1196.000	681.102	80.000	19.997	103.104	19.990	1.812	0.519
1198.000	682.119	80.002	19.995	103.109	19.990	1.815	0.509
1200.000	683.145	80.003	19.995	103.105	19.987	2.041	0.513
1202.000	684.161	80.002	19.995	103.086	19.990	1.852	0.523
1204.000	685.150	79.999	19.996	103.090	19.986	2.123	0.477
1206.000	686.194	80.003	19.994	103.103	19.988	2.001	0.510
1208.000	687.228	80.002	19.995	103.095	19.991	1.780	0.522
1210.001	688.221	80.000	19.995	103.085	19.986	2.132	0.507
1212.000	689.258	80.000	19.997	103.102	19.986	2.088	0.524
1214.000	690.256	80.000	19.996	103.115	19.989	1.910	0.480
1216.000	691.284	79.998	19.997	103.097	19.991	1.778	0.484
1218.000	692.316	79.999	19.996	103.107	19.990	1.818	0.532
1220.000	693.343	80.000	19.996	103.103	19.989	1.907	0.517
1222.000	694.378	79.999	19.997	103.100	19.983	2.314	0.510
1224.000	695.439	79.999	19.996	103.089	19.989	1.920	0.539
1226.000	696.439	79.999	19.994	103.086	19.985	2.168	0.518
1228.000	697.474	79.999	19.994	103.100	19.990	1.804	0.501
1230.000	698.491	79.999	19.995	103.098	19.990	1.812	0.467
1232.000	699.575	80.000	19.996	103.107	19.986	2.081	0.501
1234.000	700.579	79.999	19.996	103.112	19.991	1.763	0.497
1236.000	701.608	80.000	19.994	103.089	19.993	1.662	0.525
1238.000	702.602	80.000	19.995	103.098	19.990	1.838	0.491
1240.000	703.645	79.999	19.994	103.093	19.989	1.909	0.510
1242.000	704.707	80.000	19.996	103.108	19.989	1.884	0.517
1244.000	705.709	80.000	19.996	103.109	19.992	1.724	0.520
1246.000	706.704	79.997	19.995	103.112	19.992	1.709	0.532
1248.000	707.710	79.999	19.997	103.108	19.988	1.959	0.523
1250.000	708.700	79.996	19.996	103.098	19.993	1.630	0.490
1252.000	709.753	79.998	19.995	103.094	19.991	1.762	0.532
1254.000	710.722	79.999	19.996	103.083	19.994	1.550	0.506
1256.000	711.754	79.999	19.995	103.086	19.989	1.884	0.506
1258.000	712.741	80.002	19.995	103.086	19.986	2.100	0.500
1260.000	713.678	80.001	19.996	103.081	19.992	1.677	0.497
1262.000	714.650	80.003	19.996	103.086	19.989	1.918	0.503
1264.000	715.620	80.002	19.995	103.090	19.987	2.051	0.483
1266.000	716.642	79.999	19.994	103.088	19.989	1.891	0.528
1268.000	717.632	80.000	19.994	103.090	19.990	1.825	0.496
1270.000	718.603	80.000	19.995	103.085	19.990	1.832	0.498
1272.001	719.531	80.001	19.995	103.089	19.990	1.836	0.459
1274.000	720.571	80.002	19.997	103.095	19.987	2.071	0.513
1276.000	721.449	80.000	19.996	103.090	19.988	1.958	0.454
1278.000	722.468	80.000	19.996	103.087	19.984	2.269	0.492
1280.000	723.450	80.003	19.995	103.081	19.990	1.842	0.491
1282.000	724.388	80.002	19.997	103.091	19.991	1.768	0.462
1284.000	725.353	80.001	19.996	103.093	19.984	2.227	0.467
1286.000	726.288	80.000	19.995	103.094	19.988	1.954	0.479
1288.000	727.237	80.000	19.994	103.101	19.988	1.994	0.499
1290.000	728.163	80.002	19.994	103.104	19.988	1.990	0.478
1292.000	729.135	80.000	19.996	103.086	19.987	2.071	0.465
1294.000	730.146	80.000	19.994	103.095	19.991	1.802	0.502
1296.000	731.119	79.999	19.995	103.095	19.988	1.956	0.529
1298.000	732.076	79.999	19.995	103.099	19.987	2.043	0.489
1300.000	733.081	79.998	19.995	103.098	19.989	1.886	0.500
1302.000	734.062	79.999	19.995	103.089	19.986	2.145	0.494
1304.000	735.093	80.000	19.996	103.089	19.993	1.656	0.494
1306.000	736.088	79.999	19.996	103.087	19.986	2.113	0.507
1308.000	737.085	79.999	19.996	103.088	19.989	1.902	0.536
1310.000	738.069	79.998	19.997	103.095	19.985	2.179	0.509
1312.000	739.101	80.000	19.995	103.089	19.989	1.908	0.517
1314.000	740.077	79.998	19.996	103.078	19.992	1.698	0.494
1316.000	741.091	80.000	19.995	103.099	19.989	1.902	0.519
1318.000	742.124	79.998	19.996	103.088	19.992	1.683	0.517
1320.001	743.100	79.999	19.996	103.084	19.988	1.958	0.504
1321.000	743.616	79.999	19.995	103.083	19.996	1.425	0.513