File: 01_Data/Bamboo_Rug_Bamboo/STA/N2/10K_min/Bamboo_Rug_A_STA_N2_10KData_220120_R3.csv
##Temp./Â°C,Time/min,Mass loss(subtr.)/mg,DSC(subtr.)/(mW/mg),Sensit./(uV/mW)
49.333,10.00917,-0.04969,0.01266697,1.07447
50.033,10.76828,-0.05296376,0.04407047,1.07442
50.733,10.9712,-0.05411449,0.06824512,1.07437
51.433,11.12293,-0.05308511,0.08759452,1.07432
52.133,11.25152,-0.05444529,0.10615,1.07427
52.833,11.3662,-0.05287776,0.11981,1.07421
53.533,11.47298,-0.05142731,0.13052,1.07416
54.233,11.5733,-0.04964998,0.14101,1.07411
54.933,11.66847,-0.05201691,0.15013,1.07405
55.633,11.75966,-0.05386067,0.15935,1.07399
56.333,11.8482,-0.05556696,0.16514,1.07393
57.033,11.93436,-0.05525798,0.17098,1.07387
57.733,12.01848,-0.055093,0.17944,1.07381
58.433,12.1012,-0.05635452,0.18163,1.07375
59.133,12.1831,-0.05510277,0.18666,1.07369
59.833,12.2638,-0.05551788,0.19232,1.07362
60.533,12.34367,-0.05527582,0.19508,1.07356
61.233,12.4223,-0.05528463,0.19977,1.07349
61.933,12.5002,-0.05648275,0.20217,1.07342
62.633,12.57782,-0.0559107,0.20557,1.07335
63.333,12.6556,-0.05682873,0.20823,1.07328
64.033,12.73277,-0.05781207,0.21001,1.07321
64.733,12.80949,-0.05780228,0.21472,1.07314
65.433,12.88565,-0.05849402,0.21544,1.07307
66.133,12.962,-0.0590987,0.22008,1.07299
66.833,13.0379,-0.05778494,0.2221,1.07292
67.533,13.11359,-0.0577141,0.22399,1.07284
68.233,13.18946,-0.05912,0.22867,1.07276
68.933,13.26511,-0.06039763,0.22772,1.07268
69.633,13.34031,-0.05914194,0.22969,1.0726
70.333,13.4148,-0.06003983,0.23219,1.07252
71.033,13.4893,-0.06043745,0.23488,1.07244
71.733,13.5639,-0.06043724,0.23493,1.07235
72.433,13.6384,-0.06174857,0.2382,1.07227
73.133,13.71241,-0.06305997,0.23934,1.07218
73.833,13.78646,-0.06191448,0.23992,1.07209
74.533,13.86025,-0.06306873,0.24204,1.07201
75.233,13.9339,-0.06439044,0.24566,1.07192
75.933,14.00716,-0.06432168,0.24576,1.07183
76.633,14.0802,-0.06438446,0.24579,1.07173
77.333,14.1527,-0.06389806,0.24697,1.07164
78.033,14.2254,-0.06348104,0.24927,1.07155
78.733,14.29759,-0.06367967,0.24982,1.07145
79.433,14.37011,-0.06439382,0.25363,1.07135
80.133,14.4424,-0.06570048,0.25417,1.07126
80.833,14.51482,-0.06578548,0.25496,1.07116
81.533,14.58661,-0.06701782,0.25604,1.07106
82.233,14.6583,-0.06702173,0.25716,1.07096
82.933,14.72965,-0.06833094,0.25789,1.07086
83.633,14.801,-0.06833,0.2577,1.07075
84.333,14.872,-0.06832971,0.25676,1.07065
85.033,14.9432,-0.06965137,0.25816,1.07054
85.733,15.01423,-0.06898919,0.2582,1.07044
86.433,15.0851,-0.06832543,0.25771,1.07033
87.133,15.15593,-0.06965268,0.25772,1.07022
87.833,15.22644,-0.06834249,0.2558,1.07011
88.533,15.297,-0.06964916,0.25603,1.07
89.233,15.36713,-0.07100817,0.25755,1.06989
89.933,15.43746,-0.07098199,0.25662,1.06977
90.633,15.50779,-0.06997492,0.25694,1.06966
91.333,15.57789,-0.07128979,0.25286,1.06954
92.033,15.6479,-0.07227164,0.25128,1.06943
92.733,15.71766,-0.07260937,0.25549,1.06931
93.433,15.78759,-0.07348588,0.25463,1.06919
94.133,15.85716,-0.07360569,0.25253,1.06907
94.833,15.9265,-0.07228644,0.25215,1.06895
95.533,15.99581,-0.07360252,0.25291,1.06883
96.233,16.06495,-0.0749987,0.25295,1.0687
96.933,16.13425,-0.07491987,0.25082,1.06858
97.633,16.20279,-0.07371236,0.25055,1.06845
98.333,16.2717,-0.07362591,0.24795,1.06833
99.033,16.34055,-0.07228722,0.24774,1.0682
99.733,16.40975,-0.07359996,0.24594,1.06807
100.433,16.47885,-0.0736,0.24682,1.06794
101.133,16.54767,-0.07361696,0.24278,1.06781
101.833,16.61638,-0.07490994,0.24594,1.06768
102.533,16.68485,-0.07459217,0.24639,1.06754
103.233,16.75314,-0.07492541,0.24497,1.06741
103.933,16.82135,-0.07622837,0.24672,1.06727
104.633,16.88971,-0.07523071,0.24595,1.06713
105.333,16.95816,-0.07623001,0.2447,1.067
106.033,17.02655,-0.07623,0.24603,1.06686
106.733,17.09464,-0.07623,0.24448,1.06672
107.433,17.16294,-0.07623,0.24358,1.06658
108.133,17.2314,-0.07746297,0.24447,1.06643
108.833,17.3001,-0.07623016,0.24543,1.06629
109.533,17.36836,-0.07754741,0.24491,1.06615
110.233,17.43656,-0.07756319,0.24513,1.066
110.933,17.50457,-0.07856802,0.24369,1.06585
111.633,17.57292,-0.07920122,0.24335,1.06571
112.333,17.64164,-0.0792181,0.24167,1.06556
113.033,17.71032,-0.07752169,0.24027,1.06541
113.733,17.77887,-0.07755,0.24148,1.06526
114.433,17.8472,-0.07754998,0.23992,1.0651
115.133,17.91526,-0.07893507,0.24086,1.06495
115.833,17.98346,-0.07849784,0.24011,1.06479
116.533,18.05169,-0.07886989,0.23925,1.06464
117.233,18.1202,-0.07887018,0.23918,1.06448
117.933,18.18851,-0.08018578,0.24002,1.06432
118.633,18.25682,-0.0800882,0.2413,1.06417
119.333,18.32496,-0.08115987,0.24176,1.06401
120.033,18.39322,-0.08041375,0.24206,1.06384
120.733,18.46132,-0.08114809,0.24288,1.06368
121.433,18.52952,-0.08117,0.24313,1.06352
122.133,18.59768,-0.08115738,0.24507,1.06335
122.833,18.666,-0.08136985,0.24377,1.06319
123.533,18.73425,-0.0811611,0.24587,1.06302
124.233,18.8024,-0.08182987,0.24586,1.06285
124.933,18.87019,-0.08115977,0.24717,1.06269
125.633,18.93816,-0.08116,0.24705,1.06252
126.333,19.00605,-0.08115997,0.24893,1.06234
127.033,19.0742,-0.08257104,0.24892,1.06217
127.733,19.14209,-0.08144275,0.24798,1.062
128.433,19.20975,-0.08148656,0.24908,1.06182
129.133,19.27749,-0.08117002,0.24977,1.06165
129.833,19.34509,-0.08117013,0.24908,1.06147
130.533,19.413,-0.08238644,0.25223,1.0613
131.233,19.4808,-0.08107792,0.25333,1.06112
131.933,19.54873,-0.08181959,0.25089,1.06094
132.633,19.61654,-0.08248097,0.25136,1.06076
133.333,19.68443,-0.0824803,0.25308,1.06057
134.033,19.75225,-0.08345993,0.25219,1.06039
134.733,19.82009,-0.08379979,0.25121,1.06021
135.433,19.888,-0.08304092,0.25325,1.06002
136.133,19.95574,-0.08380045,0.25194,1.05984
136.833,20.02337,-0.08248413,0.25484,1.05965
137.533,20.0907,-0.08249,0.25443,1.05946
138.233,20.15831,-0.08248837,0.25567,1.05927
138.933,20.22568,-0.08380079,0.25698,1.05908
139.633,20.29338,-0.08248191,0.25542,1.05889
140.333,20.3608,-0.08327347,0.25855,1.05869
141.033,20.42845,-0.08509537,0.25806,1.0585
141.733,20.49597,-0.08512627,0.25856,1.05831
142.433,20.56344,-0.08420987,0.25928,1.05811
143.133,20.63091,-0.08479003,0.26007,1.05791
143.833,20.6983,-0.08479,0.2617,1.05772
144.533,20.7655,-0.08479,0.26277,1.05752
145.233,20.83247,-0.08479003,0.2641,1.05732
145.933,20.89963,-0.08512863,0.2642,1.05711
146.633,20.96666,-0.08642304,0.26574,1.05691
147.333,21.03398,-0.08643,0.26599,1.05671
148.033,21.10087,-0.08643,0.26792,1.0565
148.733,21.16816,-0.08643013,0.26695,1.0563
149.433,21.23536,-0.08501624,0.26735,1.05609
150.133,21.30232,-0.08512206,0.26871,1.05588
150.833,21.36938,-0.08512,0.26914,1.05568
151.533,21.43646,-0.0850718,0.27011,1.05547
152.233,21.50384,-0.0864983,0.27207,1.05525
152.933,21.57059,-0.08774991,0.27277,1.05504
153.633,21.63749,-0.08893872,0.2723,1.05483
154.333,21.70441,-0.08854245,0.27355,1.05461
155.033,21.7715,-0.08808042,0.27408,1.0544
155.733,21.83866,-0.08939446,0.27514,1.05418
156.433,21.90587,-0.09006741,0.27753,1.05397
157.133,21.9729,-0.09004859,0.27553,1.05375
157.833,22.03997,-0.09071071,0.27931,1.05353
158.533,22.10673,-0.09200044,0.27806,1.05331
159.233,22.17383,-0.09071177,0.28053,1.05309
159.933,22.241,-0.09071,0.27965,1.05286
160.633,22.3085,-0.09071,0.28033,1.05264
161.333,22.37571,-0.09071019,0.28103,1.05242
162.033,22.44275,-0.09038556,0.28388,1.05219
162.733,22.50984,-0.09202107,0.28349,1.05196
163.433,22.57705,-0.09177663,0.28498,1.05174
164.133,22.6444,-0.09235342,0.28352,1.05151
164.833,22.71169,-0.09222541,0.2863,1.05128
165.533,22.77895,-0.09334999,0.28854,1.05105
166.233,22.8463,-0.09205328,0.28825,1.05081
166.933,22.9137,-0.09326071,0.28825,1.05058
167.633,22.98105,-0.09334,0.2904,1.05035
168.333,23.04805,-0.09333986,0.28951,1.05011
169.033,23.11475,-0.09470386,0.29045,1.04987
169.733,23.18165,-0.09465999,0.29154,1.04964
170.433,23.24845,-0.09465981,0.2904,1.0494
171.133,23.31607,-0.09597429,0.29282,1.04916
171.833,23.38326,-0.09597,0.29472,1.04892
172.533,23.45028,-0.09596276,0.29543,1.04868
173.233,23.5172,-0.09630007,0.2935,1.04844
173.933,23.58427,-0.09630419,0.2951,1.04819
174.633,23.65145,-0.0986929,0.2965,1.04795
175.333,23.71858,-0.09860985,0.29613,1.0477
176.033,23.7857,-0.09992411,0.2988,1.04746
176.733,23.85265,-0.09992,0.29964,1.04721
177.433,23.9193,-0.09992,0.29805,1.04696
178.133,23.98581,-0.09991996,0.29858,1.04671
178.833,24.053,-0.10025,0.30041,1.04646
179.533,24.1204,-0.10167,0.30176,1.04621
180.233,24.18786,-0.10255,0.30389,1.04595
180.933,24.25489,-0.10122,0.30454,1.0457
181.633,24.32173,-0.10222,0.30504,1.04545
182.333,24.3887,-0.10222,0.30509,1.04519
183.033,24.45575,-0.10354,0.30613,1.04493
183.733,24.52276,-0.10487,0.30916,1.04467
184.433,24.58986,-0.10523,0.30904,1.04442
185.133,24.65679,-0.10781,0.30802,1.04416
185.833,24.72379,-0.10782,0.31221,1.04389
186.533,24.7908,-0.10782,0.3111,1.04363
187.233,24.8579,-0.10812,0.31406,1.04337
187.933,24.92486,-0.10851,0.31422,1.04311
188.633,24.99158,-0.10867,0.31693,1.04284
189.333,25.05836,-0.10975,0.31673,1.04258
190.033,25.12519,-0.11111,0.31725,1.04231
190.733,25.19214,-0.11211,0.31837,1.04204
191.433,25.25914,-0.1121,0.31852,1.04177
192.133,25.32592,-0.11276,0.31938,1.0415
192.833,25.39244,-0.11406,0.3226,1.04123
193.533,25.45913,-0.11572,0.32301,1.04096
194.233,25.52595,-0.11573,0.3254,1.04068
194.933,25.59282,-0.1144,0.32453,1.04041
195.633,25.65975,-0.1144,0.32944,1.04014
196.333,25.72635,-0.11539,0.32875,1.03986
197.033,25.7932,-0.11694,0.33017,1.03958
197.733,25.86011,-0.1177,0.32984,1.0393
198.433,25.92703,-0.11835,0.33142,1.03902
199.133,25.9938,-0.12008,0.33268,1.03874
199.833,26.06055,-0.12098,0.33385,1.03846
200.533,26.1274,-0.12312,0.33521,1.03818
201.233,26.194,-0.12362,0.33855,1.0379
201.933,26.2609,-0.12364,0.3373,1.03761
202.633,26.3275,-0.12361,0.34012,1.03733
203.333,26.39436,-0.12363,0.33955,1.03704
204.033,26.4609,-0.12631,0.34369,1.03676
204.733,26.52787,-0.12812,0.34377,1.03647
205.433,26.59487,-0.1302,0.34486,1.03618
206.133,26.66187,-0.13041,0.34782,1.03589
206.833,26.72846,-0.13151,0.34679,1.0356
207.533,26.79475,-0.13148,0.34789,1.0353
208.233,26.8614,-0.13283,0.34721,1.03501
208.933,26.9282,-0.13408,0.34702,1.03472
209.633,26.9955,-0.13548,0.35021,1.03442
210.333,27.06275,-0.13677,0.35271,1.03413
211.033,27.1299,-0.13813,0.35332,1.03383
211.733,27.1966,-0.1393,0.35436,1.03353
212.433,27.26326,-0.13961,0.35567,1.03323
213.133,27.32985,-0.14072,0.3573,1.03293
213.833,27.3966,-0.14207,0.35926,1.03263
214.533,27.46317,-0.14335,0.35989,1.03233
215.233,27.5299,-0.14335,0.35918,1.03203
215.933,27.5967,-0.14462,0.3628,1.03172
216.633,27.6634,-0.14829,0.36299,1.03142
217.333,27.7302,-0.14997,0.36412,1.03111
218.033,27.7968,-0.15041,0.36304,1.03081
218.733,27.86362,-0.152,0.36454,1.0305
219.433,27.93038,-0.15433,0.36253,1.03019
220.133,27.99703,-0.1565,0.35899,1.02988
220.833,28.06377,-0.15784,0.35845,1.02957
221.533,28.13055,-0.15793,0.35837,1.02926
222.233,28.1977,-0.15927,0.35695,1.02894
222.933,28.26452,-0.16189,0.35596,1.02863
223.633,28.3315,-0.16328,0.35631,1.02832
224.333,28.3982,-0.16584,0.35741,1.028
225.033,28.4648,-0.17024,0.3569,1.02769
225.733,28.53136,-0.17001,0.35453,1.02737
226.433,28.59775,-0.17143,0.35707,1.02705
227.133,28.66439,-0.17422,0.35847,1.02673
227.833,28.73087,-0.17546,0.35739,1.02641
228.533,28.79784,-0.17683,0.35775,1.02609
229.233,28.86488,-0.17813,0.35537,1.02577
229.933,28.9317,-0.17946,0.35651,1.02544
230.633,28.9984,-0.18076,0.35753,1.02512
231.333,29.06482,-0.18338,0.35831,1.02479
232.033,29.13128,-0.18565,0.35817,1.02447
232.733,29.198,-0.18769,0.35692,1.02414
233.433,29.2645,-0.19126,0.35769,1.02381
234.133,29.33108,-0.19424,0.35957,1.02348
234.833,29.3975,-0.19675,0.35716,1.02315
235.533,29.464,-0.19875,0.35692,1.02282
236.233,29.53058,-0.20129,0.36004,1.02249
236.933,29.5968,-0.2025,0.36045,1.02216
237.633,29.6633,-0.20543,0.36056,1.02183
238.333,29.73,-0.20852,0.35766,1.02149
239.033,29.79713,-0.21287,0.35948,1.02116
239.733,29.86399,-0.21405,0.35902,1.02082
240.433,29.9308,-0.21792,0.35897,1.02048
241.133,29.99751,-0.22083,0.35884,1.02014
241.833,30.06417,-0.2208,0.36019,1.01981
242.533,30.1309,-0.22381,0.35944,1.01947
243.233,30.1974,-0.2257,0.36165,1.01912
243.933,30.2642,-0.22817,0.36141,1.01878
244.633,30.3309,-0.23066,0.35945,1.01844
245.333,30.39766,-0.23334,0.36286,1.0181
246.033,30.4643,-0.23622,0.36822,1.01775
246.733,30.53088,-0.24081,0.37095,1.01741
247.433,30.59736,-0.24791,0.37412,1.01706
248.133,30.66396,-0.25907,0.37625,1.01671
248.833,30.7305,-0.25919,0.37488,1.01636
249.533,30.7972,-0.25787,0.37832,1.01601
250.233,30.8639,-0.25928,0.37984,1.01566
250.933,30.9308,-0.26061,0.38074,1.01531
251.633,30.99762,-0.26437,0.38397,1.01496
252.333,31.0645,-0.26891,0.38195,1.01461
253.033,31.13125,-0.27109,0.38525,1.01425
253.733,31.19792,-0.27355,0.38051,1.0139
254.433,31.2647,-0.27695,0.37794,1.01354
255.133,31.3314,-0.28285,0.37362,1.01319
255.833,31.3982,-0.29013,0.36917,1.01283
256.533,31.4648,-0.29538,0.3655,1.01247
257.233,31.53138,-0.30106,0.36329,1.01211
257.933,31.59787,-0.3063,0.35977,1.01175
258.633,31.66455,-0.31111,0.35887,1.01139
259.333,31.73125,-0.31619,0.35794,1.01103
260.033,31.79765,-0.32137,0.3553,1.01066
260.733,31.8638,-0.32645,0.35592,1.0103
261.433,31.93007,-0.33299,0.35391,1.00994
262.133,31.9965,-0.34015,0.35468,1.00957
262.833,32.06313,-0.3458,0.35568,1.0092
263.533,32.12932,-0.35254,0.35587,1.00884
264.233,32.19592,-0.35911,0.35591,1.00847
264.933,32.2624,-0.36405,0.35301,1.0081
265.633,32.32888,-0.36699,0.35287,1.00773
266.333,32.39541,-0.37129,0.35123,1.00736
267.033,32.46179,-0.37725,0.35182,1.00699
267.733,32.52835,-0.38461,0.34751,1.00661
268.433,32.59491,-0.38933,0.34603,1.00624
269.133,32.6616,-0.39457,0.34678,1.00587
269.833,32.72833,-0.40103,0.34512,1.00549
270.533,32.79529,-0.4136,0.34204,1.00511
271.233,32.86226,-0.42349,0.34436,1.00474
271.933,32.92938,-0.43319,0.34258,1.00436
272.633,32.99664,-0.44247,0.33797,1.00398
273.333,33.06395,-0.45147,0.33803,1.0036
274.033,33.13135,-0.46158,0.33643,1.00322
274.733,33.1984,-0.4689,0.33395,1.00284
275.433,33.2657,-0.4773,0.33374,1.00245
276.133,33.3331,-0.48839,0.33481,1.00207
276.833,33.40061,-0.49717,0.33067,1.00169
277.533,33.46819,-0.50706,0.33156,1.0013
278.233,33.53597,-0.5176,0.32922,1.00092
278.933,33.6038,-0.52717,0.32688,1.00053
279.633,33.67145,-0.53519,0.32304,1.00014
280.333,33.73908,-0.54698,0.32462,0.99975
281.033,33.80662,-0.55961,0.32386,0.99936
281.733,33.87446,-0.57021,0.32196,0.99897
282.433,33.9422,-0.58123,0.31855,0.99858
283.133,34.0101,-0.5915,0.32105,0.99819
283.833,34.07758,-0.60273,0.31823,0.9978
284.533,34.14504,-0.61458,0.31937,0.9974
285.233,34.21266,-0.62561,0.31646,0.99701
285.933,34.28,-0.63735,0.31534,0.99661
286.633,34.34728,-0.64915,0.3146,0.99622
287.333,34.41479,-0.66262,0.31609,0.99582
288.033,34.48251,-0.6755,0.31761,0.99542
288.733,34.5503,-0.68733,0.31774,0.99502
289.433,34.61753,-0.69946,0.31532,0.99462
290.133,34.68468,-0.71106,0.31604,0.99422
290.833,34.75188,-0.7235,0.31417,0.99382
291.533,34.81919,-0.73764,0.31627,0.99342
292.233,34.88657,-0.75016,0.31457,0.99302
292.933,34.95394,-0.76233,0.31622,0.99261
293.633,35.021,-0.77663,0.31454,0.99221
294.333,35.0882,-0.78983,0.31631,0.9918
295.033,35.15511,-0.80292,0.31633,0.9914
295.733,35.2223,-0.81696,0.31742,0.99099
296.433,35.28946,-0.83082,0.31798,0.99058
297.133,35.35668,-0.84467,0.31582,0.99017
297.833,35.42368,-0.85841,0.31725,0.98976
298.533,35.49065,-0.87263,0.31606,0.98935
299.233,35.55742,-0.88612,0.31788,0.98894
299.933,35.6244,-0.90056,0.31856,0.98853
300.633,35.69146,-0.91508,0.31621,0.98812
301.333,35.75881,-0.92927,0.31734,0.9877
302.033,35.8262,-0.9442,0.31912,0.98729
302.733,35.89335,-0.9579,0.31807,0.98687
303.433,35.96053,-0.97164,0.31948,0.98646
304.133,36.0278,-0.98526,0.3205,0.98604
304.833,36.095,-1.00094,0.32161,0.98562
305.533,36.1623,-1.01602,0.32241,0.9852
306.233,36.22947,-1.03014,0.32233,0.98478
306.933,36.29672,-1.04573,0.32355,0.98436
307.633,36.36388,-1.06198,0.32323,0.98394
308.333,36.43128,-1.07722,0.32583,0.98352
309.033,36.49869,-1.09194,0.32608,0.9831
309.733,36.56615,-1.10514,0.3277,0.98267
310.433,36.63335,-1.11955,0.325,0.98225
311.133,36.70066,-1.13325,0.3308,0.98182
311.833,36.768,-1.1489,0.32864,0.9814
312.533,36.83546,-1.16362,0.33081,0.98097
313.233,36.90273,-1.17856,0.33195,0.98054
313.933,36.97006,-1.1923,0.33217,0.98011
314.633,37.03738,-1.20679,0.33223,0.97968
315.333,37.10485,-1.22238,0.33338,0.97925
316.033,37.17242,-1.23595,0.33538,0.97882
316.733,37.24,-1.25061,0.3375,0.97839
317.433,37.30768,-1.2636,0.33729,0.97796
318.133,37.37511,-1.27781,0.33886,0.97753
318.833,37.44254,-1.29204,0.3411,0.97709
319.533,37.51005,-1.30649,0.34358,0.97666
320.233,37.5775,-1.32194,0.3451,0.97622
320.933,37.6451,-1.33704,0.34601,0.97579
321.633,37.7125,-1.352,0.34733,0.97535
322.333,37.7802,-1.36731,0.34926,0.97491
323.033,37.84775,-1.38215,0.35282,0.97447
323.733,37.91556,-1.39738,0.35586,0.97403
324.433,37.98332,-1.41288,0.35904,0.97359
325.133,38.0511,-1.42748,0.36224,0.97315
325.833,38.1188,-1.44241,0.36622,0.97271
326.533,38.18639,-1.45704,0.36776,0.97227
327.233,38.25393,-1.47183,0.37158,0.97182
327.933,38.32138,-1.48654,0.37404,0.97138
328.633,38.38881,-1.50033,0.37652,0.97093
329.333,38.45609,-1.51566,0.3849,0.97049
330.033,38.5234,-1.5336,0.38806,0.97004
330.733,38.59073,-1.54969,0.39242,0.96959
331.433,38.65821,-1.56539,0.39691,0.96915
332.133,38.7256,-1.58204,0.40245,0.9687
332.833,38.79316,-1.59742,0.4056,0.96825
333.533,38.8606,-1.61203,0.41001,0.9678
334.233,38.928,-1.63029,0.41642,0.96735
334.933,38.99493,-1.64842,0.42095,0.9669
335.633,39.06238,-1.66431,0.42626,0.96644
336.333,39.12959,-1.68204,0.43133,0.96599
337.033,39.19761,-1.69976,0.43776,0.96554
337.733,39.2652,-1.71655,0.44257,0.96508
338.433,39.33305,-1.73383,0.44833,0.96462
339.133,39.40085,-1.75253,0.45435,0.96417
339.833,39.4685,-1.77494,0.46166,0.96371
340.533,39.5364,-1.79448,0.46873,0.96325
341.233,39.60413,-1.8137,0.47689,0.9628
341.933,39.6718,-1.8347,0.4843,0.96234
342.633,39.7396,-1.85485,0.49094,0.96188
343.333,39.8075,-1.87707,0.49843,0.96142
344.033,39.87539,-1.89764,0.50917,0.96095
344.733,39.9433,-1.92086,0.51647,0.96049
345.433,40.01122,-1.94398,0.5256,0.96003
346.133,40.07909,-1.9684,0.53717,0.95956
346.833,40.14696,-1.99383,0.544,0.9591
347.533,40.21501,-2.01892,0.5555,0.95864
348.233,40.28294,-2.04507,0.56627,0.95817
348.933,40.35067,-2.07322,0.57668,0.9577
349.633,40.41852,-2.09962,0.58783,0.95724
350.333,40.48644,-2.12929,0.5956,0.95677
351.033,40.55467,-2.15961,0.60631,0.9563
351.733,40.62258,-2.19005,0.61433,0.95583
352.433,40.6905,-2.22111,0.62292,0.95536
353.133,40.75841,-2.25394,0.62614,0.95489
353.833,40.82622,-2.28851,0.63198,0.95442
354.533,40.89362,-2.32098,0.63047,0.95394
355.233,40.96145,-2.35473,0.62676,0.95347
355.933,41.02924,-2.38889,0.61933,0.953
356.633,41.09726,-2.42289,0.60537,0.95252
357.333,41.16486,-2.45708,0.58882,0.95205
358.033,41.2325,-2.4917,0.56608,0.95157
358.733,41.30017,-2.5222,0.53644,0.95109
359.433,41.36779,-2.55154,0.50755,0.95062
360.133,41.43517,-2.58011,0.47453,0.95014
360.833,41.50248,-2.60652,0.43623,0.94966
361.533,41.56988,-2.63061,0.40108,0.94918
362.233,41.6374,-2.65232,0.367,0.9487
362.933,41.70482,-2.67334,0.3309,0.94822
363.633,41.7723,-2.6909,0.29867,0.94774
364.333,41.83965,-2.70847,0.27063,0.94726
365.033,41.90698,-2.72222,0.24104,0.94677
365.733,41.97433,-2.73566,0.21902,0.94629
366.433,42.042,-2.74561,0.19657,0.9458
367.133,42.1096,-2.75418,0.17886,0.94532
367.833,42.17723,-2.76312,0.16107,0.94483
368.533,42.24476,-2.77188,0.14622,0.94435
369.233,42.31258,-2.7802,0.13272,0.94386
369.933,42.3802,-2.78729,0.12054,0.94337
370.633,42.44792,-2.79351,0.11286,0.94288
371.333,42.51543,-2.79975,0.10644,0.9424
372.033,42.5834,-2.8036,0.096178,0.94191
372.733,42.65124,-2.80927,0.08933993,0.94141
373.433,42.71908,-2.81334,0.08681261,0.94092
374.133,42.78694,-2.81833,0.08097748,0.94043
374.833,42.85483,-2.8216,0.07367386,0.93994
375.533,42.92241,-2.82457,0.06992683,0.93945
376.233,42.99015,-2.8275,0.06466842,0.93895
376.933,43.05814,-2.83034,0.06132729,0.93846
377.633,43.12632,-2.83441,0.05981463,0.93796
378.333,43.19446,-2.83773,0.05767302,0.93747
379.033,43.26229,-2.84055,0.05245989,0.93697
379.733,43.3303,-2.84337,0.04858156,0.93647
380.433,43.39823,-2.84616,0.046019,0.93597
381.133,43.4661,-2.84912,0.04340123,0.93548
381.833,43.53396,-2.85336,0.04285031,0.93498
382.533,43.6019,-2.85465,0.04100081,0.93448
383.233,43.66986,-2.85711,0.03845607,0.93398
383.933,43.73787,-2.85994,0.03620101,0.93348
384.633,43.80593,-2.86297,0.03190331,0.93297
385.333,43.8739,-2.86445,0.03433348,0.93247
386.033,43.9422,-2.86749,0.03015736,0.93197
386.733,44.01031,-2.86911,0.0273478,0.93146
387.433,44.07884,-2.87148,0.02551736,0.93096
388.133,44.14705,-2.87364,0.02195983,0.93045
388.833,44.21519,-2.87443,0.02373121,0.92995
389.533,44.28354,-2.87686,0.0172832,0.92944
390.233,44.35176,-2.88023,0.01667923,0.92894
390.933,44.41983,-2.88299,0.01455916,0.92843
391.633,44.4878,-2.88695,0.01105435,0.92792
392.333,44.55608,-2.8895,0.009819473,0.92741
393.033,44.62446,-2.89171,0.009695863,0.9269
393.733,44.6926,-2.89561,0.007562671,0.92639
394.433,44.76082,-2.89716,0.005673861,0.92588
395.133,44.82912,-2.89813,0.0037333,0.92537
395.833,44.89734,-2.89969,0.002127694,0.92486
396.533,44.9655,-2.90253,-0.001643643,0.92434
397.233,45.0336,-2.90388,-0.001265905,0.92383
397.933,45.10174,-2.90655,-0.003346638,0.92332
398.633,45.16988,-2.90802,-0.00517857,0.9228
399.333,45.238,-2.91197,-0.00685908,0.92229
400.033,45.30624,-2.91189,-0.006233215,0.92177
400.733,45.37444,-2.91466,-0.01071124,0.92125
401.433,45.44273,-2.91592,-0.01054419,0.92074
402.133,45.51099,-2.91863,-0.01118032,0.92022
402.833,45.57918,-2.91863,-0.01229435,0.9197
403.533,45.64741,-2.9213,-0.01636302,0.91918
404.233,45.7157,-2.92258,-0.01465852,0.91866
404.933,45.784,-2.92672,-0.01562355,0.91814
405.633,45.85239,-2.92943,-0.01877611,0.91762
406.333,45.92053,-2.93122,-0.01730098,0.9171
407.033,45.98873,-2.9332,-0.01801777,0.91658
407.733,46.0567,-2.93453,-0.02038877,0.91606
408.433,46.12489,-2.93586,-0.02130214,0.91553
409.133,46.19312,-2.93718,-0.02159252,0.91501
409.833,46.26127,-2.93849,-0.0221306,0.91449
410.533,46.32959,-2.94061,-0.0247537,0.91396
411.233,46.39802,-2.94352,-0.02348603,0.91344
411.933,46.4664,-2.94723,-0.02539696,0.91291
412.633,46.53499,-2.94963,-0.02550137,0.91238
413.333,46.60351,-2.95147,-0.02470782,0.91185
414.033,46.67205,-2.95282,-0.02655585,0.91133
414.733,46.74065,-2.95416,-0.02784853,0.9108
415.433,46.80914,-2.9555,-0.02716446,0.91027
416.133,46.87775,-2.95739,-0.03078755,0.90974
416.833,46.94644,-2.95944,-0.02995098,0.90921
417.533,47.01502,-2.9609,-0.02680207,0.90868
418.233,47.0835,-2.96517,-0.03067157,0.90815
418.933,47.15188,-2.96803,-0.03185042,0.90762
419.633,47.22053,-2.97006,-0.03207233,0.90708
420.333,47.28922,-2.97271,-0.03172565,0.90655
421.033,47.3577,-2.97414,-0.03150327,0.90602
421.733,47.42605,-2.97547,-0.0308508,0.90548
422.433,47.4944,-2.97676,-0.02790893,0.90495
423.133,47.5629,-2.97957,-0.03198183,0.90441
423.833,47.63132,-2.98199,-0.03099438,0.90388
424.533,47.69999,-2.98247,-0.03214405,0.90334
425.233,47.76879,-2.98247,-0.03075224,0.9028
425.933,47.83752,-2.98248,-0.03157367,0.90226
426.633,47.906,-2.98392,-0.03055286,0.90173
427.333,47.97457,-2.98668,-0.03166816,0.90119
428.033,48.04318,-2.9895,-0.03357845,0.90065
428.733,48.1119,-2.98978,-0.02920983,0.90011
429.433,48.18054,-2.99224,-0.03166163,0.89957
430.133,48.24951,-2.99425,-0.02879436,0.89903
430.833,48.3186,-2.99748,-0.03159525,0.89848
431.533,48.3874,-2.99882,-0.0296217,0.89794
432.233,48.45592,-3.00062,-0.03060525,0.8974
432.933,48.5246,-3.00296,-0.03177349,0.89686
433.633,48.59366,-3.00429,-0.03000096,0.89631
434.333,48.66271,-3.00563,-0.02720072,0.89577
435.033,48.73149,-3.00711,-0.02578245,0.89522
435.733,48.80028,-3.00759,-0.02603776,0.89468
436.433,48.86919,-3.00979,-0.02487025,0.89413
437.133,48.93792,-3.01111,-0.02303245,0.89359
437.833,49.00674,-3.01317,-0.02294236,0.89304
438.533,49.0755,-3.01377,-0.02470628,0.89249
439.233,49.1445,-3.01627,-0.02219439,0.89194
439.933,49.21351,-3.01764,-0.02101175,0.89139
440.633,49.28253,-3.01993,-0.01907478,0.89085
441.333,49.35147,-3.02115,-0.01734005,0.8903
442.033,49.42028,-3.02385,-0.01829063,0.88975
442.733,49.4891,-3.02569,-0.01680977,0.8892
443.433,49.55803,-3.02658,-0.01484132,0.88864
444.133,49.62703,-3.02778,-0.01679319,0.88809
444.833,49.69603,-3.029,-0.01468746,0.88754
445.533,49.76501,-3.02974,-0.0140436,0.88699
446.233,49.8339,-3.02963,-0.01356045,0.88643
446.933,49.90268,-3.03094,-0.01139587,0.88588
447.633,49.97159,-3.03525,-0.00742619,0.88533
448.333,50.04007,-3.03758,-0.00804681,0.88477
449.033,50.1088,-3.03907,-0.006715515,0.88422
449.733,50.17779,-3.03962,-0.008798749,0.88366
450.433,50.24729,-3.0404,-0.008955918,0.8831
451.133,50.31673,-3.04036,-0.00785825,0.88255
451.833,50.3857,-3.04247,-0.00667015,0.88199
452.533,50.45459,-3.0421,-0.008719214,0.88143
453.233,50.52343,-3.04313,-0.00720533,0.88087
453.933,50.5925,-3.04445,-0.00579858,0.88031
454.633,50.66154,-3.04575,-0.003885403,0.87975
455.333,50.73076,-3.04715,-0.003379009,0.87919
456.033,50.7999,-3.04842,-0.0007854547,0.87863
456.733,50.86909,-3.0484,-0.001960955,0.87807
457.433,50.9381,-3.05103,-1.929217e-05,0.87751
458.133,51.00705,-3.055,0.0003973541,0.87695
458.833,51.07589,-3.05646,0.0001357151,0.87639
459.533,51.14481,-3.05539,-0.001652824,0.87582
460.233,51.2134,-3.0564,-0.00130364,0.87526
460.933,51.28242,-3.057,0.0007973437,0.8747
461.633,51.35117,-3.05824,0.0007589494,0.87413
462.333,51.42052,-3.05904,0.001307795,0.87357
463.033,51.4895,-3.06037,-0.001554045,0.873
463.733,51.5587,-3.06167,6.962704e-05,0.87244
464.433,51.62771,-3.06298,0.002416809,0.87187
465.133,51.69676,-3.0643,-9.370484e-05,0.8713
465.833,51.7657,-3.06393,0.001079773,0.87074
466.533,51.8345,-3.06466,0.003104086,0.87017
467.233,51.9033,-3.06726,0.00544456,0.8696
467.933,51.97217,-3.06742,0.00566345,0.86903
468.633,52.0409,-3.06861,0.005159871,0.86846
469.333,52.1096,-3.07,0.00789908,0.86789
470.033,52.1783,-3.07132,0.00696819,0.86732
470.733,52.24689,-3.07247,0.008096246,0.86675
471.433,52.31576,-3.07328,0.01031375,0.86618
472.133,52.38435,-3.07347,0.00923602,0.86561
472.833,52.4531,-3.07447,0.01149976,0.86504
473.533,52.52162,-3.07692,0.01214744,0.86447
474.233,52.59041,-3.07719,0.01697866,0.86389
474.933,52.65902,-3.07856,0.01734039,0.86332
475.633,52.72753,-3.07858,0.0219974,0.86275
476.333,52.79616,-3.08114,0.02200819,0.86217
477.033,52.86504,-3.08194,0.02610329,0.8616
477.733,52.93402,-3.08251,0.02437107,0.86102
478.433,53.0029,-3.08286,0.02509966,0.86045
479.133,53.0719,-3.08343,0.02299634,0.85987
479.833,53.1409,-3.08415,0.02480798,0.85929
480.533,53.2098,-3.08547,0.0271348,0.85872
481.233,53.2785,-3.0881,0.03016749,0.85814
481.933,53.34738,-3.08876,0.03093725,0.85756
482.633,53.41645,-3.08747,0.03250542,0.85698
483.333,53.48548,-3.08945,0.03365727,0.8564
484.033,53.55455,-3.09078,0.03693709,0.85583
484.733,53.6234,-3.09083,0.03618487,0.85525
485.433,53.69235,-3.09075,0.03877555,0.85467
486.133,53.76141,-3.09205,0.04077435,0.85409
486.833,53.8307,-3.09336,0.03921307,0.85351
487.533,53.89994,-3.09408,0.04391229,0.85292
488.233,53.96886,-3.09468,0.04493941,0.85234
488.933,54.03781,-3.09599,0.04533899,0.85176
489.633,54.10666,-3.09736,0.0471522,0.85118
490.333,54.1759,-3.09864,0.04685979,0.8506
491.033,54.24499,-3.10003,0.04999875,0.85001
491.733,54.31437,-3.10126,0.05264399,0.84943
492.433,54.38346,-3.10222,0.0523981,0.84884
493.133,54.4528,-3.10399,0.05568468,0.84826
493.833,54.52194,-3.10389,0.05931934,0.84767
494.533,54.59129,-3.1039,0.05494416,0.84709
495.233,54.6606,-3.10521,0.0533417,0.8465
495.933,54.7299,-3.10521,0.0585274,0.84592
496.633,54.7991,-3.10653,0.05783505,0.84533
497.333,54.8686,-3.10653,0.0600276,0.84474
498.033,54.93786,-3.10784,0.05924868,0.84416
498.733,55.0074,-3.10781,0.06159552,0.84357
499.433,55.07679,-3.10785,0.061536,0.84298
500.133,55.14625,-3.10914,0.06091596,0.84239
500.833,55.21549,-3.11047,0.06065038,0.8418
501.533,55.2848,-3.11179,0.06015437,0.84121
502.233,55.3542,-3.11189,0.06075861,0.84062
502.933,55.42374,-3.1118,0.0604613,0.84003
503.633,55.49301,-3.11442,0.06126389,0.83944
504.333,55.56228,-3.11574,0.05895876,0.83885
505.033,55.6317,-3.11579,0.06219917,0.83826
505.733,55.701,-3.11575,0.06057777,0.83767
506.433,55.77038,-3.11575,0.06091999,0.83708
507.133,55.83962,-3.11706,0.05983504,0.83648
507.833,55.9091,-3.11706,0.06098642,0.83589
508.533,55.9783,-3.11838,0.06018589,0.8353
509.233,56.04772,-3.11837,0.0581845,0.8347
509.933,56.11707,-3.1187,0.05612561,0.83411
510.633,56.18643,-3.11945,0.05480459,0.83351
511.333,56.25569,-3.1211,0.05417897,0.83292
512.033,56.3252,-3.12178,0.05673176,0.83232
512.733,56.3947,-3.12449,0.05523424,0.83173
513.433,56.4642,-3.12435,0.05356785,0.83113
514.133,56.53351,-3.12444,0.05158333,0.83054
514.833,56.6029,-3.12441,0.05005009,0.82994
515.533,56.67227,-3.12441,0.05058152,0.82934
516.233,56.7419,-3.12575,0.04561251,0.82875
516.933,56.81146,-3.12704,0.04438593,0.82815
517.633,56.881,-3.12704,0.03838286,0.82755
518.333,56.95049,-3.12704,0.03400438,0.82695
519.033,57.02,-3.12836,0.02770412,0.82635
519.733,57.08936,-3.12967,0.02668713,0.82575
520.433,57.1588,-3.13,0.02545579,0.82515
521.133,57.22825,-3.13134,0.02206138,0.82455
521.833,57.2978,-3.13055,0.02058541,0.82395
522.533,57.36747,-3.13132,0.0196092,0.82335
523.233,57.4371,-3.13132,0.01804263,0.82275
523.933,57.5067,-3.13255,0.01640412,0.82215
524.633,57.5759,-3.1339,0.0215454,0.82155
525.333,57.64535,-3.13527,0.01687221,0.82095
526.033,57.7148,-3.13522,0.01656412,0.82035
526.733,57.7844,-3.13615,0.01464923,0.81974
527.433,57.85399,-3.13657,0.01536727,0.81914
528.133,57.9235,-3.1379,0.0139225,0.81854
528.833,57.993,-3.13864,0.01390535,0.81793
529.533,58.06236,-3.14016,0.01360104,0.81733
530.233,58.1318,-3.14025,0.01040093,0.81672
530.933,58.20117,-3.14028,0.01190229,0.81612
531.633,58.2707,-3.1402,0.01360065,0.81551
532.333,58.3399,-3.14021,0.01151356,0.81491
533.033,58.4095,-3.1402,0.01395775,0.8143
533.733,58.47905,-3.14152,0.01036886,0.8137
534.433,58.5488,-3.14152,0.01015504,0.81309
535.133,58.61832,-3.14285,0.00763329,0.81248
535.833,58.6877,-3.14284,0.01037147,0.81188
536.533,58.75719,-3.14276,0.00661288,0.81127
537.233,58.82668,-3.14416,0.008210597,0.81066
537.933,58.89625,-3.14347,0.007284985,0.81005
538.633,58.9657,-3.14404,0.004845729,0.80945
539.333,59.03524,-3.14403,0.006215725,0.80884
540.033,59.1047,-3.14536,0.005154042,0.80823
540.733,59.17414,-3.14668,0.004349276,0.80762
541.433,59.2437,-3.14663,0.005172531,0.80701
542.133,59.31332,-3.14799,0.00399471,0.8064
542.833,59.3831,-3.14799,0.00159392,0.80579
543.533,59.45265,-3.14799,0.004143845,0.80518
544.233,59.5223,-3.14942,0.002246813,0.80457
544.933,59.59196,-3.14997,0.000271937,0.80396
545.633,59.6617,-3.15261,0.002774794,0.80335
546.333,59.7314,-3.15224,0.0006016493,0.80274
547.033,59.80101,-3.15227,-0.0006993995,0.80212
547.733,59.87059,-3.15227,0.0005015896,0.80151
548.433,59.9405,-3.15357,0.001288225,0.8009
549.133,60.0104,-3.15359,-0.00153226,0.80029
549.833,60.0805,-3.1549,-0.00375432,0.79967
550.533,60.1502,-3.15358,0.0001709643,0.79906
551.233,60.2201,-3.1549,-0.003831133,0.79845
551.933,60.29,-3.15622,-0.004537074,0.79783
552.633,60.3599,-3.15622,-0.00486871,0.79722
553.333,60.42963,-3.15688,-0.003211191,0.7966
554.033,60.4994,-3.15621,-0.005506397,0.79599
554.733,60.56929,-3.15753,-0.004152116,0.79537
555.433,60.6391,-3.15786,-0.0074743,0.79476
556.133,60.7089,-3.16017,-0.005799623,0.79414
556.833,60.7785,-3.16148,-0.009589561,0.79353
557.533,60.8482,-3.16151,-0.0104985,0.79291
558.233,60.91799,-3.16082,-0.007565144,0.79229
558.933,60.98777,-3.16076,-0.008023168,0.79168
559.633,61.0575,-3.16214,-0.01130851,0.79106
560.333,61.12718,-3.16151,-0.009185754,0.79044
561.033,61.19685,-3.1628,-0.00911557,0.78982
561.733,61.2664,-3.1628,-0.00992152,0.78921
562.433,61.3362,-3.1628,-0.01051886,0.78859
563.133,61.40596,-3.16275,-0.01045205,0.78797
563.833,61.47575,-3.16575,-0.006899147,0.78735
564.533,61.54518,-3.16576,-0.01155265,0.78673
565.233,61.61467,-3.16576,-0.01249058,0.78611
565.933,61.68435,-3.16446,-0.01209688,0.78549
566.633,61.75425,-3.16471,-0.01501783,0.78488
567.333,61.8241,-3.16713,-0.01223259,0.78426
568.033,61.89385,-3.16848,-0.01399762,0.78364
568.733,61.9637,-3.16839,-0.01486961,0.78301
569.433,62.03343,-3.16839,-0.01290107,0.78239
570.133,62.10334,-3.16839,-0.01402665,0.78177
570.833,62.1731,-3.16939,-0.01364847,0.78115
571.533,62.2431,-3.16938,-0.01432867,0.78053
572.233,62.3129,-3.1707,-0.01459774,0.77991
572.933,62.38286,-3.1707,-0.01728991,0.77929
573.633,62.45285,-3.16934,-0.01693457,0.77867
574.333,62.52293,-3.16972,-0.01965511,0.77804
575.033,62.59287,-3.1707,-0.0208199,0.77742
575.733,62.6627,-3.172,-0.01966525,0.7768
576.433,62.7325,-3.17197,-0.01471619,0.77617
577.133,62.80229,-3.17464,-0.01433642,0.77555
577.833,62.872,-3.17333,-0.01719456,0.77493
578.533,62.9419,-3.17335,-0.01834553,0.7743
579.233,63.0119,-3.17464,-0.01414402,0.77368
579.933,63.0819,-3.17464,-0.01751205,0.77306
580.633,63.15172,-3.17464,-0.01825123,0.77243
581.333,63.2216,-3.17463,-0.0188717,0.77181
582.033,63.2914,-3.17462,-0.01871477,0.77118
582.733,63.3613,-3.17497,-0.01872534,0.77056
583.433,63.43108,-3.17629,-0.0187137,0.76993
584.133,63.50107,-3.1776,-0.02060936,0.76931
584.833,63.57108,-3.1776,-0.01789422,0.76868
585.533,63.6411,-3.1776,-0.01963917,0.76805
586.233,63.7111,-3.17868,-0.01836797,0.76743
586.933,63.78116,-3.17991,-0.02037239,0.7668
587.633,63.8511,-3.18027,-0.02236536,0.76617
588.333,63.921,-3.1816,-0.02007934,0.76555
589.033,63.9908,-3.18156,-0.01951727,0.76492
589.733,64.0608,-3.18025,-0.02295556,0.76429
590.433,64.13054,-3.18155,-0.02142053,0.76367
591.133,64.20049,-3.18287,-0.01873572,0.76304
591.833,64.27045,-3.18287,-0.02182659,0.76241
592.533,64.34046,-3.18418,-0.01927254,0.76178
593.233,64.41043,-3.18419,-0.01946204,0.76115
593.933,64.4803,-3.18156,-0.02007862,0.76053
594.633,64.55035,-3.18285,-0.01792792,0.7599
595.333,64.62029,-3.18418,-0.01928487,0.75927
596.033,64.69018,-3.18289,-0.01769704,0.75864
596.733,64.7602,-3.18523,-0.01790403,0.75801
597.433,64.83033,-3.18682,-0.01687459,0.75738
598.133,64.9006,-3.18682,-0.01313989,0.75675
598.833,64.97081,-3.18682,-0.01376269,0.75612
599.533,65.04106,-3.18685,-0.01390021,0.75549
600.233,65.11112,-3.18683,-0.01384258,0.75486
600.933,65.18114,-3.18647,-0.01571437,0.75423
601.633,65.25116,-3.18649,-0.01576572,0.7536
602.333,65.32126,-3.18649,-0.01618985,0.75297
603.033,65.3914,-3.188,-0.01916216,0.75234
603.733,65.4615,-3.18921,-0.0186792,0.75171
604.433,65.53166,-3.19092,-0.0179531,0.75108
605.133,65.60162,-3.19055,-0.01419532,0.75045
605.833,65.6716,-3.19187,-0.01397877,0.74981
606.533,65.7417,-3.19187,-0.01428914,0.74918
607.233,65.81194,-3.19199,-0.01164244,0.74855
607.933,65.8823,-3.19318,-0.01104015,0.74792
608.633,65.9525,-3.19318,-0.01084203,0.74729
609.333,66.02251,-3.1919,-0.01160469,0.74665
610.033,66.09235,-3.19187,-0.007053306,0.74602
610.733,66.1622,-3.19187,-0.007273851,0.74539
611.433,66.232,-3.1932,-0.008748627,0.74475
612.133,66.30192,-3.19452,-0.00804581,0.74412
612.833,66.3719,-3.19351,-0.00766017,0.74349
613.533,66.44188,-3.19483,-0.007612663,0.74286
614.233,66.51204,-3.19483,-0.006213149,0.74222
614.933,66.58238,-3.19579,-0.006127916,0.74159
615.633,66.6528,-3.19559,-0.004398368,0.74095
616.333,66.7231,-3.19581,-0.00531526,0.74032
617.033,66.79318,-3.19656,-0.00429515,0.73969
617.733,66.863,-3.19845,-0.00693602,0.73905
618.433,66.93327,-3.1992,-0.001610991,0.73842
619.133,67.00338,-3.19974,-0.00318607,0.73778
619.833,67.07389,-3.19844,-0.00259369,0.73715
620.533,67.14392,-3.19844,-0.002964831,0.73651
621.233,67.2141,-3.19708,-0.004018408,0.73588
621.933,67.28425,-3.19843,-0.004372524,0.73524
622.633,67.35458,-3.19976,-0.000356136,0.73461
623.333,67.42479,-3.19975,-0.000773764,0.73397
624.033,67.49502,-3.20113,0.002181798,0.73334
624.733,67.56515,-3.19976,0.0001252209,0.7327
625.433,67.6353,-3.20008,-0.0007734575,0.73206
626.133,67.70544,-3.20141,-0.00106548,0.73143
626.833,67.77595,-3.20141,0.00204119,0.73079
627.533,67.84663,-3.20235,0.001656678,0.73016
628.233,67.9174,-3.20371,-0.001251755,0.72952
628.933,67.98786,-3.20336,0.0005212425,0.72888
629.633,68.05807,-3.20206,-0.001861069,0.72825
630.333,68.12826,-3.20206,-0.0006819211,0.72761
631.033,68.19829,-3.20081,-0.002215054,0.72697
631.733,68.26849,-3.20107,-0.00357289,0.72634
632.433,68.33853,-3.20239,-0.001036827,0.7257
633.133,68.40836,-3.20289,-0.002509719,0.72506
633.833,68.4783,-3.20383,-0.00269815,0.72442
634.533,68.54823,-3.20513,-0.002072045,0.72379
635.233,68.61832,-3.20415,0.0009642542,0.72315
635.933,68.68842,-3.20441,-0.000572739,0.72251
636.633,68.7587,-3.20546,7.547179e-05,0.72187
637.333,68.82902,-3.20678,-0.0002406701,0.72124
638.033,68.89922,-3.20809,0.002672926,0.7206
638.733,68.96928,-3.20941,0.00211462,0.71996
639.433,69.0394,-3.20941,0.00162767,0.71932
640.133,69.10954,-3.20711,0.004896475,0.71868
640.833,69.17989,-3.20711,0.0006760815,0.71804
641.533,69.25038,-3.20676,0.00153085,0.71741
642.233,69.32093,-3.20678,0.001649332,0.71677
642.933,69.39135,-3.20678,-0.000654715,0.71613
643.633,69.46171,-3.20819,0.002183177,0.71549
644.333,69.53189,-3.20678,-0.00182717,0.71485
645.033,69.60194,-3.20813,0.002098988,0.71421
645.733,69.67181,-3.2104,3.374686e-05,0.71357
646.433,69.7423,-3.2104,0.000390746,0.71293
647.133,69.8129,-3.2104,-0.0009408387,0.71229
647.833,69.88371,-3.21046,-0.002588915,0.71165
648.533,69.95413,-3.2099,-0.00359954,0.71101
649.233,70.02478,-3.21138,0.00031259,0.71038
649.933,70.09483,-3.21141,-0.003293978,0.70974
650.633,70.16502,-3.21369,-0.00321711,0.7091
651.333,70.23509,-3.21437,-0.00427939,0.70846
652.033,70.3056,-3.21201,-0.000938964,0.70782
652.733,70.37581,-3.20938,-0.0004800513,0.70718
653.433,70.44624,-3.20777,-0.00168405,0.70654
654.133,70.51674,-3.20898,-0.00352544,0.7059
654.833,70.5874,-3.2104,-0.00569974,0.70526
655.533,70.65791,-3.21303,-0.004071226,0.70461
656.233,70.72842,-3.21436,-0.001174069,0.70397
656.933,70.79866,-3.21369,-0.00630293,0.70333
657.633,70.8691,-3.21369,-0.004110517,0.70269
658.333,70.93944,-3.21369,-0.008176394,0.70205
659.033,71.01004,-3.21369,-0.00638302,0.70141
659.733,71.08055,-3.21503,-0.003569611,0.70077
660.433,71.1511,-3.215,-0.006532495,0.70013
661.133,71.2219,-3.215,-0.005055451,0.69949
661.833,71.2924,-3.215,-0.002532823,0.69885
662.533,71.36299,-3.21567,-0.0060946,0.69821
663.233,71.43343,-3.21566,-0.007238901,0.69757
663.933,71.50414,-3.21507,-0.00155207,0.69693
664.633,71.57475,-3.21566,-0.005019249,0.69628
665.333,71.64516,-3.21566,-0.004373028,0.69564
666.033,71.7156,-3.21566,-0.001727379,0.695
666.733,71.7861,-3.21566,-0.001748851,0.69436
667.433,71.85677,-3.21697,-0.004465823,0.69372
668.133,71.9272,-3.21694,-0.002334072,0.69308
668.833,71.9978,-3.21956,-0.004012616,0.69244
669.533,72.06837,-3.22094,-0.00144743,0.69179
670.233,72.1391,-3.21962,-0.006392155,0.69115
670.933,72.2097,-3.2183,-0.0058801,0.69051
671.633,72.28022,-3.2183,-0.004423218,0.68987
672.333,72.35081,-3.2183,-0.00652884,0.68923
673.033,72.42147,-3.2183,-0.00488404,0.68859
673.733,72.49204,-3.2183,-0.008079112,0.68794
674.433,72.5625,-3.21791,-0.005521825,0.6873
675.133,72.6329,-3.21959,0.0004976079,0.68666
675.833,72.7035,-3.21831,-0.0003312001,0.68602
676.533,72.774,-3.21961,-0.00423163,0.68538
677.233,72.84453,-3.21961,-0.002563695,0.68473
677.933,72.91503,-3.21961,-0.004111253,0.68409
678.633,72.9855,-3.21834,-0.005479313,0.68345
679.333,73.05621,-3.21834,-0.001409156,0.68281
680.033,73.1267,-3.22093,-0.00674705,0.68217
680.733,73.19723,-3.22089,-0.00246778,0.68152
681.433,73.2676,-3.22224,0.00136725,0.68088
682.133,73.33807,-3.22224,-0.0008538875,0.68024
682.833,73.40854,-3.22224,-0.002470005,0.6796
683.533,73.479,-3.21962,-0.00510573,0.67896
684.233,73.54964,-3.21962,-0.00264842,0.67831
684.933,73.62011,-3.22092,-0.005474393,0.67767
685.633,73.69063,-3.22093,-0.003455706,0.67703
686.333,73.76108,-3.22225,-0.002054511,0.67639
687.033,73.8318,-3.22313,-0.005970093,0.67574
687.733,73.9024,-3.22357,-0.002979559,0.6751
688.433,73.9731,-3.22357,-0.005217806,0.67446
689.133,74.04353,-3.22358,-0.002316778,0.67382
689.833,74.11423,-3.22488,-0.005734914,0.67317
690.533,74.18445,-3.22212,-0.005231826,0.67253
691.233,74.2552,-3.22225,-0.006709697,0.67189
691.933,74.32584,-3.22225,-0.01038797,0.67125
692.633,74.3968,-3.22237,-0.009219448,0.6706
693.333,74.46757,-3.22229,-0.00776672,0.66996
694.033,74.53835,-3.22488,-0.00552936,0.66932
694.733,74.60927,-3.22521,-0.0103082,0.66868
695.433,74.67997,-3.22522,-0.00782312,0.66804
696.133,74.75069,-3.22488,-0.00907585,0.66739
696.833,74.82146,-3.22488,-0.0106202,0.66675
697.533,74.89228,-3.22369,-0.01108078,0.66611
698.233,74.9631,-3.22498,-0.0110066,0.66547
698.933,75.0337,-3.22515,-0.01354705,0.66482
699.633,75.10455,-3.22577,-0.01188885,0.66418
700.333,75.1752,-3.22573,-0.01476403,0.66354
701.033,75.24577,-3.22554,-0.01758495,0.6629
701.733,75.3163,-3.22554,-0.01833111,0.66225
702.433,75.38693,-3.22555,-0.01074017,0.66161
703.133,75.4576,-3.22871,-0.01511764,0.66097
703.833,75.52826,-3.22981,-0.01321974,0.66033
704.533,75.59891,-3.23014,-0.01457335,0.65968
705.233,75.6697,-3.22976,-0.01101562,0.65904
705.933,75.7404,-3.22883,-0.01263328,0.6584
706.633,75.8109,-3.22883,-0.01344357,0.65776
707.333,75.8814,-3.22753,-0.01435449,0.65712
708.033,75.9521,-3.22881,-0.01658327,0.65647
708.733,76.02269,-3.23014,-0.01278235,0.65583
709.433,76.0932,-3.22915,-0.01481397,0.65519
710.133,76.16376,-3.22882,-0.01501153,0.65455
710.833,76.23453,-3.23117,-0.01397918,0.6539
711.533,76.3053,-3.23146,-0.01719442,0.65326
712.233,76.3759,-3.23013,-0.01668898,0.65262
712.933,76.44663,-3.23012,-0.01589314,0.65198
713.633,76.5175,-3.23011,-0.01670125,0.65134
714.333,76.58844,-3.23146,-0.01346765,0.65069
715.033,76.65904,-3.23146,-0.01772219,0.65005
715.733,76.72976,-3.23212,-0.01534798,0.64941
716.433,76.8004,-3.23212,-0.01537559,0.64877
717.133,76.87138,-3.23211,-0.01837162,0.64813
717.833,76.9421,-3.23082,-0.01777813,0.64748
718.533,77.013,-3.23145,-0.0184445,0.64684
719.233,77.08369,-3.2341,-0.01921895,0.6462
719.933,77.15416,-3.23277,-0.01452557,0.64556
720.633,77.2248,-3.23413,-0.01894076,0.64492
721.333,77.2958,-3.2328,-0.01716438,0.64428
722.033,77.36681,-3.23278,-0.01515377,0.64363
722.733,77.4379,-3.23144,-0.01943391,0.64299
723.433,77.50872,-3.23277,-0.01898344,0.64235
724.133,77.57983,-3.23146,-0.01967059,0.64171
724.833,77.65087,-3.23143,-0.02237829,0.64107
725.533,77.7218,-3.23343,-0.02066365,0.64043
726.233,77.79265,-3.23343,-0.02120481,0.63979
726.933,77.86345,-3.23372,-0.02190551,0.63915
727.633,77.93433,-3.23541,-0.02233365,0.6385
728.333,78.00511,-3.2341,-0.02168108,0.63786
729.033,78.07571,-3.23409,-0.02298483,0.63722
729.733,78.1465,-3.23414,-0.02492571,0.63658
730.433,78.21738,-3.23277,-0.02280779,0.63594
731.133,78.28824,-3.23409,-0.02541744,0.6353
731.833,78.35916,-3.23541,-0.02144536,0.63466
732.533,78.43005,-3.23411,-0.0242481,0.63402
733.233,78.5009,-3.23541,-0.02389832,0.63338
733.933,78.57164,-3.2356,-0.02716187,0.63274
734.633,78.64237,-3.23804,-0.0209602,0.6321
735.333,78.71325,-3.23804,-0.02461548,0.63146
736.033,78.78406,-3.23674,-0.02231428,0.63082
736.733,78.85484,-3.23673,-0.02519575,0.63018
737.433,78.92564,-3.23673,-0.02283085,0.62953
738.133,78.99647,-3.23658,-0.02417514,0.62889
738.833,79.06753,-3.23673,-0.02468076,0.62825
739.533,79.1386,-3.23673,-0.02621484,0.62761
740.233,79.2097,-3.23538,-0.02942192,0.62697
740.933,79.28053,-3.23541,-0.02893416,0.62633
741.633,79.3514,-3.23541,-0.02939575,0.6257
742.333,79.42228,-3.23682,-0.03062457,0.62506
743.033,79.49336,-3.23667,-0.03004892,0.62442
743.733,79.56436,-3.23804,-0.0321425,0.62378
744.433,79.63521,-3.23816,-0.03003485,0.62314
745.133,79.70609,-3.23804,-0.03329813,0.6225
745.833,79.77723,-3.23812,-0.03004519,0.62186
746.533,79.84833,-3.23672,-0.03397038,0.62122
747.233,79.9196,-3.23541,-0.03246533,0.62058
747.933,79.9906,-3.23676,-0.03070094,0.61994
748.633,80.06174,-3.23673,-0.0319265,0.6193
749.333,80.1329,-3.23804,-0.03424053,0.61866
750.033,80.20403,-3.23836,-0.0350102,0.61802
750.733,80.2752,-3.23798,-0.03748304,0.61739
751.433,80.3461,-3.23804,-0.03343579,0.61675
752.133,80.4174,-3.23938,-0.03252317,0.61611
752.833,80.48868,-3.23936,-0.03100383,0.61547
753.533,80.55991,-3.23936,-0.03541151,0.61483
754.233,80.63069,-3.23936,-0.03668778,0.61419
754.933,80.70135,-3.23939,-0.03523919,0.61356
755.633,80.77215,-3.23742,-0.03766761,0.61292
756.333,80.84286,-3.23672,-0.03755484,0.61228
757.033,80.9135,-3.23804,-0.03639864,0.61164
757.733,80.98421,-3.23937,-0.03654986,0.611
758.433,81.05512,-3.23837,-0.03355854,0.61037
759.133,81.12606,-3.23805,-0.04025003,0.60973
759.833,81.19682,-3.23787,-0.04297976,0.60909
760.533,81.2675,-3.23804,-0.04374284,0.60846
761.233,81.33834,-3.23875,-0.03910781,0.60782
761.933,81.40941,-3.23871,-0.04199571,0.60718
762.633,81.48065,-3.2397,-0.0439452,0.60654
763.333,81.55167,-3.23969,-0.04575922,0.60591
764.033,81.62273,-3.23969,-0.04509692,0.60527
764.733,81.6938,-3.241,-0.04548243,0.60463
765.433,81.765,-3.2396,-0.0465223,0.604
766.133,81.836,-3.24101,-0.04504884,0.60336
766.833,81.90687,-3.24209,-0.04792832,0.60273
767.533,81.97796,-3.24101,-0.0445211,0.60209
768.233,82.0488,-3.24263,-0.04483506,0.60145
768.933,82.11994,-3.24298,-0.0506473,0.60082
769.633,82.19088,-3.24167,-0.04829925,0.60018
770.333,82.26201,-3.242,-0.05110789,0.59955
771.033,82.3331,-3.24198,-0.05098821,0.59891
771.733,82.4041,-3.24128,-0.0500031,0.59828
772.433,82.47504,-3.24002,-0.05300306,0.59764
773.133,82.54606,-3.24071,-0.05281864,0.59701
773.833,82.61721,-3.24067,-0.05329738,0.59637
774.533,82.6885,-3.24199,-0.05307213,0.59574
775.233,82.75965,-3.24166,-0.05037954,0.5951
775.933,82.83076,-3.24166,-0.05125055,0.59447
776.633,82.9018,-3.24166,-0.05266519,0.59383
777.333,82.97278,-3.24166,-0.05199605,0.5932
778.033,83.04379,-3.24166,-0.05083772,0.59256
778.733,83.115,-3.24156,-0.05597769,0.59193
779.433,83.18636,-3.24297,-0.05440169,0.5913
780.133,83.25779,-3.24296,-0.05185435,0.59066
780.833,83.3287,-3.24199,-0.05229913,0.59003
781.533,83.39993,-3.24199,-0.05265274,0.5894
782.233,83.47111,-3.2433,-0.05315018,0.58876
782.933,83.54297,-3.24382,-0.05617194,0.58813
783.633,83.61424,-3.24496,-0.05738087,0.5875
784.333,83.68558,-3.24561,-0.05624251,0.58686
785.033,83.75667,-3.24561,-0.0610523,0.58623
785.733,83.82791,-3.24301,-0.06275356,0.5856
786.433,83.899,-3.24069,-0.06198929,0.58497
787.133,83.9701,-3.24038,-0.06401027,0.58433
787.833,84.04129,-3.24168,-0.06411956,0.5837
788.533,84.11245,-3.2444,-0.0616706,0.58307
789.233,84.18332,-3.24551,-0.06181149,0.58244
789.933,84.25434,-3.24662,-0.06526328,0.58181
790.633,84.3253,-3.24724,-0.06245003,0.58117
791.333,84.3963,-3.24731,-0.06223788,0.58054
792.033,84.46705,-3.24562,-0.06161979,0.57991
792.733,84.53784,-3.24559,-0.06356271,0.57928
793.433,84.60874,-3.24561,-0.06404534,0.57865
794.133,84.6798,-3.24561,-0.06527317,0.57802
794.833,84.75086,-3.24423,-0.06684961,0.57739
795.533,84.82189,-3.2443,-0.0697759,0.57676
796.233,84.89285,-3.24561,-0.06870791,0.57613
796.933,84.9638,-3.24585,-0.07014568,0.5755
797.233,84.99444,-3.24691,-0.07137671,0.57523