File: 01_Data/Bamboo_Rug_Bamboo/STA/N2/10K_min/Bamboo_Rug_A_STA_N2_10KData_220120_R2.csv
##Temp./Â°C,Time/min,Mass loss(subtr.)/mg,DSC(subtr.)/(mW/mg),Sensit./(uV/mW)
49.252,10.01,-0.04026,0.01126795,1.07447
49.952,10.7715,-0.04518709,0.0380211,1.07443
50.652,10.97268,-0.0425961,0.05983511,1.07438
51.352,11.12202,-0.04401789,0.07607438,1.07433
52.052,11.25265,-0.04444374,0.09364873,1.07427
52.752,11.36767,-0.04410773,0.10694,1.07422
53.452,11.47372,-0.0448972,0.11979,1.07417
54.152,11.5732,-0.04412829,0.12861,1.07411
54.852,11.66734,-0.04625054,0.13687,1.07406
55.552,11.75818,-0.04695424,0.14477,1.074
56.252,11.8466,-0.04581522,0.15206,1.07394
56.952,11.9327,-0.04686559,0.15644,1.07388
57.652,12.01699,-0.04596082,0.16551,1.07382
58.352,12.09987,-0.04650937,0.1684,1.07376
59.052,12.18167,-0.04714065,0.1705,1.07369
59.752,12.26247,-0.04769776,0.17474,1.07363
60.452,12.34256,-0.04669425,0.17851,1.07356
61.152,12.4216,-0.0470859,0.18254,1.0735
61.852,12.4998,-0.04739792,0.18635,1.07343
62.552,12.5777,-0.04786539,0.18817,1.07336
63.252,12.65484,-0.04850063,0.19123,1.07329
63.952,12.73206,-0.04947958,0.19491,1.07322
64.652,12.8088,-0.05003113,0.19813,1.07315
65.352,12.8855,-0.0487769,0.20121,1.07307
66.052,12.96161,-0.04990525,0.20192,1.073
66.752,13.0371,-0.05001846,0.2051,1.07292
67.452,13.11276,-0.05160997,0.20648,1.07285
68.152,13.18781,-0.05132956,0.21091,1.07277
68.852,13.26275,-0.05273682,0.21278,1.07269
69.552,13.33739,-0.05395238,0.21411,1.07261
70.252,13.41186,-0.05438852,0.21522,1.07253
70.952,13.4864,-0.05154954,0.2184,1.07245
71.652,13.5602,-0.05287724,0.2199,1.07236
72.352,13.63437,-0.05387969,0.2225,1.07228
73.052,13.70819,-0.05388127,0.22301,1.07219
73.752,13.78212,-0.05418981,0.2259,1.0721
74.452,13.85586,-0.0555158,0.22637,1.07202
75.152,13.9295,-0.05679011,0.22847,1.07193
75.852,14.0028,-0.05548492,0.22917,1.07184
76.552,14.07615,-0.05541062,0.22763,1.07174
77.252,14.14904,-0.05550944,0.22842,1.07165
77.952,14.2215,-0.05682241,0.23305,1.07156
78.652,14.2943,-0.05681973,0.23254,1.07146
79.352,14.36731,-0.05782759,0.23368,1.07137
80.052,14.4401,-0.05847757,0.23357,1.07127
80.752,14.5121,-0.05978391,0.23476,1.07117
81.452,14.5841,-0.06012346,0.2352,1.07107
82.152,14.65598,-0.06115071,0.23688,1.07097
82.852,14.72778,-0.06001961,0.23896,1.07087
83.552,14.79899,-0.06043999,0.23978,1.07076
84.252,14.87033,-0.06044035,0.23962,1.07066
84.952,14.9419,-0.05976206,0.23964,1.07056
85.652,15.01319,-0.06135914,0.24056,1.07045
86.352,15.0838,-0.06259817,0.24081,1.07034
87.052,15.15425,-0.06239765,0.24139,1.07023
87.752,15.2247,-0.06110019,0.24055,1.07012
88.452,15.29531,-0.06218087,0.24018,1.07001
89.152,15.36554,-0.06210077,0.23903,1.0699
89.852,15.43566,-0.06313202,0.24068,1.06979
90.552,15.5058,-0.0634829,0.23936,1.06967
91.252,15.57616,-0.06630887,0.23852,1.06956
91.952,15.6462,-0.06527173,0.24003,1.06944
92.652,15.71596,-0.06493997,0.2381,1.06932
93.352,15.78563,-0.06493901,0.23701,1.0692
94.052,15.85532,-0.06363265,0.23787,1.06908
94.752,15.92494,-0.06490574,0.23643,1.06896
95.452,15.9943,-0.06364511,0.23605,1.06884
96.152,16.0635,-0.06494694,0.23711,1.06872
96.852,16.1325,-0.06489193,0.23661,1.06859
97.552,16.2015,-0.06627479,0.23599,1.06847
98.252,16.2704,-0.06493994,0.23651,1.06834
98.952,16.33943,-0.06493809,0.23316,1.06821
99.652,16.4083,-0.06690669,0.2318,1.06808
100.352,16.47723,-0.06823681,0.23282,1.06795
101.052,16.5461,-0.06684728,0.23458,1.06782
101.752,16.61528,-0.0679006,0.23089,1.06769
102.452,16.68437,-0.06694788,0.22989,1.06756
103.152,16.75349,-0.06692002,0.23114,1.06742
103.852,16.82249,-0.06672463,0.23096,1.06729
104.552,16.89155,-0.06560001,0.22865,1.06715
105.252,16.96033,-0.06560143,0.23058,1.06701
105.952,17.02882,-0.06691011,0.22884,1.06687
106.652,17.09724,-0.06675349,0.22902,1.06673
107.352,17.1659,-0.06691151,0.22985,1.06659
108.052,17.2349,-0.06820697,0.23101,1.06645
108.752,17.3034,-0.06820238,0.23071,1.06631
109.452,17.3721,-0.06691012,0.23174,1.06616
110.152,17.44063,-0.06689921,0.23102,1.06602
110.852,17.50972,-0.06823,0.23075,1.06587
111.552,17.5783,-0.06822981,0.23033,1.06572
112.252,17.64678,-0.06958345,0.23096,1.06557
112.952,17.71494,-0.07090845,0.23045,1.06542
113.652,17.7835,-0.06991605,0.23046,1.06527
114.352,17.85194,-0.07023673,0.23032,1.06512
115.052,17.92053,-0.06987008,0.23205,1.06497
115.752,17.98909,-0.06987,0.23359,1.06481
116.452,18.05773,-0.06987,0.23166,1.06466
117.152,18.12641,-0.06987186,0.23154,1.0645
117.852,18.19465,-0.07118818,0.23246,1.06434
118.552,18.26267,-0.07120848,0.23473,1.06418
119.252,18.33099,-0.07086493,0.23473,1.06402
119.952,18.3994,-0.06955026,0.23281,1.06386
120.652,18.468,-0.07085753,0.23392,1.0637
121.352,18.53635,-0.06953729,0.23542,1.06354
122.052,18.60425,-0.0695369,0.23552,1.06337
122.752,18.67249,-0.07086019,0.23194,1.06321
123.452,18.74069,-0.07085767,0.23443,1.06304
124.152,18.8093,-0.07086065,0.23531,1.06287
124.852,18.87732,-0.07217901,0.23591,1.0627
125.552,18.94549,-0.07217569,0.23784,1.06253
126.252,19.01331,-0.07119114,0.23767,1.06236
126.952,19.08134,-0.07119046,0.24192,1.06219
127.652,19.14911,-0.0725111,0.23997,1.06202
128.352,19.21707,-0.07251188,0.24145,1.06184
129.052,19.28504,-0.07381831,0.24217,1.06167
129.752,19.3533,-0.07381967,0.24401,1.06149
130.452,19.4212,-0.07514402,0.2428,1.06132
131.152,19.4892,-0.07515465,0.24419,1.06114
131.852,19.55675,-0.07481003,0.24503,1.06096
132.552,19.6244,-0.07480179,0.24563,1.06078
133.252,19.69196,-0.07371005,0.24401,1.06059
133.952,19.75966,-0.07349005,0.2455,1.06041
134.652,19.82751,-0.07215426,0.2469,1.06023
135.352,19.89524,-0.07164077,0.24736,1.06004
136.052,19.96304,-0.0721765,0.2468,1.05986
136.752,20.0307,-0.0734894,0.24814,1.05967
137.452,20.09862,-0.07513725,0.2488,1.05948
138.152,20.16643,-0.07611816,0.24959,1.05929
138.852,20.23434,-0.07553217,0.24856,1.0591
139.552,20.30196,-0.0734661,0.24944,1.05891
140.252,20.36976,-0.07601351,0.25016,1.05872
140.952,20.43745,-0.07732996,0.25063,1.05852
141.652,20.50518,-0.07592134,0.2504,1.05833
142.352,20.57274,-0.07597614,0.25229,1.05813
143.052,20.6403,-0.07700001,0.25328,1.05794
143.752,20.70796,-0.07700004,0.25344,1.05774
144.452,20.77569,-0.07735969,0.25564,1.05754
145.152,20.8434,-0.07874207,0.25546,1.05734
145.852,20.91106,-0.07997025,0.25354,1.05714
146.552,20.97875,-0.07991342,0.25522,1.05694
147.252,21.04641,-0.08117237,0.25668,1.05673
147.952,21.11394,-0.07999013,0.25621,1.05653
148.652,21.18121,-0.08119698,0.25851,1.05632
149.352,21.24851,-0.07995999,0.25965,1.05612
150.052,21.3158,-0.07996,0.26033,1.05591
150.752,21.38342,-0.07995998,0.26017,1.0557
151.452,21.45082,-0.08001296,0.26309,1.05549
152.152,21.51841,-0.08128001,0.26447,1.05528
152.852,21.58548,-0.08128002,0.2631,1.05507
153.552,21.65275,-0.08129007,0.26776,1.05485
154.252,21.7201,-0.08129,0.2673,1.05464
154.952,21.7877,-0.08129,0.26769,1.05442
155.652,21.85516,-0.08128342,0.27002,1.05421
156.352,21.9225,-0.08260043,0.27044,1.05399
157.052,21.98968,-0.08507654,0.27062,1.05377
157.752,22.05687,-0.08677033,0.27191,1.05355
158.452,22.12414,-0.08677,0.27483,1.05333
159.152,22.19114,-0.08677006,0.27512,1.05311
159.852,22.25824,-0.08579574,0.27779,1.05289
160.552,22.32538,-0.08508843,0.27871,1.05267
161.252,22.39268,-0.08512,0.27941,1.05244
161.952,22.45982,-0.08511806,0.27888,1.05222
162.652,22.527,-0.08445928,0.2803,1.05199
163.352,22.59405,-0.08577696,0.28048,1.05176
164.052,22.6612,-0.0857704,0.28201,1.05153
164.752,22.72839,-0.08709212,0.28393,1.0513
165.452,22.79543,-0.08709,0.2871,1.05107
166.152,22.86266,-0.08708949,0.28513,1.05084
166.852,22.9297,-0.08807071,0.28702,1.05061
167.552,22.9968,-0.08808015,0.28841,1.05037
168.252,23.0638,-0.08936446,0.28951,1.05014
168.952,23.13075,-0.08939,0.28902,1.0499
169.652,23.1979,-0.08938245,0.29076,1.04966
170.352,23.26503,-0.09012831,0.29128,1.04943
171.052,23.3323,-0.09039002,0.2923,1.04919
171.752,23.39943,-0.09039572,0.29352,1.04895
172.452,23.4665,-0.09095353,0.29565,1.04871
173.152,23.53342,-0.09236003,0.2942,1.04846
173.852,23.6005,-0.09236,0.29824,1.04822
174.552,23.6673,-0.09236,0.29703,1.04798
175.252,23.73411,-0.09236,0.29889,1.04773
175.952,23.80114,-0.09236011,0.29855,1.04748
176.652,23.8685,-0.09106202,0.30182,1.04724
177.352,23.93583,-0.09226051,0.30117,1.04699
178.052,24.00289,-0.09302005,0.30328,1.04674
178.752,24.07,-0.09366981,0.30521,1.04649
179.452,24.13699,-0.09367002,0.30483,1.04624
180.152,24.20401,-0.09367109,0.30709,1.04598
180.852,24.271,-0.09433265,0.30771,1.04573
181.552,24.338,-0.0956675,0.31014,1.04547
182.252,24.4051,-0.09703147,0.31119,1.04522
182.952,24.4722,-0.09827992,0.3129,1.04496
183.652,24.53933,-0.09889663,0.31118,1.0447
184.352,24.60649,-0.09926999,0.31355,1.04445
185.052,24.67369,-0.09926818,0.31554,1.04419
185.752,24.74074,-0.09958889,0.31786,1.04393
186.452,24.80761,-0.10092,0.31703,1.04366
187.152,24.87443,-0.10201,0.31877,1.0434
187.852,24.9413,-0.09949889,0.32254,1.04314
188.552,25.00835,-0.10142,0.32373,1.04287
189.252,25.07554,-0.10212,0.32344,1.04261
189.952,25.1425,-0.10344,0.32521,1.04234
190.652,25.20916,-0.10445,0.32545,1.04207
191.352,25.27586,-0.10439,0.32623,1.0418
192.052,25.34285,-0.10607,0.32946,1.04153
192.752,25.41,-0.10738,0.33055,1.04126
193.452,25.4768,-0.10843,0.3305,1.04099
194.152,25.54356,-0.10863,0.33274,1.04072
194.852,25.61027,-0.11134,0.33505,1.04044
195.552,25.67708,-0.11134,0.33513,1.04017
196.252,25.74373,-0.11025,0.33487,1.03989
196.952,25.81063,-0.11166,0.33907,1.03961
197.652,25.8774,-0.11166,0.33961,1.03934
198.352,25.9447,-0.11287,0.34175,1.03906
199.052,26.01164,-0.11398,0.34207,1.03878
199.752,26.0786,-0.11529,0.3435,1.0385
200.452,26.14546,-0.1167,0.34472,1.03821
201.152,26.21201,-0.1188,0.34568,1.03793
201.852,26.27893,-0.11956,0.3471,1.03765
202.552,26.34589,-0.11957,0.34603,1.03736
203.252,26.4131,-0.11954,0.34838,1.03708
203.952,26.4799,-0.12088,0.35239,1.03679
204.652,26.5466,-0.12087,0.35286,1.0365
205.352,26.6133,-0.1222,0.35423,1.03621
206.052,26.68004,-0.12362,0.35729,1.03592
206.752,26.7467,-0.12632,0.35749,1.03563
207.452,26.81348,-0.12695,0.35898,1.03534
208.152,26.8804,-0.12702,0.36241,1.03505
208.852,26.94721,-0.12957,0.36161,1.03475
209.552,27.014,-0.13097,0.36354,1.03446
210.252,27.08075,-0.13233,0.36639,1.03416
210.952,27.1476,-0.13377,0.36838,1.03386
211.652,27.21439,-0.1347,0.3713,1.03357
212.352,27.2813,-0.13492,0.36817,1.03327
213.052,27.3482,-0.13543,0.36983,1.03297
213.752,27.41501,-0.13798,0.37046,1.03267
214.452,27.48181,-0.13898,0.37187,1.03236
215.152,27.54843,-0.14042,0.37132,1.03206
215.852,27.61532,-0.14323,0.36971,1.03176
216.552,27.6823,-0.14446,0.37024,1.03145
217.252,27.74917,-0.14578,0.37088,1.03115
217.952,27.81604,-0.14709,0.36886,1.03084
218.652,27.88288,-0.1485,0.36961,1.03053
219.352,27.94967,-0.14972,0.36941,1.03023
220.052,28.01657,-0.15104,0.36989,1.02992
220.752,28.08326,-0.15223,0.37163,1.02961
221.452,28.1501,-0.15609,0.3719,1.02929
222.152,28.21698,-0.1551,0.36993,1.02898
222.852,28.2839,-0.15643,0.36939,1.02867
223.552,28.3509,-0.15773,0.37013,1.02835
224.252,28.41785,-0.15903,0.3682,1.02804
224.952,28.48491,-0.16258,0.37131,1.02772
225.652,28.552,-0.16396,0.37149,1.0274
226.352,28.61911,-0.16645,0.36773,1.02709
227.052,28.68607,-0.16756,0.37142,1.02677
227.752,28.75295,-0.16896,0.37206,1.02645
228.452,28.8198,-0.17033,0.37173,1.02613
229.152,28.88683,-0.17196,0.37375,1.0258
229.852,28.95383,-0.17328,0.37345,1.02548
230.552,29.0209,-0.17666,0.37465,1.02516
231.252,29.088,-0.17857,0.37457,1.02483
231.952,29.1548,-0.17988,0.37335,1.02451
232.652,29.2218,-0.18256,0.37132,1.02418
233.352,29.2888,-0.18508,0.37321,1.02385
234.052,29.3558,-0.18808,0.37639,1.02352
234.752,29.42268,-0.18976,0.37437,1.02319
235.452,29.4895,-0.19211,0.37465,1.02286
236.152,29.5562,-0.1922,0.37581,1.02253
236.852,29.62288,-0.19415,0.37887,1.0222
237.552,29.6898,-0.19667,0.3767,1.02187
238.252,29.7568,-0.19797,0.37717,1.02153
238.952,29.8239,-0.20007,0.3766,1.0212
239.652,29.8904,-0.20203,0.3792,1.02086
240.352,29.9569,-0.20523,0.37987,1.02052
241.052,30.02354,-0.20792,0.3801,1.02018
241.752,30.09005,-0.21225,0.38215,1.01984
242.452,30.15669,-0.21513,0.382,1.01951
243.152,30.22342,-0.21811,0.38449,1.01916
243.852,30.2904,-0.22123,0.38558,1.01882
244.552,30.3568,-0.22432,0.38711,1.01848
245.252,30.42362,-0.22741,0.38802,1.01814
245.952,30.49039,-0.22859,0.39204,1.01779
246.652,30.5575,-0.23145,0.39237,1.01745
247.352,30.62446,-0.23449,0.3938,1.0171
248.052,30.6913,-0.23627,0.39488,1.01675
248.752,30.75827,-0.23863,0.39733,1.0164
249.452,30.82518,-0.2434,0.39909,1.01605
250.152,30.89203,-0.24986,0.40205,1.0157
250.852,30.9589,-0.25426,0.40411,1.01535
251.552,31.02573,-0.25907,0.40736,1.015
252.252,31.0925,-0.26339,0.40927,1.01465
252.952,31.1592,-0.26635,0.40946,1.01429
253.652,31.22598,-0.27119,0.40619,1.01394
254.352,31.29283,-0.27538,0.40497,1.01358
255.052,31.3596,-0.27925,0.40422,1.01323
255.752,31.4264,-0.2827,0.39723,1.01287
256.452,31.4932,-0.28701,0.39292,1.01251
257.152,31.55995,-0.29253,0.38828,1.01215
257.852,31.62657,-0.29606,0.38595,1.01179
258.552,31.69326,-0.30324,0.3842,1.01143
259.252,31.76002,-0.30866,0.38356,1.01107
259.952,31.8271,-0.31224,0.38285,1.01071
260.652,31.8937,-0.31952,0.38155,1.01034
261.352,31.96048,-0.32481,0.38093,1.00998
262.052,32.0274,-0.32927,0.38378,1.00961
262.752,32.09451,-0.33435,0.37919,1.00925
263.452,32.16141,-0.34197,0.38162,1.00888
264.152,32.2282,-0.34788,0.3812,1.00851
264.852,32.29497,-0.35559,0.38129,1.00814
265.552,32.362,-0.3611,0.37823,1.00777
266.252,32.42896,-0.36671,0.37875,1.0074
266.952,32.4959,-0.37399,0.38067,1.00703
267.652,32.56293,-0.38136,0.38013,1.00666
268.352,32.62989,-0.38774,0.38023,1.00628
269.052,32.69706,-0.39599,0.3785,1.00591
269.752,32.76399,-0.40432,0.37879,1.00553
270.452,32.83078,-0.41246,0.37942,1.00516
271.152,32.8975,-0.42221,0.37689,1.00478
271.852,32.96418,-0.43005,0.37705,1.0044
272.552,33.03096,-0.43742,0.37668,1.00402
273.252,33.09791,-0.44543,0.37852,1.00364
273.952,33.16494,-0.45554,0.37697,1.00326
274.652,33.23207,-0.46367,0.37585,1.00288
275.352,33.29902,-0.47202,0.37321,1.0025
276.052,33.3658,-0.48049,0.37439,1.00212
276.752,33.43257,-0.48951,0.37271,1.00173
277.452,33.49927,-0.49876,0.37214,1.00135
278.152,33.56615,-0.50646,0.36979,1.00096
278.852,33.63297,-0.51747,0.37025,1.00057
279.552,33.69985,-0.52768,0.36932,1.00019
280.252,33.76699,-0.53713,0.36904,0.9998
280.952,33.83416,-0.54774,0.36901,0.99941
281.652,33.90106,-0.55922,0.36965,0.99902
282.352,33.96785,-0.56825,0.36782,0.99863
283.052,34.03461,-0.57933,0.36542,0.99824
283.752,34.1017,-0.59215,0.36483,0.99784
284.452,34.1687,-0.60279,0.3621,0.99745
285.152,34.2356,-0.61397,0.36436,0.99705
285.852,34.3024,-0.62723,0.36607,0.99666
286.552,34.36942,-0.63717,0.36333,0.99626
287.252,34.43665,-0.6486,0.36374,0.99587
287.952,34.50396,-0.65895,0.36222,0.99547
288.652,34.57108,-0.67297,0.36324,0.99507
289.352,34.6377,-0.68512,0.36287,0.99467
290.052,34.70487,-0.69745,0.36214,0.99427
290.752,34.772,-0.70973,0.36136,0.99387
291.452,34.83954,-0.72295,0.36191,0.99347
292.152,34.90679,-0.73681,0.36133,0.99306
292.852,34.9741,-0.74935,0.36007,0.99266
293.552,35.0415,-0.76179,0.35989,0.99226
294.252,35.1088,-0.77567,0.36162,0.99185
294.952,35.17617,-0.79031,0.36119,0.99144
295.652,35.24293,-0.80357,0.36265,0.99104
296.352,35.30995,-0.81848,0.36084,0.99063
297.052,35.377,-0.83141,0.36125,0.99022
297.752,35.44443,-0.8451,0.36132,0.98981
298.452,35.51171,-0.86053,0.36029,0.9894
299.152,35.57914,-0.87399,0.35957,0.98899
299.852,35.64646,-0.8884,0.36301,0.98858
300.552,35.71368,-0.90245,0.36101,0.98816
301.252,35.78094,-0.91689,0.36237,0.98775
301.952,35.8482,-0.93111,0.36442,0.98734
302.652,35.91537,-0.94535,0.36327,0.98692
303.352,35.98273,-0.95963,0.36538,0.9865
304.052,36.05002,-0.97303,0.36425,0.98609
304.752,36.11738,-0.98825,0.36371,0.98567
305.452,36.18443,-1.0047,0.36599,0.98525
306.152,36.25177,-1.02037,0.36439,0.98483
306.852,36.3192,-1.03512,0.364,0.98441
307.552,36.38635,-1.05029,0.3668,0.98399
308.252,36.4538,-1.06639,0.36915,0.98357
308.952,36.52128,-1.07814,0.36973,0.98314
309.652,36.58916,-1.09266,0.37177,0.98272
310.352,36.65651,-1.10767,0.37196,0.9823
311.052,36.72368,-1.12198,0.37038,0.98187
311.752,36.79083,-1.13615,0.37384,0.98145
312.452,36.85808,-1.15116,0.37384,0.98102
313.152,36.9254,-1.16604,0.3746,0.98059
313.852,36.99268,-1.18066,0.37509,0.98016
314.552,37.06023,-1.19596,0.37761,0.97973
315.252,37.12768,-1.21181,0.37781,0.9793
315.952,37.19506,-1.22733,0.38035,0.97887
316.652,37.26234,-1.24142,0.38188,0.97844
317.352,37.32972,-1.25554,0.38313,0.97801
318.052,37.39713,-1.27128,0.38636,0.97758
318.752,37.46463,-1.28479,0.38829,0.97714
319.452,37.53213,-1.29868,0.38733,0.97671
320.152,37.5998,-1.31487,0.39056,0.97627
320.852,37.66734,-1.32922,0.39182,0.97584
321.552,37.73494,-1.34295,0.39359,0.9754
322.252,37.8024,-1.35932,0.39564,0.97496
322.952,37.86965,-1.37341,0.40033,0.97452
323.652,37.93694,-1.38802,0.40172,0.97408
324.352,38.00412,-1.40227,0.40521,0.97364
325.052,38.07148,-1.41754,0.40459,0.9732
325.752,38.13884,-1.43222,0.40965,0.97276
326.452,38.20644,-1.44843,0.41231,0.97232
327.152,38.27393,-1.46415,0.41633,0.97187
327.852,38.3413,-1.4785,0.42081,0.97143
328.552,38.4086,-1.4948,0.42305,0.97099
329.252,38.47589,-1.50918,0.42706,0.97054
329.952,38.5433,-1.52234,0.43304,0.97009
330.652,38.6107,-1.53851,0.43928,0.96965
331.352,38.67807,-1.55439,0.44174,0.9692
332.052,38.74552,-1.57187,0.44419,0.96875
332.752,38.81308,-1.58804,0.44902,0.9683
333.452,38.88062,-1.60433,0.45225,0.96785
334.152,38.9481,-1.62066,0.45875,0.9674
334.852,39.01558,-1.63912,0.4653,0.96695
335.552,39.08319,-1.65523,0.47051,0.9665
336.252,39.1509,-1.6726,0.47671,0.96604
336.952,39.21859,-1.69138,0.48143,0.96559
337.652,39.28631,-1.70821,0.48872,0.96513
338.352,39.354,-1.72601,0.4918,0.96468
339.052,39.4218,-1.74553,0.50098,0.96422
339.752,39.48955,-1.76505,0.50679,0.96376
340.452,39.55747,-1.78512,0.51372,0.96331
341.152,39.62536,-1.80339,0.52124,0.96285
341.852,39.69324,-1.82481,0.53031,0.96239
342.552,39.76103,-1.84552,0.53591,0.96193
343.252,39.82878,-1.86767,0.54386,0.96147
343.952,39.89645,-1.88826,0.5553,0.96101
344.652,39.9643,-1.91152,0.56471,0.96055
345.352,40.03202,-1.93475,0.57481,0.96008
346.052,40.1,-1.95833,0.58476,0.95962
346.752,40.16785,-1.98153,0.59492,0.95915
347.452,40.23565,-2.00591,0.60612,0.95869
348.152,40.30342,-2.03179,0.61453,0.95822
348.852,40.37105,-2.06061,0.62733,0.95776
349.552,40.43906,-2.08647,0.63792,0.95729
350.252,40.50718,-2.11568,0.64774,0.95682
350.952,40.57521,-2.14648,0.66204,0.95635
351.652,40.64315,-2.17607,0.67197,0.95588
352.352,40.71082,-2.20748,0.67864,0.95541
353.052,40.77885,-2.23966,0.68861,0.95494
353.752,40.84662,-2.27357,0.69284,0.95447
354.452,40.9145,-2.30856,0.69502,0.954
355.152,40.98245,-2.34224,0.69141,0.95353
355.852,41.0503,-2.37576,0.68511,0.95305
356.552,41.1182,-2.40866,0.67302,0.95258
357.252,41.1859,-2.44159,0.65441,0.9521
357.952,41.25374,-2.47562,0.63268,0.95163
358.652,41.32154,-2.50771,0.60264,0.95115
359.352,41.38925,-2.53661,0.56945,0.95067
360.052,41.4568,-2.56615,0.53308,0.95019
360.752,41.5242,-2.59291,0.49817,0.94972
361.452,41.59173,-2.61685,0.46021,0.94924
362.152,41.65919,-2.63984,0.42275,0.94876
362.852,41.72664,-2.65924,0.38204,0.94828
363.552,41.79404,-2.67672,0.34898,0.94779
364.252,41.86159,-2.6942,0.31854,0.94731
364.952,41.92903,-2.70849,0.28942,0.94683
365.652,41.99648,-2.72266,0.26399,0.94635
366.352,42.06385,-2.73286,0.24182,0.94586
367.052,42.1314,-2.74317,0.22155,0.94538
367.752,42.19877,-2.75327,0.20309,0.94489
368.452,42.26616,-2.75922,0.18736,0.9444
369.152,42.3335,-2.76606,0.17565,0.94392
369.852,42.4011,-2.77296,0.16086,0.94343
370.552,42.46864,-2.77838,0.15081,0.94294
371.252,42.53644,-2.78314,0.14048,0.94245
371.952,42.60399,-2.78745,0.1321,0.94196
372.652,42.67171,-2.79344,0.1232,0.94147
373.352,42.73939,-2.79748,0.11958,0.94098
374.052,42.807,-2.80074,0.11616,0.94049
374.752,42.87478,-2.80508,0.10773,0.94
375.452,42.9424,-2.8082,0.10368,0.9395
376.152,43.01027,-2.81204,0.09987712,0.93901
376.852,43.07819,-2.81567,0.09801446,0.93851
377.552,43.14598,-2.82022,0.09528061,0.93802
378.252,43.2138,-2.82463,0.09208126,0.93752
378.952,43.28163,-2.82651,0.08975811,0.93703
379.652,43.34962,-2.82934,0.08620837,0.93653
380.352,43.4176,-2.83202,0.08577966,0.93603
381.052,43.4857,-2.83441,0.08178285,0.93553
381.752,43.55384,-2.83643,0.07833845,0.93503
382.452,43.62213,-2.8378,0.07697422,0.93453
383.152,43.6905,-2.84159,0.07481199,0.93403
383.852,43.75873,-2.84466,0.0712435,0.93353
384.552,43.8268,-2.84623,0.07036921,0.93303
385.252,43.89498,-2.84802,0.0654479,0.93253
385.952,43.96329,-2.85032,0.06535975,0.93203
386.652,44.03164,-2.85406,0.06562196,0.93152
387.352,44.10006,-2.85732,0.06316803,0.93102
388.052,44.16832,-2.86008,0.06153721,0.93051
388.752,44.2366,-2.86364,0.05901986,0.93001
389.452,44.3048,-2.86601,0.05662062,0.9295
390.152,44.37321,-2.86728,0.05513909,0.92899
390.852,44.4416,-2.86768,0.05421344,0.92849
391.552,44.50999,-2.87005,0.05032713,0.92798
392.252,44.57823,-2.87384,0.05055411,0.92747
392.952,44.6464,-2.87644,0.0518979,0.92696
393.652,44.7146,-2.87887,0.04777915,0.92645
394.352,44.7828,-2.88112,0.04840579,0.92594
395.052,44.85091,-2.88287,0.04735434,0.92543
395.752,44.91898,-2.88444,0.04471082,0.92492
396.452,44.98695,-2.88686,0.0443829,0.9244
397.152,45.05503,-2.88813,0.04482262,0.92389
397.852,45.12296,-2.89127,0.04118485,0.92338
398.552,45.1911,-2.89429,0.04161926,0.92286
399.252,45.25912,-2.89651,0.04184976,0.92235
399.952,45.3273,-2.89911,0.03977167,0.92183
400.652,45.39533,-2.90055,0.04027886,0.92131
401.352,45.46338,-2.90186,0.0412287,0.9208
402.052,45.53135,-2.90495,0.03648115,0.92028
402.752,45.59932,-2.90712,0.03729224,0.91976
403.452,45.66738,-2.9076,0.03576531,0.91924
404.152,45.73551,-2.91031,0.0343158,0.91872
404.852,45.80358,-2.91257,0.03376811,0.9182
405.552,45.87167,-2.91536,0.03154784,0.91768
406.252,45.93972,-2.91873,0.03308161,0.91716
406.952,46.00795,-2.92018,0.03217111,0.91664
407.652,46.07607,-2.92269,0.03025188,0.91612
408.352,46.14431,-2.92305,0.02980363,0.91559
409.052,46.21247,-2.9243,0.02806854,0.91507
409.752,46.28074,-2.92606,0.02692182,0.91455
410.452,46.3491,-2.92897,0.02289358,0.91402
411.152,46.41747,-2.93041,0.02769326,0.9135
411.852,46.48583,-2.93301,0.02642617,0.91297
412.552,46.55415,-2.93603,0.02656341,0.91244
413.252,46.62276,-2.93913,0.02133382,0.91192
413.952,46.6912,-2.94068,0.0242334,0.91139
414.652,46.7597,-2.94266,0.02418248,0.91086
415.352,46.8279,-2.94457,0.02315097,0.91033
416.052,46.89631,-2.94675,0.02178909,0.9098
416.752,46.96472,-2.94827,0.02332029,0.90927
417.452,47.03327,-2.94972,0.02367162,0.90874
418.152,47.10178,-2.9523,0.02328153,0.90821
418.852,47.17029,-2.95232,0.02265564,0.90768
419.552,47.2386,-2.9564,0.02025175,0.90714
420.252,47.30702,-2.95927,0.01971526,0.90661
420.952,47.37526,-2.96065,0.02324468,0.90608
421.652,47.44359,-2.96194,0.02415,0.90554
422.352,47.5116,-2.96203,0.02091314,0.90501
423.052,47.57998,-2.96471,0.02273335,0.90447
423.752,47.6481,-2.96738,0.02735332,0.90394
424.452,47.71686,-2.96799,0.02624994,0.9034
425.152,47.7851,-2.97172,0.0251258,0.90286
425.852,47.85354,-2.97345,0.02937695,0.90233
426.552,47.9219,-2.9748,0.02586994,0.90179
427.252,47.9902,-2.97612,0.03071676,0.90125
427.952,48.05859,-2.97748,0.02864737,0.90071
428.652,48.1267,-2.98104,0.02710338,0.90017
429.352,48.1952,-2.98249,0.02919,0.89963
430.052,48.26362,-2.98389,0.02763288,0.89909
430.752,48.33232,-2.98513,0.02939638,0.89855
431.452,48.4009,-2.98777,0.02761817,0.89801
432.152,48.46962,-2.99038,0.03044208,0.89746
432.852,48.53804,-2.99037,0.02864788,0.89692
433.552,48.60665,-2.99169,0.03051164,0.89638
434.252,48.67514,-2.99302,0.03225574,0.89583
434.952,48.74393,-2.99432,0.03349044,0.89529
435.652,48.81238,-2.99562,0.0315936,0.89474
436.352,48.88081,-2.99704,0.03604251,0.8942
437.052,48.94921,-2.99991,0.03490726,0.89365
437.752,49.01777,-3.00255,0.0352821,0.8931
438.452,49.08635,-3.00536,0.03815629,0.89255
439.152,49.1551,-3.00824,0.03756656,0.89201
439.852,49.22383,-3.00706,0.03848264,0.89146
440.552,49.29266,-3.00947,0.04035079,0.89091
441.252,49.36136,-3.01077,0.03906277,0.89036
441.952,49.4302,-3.0122,0.03972462,0.88981
442.652,49.499,-3.01352,0.04005341,0.88926
443.352,49.56776,-3.0137,0.04276726,0.88871
444.052,49.6364,-3.01545,0.04227229,0.88816
444.752,49.70534,-3.01584,0.04457024,0.8876
445.452,49.7742,-3.01641,0.04475106,0.88705
446.152,49.8432,-3.02017,0.04477907,0.8865
446.852,49.91198,-3.02156,0.0471383,0.88594
447.552,49.98086,-3.02461,0.04531589,0.88539
448.252,50.04958,-3.02581,0.04801259,0.88483
448.952,50.11841,-3.02581,0.04901143,0.88428
449.652,50.1871,-3.02711,0.05029249,0.88372
450.352,50.25602,-3.02702,0.05190596,0.88317
451.052,50.32499,-3.02844,0.05269646,0.88261
451.752,50.3941,-3.03121,0.0525658,0.88205
452.452,50.46306,-3.03264,0.05455383,0.8815
453.152,50.53187,-3.03382,0.05472151,0.88094
453.852,50.60091,-3.03388,0.05391928,0.88038
454.552,50.66997,-3.03776,0.05635822,0.87982
455.252,50.73927,-3.03779,0.0560523,0.87926
455.952,50.80822,-3.03908,0.05593466,0.8787
456.652,50.87719,-3.0404,0.05728471,0.87814
457.352,50.94618,-3.0404,0.05961265,0.87758
458.052,51.0154,-3.04232,0.0601871,0.87701
458.752,51.08452,-3.04306,0.05990845,0.87645
459.452,51.15347,-3.04446,0.06063449,0.87589
460.152,51.22244,-3.04444,0.06318169,0.87533
460.852,51.29142,-3.04627,0.06281892,0.87476
461.552,51.36055,-3.04752,0.06386182,0.8742
462.252,51.42967,-3.04883,0.06603617,0.87363
462.952,51.49884,-3.0495,0.06272895,0.87307
463.652,51.56791,-3.05082,0.06719079,0.8725
464.352,51.63711,-3.05082,0.06238555,0.87194
465.052,51.70625,-3.05214,0.06636823,0.87137
465.752,51.7752,-3.05344,0.06745793,0.8708
466.452,51.8442,-3.0547,0.06617168,0.87023
467.152,51.91316,-3.05545,0.06486827,0.86967
467.852,51.9822,-3.05807,0.06795413,0.8691
468.552,52.0512,-3.05909,0.06776502,0.86853
469.252,52.1201,-3.05937,0.06949084,0.86796
469.952,52.18915,-3.05919,0.06890941,0.86739
470.652,52.25823,-3.05954,0.06946254,0.86682
471.352,52.32737,-3.06227,0.06865244,0.86625
472.052,52.39631,-3.06217,0.07355769,0.86568
472.752,52.46521,-3.06354,0.07340217,0.8651
473.452,52.53414,-3.06346,0.07396166,0.86453
474.152,52.60314,-3.06485,0.07347944,0.86396
474.852,52.6723,-3.06555,0.07454447,0.86339
475.552,52.74142,-3.06551,0.07521648,0.86281
476.252,52.8102,-3.06683,0.07916965,0.86224
476.952,52.8789,-3.0685,0.083068,0.86166
477.652,52.9474,-3.07214,0.08482933,0.86109
478.352,53.01611,-3.0722,0.0871512,0.86051
479.052,53.08486,-3.07089,0.08526157,0.85994
479.752,53.15356,-3.07088,0.09020337,0.85936
480.452,53.2224,-3.07217,0.09176436,0.85878
481.152,53.2911,-3.07458,0.09110784,0.85821
481.852,53.36,-3.07549,0.09276878,0.85763
482.552,53.42901,-3.07677,0.09724399,0.85705
483.252,53.49785,-3.07599,0.09643381,0.85647
483.952,53.56655,-3.07661,0.10001,0.85589
484.652,53.63525,-3.0785,0.09959687,0.85531
485.352,53.7042,-3.07933,0.10208,0.85473
486.052,53.7732,-3.07933,0.10748,0.85415
486.752,53.84255,-3.08064,0.10924,0.85357
487.452,53.91151,-3.08203,0.10632,0.85299
488.152,53.9805,-3.08196,0.10735,0.85241
488.852,54.0493,-3.08261,0.10932,0.85183
489.552,54.11838,-3.08461,0.10669,0.85125
490.252,54.18781,-3.08643,0.10828,0.85066
490.952,54.25714,-3.08726,0.11275,0.85008
491.652,54.32668,-3.0886,0.11532,0.8495
492.352,54.39589,-3.08863,0.11772,0.84891
493.052,54.4652,-3.08986,0.12083,0.84833
493.752,54.53442,-3.09065,0.12369,0.84774
494.452,54.6038,-3.09249,0.12474,0.84716
495.152,54.6729,-3.09381,0.12468,0.84657
495.852,54.7421,-3.09512,0.12536,0.84598
496.552,54.81115,-3.09378,0.12611,0.8454
497.252,54.88044,-3.09482,0.1301,0.84481
497.952,54.94951,-3.09512,0.12858,0.84422
498.652,55.01874,-3.09646,0.13078,0.84364
499.352,55.0877,-3.0972,0.13319,0.84305
500.052,55.1572,-3.09917,0.13257,0.84246
500.752,55.2263,-3.09917,0.13295,0.84187
501.452,55.29595,-3.10086,0.13333,0.84128
502.152,55.36531,-3.10083,0.13335,0.84069
502.852,55.4349,-3.10083,0.13499,0.8401
503.552,55.50407,-3.09956,0.13282,0.83951
504.252,55.5732,-3.1008,0.13507,0.83892
504.952,55.6425,-3.10216,0.13252,0.83833
505.652,55.71199,-3.10343,0.13142,0.83774
506.352,55.7815,-3.10478,0.1262,0.83714
507.052,55.851,-3.1061,0.12257,0.83655
507.752,55.92064,-3.1061,0.11689,0.83596
508.452,55.99035,-3.10743,0.11231,0.83537
509.152,56.05972,-3.11005,0.11099,0.83477
509.852,56.12902,-3.10871,0.10635,0.83418
510.552,56.1984,-3.10873,0.10811,0.83358
511.252,56.268,-3.10873,0.10772,0.83299
511.952,56.33766,-3.11004,0.10654,0.83239
512.652,56.4069,-3.11136,0.10476,0.8318
513.352,56.4764,-3.11229,0.10293,0.8312
514.052,56.54586,-3.11372,0.1011,0.83061
514.752,56.61552,-3.11279,0.10326,0.83001
515.452,56.68518,-3.11351,0.09997308,0.82941
516.152,56.75479,-3.11409,0.1009,0.82882
516.852,56.8243,-3.11293,0.10055,0.82822
517.552,56.8937,-3.11543,0.09666469,0.82762
518.252,56.963,-3.11536,0.09782812,0.82702
518.952,57.03255,-3.11674,0.09867821,0.82642
519.652,57.10205,-3.11806,0.09752193,0.82582
520.352,57.1715,-3.11937,0.09771503,0.82522
521.052,57.24094,-3.11894,0.09798946,0.82462
521.752,57.31038,-3.11937,0.09770671,0.82402
522.452,57.37995,-3.12068,0.09569445,0.82342
523.152,57.44955,-3.12068,0.09859046,0.82282
523.852,57.519,-3.12068,0.09705077,0.82222
524.552,57.5886,-3.12177,0.09897003,0.82162
525.252,57.6582,-3.12119,0.09872445,0.82102
525.952,57.72781,-3.122,0.1002,0.82041
526.652,57.7973,-3.12215,0.09839959,0.81981
527.352,57.8667,-3.12331,0.10064,0.81921
528.052,57.93609,-3.12331,0.09826062,0.81861
528.752,58.0055,-3.12464,0.1003,0.818
529.452,58.07496,-3.12595,0.10012,0.8174
530.152,58.14425,-3.12563,0.09877455,0.81679
530.852,58.2135,-3.12728,0.10253,0.81619
531.552,58.2827,-3.12595,0.10162,0.81558
532.252,58.35225,-3.12595,0.1001,0.81498
532.952,58.4218,-3.12602,0.10031,0.81437
533.652,58.49117,-3.12834,0.09971236,0.81377
534.352,58.56051,-3.12858,0.10049,0.81316
535.052,58.62989,-3.12859,0.09983738,0.81255
535.752,58.6993,-3.1299,0.10221,0.81195
536.452,58.7686,-3.12992,0.09887637,0.81134
537.152,58.8378,-3.13122,0.10038,0.81073
537.852,58.90719,-3.13137,0.10135,0.81012
538.552,58.9765,-3.13216,0.1038,0.80952
539.252,59.04603,-3.1303,0.10059,0.80891
539.952,59.1156,-3.13022,0.10071,0.8083
540.652,59.1851,-3.13175,0.09836533,0.80769
541.352,59.2546,-3.13361,0.09713518,0.80708
542.052,59.3243,-3.13352,0.09951063,0.80647
542.752,59.39396,-3.13486,0.09819335,0.80586
543.452,59.46376,-3.13355,0.09962806,0.80525
544.152,59.53343,-3.13483,0.09925085,0.80464
544.852,59.60317,-3.13516,0.09650753,0.80403
545.552,59.673,-3.13614,0.09851252,0.80342
546.252,59.74298,-3.1387,0.09968632,0.80281
546.952,59.8129,-3.13759,0.09829257,0.80219
547.652,59.8827,-3.14011,0.10078,0.80158
548.352,59.95254,-3.1399,0.10251,0.80097
549.052,60.02242,-3.13964,0.10001,0.80036
549.752,60.09225,-3.1401,0.09744533,0.79974
550.452,60.1621,-3.1401,0.09942003,0.79913
551.152,60.2322,-3.14008,0.09936432,0.79852
551.852,60.3023,-3.14141,0.09722939,0.7979
552.552,60.3723,-3.14141,0.09782124,0.79729
553.252,60.44215,-3.14217,0.09703455,0.79667
553.952,60.51209,-3.14385,0.09795466,0.79606
554.652,60.5815,-3.14404,0.09463473,0.79544
555.352,60.6513,-3.14402,0.09592873,0.79483
556.052,60.72115,-3.14536,0.094967,0.79421
556.752,60.79139,-3.14667,0.09794663,0.7936
557.452,60.8612,-3.14644,0.09571365,0.79298
558.152,60.9307,-3.14707,0.09701582,0.79236
558.852,61.00036,-3.148,0.09683888,0.79175
559.552,61.06991,-3.14767,0.09690751,0.79113
560.252,61.13961,-3.14899,0.09583908,0.79051
560.952,61.2092,-3.149,0.09788806,0.7899
561.652,61.2789,-3.15039,0.09993315,0.78928
562.352,61.34867,-3.14921,0.09693662,0.78866
563.052,61.4185,-3.15053,0.09613135,0.78804
563.752,61.48845,-3.15184,0.09721561,0.78742
564.452,61.55837,-3.15205,0.09636612,0.7868
565.152,61.628,-3.15315,0.09608355,0.78619
565.852,61.6979,-3.15315,0.09464841,0.78557
566.552,61.7675,-3.15315,0.09554019,0.78495
567.252,61.83739,-3.15458,0.09568507,0.78433
567.952,61.9069,-3.15463,0.09081274,0.78371
568.652,61.97673,-3.1549,0.09246157,0.78309
569.352,62.0465,-3.15613,0.09583352,0.78247
570.052,62.11656,-3.15685,0.09410818,0.78185
570.752,62.18636,-3.15754,0.09257592,0.78122
571.452,62.2563,-3.15815,0.09378593,0.7806
572.152,62.3263,-3.15886,0.09517891,0.77998
572.852,62.39637,-3.1585,0.0934037,0.77936
573.552,62.46637,-3.15754,0.09066563,0.77874
574.252,62.53611,-3.15886,0.09156162,0.77811
574.952,62.6059,-3.15875,0.08992766,0.77749
575.652,62.6758,-3.16128,0.09139079,0.77687
576.352,62.74573,-3.16149,0.09447832,0.77625
577.052,62.8157,-3.16203,0.09219489,0.77562
577.752,62.8857,-3.16281,0.09373647,0.775
578.452,62.9556,-3.16281,0.09102109,0.77438
579.152,63.02571,-3.1628,0.0909118,0.77375
579.852,63.0955,-3.16412,0.09130928,0.77313
580.552,63.16559,-3.16412,0.09208742,0.7725
581.252,63.23545,-3.16423,0.09378185,0.77188
581.952,63.3055,-3.16412,0.09207601,0.77125
582.652,63.37551,-3.16412,0.08997493,0.77063
583.352,63.44568,-3.16412,0.09139136,0.77
584.052,63.51588,-3.16545,0.09197361,0.76938
584.752,63.5859,-3.16544,0.09262281,0.76875
585.452,63.65586,-3.16553,0.092298,0.76813
586.152,63.7258,-3.16675,0.09288856,0.7675
586.852,63.79589,-3.16675,0.09110206,0.76687
587.552,63.86589,-3.16618,0.09162161,0.76625
588.252,63.93595,-3.16675,0.09411778,0.76562
588.952,64.00572,-3.16675,0.09619199,0.76499
589.652,64.07558,-3.16675,0.0956064,0.76437
590.352,64.1454,-3.16675,0.09351805,0.76374
591.052,64.21539,-3.16678,0.09799894,0.76311
591.752,64.2855,-3.16839,0.09660216,0.76248
592.452,64.35542,-3.16839,0.09789157,0.76186
593.152,64.4253,-3.16839,0.0952961,0.76123
593.852,64.49509,-3.1681,0.09789746,0.7606
594.552,64.56498,-3.1684,0.09784065,0.75997
595.252,64.6348,-3.16924,0.09827335,0.75934
595.952,64.70465,-3.16972,0.10071,0.75871
596.652,64.7744,-3.16972,0.10153,0.75808
597.352,64.84451,-3.16972,0.10376,0.75745
598.052,64.91416,-3.17083,0.10161,0.75682
598.752,64.98421,-3.1697,0.1008,0.75619
599.452,65.05408,-3.17103,0.10087,0.75556
600.152,65.12429,-3.17232,0.0972792,0.75493
600.852,65.19422,-3.17235,0.10378,0.7543
601.552,65.26432,-3.17235,0.10178,0.75367
602.252,65.33442,-3.17235,0.10132,0.75304
602.952,65.40448,-3.17235,0.10448,0.75241
603.652,65.47445,-3.17237,0.10326,0.75178
604.352,65.54437,-3.17366,0.10566,0.75115
605.052,65.61446,-3.17366,0.10353,0.75052
605.752,65.68482,-3.17366,0.10441,0.74989
606.452,65.75535,-3.17503,0.10603,0.74926
607.152,65.82588,-3.17498,0.10926,0.74862
607.852,65.89623,-3.17533,0.10795,0.74799
608.552,65.96653,-3.17629,0.10703,0.74736
609.252,66.03664,-3.1763,0.11048,0.74673
609.952,66.10687,-3.17892,0.11193,0.74609
610.652,66.17709,-3.17893,0.1102,0.74546
611.352,66.24722,-3.17943,0.11032,0.74483
612.052,66.31742,-3.17885,0.11201,0.7442
612.752,66.38756,-3.17892,0.11186,0.74356
613.452,66.45789,-3.17893,0.11296,0.74293
614.152,66.52803,-3.17893,0.11524,0.7423
614.852,66.59813,-3.1803,0.11364,0.74166
615.552,66.6683,-3.1801,0.1168,0.74103
616.252,66.73844,-3.18086,0.11787,0.74039
616.952,66.80861,-3.18352,0.11657,0.73976
617.652,66.87865,-3.18353,0.1166,0.73913
618.352,66.94881,-3.18353,0.11726,0.73849
619.052,67.019,-3.18223,0.12232,0.73786
619.752,67.08922,-3.18156,0.11961,0.73722
620.452,67.15952,-3.18025,0.12378,0.73659
621.152,67.22944,-3.18025,0.12189,0.73595
621.852,67.29915,-3.18025,0.12155,0.73532
622.552,67.36914,-3.18086,0.1247,0.73468
623.252,67.43953,-3.18287,0.12169,0.73405
623.952,67.51003,-3.18287,0.12551,0.73341
624.652,67.57998,-3.18518,0.12405,0.73277
625.352,67.65009,-3.18551,0.12468,0.73214
626.052,67.72,-3.1855,0.12478,0.7315
626.752,67.79038,-3.1855,0.12802,0.73087
627.452,67.86061,-3.18616,0.12852,0.73023
628.152,67.931,-3.18653,0.12794,0.72959
628.852,68.00123,-3.18617,0.12882,0.72896
629.552,68.07122,-3.18552,0.12773,0.72832
630.252,68.14152,-3.1865,0.1286,0.72768
630.952,68.21173,-3.1865,0.12732,0.72705
631.652,68.28233,-3.18779,0.1291,0.72641
632.352,68.3526,-3.18781,0.12861,0.72577
633.052,68.42313,-3.18818,0.13291,0.72514
633.752,68.49354,-3.18946,0.13083,0.7245
634.452,68.5639,-3.18946,0.13154,0.72386
635.152,68.6342,-3.19075,0.12937,0.72322
635.852,68.70438,-3.19078,0.1346,0.72259
636.552,68.77465,-3.19078,0.13293,0.72195
637.252,68.84496,-3.18945,0.13478,0.72131
637.952,68.9153,-3.18946,0.13549,0.72067
638.652,68.98575,-3.18985,0.13248,0.72003
639.352,69.05625,-3.19079,0.13423,0.71939
640.052,69.12657,-3.19204,0.13567,0.71876
640.752,69.19708,-3.1934,0.13434,0.71812
641.452,69.2675,-3.19338,0.13834,0.71748
642.152,69.3382,-3.1934,0.13572,0.71684
642.852,69.40869,-3.1934,0.13745,0.7162
643.552,69.47926,-3.19241,0.1372,0.71556
644.252,69.54971,-3.19241,0.13715,0.71492
644.952,69.6202,-3.19241,0.13534,0.71429
645.652,69.69028,-3.19241,0.1395,0.71365
646.352,69.7606,-3.1924,0.13412,0.71301
647.052,69.83095,-3.19208,0.13817,0.71237
647.752,69.90136,-3.19313,0.13213,0.71173
648.452,69.97165,-3.19558,0.13735,0.71109
649.152,70.04185,-3.19479,0.13642,0.71045
649.852,70.1122,-3.19429,0.14019,0.70981
650.552,70.18235,-3.1956,0.14065,0.70917
651.252,70.25234,-3.1956,0.14016,0.70853
651.952,70.32266,-3.1956,0.14205,0.70789
652.652,70.393,-3.19424,0.13768,0.70725
653.352,70.4635,-3.19497,0.1421,0.70661
654.052,70.53358,-3.19529,0.14229,0.70597
654.752,70.60361,-3.19427,0.13857,0.70533
655.452,70.6737,-3.19429,0.14029,0.70469
656.152,70.74383,-3.19557,0.1384,0.70405
656.852,70.8139,-3.19698,0.14182,0.70341
657.552,70.88407,-3.19845,0.14065,0.70277
658.252,70.95442,-3.19845,0.14257,0.70213
658.952,71.02461,-3.19845,0.1396,0.70149
659.652,71.09469,-3.19748,0.13934,0.70085
660.352,71.16466,-3.19852,0.14197,0.7002
661.052,71.23495,-3.2001,0.14202,0.69956
661.752,71.3051,-3.20151,0.13973,0.69892
662.452,71.37535,-3.20142,0.14182,0.69828
663.152,71.44544,-3.20267,0.14433,0.69764
663.852,71.5158,-3.20147,0.14433,0.697
664.552,71.5862,-3.20143,0.14416,0.69636
665.252,71.6567,-3.20009,0.14624,0.69572
665.952,71.72712,-3.20142,0.14476,0.69508
666.652,71.79756,-3.20273,0.14322,0.69443
667.352,71.8682,-3.20173,0.14321,0.69379
668.052,71.93884,-3.20174,0.14163,0.69315
668.752,72.00958,-3.2024,0.1432,0.69251
669.452,72.08018,-3.2024,0.14552,0.69187
670.152,72.15058,-3.2024,0.14156,0.69123
670.852,72.22109,-3.2024,0.14454,0.69059
671.552,72.29185,-3.2024,0.14799,0.68994
672.252,72.36296,-3.20306,0.14617,0.6893
672.952,72.43366,-3.20336,0.14543,0.68866
673.652,72.5047,-3.20545,0.14927,0.68802
674.352,72.57542,-3.20568,0.15033,0.68738
675.052,72.64665,-3.20537,0.14721,0.68673
675.752,72.71741,-3.20438,0.1478,0.68609
676.452,72.78834,-3.20569,0.15002,0.68545
677.152,72.85896,-3.20525,0.15416,0.68481
677.852,72.9296,-3.20702,0.15248,0.68417
678.552,73.00023,-3.20405,0.14991,0.68353
679.252,73.07105,-3.20405,0.15074,0.68288
679.952,73.14154,-3.20405,0.14779,0.68224
680.652,73.21229,-3.20405,0.151,0.6816
681.352,73.2829,-3.20536,0.1488,0.68096
682.052,73.35385,-3.20404,0.15168,0.68031
682.752,73.4244,-3.20475,0.1546,0.67967
683.452,73.49505,-3.20668,0.15528,0.67903
684.152,73.56555,-3.20668,0.15737,0.67839
684.852,73.636,-3.20745,0.15427,0.67775
685.552,73.7064,-3.20897,0.15162,0.6771
686.252,73.7769,-3.20898,0.15554,0.67646
686.952,73.8474,-3.20766,0.14869,0.67582
687.652,73.9178,-3.20634,0.15444,0.67518
688.352,73.98809,-3.20503,0.15069,0.67453
689.052,74.05842,-3.20524,0.15472,0.67389
689.752,74.12869,-3.20635,0.15146,0.67325
690.452,74.19901,-3.20766,0.15658,0.67261
691.152,74.2693,-3.20766,0.15599,0.67196
691.852,74.33976,-3.20907,0.15715,0.67132
692.552,74.41023,-3.21051,0.15703,0.67068
693.252,74.4807,-3.2102,0.15788,0.67004
693.952,74.55121,-3.20835,0.15301,0.66939
694.652,74.62159,-3.20866,0.15321,0.66875
695.352,74.69199,-3.20887,0.15356,0.66811
696.052,74.76245,-3.20802,0.15389,0.66747
696.752,74.8329,-3.20856,0.15658,0.66682
697.452,74.9034,-3.20986,0.15544,0.66618
698.152,74.97384,-3.20986,0.15346,0.66554
698.852,75.04445,-3.20994,0.15475,0.6649
699.552,75.11502,-3.20854,0.15455,0.66426
700.252,75.18574,-3.20986,0.1529,0.66361
700.952,75.25653,-3.20986,0.15626,0.66297
701.652,75.32751,-3.20878,0.16242,0.66233
702.352,75.3985,-3.20875,0.15801,0.66169
703.052,75.46946,-3.20877,0.16214,0.66104
703.752,75.53975,-3.21007,0.15805,0.6604
704.452,75.6106,-3.21271,0.15538,0.65976
705.152,75.6815,-3.21336,0.15764,0.65912
705.852,75.75271,-3.21336,0.15743,0.65847
706.552,75.8233,-3.21278,0.15905,0.65783
707.252,75.89389,-3.21335,0.15876,0.65719
707.952,75.9648,-3.21338,0.15657,0.65655
708.652,76.03559,-3.21205,0.15713,0.65591
709.352,76.10633,-3.21306,0.15797,0.65526
710.052,76.17692,-3.21273,0.15911,0.65462
710.752,76.24759,-3.21209,0.16266,0.65398
711.452,76.31836,-3.21404,0.16336,0.65334
712.152,76.38915,-3.21431,0.16512,0.65269
712.852,76.4602,-3.21468,0.16208,0.65205
713.552,76.53098,-3.21468,0.16354,0.65141
714.252,76.60184,-3.21468,0.16048,0.65077
714.952,76.67263,-3.21527,0.16463,0.65013
715.652,76.74343,-3.216,0.16508,0.64948
716.352,76.81407,-3.21731,0.16772,0.64884
717.052,76.8849,-3.21462,0.16559,0.6482
717.752,76.95586,-3.21611,0.1647,0.64756
718.452,77.027,-3.21457,0.16481,0.64692
719.152,77.098,-3.21326,0.16629,0.64628
719.852,77.16896,-3.2159,0.16816,0.64563
720.552,77.2393,-3.21589,0.17053,0.64499
721.252,77.31013,-3.21589,0.16914,0.64435
721.952,77.3811,-3.21589,0.16447,0.64371
722.652,77.4524,-3.21657,0.16751,0.64307
723.352,77.52337,-3.21852,0.1697,0.64243
724.052,77.59434,-3.21852,0.16926,0.64178
724.752,77.6653,-3.21952,0.16813,0.64114
725.452,77.73612,-3.21822,0.16695,0.6405
726.152,77.807,-3.2182,0.17201,0.63986
726.852,77.87782,-3.2182,0.16729,0.63922
727.552,77.94872,-3.21688,0.16832,0.63858
728.252,78.01963,-3.21688,0.17257,0.63794
728.952,78.0906,-3.21843,0.16788,0.6373
729.652,78.16147,-3.21795,0.16854,0.63666
730.352,78.23217,-3.2171,0.17326,0.63601
731.052,78.30287,-3.21746,0.16957,0.63537
731.752,78.37366,-3.21813,0.16956,0.63473
732.452,78.44442,-3.21874,0.16822,0.63409
733.152,78.51528,-3.21874,0.16936,0.63345
733.852,78.586,-3.21874,0.17173,0.63281
734.552,78.65694,-3.21874,0.17144,0.63217
735.252,78.72785,-3.21873,0.17266,0.63153
735.952,78.79868,-3.21742,0.17338,0.63089
736.652,78.86952,-3.21742,0.17418,0.63025
737.352,78.94033,-3.21874,0.17312,0.62961
738.052,79.01136,-3.21751,0.17943,0.62897
738.752,79.08242,-3.21874,0.17585,0.62833
739.452,79.15353,-3.2194,0.17589,0.62769
740.152,79.22442,-3.22013,0.17922,0.62705
740.852,79.29526,-3.21869,0.18181,0.62641
741.552,79.36601,-3.21909,0.17733,0.62577
742.252,79.4369,-3.21874,0.17836,0.62513
742.952,79.5078,-3.21875,0.17633,0.62449
743.652,79.57903,-3.2194,0.17982,0.62385
744.352,79.6502,-3.21973,0.17797,0.62321
745.052,79.7212,-3.21973,0.1805,0.62257
745.752,79.79216,-3.21849,0.17929,0.62193
746.452,79.8632,-3.22148,0.18058,0.62129
747.152,79.93424,-3.22153,0.17948,0.62065
747.852,80.00511,-3.22083,0.17603,0.62001
748.552,80.07596,-3.21955,0.182,0.61938
749.252,80.14685,-3.21951,0.18152,0.61874
749.952,80.21752,-3.22083,0.17787,0.6181
750.652,80.28834,-3.21958,0.18081,0.61746
751.352,80.3591,-3.21951,0.17691,0.61682
752.052,80.43012,-3.21952,0.17834,0.61618
752.752,80.5011,-3.22149,0.18283,0.61554
753.452,80.57196,-3.22264,0.18459,0.61491
754.152,80.64288,-3.21883,0.1788,0.61427
754.852,80.7136,-3.21841,0.1852,0.61363
755.552,80.78464,-3.22113,0.18164,0.61299
756.252,80.85563,-3.22107,0.18098,0.61235
756.952,80.9268,-3.22201,0.18055,0.61172
757.652,80.9978,-3.22138,0.181,0.61108
758.352,81.06894,-3.2217,0.18135,0.61044
759.052,81.13985,-3.22302,0.18533,0.6098
759.752,81.211,-3.22302,0.18588,0.60917
760.452,81.2821,-3.22302,0.18616,0.60853
761.152,81.35343,-3.2237,0.18897,0.60789
761.852,81.42469,-3.22428,0.1892,0.60726
762.552,81.49561,-3.22302,0.1884,0.60662
763.252,81.5667,-3.22431,0.18783,0.60598
763.952,81.6378,-3.22433,0.189,0.60534
764.652,81.70931,-3.22433,0.19036,0.60471
765.352,81.78059,-3.22574,0.18699,0.60407
766.052,81.8518,-3.22293,0.18855,0.60344
766.752,81.923,-3.22291,0.18751,0.6028
767.452,81.99413,-3.22291,0.19076,0.60216
768.152,82.06501,-3.22423,0.1879,0.60153
768.852,82.1358,-3.22559,0.18997,0.60089
769.552,82.20687,-3.22555,0.19105,0.60026
770.252,82.278,-3.22522,0.19258,0.59962
770.952,82.34909,-3.22522,0.19542,0.59898
771.652,82.42008,-3.22653,0.19562,0.59835
772.352,82.49132,-3.22646,0.19189,0.59771
773.052,82.56246,-3.22629,0.19533,0.59708
773.752,82.6335,-3.22681,0.19448,0.59644
774.452,82.70445,-3.2262,0.19245,0.59581
775.152,82.77542,-3.22493,0.19346,0.59517
775.852,82.84629,-3.22423,0.19519,0.59454
776.552,82.91707,-3.22422,0.19365,0.59391
777.252,82.9876,-3.22454,0.19608,0.59327
777.952,83.05847,-3.22619,0.19475,0.59264
778.652,83.12906,-3.22621,0.19989,0.592
779.352,83.1999,-3.22686,0.19172,0.59137
780.052,83.2706,-3.22686,0.19752,0.59074
780.752,83.34173,-3.22688,0.19629,0.5901
781.452,83.41289,-3.22785,0.1972,0.58947
782.152,83.4841,-3.22785,0.19497,0.58884
782.852,83.55503,-3.22719,0.20034,0.5882
783.552,83.626,-3.22719,0.19826,0.58757
784.252,83.6969,-3.22824,0.19791,0.58694
784.952,83.768,-3.22845,0.20081,0.5863
785.652,83.8391,-3.2285,0.19982,0.58567
786.352,83.91011,-3.22917,0.20263,0.58504
787.052,83.98116,-3.22949,0.20446,0.58441
787.752,84.05213,-3.22946,0.19878,0.58377
788.452,84.12308,-3.23015,0.20171,0.58314
789.152,84.19415,-3.22918,0.2035,0.58251
789.852,84.2654,-3.22916,0.20298,0.58188
790.552,84.33669,-3.23059,0.20304,0.58125
791.252,84.40791,-3.22927,0.20522,0.58062
791.952,84.47925,-3.22993,0.20558,0.57998
792.652,84.55038,-3.23092,0.20683,0.57935
793.352,84.62159,-3.23092,0.20536,0.57872
794.052,84.69284,-3.23034,0.20554,0.57809
794.752,84.76427,-3.23096,0.20819,0.57746
795.452,84.83584,-3.2294,0.2113,0.57683
796.152,84.90727,-3.23083,0.21395,0.5762
796.852,84.9786,-3.23154,0.21131,0.57557
797.052,84.99891,-3.23148,0.21268,0.57539