File: 01_Data/LW_GypBoard_Gypsum_Core/MCC/LW_GypBoard_Gypsum_Core_MCC_30K_min_211129_R2.txt
Sample ID:	C:\MCC\MCC Cal\Test\LW_GypBoard_Gypsum_Core_MCC_30K_min_211129_R2.txt
Sample Weight (mg):	4.89
Heating Rate (C/s):	0.5
Combustor Temp (C):	900
N2 Flow Rate (cc/min):	80
O2 Flow Rate (cc/min):	20
Calibration File:	C:\MCC\MCC Cal\Coeff1 JN10440_30_210304.txt.txt
T Correction Coefficients:	0	1.024463	0
Time Shift (s):	14
*
Time (s)	Temperature (C)	N2 flow rate (cc/min)	O2 flow rate (cc/min)	Flow Rate (cc/min)	Oxygen (%)	HRR (W/g)	Heating rate (C/s)
0.000	107.665	80.006	19.995	103.096	20.104	-0.595	-0.014
2.000	107.647	80.006	19.994	103.095	20.104	-0.559	-0.028
4.000	107.667	80.007	19.993	103.094	20.104	-0.606	-0.015
6.000	107.703	80.006	19.994	103.095	20.099	-0.277	-0.006
8.000	107.684	80.006	19.994	103.094	20.099	-0.257	-0.024
10.000	107.705	80.006	19.994	103.095	20.101	-0.396	0.007
12.000	107.693	80.006	19.995	103.094	20.099	-0.253	0.006
14.000	107.686	80.006	19.994	103.095	20.100	-0.311	0.001
16.000	107.707	80.006	19.994	103.101	20.098	-0.203	-0.007
18.000	107.713	80.005	19.994	103.120	20.099	-0.232	-0.002
20.000	107.732	80.006	19.994	103.132	20.095	0.005	0.016
22.001	107.765	80.007	19.995	103.138	20.096	-0.031	-0.004
24.000	107.815	80.004	19.994	103.158	20.092	0.176	0.017
26.000	107.843	80.005	19.994	103.169	20.086	0.580	0.004
28.000	107.920	80.005	19.994	103.210	20.081	0.933	0.021
30.000	108.011	80.007	19.993	103.269	20.078	1.128	0.072
32.000	108.168	80.007	19.995	103.289	20.074	1.364	0.088
34.000	108.274	80.008	19.993	103.290	20.070	1.641	0.067
36.001	108.524	80.008	19.994	103.291	20.071	1.589	0.098
38.000	108.742	80.008	19.994	103.289	20.067	1.848	0.121
40.000	108.972	80.007	19.994	103.294	20.066	1.906	0.119
42.001	109.335	80.007	19.995	103.296	20.064	2.016	0.155
44.000	109.599	80.007	19.995	103.290	20.062	2.171	0.154
46.000	109.940	80.007	19.994	103.294	20.064	2.028	0.153
48.000	110.332	80.006	19.995	103.295	20.064	2.042	0.202
50.000	110.691	80.006	19.995	103.302	20.065	2.008	0.213
52.000	111.074	80.007	19.993	103.312	20.064	2.080	0.174
54.000	111.497	80.007	19.994	103.318	20.063	2.137	0.228
56.000	111.979	80.007	19.994	103.331	20.061	2.233	0.265
58.000	112.405	80.009	19.994	103.334	20.061	2.260	0.182
60.001	112.929	80.009	19.995	103.334	20.054	2.721	0.261
62.000	113.436	80.008	19.995	103.348	20.054	2.702	0.259
64.000	114.021	80.008	19.994	103.338	20.056	2.597	0.276
66.001	114.563	80.009	19.994	103.361	20.051	2.924	0.261
68.000	115.157	80.008	19.994	103.354	20.052	2.817	0.306
70.000	115.796	80.005	19.995	103.363	20.053	2.800	0.296
72.000	116.418	80.006	19.995	103.359	20.049	3.025	0.295
74.000	117.019	80.006	19.995	103.365	20.049	3.016	0.314
76.000	117.722	80.005	19.996	103.368	20.050	2.998	0.359
78.000	118.412	80.005	19.995	103.370	20.049	3.014	0.378
80.001	119.089	80.005	19.994	103.368	20.052	2.815	0.330
82.000	119.856	80.006	19.994	103.364	20.054	2.726	0.372
84.000	120.570	80.008	19.994	103.368	20.053	2.788	0.344
86.000	121.311	80.007	19.994	103.368	20.053	2.793	0.351
88.000	122.097	80.006	19.993	103.370	20.050	2.984	0.366
90.000	122.863	80.006	19.993	103.369	20.047	3.145	0.402
92.001	123.715	80.007	19.994	103.359	20.046	3.237	0.418
94.000	124.480	80.006	19.994	103.369	20.050	2.956	0.388
96.000	125.335	80.007	19.995	103.369	20.047	3.154	0.420
98.001	126.133	80.007	19.993	103.368	20.048	3.116	0.435
100.000	126.974	80.006	19.994	103.367	20.052	2.822	0.411
102.000	127.806	80.006	19.994	103.363	20.051	2.916	0.426
104.000	128.653	80.007	19.994	103.369	20.050	2.976	0.383
106.000	129.512	80.006	19.994	103.367	20.049	3.067	0.394
108.000	130.420	80.006	19.995	103.367	20.047	3.183	0.443
110.001	131.281	80.005	19.994	103.368	20.050	2.994	0.447
112.000	132.145	80.006	19.994	103.368	20.050	2.954	0.407
114.001	133.048	80.006	19.994	103.367	20.047	3.139	0.448
116.000	134.006	80.007	19.994	103.361	20.050	2.974	0.463
118.001	134.859	80.008	19.994	103.361	20.050	2.981	0.446
120.001	135.752	80.008	19.994	103.365	20.049	3.016	0.406
122.000	136.726	80.010	19.993	103.361	20.049	3.059	0.472
124.001	137.675	80.009	19.994	103.366	20.047	3.192	0.466
126.001	138.613	80.008	19.994	103.365	20.046	3.225	0.453
128.000	139.590	80.009	19.993	103.352	20.050	2.980	0.487
130.000	140.517	80.007	19.994	103.353	20.048	3.103	0.456
132.000	141.483	80.007	19.993	103.362	20.050	2.969	0.462
134.000	142.449	80.007	19.994	103.364	20.048	3.085	0.517
136.000	143.437	80.007	19.995	103.368	20.046	3.235	0.502
138.000	144.381	80.008	19.994	103.368	20.051	2.936	0.477
140.000	145.377	80.009	19.994	103.364	20.051	2.936	0.481
142.000	146.410	80.008	19.995	103.364	20.046	3.215	0.522
144.000	147.387	80.009	19.995	103.354	20.050	2.947	0.508
146.000	148.359	80.008	19.994	103.356	20.049	3.048	0.529
148.000	149.328	80.006	19.993	103.342	20.052	2.863	0.499
150.000	150.334	80.007	19.994	103.351	20.052	2.850	0.508
152.000	151.336	80.006	19.994	103.354	20.050	2.943	0.510
154.000	152.353	80.006	19.994	103.359	20.052	2.843	0.488
156.000	153.335	80.007	19.994	103.349	20.052	2.818	0.497
158.000	154.355	80.006	19.994	103.349	20.055	2.662	0.526
160.000	155.322	80.007	19.994	103.344	20.054	2.734	0.505
162.000	156.333	80.006	19.995	103.337	20.055	2.662	0.496
164.000	157.367	80.006	19.995	103.336	20.055	2.654	0.571
166.000	158.375	80.007	19.996	103.332	20.051	2.908	0.490
168.000	159.335	80.005	19.996	103.334	20.057	2.499	0.500
170.000	160.360	80.006	19.995	103.330	20.056	2.573	0.507
172.000	161.403	80.006	19.995	103.336	20.054	2.723	0.515
174.000	162.402	80.005	19.996	103.331	20.051	2.912	0.521
176.000	163.401	80.007	19.995	103.329	20.055	2.674	0.489
178.000	164.437	80.007	19.995	103.329	20.057	2.480	0.498
180.000	165.441	80.005	19.994	103.330	20.059	2.410	0.503
182.000	166.501	80.007	19.994	103.328	20.057	2.495	0.514
184.000	167.516	80.005	19.993	103.328	20.054	2.702	0.526
186.000	168.465	80.006	19.994	103.329	20.054	2.698	0.489
188.000	169.488	80.006	19.995	103.327	20.058	2.462	0.510
190.000	170.504	80.007	19.994	103.329	20.056	2.580	0.488
192.000	171.513	80.006	19.994	103.329	20.056	2.580	0.487
194.000	172.510	80.005	19.995	103.331	20.056	2.553	0.506
196.000	173.536	80.008	19.994	103.332	20.057	2.508	0.515
198.000	174.492	80.009	19.994	103.326	20.058	2.475	0.485
200.000	175.532	80.008	19.994	103.331	20.056	2.544	0.523
202.000	176.492	80.007	19.994	103.330	20.055	2.636	0.482
204.000	177.486	80.008	19.995	103.329	20.054	2.703	0.528
206.000	178.469	80.009	19.995	103.330	20.053	2.761	0.491
208.000	179.501	80.008	19.994	103.327	20.054	2.694	0.493
210.000	180.486	80.006	19.994	103.329	20.055	2.624	0.510
212.000	181.509	80.006	19.994	103.325	20.055	2.620	0.534
214.001	182.498	80.006	19.994	103.324	20.055	2.669	0.497
216.000	183.495	80.006	19.993	103.326	20.060	2.339	0.500
218.000	184.450	80.008	19.994	103.329	20.059	2.379	0.480
220.000	185.480	80.007	19.994	103.327	20.057	2.511	0.501
222.000	186.442	80.009	19.994	103.326	20.060	2.328	0.507
224.000	187.463	80.009	19.994	103.325	20.056	2.607	0.485
226.000	188.473	80.009	19.994	103.309	20.057	2.493	0.482
228.000	189.463	80.007	19.994	103.319	20.059	2.393	0.509
230.000	190.470	80.008	19.995	103.323	20.058	2.428	0.521
232.000	191.496	80.007	19.995	103.320	20.060	2.292	0.513
234.000	192.459	80.007	19.996	103.322	20.060	2.330	0.493
236.000	193.417	80.006	19.995	103.312	20.058	2.458	0.502
238.000	194.412	80.006	19.995	103.316	20.061	2.239	0.520
240.000	195.382	80.007	19.995	103.326	20.061	2.244	0.461
242.000	196.397	80.005	19.994	103.312	20.061	2.228	0.490
244.000	197.376	80.006	19.994	103.321	20.061	2.239	0.511
246.000	198.394	80.007	19.995	103.307	20.062	2.207	0.503
248.000	199.341	80.006	19.995	103.309	20.061	2.232	0.485
250.000	200.354	80.006	19.994	103.300	20.059	2.384	0.490
252.000	201.340	80.006	19.995	103.304	20.059	2.357	0.489
254.000	202.308	80.005	19.994	103.313	20.058	2.418	0.520
256.000	203.320	80.006	19.995	103.309	20.063	2.143	0.480
258.000	204.282	80.006	19.996	103.314	20.063	2.110	0.525
260.000	205.287	80.005	19.995	103.316	20.062	2.190	0.467
262.000	206.259	80.006	19.996	103.318	20.062	2.148	0.502
264.000	207.245	80.005	19.996	103.317	20.065	1.951	0.489
266.000	208.231	80.005	19.995	103.299	20.065	1.965	0.486
268.000	209.261	80.005	19.995	103.307	20.064	2.076	0.512
270.000	210.215	80.004	19.995	103.295	20.064	2.038	0.490
272.000	211.235	80.005	19.994	103.296	20.063	2.083	0.471
274.000	212.243	80.006	19.994	103.300	20.064	2.074	0.514
276.000	213.253	80.007	19.993	103.298	20.065	1.989	0.503
278.000	214.265	80.006	19.994	103.301	20.063	2.134	0.513
280.000	215.245	80.009	19.994	103.299	20.065	1.960	0.507
282.000	216.214	80.008	19.994	103.299	20.063	2.119	0.501
284.000	217.207	80.007	19.994	103.298	20.062	2.199	0.499
286.000	218.204	80.008	19.994	103.305	20.063	2.090	0.499
288.000	219.199	80.009	19.994	103.294	20.066	1.895	0.521
290.000	220.155	80.007	19.994	103.291	20.066	1.918	0.487
292.000	221.147	80.007	19.994	103.291	20.064	2.034	0.481
294.000	222.178	80.008	19.995	103.295	20.066	1.942	0.517
296.000	223.139	80.008	19.994	103.293	20.066	1.938	0.476
298.000	224.142	80.007	19.993	103.290	20.066	1.885	0.515
300.000	225.159	80.008	19.994	103.289	20.068	1.809	0.483
302.000	226.112	80.009	19.994	103.291	20.067	1.851	0.472
304.000	227.129	80.009	19.993	103.294	20.067	1.855	0.497
306.000	228.119	80.009	19.994	103.293	20.066	1.927	0.477
308.000	229.170	80.009	19.993	103.292	20.068	1.811	0.536
310.000	230.172	80.009	19.994	103.289	20.068	1.795	0.510
312.000	231.162	80.007	19.994	103.288	20.066	1.884	0.519
314.000	232.198	80.008	19.993	103.288	20.066	1.940	0.491
316.000	233.165	80.007	19.995	103.287	20.068	1.768	0.473
318.000	234.190	80.006	19.995	103.288	20.068	1.804	0.503
320.000	235.180	80.006	19.994	103.287	20.065	1.969	0.473
322.000	236.200	80.006	19.995	103.288	20.067	1.842	0.496
324.000	237.184	80.005	19.995	103.289	20.068	1.808	0.505
326.000	238.206	80.006	19.994	103.286	20.068	1.773	0.507
328.000	239.161	80.006	19.994	103.290	20.069	1.704	0.478
330.000	240.160	80.006	19.994	103.285	20.069	1.708	0.489
332.000	241.182	80.005	19.995	103.288	20.071	1.559	0.469
334.000	242.187	80.005	19.994	103.291	20.069	1.692	0.534
336.000	243.195	80.005	19.995	103.284	20.070	1.648	0.516
338.000	244.181	80.006	19.994	103.291	20.072	1.500	0.472
340.000	245.215	80.005	19.994	103.286	20.068	1.809	0.521
342.000	246.177	80.006	19.994	103.288	20.070	1.634	0.502
344.000	247.179	80.005	19.994	103.291	20.068	1.771	0.506
346.000	248.165	80.006	19.994	103.290	20.069	1.744	0.483
348.000	249.202	80.005	19.994	103.289	20.071	1.570	0.532
350.000	250.245	80.004	19.995	103.290	20.069	1.710	0.518
352.000	251.232	80.005	19.996	103.285	20.069	1.722	0.495
354.001	252.256	80.006	19.995	103.289	20.070	1.650	0.510
356.000	253.256	80.006	19.995	103.285	20.070	1.677	0.513
358.000	254.223	80.008	19.995	103.284	20.072	1.498	0.528
360.000	255.209	80.008	19.995	103.279	20.069	1.741	0.496
362.000	256.185	80.009	19.994	103.285	20.070	1.643	0.487
364.000	257.198	80.010	19.995	103.280	20.068	1.784	0.480
366.000	258.185	80.009	19.994	103.284	20.069	1.728	0.518
368.000	259.186	80.010	19.993	103.275	20.069	1.729	0.498
370.000	260.181	80.008	19.993	103.280	20.069	1.692	0.512
372.000	261.117	80.007	19.994	103.286	20.071	1.592	0.469
374.000	262.123	80.007	19.995	103.278	20.070	1.624	0.501
376.000	263.101	80.007	19.994	103.283	20.072	1.552	0.490
378.000	264.081	80.008	19.995	103.274	20.069	1.740	0.465
380.000	265.082	80.008	19.994	103.273	20.071	1.617	0.494
382.000	266.069	80.007	19.994	103.286	20.069	1.717	0.507
384.000	267.070	80.009	19.995	103.274	20.069	1.719	0.517
386.000	268.064	80.008	19.993	103.282	20.072	1.508	0.504
388.000	269.043	80.009	19.994	103.282	20.070	1.655	0.496
390.000	270.128	80.008	19.993	103.271	20.074	1.404	0.530
392.000	271.113	80.009	19.994	103.279	20.075	1.298	0.515
394.000	272.144	80.008	19.994	103.280	20.071	1.574	0.544
396.000	273.060	80.006	19.994	103.270	20.073	1.427	0.487
398.000	274.107	80.007	19.994	103.274	20.073	1.478	0.505
400.000	275.120	80.007	19.993	103.283	20.074	1.413	0.516
402.000	276.133	80.006	19.994	103.279	20.076	1.226	0.489
404.000	277.147	80.007	19.994	103.274	20.074	1.391	0.498
406.000	278.140	80.007	19.993	103.286	20.078	1.152	0.521
408.000	279.170	80.004	19.993	103.273	20.075	1.355	0.523
410.000	280.175	80.007	19.993	103.280	20.077	1.166	0.494
412.000	281.188	80.006	19.994	103.279	20.076	1.235	0.531
414.000	282.200	80.006	19.994	103.276	20.078	1.148	0.535
416.000	283.202	80.005	19.994	103.274	20.075	1.304	0.533
418.000	284.192	80.007	19.995	103.269	20.075	1.293	0.510
420.000	285.228	80.008	19.995	103.268	20.077	1.173	0.531
422.000	286.245	80.006	19.995	103.264	20.075	1.313	0.506
424.000	287.273	80.006	19.994	103.269	20.076	1.284	0.511
426.000	288.254	80.006	19.994	103.273	20.079	1.048	0.492
428.000	289.261	80.006	19.994	103.261	20.072	1.492	0.482
430.000	290.264	80.005	19.994	103.263	20.074	1.365	0.491
432.000	291.293	80.005	19.994	103.271	20.075	1.324	0.519
434.000	292.306	80.005	19.994	103.267	20.076	1.233	0.504
436.000	293.331	80.006	19.995	103.261	20.076	1.255	0.522
438.000	294.304	80.007	19.995	103.261	20.075	1.315	0.466
440.000	295.332	80.007	19.995	103.270	20.076	1.231	0.513
442.000	296.325	80.008	19.996	103.268	20.074	1.393	0.512
444.000	297.336	80.007	19.995	103.271	20.076	1.287	0.516
446.000	298.345	80.007	19.996	103.258	20.078	1.155	0.522
448.000	299.325	80.007	19.995	103.267	20.074	1.394	0.488
450.000	300.358	80.005	19.995	103.265	20.077	1.219	0.527
452.000	301.374	80.006	19.995	103.273	20.075	1.313	0.524
454.000	302.372	80.006	19.995	103.259	20.077	1.204	0.491
456.001	303.332	80.006	19.994	103.264	20.077	1.199	0.472
458.000	304.359	80.006	19.995	103.270	20.076	1.280	0.487
460.000	305.364	80.006	19.994	103.264	20.075	1.322	0.483
462.000	306.358	80.007	19.994	103.270	20.077	1.199	0.500
464.000	307.397	80.008	19.995	103.259	20.077	1.195	0.504
466.000	308.382	80.009	19.993	103.261	20.077	1.190	0.515
468.001	309.367	80.007	19.993	103.253	20.075	1.324	0.512
470.000	310.395	80.008	19.995	103.260	20.078	1.095	0.504
472.000	311.442	80.008	19.994	103.254	20.076	1.251	0.517
474.000	312.397	80.007	19.993	103.264	20.079	1.028	0.484
476.000	313.419	80.007	19.993	103.258	20.075	1.289	0.471
478.000	314.436	80.006	19.995	103.257	20.079	1.086	0.489
480.000	315.450	80.005	19.995	103.257	20.083	0.804	0.503
482.000	316.437	80.006	19.995	103.255	20.078	1.157	0.487
484.000	317.491	80.005	19.994	103.253	20.077	1.166	0.530
486.000	318.476	80.006	19.994	103.255	20.077	1.206	0.529
488.000	319.482	80.006	19.994	103.250	20.075	1.320	0.482
490.000	320.478	80.006	19.994	103.254	20.078	1.130	0.503
492.000	321.519	80.006	19.993	103.257	20.078	1.139	0.512
494.000	322.468	80.007	19.993	103.252	20.077	1.171	0.483
496.000	323.504	80.006	19.993	103.255	20.077	1.171	0.490
498.000	324.523	80.007	19.994	103.260	20.079	1.065	0.516
500.000	325.505	80.006	19.993	103.252	20.076	1.249	0.475
502.000	326.494	80.006	19.993	103.251	20.078	1.110	0.504
504.000	327.527	80.007	19.995	103.259	20.076	1.242	0.486
506.000	328.527	80.006	19.995	103.252	20.076	1.271	0.491
508.000	329.563	80.006	19.994	103.252	20.078	1.106	0.507
510.000	330.587	80.006	19.995	103.257	20.077	1.159	0.510
512.000	331.599	80.006	19.995	103.252	20.077	1.200	0.525
514.000	332.611	80.005	19.995	103.261	20.082	0.847	0.513
516.000	333.623	80.005	19.995	103.260	20.080	1.019	0.505
518.000	334.626	80.005	19.994	103.253	20.081	0.907	0.504
520.000	335.679	80.007	19.995	103.256	20.082	0.874	0.515
522.000	336.684	80.006	19.994	103.257	20.078	1.148	0.514
524.000	337.697	80.007	19.994	103.253	20.081	0.951	0.530
526.000	338.658	80.007	19.995	103.251	20.080	0.976	0.514
528.000	339.706	80.007	19.994	103.253	20.080	1.023	0.511
530.000	340.742	80.007	19.994	103.252	20.077	1.222	0.534
532.000	341.758	80.007	19.994	103.253	20.085	0.679	0.500
534.000	342.758	80.007	19.994	103.253	20.077	1.171	0.484
536.000	343.730	80.006	19.995	103.257	20.080	0.972	0.476
538.000	344.722	80.007	19.995	103.253	20.081	0.923	0.471
540.000	345.797	80.007	19.995	103.256	20.082	0.862	0.523
542.000	346.796	80.006	19.994	103.253	20.078	1.124	0.523
544.000	347.809	80.007	19.995	103.254	20.081	0.923	0.492
546.000	348.817	80.007	19.995	103.251	20.081	0.896	0.518
548.000	349.798	80.008	19.995	103.253	20.084	0.760	0.490
550.000	350.817	80.008	19.995	103.244	20.082	0.838	0.482
552.000	351.817	80.009	19.993	103.240	20.081	0.894	0.507
554.000	352.830	80.009	19.994	103.249	20.082	0.835	0.480
556.000	353.896	80.009	19.994	103.248	20.084	0.741	0.515
558.000	354.897	80.007	19.995	103.248	20.083	0.780	0.514
560.000	355.877	80.006	19.993	103.246	20.084	0.699	0.497
562.000	356.926	80.006	19.994	103.245	20.082	0.833	0.500
564.000	357.931	80.007	19.994	103.248	20.083	0.807	0.516
566.000	358.981	80.006	19.994	103.247	20.081	0.902	0.501
568.000	359.982	80.006	19.995	103.250	20.082	0.889	0.510
570.000	360.961	80.005	19.994	103.249	20.080	0.985	0.503
572.000	361.989	80.007	19.995	103.250	20.081	0.956	0.495
574.000	362.998	80.006	19.994	103.250	20.082	0.840	0.497
576.000	364.055	80.006	19.995	103.249	20.082	0.836	0.514
578.000	365.023	80.006	19.995	103.249	20.081	0.914	0.492
580.000	366.034	80.007	19.995	103.249	20.083	0.773	0.500
582.000	367.051	80.006	19.994	103.251	20.086	0.617	0.519
584.000	368.054	80.007	19.993	103.248	20.086	0.570	0.506
586.000	369.079	80.007	19.994	103.245	20.087	0.559	0.523
588.000	370.076	80.005	19.994	103.250	20.084	0.742	0.521
590.000	371.035	80.006	19.995	103.250	20.087	0.505	0.472
592.000	372.112	80.006	19.995	103.254	20.086	0.592	0.537
594.000	373.098	80.005	19.995	103.248	20.087	0.523	0.497
596.000	374.142	80.004	19.993	103.247	20.087	0.561	0.513
598.000	375.150	80.005	19.995	103.247	20.086	0.594	0.498
600.000	376.136	80.006	19.994	103.248	20.093	0.121	0.496
602.000	377.139	80.006	19.994	103.241	20.088	0.454	0.496
604.000	378.138	80.005	19.995	103.248	20.089	0.396	0.513
606.000	379.143	80.006	19.994	103.249	20.090	0.339	0.506
608.000	380.113	80.006	19.995	103.247	20.094	0.101	0.471
610.000	381.111	80.006	19.996	103.232	20.092	0.206	0.490
612.000	382.103	80.008	19.994	103.230	20.092	0.192	0.495
614.000	383.120	80.007	19.994	103.234	20.093	0.147	0.523
616.000	384.106	80.006	19.993	103.223	20.089	0.424	0.494
618.000	385.088	80.006	19.995	103.234	20.088	0.467	0.484
620.000	386.038	80.006	19.994	103.221	20.088	0.492	0.478
622.001	387.057	80.007	19.995	103.237	20.088	0.443	0.503
624.000	387.987	80.006	19.995	103.226	20.087	0.534	0.474
626.000	389.017	80.007	19.994	103.230	20.089	0.384	0.520
628.000	390.005	80.008	19.994	103.218	20.092	0.194	0.498
630.000	390.967	80.007	19.995	103.224	20.092	0.195	0.511
632.000	391.934	80.007	19.995	103.215	20.093	0.127	0.486
634.000	392.931	80.008	19.995	103.224	20.092	0.192	0.495
636.000	393.902	80.007	19.995	103.225	20.092	0.190	0.500
638.000	394.944	80.006	19.995	103.222	20.092	0.177	0.493
640.000	395.901	80.006	19.996	103.217	20.096	-0.031	0.489
642.000	396.926	80.005	19.996	103.233	20.095	-0.011	0.493
644.000	397.880	80.005	19.994	103.233	20.097	-0.107	0.506
646.000	398.898	80.005	19.993	103.225	20.093	0.121	0.476
648.000	399.912	80.005	19.994	103.233	20.095	0.020	0.509
650.000	400.865	80.006	19.994	103.246	20.093	0.112	0.476
652.000	401.897	80.006	19.993	103.241	20.095	0.025	0.520
654.000	402.902	80.005	19.995	103.225	20.093	0.165	0.525
656.000	403.887	80.005	19.994	103.232	20.093	0.121	0.495
658.000	404.888	80.006	19.994	103.244	20.096	-0.036	0.525
660.000	405.817	80.004	19.993	103.236	20.094	0.074	0.512
662.000	406.762	80.006	19.994	103.232	20.096	-0.065	0.501
664.000	407.830	80.007	19.993	103.220	20.092	0.192	0.522
666.001	408.789	80.004	19.994	103.225	20.098	-0.221	0.511
668.000	409.756	80.005	19.994	103.226	20.096	-0.029	0.474
670.000	410.823	80.005	19.995	103.225	20.099	-0.259	0.531
672.000	411.808	80.005	19.994	103.241	20.100	-0.338	0.484
674.000	412.726	80.006	19.993	103.238	20.091	0.241	0.506
676.000	413.744	80.004	19.994	103.217	20.095	0.013	0.488
678.000	414.598	80.006	19.994	103.216	20.094	0.081	0.438
680.000	415.704	80.005	19.994	103.231	20.099	-0.233	0.533
682.000	416.327	80.007	19.995	103.232	20.097	-0.154	0.533
684.000	418.095	80.006	19.996	103.230	20.096	-0.065	0.899
686.000	418.801	80.007	19.994	103.224	20.095	0.020	0.153
688.000	419.357	80.007	19.995	103.213	20.093	0.112	0.430
690.000	420.494	80.007	19.994	103.212	20.092	0.179	0.470
692.000	421.570	80.005	19.994	103.213	20.094	0.074	0.407
694.000	422.539	80.005	19.993	103.223	20.095	-0.013	0.537
696.000	423.417	80.005	19.995	103.217	20.095	0.033	0.496
698.000	424.424	80.005	19.996	103.218	20.093	0.125	0.502
700.000	425.366	80.005	19.995	103.221	20.097	-0.147	0.504
702.000	426.294	80.007	19.995	103.227	20.095	0.013	0.451
704.000	427.287	80.007	19.995	103.215	20.095	0.007	0.485
706.000	428.314	80.006	19.995	103.213	20.096	-0.081	0.503
708.000	429.291	80.008	19.993	103.216	20.096	-0.080	0.486
710.000	430.229	80.008	19.995	103.216	20.096	-0.047	0.488
712.000	431.228	80.008	19.994	103.223	20.098	-0.181	0.472
714.000	432.201	80.007	19.994	103.223	20.096	-0.054	0.480
716.000	433.209	80.007	19.994	103.231	20.097	-0.147	0.493
718.000	434.192	80.006	19.994	103.221	20.094	0.071	0.526
720.000	435.227	80.007	19.995	103.227	20.098	-0.206	0.516
722.000	436.185	80.005	19.994	103.224	20.096	-0.067	0.495
724.000	437.206	80.004	19.995	103.242	20.095	-0.016	0.511
726.000	438.183	80.004	19.995	103.228	20.094	0.038	0.488
728.000	439.233	80.004	19.995	103.219	20.096	-0.063	0.518
730.000	440.202	80.003	19.995	103.215	20.096	-0.078	0.495
732.000	441.199	80.005	19.994	103.216	20.096	-0.067	0.493
734.000	442.280	80.004	19.994	103.234	20.094	0.045	0.519
736.000	443.272	80.004	19.994	103.240	20.096	-0.080	0.483
738.000	444.314	80.004	19.994	103.226	20.096	-0.072	0.514
740.000	445.272	80.005	19.994	103.216	20.099	-0.281	0.495
742.000	446.302	80.006	19.995	103.224	20.095	-0.022	0.495
744.000	447.357	80.006	19.994	103.224	20.099	-0.250	0.528
746.000	448.362	80.006	19.994	103.223	20.101	-0.364	0.472
748.000	449.416	80.005	19.995	103.212	20.098	-0.172	0.489
750.000	450.403	80.005	19.995	103.219	20.099	-0.239	0.523
752.000	451.465	80.006	19.995	103.227	20.098	-0.215	0.498
754.001	452.537	80.005	19.995	103.218	20.093	0.119	0.533
756.000	453.511	80.005	19.994	103.214	20.093	0.114	0.487
758.000	454.578	80.005	19.995	103.222	20.098	-0.203	0.529
760.000	455.607	80.006	19.994	103.228	20.096	-0.043	0.552
762.000	456.640	80.006	19.995	103.220	20.100	-0.346	0.486
764.000	457.637	80.006	19.995	103.219	20.101	-0.386	0.494
766.000	458.668	80.007	19.995	103.217	20.100	-0.300	0.502
768.000	459.678	80.008	19.994	103.228	20.102	-0.478	0.512
770.000	460.697	80.008	19.994	103.215	20.100	-0.322	0.475
772.000	461.756	80.008	19.994	103.219	20.101	-0.402	0.502
774.000	462.810	80.007	19.992	103.216	20.105	-0.632	0.521
776.000	463.809	80.006	19.993	103.223	20.100	-0.293	0.509
778.000	464.804	80.008	19.995	103.218	20.104	-0.614	0.486
780.000	465.785	80.007	19.994	103.229	20.103	-0.519	0.489
782.000	466.862	80.007	19.993	103.215	20.106	-0.711	0.528
784.000	467.867	80.008	19.994	103.221	20.105	-0.670	0.515
786.000	468.885	80.007	19.995	103.218	20.101	-0.378	0.505
788.000	469.883	80.009	19.995	103.213	20.106	-0.748	0.496
790.000	470.924	80.008	19.995	103.214	20.101	-0.387	0.526
792.000	471.940	80.008	19.994	103.220	20.101	-0.424	0.490
794.000	472.978	80.007	19.995	103.234	20.109	-0.898	0.489
796.000	474.007	80.008	19.994	103.221	20.104	-0.621	0.502
798.000	475.012	80.009	19.995	103.223	20.106	-0.711	0.519
800.000	476.093	80.007	19.994	103.218	20.111	-1.041	0.462
802.000	477.139	80.007	19.994	103.217	20.100	-0.299	0.539
804.000	478.105	80.007	19.994	103.216	20.107	-0.787	0.524
806.000	479.051	80.007	19.994	103.215	20.105	-0.624	0.538
808.000	480.071	80.005	19.995	103.216	20.102	-0.460	0.513
810.000	481.121	80.006	19.995	103.214	20.106	-0.691	0.534
812.000	482.112	80.006	19.995	103.213	20.102	-0.452	0.501
814.000	483.123	80.006	19.995	103.212	20.105	-0.632	0.500
816.000	484.123	80.007	19.995	103.211	20.106	-0.749	0.518
818.000	485.137	80.006	19.995	103.212	20.107	-0.798	0.501
820.000	486.139	80.007	19.995	103.210	20.107	-0.762	0.498
822.000	487.161	80.006	19.996	103.210	20.102	-0.454	0.510
824.000	488.191	80.006	19.996	103.208	20.105	-0.628	0.518
826.000	489.167	80.008	19.995	103.209	20.107	-0.789	0.460
828.000	490.193	80.006	19.995	103.209	20.107	-0.758	0.490
830.000	491.193	80.006	19.994	103.212	20.109	-0.894	0.525
832.000	492.261	80.006	19.995	103.211	20.106	-0.742	0.535
834.000	493.204	80.006	19.994	103.212	20.108	-0.867	0.503
836.000	494.206	80.005	19.995	103.211	20.108	-0.865	0.503
838.000	495.224	80.005	19.995	103.209	20.111	-1.064	0.493
840.000	496.215	80.006	19.994	103.208	20.109	-0.912	0.496
842.000	497.235	80.004	19.995	103.216	20.108	-0.849	0.534
844.000	498.234	80.007	19.995	103.209	20.106	-0.737	0.526
846.000	499.215	80.007	19.994	103.206	20.108	-0.825	0.499
848.000	500.301	80.006	19.995	103.215	20.104	-0.588	0.539
850.000	501.299	80.007	19.993	103.213	20.105	-0.644	0.510
852.000	502.279	80.007	19.994	103.212	20.106	-0.717	0.517
854.000	503.243	80.007	19.993	103.213	20.106	-0.751	0.497
856.000	504.238	80.006	19.994	103.213	20.105	-0.675	0.493
858.001	505.233	80.008	19.994	103.212	20.105	-0.632	0.503
860.000	506.257	80.006	19.993	103.213	20.105	-0.639	0.500
862.000	507.238	80.006	19.994	103.216	20.103	-0.502	0.497
864.000	508.236	80.007	19.994	103.217	20.102	-0.431	0.529
866.000	509.239	80.006	19.994	103.216	20.103	-0.520	0.506
868.000	510.230	80.008	19.994	103.216	20.101	-0.362	0.499
870.000	511.228	80.008	19.994	103.215	20.102	-0.454	0.522
872.001	512.270	80.009	19.994	103.236	20.104	-0.619	0.518
874.000	513.255	80.009	19.994	103.307	20.106	-0.711	0.503
876.000	514.271	80.009	19.994	103.305	20.107	-0.769	0.522
878.000	515.304	80.010	19.994	103.215	20.106	-0.731	0.512
880.000	516.326	80.008	19.995	103.210	20.102	-0.481	0.518
882.000	517.349	80.008	19.995	103.205	20.102	-0.476	0.509
884.000	518.352	80.007	19.994	103.203	20.103	-0.516	0.508
886.000	519.393	80.006	19.995	103.208	20.102	-0.449	0.495
888.000	520.387	80.006	19.994	103.210	20.099	-0.262	0.524
890.000	521.455	80.006	19.995	103.208	20.100	-0.308	0.544
892.000	522.487	80.006	19.994	103.211	20.102	-0.438	0.543
894.000	523.509	80.007	19.995	103.211	20.105	-0.639	0.511
896.000	524.512	80.007	19.995	103.207	20.104	-0.583	0.529
898.000	525.539	80.006	19.995	103.209	20.107	-0.778	0.509
900.000	526.551	80.006	19.994	103.207	20.105	-0.670	0.538
902.000	527.573	80.007	19.995	103.192	20.106	-0.722	0.515
904.000	528.591	80.006	19.994	103.136	20.106	-0.718	0.503
906.000	529.615	80.006	19.995	103.191	20.103	-0.541	0.524
908.000	530.661	80.005	19.994	103.203	20.104	-0.579	0.522
910.000	531.694	80.004	19.995	103.202	20.108	-0.840	0.527
912.000	532.791	80.005	19.995	103.192	20.104	-0.621	0.533
914.000	533.741	80.006	19.995	103.200	20.104	-0.592	0.497
916.000	534.814	80.005	19.995	103.203	20.106	-0.735	0.559
918.000	535.863	80.005	19.995	103.205	20.104	-0.557	0.537
920.000	536.870	80.006	19.996	103.203	20.108	-0.821	0.507
922.000	537.879	80.005	19.995	103.210	20.105	-0.682	0.507
924.000	538.913	80.005	19.995	103.204	20.106	-0.718	0.533
926.000	539.954	80.006	19.994	103.205	20.108	-0.823	0.507
928.000	540.904	80.006	19.994	103.207	20.107	-0.776	0.484
930.000	541.953	80.007	19.995	103.193	20.104	-0.619	0.478
932.000	543.018	80.008	19.994	103.180	20.106	-0.738	0.528
934.000	544.009	80.007	19.994	103.198	20.104	-0.575	0.501
936.000	545.021	80.007	19.994	103.203	20.106	-0.691	0.514
938.000	546.020	80.006	19.994	103.194	20.103	-0.507	0.508
940.000	547.084	80.006	19.995	103.204	20.105	-0.675	0.525
942.000	548.104	80.005	19.995	103.192	20.100	-0.326	0.518
944.000	549.111	80.007	19.995	103.187	20.105	-0.653	0.493
946.000	550.114	80.007	19.994	103.206	20.105	-0.679	0.514
948.000	551.176	80.007	19.994	103.210	20.104	-0.574	0.490
950.000	552.177	80.008	19.994	103.210	20.104	-0.595	0.499
952.000	553.199	80.008	19.995	103.209	20.103	-0.554	0.495
954.000	554.284	80.008	19.994	103.211	20.107	-0.785	0.516
956.000	555.271	80.009	19.993	103.211	20.108	-0.825	0.521
958.000	556.275	80.008	19.993	103.199	20.105	-0.673	0.488
960.000	557.299	80.009	19.994	103.205	20.106	-0.731	0.517
962.000	558.350	80.008	19.994	103.210	20.102	-0.442	0.528
964.000	559.443	80.006	19.994	103.210	20.102	-0.463	0.536
966.000	560.459	80.007	19.994	103.211	20.106	-0.736	0.535
968.000	561.489	80.007	19.994	103.206	20.101	-0.420	0.529
970.000	562.520	80.006	19.995	103.210	20.104	-0.597	0.503
972.000	563.581	80.005	19.995	103.201	20.104	-0.612	0.540
974.000	564.629	80.006	19.994	103.198	20.106	-0.745	0.507
976.000	565.590	80.005	19.995	103.186	20.107	-0.803	0.472
978.000	566.654	80.006	19.995	103.177	20.107	-0.763	0.516
980.000	567.643	80.007	19.995	103.159	20.105	-0.633	0.481
982.000	568.707	80.005	19.995	103.181	20.106	-0.689	0.490
984.000	569.706	80.006	19.995	103.175	20.104	-0.606	0.529
986.000	570.694	80.005	19.995	103.176	20.107	-0.754	0.516
988.000	571.776	80.005	19.994	103.177	20.105	-0.628	0.600
990.000	572.750	80.005	19.995	103.177	20.107	-0.771	0.515
992.000	573.781	80.005	19.995	103.183	20.110	-0.966	0.538
994.000	574.778	80.005	19.994	103.175	20.111	-1.078	0.518
996.000	575.833	80.004	19.995	103.175	20.111	-1.051	0.487
998.000	576.841	80.005	19.995	103.148	20.111	-1.077	0.495
1000.000	577.847	80.006	19.995	103.147	20.109	-0.908	0.515
1002.000	578.829	80.004	19.996	103.143	20.111	-1.019	0.488
1004.000	579.855	80.005	19.996	103.157	20.110	-1.008	0.497
1006.000	580.865	80.005	19.995	103.172	20.109	-0.932	0.492
1008.000	581.905	80.006	19.996	103.180	20.111	-1.062	0.525
1010.000	582.962	80.005	19.995	103.190	20.115	-1.290	0.557
1012.000	583.932	80.007	19.995	103.199	20.109	-0.894	0.503
1014.000	585.010	80.006	19.995	103.204	20.115	-1.323	0.533
1016.000	586.095	80.006	19.994	103.191	20.113	-1.178	0.563
1018.000	587.131	80.005	19.994	103.189	20.111	-1.073	0.487
1020.000	588.244	80.006	19.994	103.182	20.111	-1.064	0.553
1022.000	589.312	80.006	19.994	103.177	20.111	-1.060	0.551
1024.000	590.383	80.005	19.994	103.181	20.111	-1.044	0.519
1026.001	591.435	80.006	19.995	103.175	20.111	-1.057	0.519
1028.000	592.540	80.006	19.993	103.175	20.111	-1.064	0.571
1030.001	593.661	80.007	19.994	103.181	20.113	-1.164	0.563
1032.000	594.801	80.007	19.994	103.190	20.116	-1.370	0.585
1034.000	595.856	80.008	19.994	103.197	20.113	-1.171	0.551
1036.000	596.931	80.007	19.994	103.194	20.113	-1.169	0.543
1038.000	598.044	80.009	19.994	103.194	20.112	-1.095	0.543
1040.000	599.148	80.007	19.994	103.185	20.114	-1.256	0.539
1042.000	600.233	80.007	19.996	103.201	20.113	-1.191	0.558
1044.000	601.326	80.006	19.994	103.207	20.113	-1.189	0.551
1046.001	602.452	80.006	19.995	103.202	20.117	-1.435	0.557
1048.000	603.527	80.005	19.994	103.190	20.119	-1.571	0.531
1050.000	604.619	80.007	19.995	103.194	20.121	-1.685	0.512
1052.001	605.682	80.005	19.992	103.192	20.120	-1.672	0.555
1054.000	606.759	80.005	19.994	103.207	20.121	-1.692	0.551
1056.000	607.855	80.005	19.993	103.198	20.118	-1.507	0.560
1058.000	608.961	80.005	19.994	103.194	20.121	-1.712	0.553
1060.001	610.087	80.005	19.993	103.207	20.123	-1.849	0.554
1062.000	611.161	80.005	19.994	103.189	20.118	-1.487	0.561
1064.000	612.214	80.007	19.995	103.199	20.117	-1.428	0.531
1066.000	613.321	80.005	19.995	103.197	20.116	-1.361	0.534
1068.000	614.414	80.005	19.996	103.184	20.118	-1.518	0.523
1070.000	615.488	80.005	19.995	103.195	20.120	-1.614	0.499
1072.000	616.588	80.004	19.995	103.191	20.119	-1.596	0.556
1074.000	617.619	80.005	19.995	103.189	20.124	-1.934	0.524
1076.000	618.677	80.005	19.995	103.186	20.122	-1.780	0.524
1078.000	619.705	80.005	19.995	103.184	20.121	-1.683	0.507
1080.001	620.765	80.003	19.994	103.184	20.125	-1.996	0.499
1082.000	621.800	80.006	19.995	103.192	20.124	-1.903	0.492
1084.000	622.861	80.005	19.995	103.192	20.126	-2.016	0.531
1086.000	623.891	80.006	19.996	103.178	20.126	-2.044	0.536
1088.000	624.988	80.007	19.995	103.181	20.125	-1.963	0.545
1090.000	625.997	80.006	19.995	103.174	20.120	-1.663	0.523
1092.000	627.029	80.006	19.996	103.177	20.122	-1.786	0.564
1094.000	628.019	80.006	19.995	103.182	20.121	-1.679	0.491
1096.001	629.039	80.006	19.995	103.179	20.125	-1.960	0.511
1098.001	629.998	80.006	19.996	103.176	20.127	-2.131	0.472
1100.000	631.035	80.005	19.996	103.179	20.124	-1.905	0.513
1102.000	632.018	80.006	19.997	103.182	20.124	-1.914	0.517
1104.000	632.955	80.005	19.995	103.187	20.124	-1.889	0.454
1106.000	633.963	80.005	19.995	103.187	20.130	-2.320	0.498
1108.000	634.949	80.007	19.993	103.177	20.125	-1.990	0.498
1110.001	635.959	80.006	19.994	103.184	20.125	-1.972	0.482
1112.000	636.943	80.007	19.994	103.192	20.124	-1.936	0.489
1114.000	637.890	80.007	19.994	103.197	20.129	-2.215	0.469
1116.000	638.856	80.009	19.994	103.194	20.126	-2.032	0.494
1118.000	639.844	80.008	19.994	103.185	20.126	-2.012	0.499
1120.000	640.833	80.008	19.994	103.180	20.127	-2.122	0.480
1122.000	641.790	80.007	19.993	103.194	20.128	-2.167	0.471
1124.000	642.690	80.006	19.994	103.189	20.131	-2.377	0.443
1126.000	643.666	80.005	19.994	103.178	20.126	-2.025	0.493
1128.000	644.620	80.004	19.994	103.182	20.129	-2.238	0.490
1130.000	645.589	80.005	19.994	103.186	20.130	-2.280	0.499
1132.001	646.493	80.006	19.994	103.178	20.127	-2.075	0.483
1134.000	647.463	80.007	19.995	103.175	20.133	-2.501	0.456
1136.001	648.420	80.007	19.994	103.177	20.129	-2.262	0.467
1138.000	649.469	80.006	19.994	103.181	20.130	-2.267	0.480
1140.000	650.367	80.007	19.994	103.197	20.132	-2.432	0.510
1142.001	651.295	80.005	19.994	103.181	20.132	-2.462	0.489
1144.000	652.247	80.006	19.994	103.192	20.136	-2.667	0.498
1146.000	653.215	80.006	19.993	103.181	20.131	-2.340	0.473
1148.001	654.259	80.006	19.994	103.187	20.133	-2.517	0.532
1150.000	655.187	80.006	19.994	103.193	20.132	-2.410	0.476
1152.001	656.157	80.006	19.995	103.185	20.135	-2.646	0.512
1154.001	657.115	80.006	19.994	103.178	20.131	-2.390	0.485
1156.000	658.090	80.006	19.995	103.183	20.132	-2.425	0.501
1158.001	659.073	80.005	19.996	103.180	20.129	-2.224	0.508
1160.000	660.043	80.004	19.995	103.182	20.129	-2.206	0.483
1162.000	660.984	80.004	19.996	103.183	20.134	-2.555	0.457
1164.001	661.973	80.006	19.995	103.195	20.133	-2.490	0.451
1166.000	662.935	80.007	19.995	103.186	20.133	-2.521	0.459
1168.000	663.904	80.007	19.994	103.192	20.135	-2.631	0.465
1170.000	664.911	80.006	19.993	103.195	20.130	-2.311	0.521
1172.000	665.874	80.007	19.993	103.179	20.133	-2.470	0.476
1174.000	666.890	80.006	19.994	103.181	20.138	-2.812	0.471
1176.000	667.876	80.005	19.994	103.183	20.138	-2.830	0.527
1178.000	668.848	80.007	19.994	103.192	20.136	-2.694	0.535
1180.000	669.843	80.007	19.994	103.194	20.136	-2.674	0.519
1182.000	670.804	80.006	19.995	103.203	20.136	-2.698	0.483
1184.000	671.731	80.005	19.995	103.202	20.139	-2.877	0.433
1186.000	672.796	80.005	19.995	103.198	20.139	-2.895	0.487
1188.000	673.801	80.006	19.996	103.183	20.138	-2.830	0.537
1190.000	674.777	80.006	19.995	103.184	20.135	-2.631	0.468
1192.000	675.749	80.007	19.995	103.182	20.137	-2.752	0.495
1194.000	676.751	80.008	19.995	103.179	20.132	-2.459	0.502
1196.000	677.751	80.008	19.994	103.180	20.135	-2.633	0.480
1198.000	678.784	80.008	19.994	103.181	20.136	-2.678	0.531
1200.000	679.754	80.007	19.994	103.184	20.139	-2.919	0.487
1202.000	680.750	80.007	19.994	103.179	20.134	-2.531	0.488
1204.000	681.736	80.005	19.994	103.185	20.138	-2.846	0.514
1206.000	682.701	80.007	19.994	103.188	20.141	-3.000	0.491
1208.000	683.705	80.006	19.993	103.197	20.137	-2.772	0.500
1210.000	684.710	80.007	19.994	103.200	20.142	-3.067	0.507
1212.000	685.706	80.005	19.994	103.186	20.138	-2.812	0.514
1214.000	686.696	80.006	19.995	103.188	20.143	-3.128	0.497
1216.000	687.679	80.004	19.994	103.189	20.143	-3.126	0.486
1218.000	688.689	80.005	19.993	103.183	20.142	-3.108	0.500
1220.001	689.722	80.006	19.994	103.175	20.142	-3.098	0.474
1222.000	690.686	80.005	19.994	103.184	20.148	-3.503	0.484
1224.000	691.701	80.006	19.994	103.186	20.147	-3.394	0.494
1226.000	692.656	80.006	19.995	103.178	20.150	-3.604	0.484
1228.001	693.692	80.006	19.993	103.183	20.147	-3.418	0.532
1230.000	694.682	80.006	19.995	103.177	20.151	-3.673	0.475
1232.000	695.707	80.006	19.994	103.184	20.147	-3.425	0.539
1234.001	696.688	80.005	19.994	103.185	20.148	-3.488	0.526
1236.000	697.708	80.005	19.994	103.178	20.148	-3.517	0.463
1238.001	698.714	80.005	19.994	103.178	20.148	-3.470	0.497
1240.000	699.735	80.006	19.994	103.181	20.150	-3.649	0.506
1242.000	700.764	80.005	19.993	103.178	20.148	-3.514	0.506
1244.000	701.781	80.006	19.994	103.179	20.148	-3.486	0.498
1246.000	702.771	80.006	19.994	103.179	20.149	-3.566	0.502
1248.000	703.829	80.006	19.994	103.178	20.154	-3.862	0.544
1250.000	704.807	80.007	19.994	103.180	20.152	-3.772	0.504
1252.000	705.830	80.007	19.995	103.178	20.153	-3.781	0.505
1254.000	706.867	80.007	19.995	103.176	20.156	-3.982	0.540
1256.000	707.840	80.007	19.995	103.175	20.155	-3.966	0.488
1258.000	708.862	80.006	19.994	103.172	20.154	-3.875	0.532
1260.001	709.880	80.006	19.994	103.170	20.154	-3.873	0.496
1262.001	710.904	80.007	19.995	103.171	20.152	-3.747	0.535
1264.000	711.935	80.007	19.995	103.173	20.154	-3.906	0.527
1266.000	712.886	80.007	19.994	103.171	20.157	-4.069	0.511
1268.001	713.913	80.007	19.995	103.167	20.160	-4.291	0.490
1270.000	714.958	80.006	19.995	103.171	20.156	-4.025	0.506
1272.000	716.017	80.007	19.994	103.171	20.160	-4.262	0.552
1274.000	717.001	80.007	19.994	103.169	20.158	-4.143	0.497
1276.000	718.009	80.007	19.995	103.169	20.158	-4.138	0.515
1278.000	719.059	80.007	19.995	103.170	20.161	-4.328	0.537
1280.000	720.071	80.007	19.995	103.165	20.163	-4.479	0.512
1282.000	721.110	80.006	19.997	103.170	20.158	-4.176	0.497
1284.000	722.142	80.004	19.994	103.171	20.161	-4.357	0.513
1286.000	723.207	80.005	19.995	103.172	20.161	-4.311	0.541
1288.000	724.283	80.004	19.994	103.173	20.159	-4.179	0.543
1290.000	725.254	80.004	19.994	103.173	20.157	-4.049	0.481
1292.000	726.341	80.006	19.995	103.170	20.161	-4.340	0.539
1294.000	727.342	80.004	19.994	103.174	20.161	-4.360	0.498
1296.001	728.405	80.006	19.994	103.175	20.161	-4.356	0.514
1298.000	729.409	80.006	19.993	103.170	20.164	-4.526	0.507
1300.000	730.398	80.004	19.993	103.173	20.165	-4.588	0.504
1302.000	731.403	80.006	19.995	103.171	20.160	-4.280	0.513
1304.001	732.395	80.005	19.993	103.170	20.163	-4.481	0.524
1306.001	733.378	80.006	19.994	103.169	20.163	-4.492	0.487
1308.000	734.400	80.005	19.994	103.163	20.161	-4.328	0.505
1310.000	735.434	80.005	19.994	103.167	20.164	-4.533	0.516
1312.000	736.407	80.005	19.994	103.168	20.163	-4.480	0.496
1314.000	737.391	80.005	19.994	103.168	20.165	-4.584	0.482
1316.000	738.425	80.005	19.994	103.159	20.166	-4.694	0.544
1318.000	739.434	80.004	19.994	103.172	20.168	-4.810	0.484
1320.000	740.401	80.005	19.994	103.166	20.169	-4.839	0.480
1322.000	741.428	80.004	19.993	103.144	20.166	-4.702	0.502
1324.000	742.401	80.006	19.994	103.158	20.168	-4.805	0.478
1326.000	743.408	80.006	19.994	103.160	20.170	-4.910	0.504
1326.500	743.626	80.006	19.993	103.156	20.168	-4.832	0.474