File: 01_Data/Engineered_Flooring/Cone/Engineered_Flooring_Cone_HF50Scan_220524_R2.csv
Names,Time,Stack TC,Smoke TC,Exh Press,Smoke Comp,Smoke Meas,CO Meter,CO2 Meter,O2 Meter,Sample Mass,Ext Coeff,Start Test,Flame Verif
Chan Gain,,500,500,1,1,1,1,1,1,1,1,1.0,1.0
Offset,,0,0,0.13752,0,0,0,0,0,0,0,0.0,0.0
Gain,,1,1,25.011,13.8491,15.2622,1,1,1,1.00087,1.03118,1.0,1.0
Units,sec,C,C,Pa,%,%,%,%,%,g,/m,,
Baseline,,41.6037,42.8057,134.887,104.829,109.582,0.0003795,0.0556989,20.9823,-453.501,-0.401016,,
14,3.25,38.5354,39.7512,132.448,104.709,109.957,0.000744788,0.0638085,20.9708,118.203,-0.442344,0.0,0.0
28,6.75,38.5625,39.4062,140.126,104.759,109.485,0.000532316,0.0636383,20.9723,118.213,-0.39914,0.0,0.0
42,10.25,39.1422,39.7619,130.579,104.783,109.897,0.000339719,0.0634892,20.9726,118.133,-0.430975,0.0,0.0
56,13.75,39.1464,40.1727,136.058,104.83,110.57,0.000194968,0.0634406,20.9727,118.073,-0.482189,0.0,0.0
70,17.25,39.1668,40.0731,132.346,104.859,109.777,0.000171022,0.0639072,20.9727,118.023,-0.41455,0.0,0.0
84,20.75,39.3838,40.1774,134.368,104.893,109.247,0.000196349,0.064533,20.9711,118.013,-0.367892,0.0,0.0
98,24.25,39.3782,40.4942,131.969,104.914,107.301,0.00089155,0.0683452,20.9672,117.933,-0.203492,0.0,0.0
112,27.75,39.2784,40.7859,118.526,104.938,109.88,0.00252621,0.171773,20.872,117.632,-0.416326,0.0,1.0
126,31.25,44.2159,43.1874,113.695,104.938,106.121,0.00418246,0.440251,20.5325,116.992,-0.101412,0.0,1.0
140,34.75,47.9894,45.5434,117.931,104.949,107.621,0.00503658,0.569764,20.3705,116.411,-0.227365,0.0,0.0
154,38.25,51.7103,48.9375,117.682,104.944,107.024,0.00560684,0.570578,20.3585,115.861,-0.177552,0.0,0.0
168,41.75,54.5956,52.2693,117.653,104.913,106.527,0.00598361,0.556586,20.3705,115.17,-0.138114,0.0,0.0
182,45.25,58.3292,55.7557,113.626,104.942,106.101,0.00599782,0.56977,20.3607,114.61,-0.09934,0.0,0.0
196,48.75,59.5995,58.86,112.587,104.879,105.506,0.00588536,0.59836,20.3333,113.879,-0.0539166,0.0,0.0
210,52.25,63.7047,61.5566,113.484,104.896,106.599,0.00582626,0.622776,20.3003,113.279,-0.145657,0.0,0.0
224,55.75,65.7448,64.2467,113.571,104.874,106.77,0.00556971,0.629242,20.2879,112.528,-0.162048,0.0,0.0
238,59.25,68.0529,66.3591,108.968,104.881,107.53,0.0055531,0.622544,20.2918,111.917,-0.225635,0.0,0.0
252,62.75,70.5441,69.0031,112.865,104.884,107.717,0.00539335,0.608787,20.3053,111.277,-0.241041,0.0,0.0
266,66.25,71.8667,70.7757,114.722,104.877,108.16,0.00492302,0.586495,20.3295,110.536,-0.27878,0.0,0.0
280,69.75,73.1035,72.2404,118.214,104.927,109.056,0.00454051,0.555334,20.3651,109.956,-0.349076,0.0,0.0
294,73.25,73.537,73.3228,118.104,104.921,109.393,0.00435362,0.525594,20.3969,109.345,-0.37755,0.0,0.0
308,76.75,73.9114,74.2563,119.372,104.969,110.384,0.0041088,0.497681,20.4348,108.825,-0.454985,0.0,0.0
322,80.25,74.1655,75.1544,120.679,104.962,110.334,0.00379069,0.470651,20.4622,108.264,-0.45148,0.0,0.0
336,83.75,74.2309,75.5,124.222,104.978,109.633,0.00359476,0.446708,20.4967,107.754,-0.392408,0.0,0.0
350,87.25,73.811,75.733,119.131,104.98,110.72,0.00352093,0.431479,20.5168,107.233,-0.48155,0.0,0.0
364,90.75,73.8087,76.2002,115.447,104.996,110.957,0.00327289,0.414668,20.5388,106.783,-0.499479,0.0,0.0
378,94.25,73.0205,76.3482,120.896,104.996,111.147,0.00302174,0.401683,20.5521,106.242,-0.514993,0.0,0.0
392,97.75,72.9748,76.1735,121.347,104.976,111.6,0.00284522,0.39042,20.5665,105.832,-0.553473,0.0,0.0
406,101.25,72.7147,75.912,124.451,104.948,111.338,0.00260649,0.382134,20.5765,105.362,-0.534673,0.0,0.0
420,104.75,72.7382,76.0045,120.698,104.91,110.446,0.00241602,0.375059,20.5865,104.831,-0.465197,0.0,0.0
434,108.25,72.4899,76.3607,119.627,104.879,110.54,0.00228443,0.362493,20.6007,104.431,-0.475485,0.0,0.0
448,111.75,71.8185,76.1402,120.232,104.805,111.603,0.00220963,0.355259,20.611,103.971,-0.568425,0.0,0.0
462,115.25,71.6849,75.7383,122.06,104.762,111.035,0.0023755,0.348462,20.6197,103.56,-0.526049,0.0,0.0
476,118.75,70.989,75.7736,121.349,104.695,112.447,0.00238231,0.344637,20.6241,103.06,-0.646172,0.0,0.0
490,122.25,70.6328,75.4207,121.493,104.649,110.655,0.00225435,0.338615,20.6299,102.679,-0.50478,0.0,0.0
504,125.75,70.2699,75.3912,120.761,104.569,112.048,0.00226529,0.332738,20.6383,102.189,-0.624894,0.0,0.0
518,129.25,69.9917,75.0327,124.904,104.517,111.057,0.00244033,0.330226,20.641,101.789,-0.548985,0.0,0.0
532,132.75,69.7348,74.4636,123.421,104.445,110.927,0.00239192,0.332369,20.6384,101.408,-0.544578,0.0,0.0
546,136.25,69.4487,74.3187,122.205,104.399,110.95,0.00234356,0.331687,20.6383,101.008,-0.550466,0.0,0.0
560,139.75,68.9049,74.568,121.161,104.365,111.467,0.00224112,0.32997,20.641,100.618,-0.595485,0.0,0.0
574,143.25,69.0368,74.3931,120.165,104.319,111.612,0.00215841,0.330025,20.643,100.127,-0.611263,0.0,0.0
588,146.75,69.0746,73.8114,121.325,104.342,111.504,0.00208274,0.327864,20.647,99.7468,-0.600449,0.0,0.0
602,150.25,68.3519,73.8382,123.298,104.447,111.884,0.00197325,0.328043,20.6465,99.2664,-0.622148,0.0,0.0
616,153.75,68.3537,73.633,121.868,104.58,111.037,0.00201072,0.326601,20.6479,98.8961,-0.541942,0.0,0.0
630,157.25,67.8062,72.9515,119.607,104.739,110.743,0.00219185,0.326425,20.6489,98.4257,-0.504196,0.0,0.0
644,160.75,67.9432,73.596,119.006,104.903,110.635,0.00215861,0.327682,20.6491,98.1254,-0.481216,0.0,0.0
658,164.25,67.9061,72.9162,122.309,105.008,111.587,0.00209608,0.327941,20.6483,97.625,-0.549649,0.0,0.0
672,167.75,67.922,72.7338,123.249,105.104,111.778,0.00228119,0.328902,20.6454,97.3047,-0.556894,0.0,0.0
686,171.25,67.9938,73.284,123.195,105.161,111.894,0.00217856,0.330478,20.6439,96.8443,-0.561365,0.0,0.0
700,174.75,67.944,72.5018,119.536,105.173,111.839,0.00207116,0.33319,20.642,96.3639,-0.555866,0.0,0.0
714,178.25,67.7858,72.9999,122.877,105.161,111.582,0.00204486,0.331807,20.6438,96.0436,-0.536139,0.0,0.0
728,181.75,67.6449,72.5657,119.752,105.119,111.414,0.00213695,0.327828,20.6476,95.5932,-0.526099,0.0,0.0
742,185.25,68.2201,72.5721,122.73,105.048,111.509,0.00216124,0.333995,20.6428,95.2229,-0.539883,0.0,0.0
756,188.75,67.9616,72.6176,119.115,104.866,111.587,0.00219469,0.332849,20.6435,94.7124,-0.56189,0.0,0.0
770,192.25,67.6372,72.4007,122.112,104.718,111.567,0.00217121,0.330687,20.647,94.3722,-0.573074,0.0,0.0
784,195.75,67.173,72.1705,120.011,104.792,111.37,0.00248217,0.33215,20.6454,93.9318,-0.550699,0.0,0.0
798,199.25,67.6439,71.393,124.833,104.926,111.952,0.00252272,0.33196,20.6473,93.5915,-0.586305,0.0,0.0
812,202.75,67.2037,71.7945,119.584,105.064,112.157,0.00242264,0.331183,20.6483,93.1511,-0.590941,0.0,0.0
826,206.25,67.4618,71.8849,122.778,105.198,112.035,0.00246982,0.331308,20.6483,92.7808,-0.569565,0.0,0.0
840,209.75,67.1755,71.5872,117.526,105.354,112.723,0.00245339,0.333822,20.6458,92.3404,-0.611576,0.0,0.0
854,213.25,67.2575,71.5824,119.371,105.476,112.975,0.00254531,0.337179,20.6439,91.92,-0.621255,0.0,0.0
868,216.75,67.3129,71.4,121.2,105.574,111.48,0.00258051,0.33777,20.6435,91.5897,-0.492418,0.0,0.0
882,220.25,67.4855,71.4094,125.932,105.626,111.947,0.0024959,0.337615,20.6423,91.1393,-0.525717,0.0,0.0
896,223.75,67.3907,71.7389,123.148,105.644,111.624,0.00251109,0.337667,20.6413,90.799,-0.498079,0.0,0.0
910,227.25,67.1398,71.2076,122.583,105.591,111.649,0.00253046,0.338942,20.6398,90.3386,-0.50464,0.0,0.0
924,230.75,66.9308,71.259,123.809,105.506,111.838,0.00262177,0.341509,20.639,89.9683,-0.52719,0.0,0.0
938,234.25,67.2933,71.7956,120.712,105.329,111.381,0.00268925,0.338073,20.6395,89.4979,-0.505319,0.0,0.0
952,237.75,66.9977,71.5694,123.611,105.158,110.988,0.00271344,0.341659,20.6363,89.1876,-0.488086,0.0,0.0
966,241.25,66.9674,71.1013,118.089,104.914,110.111,0.00278784,0.349966,20.6276,88.7072,-0.437363,0.0,0.0
980,244.75,67.4995,71.5782,119.126,104.695,110.654,0.00281115,0.354576,20.621,88.3269,-0.500761,0.0,0.0
994,248.25,67.1046,70.8929,115.874,104.469,109.696,0.0030069,0.35823,20.6147,87.8865,-0.441659,0.0,0.0
1008,251.75,66.6852,70.9905,124.018,104.231,109.319,0.00306935,0.362706,20.6091,87.4161,-0.43116,0.0,0.0
1022,255.25,67.2243,71.72,121.546,104.062,108.924,0.00312957,0.367471,20.6039,87.0358,-0.41303,0.0,0.0
1036,258.75,67.9341,72.1286,116.727,103.931,109.771,0.00315668,0.373061,20.5982,86.5954,-0.494472,0.0,0.0
1050,262.25,67.9362,71.308,120.846,103.847,109.389,0.00315422,0.383367,20.5871,86.215,-0.470304,0.0,0.0
1064,265.75,68.485,72.1778,119.774,103.79,109.165,0.0031273,0.390435,20.5772,85.6946,-0.456656,0.0,0.0
1078,269.25,68.8355,72.7497,121.866,103.797,108.205,0.00334367,0.398161,20.5666,85.3743,-0.376211,0.0,0.0
1092,272.75,68.8994,72.7457,118.275,103.803,108.274,0.00350666,0.408287,20.5537,84.8639,-0.38142,0.0,0.0
1106,276.25,69.4094,72.8266,120.169,103.845,108.227,0.0038028,0.417586,20.5401,84.4235,-0.373881,0.0,0.0
1120,279.75,69.717,72.996,122.051,103.886,107.799,0.0040486,0.427359,20.5299,83.9331,-0.334504,0.0,0.0
1134,283.25,69.9217,73.6465,115.743,103.947,108.385,0.00394427,0.437266,20.5174,83.4526,-0.378163,0.0,0.0
1148,286.75,70.7109,74.0787,116.836,104.018,107.87,0.00361795,0.447653,20.5064,82.9222,-0.328968,0.0,0.0
1162,290.25,71.2441,74.5045,118.854,104.08,107.903,0.00348987,0.456579,20.4942,82.3817,-0.32634,0.0,0.0
1176,293.75,71.9395,75.5267,116.982,104.132,107.277,0.00390223,0.468658,20.4793,81.8913,-0.269155,0.0,0.0
1190,297.25,72.3473,76.0369,119.558,104.138,106.96,0.00435541,0.479426,20.464,81.3408,-0.24182,0.0,0.0
1204,300.75,73.4919,76.1103,120.049,104.196,107.674,0.00432992,0.496963,20.4479,80.8604,-0.29705,0.0,0.0
1218,304.25,73.8993,76.8812,113.219,104.246,106.917,0.00445239,0.510375,20.4325,80.2299,-0.228841,0.0,0.0
1232,307.75,74.7147,77.6259,118.007,104.288,106.646,0.00497307,0.522537,20.416,79.6694,-0.202209,0.0,0.0
1246,311.25,75.2836,78.6288,115.796,104.335,106.703,0.00524562,0.535481,20.4028,79.0188,-0.203001,0.0,0.0
1260,314.75,76.2423,79.3409,117.598,104.354,106.295,0.00547687,0.544255,20.3882,78.5183,-0.166693,0.0,0.0
1274,318.25,76.765,79.8914,116.372,104.33,105.002,0.00581402,0.557167,20.3738,77.9078,-0.0580781,0.0,0.0
1288,321.75,77.4068,80.7663,119.806,104.31,105.692,0.00605077,0.569927,20.3606,77.2372,-0.119069,0.0,0.0
1302,325.25,78.4125,81.4772,114.652,104.319,105.009,0.00619879,0.585666,20.3427,76.7068,-0.0596725,0.0,0.0
1316,328.75,79.6115,82.5985,114.341,104.297,104.577,0.00628756,0.599353,20.3249,75.9461,-0.0241955,0.0,0.0
1330,332.25,80.145,83.3375,114.485,104.328,103.929,0.00658082,0.611006,20.3124,75.3356,0.034656,0.0,0.0
1344,335.75,80.8174,83.6741,112.7,104.332,104.252,0.00649837,0.619169,20.3023,74.625,0.00701058,0.0,0.0
1358,339.25,82.1712,84.6967,114.207,104.347,104.226,0.00645425,0.637321,20.2776,74.0144,0.0105192,0.0,0.0
1372,342.75,82.493,86.2082,109.556,104.335,103.022,0.00657304,0.655155,20.2586,73.2037,0.114589,0.0,0.0
1386,346.25,83.3676,87.2021,114.443,104.381,103.091,0.0066821,0.66681,20.246,72.6833,0.112496,0.0,0.0
1400,349.75,84.5072,87.4075,113.713,104.378,101.959,0.00695689,0.677968,20.2327,71.8926,0.212096,0.0,0.0
1414,353.25,84.9583,88.757,112.171,104.39,103.097,0.00728615,0.694972,20.2064,71.172,0.112729,0.0,0.0
1428,356.75,85.7365,89.3213,111.899,104.405,102.344,0.0074047,0.71512,20.1798,70.4013,0.180337,0.0,0.0
1442,360.25,86.6537,90.1834,107.818,104.384,100.847,0.00729352,0.735,20.151,69.7107,0.311785,0.0,0.0
1456,363.75,87.4711,91.1041,114.538,104.381,101.206,0.0071059,0.748013,20.1372,68.94,0.279339,0.0,0.0
1470,367.25,88.0826,92.0819,116.695,104.37,100.456,0.00691023,0.745722,20.1345,68.1593,0.345742,0.0,0.0
1484,370.75,88.6669,92.7167,110.651,104.368,98.9019,0.00678933,0.73202,20.1402,67.4888,0.486636,0.0,0.0
1498,374.25,88.9104,92.9458,116.189,104.376,99.554,0.00667213,0.694574,20.1864,66.8082,0.427816,0.0,0.0
1512,377.75,88.744,93.3419,111.914,104.388,99.4585,0.00713432,0.657183,20.2233,66.2177,0.437594,0.0,0.0
1526,381.25,88.317,93.3479,112.084,104.397,101.002,0.00668811,0.634074,20.251,65.6071,0.299061,0.0,0.0
1540,384.75,87.8568,93.4573,115.193,104.453,101.928,0.00597233,0.601286,20.2878,65.1167,0.221305,0.0,0.0
1554,388.25,87.7035,92.9804,113.846,104.494,102.649,0.0054215,0.56507,20.3336,64.5962,0.161095,0.0,0.0
1568,391.75,87.2757,92.6257,119.578,104.544,104.388,0.00484198,0.517461,20.3847,64.276,0.0135162,0.0,0.0
1582,395.25,86.1629,92.0433,123.996,104.618,106.809,0.00407928,0.453855,20.4631,63.7655,-0.187441,0.0,0.0
1596,398.75,84.3214,90.7209,123.211,104.69,109.253,0.00317708,0.389457,20.5428,63.4452,-0.385905,0.0,0.0
1610,402.25,82.5042,89.7224,124.482,104.779,110.099,0.00258639,0.339117,20.6146,63.2651,-0.448001,0.0,0.0
1624,405.75,79.8481,87.4354,125.332,104.838,110.723,0.00234354,0.291715,20.67,63.0349,-0.494062,0.0,0.0
1638,409.25,78.5373,86.2602,126.866,104.923,110.856,0.00221344,0.248526,20.722,62.9248,-0.497537,0.0,0.0
1652,412.75,76.9765,84.5464,127.423,104.973,112.011,0.00198379,0.213658,20.7671,62.7346,-0.587003,0.0,0.0
1666,416.25,74.6854,82.5928,130.176,105.005,111.898,0.00177989,0.186295,20.7992,62.6646,-0.575127,0.0,0.0
1680,419.75,71.9407,79.9772,130.76,105.029,111.973,0.00193446,0.170518,20.8183,62.5645,-0.579111,0.0,0.0
1694,423.25,69.966,78.2993,126.297,105.069,112.588,0.00243795,0.159962,20.8336,62.5044,-0.625222,0.0,0.0
1708,426.75,68.0272,77.1205,129.577,105.086,111.753,0.00267944,0.152653,20.8431,62.3042,-0.556459,0.0,0.0
1722,430.25,66.6495,75.0357,131.166,105.092,111.051,0.00288509,0.146528,20.8502,62.3843,-0.498921,0.0,0.0
1736,433.75,65.187,73.478,125.904,105.101,111.816,0.00286185,0.140822,20.8578,62.2242,-0.560238,0.0,0.0
1750,437.25,63.7788,72.4128,130.834,105.085,112.013,0.00278187,0.136679,20.8633,62.1141,-0.577544,0.0,0.0
1764,440.75,62.8875,70.2347,129.917,105.089,111.918,0.00286872,0.13449,20.8653,62.1041,-0.56943,0.0,0.0
1778,444.25,61.4692,69.9395,131.204,105.056,112.561,0.00306595,0.132172,20.869,62.014,-0.624106,0.0,0.0
1792,447.75,60.7274,67.8531,131.021,105.055,111.905,0.00314751,0.129998,20.8719,62.014,-0.571323,0.0,0.0
1806,451.25,59.251,66.2858,129.349,105.016,112.064,0.00310058,0.128774,20.8744,61.8538,-0.587575,0.0,0.0
1820,454.75,58.4523,65.3396,129.237,105.018,111.777,0.00290947,0.127181,20.876,61.9039,-0.564203,0.0,0.0
1834,458.25,57.6811,64.835,129.222,104.978,111.388,0.00300681,0.12672,20.8776,61.7638,-0.536062,0.0,0.0
1848,461.75,57.2537,63.489,130.598,104.944,110.967,0.00323119,0.125555,20.8792,61.7738,-0.504754,0.0,0.0
1862,465.25,56.3224,62.8773,131.15,104.91,111.852,0.00360564,0.124207,20.8807,61.7137,-0.579632,0.0,0.0
1876,468.75,56.0743,61.3562,132.778,104.867,112.315,0.00380301,0.123653,20.882,61.6036,-0.620638,0.0,0.0
1890,472.25,55.1075,60.8333,132.732,104.827,112.103,0.00387018,0.123052,20.884,61.6437,-0.606983,0.0,0.0
1904,475.75,54.6008,58.9525,130.808,104.79,111.92,0.00399994,0.122627,20.8859,61.5135,-0.595448,0.0,0.0
1918,479.25,54.299,59.466,131.659,104.738,111.187,0.00409097,0.122542,20.8863,61.5436,-0.540528,0.0,0.0
1932,482.75,53.773,58.952,131.478,104.691,110.624,0.00405668,0.121901,20.8864,61.4035,-0.498616,0.0,0.0
1946,486.25,53.1281,57.9459,132.436,104.668,111.071,0.00413513,0.121146,20.8875,61.4535,-0.537038,0.0,0.0
1960,489.75,52.5526,57.6934,131.359,104.622,110.165,0.00402826,0.120619,20.8896,61.2833,-0.46694,0.0,0.0
1974,493.25,52.4943,56.8535,132.779,104.599,110.945,0.00391185,0.119721,20.8918,61.3334,-0.532781,0.0,0.0
1988,496.75,52.4196,55.8014,130.192,104.553,112.033,0.00419778,0.119311,20.8938,61.2133,-0.625042,0.0,0.0
2002,500.25,51.6291,56.1681,129.787,104.538,111.116,0.00434361,0.118728,20.8947,61.2433,-0.551935,0.0,0.0
2016,503.75,51.0199,55.5081,127.986,104.499,110.818,0.00435797,0.118031,20.8949,61.2233,-0.531078,0.0,0.0
2030,507.25,51.235,54.7495,131.114,104.484,111.401,0.00440477,0.117623,20.8951,61.0932,-0.57983,0.0,0.0
2044,510.75,50.9465,54.0784,132.498,104.48,111.563,0.00452201,0.117473,20.8955,61.1532,-0.593384,0.0,0.0
2058,514.25,50.2664,53.2887,130.921,104.458,110.242,0.00474563,0.117039,20.8956,61.0231,-0.487511,0.0,0.0
2072,517.75,49.7667,53.6137,126.478,104.458,111.101,0.00514241,0.116712,20.8956,61.0632,-0.557637,0.0,0.0
2086,521.25,50.1601,53.1121,129.819,104.437,110.614,0.00515249,0.114822,20.8989,60.9531,-0.519827,0.0,0.0
2100,524.75,49.2332,52.5944,129.192,104.433,111.103,0.00494695,0.114593,20.8985,60.9631,-0.559947,0.0,0.0
2114,528.25,49.1187,52.6031,132.072,104.406,109.566,0.00519505,0.115352,20.898,60.873,-0.436393,0.0,0.0
2128,531.75,49.9574,52.7304,128.949,104.384,110.451,0.00536781,0.114662,20.8992,60.883,-0.511026,0.0,0.0
2142,535.25,49.3645,51.822,131.043,104.393,109.988,0.0055565,0.114344,20.9004,60.7929,-0.47226,0.0,0.0
2156,538.75,48.963,51.3688,131.651,104.448,110.603,0.00557131,0.113384,20.902,60.8229,-0.517961,0.0,0.0
2170,542.25,49.0984,51.2967,128.609,104.5,111.321,0.00549284,0.113388,20.9024,60.7729,-0.571932,0.0,0.0
2184,545.75,48.735,50.9279,128.048,104.57,110.057,0.00560504,0.114326,20.9013,60.6828,-0.462671,0.0,0.0
2198,549.25,48.7534,50.8497,133.77,104.628,111.32,0.00545026,0.115449,20.9004,60.7028,-0.560741,0.0,0.0
2212,552.75,48.312,50.2769,130.847,104.702,110.497,0.00529899,0.11507,20.9003,60.6128,-0.487226,0.0,0.0
2226,556.25,48.5541,50.2382,132.072,104.813,111.103,0.00559755,0.114266,20.9018,60.6528,-0.527134,0.0,0.0
2240,559.75,48.5028,50.0756,132.613,104.885,110.741,0.00593922,0.11422,20.9023,60.5027,-0.491424,0.0,0.0
2254,563.25,47.9688,49.8095,135.173,104.98,110.222,0.00592462,0.114066,20.9025,60.5627,-0.440781,0.0,0.0
2268,566.75,48.3687,49.8988,131.014,105.046,110.282,0.00612122,0.113699,20.9025,60.4126,-0.439997,0.0,0.0
2282,570.25,47.5852,49.5187,131.098,105.116,111.312,0.00628158,0.113352,20.9042,60.4927,-0.518068,0.0,0.0
2296,573.75,47.8708,49.7178,131.813,105.154,111.118,0.00671392,0.112671,20.9047,60.4426,-0.498997,0.0,0.0
2310,577.25,47.2149,48.9453,129.251,105.207,111.15,0.00693381,0.112942,20.9039,60.4126,-0.497071,0.0,0.0
2324,580.75,47.4701,48.8943,129.745,105.234,111.903,0.00697676,0.11285,20.9029,60.3625,-0.55583,0.0,0.0
2338,584.25,47.4906,49.0544,130.243,105.231,111.462,0.00657708,0.112144,20.9043,60.2625,-0.520359,0.0,0.0
2352,587.75,47.1718,48.7241,130.661,105.238,110.643,0.00646,0.112381,20.9047,60.3125,-0.453046,0.0,0.0
2366,591.25,45.6133,48.6616,128.735,105.214,111.375,0.00676092,0.112059,20.9057,60.2324,-0.514742,0.0,0.0
2380,594.75,46.8976,48.4071,135.318,105.17,110.885,0.00686101,0.110795,20.9086,60.2324,-0.478639,0.0,0.0
2394,598.25,47.662,48.3177,133.326,105.108,111.186,0.00679819,0.110644,20.9092,60.1023,-0.508498,0.0,0.0
2408,601.75,46.8313,48.0986,129.017,105.026,111.218,0.00682124,0.111024,20.9073,60.1724,-0.518133,0.0,0.0
2422,605.25,46.7062,47.9884,132.285,104.928,110.943,0.00695404,0.110902,20.9077,60.0623,-0.504204,0.0,0.0
2436,608.75,46.6644,47.743,127.826,104.799,111.266,0.00702414,0.109995,20.9083,60.0923,-0.541564,0.0,0.0
2450,612.25,46.5975,47.7223,131.623,104.816,110.642,0.00697148,0.109547,20.9088,60.0122,-0.489335,0.0,0.0
2464,615.75,46.4952,47.6394,130.634,104.88,111.251,0.00706501,0.109856,20.9089,59.9922,-0.533425,0.0,0.0
2478,619.25,46.4191,47.422,134.035,104.95,110.509,0.00715558,0.110152,20.9091,59.9922,-0.46681,0.0,0.0
2492,622.75,46.4558,47.8291,131.75,105.021,109.981,0.00703748,0.10861,20.9105,59.8621,-0.417469,0.0,0.0
2506,626.25,46.1229,47.4503,131.741,105.116,111.56,0.0070503,0.109021,20.9115,59.9222,-0.538144,0.0,0.0
2520,629.75,46.0231,47.3076,129.87,105.18,110.88,0.00717591,0.113113,20.9074,59.8121,-0.477423,0.0,0.0
2534,633.25,45.9065,47.3949,131.971,105.272,111.091,0.00738985,0.11636,20.9032,59.9021,-0.486625,0.0,0.0
2548,636.75,45.9814,47.1827,133.391,105.345,111.634,0.00744666,0.117205,20.9014,59.782,-0.524567,0.0,0.0
2562,640.25,45.7861,47.2583,133.919,105.414,111.917,0.00749238,0.115527,20.9038,59.7921,-0.541459,0.0,0.0
2576,643.75,45.7337,47.4428,132.515,105.474,112.553,0.0075728,0.113609,20.9059,59.6719,-0.587661,0.0,0.0
2590,647.25,45.4973,47.1113,131.492,105.542,112.131,0.00791134,0.112709,20.9077,59.722,-0.547851,0.0,0.0
2604,650.75,46.2454,47.3245,132.404,105.584,111.839,0.00788407,0.112069,20.9082,59.6519,-0.520566,0.0,0.0
2618,654.25,46.2104,46.9474,130.337,105.629,111.998,0.0077357,0.110927,20.9084,59.6319,-0.52964,0.0,0.0
2632,657.75,45.7667,47.0189,132.446,105.666,111.402,0.00803035,0.110909,20.9084,59.6219,-0.478176,0.0,0.0
2646,661.25,45.6438,46.4896,134.329,105.69,112.881,0.0082305,0.111229,20.9084,59.5318,-0.595362,0.0,0.0
2660,664.75,45.7396,46.6524,136.301,105.697,111.17,0.00828545,0.110151,20.91,59.6019,-0.456683,0.0,0.0
2674,668.25,45.9378,46.6287,133.614,105.674,111.594,0.00835748,0.110003,20.9104,59.4317,-0.492983,0.0,0.0
2688,671.75,45.6179,46.2628,129.846,105.691,112.22,0.00841617,0.111326,20.9088,59.5218,-0.542246,0.0,0.0
2702,675.25,45.4162,46.0746,132.69,105.674,113.074,0.0081953,0.111686,20.9079,59.4417,-0.612176,0.0,0.0
2716,678.75,45.3893,46.2383,133.478,105.68,111.959,0.00815157,0.111342,20.9085,59.4818,-0.522101,0.0,0.0
2730,682.25,45.0397,46.6364,135.646,105.661,111.913,0.00820558,0.111865,20.9083,59.3817,-0.519965,0.0,0.0
2744,685.75,45.4111,46.4701,130.037,105.665,111.183,0.00796481,0.111773,20.9079,59.4017,-0.460419,0.0,0.0
2758,689.25,45.5944,45.8029,132.736,105.648,112.254,0.00794002,0.111691,20.9078,59.3316,-0.548677,0.0,0.0
2772,692.75,45.4821,45.8128,134.535,105.635,111.192,0.00824369,0.113305,20.9054,59.2716,-0.463784,0.0,0.0
2786,696.25,45.4416,46.1193,129.929,105.64,111.606,0.00855052,0.113627,20.9044,59.2816,-0.496932,0.0,0.0
2800,699.75,44.6785,45.7456,133.375,105.649,112.33,0.00870092,0.114592,20.9026,59.2216,-0.55472,0.0,0.0
2814,703.25,45.0042,45.8222,129.834,105.65,112.485,0.00854579,0.115101,20.9023,59.2115,-0.567018,0.0,0.0
2828,706.75,44.6043,45.6804,131.327,105.641,112.15,0.00859626,0.114541,20.9033,59.1315,-0.540807,0.0,0.0
2842,710.25,45.1435,46.2745,130.751,105.654,111.715,0.00873826,0.11464,20.9029,59.1515,-0.504568,0.0,0.0
2856,713.75,44.6699,46.3538,132.424,105.66,112.67,0.00874317,0.114925,20.9029,59.0814,-0.581007,0.0,0.0
2870,717.25,44.8693,46.1939,130.967,105.684,111.605,0.00871467,0.114048,20.9042,59.1115,-0.493093,0.0,0.0
2884,720.75,44.5458,45.081,133.942,105.653,111.728,0.00876301,0.114474,20.9045,59.0514,-0.505732,0.0,0.0
2898,724.25,45.0806,46.1594,136.532,105.667,111.317,0.00873644,0.114513,20.9048,59.0514,-0.471218,0.0,0.0
2912,727.75,44.3692,45.7019,129.374,105.664,111.309,0.00847747,0.114238,20.9035,58.9613,-0.470829,0.0,0.0
2926,731.25,45.2172,46.071,132.722,105.646,111.808,0.00846107,0.115089,20.9032,59.0114,-0.512793,0.0,0.0
2940,734.75,44.7408,45.5649,135.112,105.617,110.805,0.00853633,0.11492,20.9028,58.9914,-0.433799,0.0,0.0
2954,738.25,44.4164,45.7281,131.907,105.559,112.108,0.00851447,0.114248,20.9041,58.8612,-0.544413,0.0,0.0
2968,741.75,44.6772,45.3047,133.526,105.494,112.471,0.00871275,0.114454,20.9051,58.8312,-0.579295,0.0,0.0
2982,745.25,44.3321,45.1417,133.085,105.4,110.63,0.00897735,0.115702,20.9041,58.7311,-0.438079,0.0,0.0
2996,748.75,44.619,44.9575,133.728,105.324,111.715,0.0088553,0.115611,20.9043,58.8012,-0.532836,0.0,0.0
3010,752.25,44.4509,45.3976,129.092,105.181,111.441,0.00905535,0.115729,20.9052,58.7211,-0.522983,0.0,0.0
3024,755.75,44.3511,45.5975,135.1,105.069,110.379,0.0089459,0.115315,20.9054,58.7511,-0.445936,0.0,0.0
3038,759.25,44.0951,45.4756,132.638,104.931,111.111,0.00866192,0.115197,20.9054,58.6611,-0.517648,0.0,0.0
3052,762.75,44.5265,45.0736,134.265,104.813,111.119,0.00875653,0.114858,20.9054,58.6611,-0.528463,0.0,0.0
3066,766.25,44.1664,45.0536,132.017,104.769,111.559,0.00905925,0.114783,20.9056,58.631,-0.567978,0.0,0.0
3080,769.75,44.3307,45.1314,135.264,104.963,111.642,0.00916885,0.11458,20.9062,58.611,-0.558002,0.0,0.0
3094,773.25,43.9346,45.0814,133.2,105.13,111.357,0.00908692,0.114121,20.9076,58.581,-0.520539,0.0,0.0
3108,776.75,43.6752,44.9132,131.908,105.19,112.83,0.00909982,0.114782,20.9065,58.4209,-0.634259,0.0,0.0
3122,780.25,43.7557,45.3826,132.55,105.202,111.151,0.00919398,0.113925,20.9057,58.5209,-0.497582,0.0,0.0
3136,783.75,43.6303,44.9086,132.969,105.146,110.902,0.00925796,0.114621,20.9053,58.4209,-0.482153,0.0,0.0
3150,787.25,43.6592,44.9717,134.7,105.081,111.103,0.00915803,0.115111,20.9039,58.4709,-0.504077,0.0,0.0
3164,790.75,44.1741,45.2627,133.619,105.008,111.566,0.00895248,0.115364,20.9043,58.3308,-0.547913,0.0,0.0
3178,794.25,43.8261,45.3935,130.713,104.905,110.601,0.00906776,0.115114,20.9047,58.3608,-0.47829,0.0,0.0
3192,797.75,43.6396,44.8463,126.573,104.83,110.813,0.00912103,0.114963,20.9037,58.2407,-0.502059,0.0,0.0
3206,801.25,43.4095,44.7953,132.53,104.77,111.405,0.00905051,0.115126,20.9034,58.3108,-0.55547,0.0,0.0
3220,804.75,43.859,44.9566,130.048,104.728,111.13,0.00911553,0.115717,20.9034,58.2807,-0.536706,0.0,0.0
3234,808.25,43.4804,45.0346,131.154,104.692,110.845,0.00911112,0.115875,20.9024,58.1806,-0.516615,0.0,0.0
3248,811.75,43.5472,45.3906,135.584,104.694,110.837,0.00894712,0.11532,20.9027,58.1907,-0.515785,0.0,0.0
3262,815.25,43.7044,44.7664,133.315,104.675,110.104,0.00871214,0.114537,20.9032,58.0605,-0.457439,0.0,0.0
3276,818.75,43.3473,44.6661,132.987,104.678,110.571,0.00862467,0.114181,20.9033,58.1306,-0.495367,0.0,0.0
3290,822.25,42.7106,44.5134,132.736,104.653,111.115,0.00863881,0.114507,20.9033,58.0005,-0.541918,0.0,0.0
3304,825.75,43.6607,45.0075,131.343,104.636,110.777,0.00898862,0.114623,20.9037,58.0605,-0.515884,0.0,0.0
3318,829.25,43.2681,45.0238,130.65,104.619,110.363,0.00920208,0.115163,20.9052,57.9805,-0.483436,0.0,0.0
3332,832.75,43.4286,44.9962,134.527,104.602,110.062,0.00925186,0.116215,20.9031,58.0105,-0.460276,0.0,0.0
3346,836.25,43.4084,44.5154,134.423,104.577,110.325,0.00931609,0.117148,20.9021,57.9404,-0.483997,0.0,0.0
3360,839.75,43.208,44.7252,132.726,104.543,109.994,0.00912759,0.116807,20.9007,57.8904,-0.459729,0.0,0.0
3374,843.25,43.2248,44.6899,133.033,104.511,111.134,0.00925767,0.116199,20.9025,57.9204,-0.555792,0.0,0.0
3388,846.75,43.1352,44.6974,134.526,104.438,110.26,0.00909515,0.115242,20.9038,57.8003,-0.490647,0.0,0.0
3402,850.25,43.7754,44.3601,134.693,104.425,110.192,0.0091063,0.114383,20.9052,57.8203,-0.486202,0.0,0.0
3416,853.75,43.2652,44.9807,131.893,104.433,110.557,0.00943819,0.11398,20.9066,57.7403,-0.515469,0.0,0.0
3430,857.25,43.3453,44.7641,132.952,104.461,110.921,0.00943013,0.114605,20.9067,57.7803,-0.542731,0.0,0.0
3444,860.75,43.4519,44.802,132.984,104.472,111.391,0.00932835,0.114445,20.9067,57.6502,-0.580059,0.0,0.0
3458,864.25,43.3257,44.892,130.414,104.507,110.543,0.00916595,0.113885,20.9067,57.7303,-0.507884,0.0,0.0
3472,867.75,43.3454,44.4524,130.974,104.525,110.157,0.00927249,0.1141,20.9067,57.6102,-0.474697,0.0,0.0
3486,871.25,43.2034,44.8103,133.749,104.557,109.593,0.00921315,0.113507,20.9082,57.6502,-0.425485,0.0,0.0
3500,874.75,43.0749,44.491,129.263,104.592,110.089,0.00923317,0.112739,20.9082,57.5901,-0.463298,0.0,0.0
3514,878.25,43.2412,44.7018,132.878,104.611,110.859,0.00911084,0.112022,20.9069,57.5301,-0.524733,0.0,0.0
3528,881.75,43.6099,44.6735,137.379,104.657,110.73,0.00911686,0.112194,20.9063,57.5901,-0.510215,0.0,0.0
3542,885.25,43.2775,44.7142,131.991,104.66,110.941,0.00917377,0.1116,20.9067,57.44,-0.527143,0.0,0.0
3556,888.75,43.3048,44.9696,134.98,104.686,110.847,0.00918864,0.111598,20.9077,57.5001,-0.517278,0.0,0.0
3570,892.25,43.0566,44.7144,134.819,104.679,110.84,0.00935882,0.111065,20.9082,57.3699,-0.517327,0.0,0.0
3584,895.75,43.0903,44.7122,131.425,104.701,109.583,0.00944058,0.110862,20.9084,57.42,-0.412253,0.0,0.0
3598,899.25,42.8695,44.2769,130.511,104.694,111.074,0.00955467,0.110247,20.9084,57.3199,-0.535075,0.0,0.0
3612,902.75,43.0114,44.3022,130.55,104.718,111.196,0.00947536,0.11128,20.9078,57.3699,-0.542927,0.0,0.0
3626,906.25,42.7534,44.5204,135.056,104.701,110.103,0.00929099,0.112029,20.9073,57.2799,-0.455021,0.0,0.0
3640,909.75,43.3492,44.4488,134.991,104.715,111.078,0.00904521,0.112272,20.9071,57.2899,-0.53359,0.0,0.0
3654,913.25,42.9932,44.2496,131.727,104.715,110.489,0.0090351,0.111671,20.9071,57.2699,-0.485521,0.0,0.0
3668,916.75,42.7698,44.4067,133.973,104.697,111.324,0.0093555,0.111103,20.9095,57.1798,-0.555166,0.0,0.0
3682,920.25,43.2144,44.2916,135.672,104.696,110.543,0.00938459,0.110301,20.9101,57.2198,-0.491622,0.0,0.0
3696,923.75,42.7308,44.3917,131.244,104.689,111.445,0.00947209,0.110749,20.9098,57.0897,-0.565694,0.0,0.0
3710,927.25,43.051,44.0821,130.103,104.692,111.116,0.00940024,0.110638,20.909,57.1497,-0.538633,0.0,0.0
3724,930.75,42.7528,44.3645,133.055,104.66,111.599,0.00942132,0.110185,20.9088,57.0296,-0.580642,0.0,0.0
3738,934.25,42.9701,44.3041,131.276,104.655,110.921,0.00950447,0.110591,20.9088,57.0797,-0.526022,0.0,0.0
3752,937.75,42.7391,44.4193,131.958,104.631,110.979,0.00930158,0.110582,20.9077,56.9796,-0.532739,0.0,0.0
3766,941.25,42.9618,44.2645,134.202,104.595,111.035,0.00933373,0.111482,20.9061,57.0397,-0.540438,0.0,0.0
3780,944.75,43.0346,44.3104,133.103,104.56,110.959,0.00929413,0.112301,20.9057,56.9596,-0.537247,0.0,0.0
3794,948.25,42.7373,44.1446,136.225,104.537,109.895,0.00929148,0.111945,20.9069,56.9296,-0.452119,0.0,0.0
3808,951.75,42.7682,44.2664,130.943,104.535,111.002,0.0093782,0.112341,20.9061,56.9195,-0.542971,0.0,0.0
3822,955.25,43.1459,44.3932,132.988,104.502,110.748,0.00944302,0.113298,20.9056,56.8095,-0.525079,0.0,0.0
3836,958.75,43.0038,44.6493,131.331,104.472,110.763,0.0096562,0.111711,20.908,56.8595,-0.528892,0.0,0.0
3850,962.25,42.8244,44.075,135.534,104.442,110.534,0.00973207,0.109914,20.9102,56.7794,-0.512759,0.0,0.0
3864,965.75,43.0747,44.6352,133.468,104.44,110.573,0.00942166,0.107865,20.9135,56.8095,-0.516182,0.0,0.0
3878,969.25,42.848,44.0016,131.035,104.516,111.276,0.00930628,0.107313,20.9151,56.6994,-0.566945,0.0,0.0
3892,972.75,42.7948,44.4257,131.313,104.647,110.745,0.00939267,0.107627,20.9135,56.7594,-0.512347,0.0,0.0
3906,976.25,42.7298,44.0819,136.2,104.667,109.57,0.00957124,0.1075,20.9131,56.6493,-0.414098,0.0,0.0
3920,979.75,42.612,44.5488,131.978,104.733,110.589,0.0096185,0.107181,20.913,56.7094,-0.492145,0.0,0.0
3934,983.25,43.0379,44.2913,132.72,104.758,110.504,0.00962874,0.107017,20.913,56.6793,-0.483054,0.0,0.0
3948,986.75,42.838,44.1781,134.58,104.818,111.172,0.00970747,0.107348,20.913,56.5793,-0.53242,0.0,0.0
3962,990.25,42.7418,44.1565,129.457,104.843,111.551,0.00988379,0.108644,20.9117,56.6193,-0.560987,0.0,0.0
3976,993.75,42.8043,44.4664,129.285,104.85,111.487,0.00978689,0.109345,20.9107,56.5392,-0.555193,0.0,0.0
3990,997.25,42.6646,44.1391,131.894,104.866,110.696,0.00953617,0.109215,20.9124,56.5893,-0.489336,0.0,0.0
4004,1000.75,42.7617,44.2375,131.193,104.846,110.306,0.00943177,0.109849,20.9121,56.4391,-0.459212,0.0,0.0
4018,1004.25,42.7347,44.2553,134.73,104.873,111.911,0.00948409,0.11012,20.9115,56.4992,-0.587473,0.0,0.0
4032,1007.75,42.6897,44.085,133.488,104.823,111.489,0.00966583,0.110218,20.9099,56.3691,-0.557677,0.0,0.0
4046,1011.25,42.8223,44.2369,133.498,104.818,110.721,0.00949189,0.110225,20.9092,56.4091,-0.495586,0.0,0.0
4060,1014.75,42.3283,44.1969,132.181,104.768,111.058,0.00938716,0.109803,20.9091,56.3691,-0.52736,0.0,0.0
4074,1018.25,42.9658,44.0491,128.115,104.696,111.505,0.00959765,0.110685,20.9093,56.3891,-0.570021,0.0,0.0
4088,1021.75,42.7507,43.9685,132.871,104.662,111.156,0.00955211,0.111532,20.9089,56.3491,-0.544487,0.0,0.0
4102,1025.25,42.3833,44.049,131.279,104.576,110.632,0.00938275,0.110959,20.9095,56.339,-0.509275,0.0,0.0
4116,1028.75,42.8323,44.0738,132.897,104.517,109.838,0.00942835,0.111238,20.9097,56.339,-0.449158,0.0,0.0
4130,1032.25,42.101,43.7178,134.061,104.395,111.056,0.00962236,0.112878,20.9081,56.1989,-0.559524,0.0,0.0
4144,1035.75,42.4927,43.4884,134.774,104.396,109.667,0.00960068,0.113391,20.9064,56.259,-0.445573,0.0,0.0
4158,1039.25,42.4455,44.0872,138.106,104.395,111.112,0.00958149,0.112802,20.9074,56.1088,-0.564038,0.0,0.0
4172,1042.75,42.2525,43.796,133.594,104.456,110.893,0.00972209,0.112361,20.9066,56.2189,-0.540929,0.0,0.0
4186,1046.25,42.4831,43.5281,133.029,104.47,110.66,0.00988142,0.111777,20.9074,56.0988,-0.520667,0.0,0.0
4200,1049.75,42.4087,43.8789,132.909,104.551,110.27,0.00978566,0.111275,20.9091,56.1088,-0.481721,0.0,0.0
4214,1053.25,42.0079,43.5548,133.171,104.619,110.556,0.00969944,0.111047,20.9083,56.0288,-0.499227,0.0,0.0
4228,1056.75,42.2722,43.6261,130.876,104.713,110.982,0.00993541,0.112307,20.9069,56.0588,-0.525955,0.0,0.0
4242,1060.25,42.4286,43.4975,132.118,104.849,111.128,0.0096524,0.112231,20.9077,56.0488,-0.526119,0.0,0.0
4256,1063.75,42.0771,43.0628,133.945,104.904,111.287,0.00938455,0.111273,20.9089,55.9287,-0.534299,0.0,0.0
4270,1067.25,42.1191,43.3867,133.065,104.983,110.539,0.00935455,0.110781,20.9095,55.9587,-0.466446,0.0,0.0
4284,1070.75,41.9265,43.5913,130.256,105.02,110.967,0.00942409,0.110739,20.9096,55.8386,-0.498236,0.0,0.0
4298,1074.25,41.7612,43.2845,133.416,105.064,111.201,0.00938493,0.111782,20.9083,55.8786,-0.513491,0.0,0.0
4312,1077.75,42.0459,43.1942,131.63,105.096,111.271,0.00925329,0.111459,20.9092,55.7285,-0.516445,0.0,0.0
4326,1081.25,42.1404,43.6766,135.978,105.113,111.123,0.00927468,0.111661,20.9096,55.8887,-0.502979,0.0,0.0
4340,1084.75,41.6534,43.5588,135.212,105.099,111.18,0.00922635,0.1117,20.9102,55.6985,-0.508767,0.0,0.0
4354,1088.25,41.683,43.5048,133.387,105.097,111.649,0.00917237,0.110138,20.9118,55.7585,-0.547028,0.0,0.0
4368,1091.75,41.6169,43.3195,132.99,105.069,111.195,0.00946526,0.11051,20.9112,55.6585,-0.512599,0.0,0.0
4382,1095.25,42.0665,43.0297,132.275,105.028,111.992,0.00950265,0.112887,20.9068,55.6985,-0.580764,0.0,0.0
4396,1098.75,41.7379,43.4388,133.382,104.997,111.854,0.00958562,0.112778,20.9067,55.6585,-0.572243,0.0,0.0
4410,1102.25,41.8901,43.2789,131.795,104.977,111.266,0.00936758,0.113185,20.9054,55.5383,-0.526219,0.0,0.0
4424,1105.75,41.7305,43.3403,134.519,104.98,110.809,0.00911293,0.11182,20.9079,55.6184,-0.488815,0.0,0.0
4438,1109.25,41.7172,43.2106,137.992,104.958,111.095,0.00912354,0.110304,20.9098,55.4783,-0.513951,0.0,0.0
4452,1112.75,41.8178,43.0812,129.242,104.963,110.713,0.00949661,0.110914,20.9102,55.5684,-0.482436,0.0,0.0
4466,1116.25,41.6068,42.9257,130.503,104.958,110.155,0.00956558,0.111517,20.91,55.4583,-0.437169,0.0,0.0
4480,1119.75,41.781,43.3429,130.389,104.965,110.557,0.00938676,0.111033,20.9096,55.4783,-0.469499,0.0,0.0
4494,1123.25,41.6417,43.1307,130.695,104.966,109.824,0.00948333,0.111072,20.9095,55.3782,-0.409281,0.0,0.0
4508,1126.75,42.1215,43.1653,134.685,104.983,110.244,0.00960878,0.111113,20.9095,55.3982,-0.442322,0.0,0.0
4522,1130.25,41.941,43.2953,131.527,104.968,110.776,0.00963731,0.111474,20.9095,55.3081,-0.487136,0.0,0.0
4536,1133.75,41.9626,43.2751,132.389,104.97,111.013,0.00983814,0.11185,20.9094,55.3282,-0.506329,0.0,0.0
4550,1137.25,41.6659,43.3728,131.021,104.963,111.56,0.00956956,0.112155,20.9097,55.3081,-0.551358,0.0,0.0
4564,1140.75,41.6369,43.2304,134.752,104.937,111.604,0.00924517,0.1118,20.9101,55.178,-0.557164,0.0,0.0
4578,1144.25,41.4213,43.7043,132.178,104.933,111.007,0.00919873,0.111246,20.9108,55.2481,-0.508966,0.0,0.0
4592,1147.75,41.7504,43.3824,136.253,104.9,110.978,0.00942262,0.110549,20.9121,55.128,-0.509493,0.0,0.0
4606,1151.25,42.2943,43.5378,132.414,104.884,110.553,0.00959313,0.112605,20.91,55.2181,-0.476151,0.0,0.0
4620,1154.75,41.687,43.2759,134.274,104.849,111.217,0.00968192,0.114316,20.908,55.088,-0.533321,0.0,0.0
4634,1158.25,41.7097,43.4643,129.879,104.832,110.036,0.00965404,0.113995,20.9058,55.108,-0.438199,0.0,0.0
4648,1161.75,42.1519,43.1792,132.065,104.803,111.189,0.00939826,0.112799,20.9051,55.0479,-0.535059,0.0,0.0
4662,1165.25,42.0711,43.4626,131.355,104.783,111.184,0.00939061,0.113664,20.9041,55.0279,-0.536283,0.0,0.0
4676,1168.75,41.5943,43.3892,135.37,104.763,110.683,0.00925571,0.116433,20.9032,55.0179,-0.497208,0.0,0.0
4690,1172.25,41.8237,43.7646,131.482,104.727,111.31,0.00922964,0.114366,20.9057,54.9278,-0.551475,0.0,0.0
4704,1175.75,41.7874,43.7238,131.538,104.73,110.873,0.00931179,0.111868,20.9085,54.9578,-0.515572,0.0,0.0
4718,1179.25,41.7728,43.5541,132.359,104.715,109.715,0.00948009,0.110708,20.9099,54.8377,-0.421887,0.0,0.0
4732,1182.75,41.442,43.8863,134.713,104.703,110.467,0.00958379,0.110144,20.9107,54.9178,-0.484712,0.0,0.0
4746,1186.25,41.9712,43.5612,133.12,104.652,110.691,0.00926436,0.109036,20.9122,54.7977,-0.507421,0.0,0.0
4760,1189.75,41.7245,43.4595,133.832,104.674,110.206,0.00905557,0.109068,20.9119,54.8177,-0.465847,0.0,0.0
4774,1193.25,42.1421,43.3007,132.536,104.661,110.96,0.0092694,0.108876,20.9107,54.7176,-0.528663,0.0,0.0
4788,1196.75,42.2772,43.1596,131.887,104.668,111.09,0.00918263,0.108588,20.9107,54.7777,-0.538628,0.0,0.0
4802,1200.25,42.1875,43.455,133.064,104.666,110.989,0.00902012,0.108247,20.9112,54.6976,-0.530617,0.0,0.0
4816,1203.75,41.852,43.5825,134.33,104.665,110.468,0.00901158,0.108424,20.9119,54.6776,-0.488076,0.0,0.0
4830,1207.25,41.9672,43.6826,133.453,104.687,109.822,0.00901753,0.10856,20.9117,54.6876,-0.433159,0.0,0.0
4844,1210.75,42.0488,43.6865,129.672,104.692,110.308,0.00903429,0.108841,20.9116,54.5975,-0.472647,0.0,0.0
4858,1214.25,41.7673,43.3263,130.761,104.708,110.914,0.00901607,0.108422,20.9134,54.6376,-0.520813,0.0,0.0
4872,1217.75,41.9182,43.477,134.658,104.729,111.191,0.0091552,0.108918,20.9138,54.4974,-0.541634,0.0,0.0
4886,1221.25,41.8085,44.0356,135.944,104.734,111.164,0.00934578,0.108101,20.9139,54.5575,-0.538998,0.0,0.0
4900,1224.75,41.6324,43.5646,131.27,104.745,111.238,0.00942782,0.107519,20.9138,54.4674,-0.544036,0.0,0.0
4914,1228.25,41.9763,43.3559,130.321,104.795,110.472,0.00946023,0.107309,20.9134,54.5275,-0.477176,0.0,0.0
4928,1231.75,41.9004,43.6054,132.412,104.819,110.539,0.00945138,0.107762,20.913,54.4174,-0.48066,0.0,0.0
4942,1235.25,41.9069,43.3791,131.608,104.846,110.395,0.00948203,0.107855,20.9126,54.4674,-0.466504,0.0,0.0
4956,1238.75,41.5933,43.4419,132.766,104.874,110.011,0.00949932,0.106898,20.9125,54.3773,-0.432521,0.0,0.0
4970,1242.25,41.612,43.304,131.382,104.884,110.883,0.00915388,0.104427,20.9146,54.3373,-0.50313,0.0,0.0
4984,1245.75,41.4667,43.3902,133.233,104.928,110.914,0.00906864,0.104444,20.9154,54.3573,-0.501885,0.0,0.0
4998,1249.25,41.8928,43.5337,130.94,104.953,111.179,0.00900725,0.102877,20.9178,54.2572,-0.521286,0.0,0.0
5012,1252.75,41.4919,43.023,138.637,105.015,111.009,0.00922067,0.102023,20.9198,54.3173,-0.502128,0.0,0.0
5026,1256.25,41.596,42.9358,135.667,105.04,110.609,0.00913652,0.103524,20.9167,54.2072,-0.467319,0.0,0.0
5040,1259.75,41.7223,42.9499,126.677,105.084,110.823,0.00898388,0.106412,20.9128,54.2472,-0.480929,0.0,0.0
5054,1263.25,41.7085,42.9034,132.897,105.116,111.099,0.00890718,0.111503,20.906,54.1571,-0.500717,0.0,0.0
5068,1266.75,41.3298,43.4013,131.109,105.142,111.805,0.00913308,0.113911,20.9026,54.1972,-0.555843,0.0,0.0
5082,1270.25,42.0587,43.3219,135.194,105.161,110.751,0.00916505,0.113555,20.9036,54.0671,-0.468528,0.0,0.0
5096,1273.75,41.8608,43.6405,134.281,105.172,111.14,0.00923035,0.114313,20.9044,54.1371,-0.499255,0.0,0.0
5110,1277.25,42.4695,43.4293,136.128,105.163,111.656,0.0093903,0.112537,20.906,54.0871,-0.541959,0.0,0.0
5124,1280.75,41.5878,42.6455,133.992,105.157,111.288,0.00954813,0.110352,20.9076,54.037,-0.512536,0.0,0.0
5138,1284.25,41.4973,43.4045,134.601,105.146,111.896,0.00944698,0.109014,20.9086,54.0471,-0.562787,0.0,0.0
5152,1287.75,41.8651,43.3047,134.829,105.122,110.854,0.00928538,0.108898,20.91,53.947,-0.480313,0.0,0.0
5166,1291.25,41.7753,43.4685,131.553,105.117,111.157,0.0089473,0.109224,20.9108,53.987,-0.505346,0.0,0.0
5180,1294.75,41.1607,43.4922,132.278,105.069,110.968,0.00904647,0.107168,20.911,53.8969,-0.494128,0.0,0.0
5194,1298.25,42.1374,43.3932,134.803,105.013,110.261,0.00909868,0.106502,20.9125,53.937,-0.441151,0.0,0.0
5208,1301.75,41.7244,43.424,134.421,104.963,111.821,0.00925055,0.105998,20.9128,53.8269,-0.572444,0.0,0.0
5222,1305.25,42.011,43.3505,131.73,104.928,110.713,0.00931292,0.105119,20.9134,53.8569,-0.485498,0.0,0.0
5236,1308.75,41.9904,43.1314,130.603,104.861,111.569,0.00927474,0.104507,20.9141,53.7368,-0.560894,0.0,0.0
5250,1312.25,42.3662,43.6367,129.495,104.796,110.789,0.00889856,0.104314,20.9156,53.7868,-0.503073,0.0,0.0
5264,1315.75,42.2058,44.1776,133.607,104.75,110.764,0.00865805,0.102935,20.9173,53.7668,-0.505034,0.0,0.0
5278,1319.25,41.7801,43.9794,134.147,104.729,110.367,0.00895618,0.102565,20.9178,53.7068,-0.474356,0.0,0.0
5292,1322.75,42.354,43.3276,132.93,104.71,110.196,0.00902028,0.102729,20.9179,53.7268,-0.461867,0.0,0.0
5306,1326.25,42.2863,44.0342,134.045,104.67,110.876,0.0090098,0.103674,20.9157,53.6567,-0.520985,0.0,0.0
5320,1329.75,42.0503,43.6241,130.289,104.659,111.558,0.00892756,0.104739,20.9145,53.7368,-0.577431,0.0,0.0
5334,1333.25,42.558,44.301,136.966,104.626,110.609,0.00892338,0.104853,20.9153,53.5967,-0.503022,0.0,0.0
5348,1336.75,42.0766,44.1427,132.886,104.616,110.365,0.0088972,0.104656,20.9155,53.6767,-0.483917,0.0,0.0
5362,1340.25,41.8497,43.6924,131.016,104.612,111.454,0.0089497,0.104941,20.9159,53.5766,-0.57306,0.0,0.0
5376,1343.75,41.901,43.7331,128.283,104.615,110.975,0.00896652,0.105263,20.9156,53.5566,-0.533899,0.0,0.0
5390,1347.25,42.4152,43.5096,129.739,104.604,111.29,0.00888988,0.10564,20.9153,53.5867,-0.560402,0.0,0.0
5404,1350.75,42.5795,43.0529,133.047,104.616,110.861,0.00896233,0.105999,20.9153,53.5566,-0.524482,0.0,0.0
5418,1354.25,41.945,43.771,134.378,104.643,110.925,0.0089336,0.106073,20.9152,53.5266,-0.527386,0.0,0.0
5432,1357.75,41.9206,43.4781,132.768,104.649,110.372,0.00874259,0.106392,20.9148,53.4265,-0.48164,0.0,0.0
5446,1361.25,41.7914,43.7773,132.699,104.683,111.153,0.00869454,0.10777,20.9128,53.4465,-0.542469,0.0,0.0
5460,1364.75,41.8523,43.4397,136.822,104.714,110.978,0.00883427,0.107398,20.9119,53.3564,-0.525543,0.0,0.0
5474,1368.25,41.9163,43.1395,133.268,104.763,110.504,0.00883997,0.107077,20.9125,53.4165,-0.482578,0.0,0.0
5488,1371.75,41.6043,43.1922,130.633,104.814,110.129,0.00857487,0.106249,20.9126,53.3064,-0.447384,0.0,0.0
5502,1375.25,41.7537,43.8233,134.103,104.902,110.392,0.00840801,0.106463,20.9126,53.3464,-0.461464,0.0,0.0
5516,1378.75,41.6726,43.2469,135.503,104.933,110.655,0.00847881,0.106627,20.913,53.2263,-0.480229,0.0,0.0
5530,1382.25,41.8084,43.2692,133.066,105.004,111.554,0.00892801,0.108118,20.9117,53.2363,-0.547334,0.0,0.0
5544,1385.75,41.756,43.5526,133.289,105.054,110.554,0.00899192,0.107628,20.9118,53.1963,-0.461587,0.0,0.0
5558,1389.25,41.6262,43.708,135.026,105.085,111.674,0.0086877,0.10668,20.9141,53.1463,-0.550084,0.0,0.0
5572,1392.75,41.4719,43.1853,134.26,105.111,110.808,0.0084886,0.107167,20.9147,53.1663,-0.47742,0.0,0.0
5586,1396.25,41.7209,43.3474,135.304,105.101,111.236,0.00857977,0.106726,20.9149,53.1062,-0.513168,0.0,0.0
5600,1399.75,41.5958,43.4956,130.345,105.099,110.588,0.00895231,0.106436,20.9149,53.0862,-0.460475,0.0,0.0
5614,1403.25,41.5513,43.2527,130.848,105.03,111.486,0.0088863,0.107067,20.9149,52.9961,-0.539597,0.0,0.0
5628,1406.75,41.5794,43.1598,130.221,104.991,110.628,0.00877863,0.107564,20.9149,53.0662,-0.473067,0.0,0.0
5642,1410.25,41.4927,43.1375,132.731,104.879,111.96,0.00879885,0.107135,20.9143,52.9561,-0.590952,0.0,0.0
5656,1413.75,41.7508,43.6489,131.513,104.803,110.343,0.00851646,0.106587,20.9147,52.9661,-0.465987,0.0,0.0
5670,1417.25,41.3351,43.407,133.859,104.68,111.343,0.00874048,0.106592,20.9125,52.896,-0.558214,0.0,0.0
5684,1420.75,41.4178,43.1389,131.619,104.541,111.2,0.00893255,0.108307,20.9105,52.9061,-0.558613,0.0,0.0
5698,1424.25,41.8272,43.1625,133.582,104.41,110.633,0.0086809,0.107832,20.9108,52.9061,-0.523693,0.0,0.0
5712,1427.75,41.7124,43.2195,132.988,104.254,110.009,0.00841599,0.106942,20.9116,52.786,-0.486079,0.0,0.0
5726,1431.25,41.6142,43.211,129.989,104.138,109.566,0.00828886,0.106321,20.9122,52.806,-0.459636,0.0,0.0
5740,1434.75,41.4588,43.2619,129.336,104.016,111.026,0.00849083,0.106277,20.9133,52.7059,-0.590003,0.0,0.0
5754,1438.25,41.4006,43.2232,135.625,103.953,110.585,0.00881775,0.107297,20.9138,52.786,-0.559362,0.0,0.0
5768,1441.75,41.8356,43.1769,130.465,103.888,109.927,0.0088777,0.107313,20.9139,52.6859,-0.511148,0.0,0.0
5782,1445.25,41.8717,43.298,131.437,103.861,109.976,0.00867951,0.106691,20.9139,52.7059,-0.517452,0.0,0.0
5796,1448.75,41.7987,43.4251,133.024,103.827,108.795,0.00839449,0.106047,20.9156,52.5858,-0.422832,0.0,0.0
5810,1452.25,41.6332,43.6135,130.998,103.843,110.674,0.0085586,0.108038,20.9143,52.6558,-0.576278,0.0,0.0
5824,1455.75,41.6535,43.5383,132.5,103.86,109.539,0.00859974,0.108338,20.9133,52.6158,-0.481518,0.0,0.0
5838,1459.25,41.8732,42.9621,132.038,103.868,109.548,0.00838045,0.106975,20.914,52.5558,-0.481589,0.0,0.0
5852,1462.75,41.446,43.1685,131.808,103.881,109.825,0.00841577,0.106539,20.9147,52.5558,-0.503339,0.0,0.0
5866,1466.25,41.5715,43.0086,135.46,103.893,109.832,0.00848204,0.105764,20.9149,52.4457,-0.502771,0.0,0.0
5880,1469.75,41.6193,43.0071,135.357,103.907,109.832,0.00856133,0.106271,20.9149,52.5057,-0.501594,0.0,0.0
5894,1473.25,41.5719,43.1912,136.658,103.917,109.709,0.00871662,0.105353,20.9165,52.4056,-0.490578,0.0,0.0
5908,1476.75,41.5335,43.2947,132.584,103.94,110.344,0.00850161,0.104778,20.9171,52.4557,-0.540785,0.0,0.0
5922,1480.25,41.7492,43.3118,135.042,103.96,109.682,0.00834718,0.1049,20.9166,52.3256,-0.484675,0.0,0.0
5936,1483.75,41.3337,43.4998,132.078,103.988,109.378,0.0083971,0.10502,20.9171,52.3856,-0.45713,0.0,0.0
5950,1487.25,41.7113,43.5753,133.37,103.996,110.659,0.00867393,0.105347,20.9172,52.3055,-0.56178,0.0,0.0
5964,1490.75,42.5061,43.6602,133.137,104.019,110.208,0.00847853,0.106042,20.9166,52.3256,-0.522792,0.0,0.0
5978,1494.25,41.8346,43.3298,130.129,104.048,110.41,0.00840995,0.10678,20.9154,52.2555,-0.536868,0.0,0.0
5992,1497.75,42.0108,42.9264,133.702,104.102,110.039,0.00843817,0.107498,20.915,52.2054,-0.501704,0.0,0.0
6006,1501.25,41.4294,43.5162,133.207,104.119,109.384,0.00828551,0.106611,20.915,52.2655,-0.446167,0.0,0.0
6020,1504.75,41.3567,43.6033,130.813,104.17,110.202,0.00817705,0.106557,20.915,52.1554,-0.509145,0.0,0.0
6034,1508.25,40.1777,41.4937,131.022,104.2,109.794,0.00824722,0.106999,20.9134,52.2355,-0.473063,0.0,0.0
6048,1511.75,40.0684,41.595,131.386,104.22,111.001,0.00828813,0.10619,20.914,52.0954,-0.570146,0.0,0.0
6062,1515.25,39.8448,41.7479,132.314,104.264,109.948,0.00831359,0.105326,20.9149,52.1154,-0.480142,0.0,0.0
6076,1518.75,40.1827,41.7599,132.199,104.279,109.956,0.00842456,0.105828,20.9156,51.9953,-0.479512,0.0,0.0
6090,1522.25,40.4203,41.7749,130.196,104.34,109.395,0.00848126,0.105562,20.9157,52.0353,-0.427943,0.0,0.0
6104,1525.75,39.9779,41.7391,133.7,104.352,110.134,0.00824543,0.105173,20.9158,51.9552,-0.487832,0.0,0.0
6118,1529.25,40.3666,41.6272,134.86,104.38,110.069,0.00826311,0.105028,20.9156,51.9853,-0.480022,0.0,0.0
6132,1532.75,40.0237,41.6325,133.687,104.403,111.044,0.00858824,0.106026,20.9156,51.9152,-0.557879,0.0,0.0
6146,1536.25,39.7135,42.0526,131.666,104.398,110.702,0.00871103,0.107004,20.9136,51.9152,-0.530427,0.0,0.0
6160,1539.75,40.009,41.579,135.16,104.416,110.947,0.00859167,0.105651,20.9142,51.9052,-0.548812,0.0,0.0
6174,1543.25,40.1333,41.8136,134.277,104.433,110.354,0.00840784,0.105064,20.9146,51.7851,-0.498838,0.0,0.0
6188,1546.75,40.5004,41.9085,137.69,104.434,111.04,0.00808924,0.10505,20.9162,51.8551,-0.554828,0.0,0.0
6202,1550.25,40.3822,41.7502,135.857,104.436,110.351,0.00796509,0.103997,20.9173,51.735,-0.498316,0.0,0.0
6216,1553.75,40.0401,41.7817,138.016,104.462,110.859,0.00800475,0.104926,20.9165,51.8051,-0.537604,0.0,0.0
6230,1557.25,40.2249,41.8096,134.27,104.442,110.197,0.00801911,0.104543,20.916,51.695,-0.485158,0.0,0.0
6244,1560.75,40.1548,41.7903,131.483,104.458,111.511,0.00806049,0.103556,20.9177,51.7551,-0.591019,0.0,0.0
6258,1564.25,39.6404,41.1961,134.519,104.455,110.485,0.00809221,0.10378,20.9185,51.655,-0.507658,0.0,0.0
6272,1567.75,39.8147,42.0805,131.007,104.467,111.698,0.00823199,0.104113,20.9168,51.685,-0.60539,0.0,0.0
6286,1571.25,39.8923,42.2878,136.77,104.475,110.179,0.0081271,0.103084,20.9176,51.6349,-0.480775,0.0,0.0
6300,1574.75,40.0789,41.3039,132.168,104.461,110.779,0.00780426,0.102598,20.9182,51.5749,-0.531213,0.0,0.0
6314,1578.25,39.9496,41.6033,131.301,104.464,110.124,0.00767249,0.102944,20.9186,51.5949,-0.477214,0.0,0.0
6328,1581.75,39.8844,41.4412,131.217,104.428,109.897,0.00757676,0.102911,20.9192,51.4848,-0.461748,0.0,0.0
6342,1585.25,39.9073,41.4819,133.528,104.42,111.176,0.00770614,0.102069,20.9194,51.5349,-0.567034,0.0,0.0
6356,1588.75,40.0897,41.367,132.823,104.373,110.888,0.00782674,0.101689,20.9192,51.4048,-0.547761,0.0,0.0
6370,1592.25,40.3167,41.8206,132.903,104.378,110.209,0.00791779,0.101799,20.9187,51.4948,-0.491755,0.0,0.0
6384,1595.75,40.2691,41.7746,134.509,104.335,109.831,0.0078015,0.101152,20.9188,51.3847,-0.464361,0.0,0.0
6398,1599.25,39.9256,41.7853,132.074,104.359,109.997,0.00805396,0.101916,20.9192,51.4348,-0.475993,0.0,0.0
6412,1602.75,40.0214,41.8749,132.189,104.33,111.597,0.00806844,0.102441,20.9179,51.3247,-0.609067,0.0,0.0
6426,1606.25,39.7627,41.9212,132.43,104.324,110.807,0.00788742,0.101923,20.9186,51.3747,-0.545323,0.0,0.0
6440,1609.75,39.8806,41.3119,131.092,104.301,110.724,0.00786405,0.102014,20.9198,51.3247,-0.540531,0.0,0.0
6454,1613.25,39.9128,41.7321,131.171,104.276,110.51,0.00788225,0.101198,20.9214,51.2646,-0.525249,0.0,0.0
6468,1616.75,40.0088,41.4475,133.874,104.25,110.485,,,,51.2846,-0.525389,0.0,0.0
6482,1620.25,40.141,41.5496,134.19,104.208,110.664,,,,51.1846,-0.543763,0.0,0.0
6496,1623.75,40.3031,41.9547,132.067,104.183,111.171,,,,51.2346,-0.587216,0.0,0.0
6499,1624.5,39.7212,41.3334,133.587,104.168,110.643,,,,51.1846,-0.545424,0.0,0.0