File: 01_Data/Engineered_Flooring/Cone/Engineered_Flooring_Cone_HF50Scan_220524_R3.csv
Names,Time,Stack TC,Smoke TC,Exh Press,Smoke Comp,Smoke Meas,CO Meter,CO2 Meter,O2 Meter,Sample Mass,Ext Coeff,Start Test,Flame Verif
Chan Gain,,500,500,1,1,1,1,1,1,1,1,1.0,1.0
Offset,,0,0,0.138596,0,0,0,0,0,0,0,0.0,0.0
Gain,,1,1,25.011,13.8491,15.2622,1,1,1,1.00087,1.03118,1.0,1.0
Units,sec,C,C,Pa,%,%,%,%,%,g,/m,,
Baseline,,33.2298,34.3402,137.29,105.355,106.752,0.000846894,0.0462639,20.9958,-451.084,-0.11904,,
10,2.25,30.9674,32.74,135.968,105.552,106.126,0.000940339,0.0534407,20.9871,120.295,-0.0490284,0.0,0.0
20,4.75,31.2647,32.7122,138.084,105.527,106.549,0.000879085,0.0519353,20.9889,120.205,-0.0872162,0.0,0.0
30,7.25,31.5538,32.9181,136.073,105.537,107.013,0.000792019,0.0501744,20.9908,120.215,-0.125641,0.0,0.0
40,9.75,31.1522,32.6494,135.221,105.516,106.287,0.000687786,0.0486331,20.9947,120.155,-0.0658692,0.0,0.0
50,12.25,31.7643,32.9809,137.256,105.544,106.199,0.000629777,0.0482012,20.9961,120.125,-0.0559469,0.0,0.0
60,14.75,31.9475,33.2737,136.29,105.523,106.126,0.000462501,0.0493165,20.9958,120.034,-0.0514909,0.0,0.0
70,17.25,31.3625,32.9092,138.636,105.533,106.501,0.000527551,0.0504607,20.995,120.004,-0.0825962,0.0,0.0
80,19.75,32.2931,33.0834,133.5,105.527,106.849,0.000726606,0.0510524,20.9947,119.954,-0.112605,0.0,0.0
90,22.25,32.4576,33.5457,136.622,105.537,105.696,0.0010522,0.0513828,20.9926,119.964,-0.0135396,0.0,0.0
100,24.75,32.2479,33.0096,138.468,105.539,104.014,0.00166801,0.0675902,20.9667,119.864,0.131622,0.0,0.0
110,27.25,32.7868,33.5783,122.614,105.535,106.517,0.00285912,0.162537,20.8531,119.624,-0.0837993,0.0,1.0
120,29.75,35.3175,35.2019,116.962,105.532,105.494,0.00442587,0.344168,20.6475,119.124,0.00326128,0.0,1.0
130,32.25,37.581,35.8951,114.686,105.526,106.449,0.00536675,0.474071,20.4904,118.663,-0.0787834,0.0,1.0
140,34.75,40.0295,38.243,121.063,105.539,106.074,0.0055513,0.522552,20.4255,118.303,-0.045744,0.0,0.0
150,37.25,43.0015,40.4284,118.131,105.531,106.043,0.00571584,0.53723,20.4021,117.813,-0.0438102,0.0,0.0
160,39.75,45.7356,43.287,116.485,105.542,105.078,0.00603034,0.544856,20.3938,117.432,0.0398321,0.0,0.0
170,42.25,47.7248,45.2924,116.593,105.53,103.874,0.00642162,0.546976,20.3879,116.952,0.14302,0.0,0.0
180,44.75,49.3591,47.2293,114.628,105.544,104.258,0.00667598,0.557219,20.3748,116.581,0.110857,0.0,0.0
190,47.25,51.6696,48.906,113.954,105.529,105.575,0.00672156,0.574072,20.3566,116.021,-0.00389891,0.0,0.0
200,49.75,54.119,51.6647,116.201,105.542,105.659,0.00640449,0.588345,20.3377,115.571,-0.0100322,0.0,0.0
210,52.25,55.9065,53.3914,116.424,105.542,105.985,0.00608322,0.606073,20.3155,115.01,-0.0378971,0.0,0.0
220,54.75,58.0065,55.5872,117.724,105.554,106.542,0.00597263,0.616798,20.3037,114.55,-0.0842292,0.0,0.0
230,57.25,59.9334,57.7228,114.122,105.53,107.871,0.00580434,0.616963,20.3029,114.049,-0.198453,0.0,0.0
240,59.75,61.4889,59.554,116.086,105.53,107.308,0.00553653,0.60831,20.3148,113.609,-0.151071,0.0,0.0
250,62.25,62.8158,61.0304,116.605,105.54,107.936,0.00530259,0.592276,20.3307,113.128,-0.203048,0.0,0.0
260,64.75,64.06,62.0652,117.346,105.527,108.064,0.00514619,0.573368,20.3522,112.698,-0.214862,0.0,0.0
270,67.25,64.5593,63.4557,117.913,105.539,108.163,0.00486426,0.553889,20.3782,112.278,-0.222184,0.0,0.0
280,69.75,65.9924,65.0568,118.751,105.537,108.254,0.00459035,0.535044,20.3969,111.777,-0.229885,0.0,0.0
290,72.25,66.1114,65.5357,117.677,105.55,109.32,0.00441815,0.515439,20.4206,111.417,-0.317447,0.0,0.0
300,74.75,66.3482,66.2924,117.146,105.53,109.2,0.00430202,0.494814,20.4479,110.967,-0.309237,0.0,0.0
310,77.25,67.1077,67.165,120.641,105.541,109.913,0.00416493,0.476622,20.4649,110.646,-0.367097,0.0,0.0
320,79.75,67.1718,67.4522,118.068,105.526,108.99,0.00390488,0.460785,20.4837,110.166,-0.292149,0.0,0.0
330,82.25,66.9611,67.8507,116.201,105.542,109.8,0.0037039,0.444233,20.5037,109.836,-0.357817,0.0,0.0
340,84.75,67.3776,68.527,122.016,105.527,110.058,0.0035243,0.429138,20.5226,109.385,-0.380317,0.0,0.0
350,87.25,67.5503,69.1018,123.641,105.539,109.504,0.00352986,0.415656,20.5397,109.095,-0.33356,0.0,0.0
360,89.75,67.3588,69.3872,119.021,105.536,109.736,0.00351347,0.403707,20.5527,108.695,-0.353028,0.0,0.0
370,92.25,66.4663,69.2787,123.835,105.537,109.748,0.00338808,0.395279,20.5635,108.414,-0.353953,0.0,0.0
380,94.75,66.5742,69.8767,118.516,105.536,110.188,0.00325442,0.384684,20.5776,108.014,-0.390195,0.0,0.0
390,97.25,66.2013,69.6715,121.884,105.537,109.856,0.00317742,0.374609,20.5897,107.714,-0.36282,0.0,0.0
400,99.75,66.2969,69.6143,118.882,105.538,109.637,0.00314068,0.365729,20.5989,107.343,-0.344669,0.0,0.0
410,102.25,66.032,69.3216,118.178,105.536,111.5,0.00307797,0.35867,20.6073,107.023,-0.497304,0.0,0.0
420,104.75,65.843,69.4658,124.494,105.54,110.751,0.00294307,0.352404,20.6149,106.683,-0.435939,0.0,0.0
430,107.25,65.7993,69.6103,121.076,105.519,110.089,0.00282202,0.344801,20.6249,106.323,-0.383494,0.0,0.0
440,109.75,65.3689,69.4634,120.853,105.546,110.621,0.00284561,0.338867,20.6314,106.062,-0.424777,0.0,0.0
450,112.25,64.8029,69.3057,123.578,105.516,110.027,0.00294182,0.334288,20.6373,105.712,-0.378656,0.0,0.0
460,114.75,64.8096,69.3964,120.683,105.523,111.034,0.00292306,0.330961,20.6433,105.452,-0.460413,0.0,0.0
470,117.25,64.6435,69.0162,120.985,105.509,110.71,0.00286127,0.327456,20.6479,105.061,-0.435272,0.0,0.0
480,119.75,64.1821,68.5654,121.47,105.504,109.903,0.002956,0.323573,20.6531,104.831,-0.369482,0.0,0.0
490,122.25,64.3915,68.9406,121.45,105.472,110.096,0.00299637,0.320723,20.6578,104.461,-0.388129,0.0,0.0
500,124.75,63.4104,68.5536,121.774,105.479,109.978,0.00276878,0.319767,20.6602,104.151,-0.377862,0.0,0.0
510,127.25,63.2056,68.5812,123.124,105.448,109.723,0.00258551,0.318708,20.6624,103.81,-0.359493,0.0,0.0
520,129.75,63.5339,68.1898,123.926,105.437,109.432,0.00255622,0.316493,20.6648,103.53,-0.336442,0.0,0.0
530,132.25,63.4183,68.3472,124.214,105.413,111.006,0.00248359,0.315651,20.6669,103.19,-0.467633,0.0,0.0
540,134.75,62.4957,67.7462,122.127,105.384,110.39,0.00242045,0.314012,20.6687,102.93,-0.419784,0.0,0.0
550,137.25,62.7788,67.7614,122.821,105.349,110.078,0.00250576,0.313088,20.67,102.589,-0.397192,0.0,0.0
560,139.75,61.9441,67.4538,126.19,105.304,110.403,0.00259993,0.311251,20.6702,102.329,-0.427713,0.0,0.0
570,142.25,62.2912,67.5303,121.468,105.284,110.356,0.00264508,0.314016,20.6674,102.029,-0.425603,0.0,0.0
580,144.75,62.5745,67.6149,125.256,105.251,111.183,0.00270696,0.314685,20.666,101.648,-0.495945,0.0,0.0
590,147.25,61.8784,67.3101,123.145,105.216,109.839,0.00279118,0.312674,20.6688,101.448,-0.388898,0.0,0.0
600,149.75,62.4595,67.6249,122.073,105.149,110.27,0.00278393,0.310531,20.672,101.058,-0.430201,0.0,0.0
610,152.25,62.0625,66.9892,127.723,105.136,110.164,0.00269863,0.309477,20.6731,100.798,-0.422574,0.0,0.0
620,154.75,62.025,67.0355,124.877,105.066,109.588,0.00269481,0.310557,20.6735,100.497,-0.381185,0.0,0.0
630,157.25,61.783,67.0803,123.936,105.064,109.377,0.00267811,0.311389,20.6736,100.257,-0.363932,0.0,0.0
640,159.75,61.4576,66.5423,122.234,105.034,110.174,0.00268214,0.312118,20.6736,99.8669,-0.432148,0.0,0.0
650,162.25,61.7576,66.839,127.93,105.038,108.87,0.00274335,0.31272,20.6737,99.6367,-0.324107,0.0,0.0
660,164.75,61.3392,66.5875,127.612,105.033,108.905,0.00278737,0.313212,20.6737,99.2364,-0.327449,0.0,0.0
670,167.25,61.8875,66.9363,127.459,105.023,110.502,0.0028466,0.312574,20.6737,99.0162,-0.459938,0.0,0.0
680,169.75,61.3644,66.1908,123.585,105.031,111.085,0.00278289,0.314343,20.6732,98.736,-0.506891,0.0,0.0
690,172.25,61.0941,66.05,123.752,105.018,109.282,0.00261543,0.315174,20.6729,98.4958,-0.360002,0.0,0.0
700,174.75,61.114,66.3818,122.474,105.015,109.535,0.00252272,0.314299,20.673,98.1254,-0.381205,0.0,0.0
710,177.25,61.4393,66.3873,121.777,105.014,108.777,0.00255065,0.313928,20.6755,97.8252,-0.318518,0.0,0.0
720,179.75,61.5889,66.4329,121.945,105.041,109.318,0.00254535,0.31058,20.6794,97.5049,-0.360968,0.0,0.0
730,182.25,61.0466,66.0804,123.224,105.051,109.65,0.00252496,0.310446,20.6794,97.1346,-0.387605,0.0,0.0
740,184.75,60.4195,65.7295,127.465,105.099,109.776,0.00252121,0.313713,20.6754,96.9344,-0.393825,0.0,0.0
750,187.25,61.0805,66.0721,129.894,105.114,110.22,0.00250942,0.315476,20.6736,96.5641,-0.429019,0.0,0.0
760,189.75,61.1314,65.6969,121.321,105.152,109.282,0.0025514,0.314936,20.675,96.2938,-0.34847,0.0,0.0
770,192.25,61.1837,65.7625,125.277,105.163,110.57,0.00264568,0.313791,20.6765,96.0136,-0.453461,0.0,0.0
780,194.75,60.4041,65.5644,123.167,105.215,109.743,0.00271517,0.314961,20.6765,95.7534,-0.381103,0.0,0.0
790,197.25,60.8877,65.7578,122.604,105.232,110.021,0.00290076,0.317574,20.6749,95.333,-0.402503,0.0,0.0
800,199.75,60.882,65.7488,120.452,105.275,109.174,0.00300565,0.317201,20.6734,95.1328,-0.329022,0.0,0.0
810,202.25,60.6993,65.486,124.075,105.307,110.047,0.00291841,0.318897,20.6717,94.8225,-0.398294,0.0,0.0
820,204.75,60.729,65.5505,126.625,105.355,109.581,0.00279777,0.319799,20.6712,94.5923,-0.355752,0.0,0.0
830,207.25,60.6016,65.0399,123.003,105.378,110.699,0.00261425,0.319384,20.6721,94.212,-0.4456,0.0,0.0
840,209.75,60.8718,65.5714,122.024,105.395,109.515,0.00262117,0.318051,20.6725,93.9218,-0.346844,0.0,0.0
850,212.25,61.0826,65.4237,124.43,105.413,108.513,0.00271126,0.319202,20.6708,93.6916,-0.262229,0.0,0.0
860,214.75,61.1494,65.3581,126.84,105.429,109.691,0.00275359,0.320882,20.669,93.2412,-0.358475,0.0,0.0
870,217.25,60.3869,65.0093,119.354,105.449,110.7,0.00279087,0.321847,20.6679,93.081,-0.43962,0.0,0.0
880,219.75,60.651,65.3655,121.437,105.466,109.734,0.00295107,0.323893,20.6659,92.6507,-0.35889,0.0,0.0
890,222.25,60.925,65.5144,118.971,105.476,110.443,0.00304006,0.325539,20.6631,92.5305,-0.416231,0.0,0.0
900,224.75,61.0436,65.6887,123.462,105.458,109.648,0.00302346,0.327806,20.661,92.1302,-0.352362,0.0,0.0
910,227.25,60.9452,65.5257,122.169,105.487,110.358,0.00300999,0.329623,20.6596,91.94,-0.408379,0.0,0.0
920,229.75,61.6541,65.4787,119.134,105.471,108.43,0.00313696,0.330789,20.6591,91.5997,-0.250273,0.0,0.0
930,232.25,61.1736,65.4088,124.536,105.493,109.589,0.00308946,0.330839,20.6577,91.3295,-0.34455,0.0,0.0
940,234.75,61.1475,65.6894,127.505,105.473,108.962,0.00293552,0.331365,20.657,90.9692,-0.294395,0.0,0.0
950,237.25,61.1531,65.5451,120.609,105.491,109.988,0.00302851,0.332785,20.6558,90.779,-0.377579,0.0,0.0
960,239.75,60.9392,65.1039,125.209,105.473,108.746,0.00330868,0.334864,20.6516,90.4187,-0.276433,0.0,0.0
970,242.25,61.3919,65.7632,120.27,105.482,109.063,0.00352741,0.337832,20.6469,90.0984,-0.301982,0.0,0.0
980,244.75,61.0133,65.3041,122.96,105.48,107.902,0.00342421,0.341154,20.6424,89.7882,-0.205379,0.0,0.0
990,247.25,61.351,65.652,123.607,105.471,109.508,0.0033228,0.346687,20.6363,89.4979,-0.339779,0.0,0.0
1000,249.75,61.3489,65.5221,121.386,105.489,108.977,0.00330599,0.350026,20.6323,89.2877,-0.294253,0.0,0.0
1010,252.25,61.3894,65.9397,121.681,105.475,108.289,0.00327069,0.352914,20.6287,88.9775,-0.23817,0.0,0.0
1020,254.75,62.2311,66.1842,123.67,105.498,109.002,0.00322862,0.355108,20.626,88.6171,-0.29554,0.0,0.0
1030,257.25,62.1138,66.2917,119.846,105.475,109.188,0.00328874,0.357296,20.6238,88.1667,-0.312945,0.0,0.0
1040,259.75,62.2409,66.5273,123.23,105.494,108.287,0.00337832,0.359436,20.619,87.9766,-0.236344,0.0,0.0
1050,262.25,62.7334,66.4786,120.724,105.482,107.886,0.00334265,0.36508,20.6142,87.5963,-0.20391,0.0,0.0
1060,264.75,62.4254,66.4194,120.979,105.499,109.101,0.00331736,0.370535,20.6076,87.306,-0.303663,0.0,0.0
1070,267.25,63.0218,67.0164,124.666,105.486,109.114,0.00346156,0.376404,20.601,86.9457,-0.305904,0.0,0.0
1080,269.75,63.2822,66.7715,119.246,105.492,109.373,0.00363263,0.380789,20.5956,86.7455,-0.326839,0.0,0.0
1090,272.25,63.1749,66.965,121.114,105.461,108.624,0.00365021,0.385624,20.5881,86.3552,-0.267329,0.0,0.0
1100,274.75,63.4987,67.4412,119.799,105.474,108.415,0.00354539,0.389388,20.5817,86.0349,-0.248812,0.0,0.0
1110,277.25,64.2201,68.1354,117.739,105.44,108.529,0.00350459,0.394317,20.5752,85.6646,-0.261192,0.0,0.0
1120,279.75,63.9315,68.06,122.035,105.416,109.477,0.00362157,0.401616,20.5666,85.4244,-0.341912,0.0,0.0
1130,282.25,64.4052,68.5506,120.342,105.373,107.957,0.00383035,0.406423,20.5609,85.0941,-0.219087,0.0,0.0
1140,284.75,64.662,68.6621,122.429,105.317,108.695,0.00399093,0.410951,20.5577,84.6837,-0.285595,0.0,0.0
1150,287.25,65.6378,68.9516,119.319,105.246,107.896,0.00400446,0.417046,20.5491,84.4035,-0.224937,0.0,0.0
1160,289.75,65.7381,69.36,119.651,105.161,107.425,0.00409685,0.424517,20.5414,83.9531,-0.192716,0.0,0.0
1170,292.25,65.6988,69.3557,118.722,105.082,107.221,0.00421808,0.432956,20.5303,83.6428,-0.182286,0.0,0.0
1180,294.75,65.8271,69.8934,119.204,104.978,106.725,0.00426491,0.444702,20.5152,83.2325,-0.149293,0.0,0.0
1190,297.25,66.5707,70.5044,119.607,104.892,108.271,0.00436607,0.453129,20.5063,82.9122,-0.286773,0.0,0.0
1200,299.75,66.772,70.7391,120.179,104.778,106.131,0.00454038,0.462549,20.4963,82.4218,-0.116103,0.0,0.0
1210,302.25,67.8995,71.4404,118.579,104.696,106.332,0.00465863,0.470466,20.4851,82.1215,-0.140277,0.0,0.0
1220,304.75,67.9035,71.6364,116.198,104.592,105.642,0.00475595,0.479963,20.4747,81.6811,-0.0902772,0.0,0.0
1230,307.25,69.1558,72.4114,114.315,104.526,104.934,0.00495461,0.491028,20.4627,81.3508,-0.0352716,0.0,0.0
1240,309.75,69.6873,73.1846,119.739,104.424,106.799,0.00536097,0.501329,20.45,80.8304,-0.20344,0.0,0.0
1250,312.25,70.3585,73.5607,113.803,104.376,104.96,0.00569218,0.512331,20.4366,80.4901,-0.0503994,0.0,0.0
1260,314.75,70.7145,74.1687,117.134,104.312,105.864,0.00590664,0.526229,20.422,80.0397,-0.133586,0.0,0.0
1270,317.25,71.413,75.0282,114.225,104.275,104.606,0.00600841,0.53682,20.4073,79.5993,-0.0285992,0.0,0.0
1280,319.75,72.1135,75.274,114.966,104.236,104.779,0.006133,0.548992,20.3945,79.1289,-0.047057,0.0,0.0
1290,322.25,72.6776,75.9978,114.623,104.202,104.103,0.00640525,0.561741,20.3773,78.6585,0.00861802,0.0,0.0
1300,324.75,73.4142,76.4865,113.258,104.152,103.349,0.00667631,0.574865,20.3614,78.2181,0.0700476,0.0,0.0
1310,327.25,74.2833,77.1399,113.669,104.121,105.003,0.00689837,0.588636,20.3454,77.6976,-0.0763178,0.0,0.0
1320,329.75,74.5754,77.9246,110.711,104.097,103.79,0.00700369,0.598708,20.3333,77.3173,0.0267928,0.0,0.0
1330,332.25,75.4917,78.6752,118.753,104.064,100.931,0.00720579,0.610145,20.3222,76.7368,0.276464,0.0,0.0
1340,334.75,76.3825,79.456,118.251,104.054,102.087,0.00731232,0.618116,20.3133,76.3064,0.172609,0.0,0.0
1350,337.25,76.6361,79.7288,113.588,104.026,105.114,0.00721425,0.631023,20.2945,75.7259,-0.0940943,0.0,0.0
1360,339.75,78.1164,81.1564,114.183,104.03,102.466,0.00713699,0.642505,20.2826,75.3056,0.137016,0.0,0.0
1370,342.25,78.0011,81.2611,111.849,104.009,101.352,0.00717988,0.650189,20.2738,74.7451,0.234067,0.0,0.0
1380,344.75,78.9666,82.2225,118.783,104.01,102.957,0.00740058,0.656622,20.2631,74.3247,0.092055,0.0,0.0
1390,347.25,79.6136,83.1733,112.392,103.986,102.25,0.00771432,0.666478,20.2504,73.7142,0.152295,0.0,0.0
1400,349.75,79.9413,83.5849,112.464,103.986,101.244,0.00788635,0.677976,20.2362,73.2838,0.241736,0.0,0.0
1410,352.25,80.8423,84.3981,109.767,103.973,102.53,0.00807349,0.693932,20.2139,72.7533,0.126463,0.0,0.0
1420,354.75,81.5678,84.8951,109.075,103.972,101.119,0.00828548,0.709276,20.1983,72.1928,0.251681,0.0,0.0
1430,357.25,82.3988,85.8338,111.587,103.965,100.427,0.008266,0.720955,20.1805,71.6624,0.31322,0.0,0.0
1440,359.75,83.2231,86.9344,107.8,103.942,100.54,0.00804804,0.733349,20.1624,71.0719,0.301003,0.0,0.0
1450,362.25,83.8352,87.5192,110.525,103.93,98.5814,0.00801836,0.741712,20.1488,70.5814,0.477925,0.0,0.0
1460,364.75,84.8054,88.5605,114.79,103.925,99.7165,0.00828311,0.74084,20.1474,69.9509,0.373966,0.0,0.0
1470,367.25,84.8543,88.8635,110.191,103.915,97.5102,0.0083646,0.734936,20.1527,69.4705,0.575471,0.0,0.0
1480,369.75,85.2897,89.7724,116.453,103.899,99.9699,0.00809589,0.722367,20.1677,68.93,0.348729,0.0,0.0
1490,372.25,85.3395,89.3626,116.623,103.904,98.2689,0.00774599,0.698778,20.1945,68.5297,0.50433,0.0,0.0
1500,374.75,85.3774,89.8221,116.622,103.883,98.2778,0.00767771,0.672433,20.2192,67.9892,0.501749,0.0,0.0
1510,377.25,85.0285,89.9004,118.413,103.899,99.4473,0.00777002,0.64269,20.2468,67.6389,0.396139,0.0,0.0
1520,379.75,84.8389,89.9469,113.426,103.88,98.2573,0.00753764,0.620553,20.2753,67.1284,0.503341,0.0,0.0
1530,382.25,84.7028,89.78,113.806,103.887,98.5414,0.0068381,0.606687,20.2924,66.7781,0.477812,0.0,0.0
1540,384.75,84.2822,89.7701,114.98,103.876,100.042,0.00620087,0.586038,20.3195,66.3978,0.340212,0.0,0.0
1550,387.25,83.8213,89.2307,118.419,103.872,100.753,0.00574542,0.555562,20.3551,66.1076,0.275771,0.0,0.0
1560,389.75,83.5387,89.2635,117.045,103.871,100.832,0.00513444,0.523945,20.3951,65.7472,0.268587,0.0,0.0
1570,392.25,82.8089,89.279,119.821,103.871,103.277,0.00457182,0.488337,20.4419,65.447,0.0518524,0.0,0.0
1580,394.75,82.0678,88.3095,120.974,103.87,103.833,0.00401503,0.44809,20.4867,65.1968,0.00320092,0.0,0.0
1590,397.25,81.0519,87.884,122.019,103.865,105.256,0.00359062,0.409208,20.5335,64.9165,-0.120359,0.0,0.0
1600,399.75,79.7335,86.551,122.642,103.88,106.166,0.00338422,0.365339,20.5862,64.7764,-0.196908,0.0,0.0
1610,402.25,78.9804,85.8897,122.283,103.871,106.398,0.00319409,0.321562,20.6333,64.5362,-0.217462,0.0,0.0
1620,404.75,77.0837,85.057,128.156,103.892,106.822,0.00296502,0.280861,20.6873,64.4861,-0.251583,0.0,0.0
1630,407.25,75.8602,83.5187,125.171,103.895,107.854,0.0026775,0.244131,20.7352,64.276,-0.338266,0.0,0.0
1640,409.75,74.6085,81.8719,127.266,103.907,108.932,0.00242869,0.215491,20.7694,64.276,-0.42718,0.0,0.0
1650,412.25,72.9088,80.8248,127.367,103.914,107.141,0.00226736,0.19375,20.8002,64.1258,-0.276646,0.0,0.0
1660,414.75,70.6166,79.2782,129.01,103.928,108.351,0.00228618,0.173576,20.8233,64.1158,-0.377019,0.0,0.0
1670,417.25,68.7282,76.7633,129.785,103.925,108.201,0.00232132,0.158674,20.8402,63.9557,-0.364745,0.0,0.0
1680,419.75,67.9029,76.2775,130.242,103.95,108.006,0.00224178,0.145986,20.8565,63.9957,-0.346246,0.0,0.0
1690,422.25,66.3162,74.9161,133.556,103.915,108.703,0.00224517,0.137246,20.8677,63.8556,-0.407394,0.0,0.0
1700,424.75,65.2112,73.7351,134.964,103.946,108.397,0.00229826,0.130848,20.8756,63.8356,-0.379247,0.0,0.0
1710,427.25,63.9405,71.9505,135.463,103.929,107.686,0.00232729,0.126029,20.8825,63.7655,-0.321173,0.0,0.0
1720,429.75,62.6893,70.7459,130.935,103.923,107.844,0.00241473,0.12208,20.8876,63.7455,-0.335017,0.0,0.0
1730,432.25,61.2573,69.9293,130.528,103.907,107.758,0.00249456,0.119255,20.8919,63.6854,-0.329187,0.0,0.0
1740,434.75,60.1343,68.7612,129.326,103.892,107.732,0.00262659,0.117036,20.8954,63.6054,-0.328322,0.0,0.0
1750,437.25,59.453,67.7821,137.567,103.904,107.387,0.0028156,0.115668,20.8975,63.6254,-0.29823,0.0,0.0
1760,439.75,58.7255,66.3225,132.822,103.865,107.364,0.00297953,0.114861,20.8997,63.4853,-0.299728,0.0,0.0
1770,442.25,57.3304,64.9705,131.039,103.873,107.609,0.00304545,0.113814,20.9009,63.5253,-0.319646,0.0,0.0
1780,444.75,56.9285,64.4701,128.641,103.839,108.948,0.00314568,0.111942,20.9026,63.4052,-0.434496,0.0,0.0
1790,447.25,55.7437,63.3136,129.959,103.852,106.793,0.00331913,0.110678,20.9042,63.4452,-0.252631,0.0,0.0
1800,449.75,55.2817,62.4621,128.237,103.805,107.335,0.00346524,0.109998,20.9058,63.3351,-0.302523,0.0,0.0
1810,452.25,54.7127,62.0795,130.414,103.82,106.971,0.00355988,0.109588,20.9067,63.3552,-0.27049,0.0,0.0
1820,454.75,53.7215,60.8521,129.824,103.771,107.631,0.00347498,0.109015,20.9082,63.2451,-0.330361,0.0,0.0
1830,457.25,53.4351,60.4259,134.219,103.763,107.601,0.00336626,0.108428,20.909,63.3151,-0.328554,0.0,0.0
1840,459.75,53.3071,59.5565,131.954,103.741,107.419,0.00344233,0.108357,20.9093,63.195,-0.315151,0.0,0.0
1850,462.25,52.5588,59.3322,130.239,103.702,107.592,0.00345037,0.108142,20.9105,63.2351,-0.333118,0.0,0.0
1860,464.75,52.2149,58.4388,126.199,103.665,106.444,0.00341566,0.107167,20.9112,63.125,-0.239323,0.0,0.0
1870,467.25,51.587,58.0328,133.574,103.638,106.182,0.00338786,0.106513,20.9116,63.165,-0.219372,0.0,0.0
1880,469.75,51.2744,57.3529,129.051,103.61,107.23,0.00346017,0.106661,20.9116,63.0849,-0.310681,0.0,0.0
1890,472.25,50.6769,56.4754,135.401,103.556,107.25,0.00361289,0.106781,20.9117,63.0249,-0.317095,0.0,0.0
1900,474.75,50.6227,55.9584,128.513,103.524,106.387,0.00366032,0.106316,20.9128,63.0449,-0.246777,0.0,0.0
1910,477.25,49.8662,55.1097,129.678,103.495,105.778,0.00363103,0.105241,20.9132,62.9248,-0.197382,0.0,0.0
1920,479.75,49.3962,54.7969,131.166,103.48,106.203,0.00350164,0.104909,20.9137,63.0048,-0.234925,0.0,0.0
1930,482.25,49.3378,53.9502,131.938,103.449,107.822,0.00350697,0.10521,20.914,62.8647,-0.374513,0.0,0.0
1940,484.75,49.0875,53.7281,131.836,103.45,105.66,0.00357935,0.10554,20.9142,62.9248,-0.191177,0.0,0.0
1950,487.25,48.6307,52.8977,132.002,103.439,106.538,0.0036627,0.105728,20.9142,62.7847,-0.266949,0.0,0.0
1960,489.75,47.8808,52.4142,131.989,103.442,106.436,0.00385805,0.10586,20.9139,62.8547,-0.258141,0.0,0.0
1970,492.25,47.7555,52.5062,130.907,103.456,107.086,0.00406002,0.106135,20.9136,62.7446,-0.311973,0.0,0.0
1980,494.75,47.6761,51.9339,132.133,103.49,106.163,0.00412804,0.105629,20.9145,62.8047,-0.230665,0.0,0.0
1990,497.25,48.2807,51.4682,132.119,103.517,106.307,0.00424702,0.104751,20.915,62.6946,-0.240592,0.0,0.0
2000,499.75,47.1831,51.4831,133.646,103.57,106.365,0.00432742,0.10463,20.9152,62.7546,-0.240893,0.0,0.0
2010,502.25,47.7817,51.8551,131.999,103.614,107.011,0.00426031,0.104565,20.9168,62.6545,-0.29175,0.0,0.0
2020,504.75,46.8109,50.8472,132.895,103.675,106.116,0.00428778,0.104805,20.9168,62.6946,-0.210527,0.0,0.0
2030,507.25,47.7164,50.3098,134.445,103.74,107.506,0.00452136,0.105146,20.9164,62.6345,-0.322517,0.0,0.0
2040,509.75,46.8488,50.0688,130.402,103.789,107.697,0.0047517,0.105739,20.9163,62.5444,-0.334409,0.0,0.0
2050,512.25,46.3331,49.9338,130.225,103.859,107.071,0.00488268,0.106811,20.9157,62.5645,-0.27549,0.0,0.0
2060,514.75,46.6965,49.7913,132.442,103.911,106.429,0.00511661,0.106744,20.9155,62.4444,-0.216539,0.0,0.0
2070,517.25,46.2714,48.7503,129.559,103.993,108.029,0.00527851,0.106338,20.9161,62.5244,-0.344406,0.0,0.0
2080,519.75,46.2778,49.0698,129.888,104.054,108.281,0.00531434,0.105756,20.9167,62.3943,-0.360152,0.0,0.0
2090,522.25,45.5047,48.5294,129.952,104.14,106.941,0.00530881,0.10536,20.918,62.4444,-0.240021,0.0,0.0
2100,524.75,45.871,48.5676,131.185,104.196,107.081,0.0051477,0.104626,20.9201,62.3543,-0.247027,0.0,0.0
2110,527.25,45.0897,47.3646,133.568,104.268,107.183,0.00500524,0.103748,20.9211,62.4043,-0.249367,0.0,0.0
2120,529.75,44.9991,48.0412,135.188,104.307,108.091,0.00513827,0.103648,20.9214,62.3042,-0.322397,0.0,0.0
2130,532.25,44.9626,47.5972,140.306,104.363,107.996,0.00531958,0.104559,20.9215,62.3643,-0.309568,0.0,0.0
2140,534.75,44.8874,47.2219,133.056,104.403,107.042,0.00540738,0.104969,20.9204,62.2442,-0.2258,0.0,0.0
2150,537.25,45.0859,47.1637,132.764,104.452,106.832,0.00535031,0.105888,20.9184,62.3042,-0.203825,0.0,0.0
2160,539.75,44.7688,47.1571,135.56,104.498,109.083,0.00541574,0.107915,20.9165,62.2342,-0.388412,0.0,0.0
2170,542.25,45.0215,46.819,130.669,104.542,107.382,0.00563832,0.109672,20.9149,62.2142,-0.242408,0.0,0.0
2180,544.75,44.6784,46.6797,132.471,104.581,108.118,0.00560137,0.109877,20.9143,62.2142,-0.300899,0.0,0.0
2190,547.25,44.4385,46.21,133.077,104.606,107.374,0.00544491,0.108008,20.9167,62.1141,-0.23626,0.0,0.0
2200,549.75,44.2659,46.3908,131.758,104.643,108.342,0.00538298,0.105792,20.9191,62.1741,-0.314251,0.0,0.0
2210,552.25,43.939,45.5535,132.49,104.672,107.499,0.0054568,0.104408,20.9203,62.054,-0.241109,0.0,0.0
2220,554.75,44.0422,45.7294,130.132,104.713,108.062,0.00558175,0.103423,20.9221,62.1141,-0.284787,0.0,0.0
2230,557.25,43.8478,45.8025,130.173,104.733,107.86,0.00568957,0.10284,20.9229,61.994,-0.266138,0.0,0.0
2240,559.75,44.0997,45.8554,132.663,104.752,107.465,0.00582179,0.102343,20.9231,62.044,-0.231308,0.0,0.0
2250,562.25,43.5452,45.279,134.305,104.759,108.404,0.00598766,0.102147,20.9232,61.9339,-0.309381,0.0,0.0
2260,564.75,43.9002,45.4913,135.872,104.786,108.099,0.00610087,0.102185,20.9232,61.994,-0.28159,0.0,0.0
2270,567.25,43.8394,45.337,132.235,104.785,107.25,0.00603399,0.102768,20.9239,61.8839,-0.210335,0.0,0.0
2280,569.75,43.8267,44.8293,134.586,104.816,107.778,0.00598566,0.102579,20.925,61.9739,-0.252108,0.0,0.0
2290,572.25,43.4447,44.9277,132.29,104.813,108.343,0.00603362,0.102001,20.9254,61.8338,-0.299581,0.0,0.0
2300,574.75,43.2342,44.5004,132.44,104.814,108.137,0.00607628,0.101688,20.9258,61.9039,-0.282302,0.0,0.0
2310,577.25,43.3927,44.9353,135.009,104.817,107.759,0.00615902,0.10158,20.9262,61.8238,-0.250433,0.0,0.0
2320,579.75,43.1599,45.3597,132.438,104.821,108.602,0.00628483,0.101892,20.9263,61.8438,-0.320556,0.0,0.0
2330,582.25,43.1243,44.7179,134.409,104.804,107.914,0.00662287,0.102149,20.9258,61.8138,-0.264535,0.0,0.0
2340,584.75,43.0605,44.6435,133.867,104.801,107.969,0.00687925,0.103525,20.9245,61.7237,-0.269359,0.0,0.0
2350,587.25,42.9942,44.1207,133.867,104.794,107.769,0.00684543,0.10497,20.9228,61.7738,-0.253221,0.0,0.0
2360,589.75,43.3822,44.6407,135.424,104.765,107.997,0.00682177,0.10518,20.922,61.6537,-0.274801,0.0,0.0
2370,592.25,42.6582,43.8149,132.175,104.767,107.486,0.00693475,0.105228,20.9217,61.6937,-0.231798,0.0,0.0
2380,594.75,43.006,44.0656,134.493,104.73,108.502,0.00698996,0.106004,20.9219,61.5836,-0.32002,0.0,0.0
2390,597.25,42.747,44.0078,132.99,104.728,107.866,0.00687135,0.106005,20.9223,61.7037,-0.267042,0.0,0.0
2400,599.75,42.7495,43.6265,132.153,104.701,107.853,0.0068129,0.10584,20.9232,61.5736,-0.26829,0.0,0.0
2410,602.25,42.6135,43.693,132.233,104.689,107.801,0.0070043,0.104612,20.9242,61.6036,-0.264971,0.0,0.0
2420,604.75,42.1038,43.9204,131.359,104.657,108.512,0.00724383,0.103829,20.9244,61.5236,-0.32723,0.0,0.0
2430,607.25,42.0389,43.1471,131.584,104.626,107.389,0.00734908,0.10355,20.9241,61.5536,-0.235723,0.0,0.0
2440,609.75,42.4461,43.6045,134.002,104.618,107.264,0.00720648,0.103546,20.9234,61.4535,-0.225897,0.0,0.0
2450,612.25,42.3534,43.3855,130.978,104.6,107.839,0.00701954,0.103326,20.9229,61.5135,-0.275771,0.0,0.0
2460,614.75,42.5059,43.3294,135.679,104.585,107.516,0.00706495,0.102881,20.9227,61.4235,-0.250047,0.0,0.0
2470,617.25,42.7422,43.8721,137.017,104.568,108.075,0.00714478,0.102545,20.924,61.4435,-0.29841,0.0,0.0
2480,619.75,42.2504,43.0621,132.929,104.555,107.07,0.0070533,0.102204,20.9246,61.4235,-0.214949,0.0,0.0
2490,622.25,41.9855,43.5389,133.09,104.524,106.423,0.00706898,0.101312,20.9254,61.3434,-0.162911,0.0,0.0
2500,624.75,42.6217,43.0938,132.63,104.512,107.209,0.00713959,0.100807,20.9266,61.3934,-0.230476,0.0,0.0
2510,627.25,41.9169,42.559,132.876,104.48,107.431,0.00716462,0.101104,20.9273,61.2733,-0.251941,0.0,0.0
2520,629.75,42.25,42.8831,134.194,104.469,107.947,0.00727732,0.101589,20.9264,61.3534,-0.296279,0.0,0.0
2530,632.25,41.5119,42.7098,130.419,104.449,107.762,0.00742803,0.102182,20.9261,61.2433,-0.282455,0.0,0.0
2540,634.75,41.4563,42.4623,135.592,104.412,107.221,0.00751005,0.102946,20.9248,61.3034,-0.240172,0.0,0.0
2550,637.25,42.0799,43.0035,135.431,104.381,106.793,0.00756062,0.103313,20.9242,61.1632,-0.20666,0.0,0.0
2560,639.75,41.7475,43.0391,135.16,104.362,106.63,0.00758057,0.103387,20.9235,61.2233,-0.194453,0.0,0.0
2570,642.25,42.0761,42.8165,134.803,104.333,107.335,0.00751024,0.103383,20.9232,61.1132,-0.256528,0.0,0.0
2580,644.75,42.087,43.0493,133.603,104.32,107.676,0.00759848,0.103078,20.9231,61.1933,-0.286427,0.0,0.0
2590,647.25,41.4717,42.3362,130.961,104.3,108.02,0.00780501,0.102756,20.9245,61.1032,-0.317018,0.0,0.0
2600,649.75,42.064,42.8714,134.024,104.301,107.749,0.00782804,0.102285,20.925,61.1532,-0.29418,0.0,0.0
2610,652.25,41.6272,42.9191,131.353,104.279,106.75,0.00770956,0.101792,20.9267,61.0431,-0.211861,0.0,0.0
2620,654.75,41.6797,42.7688,136.41,104.267,107.286,0.00770084,0.101547,20.9274,61.0832,-0.258163,0.0,0.0
2630,657.25,40.9975,41.9724,129.953,104.273,106.264,0.00776587,0.101528,20.9281,61.0532,-0.17108,0.0,0.0
2640,659.75,41.2869,42.0859,134.193,104.362,107.215,0.00772304,0.101136,20.9284,60.9731,-0.243982,0.0,0.0
2650,662.25,41.2393,42.3141,133.062,104.481,107.354,0.00763323,0.100887,20.9285,61.0231,-0.245358,0.0,0.0
2660,664.75,41.8494,42.7672,136.652,104.549,107.224,0.00763643,0.100249,20.9285,60.923,-0.228552,0.0,0.0
2670,667.25,41.2055,42.158,136.895,104.655,107.498,0.00774948,0.10078,20.9285,60.9731,-0.24249,0.0,0.0
2680,669.75,41.9205,42.1649,134.647,104.728,107.739,0.00780764,0.101753,20.9285,60.873,-0.256411,0.0,0.0
2690,672.25,41.0135,42.1911,133.963,104.832,107.579,0.00784527,0.101458,20.9285,60.933,-0.233938,0.0,0.0
2700,674.75,41.1814,41.6317,136.048,104.882,108.474,0.00798665,0.100904,20.9285,60.8129,-0.304594,0.0,0.0
2710,677.25,41.2342,42.3194,135.831,104.972,107.6,0.00814452,0.101107,20.9285,60.883,-0.223674,0.0,0.0
2720,679.75,40.9066,42.0561,131.398,105.034,107.959,0.00814242,0.101149,20.9289,60.7829,-0.248426,0.0,0.0
2730,682.25,41.1356,42.5458,129.413,105.109,107.964,0.0080802,0.100771,20.9279,60.8129,-0.242376,0.0,0.0
2740,684.75,41.1317,41.9159,132.2,105.138,108.777,0.00787187,0.100474,20.9281,60.6828,-0.307746,0.0,0.0
2750,687.25,41.1621,41.8911,136.336,105.165,107.889,0.00787707,0.0996388,20.9288,60.7829,-0.231328,0.0,0.0
2760,689.75,40.7067,41.2869,131.197,105.182,107.653,0.00821515,0.0990935,20.929,60.6928,-0.210054,0.0,0.0
2770,692.25,40.6566,42.0179,134.379,105.183,107.629,0.00840046,0.0995147,20.9291,60.6928,-0.207952,0.0,0.0
2780,694.75,40.7762,42.0854,138.045,105.183,108.085,0.00825027,0.0993779,20.9291,60.6828,-0.246153,0.0,0.0
2790,697.25,40.6249,41.8136,131.517,105.157,107.395,0.00804444,0.0988166,20.9301,60.5928,-0.190455,0.0,0.0
2800,699.75,40.7933,41.7269,132.747,105.137,108.857,0.00787543,0.0988785,20.931,60.6528,-0.314514,0.0,0.0
2810,702.25,40.7455,41.9163,137.707,105.077,107.488,0.00790446,0.0994137,20.9313,60.5627,-0.20521,0.0,0.0
2820,704.75,40.734,42.0866,134.467,105.035,108.008,0.00809663,0.0998917,20.93,60.6128,-0.252486,0.0,0.0
2830,707.25,40.666,41.4967,133.067,104.965,108.507,0.00817593,0.100482,20.9294,60.5627,-0.30021,0.0,0.0
2840,709.75,40.6118,41.8572,132.617,104.893,107.938,0.00806289,0.10111,20.9281,60.6028,-0.258796,0.0,0.0
2850,712.25,40.6222,41.5739,139.605,104.796,107.389,0.00800514,0.101399,20.9273,60.4626,-0.221085,0.0,0.0
2860,714.75,40.5352,42.0431,135.672,104.696,108.454,0.00808996,0.101175,20.927,60.5127,-0.319052,0.0,0.0
2870,717.25,40.7362,41.7565,133.889,104.643,108.298,0.00817005,0.101295,20.9269,60.4226,-0.310595,0.0,0.0
2880,719.75,40.857,41.9783,131.702,104.694,108.14,0.00814591,0.101699,20.9269,60.5027,-0.292902,0.0,0.0
2890,722.25,40.8459,41.5633,133.308,104.731,108.412,0.00816172,0.101517,20.9273,60.4026,-0.312452,0.0,0.0
2900,724.75,40.4128,41.7287,138.754,104.794,107.538,0.00829888,0.102179,20.9276,60.4526,-0.233737,0.0,0.0
2910,727.25,40.6052,41.6837,129.552,104.854,108.145,0.00828579,0.10267,20.9275,60.3826,-0.279539,0.0,0.0
2920,729.75,40.9095,41.8773,131.916,104.902,107.676,0.00805968,0.102356,20.9286,60.3625,-0.236067,0.0,0.0
2930,732.25,40.5095,41.7325,135.102,104.973,107.065,0.00792783,0.101561,20.9291,60.3525,-0.178542,0.0,0.0
2940,734.75,40.6396,41.5569,137.523,105.028,108.687,0.00787163,0.10124,20.929,60.2725,-0.30976,0.0,0.0
2950,737.25,40.3189,41.3887,133.564,105.097,108.228,0.00788877,0.100481,20.929,60.3525,-0.265605,0.0,0.0
2960,739.75,40.3936,41.4559,129.064,105.153,107.648,0.0080563,0.100282,20.929,60.2424,-0.212134,0.0,0.0
2970,742.25,40.2745,41.4442,131.118,105.226,107.556,0.00839096,0.100913,20.929,60.3025,-0.19817,0.0,0.0
2980,744.75,40.7507,41.5189,130.132,105.265,108.353,0.00859957,0.101412,20.9276,60.2124,-0.261529,0.0,0.0
2990,747.25,40.7026,41.7154,131.913,105.344,107.189,0.00866535,0.101855,20.927,60.2525,-0.157044,0.0,0.0
3000,749.75,40.5745,41.6307,137.673,105.387,107.602,0.00872169,0.102019,20.9277,60.1223,-0.188215,0.0,0.0
3010,752.25,40.4082,41.3347,132.41,105.437,107.824,0.00884867,0.101703,20.9295,60.1824,-0.202481,0.0,0.0
3020,754.75,39.9606,41.229,132.721,105.473,108.96,0.00913935,0.100871,20.9309,60.0923,-0.294202,0.0,0.0
3030,757.25,40.2477,41.0265,136.287,105.509,108.701,0.0093446,0.0999732,20.9327,60.1424,-0.269633,0.0,0.0
3040,759.75,40.6014,41.3772,136.82,105.527,107.683,0.00941527,0.0995934,20.9321,60.0523,-0.182953,0.0,0.0
3050,762.25,40.7357,41.5785,132.924,105.523,107.842,0.00956918,0.0995662,20.9316,60.1023,-0.196647,0.0,0.0
3060,764.75,39.8809,41.0554,130.436,105.512,108.734,0.00958459,0.100212,20.9311,60.0423,-0.272092,0.0,0.0
3070,767.25,40.5066,41.4061,129.582,105.503,108.462,0.00956091,0.0999226,20.9307,60.0623,-0.250197,0.0,0.0
3080,769.75,40.11,41.1008,132.678,105.473,107.156,0.0094723,0.0998174,20.9305,60.0423,-0.143194,0.0,0.0
3090,772.25,40.1372,41.6275,132.746,105.406,108.07,0.00928185,0.100599,20.93,59.9522,-0.225697,0.0,0.0
3100,774.75,40.4615,41.3016,132.572,105.362,108.404,0.00932536,0.100414,20.9294,59.9922,-0.257454,0.0,0.0
3110,777.25,40.5005,41.3897,130.561,105.291,107.965,0.0095273,0.100431,20.9293,59.8721,-0.226792,0.0,0.0
3120,779.75,39.8744,40.9551,134.032,105.234,107.962,0.00949737,0.100462,20.928,59.9322,-0.231532,0.0,0.0
3130,782.25,40.3375,41.1329,133.474,105.136,107.966,0.0094765,0.100349,20.9272,59.8221,-0.240316,0.0,0.0
3140,784.75,40.3196,41.5073,134.161,105.066,108.678,0.00955248,0.100153,20.9278,59.8921,-0.305711,0.0,0.0
3150,787.25,40.1613,40.903,131.974,104.97,107.981,0.00959204,0.100059,20.9287,59.782,-0.25583,0.0,0.0
3160,789.75,40.4331,41.4521,133.785,104.896,107.562,0.00964016,0.0998734,20.9296,59.8221,-0.227062,0.0,0.0
3170,792.25,40.5207,41.3623,136.383,104.794,107.398,0.00955352,0.098971,20.9308,59.732,-0.222089,0.0,0.0
3180,794.75,40.2661,41.2599,131.474,104.71,106.719,0.00944287,0.0984718,20.9314,59.8121,-0.171898,0.0,0.0
3190,797.25,40.2685,41.0563,135.084,104.603,106.573,0.00950805,0.0983098,20.9318,59.712,-0.168775,0.0,0.0
3200,799.75,39.7706,40.6692,137.372,104.492,107.574,0.00954862,0.0980243,20.932,59.752,-0.262989,0.0,0.0
3210,802.25,39.7913,41.0899,135.105,104.403,106.792,0.00967521,0.0989712,20.9306,59.692,-0.20468,0.0,0.0
3220,804.75,40.1042,41.0382,131.894,104.291,107.277,0.00984458,0.0999124,20.9301,59.682,-0.255324,0.0,0.0
3230,807.25,39.7109,40.796,133.192,104.197,106.083,0.00995911,0.0994699,20.9299,59.6619,-0.162282,0.0,0.0
3240,809.75,39.7086,41.0383,132.174,104.065,106.346,0.00996596,0.0992718,20.9298,59.5819,-0.196071,0.0,0.0
3250,812.25,39.7358,40.7791,133.012,103.99,106.05,0.00989908,0.0989764,20.9308,59.6119,-0.177461,0.0,0.0
3260,814.75,39.796,40.984,133.719,103.874,105.483,0.00971728,0.0988168,20.9316,59.5218,-0.138982,0.0,0.0
3270,817.25,39.5557,40.899,133.85,103.806,106.63,0.00959057,0.0989519,20.9324,59.6119,-0.242789,0.0,0.0
3280,819.75,39.6322,40.7204,132.783,103.723,106.506,0.00956687,0.0988205,20.9331,59.5318,-0.239495,0.0,0.0
3290,822.25,39.7259,40.5245,135.84,103.66,106.219,0.0095288,0.0984533,20.9333,59.5618,-0.220585,0.0,0.0
3300,824.75,40.0941,40.6522,135.255,103.586,105.496,0.00954589,0.0979658,20.9334,59.4417,-0.165276,0.0,0.0
3310,827.25,39.8906,40.8234,133.155,103.545,105.46,0.00958703,0.0984245,20.9326,59.5018,-0.165818,0.0,0.0
3320,829.75,39.4866,40.6687,133.749,103.503,105.064,0.0095398,0.0985614,20.9316,59.4117,-0.135416,0.0,0.0
3330,832.25,39.127,40.9943,134.007,103.498,106.128,0.00964362,0.0984262,20.9313,59.5018,-0.226987,0.0,0.0
3340,834.75,39.4682,40.5101,134.761,103.48,106.954,0.00981275,0.0985817,20.9312,59.4017,-0.298684,0.0,0.0
3350,837.25,39.314,41.0888,134.413,103.47,107.617,0.00984896,0.0981714,20.931,59.4417,-0.355457,0.0,0.0
3360,839.75,39.8142,40.586,130.777,103.464,106.832,0.00986308,0.0982677,20.9305,59.3717,-0.289727,0.0,0.0
3370,842.25,40.1602,40.7228,135.687,103.493,106.01,0.00972418,0.0984709,20.9309,59.3717,-0.217417,0.0,0.0
3380,844.75,39.9448,40.6478,134.354,103.531,107.14,0.00955402,0.098274,20.9318,59.3917,-0.309998,0.0,0.0
3390,847.25,39.6714,40.576,133.102,103.55,106.385,0.00953568,0.0978889,20.9329,59.2916,-0.244331,0.0,0.0
3400,849.75,39.3965,40.7894,133.801,103.597,106.229,0.00953922,0.0976703,20.9332,59.3417,-0.226957,0.0,0.0
3410,852.25,39.4996,40.6743,132.139,103.631,105.909,0.00959479,0.0971268,20.9333,59.2316,-0.196682,0.0,0.0
3420,854.75,38.8877,39.9914,132.428,103.674,106.016,0.00971918,0.097057,20.9334,59.2516,-0.202024,0.0,0.0
3430,857.25,39.7055,40.9352,131.407,103.699,106.868,0.0100103,0.097734,20.9326,59.1915,-0.272356,0.0,0.0
3440,859.75,39.4392,40.5827,136.322,103.748,106.201,0.0101998,0.0986631,20.9316,59.2516,-0.211376,0.0,0.0
3450,862.25,39.6167,40.6242,131.344,103.766,106.358,0.0101593,0.0988571,20.9313,59.1615,-0.223224,0.0,0.0
3460,864.75,39.6692,40.5125,137.648,103.825,106.867,0.00981168,0.0985694,20.9312,59.2516,-0.261224,0.0,0.0
3470,867.25,39.3442,40.5487,136.008,103.833,106.577,0.00964857,0.0984976,20.9311,59.1315,-0.235927,0.0,0.0
3480,869.75,39.3456,40.1981,131.489,103.851,107.169,0.00962518,0.0986607,20.9315,59.0814,-0.284449,0.0,0.0
3490,872.25,39.0471,40.2537,134.152,103.864,107.024,0.00941291,0.0988476,20.9318,59.1315,-0.271149,0.0,0.0
3500,874.75,39.6471,40.4757,129.537,103.878,106.027,0.00941521,0.0987598,20.9319,59.0914,-0.185258,0.0,0.0
3510,877.25,39.3064,40.2651,133.09,103.898,106.058,0.00964923,0.0987618,20.9324,59.0514,-0.186151,0.0,0.0
3520,879.75,39.1321,40.5715,133.577,103.895,106.073,0.00976497,0.098627,20.9336,58.8813,-0.187683,0.0,0.0
3530,882.25,39.1239,40.4604,137.427,103.941,105.943,0.00984274,0.0980181,20.9334,58.9713,-0.172581,0.0,0.0
3540,884.75,39.4549,40.0537,134.302,103.936,106.187,0.00997274,0.0987158,20.9325,58.9413,-0.193837,0.0,0.0
3550,887.25,39.3234,40.5596,133.856,103.945,106.231,0.0099191,0.0992926,20.9312,58.9813,-0.196759,0.0,0.0
3560,889.75,38.9079,40.1847,133.139,103.92,107.141,0.00986487,0.099613,20.9307,58.8913,-0.276094,0.0,0.0
3570,892.25,39.2747,40.2556,135.567,103.93,107.033,0.0100004,0.0994063,20.9306,58.9413,-0.266081,0.0,0.0
3580,894.75,39.3776,40.5988,132.967,103.941,106.927,0.010083,0.0989026,20.9305,58.8412,-0.256146,0.0,0.0
3590,897.25,39.2733,40.2601,133.775,103.94,106.079,0.00984137,0.0990629,20.9305,58.9213,-0.184224,0.0,0.0
3600,899.75,39.0136,40.4441,134.809,103.927,107.431,0.00964957,0.0995531,20.9302,58.8112,-0.299928,0.0,0.0
3610,902.25,38.8049,40.5639,131.886,103.936,106.133,0.00980499,0.0998086,20.9285,58.8112,-0.189199,0.0,0.0
3620,904.75,39.072,40.086,135.061,103.899,107.092,0.0101094,0.0998459,20.9277,58.7411,-0.273841,0.0,0.0
3630,907.25,39.4896,40.457,129.852,103.869,106.833,0.0102347,0.100073,20.9274,58.8412,-0.254514,0.0,0.0
3640,909.75,38.9114,40.0657,130.433,103.796,107.483,0.0101444,0.0997377,20.9293,58.8012,-0.315769,0.0,0.0
3650,912.25,39.5023,40.301,137.458,103.729,106.482,0.0100622,0.0994323,20.9307,58.7912,-0.236958,0.0,0.0
3660,914.75,39.1365,40.5832,131.723,103.675,106.762,0.0100697,0.0997135,20.9306,58.7912,-0.265389,0.0,0.0
3670,917.25,39.5895,40.5747,134.599,103.624,105.69,0.0101441,0.0993937,20.9302,58.6611,-0.17859,0.0,0.0
3680,919.75,39.1995,40.6087,136.113,103.586,106.303,0.0100705,0.0984293,20.9326,58.7011,-0.234257,0.0,0.0
3690,922.25,38.7478,40.4338,133.952,103.525,106.04,0.0099555,0.097398,20.9337,58.641,-0.217116,0.0,0.0
3700,924.75,38.693,39.6818,132.058,103.499,105.803,0.0101386,0.0982397,20.9329,58.6611,-0.199122,0.0,0.0
3710,927.25,38.7167,40.1162,132.391,103.454,106.56,0.0104645,0.100153,20.9308,58.611,-0.267631,0.0,0.0
3720,929.75,39.1826,40.2114,136.207,103.461,105.802,0.0106121,0.10009,20.9301,58.6511,-0.202367,0.0,0.0
3730,932.25,38.3115,39.7739,132.447,103.426,106.584,0.0105753,0.0993692,20.9306,58.591,-0.27201,0.0,0.0
3740,934.75,38.7475,39.99,132.34,103.429,106.392,0.010364,0.0984241,20.9305,58.601,-0.255487,0.0,0.0
3750,937.25,38.7156,39.7536,132.437,103.416,105.825,0.0100555,0.0981387,20.9305,58.4709,-0.208273,0.0,0.0
3760,939.75,38.917,40.0312,133.141,103.425,106.392,0.00986418,0.0982057,20.9305,58.4709,-0.255783,0.0,0.0
3770,942.25,38.3119,39.7356,130.201,103.428,106.247,0.00987268,0.098741,20.9305,58.4209,-0.243275,0.0,0.0
3780,944.75,38.8011,39.7167,134.078,103.454,106.121,0.00990198,0.099469,20.9302,58.4109,-0.230231,0.0,0.0
3790,947.25,38.7154,39.8192,135.88,103.462,105.825,0.00989758,0.0990932,20.9298,58.4309,-0.204286,0.0,0.0
3800,949.75,38.5389,39.8803,136.292,103.477,106.084,0.00998244,0.0992275,20.9297,58.3808,-0.225025,0.0,0.0
3810,952.25,38.4819,39.816,131.881,103.519,106.754,0.00999923,0.0985642,20.9296,58.4109,-0.278335,0.0,0.0
3820,954.75,39.3245,39.5993,131.356,103.513,106.694,0.00992383,0.0983231,20.9298,58.3208,-0.273796,0.0,0.0
3830,957.25,38.1657,39.8451,134.834,103.524,105.41,0.00987616,0.0986739,20.9306,58.3908,-0.163349,0.0,0.0
3840,959.75,38.5132,40.1144,135.805,103.519,106.127,0.0098993,0.0994167,20.9309,58.3108,-0.225061,0.0,0.0
3850,962.25,38.7254,39.865,133.829,103.523,106.136,0.00983594,0.0994544,20.931,58.3608,-0.225483,0.0,0.0
3860,964.75,38.7288,39.9534,133.843,103.515,106.014,0.00987629,0.0988524,20.9311,58.1506,-0.215815,0.0,0.0
3870,967.25,39.1621,40.1015,135.018,103.537,106.67,0.0100165,0.098855,20.932,58.2507,-0.269603,0.0,0.0
3880,969.75,38.4506,39.9172,133.448,103.51,106.2,0.0101924,0.0983693,20.9312,58.1907,-0.232103,0.0,0.0
3890,972.25,38.4497,39.6164,132.834,103.513,106.055,0.0103582,0.0985421,20.9306,58.1806,-0.219382,0.0,0.0
3900,974.75,38.9173,40.0778,134.243,103.482,105.667,0.0104806,0.0984688,20.9304,58.1206,-0.188964,0.0,0.0
3910,977.25,38.6201,39.7971,130.891,103.484,106.36,0.0105381,0.0989552,20.9309,58.1806,-0.247951,0.0,0.0
3920,979.75,38.3259,39.9096,133.303,103.464,106.059,0.0103337,0.099265,20.9314,58.0706,-0.224064,0.0,0.0
3930,982.25,38.6567,40.1234,128.829,103.451,106.187,0.0100552,0.0996071,20.931,58.1406,-0.236165,0.0,0.0
3940,984.75,38.6861,39.633,134.957,103.445,106.15,0.00997708,0.100288,20.93,58.0505,-0.233467,0.0,0.0
3950,987.25,38.4566,39.6115,130.868,103.442,106.716,0.0100062,0.100687,20.929,58.0405,-0.2819,0.0,0.0
3960,989.75,38.5992,40.1631,135.99,103.435,106.339,0.00991195,0.10141,20.9278,58.0505,-0.250418,0.0,0.0
3970,992.25,38.8519,40.0139,133.286,103.434,106.794,0.0098393,0.101191,20.9274,57.9605,-0.28919,0.0,0.0
3980,994.75,38.0349,39.4113,134.406,103.453,105.374,0.00989316,0.101351,20.9272,58.0305,-0.166402,0.0,0.0
3990,997.25,38.818,39.8278,135.212,103.473,106.004,0.00992584,0.101844,20.9269,57.9004,-0.218598,0.0,0.0
4000,999.75,39.1789,40.281,136.943,103.488,105.387,0.00986241,0.102116,20.9265,58.0205,-0.164416,0.0,0.0
4010,1002.25,38.793,40.2523,131.547,103.5,104.908,0.00982367,0.104325,20.9248,57.8804,-0.12219,0.0,0.0
4020,1004.75,38.561,40.4517,134.557,103.536,106.389,0.00991826,0.105137,20.9233,57.9204,-0.245827,0.0,0.0
4030,1007.25,38.6022,39.6121,134.643,103.555,106.28,0.00996233,0.104686,20.9242,57.8303,-0.234931,0.0,0.0
4040,1009.75,38.0259,39.5367,134.616,103.604,106.301,0.00998521,0.104235,20.9255,57.9104,-0.232433,0.0,0.0
4050,1012.25,38.2373,39.9094,134.641,103.625,106.719,0.00996743,0.103191,20.9266,57.7903,-0.266146,0.0,0.0
4060,1014.75,38.6382,39.9066,133.475,103.651,106.164,0.00974108,0.101893,20.9282,57.8404,-0.216678,0.0,0.0
4070,1017.25,38.7037,39.8719,133.366,103.67,105.851,0.00960431,0.101289,20.9298,57.7703,-0.188311,0.0,0.0
4080,1019.75,38.2994,40.1624,138.223,103.705,106.731,0.00991133,0.100428,20.9311,57.8203,-0.260168,0.0,0.0
4090,1022.25,39.0115,39.9466,135.753,103.718,106.331,0.0101978,0.100593,20.9315,57.7603,-0.225091,0.0,0.0
4100,1024.75,38.4224,40.0268,135.663,103.722,106.165,0.010191,0.0997441,20.9307,57.7403,-0.210643,0.0,0.0
4110,1027.25,38.581,40.3212,134.674,103.745,105.901,0.0100134,0.099141,20.9305,57.7603,-0.186087,0.0,0.0
4120,1029.75,38.7871,40.1077,134.799,103.744,105.761,0.00991692,0.0989112,20.931,57.6502,-0.174178,0.0,0.0
4130,1032.25,38.7126,39.8421,136.527,103.759,106.461,0.0100757,0.0986099,20.9325,57.7202,-0.232487,0.0,0.0
4140,1034.75,38.9009,39.9541,133.038,103.754,106.723,0.0102228,0.0987208,20.9319,57.5901,-0.25522,0.0,0.0
4150,1037.25,38.8631,39.7281,136.785,103.773,106.192,0.0101705,0.0988521,20.9315,57.6802,-0.208369,0.0,0.0
4160,1039.75,38.3432,39.9387,131.933,103.781,105.927,0.0100474,0.0989861,20.9314,57.5801,-0.185183,0.0,0.0
4170,1042.25,38.9137,40.0158,135.837,103.799,105.847,0.0101264,0.0987215,20.9313,57.6502,-0.176753,0.0,0.0
4180,1044.75,38.6451,39.9748,134.104,103.799,106.064,0.0102068,0.0983734,20.9321,57.5401,-0.195322,0.0,0.0
4190,1047.25,38.4809,39.6701,133.795,103.81,106.458,0.0101298,0.0980186,20.9329,57.6102,-0.227827,0.0,0.0
4200,1049.75,38.5914,39.8241,132.578,103.82,106.04,0.0100007,0.0974619,20.9324,57.48,-0.191337,0.0,0.0
4210,1052.25,38.5429,39.8637,132.361,103.816,106.164,0.00999827,0.0974316,20.9321,57.5601,-0.202308,0.0,0.0
4220,1054.75,38.8179,40.022,136.448,103.804,105.794,0.0100846,0.0974902,20.932,57.44,-0.171812,0.0,0.0
4230,1057.25,37.5846,38.5226,133.83,103.829,106.041,0.0101768,0.0975186,20.9319,57.5101,-0.190684,0.0,0.0
4240,1059.75,36.8291,38.3724,134.739,103.818,105.809,0.0102474,0.0973795,20.9319,57.44,-0.171831,0.0,0.0
4250,1062.25,37.1184,37.9716,131.607,103.827,105.81,0.0103064,0.0972779,20.9319,57.43,-0.171137,0.0,0.0
4260,1064.75,37.0875,38.7245,129.234,103.838,107.147,0.0104044,0.0974629,20.9333,57.42,-0.283745,0.0,0.0
4270,1067.25,37.0291,38.777,137.385,103.825,106.635,0.0103302,0.096984,20.9339,57.3599,-0.241567,0.0,0.0
4280,1069.75,36.4878,38.3437,134.622,103.815,106.244,0.0101528,0.0971184,20.9341,57.39,-0.209242,0.0,0.0
4290,1072.25,37.4388,38.6366,135.705,103.804,106.502,0.00994051,0.0971987,20.9341,57.2899,-0.232141,0.0,0.0
4300,1074.75,36.9889,38.383,134.02,103.796,106.067,0.00986963,0.096973,20.9341,57.3699,-0.195741,0.0,0.0
4310,1077.25,37.501,38.9064,131.978,103.784,106.251,0.0098874,0.0972131,20.9341,57.2498,-0.212489,0.0,0.0
4320,1079.75,37.2749,38.7732,132.714,103.794,107.968,0.00991728,0.0975075,20.9341,57.3399,-0.356706,0.0,0.0
4330,1082.25,36.9266,39.1369,134.689,103.783,106.435,0.0100034,0.0977863,20.9335,57.1998,-0.228172,0.0,0.0
4340,1084.75,37.1773,39.0504,136.233,103.792,106.58,0.0102608,0.0973444,20.9333,57.2799,-0.239813,0.0,0.0
4350,1087.25,37.4027,38.3858,136.284,103.77,107.288,0.0103602,0.0973509,20.934,57.1698,-0.301502,0.0,0.0
4360,1089.75,36.9762,38.3644,130.541,103.778,106.569,0.0102563,0.0968683,20.935,57.2398,-0.240083,0.0,0.0
4370,1092.25,37.0732,38.4806,135.811,103.755,106.333,0.010241,0.096477,20.9359,57.1197,-0.222043,0.0,0.0
4380,1094.75,37.0811,38.381,134.061,103.756,106.499,0.0102479,0.0971613,20.9354,57.1798,-0.236064,0.0,0.0
4390,1097.25,37.0995,38.8337,131.758,103.749,106.17,0.0102084,0.0966295,20.9352,57.1197,-0.208681,0.0,0.0
4400,1099.75,37.0422,38.6961,134.172,103.742,106.424,0.010046,0.0960743,20.9351,57.1097,-0.230948,0.0,0.0
4410,1102.25,36.7821,38.608,135.109,103.725,106.576,0.00989944,0.0954503,20.9346,57.0997,-0.245279,0.0,0.0
4420,1104.75,36.6973,38.7635,132.533,103.723,105.96,0.00998559,0.0954202,20.9356,56.9796,-0.192978,0.0,0.0
4430,1107.25,36.8659,38.9604,133.318,103.7,106.458,0.0101081,0.0957381,20.9359,57.0997,-0.237449,0.0,0.0
4440,1109.75,37.0644,39.0422,132.039,103.687,106.997,0.0100645,0.0959723,20.9349,56.9696,-0.284226,0.0,0.0
4450,1112.25,37.2057,38.2144,136.184,103.69,106.407,0.00988207,0.0959928,20.9344,57.0196,-0.23398,0.0,0.0
4460,1114.75,36.8485,38.4579,137.06,103.652,106.272,0.00971424,0.0959294,20.9343,56.9396,-0.225773,0.0,0.0
4470,1117.25,37.2082,38.7559,134.218,103.649,107.28,0.00969569,0.0958175,20.9346,56.9596,-0.311417,0.0,0.0
4480,1119.75,36.9643,38.3301,135.993,103.614,106.042,0.00975353,0.0961673,20.9349,56.9095,-0.209487,0.0,0.0
4490,1122.25,37.0068,38.6754,132.838,103.613,107.342,0.00974502,0.0958601,20.9361,56.9396,-0.319811,0.0,0.0
4500,1124.75,37.2321,38.402,134.756,103.588,106.599,0.00969405,0.0953767,20.9367,56.8195,-0.259165,0.0,0.0
4510,1127.25,37.4325,38.7873,134.967,103.598,106.939,0.00968837,0.0955773,20.9362,56.8795,-0.287122,0.0,0.0
4520,1129.75,37.1389,38.7777,133.793,103.576,106.908,0.00970623,0.0958335,20.936,56.7894,-0.286441,0.0,0.0
4530,1132.25,36.993,38.6828,132.666,103.572,105.999,0.0098059,0.0959789,20.936,56.8695,-0.209558,0.0,0.0
4540,1134.75,37.2397,38.6724,133.087,103.554,105.35,0.00971582,0.0958335,20.9359,56.7894,-0.155535,0.0,0.0
4550,1137.25,37.1046,38.6956,135.806,103.562,105.839,0.00958076,0.0955148,20.9359,56.7794,-0.196727,0.0,0.0
4560,1139.75,36.7976,38.6129,134.43,103.562,105.774,0.00958878,0.0958229,20.9359,56.8095,-0.191227,0.0,0.0
4570,1142.25,37.4652,38.7317,135.737,103.531,106.419,0.00967705,0.095941,20.9358,56.6994,-0.248844,0.0,0.0
4580,1144.75,36.6967,37.7624,135.131,103.525,105.374,0.00978807,0.0959758,20.9357,56.7994,-0.160159,0.0,0.0
4590,1147.25,36.9613,38.4391,138.51,103.511,105.558,0.00991134,0.0956882,20.9357,56.6593,-0.177118,0.0,0.0
4600,1149.75,37.5921,38.5751,135.576,103.504,106.752,0.00989925,0.0957257,20.9357,56.7294,-0.27947,0.0,0.0
4610,1152.25,37.0218,39.067,133.996,103.491,106.166,0.00989595,0.0958594,20.9357,56.6293,-0.230869,0.0,0.0
4620,1154.75,36.9871,38.8682,137.906,103.491,106.53,0.00983206,0.0963612,20.9352,56.6793,-0.261733,0.0,0.0
4630,1157.25,37.4116,38.6143,131.771,103.473,105.341,0.00964696,0.096595,20.9348,56.5793,-0.161787,0.0,0.0
4640,1159.75,37.0405,38.4137,132.797,103.483,106.738,0.00960779,0.0965153,20.9333,56.6393,-0.280208,0.0,0.0
4650,1162.25,36.8267,38.6123,129.985,103.461,105.771,0.00956915,0.0962912,20.9333,56.5392,-0.199741,0.0,0.0
4660,1164.75,37.4293,38.6483,133.017,103.475,106.578,0.0095047,0.0964915,20.9347,56.5893,-0.267209,0.0,0.0
4670,1167.25,37.3332,38.6376,136.704,103.462,106.268,,0.0965246,,56.4992,-0.242068,0.0,0.0
4680,1169.75,37.2898,38.6416,132.246,103.469,106.297,,,,56.5692,-0.243932,0.0,0.0
4690,1172.25,36.8854,38.6723,130.142,103.464,106.289,,,,56.4992,-0.243704,0.0,0.0
4700,1174.75,37.6172,38.6196,136.692,103.464,105.917,,,,56.4792,-0.211941,0.0,0.0
4704,1175.75,37.1646,38.6076,132.9,103.458,106.478,,,,56.4792,-0.2603,0.0,0.0