File: 01_Data/Engineered_Flooring/Cone/Engineered_Flooring_Cone_HF25Scan_220524_R2.csv
Names,Time,Stack TC,Smoke TC,Exh Press,Smoke Comp,Smoke Meas,CO Meter,CO2 Meter,O2 Meter,Sample Mass,Ext Coeff,Start Test,Flame Verif
Chan Gain,,500,500,1,1,1,1,1,1,1,1,1.0,1.0
Offset,,0,0,0.138596,0,0,0,0,0,0,0,0.0,0.0
Gain,,1,1,25.011,13.8491,15.2622,1,1,1,1.00087,1.03118,1.0,1.0
Units,sec,C,C,Pa,%,%,%,%,%,g,/m,,
Baseline,,20.0394,20.4086,143.305,104.872,104.597,0.000720568,0.0486349,20.9961,-450.319,0.0238315,,
8,1.75,18.2951,19.2762,140.454,103.842,103.665,0.000778675,0.0550471,20.9935,121.576,0.015468,0.0,0.0
16,3.75,18.6469,18.9836,142.593,103.834,103.471,0.000669934,0.0545282,20.9938,121.526,0.0316951,0.0,0.0
24,5.75,18.1691,19.3298,142.192,103.798,103.466,0.000684987,0.0545664,20.9939,121.516,0.0289321,0.0,0.0
32,7.75,18.9135,18.6774,142.094,103.791,103.623,0.00071796,0.0547262,20.9939,121.516,0.0145928,0.0,0.0
40,9.75,18.9003,18.9505,141.921,103.787,103.397,0.000704774,0.0542966,20.9939,121.506,0.0340803,0.0,0.0
48,11.75,18.6612,18.8591,143.028,103.77,103.463,0.000814354,0.0534315,20.9955,121.486,0.0267896,0.0,0.0
56,13.75,18.2984,19.2168,145.165,103.761,103.356,0.0010241,0.0522783,20.9972,121.376,0.0354595,0.0,0.0
64,15.75,18.8098,18.7535,141.028,103.753,103.235,0.00113235,0.0511108,20.998,121.496,0.0452466,0.0,0.0
72,17.75,18.5615,18.9742,142.247,103.742,103.366,0.00103219,0.0499363,20.9992,121.486,0.0328265,0.0,0.0
80,19.75,18.8677,19.1555,143.607,103.733,103.461,0.000887371,0.0488503,21.0002,121.426,0.0237465,0.0,0.0
88,21.75,18.1327,18.9979,146.298,103.718,103.215,0.000824036,0.0481125,21.0005,121.496,0.0439783,0.0,0.0
96,23.75,18.8405,18.9776,142.338,103.708,103.365,0.000786319,0.0479041,20.9996,121.476,0.0300015,0.0,0.0
104,25.75,18.892,18.863,142.289,103.696,103.152,0.000789905,0.0487088,20.9986,121.456,0.0476561,0.0,0.0
112,27.75,19.0158,19.4147,144.321,103.66,103.287,0.000805397,0.0506898,20.9959,121.446,0.0326482,0.0,0.0
120,29.75,19.137,18.9055,142.43,103.649,103.22,0.000700265,0.0524945,20.9948,121.436,0.037601,0.0,0.0
128,31.75,19.3189,19.3478,143.589,103.636,103.303,0.000531,0.0526701,20.9956,121.396,0.0290804,0.0,0.0
136,33.75,19.139,19.136,142.312,103.621,103.017,0.000529733,0.051664,20.9973,121.386,0.052903,0.0,0.0
144,35.75,19.1509,19.5194,142.389,103.598,103.278,0.000666912,0.050424,20.998,121.396,0.0279593,0.0,0.0
152,37.75,19.5388,19.7382,141.394,103.581,103.394,0.000722285,0.0494982,20.9983,121.356,0.0164088,0.0,0.0
160,39.75,19.291,19.3945,146.493,103.578,103.647,0.000687884,0.0487077,20.9995,121.376,-0.00598603,0.0,0.0
168,41.75,19.4405,19.9458,141.743,103.565,103.104,0.000632207,0.0480564,21.001,121.386,0.0403088,0.0,0.0
176,43.75,19.3633,20.0346,140.203,103.564,103.501,0.000565607,0.0476987,21.0017,121.356,0.00548691,0.0,0.0
184,45.75,19.1978,19.4414,141.896,103.563,103.365,0.000527313,0.0474292,21.0019,121.336,0.0173484,0.0,0.0
192,47.75,19.1164,20.1089,139.75,103.547,103.455,0.000599234,0.0472386,21.0021,121.346,0.00800503,0.0,0.0
200,49.75,19.2918,19.8976,142.021,103.555,103.192,0.000667324,0.0473273,21.0019,121.326,0.0317445,0.0,0.0
208,51.75,19.4194,20.0815,142.746,103.541,103.13,0.000671235,0.0478782,21.0007,121.306,0.0359987,0.0,0.0
216,53.75,19.2917,20.001,140.67,103.54,103.596,0.00061739,0.0482237,21.0002,121.306,-0.00495401,0.0,0.0
224,55.75,19.5152,19.7892,141.315,103.545,103.371,0.00059778,0.0481251,21.0012,121.306,0.0151946,0.0,0.0
232,57.75,19.2907,19.8981,145.181,103.545,103.873,0.000708573,0.0476522,21.0017,121.306,-0.0285581,0.0,0.0
240,59.75,19.6651,19.8843,144.034,103.559,103.435,0.000802142,0.0470725,21.002,121.316,0.0108671,0.0,0.0
248,61.75,19.2777,20.0541,139.869,103.566,103.598,0.000755601,0.0465426,21.0021,121.286,-0.00282776,0.0,0.0
256,63.75,19.4238,19.5958,140.447,103.587,103.112,0.000661515,0.0461576,21.0023,121.266,0.0415378,0.0,0.0
264,65.75,19.7661,19.7113,140.568,103.603,103.446,0.00059441,0.0459808,21.0024,121.175,0.013724,0.0,0.0
272,67.75,19.7772,20.1532,144.299,103.63,103.293,0.000623924,0.0460498,21.0024,121.216,0.0294953,0.0,0.0
280,69.75,19.4014,20.0833,144.984,103.662,103.582,0.000697421,0.0462265,21.0024,121.196,0.00696748,0.0,0.0
288,71.75,19.7984,19.9126,143.091,103.698,103.594,0.000745347,0.0464745,21.0024,121.175,0.0091254,0.0,0.0
296,73.75,19.5771,20.1722,144.236,103.758,103.714,0.000814768,0.0467989,21.0024,121.155,0.00383149,0.0,0.0
304,75.75,19.5754,20.134,144.447,103.827,103.499,0.000919568,0.0473212,21.0018,121.155,0.0285816,0.0,0.0
312,77.75,19.8734,20.1717,140.557,103.891,103.71,0.00100515,0.0479814,21.0009,121.145,0.0158372,0.0,0.0
320,79.75,19.7271,20.2248,142.799,103.959,103.855,0.00103049,0.0486535,21.0005,121.125,0.00905323,0.0,0.0
328,81.75,19.8703,20.164,142.119,104.048,103.805,0.000977081,0.0494114,21.0003,121.155,0.0211951,0.0,0.0
336,83.75,19.829,20.2795,144.807,104.141,103.777,0.00097389,0.0501302,21.0002,121.145,0.0317478,0.0,0.0
344,85.75,20.2706,20.2706,144.883,104.237,104.111,0.000971906,0.0509259,21.0008,121.115,0.0108973,0.0,0.0
352,87.75,20.008,20.1282,142.937,104.333,103.805,0.000952086,0.051615,21.0017,121.075,0.0459622,0.0,0.0
360,89.75,19.758,20.2709,142.202,104.431,103.605,0.00103619,0.0522688,21.0019,121.055,0.0717744,0.0,0.0
368,91.75,19.8079,20.1808,144.082,104.511,103.776,0.00120549,0.0528685,21.0018,121.005,0.0638524,0.0,0.0
376,93.75,19.7202,19.8115,145.291,104.603,103.862,0.00134088,0.0534259,21.0009,120.985,0.0642785,0.0,0.0
384,95.75,19.744,20.0378,138.62,104.684,103.621,0.00135059,0.0541833,21.0005,120.965,0.092371,0.0,0.0
392,97.75,19.9246,20.4207,141.155,104.794,103.568,0.00136102,0.054926,21.0003,120.925,0.106379,0.0,0.0
400,99.75,20.282,20.3367,146.532,104.895,102.837,0.00142272,0.0554319,21.0002,120.895,0.179223,0.0,0.0
408,101.75,20.2793,20.3585,146.583,104.979,103.127,0.00148462,0.0558413,20.9989,120.815,0.161026,0.0,0.0
416,103.75,20.5256,20.985,146.24,105.068,102.438,0.00152291,0.0564068,20.9983,120.785,0.229295,0.0,0.0
424,105.75,20.7094,20.5406,141.731,105.152,102.029,0.00150578,0.0568351,20.998,120.735,0.272716,0.0,0.0
432,107.75,19.9926,20.4659,143.321,105.231,102.737,0.00139877,0.0571221,20.9979,120.665,0.216968,0.0,0.0
440,109.75,20.6327,20.7133,143.169,105.305,101.708,0.00125212,0.0572778,20.9986,120.635,0.314364,0.0,0.0
448,111.75,20.2387,21.0981,146.139,105.36,101.287,0.00134004,0.0573693,20.9989,120.605,0.35657,0.0,0.0
456,113.75,20.3981,20.4452,144.807,105.417,101.247,0.0015279,0.0576595,20.999,120.535,0.365044,0.0,0.0
464,115.75,20.6636,21.0819,141.837,105.473,100.538,0.00173869,0.0579092,20.9985,120.465,0.4335,0.0,0.0
472,117.75,20.8453,21.0902,146.062,105.528,100.025,0.00187096,0.0580146,20.9989,120.415,0.484425,0.0,0.0
480,119.75,20.7455,21.3599,143.009,105.555,100.631,0.0018538,0.0579568,20.999,120.405,0.432116,0.0,0.0
488,121.75,20.6172,21.0735,138.995,105.577,100.521,0.00179958,0.0580145,20.9982,120.335,0.443885,0.0,0.0
496,123.75,20.3124,21.3284,143.265,105.598,100.541,0.0018351,0.0582504,20.9974,120.235,0.443852,0.0,0.0
504,125.75,21.0586,21.4448,141.432,105.618,100.408,0.00200997,0.0586528,20.9971,120.175,0.457588,0.0,0.0
512,127.75,20.4264,21.4728,142.989,105.615,100.21,0.00218179,0.0589445,20.9959,120.065,0.475184,0.0,0.0
520,129.75,20.6222,21.4054,143.658,105.606,99.9079,0.00216112,0.0593196,20.9951,120.024,0.501709,0.0,0.0
528,131.75,20.7501,21.6108,142.178,105.595,100.213,0.00203245,0.0594861,20.9949,120.004,0.473189,0.0,0.0
536,133.75,20.7312,20.6444,148.941,105.581,99.1459,0.0019636,0.0596011,20.9949,119.894,0.56879,0.0,0.0
544,135.75,21.1041,21.542,142.247,105.54,99.145,0.00197521,0.0598244,20.9949,119.764,0.565435,0.0,0.0
552,137.75,20.6181,21.897,143.168,105.511,99.0425,0.00203227,0.0599717,20.9952,119.704,0.572252,0.0,0.0
560,139.75,21.3214,21.2971,139.268,105.486,97.8153,0.00216199,0.0601174,20.9923,119.604,0.682938,0.0,0.0
568,141.75,20.877,21.4092,139.226,105.452,103.134,0.00247823,0.0663726,20.9786,119.534,0.201109,0.0,0.0
576,143.75,21.2691,20.9771,133.556,105.431,106.815,0.00303234,0.0995211,20.8944,119.434,-0.117918,0.0,1.0
584,145.75,21.8748,21.6909,124.955,105.385,104.701,0.00373641,0.195574,20.754,119.164,0.0588786,0.0,1.0
592,147.75,23.0994,22.1612,133.982,105.351,107.022,0.0042135,0.288541,20.6651,118.803,-0.142345,0.0,1.0
600,149.75,23.9901,22.3435,128.488,105.327,106.301,0.00433104,0.337689,20.6262,118.553,-0.0833046,0.0,1.0
608,151.75,25.1265,23.4682,132.232,105.273,107.2,0.00421892,0.351578,20.6157,118.323,-0.164126,0.0,1.0
616,153.75,27.2386,25.164,128.715,105.245,107.449,0.00408217,0.350131,20.6203,118.073,-0.187409,0.0,0.0
624,155.75,28.5673,25.9723,127.939,105.214,107.471,0.00376919,0.338818,20.6423,117.903,-0.19198,0.0,0.0
632,157.75,29.2265,26.961,130.383,105.182,107.486,0.00342792,0.326903,20.6572,117.682,-0.195996,0.0,0.0
640,159.75,29.9726,27.8642,127.739,105.16,107.444,0.0032263,0.322868,20.6636,117.472,-0.194282,0.0,0.0
648,161.75,30.4241,29.3452,131.478,105.131,107.383,0.00315584,0.323409,20.6664,117.212,-0.191689,0.0,0.0
656,163.75,31.9009,29.5974,131.989,105.105,106.641,0.0031764,0.322692,20.6664,116.932,-0.131154,0.0,0.0
664,165.75,32.4511,30.2542,132.751,105.07,106.522,0.00321355,0.322676,20.6663,116.682,-0.12413,0.0,0.0
672,167.75,33.2108,31.3436,132.268,105.04,107.292,0.00315337,0.324568,20.6662,116.411,-0.191857,0.0,0.0
680,169.75,34.0308,31.7392,131.916,105.007,108.261,0.00301904,0.324231,20.6662,116.191,-0.276081,0.0,0.0
688,171.75,34.4179,32.5331,126.75,104.991,107.992,0.00299251,0.325062,20.6662,115.951,-0.254907,0.0,0.0
696,173.75,34.952,32.8537,133.479,104.978,108.657,0.00308024,0.32532,20.6664,115.731,-0.311575,0.0,0.0
704,175.75,35.3499,34.0766,128.561,104.97,107.907,0.00321183,0.323345,20.6688,115.38,-0.249664,0.0,0.0
712,177.75,36.1986,34.5242,131.595,104.967,107.598,0.00330418,0.321471,20.6712,115.11,-0.223917,0.0,0.0
720,179.75,36.3189,35.1515,131.513,104.957,108.088,0.00332096,0.320529,20.6747,114.85,-0.265893,0.0,0.0
728,181.75,36.8349,35.4853,128.922,104.951,107.255,0.00336479,0.318302,20.6773,114.71,-0.19644,0.0,0.0
736,183.75,37.3422,36.0696,133.8,104.938,107.998,0.00337939,0.317135,20.6784,114.47,-0.259967,0.0,0.0
744,185.75,37.6723,37.3775,130.911,104.928,107.952,0.00323504,0.31668,20.6789,114.239,-0.257054,0.0,0.0
752,187.75,37.3877,37.6046,130.384,104.924,107.573,0.00312401,0.3153,20.6791,113.949,-0.225483,0.0,0.0
760,189.75,39.0243,37.1416,129.496,104.926,107.48,0.00316667,0.314855,20.6791,113.739,-0.217542,0.0,0.0
768,191.75,39.2945,37.7624,131.25,104.918,107.507,0.00322506,0.31405,20.6798,113.549,-0.220505,0.0,0.0
776,193.75,38.9977,38.9977,133.039,104.916,107.757,0.0031209,0.312531,20.6812,113.309,-0.24171,0.0,0.0
784,195.75,39.3073,38.9966,128.164,104.925,109.662,0.00297013,0.31018,20.6848,113.098,-0.399457,0.0,0.0
792,197.75,39.4522,39.4567,132.223,104.926,108.468,0.00287763,0.306182,20.6882,112.878,-0.300299,0.0,0.0
800,199.75,39.7914,39.7436,135.344,104.934,106.926,0.0028537,0.304381,20.6909,112.668,-0.170083,0.0,0.0
808,201.75,40.1886,39.8393,128.42,104.952,107.859,0.00280124,0.30209,20.6935,112.458,-0.24713,0.0,0.0
816,203.75,40.7702,40.1404,130.169,104.961,106.702,0.00269655,0.300094,20.6957,112.188,-0.14874,0.0,0.0
824,205.75,40.2435,40.6926,126.318,104.983,106.771,0.00261466,0.298126,20.6986,111.977,-0.152761,0.0,0.0
832,207.75,40.7482,40.8557,137.246,104.991,107.132,0.00260845,0.295785,20.7029,111.747,-0.182565,0.0,0.0
840,209.75,40.5202,41.3898,130.346,105.014,107.779,0.00259179,0.29246,20.7071,111.487,-0.235058,0.0,0.0
848,211.75,40.4606,41.5061,135.84,105.01,108.134,0.00257622,0.288672,20.7112,111.267,-0.265159,0.0,0.0
856,213.75,40.6667,41.7553,134.093,105.04,107.812,0.00248574,0.284786,20.7169,111.037,-0.235577,0.0,0.0
864,215.75,40.9988,41.7935,131.443,105.045,107.467,0.00242364,0.280868,20.7209,110.846,-0.206176,0.0,0.0
872,217.75,40.5763,42.2209,134.291,105.045,107.57,0.00248545,0.279182,20.7222,110.626,-0.214872,0.0,0.0
880,219.75,40.8112,41.998,131.591,105.042,108.17,0.00258873,0.27966,20.7203,110.406,-0.265392,0.0,0.0
888,221.75,40.6104,42.1997,131.764,105.056,108.063,0.00271,0.280901,20.7184,110.186,-0.255265,0.0,0.0
896,223.75,41.0461,42.1134,129.765,105.037,108.132,0.00274503,0.281478,20.7184,110.006,-0.262676,0.0,0.0
904,225.75,40.7519,42.3887,135.744,105.034,107.793,0.00265132,0.28056,20.7204,109.806,-0.234596,0.0,0.0
912,227.75,41.0367,42.4049,128.919,105.026,108.341,0.00254639,0.277643,20.7249,109.585,-0.281022,0.0,0.0
920,229.75,41.2444,42.5662,132.128,105.015,108.342,0.00249208,0.274835,20.7284,109.335,-0.282124,0.0,0.0
928,231.75,41.2442,42.441,132.298,105.004,108.388,0.00243021,0.273534,20.7303,109.175,-0.286842,0.0,0.0
936,233.75,41.4366,42.4917,130.734,104.991,107.997,0.00242825,0.272041,20.7317,108.995,-0.255336,0.0,0.0
944,235.75,41.2395,42.6969,128.559,104.989,108.179,0.0025646,0.271186,20.7321,108.755,-0.270758,0.0,0.0
952,237.75,41.5706,42.8296,134.295,104.976,107.436,0.0026832,0.269916,20.7323,108.575,-0.209516,0.0,0.0
960,239.75,41.2562,43.0099,130.787,104.964,107.214,0.0026668,0.269196,20.7324,108.374,-0.19189,0.0,0.0
968,241.75,41.2996,42.9729,128.736,104.948,107.35,0.00265091,0.268801,20.7329,108.184,-0.204705,0.0,0.0
976,243.75,40.9649,43.1866,130.891,104.942,107.618,0.00269912,0.266298,20.7362,107.964,-0.227714,0.0,0.0
984,245.75,41.3971,43.2847,135.027,104.92,107.635,0.00267284,0.2631,20.7392,107.774,-0.231095,0.0,0.0
992,247.75,41.0132,43.2318,134.992,104.909,108.007,0.00257346,0.260317,20.7429,107.594,-0.263222,0.0,0.0
1000,249.75,40.9286,43.5999,131.223,104.9,107.604,0.00258101,0.257439,20.7482,107.414,-0.230222,0.0,0.0
1008,251.75,41.2472,42.8938,131.055,104.886,107.457,0.00259897,0.253589,20.7526,107.223,-0.219044,0.0,0.0
1016,253.75,40.7636,43.288,134.033,104.873,108.041,0.00252012,0.250349,20.7556,107.003,-0.269206,0.0,0.0
1024,255.75,41.09,43.188,135.838,104.86,107.559,0.00243229,0.247707,20.7584,106.863,-0.229922,0.0,0.0
1032,257.75,41.0985,43.247,134.359,104.846,107.106,0.00240081,0.245148,20.7619,106.693,-0.192933,0.0,0.0
1040,259.75,40.7236,42.7,130.908,104.844,107.105,0.00242604,0.242209,20.7656,106.513,-0.19304,0.0,0.0
1048,261.75,40.3221,43.0155,131.118,104.832,107.063,0.00242643,0.239243,20.7692,106.323,-0.190556,0.0,0.0
1056,263.75,40.2456,43.0598,135.801,104.821,106.705,0.00238598,0.237061,20.7712,106.122,-0.161193,0.0,0.0
1064,265.75,40.6002,43.2795,133.984,104.811,107.809,0.00237803,0.23466,20.7749,105.962,-0.255126,0.0,0.0
1072,267.75,40.3525,42.9238,133.36,104.809,106.934,0.00244405,0.231108,20.7798,105.782,-0.181504,0.0,0.0
1080,269.75,39.6642,43.3212,134.054,104.797,107.198,0.00253818,0.227624,20.7845,105.552,-0.204913,0.0,0.0
1088,271.75,39.6518,42.6656,137.106,104.781,107.028,0.00259269,0.224251,20.7879,105.412,-0.191906,0.0,0.0
1096,273.75,39.6457,42.8533,133.656,104.773,107.141,0.00259603,0.222087,20.7907,105.272,-0.202197,0.0,0.0
1104,275.75,39.852,42.295,134.308,104.781,106.638,0.00256957,0.220561,20.792,105.041,-0.158934,0.0,0.0
1112,277.75,39.6637,42.3067,132.53,104.759,107.102,0.00241607,0.218453,20.7954,104.881,-0.20006,0.0,0.0
1120,279.75,39.4042,42.4039,133.415,104.745,106.95,0.00223192,0.215768,20.7981,104.711,-0.188431,0.0,0.0
1128,281.75,39.0203,42.4934,133.481,104.761,107.723,0.00220027,0.21342,20.8011,104.551,-0.252123,0.0,0.0
1136,283.75,39.4277,41.7581,135.366,104.792,106.794,0.00233744,0.211198,20.804,104.381,-0.171135,0.0,0.0
1144,285.75,38.8816,42.2252,137.848,104.835,106.319,0.00249472,0.208651,20.8076,104.211,-0.127162,0.0,0.0
1152,287.75,38.6663,41.6782,132.332,104.873,106.532,0.0025844,0.206275,20.8108,104.011,-0.141935,0.0,0.0
1160,289.75,38.5201,42.0616,134.208,104.896,107.124,0.00263526,0.203371,20.8145,103.85,-0.190093,0.0,0.0
1168,291.75,38.3863,41.7568,140.364,104.935,107.112,0.00264031,0.201283,20.8172,103.68,-0.185754,0.0,0.0
1176,293.75,38.5943,41.1415,136.704,104.969,106.968,0.0026365,0.198605,20.8204,103.53,-0.170638,0.0,0.0
1184,295.75,38.1135,40.7271,134.093,104.996,107.184,0.0026471,0.196748,20.8232,103.41,-0.186604,0.0,0.0
1192,297.75,38.098,40.77,133.832,105.042,107.571,0.00260522,0.194874,20.8257,103.22,-0.215166,0.0,0.0
1200,299.75,37.6737,40.9658,135.036,105.048,106.623,0.00258916,0.192838,20.8285,103.14,-0.134601,0.0,0.0
1208,301.75,37.618,40.7058,135.829,105.065,106.902,0.00274391,0.190561,20.8308,102.95,-0.156747,0.0,0.0
1216,303.75,37.4755,40.6534,136.246,105.08,105.797,0.00288882,0.18849,20.8344,102.84,-0.0614647,0.0,0.0
1224,305.75,36.965,40.3741,131.172,105.095,106.693,0.00289217,0.18639,20.838,102.719,-0.136488,0.0,0.0
1232,307.75,37.0048,40.1795,133.163,105.101,106.942,0.00277079,0.183727,20.8416,102.569,-0.157079,0.0,0.0
1240,309.75,36.8498,40.2802,133.387,105.111,107.048,0.00277803,0.181307,20.8454,102.399,-0.165221,0.0,0.0
1248,311.75,36.4975,40.0797,133.441,105.116,106.698,0.00288523,0.179544,20.848,102.289,-0.135066,0.0,0.0
1256,313.75,36.391,39.6466,132.174,105.131,106.899,0.00297857,0.177851,20.8499,102.159,-0.150835,0.0,0.0
1264,315.75,36.2903,39.5807,138.033,105.141,106.363,0.00294744,0.17612,20.8508,102.019,-0.104519,0.0,0.0
1272,317.75,35.7555,39.5167,133.749,105.136,106.478,0.00284852,0.174882,20.8514,101.909,-0.114701,0.0,0.0
1280,319.75,35.9605,38.9083,133.046,105.155,107.518,0.0028142,0.172906,20.853,101.799,-0.201027,0.0,0.0
1288,321.75,35.3618,39.1177,135.192,105.158,106.382,0.0028037,0.171437,20.8545,101.628,-0.104692,0.0,0.0
1296,323.75,35.3159,39.032,137.92,105.166,106.591,0.00275134,0.170981,20.8559,101.508,-0.121802,0.0,0.0
1304,325.75,35.7253,38.7289,138.505,105.18,106.736,0.00266567,0.170292,20.8575,101.308,-0.132811,0.0,0.0
1312,327.75,35.6016,38.184,137.522,105.179,106.281,0.00259463,0.169289,20.8582,101.248,-0.0943525,0.0,0.0
1320,329.75,34.983,38.2293,134.81,105.199,106.295,0.00260234,0.16896,20.8581,101.138,-0.0937179,0.0,0.0
1328,331.75,35.194,38.2873,134.815,105.19,106.59,0.00262481,0.168438,20.858,101.038,-0.119652,0.0,0.0
1336,333.75,34.8848,38.3453,139.196,105.196,106.967,0.00259563,0.168146,20.8589,100.878,-0.151023,0.0,0.0
1344,335.75,34.882,37.8804,139.51,105.196,106.47,0.00248634,0.167951,20.8596,100.708,-0.108863,0.0,0.0
1352,337.75,35.0078,37.617,136.583,105.205,106.302,0.00250964,0.167557,20.86,100.618,-0.0938464,0.0,0.0
1360,339.75,34.4567,37.7511,137.71,105.216,106.133,0.0026461,0.166969,20.8607,100.518,-0.0784642,0.0,0.0
1368,341.75,34.4545,37.5276,134.293,105.215,106.892,0.00283727,0.166715,20.8616,100.377,-0.143008,0.0,0.0
1376,343.75,34.4039,37.3514,135.901,105.215,106.397,0.0029581,0.166665,20.862,100.247,-0.101093,0.0,0.0
1384,345.75,34.3064,37.3381,134.109,105.228,106.926,0.00302296,0.166365,20.8632,100.127,-0.144722,0.0,0.0
1392,347.75,34.3608,36.9911,138.452,105.237,107.061,0.00297385,0.165754,20.864,100.027,-0.155378,0.0,0.0
1400,349.75,34.2468,37.2697,132.84,105.234,106.968,0.00279966,0.166332,20.8633,99.8569,-0.14791,0.0,0.0
1408,351.75,34.1961,36.7984,135.576,105.245,106.811,0.00274437,0.166546,20.8633,99.7368,-0.133608,0.0,0.0
1416,353.75,34.0252,36.7118,136.095,105.223,106.526,0.00282008,0.1664,20.8632,99.5867,-0.111324,0.0,0.0
1424,355.75,33.7882,36.8377,136.426,105.23,106.377,0.00287754,0.166249,20.8632,99.5066,-0.098082,0.0,0.0
1432,357.75,33.9609,36.6956,138.357,105.23,106.117,0.00281307,0.166681,20.8628,99.3265,-0.0759117,0.0,0.0
1440,359.75,33.5867,36.5797,135.127,105.216,106.905,0.00271182,0.167432,20.8616,99.1964,-0.144003,0.0,0.0
1448,361.75,33.6286,36.5586,133.31,105.211,107.21,0.00268922,0.168856,20.8607,99.0662,-0.170254,0.0,0.0
1456,363.75,33.7791,36.4242,134.457,105.221,106.424,0.00267245,0.169704,20.8605,98.9461,-0.102844,0.0,0.0
1464,365.75,33.7325,36.3327,138.039,105.196,107.075,0.0025689,0.169245,20.8604,98.796,-0.16012,0.0,0.0
1472,367.75,33.5505,36.1917,135.218,105.196,107.313,0.00241727,0.168837,20.8604,98.6659,-0.180204,0.0,0.0
1480,369.75,33.4375,36.1688,134.408,105.185,106.826,0.00231197,0.169102,20.8604,98.5958,-0.140069,0.0,0.0
1488,371.75,33.472,36.1,139.401,105.171,106.711,0.00229062,0.169698,20.8593,98.4657,-0.131482,0.0,0.0
1496,373.75,33.3049,35.8598,135.031,105.171,106.5,0.00236767,0.170664,20.8586,98.3456,-0.11358,0.0,0.0
1504,375.75,33.5114,35.6463,135.257,105.174,106.39,0.00243668,0.171509,20.8573,98.2055,-0.103987,0.0,0.0
1512,377.75,33.4676,35.9712,134.854,105.157,106.492,0.00241464,0.172231,20.8564,98.0954,-0.114183,0.0,0.0
1520,379.75,33.4603,35.8695,133.613,105.158,107.313,0.00241905,0.173255,20.855,97.9953,-0.183514,0.0,0.0
1528,381.75,33.0957,35.7816,130.731,105.14,106.378,0.00253381,0.174913,20.8526,97.8752,-0.105899,0.0,0.0
1536,383.75,33.4766,35.3808,141.65,105.144,106.545,0.00268858,0.177372,20.8492,97.7351,-0.119742,0.0,0.0
1544,385.75,33.7147,35.2959,132.287,105.12,107.35,0.00280156,0.179509,20.8469,97.645,-0.189928,0.0,0.0
1552,387.75,33.7964,35.8049,136.458,105.101,106.394,0.00282834,0.18126,20.8469,97.5249,-0.110631,0.0,0.0
1560,389.75,33.2825,35.8524,131.81,105.089,106.351,0.00277038,0.182531,20.8461,97.3748,-0.10793,0.0,0.0
1568,391.75,33.5983,35.8979,131.294,105.077,107.201,0.00254787,0.184855,20.8436,97.2647,-0.18107,0.0,0.0
1576,393.75,33.6874,35.9328,132.601,105.068,106.432,0.00240163,0.185937,20.8411,97.1145,-0.116715,0.0,0.0
1584,395.75,34.0026,35.8368,131.932,105.071,106.882,0.0023775,0.187387,20.8381,96.9444,-0.154583,0.0,0.0
1592,397.75,33.6625,35.6216,132.109,105.035,107.156,0.00235137,0.189975,20.8358,96.8043,-0.18082,0.0,0.0
1600,399.75,33.8906,35.9048,133.442,105.01,106.366,0.00236959,0.191645,20.8343,96.7142,-0.116079,0.0,0.0
1608,401.75,33.9793,35.7686,134.6,105.015,106.77,0.00245763,0.193432,20.831,96.5841,-0.149915,0.0,0.0
1616,403.75,33.9473,35.6767,132.774,105.002,106.521,0.00251216,0.195146,20.8295,96.4339,-0.129914,0.0,0.0
1624,405.75,34.1806,35.9216,132.629,104.969,107.713,0.00243058,0.196821,20.8272,96.2938,-0.233402,0.0,0.0
1632,407.75,33.9744,36.351,133.529,104.972,106.578,0.00230214,0.199846,20.8234,96.1637,-0.137321,0.0,0.0
1640,409.75,34.457,36.0343,135.066,104.954,106.086,0.00225191,0.202465,20.8187,95.9936,-0.0970851,0.0,0.0
1648,411.75,34.7466,36.3923,130.591,104.937,107.627,0.00225471,0.204909,20.8144,95.8634,-0.228933,0.0,0.0
1656,413.75,34.689,36.3079,130.009,104.909,106.656,0.00225943,0.208161,20.8116,95.7333,-0.149387,0.0,0.0
1664,415.75,34.5409,36.4641,133.394,104.884,106.599,0.00230769,0.211005,20.8073,95.5932,-0.146754,0.0,0.0
1672,417.75,34.9458,36.7874,135.219,104.864,105.909,0.00240387,0.214401,20.8028,95.4231,-0.0897038,0.0,0.0
1680,419.75,34.9384,36.8295,134.097,104.837,106.694,0.00246261,0.218431,20.7974,95.2529,-0.158823,0.0,0.0
1688,421.75,34.7548,36.9828,134.611,104.816,107.517,0.00246718,0.22238,20.7917,95.0527,-0.230114,0.0,0.0
1696,423.75,35.4585,36.9998,132.57,104.811,107.114,0.00244108,0.226167,20.7867,94.9627,-0.196556,0.0,0.0
1704,425.75,35.5783,36.8304,133.392,104.756,106.382,0.00246675,0.230125,20.7813,94.8025,-0.139368,0.0,0.0
1712,427.75,35.7841,37.515,133.908,104.756,106.017,0.00251604,0.234067,20.7767,94.6324,-0.108306,0.0,0.0
1720,429.75,36.0112,37.4575,133.757,104.764,106.968,0.00261737,0.238611,20.771,94.4622,-0.188247,0.0,0.0
1728,431.75,36.534,37.5968,131.31,104.768,106.215,0.00271563,0.242065,20.7676,94.2821,-0.124085,0.0,0.0
1736,433.75,36.4511,37.7217,133.269,104.774,107.125,0.0027489,0.244435,20.7656,94.0919,-0.200786,0.0,0.0
1744,435.75,36.9292,37.7178,130.814,104.78,107.114,0.00274553,0.247348,20.7615,93.8917,-0.199292,0.0,0.0
1752,437.75,37.0742,38.4638,131.611,104.789,106.399,0.00268374,0.251932,20.7551,93.7416,-0.137914,0.0,0.0
1760,439.75,37.0876,38.2184,131.98,104.795,107.88,0.00265491,0.256513,20.7501,93.5414,-0.262489,0.0,0.0
1768,441.75,37.411,38.9272,130.904,104.802,106.49,0.00259037,0.260397,20.7453,93.3613,-0.144502,0.0,0.0
1776,443.75,37.7955,38.7882,131.747,104.809,106.208,0.00248318,0.264756,20.7387,93.1611,-0.119947,0.0,0.0
1784,445.75,38.1982,39.328,133.529,104.82,107.566,0.0023966,0.268614,20.734,92.991,-0.233899,0.0,0.0
1792,447.75,38.6973,39.7713,131.606,104.831,107.478,0.00227242,0.271228,20.7308,92.8308,-0.225584,0.0,0.0
1800,449.75,38.0621,39.6208,130.963,104.837,107.596,0.00212696,0.273294,20.7276,92.6106,-0.235025,0.0,0.0
1808,451.75,38.6652,40.0662,133.386,104.846,107.549,0.00204548,0.275195,20.7254,92.4705,-0.230191,0.0,0.0
1816,453.75,39.1498,39.9891,128.374,104.858,107.402,0.00212303,0.277442,20.7236,92.2703,-0.216859,0.0,0.0
1824,455.75,39.5287,40.3274,134.661,104.859,106.283,0.00221616,0.279886,20.7227,92.0902,-0.122068,0.0,0.0
1832,457.75,39.4894,40.5715,126.362,104.862,108.085,0.00227757,0.283715,20.7175,91.87,-0.273819,0.0,0.0
1840,459.75,39.7152,40.8032,130.999,104.877,106.682,0.00237045,0.286841,20.7138,91.7198,-0.154373,0.0,0.0
1848,461.75,39.8815,40.7574,130.166,104.907,107.631,0.00247689,0.289038,20.7113,91.5197,-0.231834,0.0,0.0
1856,463.75,40.5206,41.1129,128.294,104.898,107.108,0.00257358,0.291502,20.7082,91.2895,-0.188607,0.0,0.0
1864,465.75,40.384,41.5592,128.402,104.914,107.963,0.0026267,0.29473,20.7037,91.0993,-0.259118,0.0,0.0
1872,467.75,40.564,41.6407,127.683,104.896,106.544,0.00260982,0.296921,20.7013,90.9091,-0.140956,0.0,0.0
1880,469.75,40.7048,42.1047,131.8,104.906,106.911,0.00259264,0.298759,20.6994,90.709,-0.171227,0.0,0.0
1888,471.75,41.336,42.3762,133.456,104.921,107.627,0.00263137,0.301196,20.6976,90.4888,-0.230316,0.0,0.0
1896,473.75,41.1114,42.6002,127.574,104.922,107.744,0.00264147,0.30361,20.6956,90.2686,-0.240141,0.0,0.0
1904,475.75,41.3967,42.8495,130.496,104.926,107.161,0.00259553,0.304303,20.6941,90.0684,-0.190652,0.0,0.0
1912,477.75,41.752,42.9155,128.39,104.935,107.07,0.00255512,0.305734,20.693,89.8482,-0.182213,0.0,0.0
1920,479.75,41.7993,43.2336,130.476,104.951,106.701,0.00256255,0.30738,20.6917,89.628,-0.149612,0.0,0.0
1928,481.75,42.1422,43.6238,130.982,104.957,108.475,0.00263167,0.310141,20.6886,89.4479,-0.298187,0.0,0.0
1936,483.75,42.4946,43.5725,129.97,104.967,107.123,0.00270187,0.313722,20.6835,89.2277,-0.183891,0.0,0.0
1944,485.75,42.8656,43.9089,128.115,104.963,107.532,0.00277261,0.31719,20.6811,88.9875,-0.218723,0.0,0.0
1952,487.75,42.7859,44.0272,133.009,104.979,107.716,0.00281695,0.319427,20.68,88.8173,-0.232838,0.0,0.0
1960,489.75,43.087,44.3636,128.085,104.977,107.835,0.00289353,0.320122,20.6784,88.5671,-0.242952,0.0,0.0
1968,491.75,43.4981,44.5796,128.457,104.988,107.012,0.00296832,0.322132,20.6752,88.3569,-0.172668,0.0,0.0
1976,493.75,43.3789,44.7831,128.633,105.001,107.456,0.00294036,0.324413,20.6731,88.1467,-0.209054,0.0,0.0
1984,495.75,43.518,44.8728,134.236,105.012,107.287,0.0028061,0.325597,20.6714,87.8965,-0.193867,0.0,0.0
1992,497.75,44.0432,45.0825,129.529,105.022,107.741,0.00269763,0.328144,20.6682,87.7064,-0.231197,0.0,0.0
2000,499.75,44.0814,45.3406,126.406,105.028,106.834,0.00266816,0.332195,20.6659,87.4661,-0.154193,0.0,0.0
2008,501.75,44.1781,45.6348,126.619,105.038,108.182,0.00267109,0.334466,20.6654,87.2159,-0.266733,0.0,0.0
2016,503.75,44.2276,45.9352,127.035,105.048,106.251,0.00267915,0.338821,20.6597,87.0057,-0.103015,0.0,0.0
2024,505.75,44.6338,46.1806,127.979,105.069,105.839,0.00283006,0.344285,20.6537,86.7455,-0.0661098,0.0,0.0
2032,507.75,45.1134,46.4591,126.967,105.084,106.922,0.00303111,0.348844,20.6493,86.4753,-0.156916,0.0,0.0
2040,509.75,45.5383,46.321,119.305,105.085,107.223,0.00321858,0.352473,20.644,86.205,-0.18219,0.0,0.0
2048,511.75,45.5107,47.0223,126.472,105.108,106.825,0.00326749,0.357972,20.6363,85.9248,-0.146565,0.0,0.0
2056,513.75,45.8465,47.377,131.049,105.122,107.492,0.00322968,0.363607,20.6277,85.6746,-0.201705,0.0,0.0
2064,515.75,46.0601,47.7075,125.112,105.147,107.248,0.00327952,0.369188,20.6222,85.4244,-0.178962,0.0,0.0
2072,517.75,46.5082,47.983,128.337,105.164,106.753,0.00343468,0.374608,20.6164,85.1541,-0.135653,0.0,0.0
2080,519.75,46.5058,48.4285,127.07,105.181,107.343,0.00365919,0.380654,20.6087,84.8539,-0.184064,0.0,0.0
2088,521.75,47.2516,48.5625,125.962,105.187,106.803,0.00398486,0.38638,20.6029,84.6037,-0.137875,0.0,0.0
2096,523.75,47.5682,48.5735,124.745,105.204,107.629,0.00418949,0.394469,20.5944,84.3334,-0.206207,0.0,0.0
2104,525.75,47.8878,49.2544,121.271,105.215,107.803,0.00426275,0.405156,20.5819,84.1032,-0.219779,0.0,0.0
2112,527.75,48.4889,49.6757,124.372,105.226,107.386,0.0043673,0.418751,20.5627,83.7629,-0.183788,0.0,0.0
2120,529.75,48.8668,50.1954,120.166,105.241,106.825,0.00452446,0.431793,20.5484,83.5227,-0.135117,0.0,0.0
2128,531.75,49.5491,50.7528,125.285,105.263,106.035,0.00466921,0.443374,20.5341,83.1824,-0.0660881,0.0,0.0
2136,533.75,49.4155,51.4374,120.394,105.278,107.496,0.00473901,0.456493,20.5139,82.8821,-0.188608,0.0,0.0
2144,535.75,50.7732,51.7451,125.916,105.295,107.063,0.00475778,0.468376,20.4986,82.5519,-0.150561,0.0,0.0
2152,537.75,51.3071,52.2077,120.574,105.319,105.838,0.00478341,0.479955,20.486,82.2316,-0.0444002,0.0,0.0
2160,539.75,51.7706,53.0847,127.193,105.329,106.065,0.00486251,0.49199,20.4708,81.8412,-0.0630461,0.0,0.0
2168,541.75,52.2163,53.4812,120.415,105.338,106.329,0.00496735,0.505486,20.4523,81.501,-0.0847424,0.0,0.0
2176,543.75,53.2052,54.1003,127.76,105.363,106.132,0.0051734,0.516954,20.4401,81.1707,-0.065785,0.0,0.0
2184,545.75,53.8427,54.8541,120.192,105.374,105.791,0.00541441,0.526027,20.4323,80.8003,-0.0357403,0.0,0.0
2192,547.75,54.5525,55.3376,120.524,105.376,104.365,0.00576396,0.535786,20.4213,80.46,0.0872527,0.0,0.0
2200,549.75,54.9407,56.0768,121.034,105.398,105.827,0.00606053,0.546397,20.4088,80.0797,-0.0368116,0.0,0.0
2208,551.75,55.6443,56.8315,121.605,105.414,106.647,0.0061091,0.554545,20.3977,79.7194,-0.105154,0.0,0.0
2216,553.75,56.4259,57.2766,117.92,105.42,105.797,0.00602411,0.561252,20.3893,79.3391,-0.0323373,0.0,0.0
2224,555.75,56.8627,58.1906,120.018,105.428,104.71,0.00605362,0.564023,20.3864,78.96875,0.0618178,0.0,0.0
2232,557.75,57.3687,58.3884,122.451,105.444,104.31,0.00615509,0.561286,20.3881,78.5984,0.0978203,0.0,0.0
2240,559.75,57.8964,59.1087,119.057,105.456,102.908,0.00612841,0.557641,20.3905,78.2581,0.221192,0.0,0.0
2248,561.75,57.7241,59.683,117.272,105.47,103.066,0.00591957,0.55298,20.3956,77.8978,0.208561,0.0,0.0
2256,563.75,58.409,59.9228,124.664,105.492,103.64,0.00571424,0.547582,20.4005,77.5075,0.160224,0.0,0.0
2264,565.75,58.5672,60.2899,119.848,105.493,103.122,0.00561804,0.544297,20.4035,77.2272,0.205651,0.0,0.0
2272,567.75,58.9785,60.6935,119.678,105.503,103.33,0.00552895,0.54101,20.4049,76.8469,0.188277,0.0,0.0
2280,569.75,59.3574,60.7909,120.344,105.525,104.805,0.00537354,0.541227,20.4041,76.5466,0.0618692,0.0,0.0
2288,571.75,58.9742,61.3704,123.333,105.553,105.053,0.00516991,0.543456,20.4009,76.2364,0.042975,0.0,0.0
2296,573.75,59.862,61.6542,122.815,105.548,104.385,0.0051402,0.54619,20.3945,75.836,0.100198,0.0,0.0
2304,575.75,59.9712,61.931,122.425,105.552,103.576,0.00521962,0.554101,20.3816,75.4557,0.170899,0.0,0.0
2312,577.75,60.367,62.2853,121.786,105.552,105.269,0.005233,0.560116,20.374,75.1454,0.0242778,0.0,0.0
2320,579.75,60.442,63.0042,121.114,105.573,105.85,0.0051493,0.565958,20.3645,74.8051,-0.0237182,0.0,0.0
2328,581.75,61.036,62.8406,120.725,105.584,107.781,0.00502489,0.572498,20.3568,74.4648,-0.186313,0.0,0.0
2336,583.75,60.9423,63.4467,113.89,105.594,107.525,0.00482457,0.575169,20.3528,74.1245,-0.163919,0.0,0.0
2344,585.75,61.4838,63.729,118.294,105.619,108.407,0.00456582,0.575228,20.3541,73.7742,-0.235689,0.0,0.0
2352,587.75,62.3512,64.3253,118.094,105.617,107.805,0.00429386,0.564884,20.367,73.4239,-0.185446,0.0,0.0
2360,589.75,62.2348,64.838,122.748,105.614,106.918,0.004153,0.552554,20.3797,73.1637,-0.110979,0.0,0.0
2368,591.75,62.7239,64.9505,119.536,105.612,106.993,0.00413765,0.537831,20.3943,72.8334,-0.117505,0.0,0.0
2376,593.75,62.1653,65.55,122.374,105.615,107.177,0.00414773,0.522141,20.4137,72.6232,-0.13279,0.0,0.0
2384,595.75,62.5063,65.5527,122.491,105.604,107.195,0.00423249,0.501645,20.4428,72.363,-0.135263,0.0,0.0
2392,597.75,62.6729,65.1198,122.308,105.603,106.696,0.00433515,0.479886,20.4689,72.1328,-0.09322,0.0,0.0
2400,599.75,62.8027,64.3137,123.037,105.595,107.412,0.00433254,0.461875,20.4899,71.8726,-0.154359,0.0,0.0
2408,601.75,61.3592,65.2119,128.376,105.581,106.452,0.0042896,0.445269,20.5108,71.6324,-0.0743128,0.0,0.0
2416,603.75,61.9336,65.3289,124.1,105.558,106.163,0.00424224,0.427999,20.5306,71.3721,-0.0517327,0.0,0.0
2424,605.75,61.5429,65.0606,125.49,105.538,106.46,0.00417701,0.413448,20.5469,71.192,-0.0786828,0.0,0.0
2432,607.75,60.3712,63.8507,124.384,105.511,105.622,0.00407686,0.400681,20.5641,70.9718,-0.00948597,0.0,0.0
2440,609.75,60.4065,64.5575,131.316,105.491,106.07,0.0040696,0.386911,20.5814,70.7316,-0.0494415,0.0,0.0
2448,611.75,59.8733,64.3661,125.588,105.463,105.066,0.00423356,0.373471,20.5976,70.5614,0.0340577,0.0,0.0
2456,613.75,59.3747,63.6406,131.118,105.431,104.809,0.00442865,0.359264,20.6137,70.3512,0.0534647,0.0,0.0
2464,615.75,58.9751,63.6548,127.228,105.398,105.058,0.00447597,0.346293,20.6302,70.1811,0.0292685,0.0,0.0
2472,617.75,58.6238,63.1337,131.181,105.368,105.293,0.00444453,0.33068,20.6474,70.0109,0.00642765,0.0,0.0
2480,619.75,57.7568,62.5522,129.794,105.327,105.912,0.00438324,0.316912,20.6648,69.8508,-0.0501099,0.0,0.0
2488,621.75,57.1335,62.0906,131.671,105.274,105.458,0.00437405,0.302282,20.6823,69.6606,-0.0157807,0.0,0.0
2496,623.75,56.5252,61.5278,132.739,105.237,105.318,0.00449373,0.287777,20.7012,69.5505,-0.00691134,0.0,0.0
2504,625.75,55.5445,61.0676,130.984,105.199,105.442,0.0046918,0.274038,20.7193,69.4104,-0.020852,0.0,0.0
2512,627.75,55.0926,60.2727,130.82,105.161,105.862,0.00484955,0.260727,20.7354,69.2703,-0.0601322,0.0,0.0
2520,629.75,54.2703,59.6086,130.055,105.097,106.033,0.00494648,0.24887,20.7511,69.1502,-0.0801807,0.0,0.0
2528,631.75,53.0632,59.3005,133.303,105.044,105.617,0.00500681,0.238782,20.7631,69.0201,-0.0491737,0.0,0.0
2536,633.75,52.2247,58.1419,129.602,104.991,105.65,0.00496564,0.229227,20.7735,68.93,-0.0565963,0.0,0.0
2544,635.75,51.843,57.7327,140.119,104.936,105.893,0.00496722,0.220331,20.7845,68.7999,-0.0821158,0.0,0.0
2552,637.75,51.3748,56.8073,133.41,104.898,105.773,0.00498946,0.211608,20.7945,68.6998,-0.0751652,0.0,0.0
2560,639.75,50.7086,55.9741,130.145,104.823,106.43,0.0050886,0.204094,20.8013,68.6197,-0.137606,0.0,0.0
2568,641.75,49.7821,55.5624,131.405,104.755,106.075,0.00520133,0.198347,20.8073,68.4996,-0.113228,0.0,0.0
2576,643.75,49.027,55.2047,133.537,104.679,105.486,0.00530462,0.192616,20.815,68.3895,-0.0694603,0.0,0.0
2584,645.75,48.4062,53.8832,136.929,104.617,106.52,0.00547215,0.187594,20.8208,68.3195,-0.163101,0.0,0.0
2592,647.75,47.5598,53.8112,132.842,104.543,106.236,0.00566485,0.183974,20.8246,68.2294,-0.145299,0.0,0.0
2600,649.75,47.3631,52.5233,133.632,104.485,105.232,0.00590785,0.181203,20.8282,68.1493,-0.0644426,0.0,0.0
2608,651.75,46.7301,52.0703,136.114,104.41,106.345,0.0061611,0.178145,20.8328,68.0592,-0.166064,0.0,0.0
2616,653.75,45.9189,51.7784,135.323,104.321,106.352,0.00639096,0.174421,20.8369,67.9592,-0.174425,0.0,0.0
2624,655.75,45.3146,51.2699,135.083,104.291,106.155,0.00647872,0.170993,20.8409,67.8691,-0.160254,0.0,0.0
2632,657.75,44.6345,50.7883,137.727,104.224,105.912,0.00644977,0.167731,20.846,67.799,-0.14527,0.0,0.0
2640,659.75,44.2905,50.1347,132.905,104.163,105.224,0.0065148,0.16421,20.851,67.7089,-0.0916856,0.0,0.0
2648,661.75,43.5185,49.9516,134.179,104.098,105.389,0.00667489,0.161189,20.8545,67.6389,-0.111425,0.0,0.0
2656,663.75,43.2293,48.9542,135.013,104.032,105.896,0.00677178,0.158519,20.8566,67.5188,-0.160626,0.0,0.0
2664,665.75,43.189,48.133,132.809,103.98,105.236,0.00683278,0.155914,20.8595,67.4587,-0.108595,0.0,0.0
2672,667.75,42.1881,48.1017,134.178,103.92,105.111,0.00675607,0.152646,20.8636,67.3987,-0.103042,0.0,0.0
2680,669.75,42.3348,47.0774,135.821,103.87,105.417,0.00655064,0.149267,20.8686,67.3286,-0.133714,0.0,0.0
2688,671.75,41.5246,46.7822,132.474,103.833,105.931,0.00637537,0.145844,20.8733,67.2886,-0.180971,0.0,0.0
2696,673.75,41.2769,45.9922,137.278,103.78,105.237,0.00627073,0.14221,20.8774,67.2085,-0.126116,0.0,0.0
2704,675.75,41.0208,45.9621,134.633,103.739,104.868,0.0063367,0.138789,20.8809,67.1685,-0.097968,0.0,0.0
2712,677.75,40.3005,45.6958,134.051,103.697,105.386,0.00643504,0.136259,20.8836,67.1284,-0.146142,0.0,0.0
2720,679.75,39.9856,45.0584,139.381,103.656,104.89,0.00646171,0.133378,20.888,67.0984,-0.107082,0.0,0.0
2728,681.75,39.3955,44.4783,134.87,103.626,104.954,0.00641761,0.130223,20.8909,67.0784,-0.115202,0.0,0.0
2736,683.75,38.2167,43.9818,135.274,103.597,104.864,0.006404,0.127696,20.8933,67.0484,-0.10992,0.0,0.0
2744,685.75,38.9814,43.6598,137.601,103.568,104.425,0.00653401,0.124539,20.8966,66.9883,-0.0745449,0.0,0.0
2752,687.75,38.7837,43.1476,139.245,103.549,104.095,0.00677951,0.121302,20.9006,66.9383,-0.047515,0.0,0.0
2760,689.75,37.5414,42.9497,135.326,103.517,104.145,0.00702912,0.11813,20.9059,66.9082,-0.0547323,0.0,0.0
2768,691.75,37.0921,42.2687,137.678,103.491,104.269,0.00715102,0.11506,20.9101,66.8682,-0.0676991,0.0,0.0
2776,693.75,37.2093,41.5823,139.061,103.487,104.222,0.00732539,0.111537,20.9145,66.8182,-0.0640267,0.0,0.0
2784,695.75,36.4754,41.0196,136.433,103.474,104.779,0.00762231,0.108173,20.9182,66.7981,-0.113427,0.0,0.0
2792,697.75,36.0942,40.8177,134.389,103.475,104.662,0.0079955,0.105982,20.9204,66.7781,-0.103175,0.0,0.0
2800,699.75,35.3792,40.3816,137.839,103.472,104.81,0.00822699,0.105846,20.9207,66.7381,-0.116266,0.0,0.0
2808,701.75,35.5877,39.552,137.907,103.478,104.276,0.00836162,0.106763,20.9201,66.7081,-0.0694869,0.0,0.0
2816,703.75,34.9571,39.1326,135.52,103.489,104.904,0.00859315,0.107067,20.9208,66.638,-0.122867,0.0,0.0
2824,705.75,34.8508,39.0496,137.062,103.496,104.097,0.00887264,0.105697,20.9234,66.628,-0.0523742,0.0,0.0
2832,707.75,34.291,38.6396,137.013,103.528,104.509,0.00901301,0.103288,20.9268,66.608,-0.0852703,0.0,0.0
2840,709.75,33.9814,37.8885,142.451,103.56,104.241,0.00914574,0.100241,20.9293,66.598,-0.0592546,0.0,0.0
2848,711.75,33.8639,37.7835,138.745,103.588,104.096,0.00946728,0.0960736,20.9342,66.588,-0.0442366,0.0,0.0
2856,713.75,33.509,37.195,137.054,103.627,104.45,0.00978152,0.0922511,20.939,66.568,-0.0715496,0.0,0.0
2864,715.75,32.8862,36.8364,140.678,103.681,104.406,0.00986275,0.089049,20.9424,66.5279,-0.0630771,0.0,0.0
2872,717.75,32.5602,36.7602,137.727,103.711,103.967,0.00977333,0.0871561,20.9439,66.4979,-0.0222496,0.0,0.0
2880,719.75,32.5224,36.0575,139.377,103.741,104.204,0.00983028,0.0873762,20.9436,66.4779,-0.0402747,0.0,0.0
2888,721.75,32.0688,36.043,139.421,103.804,104.275,0.0100483,0.0893623,20.9418,66.4478,-0.0409701,0.0,0.0
2896,723.75,32.0069,35.5079,133.634,103.843,104.353,0.0103354,0.0910966,20.941,66.4178,-0.0442869,0.0,0.0
2904,725.75,31.6943,35.1379,138.845,103.895,104.054,0.0105398,0.0913371,20.9418,66.3978,-0.0138031,0.0,0.0
2912,727.75,31.7731,34.6961,139.651,103.941,104.252,0.0105817,0.0895586,20.9437,66.3678,-0.0270249,0.0,0.0
2920,729.75,31.3196,34.2977,140.889,103.995,104.816,0.0105213,0.0870955,20.9467,66.3578,-0.071085,0.0,0.0
2928,731.75,30.6983,34.106,139.1,104.037,104.271,0.0105796,0.0843501,20.9482,66.3377,-0.0203365,0.0,0.0
2936,733.75,30.794,33.8669,140.703,104.081,104.879,0.0107718,0.0823009,20.9505,66.3077,-0.0690137,0.0,0.0
2944,735.75,30.4459,33.252,137.377,104.16,104.631,0.0109002,0.0802673,20.9522,66.2677,-0.0407519,0.0,0.0
2952,737.75,30.2826,33.1661,141.425,104.216,104.573,0.0109108,0.0790431,20.953,66.2377,-0.0308738,0.0,0.0
2960,739.75,30.3149,32.9292,137.591,104.278,104.636,0.010931,0.0790004,20.9525,66.1876,-0.0309972,0.0,0.0
2968,741.75,29.9787,32.9938,139.372,104.355,104.143,0.0109286,0.0798503,20.9513,66.1776,0.0184095,0.0,0.0
2976,743.75,28.1017,30.8112,140.806,104.408,104.766,0.0108087,0.0803055,20.9508,66.1376,-0.0310156,0.0,0.0
2984,745.75,27.8423,30.6126,141.846,104.47,104.858,0.0106257,0.0797654,20.9519,66.1076,-0.0335137,0.0,0.0
2992,747.75,27.6555,30.3978,139.24,104.54,104.954,0.0105556,0.0784446,20.9535,66.0675,-0.0357501,0.0,0.0
3000,749.75,27.4174,30.3513,137.576,104.589,104.647,0.0106643,0.0772091,20.9543,66.0975,-0.00505759,0.0,0.0
3008,751.75,27.3293,30.1883,138.551,104.648,104.9,0.0108888,0.0765803,20.9553,66.0775,-0.0217756,0.0,0.0
3016,753.75,26.7157,29.4514,140.127,104.684,105.442,0.011054,0.0759548,20.9568,66.0375,-0.0652599,0.0,0.0
3024,755.75,27.3187,29.7715,139.977,104.745,105.308,0.0111569,0.0753506,20.9583,66.0675,-0.0485682,0.0,0.0
3032,757.75,26.9293,28.9387,139.547,104.773,105.341,0.0112072,0.0750642,20.959,66.0775,-0.0488831,0.0,0.0
3040,759.75,26.9232,29.1374,140.447,104.809,105.6,0.0109894,0.075197,20.9592,66.0375,-0.0680315,0.0,0.0
3048,761.75,27.0808,29.0343,141.739,104.838,104.907,0.0108196,0.0749451,20.9593,66.0375,-0.00594989,0.0,0.0
3056,763.75,26.7611,28.8191,139.016,104.856,105.614,0.0108794,0.0744059,20.9594,65.9774,-0.0651806,0.0,0.0
3064,765.75,26.8159,28.4098,141.809,104.874,104.924,0.0109402,0.0746576,20.9594,65.9774,-0.00430076,0.0,0.0
3072,767.75,26.173,28.0996,140.828,104.88,105.178,0.0109439,0.0748866,20.9594,65.9975,-0.0256472,0.0,0.0
3080,769.75,26.0842,28.3049,142.776,104.889,104.936,0.0109586,0.0751403,20.9594,65.9774,-0.0040726,0.0,0.0
3088,771.75,25.9242,27.8993,137.679,104.889,106.092,0.0108609,0.0751636,20.9594,65.9674,-0.103137,0.0,0.0
3096,773.75,26.1652,27.6198,138.595,104.875,105.106,0.0106658,0.0750743,20.9594,65.9674,-0.0199177,0.0,0.0
3104,775.75,25.7359,27.7008,141.577,104.857,104.87,0.0104589,0.0751349,20.9607,65.9574,-0.00113607,0.0,0.0
3112,777.75,26.2551,27.3763,139.471,104.833,105.434,0.01034,0.0751822,20.961,65.9474,-0.0516622,0.0,0.0
3120,779.75,26.0533,26.9967,139.381,104.805,105.397,0.0102811,0.0753641,20.9604,65.9174,-0.050985,0.0,0.0
3128,781.75,25.9552,27.048,139.79,104.788,105.367,0.0103218,0.0758668,20.9595,65.9074,-0.049809,0.0,0.0
3136,783.75,25.2499,27.1115,140.235,104.77,105.594,0.0105,0.0762616,20.9591,65.8773,-0.070873,0.0,0.0
3144,785.75,25.5663,26.495,137.828,104.746,105.097,0.010644,0.0764651,20.9589,65.8573,-0.0302809,0.0,0.0
3152,787.75,25.631,26.8918,137.74,104.72,105.199,0.0106865,0.0766692,20.9588,65.8373,-0.0412382,0.0,0.0
3160,789.75,25.5536,26.8023,141.015,104.6875,104.843,0.0106824,0.0768311,20.9588,65.8073,-0.0134014,0.0,0.0
3168,791.75,25.4333,27.1092,139.639,104.636,104.631,0.0105862,0.0769639,20.9588,65.8273,0.000441016,0.0,0.0
3176,793.75,25.6337,26.7238,136.837,104.621,104.984,0.010353,0.0770246,20.9588,65.8073,-0.0313402,0.0,0.0
3184,795.75,25.4779,26.8671,136.879,104.595,105.146,0.0101517,0.0766687,20.9588,65.7873,-0.0474879,0.0,0.0
3192,797.75,25.3841,26.544,142.081,104.556,104.809,0.010093,0.0764036,20.9588,65.7673,-0.0218718,0.0,0.0
3200,799.75,25.2516,25.9828,140.572,104.538,104.731,0.0100916,0.0765014,20.9588,65.7372,-0.0167287,0.0,0.0
3208,801.75,25.4162,26.5067,142.627,104.508,104.983,0.0100787,0.0766038,20.9588,65.7272,-0.0410259,0.0,0.0
3216,803.75,25.3514,25.9375,139.635,104.477,104.428,0.0100413,0.0767798,20.9588,65.6471,0.00423028,0.0,0.0
3224,805.75,25.1056,26.1828,140.08,104.447,104.329,0.0100494,0.0770194,20.9588,65.6672,0.0102693,0.0,0.0
3232,807.75,25.0892,25.9807,139.903,104.447,104.119,0.01008,0.0772809,20.9586,65.6071,0.0284559,0.0,0.0
3240,809.75,25.0341,26.081,138.691,104.417,104.674,0.0101079,0.0774117,20.9574,65.5671,-0.022168,0.0,0.0
3248,811.75,24.9022,25.348,143.63,104.5,104.347,0.0101366,0.0772929,20.9569,65.5371,0.0132653,0.0,0.0
3256,813.75,25.0806,25.7409,139.031,104.628,104.916,0.010145,0.0770903,20.9571,65.527,-0.0248216,0.0,0.0
3264,815.75,24.4779,25.4802,137.391,104.725,104.614,0.0101526,0.0772369,20.9585,65.527,0.00956382,0.0,0.0
3272,817.75,24.9894,25.6664,142.76,104.831,104.841,0.0100956,0.0775426,20.9591,65.447,-0.00087293,0.0,0.0
3280,819.75,25.009,25.7163,138.123,104.91,105.242,0.0100148,0.0775405,20.9594,65.437,-0.0285857,0.0,0.0
3288,821.75,24.7595,25.7086,141.451,104.984,105.194,0.009939,0.0774837,20.9595,65.487,-0.0181267,0.0,0.0
3296,823.75,24.8552,25.4567,141.255,105.042,105.364,0.0098856,0.0775387,20.9578,65.437,-0.0276695,0.0,0.0
3304,825.75,24.8935,24.8769,140.18,105.096,105.292,0.00987417,0.0775035,20.9567,65.437,-0.0168486,0.0,0.0
3312,827.75,24.2394,25.1406,135.959,105.148,105.141,0.00987678,0.0773514,20.9562,65.487,0.000635099,0.0,0.0
3320,829.75,24.5971,25.2336,137.675,105.19,105.663,0.0100407,0.0773864,20.956,65.447,-0.0406143,0.0,0.0
3328,831.75,24.7949,25.2529,138.506,105.207,105.408,0.0103372,0.077625,20.9559,65.467,-0.0172078,0.0,0.0
3336,833.75,24.8138,24.9846,137.91,105.248,106.182,0.0104944,0.078165,20.9559,65.427,-0.0798701,0.0,0.0
3344,835.75,24.3114,24.7817,137.981,105.269,105.371,0.0104697,0.0782525,20.9558,65.3869,-0.00882322,0.0,0.0
3352,837.75,24.4059,25.0545,139.167,105.295,105.734,0.0103122,0.0783848,20.9554,65.3969,-0.0376242,0.0,0.0
3360,839.75,24.5073,25.0259,138.861,105.296,105.759,0.0101355,0.0788171,20.9543,65.3869,-0.0397034,0.0,0.0
3368,841.75,24.7458,25.2069,140.378,105.304,105.52,0.00994936,0.0788857,20.9547,65.3669,-0.0185578,0.0,0.0
3376,843.75,24.4259,24.9597,139.291,105.322,105.507,0.0098544,0.0789337,20.9541,65.3469,-0.0159158,0.0,0.0
3384,845.75,24.1767,24.5578,142.644,105.32,105.75,0.00982725,0.0790299,20.955,65.3169,-0.0368007,0.0,0.0
3392,847.75,24.5454,24.7571,141.206,105.317,105.721,0.0098285,0.0793962,20.9562,65.2968,-0.0345847,0.0,0.0
3400,849.75,24.059,24.3282,139.274,105.312,105.53,0.00982745,0.0800046,20.9567,65.2768,-0.0187426,0.0,0.0
3408,851.75,23.9507,24.2078,138.946,105.294,105.305,,0.0803913,,65.2768,-0.000927929,0.0,0.0
3416,853.75,24.4439,24.8718,140.696,105.294,105.401,,,,65.2368,-0.00912599,0.0,0.0
3424,855.75,24.2064,24.7765,140.154,105.274,105.471,,,,65.2368,-0.0169426,0.0,0.0
3432,857.75,24.1391,24.369,141.118,105.258,105.429,,,,65.1968,-0.0146871,0.0,0.0
3440,859.75,23.561,24.443,142.866,105.244,105.509,,,,65.2068,-0.0227928,0.0,0.0
3444,860.75,23.9601,24.7632,140.084,105.229,105.727,,,,65.1968,-0.0426958,0.0,0.0