File: 01_Data/Engineered_Flooring/Cone/Engineered_Hardwood_Flooring_Cone_HF75Scan_220524_R2.csv
Names,Time,Stack TC,Smoke TC,Exh Press,Smoke Comp,Smoke Meas,CO Meter,CO2 Meter,O2 Meter,Sample Mass,Ext Coeff,Start Test,Flame Verif
Chan Gain,,500,500,1,1,1,1,1,1,1,1,1.0,1.0
Offset,,0,0,0.138596,0,0,0,0,0,0,0,0.0,0.0
Gain,,1,1,25.011,13.8491,15.2622,1,1,1,1.00087,1.03118,1.0,1.0
Units,sec,C,C,Pa,%,%,%,%,%,g,/m,,
Baseline,,35.0605,36.7293,135.862,104.778,108.762,0.000799654,0.0481596,20.9861,-452.693,-0.337503,,
18,4.25,33.075,35.1037,131.239,105.461,109.869,0.00042225,0.0508974,20.9853,118.593,-0.37038,0.0,0.0
36,8.75,34.0249,35.1439,132.173,105.486,109.087,0.000472812,0.0502846,20.985,118.373,-0.303664,0.0,0.0
54,13.25,34.2554,35.9228,134.572,105.509,109.383,0.00201212,0.08595,20.8987,118.143,-0.326162,0.0,0.0
72,17.75,40.2892,39.1482,103.816,105.527,103.561,0.00605625,0.519206,20.3822,117.132,0.1701,0.0,1.0
90,22.25,48.9109,45.5959,112.362,105.513,100.182,0.00831353,0.79248,20.0687,116.011,0.46898,0.0,0.0
108,26.75,55.7047,52.4576,111.533,105.496,103.417,0.00888235,0.834846,20.0226,114.96,0.180034,0.0,0.0
126,31.25,62.0043,58.7865,102.986,105.42,104.918,0.00861966,0.88473,19.9628,113.679,0.0431606,0.0,0.0
144,35.75,68.8157,65.3273,104.039,105.308,103.642,0.0080678,0.899039,19.9518,112.618,0.144206,0.0,0.0
162,40.25,73.233,70.3823,106.457,105.13,105.861,0.00733959,0.852117,20.0028,111.397,-0.0627035,0.0,0.0
180,44.75,76.3008,74.4544,107.782,105.002,106.605,0.0068789,0.788449,20.0702,110.386,-0.137064,0.0,0.0
198,49.25,78.6932,78.2372,111.684,105.084,106.967,0.00650487,0.724061,20.1522,109.395,-0.160658,0.0,0.0
216,53.75,80.2508,80.3315,109.179,105.16,106.853,0.00602842,0.66543,20.2227,108.534,-0.144464,0.0,0.0
234,58.25,80.8172,81.5915,114.941,105.272,109.433,0.00541692,0.615864,20.2832,107.704,-0.350707,0.0,0.0
252,62.75,80.8848,82.652,112.654,105.361,108.691,0.00497106,0.575565,20.3361,106.793,-0.281472,0.0,0.0
270,67.25,80.9958,83.8103,114.251,105.48,109.281,0.00428047,0.542769,20.3688,106.072,-0.320148,0.0,0.0
288,71.75,80.5439,84.0948,113.702,105.569,109.228,0.00444089,0.514898,20.4033,105.232,-0.308258,0.0,0.0
306,76.25,80.188,84.1803,112.244,105.684,110.514,0.00441891,0.489342,20.4376,104.471,-0.404286,0.0,0.0
324,80.75,79.4862,84.2557,120.311,105.791,110.835,0.00427012,0.470197,20.4585,103.69,-0.421257,0.0,0.0
342,85.25,79.05,84.3401,117.875,105.849,112.057,0.00409457,0.45458,20.4788,102.99,-0.515505,0.0,0.0
360,89.75,79.0569,84.6329,117.505,105.883,111.298,0.00369693,0.442744,20.4932,102.329,-0.451161,0.0,0.0
378,94.25,78.0927,84.5428,116.988,105.817,112.294,0.00346015,0.433137,20.5056,101.608,-0.537441,0.0,0.0
396,98.75,78.0597,84.2266,113.443,105.66,111.172,0.00344454,0.427177,20.514,100.958,-0.459983,0.0,0.0
414,103.25,77.356,84.0757,118.977,105.384,110.604,0.00352086,0.421842,20.5217,100.217,-0.43725,0.0,0.0
432,107.75,77.1607,83.8099,114.85,105.059,110.704,0.00363805,0.41578,20.5301,99.5467,-0.473449,0.0,0.0
450,112.25,76.0489,84.1794,112.096,104.697,110.129,0.00374241,0.413878,20.5329,98.796,-0.457493,0.0,0.0
468,116.75,76.5806,83.4423,117.039,104.362,110.713,0.00342239,0.414895,20.5345,98.1154,-0.534341,0.0,0.0
486,121.25,76.8825,83.5491,115.895,104.113,109.682,0.00350045,0.414846,20.5348,97.4248,-0.47141,0.0,0.0
504,125.75,76.614,83.4111,117.264,103.938,109.529,0.00343365,0.415513,20.5348,96.7342,-0.473904,0.0,0.0
522,130.25,75.8789,83.4943,116.908,103.887,109.349,0.00335858,0.414913,20.5348,96.0536,-0.463496,0.0,0.0
540,134.75,76.233,83.2046,117.318,103.904,109.788,0.00338565,0.416804,20.5329,95.313,-0.498208,0.0,0.0
558,139.25,76.5227,83.1746,118.472,104.037,109.737,0.00333093,0.416729,20.5349,94.6424,-0.48248,0.0,0.0
576,143.75,76.0523,83.4316,119.258,104.2,109.119,0.00364042,0.416625,20.5357,93.9318,-0.417251,0.0,0.0
594,148.25,76.3942,82.829,115.876,104.416,109.819,0.00361125,0.416423,20.5358,93.3112,-0.456407,0.0,0.0
612,152.75,75.9592,83.6069,117.924,104.626,109.289,0.00374118,0.415863,20.5358,92.5706,-0.394426,0.0,0.0
630,157.25,76.6603,83.3973,116.58,104.834,109.761,0.00383009,0.418733,20.5341,91.91,-0.415433,0.0,0.0
648,161.75,76.4858,83.3724,115.72,105.029,110.304,0.00391807,0.420353,20.5333,91.2494,-0.443246,0.0,0.0
666,166.25,76.5952,83.4407,119.258,105.144,109.521,0.00389915,0.419132,20.5356,90.5488,-0.368953,0.0,0.0
684,170.75,76.8506,83.5803,116.864,105.202,109.264,0.00374081,0.418418,20.5362,89.9183,-0.342677,0.0,0.0
702,175.25,76.3836,82.9475,116.886,105.174,110.164,0.00367129,0.418518,20.5362,89.2077,-0.419341,0.0,0.0
720,179.75,76.4292,83.6164,116.444,105.162,109.051,0.00396244,0.418705,20.5355,88.497,-0.32853,0.0,0.0
738,184.25,75.84,83.4041,117.352,105.06,109.191,0.00407663,0.418788,20.5354,87.8865,-0.348803,0.0,0.0
756,188.75,76.2022,82.9523,116.862,104.966,109.172,0.00421589,0.418096,20.5374,87.276,-0.35538,0.0,0.0
774,193.25,76.2241,83.4846,122.28,104.843,107.977,0.00425234,0.421635,20.5305,86.5654,-0.266414,0.0,0.0
792,197.75,76.416,82.622,115.498,104.759,107.453,0.00440557,0.42921,20.5204,85.8948,-0.229744,0.0,0.0
810,202.25,76.1369,82.9544,116.598,104.692,108.52,0.0044048,0.434919,20.5155,85.2342,-0.324896,0.0,0.0
828,206.75,76.8505,82.64,119.384,104.624,108.03,0.00425908,0.432885,20.5153,84.5436,-0.289767,0.0,0.0
846,211.25,77.0342,83.3591,118.406,104.598,107.635,0.00426411,0.446816,20.4988,83.883,-0.258825,0.0,0.0
864,215.75,76.7218,83.3796,117.523,104.547,108.172,0.00453872,0.455462,20.4871,83.1524,-0.308382,0.0,0.0
882,220.25,77.8586,83.6454,114.571,104.532,106.655,0.00446951,0.465999,20.4746,82.5218,-0.181833,0.0,0.0
900,224.75,78.5786,83.5531,113.263,104.572,107.559,0.00486738,0.481806,20.4523,81.7912,-0.254709,0.0,0.0
918,229.25,78.8311,84.6915,112.895,104.689,106.837,0.00495343,0.49372,20.4406,81.0406,-0.183707,0.0,0.0
936,233.75,79.6169,85.1051,113.908,104.743,106.458,0.00553962,0.509432,20.4177,80.2198,-0.14684,0.0,0.0
954,238.25,80.78,85.7891,118.832,104.762,106.61,0.005752,0.528313,20.3928,79.4792,-0.15813,0.0,0.0
972,242.75,81.5709,86.3457,109.224,104.785,106.155,0.00595939,0.551951,20.3616,78.6685,-0.117543,0.0,0.0
990,247.25,82.4625,87.1852,117.702,104.744,106.219,0.00646822,0.578426,20.3321,77.8778,-0.126442,0.0,0.0
1008,251.75,83.8053,88.9649,112.797,104.6875,105.428,0.00647413,0.608016,20.3006,77.0371,-0.0637324,0.0,0.0
1026,256.25,85.087,90.0862,109.696,104.656,103.588,0.00677487,0.636383,20.2669,76.1163,0.0927659,0.0,0.0
1044,260.75,86.4891,91.2008,108.194,104.617,104.022,0.00737418,0.665518,20.2302,75.2255,0.0515061,0.0,0.0
1062,265.25,88.0771,93.1536,108.104,104.562,102.526,0.00781858,0.701952,20.1857,74.1646,0.177944,0.0,0.0
1080,269.75,90.1543,94.6117,107.999,104.505,102.424,0.00847989,0.745941,20.1375,73.1637,0.181897,0.0,0.0
1098,274.25,92.2415,96.3237,106.259,104.528,101.948,0.00921006,0.783475,20.0971,72.1028,0.226003,0.0,0.0
1116,278.75,93.9172,98.5808,106.168,104.541,99.886,0.00975455,0.83661,20.0272,70.9217,0.412039,0.0,0.0
1134,283.25,96.4488,100.784,106.705,104.584,99.9289,0.00957877,0.88432,19.9715,69.8008,0.411889,0.0,0.0
1152,287.75,98.2181,102.844,102.824,104.592,97.3569,0.00909448,0.943462,19.8909,68.4896,0.64837,0.0,0.0
1170,292.25,100.393,105.206,103.42,104.63,100.267,0.00876747,0.984553,19.8502,67.3787,0.385357,0.0,0.0
1188,296.75,101.521,106.673,100.039,104.634,99.7785,0.00841616,0.93398,19.8908,66.3077,0.429792,0.0,0.0
1206,301.25,101.53,107.558,108.275,104.661,96.7296,0.0084676,0.858366,19.977,65.3169,0.712841,0.0,0.0
1224,305.75,101.601,107.965,106.175,104.663,98.9014,0.00888746,0.805045,20.0397,64.3861,0.512173,0.0,0.0
1242,310.25,101.105,108.365,107.856,104.639,101.697,0.00808265,0.73175,20.1307,63.6054,0.257997,0.0,0.0
1260,314.75,100.268,107.647,112.407,104.614,103.404,0.00657348,0.614808,20.2717,62.9748,0.105272,0.0,0.0
1278,319.25,97.1868,106.305,120.322,104.57,106.604,0.004674,0.48787,20.4172,62.5244,-0.17431,0.0,0.0
1296,323.75,94.6797,103.371,123.769,104.556,110.132,0.00317786,0.367162,20.5619,62.1941,-0.47,0.0,0.0
1314,328.25,90.9523,100.988,122.366,104.535,111.833,0.00230008,0.263783,20.6979,61.9339,-0.610468,0.0,0.0
1332,332.75,87.0755,97.4577,126.731,104.765,112.746,0.00175784,0.196966,20.7811,61.7538,-0.664134,0.0,0.0
1350,337.25,82.91,94.2687,123.645,104.958,112.157,0.00170555,0.160673,20.8259,61.6136,-0.600041,0.0,0.0
1368,341.75,79.7232,91.1147,125.777,105.134,112.532,0.00159742,0.143196,20.8478,61.5236,-0.615129,0.0,0.0
1386,346.25,77.1299,87.798,123.526,105.267,112.859,0.00174477,0.133974,20.855,61.4435,-0.629999,0.0,0.0
1404,350.75,74.6445,85.0615,126.476,105.364,112.896,0.00169738,0.127675,20.864,61.3134,-0.624562,0.0,0.0
1422,355.25,72.4973,82.4902,125.472,105.432,112.437,0.00152014,0.122643,20.872,61.2733,-0.581889,0.0,0.0
1440,359.75,69.6894,80.2383,125.129,105.459,113.24,0.00155246,0.118967,20.8774,61.1933,-0.643974,0.0,0.0
1458,364.25,68.8908,78.5831,125.477,105.464,112.813,0.0014814,0.116401,20.8809,61.1532,-0.609357,0.0,0.0
1476,368.75,67.2645,76.789,127.017,105.412,112.236,0.00158669,0.114103,20.8838,61.0532,-0.567354,0.0,0.0
1494,373.25,65.5228,74.571,127.67,105.339,112.541,0.00131869,0.111589,20.8884,60.9931,-0.598221,0.0,0.0
1512,377.75,63.9964,72.9232,129.124,105.212,111.59,0.00149767,0.110118,20.8904,60.903,-0.532346,0.0,0.0
1530,382.25,63.012,71.294,124.609,105.015,112.498,0.00158322,0.108074,20.8952,60.8029,-0.622545,0.0,0.0
1548,386.75,62.0272,69.547,129.28,104.996,112.185,0.00155447,0.107632,20.8964,60.8229,-0.598981,0.0,0.0
1566,391.25,61.3424,68.7488,133.06,105.089,112.333,0.00178872,0.11061,20.8942,60.7529,-0.603019,0.0,0.0
1584,395.75,60.3714,67.3031,129.824,105.207,112.826,0.00183322,0.115753,20.8922,60.6828,-0.632396,0.0,0.0
1602,400.25,59.7514,66.3542,128.073,105.349,111.951,0.00190941,0.114276,20.8944,60.6028,-0.549868,0.0,0.0
1620,404.75,58.9775,65.1517,125.845,105.487,111.011,0.00203466,0.111577,20.8993,60.6028,-0.461708,0.0,0.0
1638,409.25,58.5673,64.0723,127.702,105.621,112.328,0.00208201,0.110261,20.9007,60.5027,-0.556885,0.0,0.0
1656,413.75,57.8399,63.6288,124.369,105.741,112.446,0.0022504,0.110357,20.899,60.4726,-0.556095,0.0,0.0
1674,418.25,57.3791,62.6456,126.915,105.818,113.132,0.00225932,0.110504,20.8999,60.4126,-0.604504,0.0,0.0
1692,422.75,56.6745,61.8942,129.537,105.847,112.49,0.00228039,0.109362,20.9012,60.3525,-0.550584,0.0,0.0
1710,427.25,56.4714,61.3676,129.44,105.843,113.441,0.00202766,0.109949,20.9012,60.3525,-0.627103,0.0,0.0
1728,431.75,56.5916,60.7918,129.779,105.737,112.192,0.00204472,0.110741,20.8991,60.2825,-0.536052,0.0,0.0
1746,436.25,56.0294,59.8773,127.107,105.608,112.389,0.00225189,0.113561,20.8978,60.2725,-0.56292,0.0,0.0
1764,440.75,55.6623,59.3532,129.749,105.391,112.352,0.00229321,0.114009,20.8984,60.1724,-0.578547,0.0,0.0
1782,445.25,54.8777,58.9948,127.679,105.154,111.864,0.00259921,0.112765,20.9005,60.1724,-0.559536,0.0,0.0
1800,449.75,55.4301,58.097,125.747,104.87,112.052,0.0026297,0.112824,20.9017,60.0723,-0.599201,0.0,0.0
1818,454.25,54.7945,58.0504,128.424,104.584,110.986,0.00255372,0.111772,20.9031,60.0523,-0.537403,0.0,0.0
1836,458.75,54.1283,57.5893,126.783,104.335,110.739,0.00289955,0.11138,20.904,60.0122,-0.538816,0.0,0.0
1854,463.25,54.0155,57.2877,127.318,104.104,111.544,0.00304843,0.111513,20.9042,59.9722,-0.624423,0.0,0.0
1872,467.75,54.6135,57.4308,128.715,103.962,110.371,0.00272747,0.10987,20.9059,59.9522,-0.541161,0.0,0.0
1890,472.25,54.0574,56.2482,131.774,103.907,110.022,0.00297659,0.110036,20.9064,59.8621,-0.517269,0.0,0.0
1908,476.75,53.9273,56.6498,128.616,103.923,110.273,0.00348358,0.110798,20.9065,59.8521,-0.536487,0.0,0.0
1926,481.25,53.8432,56.3235,130.441,104.01,111.395,0.00350111,0.111328,20.9063,59.772,-0.620447,0.0,0.0
1944,485.75,53.613,55.6979,127.574,104.19,110.793,0.00335541,0.111471,20.9062,59.772,-0.555807,0.0,0.0
1962,490.25,53.8132,55.9365,125.46,104.414,110.998,0.00341417,0.111719,20.9062,59.702,-0.553133,0.0,0.0
1980,494.75,53.3904,55.7787,126.573,104.648,111.308,0.00377999,0.111934,20.9062,59.6319,-0.558114,0.0,0.0
1998,499.25,53.2446,55.1454,130.768,104.876,111.464,0.003926,0.111814,20.9062,59.6219,-0.551153,0.0,0.0
2016,503.75,52.9828,54.9916,130.85,105.047,111.425,0.00422296,0.112697,20.9062,59.5819,-0.533153,0.0,0.0
2034,508.25,53.0279,54.9586,131.628,105.19,111.429,0.00425521,0.112718,20.9062,59.5518,-0.521162,0.0,0.0
2052,512.75,52.8537,55.869,128.739,105.212,110.877,0.00417038,0.111775,20.9062,59.5018,-0.474357,0.0,0.0
2070,517.25,53.1125,55.1186,129.708,105.169,111.629,0.00436093,0.111695,20.9062,59.4718,-0.539225,0.0,0.0
2088,521.75,52.7317,54.6035,130.674,105.044,111.224,0.00437821,0.112328,20.9062,59.4117,-0.517059,0.0,0.0
2106,526.25,52.4363,54.3956,127.428,104.849,110.656,0.00444943,0.112302,20.9086,59.3917,-0.487559,0.0,0.0
2124,530.75,52.7828,54.0101,126.457,104.711,112.549,0.00462429,0.112292,20.9113,59.3316,-0.65295,0.0,0.0
2142,535.25,52.7649,54.4667,125.232,104.575,111.008,0.00459842,0.112038,20.9121,59.3417,-0.539953,0.0,0.0
2160,539.75,52.9793,54.5966,131.766,104.709,111.125,0.0045783,0.111146,20.9137,59.3116,-0.537969,0.0,0.0
2178,544.25,52.3028,53.7983,128.321,105.114,111.634,0.00452496,0.111203,20.9137,59.2115,-0.54444,0.0,0.0
2196,548.75,52.8994,54.4963,132.868,105.368,112.337,0.00457104,0.111153,20.9137,59.2216,-0.579269,0.0,0.0
2214,553.25,52.5779,54.3112,129.343,105.431,112.466,0.00492211,0.112134,20.9112,59.1615,-0.584284,0.0,0.0
2232,557.75,52.9208,54.1586,127.097,105.362,111.977,0.00506715,0.112001,20.9101,59.1415,-0.550811,0.0,0.0
2250,562.25,52.4005,54.1293,133.978,105.109,111.402,0.0049774,0.112053,20.9099,59.0314,-0.525914,0.0,0.0
2268,566.75,52.0767,53.9141,130.066,104.958,112.265,0.00504588,0.112444,20.9091,59.0214,-0.608826,0.0,0.0
2286,571.25,52.2987,54.3041,128.485,105.127,112.1,0.005283,0.11248,20.9105,59.0214,-0.5809,0.0,0.0
2304,575.75,52.2649,53.9024,131.131,105.281,112.262,0.0053822,0.113246,20.9114,59.0414,-0.580779,0.0,0.0
2322,580.25,52.4316,54.1665,128.93,105.476,111.843,0.00541477,0.113197,20.9112,59.0014,-0.530142,0.0,0.0
2340,584.75,52.6037,54.2277,125.687,105.609,113.068,0.00536105,0.114277,20.9095,58.8913,-0.617264,0.0,0.0
2358,589.25,51.5859,53.687,130.325,105.711,112.415,0.00541226,0.114146,20.9097,58.8512,-0.556226,0.0,0.0
2376,593.75,51.817,53.5437,128.795,105.74,112.375,0.00543486,0.113082,20.9117,58.7812,-0.550471,0.0,0.0
2394,598.25,52.0729,53.3141,129.588,105.785,112.853,0.00568475,0.112239,20.9108,58.7211,-0.585061,0.0,0.0
2412,602.75,52.1795,53.699,130.07,105.79,112.763,0.00583594,0.11312,20.9097,58.7612,-0.577382,0.0,0.0
2430,607.25,51.9728,53.6597,133.249,105.778,112.628,0.00603095,0.112631,20.9102,58.6511,-0.567551,0.0,0.0
2448,611.75,51.601,53.1254,126.123,105.748,113.16,0.00578897,0.112431,20.9099,58.6511,-0.612773,0.0,0.0
2466,616.25,51.4211,53.0448,127.956,105.72,111.732,0.0058605,0.111962,20.9099,58.601,-0.50032,0.0,0.0
2484,620.75,51.6664,52.5841,128.566,105.721,112.025,0.00609269,0.112332,20.9114,58.591,-0.523898,0.0,0.0
2502,625.25,51.4682,53.3257,128.533,105.669,112.783,0.00602766,0.111752,20.9128,58.4909,-0.58933,0.0,0.0
2520,629.75,51.1374,52.6519,127.799,105.678,113.021,0.00610653,0.112343,20.9115,58.4709,-0.607638,0.0,0.0
2538,634.25,51.4941,53.106,132.806,105.669,112.764,0.0064319,0.113055,20.9114,58.4409,-0.587797,0.0,0.0
2556,638.75,51.7693,53.193,129.036,105.681,111.846,0.00664106,0.111727,20.912,58.3708,-0.512882,0.0,0.0
2574,643.25,51.6674,52.9255,130.365,105.703,112.185,0.00670507,0.112408,20.9102,58.3608,-0.538417,0.0,0.0
2592,647.75,51.2914,52.9863,128.397,105.735,111.457,0.00670967,0.111689,20.9112,58.3008,-0.476705,0.0,0.0
2610,652.25,51.6727,53.3378,127.096,105.772,113.029,0.00653563,0.112418,20.9114,58.2707,-0.600282,0.0,0.0
2628,656.75,51.3262,53.0213,127.226,105.769,111.798,0.00652433,0.111869,20.9114,58.1907,-0.501515,0.0,0.0
2646,661.25,51.36,52.614,128.088,105.783,112.591,0.00663025,0.11194,20.9114,58.1806,-0.564198,0.0,0.0
2664,665.75,51.031,52.4035,128.463,105.757,111.918,0.00673288,0.112228,20.9118,58.0806,-0.512171,0.0,0.0
2682,670.25,51.2129,53.3889,126.807,105.752,113.671,0.00684828,0.111267,20.9125,58.0405,-0.653162,0.0,0.0
2700,674.75,51.2792,53.0985,127.158,105.736,113.635,0.00687862,0.111301,20.9128,58.0806,-0.651718,0.0,0.0
2718,679.25,50.9194,53.0795,130.378,105.704,112.276,0.00668071,0.11152,20.9145,57.9905,-0.545629,0.0,0.0
2736,683.75,51.1384,53.0557,125.919,105.687,112.447,0.00687215,0.111047,20.9151,57.9605,-0.560764,0.0,0.0
2754,688.25,50.797,52.3118,131.513,105.66,112.581,0.00711459,0.111189,20.9142,57.7903,-0.573899,0.0,0.0
2772,692.75,50.4382,52.066,129.904,105.668,111.904,0.00711589,0.110299,20.9117,57.8303,-0.518598,0.0,0.0
2790,697.25,50.9753,52.4812,129.428,105.668,111.865,0.00721639,0.111299,20.9099,57.7503,-0.515545,0.0,0.0
2808,701.75,50.2952,52.8911,128.025,105.706,112.052,0.00711574,0.111131,20.9096,57.7803,-0.527381,0.0,0.0
2826,706.25,50.8717,52.6842,133.052,105.716,112.345,0.00723379,0.111877,20.9095,57.7403,-0.550169,0.0,0.0
2844,710.75,50.6867,53.1503,130.873,105.741,111.91,0.00725809,0.110984,20.9112,57.7303,-0.512904,0.0,0.0
2862,715.25,50.7558,53.4086,127.424,105.775,112.694,0.00718867,0.11057,20.914,57.6802,-0.573116,0.0,0.0
2880,719.75,50.9628,52.5221,129.15,105.784,112.281,0.00770667,0.11087,20.9137,57.5801,-0.539098,0.0,0.0
2898,724.25,50.3223,52.7228,128.504,105.804,112.618,0.00797782,0.110636,20.9135,57.5701,-0.564561,0.0,0.0
2916,728.75,51.2397,52.4229,128.205,105.791,112.063,0.00801625,0.110186,20.9154,57.44,-0.520941,0.0,0.0
2934,733.25,50.4821,52.5537,128.185,105.799,112.945,0.00786726,0.109968,20.9141,57.48,-0.591183,0.0,0.0
2952,737.75,50.8306,52.2418,129.736,105.763,112.583,0.00783793,0.110308,20.9137,57.3599,-0.565261,0.0,0.0
2970,742.25,50.5081,52.7409,126.559,105.742,111.237,0.00787134,0.109538,20.9148,57.3499,-0.458267,0.0,0.0
2988,746.75,50.9726,52.7332,127.994,105.682,112.542,0.00819922,0.109539,20.915,57.2799,-0.568874,0.0,0.0
3006,751.25,50.7875,52.467,127.994,105.63,112.869,0.00824998,0.10962,20.9152,57.2598,-0.59953,0.0,0.0
3024,755.75,50.6111,52.6592,133.94,105.573,112.641,0.00826877,0.108864,20.9162,57.2298,-0.586219,0.0,0.0
3042,760.25,50.9362,52.707,130.611,105.454,111.428,0.00820198,0.108298,20.9152,57.1798,-0.498438,0.0,0.0
3060,764.75,50.2083,52.3754,128.54,105.339,111.31,0.00819215,0.107783,20.9146,57.2198,-0.49877,0.0,0.0
3078,769.25,50.9432,52.9778,125.381,105.17,111.566,0.00842194,0.108645,20.9126,57.1297,-0.53398,0.0,0.0
3096,773.75,50.327,52.1653,126.259,105.035,111.263,0.00837864,0.108345,20.9135,57.1097,-0.521004,0.0,0.0
3114,778.25,50.1587,52.4027,126.838,104.845,111.218,0.00831672,0.108218,20.9148,57.0096,-0.533724,0.0,0.0
3132,782.75,50.2774,52.4372,131.371,104.712,111.948,0.00838025,0.107597,20.9173,56.9596,-0.604421,0.0,0.0
3150,787.25,50.8765,52.5069,130.125,104.586,111.076,0.00850735,0.108236,20.9161,56.9095,-0.54458,0.0,0.0
3168,791.75,51.3599,53.4411,126.76,104.484,111.042,0.00859619,0.108003,20.9174,56.8895,-0.550662,0.0,0.0
3186,796.25,51.2285,53.1661,126.897,104.349,110.777,0.00856425,0.107282,20.9179,56.8995,-0.540728,0.0,0.0
3204,800.75,50.6372,53.033,125.932,104.215,110.986,0.0084798,0.107892,20.9179,56.8195,-0.569334,0.0,0.0
3222,805.25,50.6059,52.6272,131.724,104.133,110.513,0.00861487,0.107616,20.9178,56.8095,-0.537914,0.0,0.0
3240,809.75,50.9221,52.878,129.027,104.041,111.194,0.00876966,0.108342,20.9163,56.7094,-0.601449,0.0,0.0
3258,814.25,51.4496,53.2097,127.199,103.993,110.729,0.00867036,0.108148,20.9173,56.7194,-0.567708,0.0,0.0
3276,818.75,51.1672,52.8654,128.983,103.929,111.186,0.00870161,0.107368,20.9189,56.6393,-0.610547,0.0,0.0
3294,823.25,50.8795,53.118,129.519,103.898,110.887,0.008812,0.106617,20.9192,56.5793,-0.588911,0.0,0.0
3312,827.75,50.5696,52.9613,127.631,103.905,111.611,0.00916874,0.107014,20.9176,56.5793,-0.647137,0.0,0.0
3330,832.25,50.7172,52.9084,126.94,103.884,110.928,0.00931751,0.107289,20.9165,56.5292,-0.593432,0.0,0.0
3348,836.75,51.0889,52.9898,127.322,103.898,111.21,0.00922159,0.10701,20.9183,56.5292,-0.615203,0.0,0.0
3366,841.25,50.4397,52.8739,126.509,103.908,110.485,0.00898317,0.106262,20.9186,56.4491,-0.555104,0.0,0.0
3384,845.75,51.3502,52.8573,131.846,103.944,109.869,0.00911186,0.106616,20.9175,56.4391,-0.501388,0.0,0.0
3402,850.25,50.5482,52.9338,126.897,103.98,110.401,0.00904394,0.105796,20.9201,56.3591,-0.541948,0.0,0.0
3420,854.75,50.8545,53.207,129.295,104.062,110.475,0.00940899,0.106451,20.9197,56.309,-0.540995,0.0,0.0
3438,859.25,50.9219,53.3321,127.528,104.17,111.706,0.00963989,0.106582,20.92,56.269,-0.631794,0.0,0.0
3456,863.75,50.7001,52.4966,124.991,104.291,110.721,0.00924952,0.106926,20.9201,56.2189,-0.541145,0.0,0.0
3474,868.25,50.8893,53.2729,129.58,104.437,111.538,0.00940232,0.106218,20.9199,56.249,-0.595041,0.0,0.0
3492,872.75,50.944,53.0597,128.804,104.556,110.571,0.00973327,0.105738,20.9194,56.1789,-0.505892,0.0,0.0
3510,877.25,51.3409,52.8744,127.914,104.703,111.43,0.0099989,0.106048,20.9193,56.1989,-0.563203,0.0,0.0
3528,881.75,51.2406,53.1754,133.525,104.835,110.129,0.00986211,0.106068,20.9193,56.0488,-0.445634,0.0,0.0
3546,886.25,51.6266,53.2473,126.365,104.985,111.877,0.00952064,0.105755,20.9193,56.0888,-0.57507,0.0,0.0
3564,890.75,51.3943,53.1425,129.516,105.072,112.575,0.00976467,0.105763,20.9193,56.0388,-0.623918,0.0,0.0
3582,895.25,51.0602,53.1815,126.762,105.158,111.463,0.00967664,0.105831,20.9193,55.9987,-0.526686,0.0,0.0
3600,899.75,50.6763,53.2847,130.72,105.194,113.252,0.00970548,0.105225,20.9198,55.9387,-0.667625,0.0,0.0
3618,904.25,51.1627,53.3535,124.312,105.179,112.517,0.00984734,0.105514,20.9199,55.9087,-0.610076,0.0,0.0
3636,908.75,51.5646,53.2446,131.604,105.149,111.911,0.00987165,0.104871,20.9213,55.9287,-0.563775,0.0,0.0
3654,913.25,51.6112,53.4536,127.009,105.018,112.417,0.010045,0.104961,20.921,55.8186,-0.615807,0.0,0.0
3672,917.75,51.2094,53.6653,125.613,104.862,111.442,0.00974201,0.105305,20.9222,55.8286,-0.550542,0.0,0.0
3690,922.25,51.4374,53.5023,125.263,104.685,111.566,0.00977341,0.104595,20.9218,55.7085,-0.575843,0.0,0.0
3708,926.75,51.1699,53.4941,135.903,104.571,111.135,0.0100196,0.104687,20.9214,55.7385,-0.550712,0.0,0.0
3726,931.25,51.1668,53.7884,126.213,104.633,111.555,0.0101733,0.105127,20.9214,55.6184,-0.579432,0.0,0.0
3744,935.75,51.4785,53.6989,127.178,104.998,111.778,0.0106288,0.105434,20.9207,55.6284,-0.56599,0.0,0.0
3762,940.25,51.4708,53.3743,125.258,105.262,112.359,0.0108136,0.105146,20.9207,55.6284,-0.590179,0.0,0.0
3780,944.75,51.2719,53.6005,126.658,105.392,113.056,0.0104643,0.104836,20.9214,55.5584,-0.634922,0.0,0.0
3798,949.25,51.2638,53.3246,128.693,105.375,112.725,0.0103202,0.104982,20.9215,55.5484,-0.609875,0.0,0.0
3816,953.75,51.2709,53.3938,128.363,105.2,112.354,0.0101406,0.104616,20.9216,55.4383,-0.595108,0.0,0.0
3834,958.25,51.2653,53.6442,125.728,104.9,112.161,0.0102377,0.105257,20.9206,55.4383,-0.605371,0.0,0.0
3852,962.75,51.3903,53.4877,126.104,105.037,111.994,0.0100527,0.104745,20.9195,55.3782,-0.580039,0.0,0.0
3870,967.25,51.4141,53.5558,129.352,105.209,111.915,0.0100816,0.105382,20.9221,55.3582,-0.558878,0.0,0.0
3888,971.75,51.2471,53.8463,130.09,105.425,112.25,0.00995753,0.105295,20.9233,55.3282,-0.567393,0.0,0.0
3906,976.25,51.1425,53.2611,130.101,105.594,112.519,0.0099714,0.105396,20.9221,55.2381,-0.57453,0.0,0.0
3924,980.75,51.2746,53.442,126.847,105.717,112.8,0.0102635,0.104808,20.9213,55.2881,-0.586661,0.0,0.0
3942,985.25,51.5239,53.4275,127.683,105.759,112.907,0.0107847,0.104794,20.9227,55.1981,-0.591558,0.0,0.0
3960,989.75,51.4507,53.761,129.06,105.796,113.206,0.0109062,0.104842,20.9228,55.178,-0.612411,0.0,0.0
3978,994.25,51.4804,53.6105,125.731,105.772,112.685,0.0105475,0.104844,20.9233,55.2081,-0.572731,0.0,0.0
3996,998.75,51.1303,53.3081,127.621,105.718,112.713,0.0101165,0.104218,20.9236,55.128,-0.579492,0.0,0.0
4014,1003.25,51.6805,53.5885,128.147,105.636,113.486,0.0104234,0.104636,20.9237,55.088,-0.64842,0.0,0.0
4032,1007.75,51.2975,53.4058,127.396,105.549,112.009,0.0105881,0.105033,20.9217,55.0579,-0.537312,0.0,0.0
4050,1012.25,51.0667,53.2446,128.697,105.472,111.21,0.0104751,0.104899,20.9227,55.0279,-0.479202,0.0,0.0
4068,1016.75,50.7738,52.8704,131.864,105.358,112.135,0.0105363,0.10497,20.9211,54.8978,-0.563847,0.0,0.0
4086,1021.25,50.6909,53.0027,127.854,105.303,112.381,0.0109224,0.104546,20.9217,54.9578,-0.58842,0.0,0.0
4104,1025.75,50.9903,53.056,126.832,105.22,112.41,0.0108512,0.104941,20.9207,54.8377,-0.597898,0.0,0.0
4122,1030.25,50.8713,53.026,131.092,105.156,113.696,0.0106281,0.104328,20.9222,54.8678,-0.706316,0.0,0.0
4140,1034.75,50.429,52.5885,131.162,105.085,112.257,0.0105021,0.10449,20.923,54.7577,-0.597195,0.0,0.0
4158,1039.25,50.8629,52.921,131.61,105.046,112.485,0.0104578,0.104906,20.9234,54.7377,-0.618914,0.0,0.0
4176,1043.75,50.9519,52.9065,130.73,105.02,112.624,0.0106918,0.103814,20.9235,54.6576,-0.632324,0.0,0.0
4194,1048.25,50.7391,52.793,126.427,105,111.919,0.0106645,0.103606,20.9235,54.5875,-0.577184,0.0,0.0
4212,1052.75,50.709,53.2485,127.177,105.014,112.015,0.0108373,0.104934,20.9217,54.6676,-0.583808,0.0,0.0
4230,1057.25,50.989,52.8978,129.108,105.044,111.624,0.0104078,0.104314,20.922,54.5475,-0.549538,0.0,0.0
4248,1061.75,50.9616,53.0553,129.055,105.092,112.325,0.0104318,0.104775,20.9235,54.6075,-0.602017,0.0,0.0
4266,1066.25,50.8202,52.6743,129.512,105.162,112.482,0.0103462,0.104408,20.9237,54.5175,-0.608684,0.0,0.0
4284,1070.75,50.4674,52.6002,130.313,105.259,111.536,0.0102025,0.104463,20.9237,54.4774,-0.52397,0.0,0.0
4302,1075.25,50.6861,52.7812,130.62,105.368,112.385,0.010607,0.104465,20.9237,54.3773,-0.583204,0.0,0.0
4320,1079.75,50.4771,53.1659,130.365,105.489,112.56,0.0105113,0.103773,20.9237,54.3573,-0.586842,0.0,0.0
4338,1084.25,50.5088,52.748,126.185,105.602,111.939,0.0104498,0.105147,20.9212,54.3773,-0.52714,0.0,0.0
4356,1088.75,50.6125,52.7081,127.908,105.671,113.067,0.010685,0.104547,20.9209,54.2873,-0.61187,0.0,0.0
4374,1093.25,50.7949,52.8312,131.923,105.739,112.697,0.0109486,0.10464,20.9225,54.3373,-0.576413,0.0,0.0
4392,1097.75,50.5373,52.864,127.402,105.744,113.401,0.0109256,0.104155,20.9228,54.1972,-0.6324,0.0,0.0
4410,1102.25,50.7327,52.6949,127.976,105.743,112.738,0.0108614,0.103415,20.9222,54.2372,-0.579413,0.0,0.0
4428,1106.75,50.6379,52.5989,130.03,105.719,112.615,0.0108334,0.104343,20.9227,54.0871,-0.571604,0.0,0.0
4446,1111.25,50.5574,52.7732,126.446,105.709,112.036,0.0105573,0.102873,20.9248,54.0771,-0.525814,0.0,0.0
4464,1115.75,50.4569,52.193,126.762,105.705,111.638,0.0103481,0.102399,20.924,53.977,-0.494002,0.0,0.0
4482,1120.25,50.4705,52.6879,127.251,105.7,113.497,0.0106135,0.103287,20.923,54.027,-0.643773,0.0,0.0
4500,1124.75,50.9755,52.9049,128.452,105.713,112.618,0.0108495,0.103394,20.9229,53.957,-0.572334,0.0,0.0
4518,1129.25,50.6624,53.1427,123.74,105.72,111.865,0.010767,0.102611,20.9251,53.937,-0.511061,0.0,0.0
4536,1133.75,50.5007,52.9367,126.197,105.745,112.527,0.0106002,0.103074,20.9246,53.957,-0.562288,0.0,0.0
4554,1138.25,50.3581,52.2541,130.398,105.745,112.269,0.0102282,0.102733,20.9244,53.8469,-0.541521,0.0,0.0
4572,1142.75,50.7609,53.1197,128.85,105.778,112.453,0.0102507,0.102678,20.9241,53.8068,-0.55355,0.0,0.0
4590,1147.25,50.5432,52.6816,133.706,105.758,112.877,0.0102708,0.102071,20.9236,53.7568,-0.589205,0.0,0.0
4608,1151.75,50.5127,52.4794,128.785,105.755,112.459,0.010418,0.102282,20.9232,53.7068,-0.555989,0.0,0.0
4626,1156.25,50.8252,52.7949,127.383,105.744,112.893,0.0104071,0.102133,20.9255,53.6967,-0.591777,0.0,0.0
4644,1160.75,50.9291,52.5716,124.499,105.734,112.687,0.0104469,0.102247,20.9244,53.6367,-0.57606,0.0,0.0
4662,1165.25,50.7094,52.7976,126.529,105.704,112.521,0.0105205,0.102458,20.9238,53.6467,-0.565345,0.0,0.0
4680,1169.75,50.6172,52.7263,127.529,105.651,112.451,0.010423,0.102072,20.9251,53.5566,-0.564285,0.0,0.0
4698,1174.25,50.4526,52.6669,127.294,105.644,113.071,0.0103177,0.101077,20.9264,53.5566,-0.614593,0.0,0.0
4716,1178.75,50.661,53.1573,127.742,105.609,111.885,0.0100954,0.100966,20.927,53.4866,-0.522121,0.0,0.0
4734,1183.25,50.533,52.8313,128.141,105.605,112.319,0.0103635,0.101199,20.9271,53.4866,-0.557474,0.0,0.0
4752,1187.75,50.3893,52.6657,131.4,105.571,111.54,0.0104212,0.101534,20.9265,53.4165,-0.49751,0.0,0.0
4770,1192.25,50.6403,53.0631,130.556,105.556,111.96,0.0102214,0.101627,20.9263,53.3865,-0.532782,0.0,0.0
4788,1196.75,50.1623,52.9411,130.422,105.546,111.907,0.0103019,0.101312,20.9267,53.3564,-0.529397,0.0,0.0
4806,1201.25,50.3488,52.5676,127.887,105.526,112.474,0.0104391,0.101723,20.9255,53.2564,-0.576801,0.0,0.0
4824,1205.75,50.4125,52.88,127.903,105.498,111.573,0.0106018,0.102187,20.9249,53.2864,-0.506495,0.0,0.0
4842,1210.25,50.7892,52.914,128.653,105.471,111.75,0.0103011,0.101925,20.9241,53.1963,-0.523076,0.0,0.0
4860,1214.75,50.7653,52.763,130.246,105.437,111.257,0.0101189,0.101557,20.9258,53.2263,-0.486038,0.0,0.0
4878,1219.25,51.3309,53.2494,131.128,105.389,112.13,0.0100916,0.101794,20.9267,53.1263,-0.560824,0.0,0.0
4896,1223.75,50.3581,52.5706,126.344,105.38,112.094,0.0101517,0.101341,20.9265,53.1062,-0.558692,0.0,0.0
4914,1228.25,50.5208,52.7759,129.2,105.356,112.634,0.010269,0.101204,20.9253,53.0462,-0.604253,0.0,0.0
4932,1232.75,50.5983,53.0343,127.418,105.315,112.628,0.0102544,0.101166,20.926,53.0061,-0.607325,0.0,0.0
4950,1237.25,50.4725,52.8999,127.213,105.278,112.452,0.0103311,0.101646,20.925,52.9961,-0.596332,0.0,0.0
4968,1241.75,50.5385,52.7555,129.646,105.239,112.22,0.0103149,0.101124,20.9245,52.9461,-0.580959,0.0,0.0
4986,1246.25,50.3654,52.9464,124.347,105.217,112.124,0.0102085,0.101051,20.9252,52.9361,-0.575185,0.0,0.0
5004,1250.75,49.9483,52.6054,127.401,105.141,112.058,0.0103114,0.100926,20.9266,52.836,-0.576318,0.0,0.0
5022,1255.25,51.0517,53.0357,128.242,105.068,112.056,0.0103274,0.100735,20.9256,52.856,-0.582421,0.0,0.0
5040,1259.75,50.2645,52.5304,127.382,104.939,111.75,0.0103141,0.100775,20.9249,52.796,-0.568753,0.0,0.0
5058,1264.25,50.6875,52.6346,126.812,104.771,111.034,0.0102035,0.10196,20.924,52.7459,-0.525206,0.0,0.0
5076,1268.75,50.7638,53.2572,128.989,104.597,111.163,0.0102676,0.104452,20.9229,52.7359,-0.550645,0.0,0.0
5094,1273.25,50.7322,53.1029,126.838,104.389,111.26,0.0101624,0.103419,20.9233,52.6558,-0.576562,0.0,0.0
5112,1277.75,50.8021,52.7775,131.906,104.237,110.81,0.010161,0.103021,20.925,52.6558,-0.553104,0.0,0.0
5130,1282.25,50.7448,53.3061,128.47,104.066,110.384,0.0100025,0.101908,20.9261,52.5858,-0.53315,0.0,0.0
5148,1286.75,50.8767,52.8312,127.528,103.978,110.745,0.0103254,0.101809,20.925,52.6158,-0.57029,0.0,0.0
5166,1291.25,50.699,53.0485,131.622,103.913,110.005,0.0102138,0.100502,20.9249,52.5057,-0.5153,0.0,0.0
5184,1295.75,50.9712,53.2023,126.27,103.906,109.79,0.0100681,0.10078,20.9248,52.5157,-0.498216,0.0,0.0
5202,1300.25,50.9796,53.4001,126.893,103.949,109.873,0.0101129,0.100392,20.9261,52.4356,-0.501327,0.0,0.0
5220,1304.75,51.0645,53.3014,128.156,104.045,110.988,0.0100232,0.100525,20.926,52.4056,-0.584356,0.0,0.0
5238,1309.25,50.6515,53.0649,130.233,104.18,110.157,0.00992522,0.0998131,20.9277,52.3756,-0.504592,0.0,0.0
5256,1313.75,50.8571,53.4524,130.001,104.344,110.525,0.01012,0.100328,20.9262,52.3456,-0.520493,0.0,0.0
5274,1318.25,50.9706,53.148,127.178,104.551,111.522,0.0100276,0.099949,20.9256,52.3656,-0.583841,0.0,0.0
5292,1322.75,51.2411,52.8164,130.341,104.73,111.398,0.00992318,0.100118,20.9255,52.2655,-0.55837,0.0,0.0
5310,1327.25,51.2947,53.4424,126.857,104.908,111.334,0.00956144,0.0999024,20.9255,52.2855,-0.53772,0.0,0.0
5328,1331.75,50.3535,53.4125,128.189,105.04,111.747,0.00977718,0.0993682,20.9255,52.2054,-0.559935,0.0,0.0
5346,1336.25,50.8985,53.1813,129.675,105.152,111.646,0.0101856,0.100455,20.9261,52.2255,-0.542038,0.0,0.0
5364,1340.75,50.7546,53.2107,128.573,105.206,112.317,0.0102451,0.100997,20.9257,52.1654,-0.591673,0.0,0.0
5382,1345.25,50.9426,53.206,126.212,105.198,111.714,0.0101909,0.100998,20.9248,52.1154,-0.543619,0.0,0.0
5400,1349.75,50.9605,53.0094,129.277,105.134,111.985,0.0100489,0.100457,20.9265,52.1054,-0.57103,0.0,0.0
5418,1354.25,51.2918,53.4643,130.634,105.015,110.865,0.00999459,0.100305,20.9269,52.0253,-0.490355,0.0,0.0
5436,1358.75,50.8683,53.4678,125.495,104.884,111.339,0.00996222,0.100365,20.926,52.0553,-0.540251,0.0,0.0
5454,1363.25,51.1159,53.3704,127.432,104.699,111.935,0.00993763,0.101251,20.9263,51.9652,-0.604537,0.0,0.0
5472,1367.75,50.9104,53.2689,125.754,104.588,110.63,0.0100365,0.101188,20.9269,51.9652,-0.508063,0.0,0.0
5490,1372.25,50.7091,52.8813,127.693,104.509,111.248,0.00994772,0.101198,20.927,51.8752,-0.565221,0.0,0.0
5508,1376.75,50.8988,53.3475,129.096,104.677,110.97,0.00980034,0.103537,20.9234,51.8752,-0.528036,0.0,0.0
5526,1381.25,50.9798,53.3882,127.098,104.958,111.367,0.00948929,0.104937,20.9237,51.8151,-0.536109,0.0,0.0
5544,1385.75,50.9532,53.0554,127.289,105.172,112.392,0.00971296,0.104032,20.9249,51.7551,-0.600579,0.0,0.0
5562,1390.25,50.9298,53.6003,128.631,105.332,112.381,0.00971958,0.10185,20.9273,51.7951,-0.585951,0.0,0.0
5580,1394.75,51.12,53.5581,127.307,105.346,110.542,0.00949965,0.0999753,20.9294,51.685,-0.435522,0.0,0.0
5598,1399.25,51.2291,53.4273,129.014,105.283,112.985,0.00935633,0.100348,20.9282,51.705,-0.638655,0.0,0.0
5616,1403.75,51.1375,53.1747,128.215,105.112,112.06,0.0095735,0.0999286,20.9271,51.6249,-0.57894,0.0,0.0
5634,1408.25,51.3635,53.7078,126.757,104.906,111.383,0.00968807,0.100292,20.9279,51.6049,-0.541948,0.0,0.0
5652,1412.75,51.9296,53.7291,127.469,104.894,110.86,0.0093836,0.100073,20.927,51.6149,-0.500394,0.0,0.0
5670,1417.25,51.3031,53.2424,124.406,105.007,112.021,0.00941838,0.10089,20.9263,51.5949,-0.584915,0.0,0.0
5688,1421.75,51.1663,53.6724,129.889,105.138,111.719,0.00956905,0.100489,20.9261,51.5649,-0.549122,0.0,0.0
5706,1426.25,51.2134,53.8097,129.949,105.215,112.539,0.00959936,0.0999128,20.928,51.4248,-0.608748,0.0,0.0
5724,1430.75,51.2906,53.6102,124.918,105.312,110.808,0.00927822,0.0992251,20.9296,51.4548,-0.460161,0.0,0.0
5742,1435.25,51.0303,53.8285,128.407,105.361,111.972,0.00908779,0.100088,20.9299,51.4048,-0.550472,0.0,0.0
5760,1439.75,51.2876,53.831,127.948,105.391,113.06,0.00926488,0.10122,20.9284,51.4448,-0.635366,0.0,0.0
5778,1444.25,51.6502,53.6058,127.324,105.403,112.142,0.00936228,0.100449,20.929,51.3047,-0.560566,0.0,0.0
5796,1448.75,51.5804,53.6249,128.938,105.396,111.618,0.00947662,0.0995165,20.9286,51.2846,-0.518782,0.0,0.0
5814,1453.25,51.4261,53.567,128.499,105.398,112.289,0.00942054,0.099699,20.9281,51.2346,-0.572902,0.0,0.0
5832,1457.75,51.3616,53.7878,128.625,105.353,112.59,0.00900844,0.0990798,20.9297,51.1545,-0.600991,0.0,0.0
5850,1462.25,51.1057,53.9055,129.132,105.329,112.966,0.00893084,0.0993261,20.9298,51.2146,-0.633133,0.0,0.0
5868,1466.75,51.6101,53.9369,128.807,105.283,112.311,0.0091296,0.100302,20.9284,51.1245,-0.5845,0.0,0.0
5886,1471.25,51.1883,53.926,127.803,105.254,111.74,0.00903549,0.0988064,20.9287,51.1545,-0.540936,0.0,0.0
5904,1475.75,51.5028,53.6852,129.456,105.207,111.083,0.00902133,0.0993667,20.9281,51.0444,-0.491609,0.0,0.0
5922,1480.25,51.7463,53.5169,131.094,105.149,113.098,0.00935643,0.100363,20.9275,51.0845,-0.659194,0.0,0.0
5940,1484.75,51.0264,53.3115,128.008,105.074,111.458,0.00931543,0.100113,20.9274,50.9944,-0.533544,0.0,0.0
5958,1489.25,51.3506,53.3747,126.975,104.983,111.917,0.00911204,0.0996583,20.9294,50.9844,-0.578526,0.0,0.0
5976,1493.75,51.4248,53.8175,126.226,104.939,111.753,0.00920837,0.0995383,20.9287,50.9744,-0.569128,0.0,0.0
5994,1498.25,51.0999,53.4352,125.721,104.853,112.091,0.00927413,0.100352,20.9301,50.8843,-0.60378,0.0,0.0
6012,1502.75,51.3278,53.8151,128.889,104.833,111.242,0.00932752,0.100693,20.9303,50.9243,-0.536715,0.0,0.0
6030,1507.25,51.3384,53.3258,126.673,104.989,111.165,0.00933073,0.100437,20.9304,50.8242,-0.517092,0.0,0.0
6048,1511.75,51.5793,53.7868,127.122,105.15,112.147,0.00902556,0.101544,20.9282,50.8643,-0.582769,0.0,0.0
6066,1516.25,51.7467,54.1152,128.977,105.238,112.663,0.00901578,0.101063,20.9274,50.7141,-0.616702,0.0,0.0
6084,1520.75,51.6324,53.8207,126.997,105.285,112.605,0.00898823,0.100971,20.9274,50.7141,-0.607995,0.0,0.0
6102,1525.25,51.4423,53.8084,128.408,105.255,111.82,0.00901406,0.101131,20.9283,50.6641,-0.547309,0.0,0.0
6120,1529.75,51.2352,53.6106,131.101,105.165,110.987,0.00910744,0.0999656,20.9302,50.6041,-0.487429,0.0,0.0
6138,1534.25,51.3422,53.5738,128.218,105.083,111.711,0.00894461,0.0990937,20.93,50.6541,-0.553284,0.0,0.0
6156,1538.75,51.5777,53.4821,128.392,104.969,111.837,0.00870522,0.0990648,20.9298,50.544,-0.573288,0.0,0.0
6174,1543.25,51.2433,53.5714,126.703,104.889,111.153,0.00895473,0.0991504,20.9292,50.534,-0.524666,0.0,0.0
6192,1547.75,51.2377,53.5361,126.796,104.83,111.526,0.00893937,0.0994373,20.9291,50.4739,-0.560043,0.0,0.0
6210,1552.25,51.5004,53.5156,128.317,104.79,112.073,0.00885545,0.0996777,20.9291,50.4839,-0.607749,0.0,0.0
6228,1556.75,51.5968,53.6358,128.137,104.748,112.32,0.00865414,0.0987144,20.9298,50.3739,-0.631301,0.0,0.0
6246,1561.25,51.5137,53.5585,130.18,104.719,112.072,0.00887647,0.097867,20.9318,50.3538,-0.613841,0.0,0.0
6264,1565.75,51.3814,53.7521,129.328,104.689,112.056,0.0089941,0.0979282,20.9305,50.3038,-0.615082,0.0,0.0
6282,1570.25,51.5058,53.6634,129.809,104.681,111.169,0.00874674,0.098037,20.9298,50.2237,-0.543979,0.0,0.0
6300,1574.75,51.449,53.8744,128.959,104.667,111.184,0.0084025,0.0989588,20.9283,50.3038,-0.546322,0.0,0.0
6318,1579.25,50.8544,53.3328,126.55,104.627,111.404,0.00822908,0.100807,20.926,50.1837,-0.567735,0.0,0.0
6336,1583.75,51.6185,53.8825,127.867,104.615,111.262,0.00821632,0.100857,20.9267,50.2437,-0.55718,0.0,0.0
6354,1588.25,51.0506,53.5107,127.68,104.567,112.021,0.00839517,0.0996511,20.9273,50.1036,-0.622821,0.0,0.0
6372,1592.75,51.4036,53.6591,128.007,104.54,111.008,0.00837017,0.0993055,20.9293,50.1637,-0.542952,0.0,0.0
6390,1597.25,51.3722,53.7343,126.084,104.514,111.283,0.00842234,0.0991971,20.9284,50.0436,-0.567696,0.0,0.0
6408,1601.75,51.3031,53.4992,127.164,104.493,111.76,0.00847093,0.0993201,20.9291,50.0436,-0.608135,0.0,0.0
6426,1606.25,51.5985,53.6003,128.531,104.507,110.96,0.00838732,0.0992034,20.9292,50.0235,-0.541969,0.0,0.0
6444,1610.75,51.4638,53.8228,128.78,104.518,111.407,0.00848977,0.0993058,20.9283,49.9335,-0.577394,0.0,0.0
6462,1615.25,51.7176,54.02,125.397,104.537,111.327,0.00852047,0.099457,20.928,49.9835,-0.569205,0.0,0.0
6480,1619.75,51.6846,53.6524,128.355,104.545,111.998,0.00856332,0.0994554,20.9284,49.8734,-0.62288,0.0,0.0
6498,1624.25,51.7786,53.7212,123.153,104.554,111.521,0.00834905,0.0990518,20.9293,49.9235,-0.583584,0.0,0.0
6516,1628.75,51.9215,53.9291,129.553,104.563,111.816,0.00820163,0.0980637,20.9317,49.8234,-0.606625,0.0,0.0
6534,1633.25,51.9941,54.1022,131.577,104.581,111.543,0.00825373,0.0976841,20.9325,49.8034,-0.582908,0.0,0.0
6552,1637.75,51.9189,54.3659,129.78,104.624,110.927,0.00820261,0.0971593,20.9323,49.7233,-0.529221,0.0,0.0
6570,1642.25,51.7118,54.1085,128.517,104.677,111.504,0.00820135,0.0974898,20.9308,49.7033,-0.571441,0.0,0.0
6588,1646.75,52.0293,54.3073,131.013,104.732,110.538,0.00819706,0.0978564,20.9316,49.7333,-0.488027,0.0,0.0
6606,1651.25,52.2122,53.8938,126.125,104.799,111.042,0.00838769,0.0983972,20.9307,49.6332,-0.523443,0.0,0.0
6624,1655.75,52.3029,54.1842,128.705,104.876,112.029,0.00832427,0.099064,20.9309,49.7033,-0.596812,0.0,0.0
6642,1660.25,51.7382,54.1439,129.02,104.926,112.24,0.0082581,0.100384,20.9295,49.5832,-0.609495,0.0,0.0
6660,1664.75,52.0057,54.1532,125.11,104.998,112.173,0.0080811,0.1003,20.9294,49.6132,-0.597897,0.0,0.0
6678,1669.25,51.5736,54.1155,127.818,105.056,112.122,0.00797387,0.0987595,20.9328,49.5331,-0.588815,0.0,0.0
6696,1673.75,51.8533,54.2352,129.463,105.103,112.049,0.00819747,0.0975051,20.9344,49.4931,-0.578949,0.0,0.0
6714,1678.25,51.6884,54.1751,129.967,105.162,112.233,0.00794521,0.0969596,20.9367,49.433,-0.588661,0.0,0.0
6732,1682.75,51.9708,53.7871,127.194,105.211,112.812,0.00789935,0.0965781,20.935,49.413,-0.630949,0.0,0.0
6750,1687.25,51.9321,54.1835,128.052,105.27,111.819,0.00782258,0.0962615,20.9334,49.433,-0.545927,0.0,0.0
6768,1691.75,51.7527,54.2901,125.6,105.288,112.486,0.00777422,0.0971356,20.9336,49.3229,-0.598122,0.0,0.0
6786,1696.25,51.8211,54.16,129.118,105.352,112.383,0.00796552,0.09768,20.9339,49.403,-0.584322,0.0,0.0
6804,1700.75,51.8532,53.6785,129.695,105.333,112.746,0.00763557,0.0972474,20.9341,49.2429,-0.615222,0.0,0.0
6822,1705.25,51.6325,54.4421,126.879,105.35,113.164,0.00779754,0.0965487,20.9345,49.2829,-0.647228,0.0,0.0
6840,1709.75,52.0565,53.8122,127.921,105.329,112.45,0.00787481,0.0977748,20.9331,49.1828,-0.591678,0.0,0.0
6858,1714.25,51.8416,54.2885,128.504,105.273,111.375,0.0079093,0.0983693,20.9305,49.1428,-0.509656,0.0,0.0
6876,1718.75,52.1519,54.4607,129.43,105.206,112.023,0.0076303,0.100029,20.9301,49.1628,-0.567899,0.0,0.0
6894,1723.25,52.2559,54.1432,129.638,105.082,112.351,0.00767471,0.0978567,20.9333,49.0927,-0.605064,0.0,0.0
6912,1727.75,52.1998,54.2717,130.115,104.936,111.49,0.00748545,0.0965889,20.9334,49.1728,-0.548058,0.0,0.0
6930,1732.25,51.8971,54.4031,129.324,104.888,111.637,0.00771144,0.0968762,20.9314,49.0427,-0.564109,0.0,0.0
6948,1736.75,51.8208,53.9184,127.281,104.966,111.683,0.00789033,0.0968763,20.933,49.1228,-0.561103,0.0,0.0
6966,1741.25,51.813,53.9756,125.432,105.042,111.507,0.00780994,0.0959477,20.9333,49.0027,-0.540279,0.0,0.0
6984,1745.75,52.2375,54.5744,127.605,105.16,112.147,0.00765555,0.0959656,20.9333,49.0427,-0.581933,0.0,0.0
7002,1750.25,52.1114,54.379,126.259,105.257,111.512,0.00757402,0.0964086,20.9319,48.9126,-0.522188,0.0,0.0
7020,1754.75,51.8163,54.5767,127.36,105.37,111.77,0.00769518,0.0950178,20.9331,48.8926,-0.533365,0.0,0.0
7038,1759.25,51.8363,54.7104,126.954,105.487,112.237,0.00778594,0.0942424,20.9334,48.9126,-0.561086,0.0,0.0
7056,1763.75,51.9976,54.4206,127.806,105.583,112.625,0.00768456,0.0942926,20.9338,48.8325,-0.58404,0.0,0.0
7074,1768.25,51.8513,54.5925,131.172,105.682,112.664,0.00763394,0.0953518,20.9342,48.9126,-0.578749,0.0,0.0
7092,1772.75,52.3586,54.0282,124.878,105.753,112.871,0.00774921,0.0965386,20.9349,48.7825,-0.589263,0.0,0.0
7110,1777.25,52.4037,54.7788,127.36,105.786,112.153,0.00771412,0.0952476,20.9352,48.8225,-0.528704,0.0,0.0
7128,1781.75,52.0843,54.0487,128.829,105.769,112.818,0.00740775,0.0947054,20.9371,48.6824,-0.58367,0.0,0.0
7146,1786.25,52.1923,54.6683,131.019,105.726,112.73,0.00735725,0.0940128,20.9375,48.6924,-0.580186,0.0,0.0
7164,1790.75,52.0945,55.0365,124.482,105.613,111.782,0.00724036,0.0940513,20.9376,48.6323,-0.51347,0.0,0.0
7182,1795.25,52.3938,55.1194,126.248,105.431,113.271,0.00756267,0.0944582,20.9362,48.6223,-0.648821,0.0,0.0
7200,1799.75,52.3941,54.587,126.866,105.216,111.871,0.00770337,0.094758,20.9338,48.6824,-0.554757,0.0,0.0
7218,1804.25,52.0612,54.1199,126.821,104.951,111.658,0.00767363,0.0942907,20.9335,48.5823,-0.56034,0.0,0.0
7236,1808.75,52.9374,54.5813,124.779,104.7,112.073,0.00752461,0.0940976,20.9341,48.6323,-0.615598,0.0,0.0
7254,1813.25,52.5094,55.0988,127.944,104.396,111.269,0.00741115,0.0935906,20.936,48.4822,-0.576771,0.0,0.0
7272,1817.75,52.0369,54.9419,131.504,104.19,111.695,0.00709135,0.0938617,20.9373,48.4322,-0.629164,0.0,0.0
7290,1822.25,52.3543,55.207,131.336,104.021,110.159,0.00747015,0.0938562,20.9386,48.4322,-0.518666,0.0,0.0
7308,1826.75,52.4837,54.9045,125.029,103.941,110.02,0.00745466,0.0941214,20.939,48.3321,-0.514136,0.0,0.0
7326,1831.25,52.1822,55.0085,127.239,103.909,110.667,0.00736484,0.0934008,20.9396,48.5423,-0.570002,0.0,0.0
7344,1835.75,52.0274,54.8466,128.834,103.895,110.21,0.00732792,0.0936515,20.9397,48.3921,-0.53372,0.0,0.0
7362,1840.25,52.0977,54.6314,126.148,103.926,110.174,0.00723507,0.0932073,20.9388,48.4722,-0.528052,0.0,0.0
7380,1844.75,52.0411,54.5378,128.766,103.961,111.34,0.00736518,0.0927825,20.9378,48.282,-0.620286,0.0,0.0
7398,1849.25,52.188,54.5442,124.048,104.014,110.934,0.00731909,0.0936618,20.9365,48.3321,-0.582596,0.0,0.0
7416,1853.75,51.9317,54.1033,126.568,104.036,111.08,0.00717155,0.0930888,20.9372,48.192,-0.592604,0.0,0.0
7434,1858.25,51.3765,54.1468,125.474,104.079,111.539,0.00705511,0.0931914,20.9368,48.212,-0.626101,0.0,0.0
7452,1862.75,51.741,53.8938,127.988,104.104,110.643,0.00716548,0.0924478,20.9369,48.192,-0.551004,0.0,0.0
7470,1867.25,51.749,54.0497,129.568,104.135,110.939,0.0071352,0.0929697,20.938,48.1219,-0.57251,0.0,0.0
7488,1871.75,51.8777,53.9697,126.924,104.17,112.661,0.00706641,0.093099,20.9395,48.222,-0.708782,0.0,0.0
7506,1876.25,51.529,53.9244,129.687,104.174,110.226,0.00721226,0.0929606,20.9394,48.0919,-0.510841,0.0,0.0
7524,1880.75,51.1741,54.0171,129.64,104.215,110.38,0.0072549,0.0948307,20.9381,48.1619,-0.519886,0.0,0.0
7542,1885.25,51.5624,54.0603,129.786,104.172,110.666,0.00710188,0.0943322,20.9385,48.0318,-0.547034,0.0,0.0
7560,1889.75,51.2361,53.7109,131.666,104.138,110.295,0.00720344,0.0939271,20.9377,48.0618,-0.519578,0.0,0.0
7578,1894.25,51.6393,53.6356,127.252,104.105,110.065,0.00729927,0.0940596,20.938,47.9317,-0.503552,0.0,0.0
7596,1898.75,51.5119,53.9978,131.319,104.09,110.549,0.00712081,0.0930066,20.9383,47.9317,-0.544559,0.0,0.0
7614,1903.25,51.8579,54.1187,124.429,104.121,110.88,0.00693882,0.0926074,20.939,47.9718,-0.568933,0.0,0.0
7632,1907.75,51.8205,53.8772,126.871,104.083,110.899,0.00687826,0.0920691,20.939,47.8216,-0.573758,0.0,0.0
7650,1912.25,50.9634,53.6649,126.436,104.063,110.731,0.0067841,0.0927292,20.9392,47.9417,-0.561799,0.0,0.0
7668,1916.75,51.4777,53.4725,125.974,104.015,111.295,0.00660824,0.0923656,20.9392,47.7916,-0.611947,0.0,0.0
7686,1921.25,52.0848,54.1248,128.146,103.987,110.737,0.00666692,0.0918276,20.9394,47.8817,-0.568908,0.0,0.0
7704,1925.75,51.5307,54.0509,127.529,103.918,110.255,0.00671041,0.0917288,20.9388,47.8016,-0.535402,0.0,0.0
7722,1930.25,51.1253,53.5633,129.97,103.877,110.059,0.0068736,0.0919635,20.9379,47.7716,-0.522908,0.0,0.0
7740,1934.75,51.4156,53.5258,129.215,103.871,110.249,0.00696514,0.0918869,20.9374,47.7115,-0.539065,0.0,0.0
7758,1939.25,51.4788,53.5238,129.427,103.85,109.388,0.0068164,0.0911871,20.9391,47.6915,-0.46997,0.0,0.0
7776,1943.75,51.7056,54.1036,130.721,103.866,110.33,0.00665012,0.0910323,20.9393,47.7616,-0.546078,0.0,0.0
7794,1948.25,51.3984,53.6422,128.908,103.852,110.953,0.00626618,0.0913218,20.9394,47.6215,-0.598315,0.0,0.0
7812,1952.75,50.86,53.2536,126.78,103.871,110.127,0.00607446,0.0902291,20.9394,47.6114,-0.52901,0.0,0.0
7830,1957.25,50.7329,53.4939,127.468,103.859,110.992,0.0062805,0.0924504,20.9385,47.5314,-0.60084,0.0,0.0
7848,1961.75,49.8573,51.8743,127.902,103.875,110.135,0.00625333,0.0943491,20.9369,47.5814,-0.529366,0.0,0.0
7866,1966.25,49.784,52.1088,127.545,103.875,110.268,0.00627109,0.0928692,20.9397,47.4713,-0.540226,0.0,0.0
7884,1970.75,49.9262,52.5066,127.198,103.894,110.836,0.00636832,0.0912434,20.941,47.4213,-0.585061,0.0,0.0
7902,1975.25,49.9093,52.5994,125.107,103.921,110.893,0.00655663,0.0898768,20.9424,47.4413,-0.587306,0.0,0.0
7920,1979.75,49.5443,51.9478,127.006,103.909,109.893,0.00661549,0.0897718,20.9436,47.3612,-0.506547,0.0,0.0
7938,1984.25,49.7669,52.3195,130.704,103.958,110.444,0.00628383,0.0895659,20.9426,47.4213,-0.547482,0.0,0.0
7956,1988.75,50.24,52.2138,130.004,103.983,110.283,0.00629047,0.0888247,20.9446,47.2812,-0.532031,0.0,0.0
7974,1993.25,50.0988,52.4146,129.771,104.007,110.654,0.00596537,0.0886852,20.9449,47.3512,-0.560294,0.0,0.0
7992,1997.75,49.7606,52.7292,126.39,104.026,110.162,0.00603245,0.0886952,20.945,47.2611,-0.518382,0.0,0.0
8010,2002.25,49.1487,51.7486,125.331,104.04,110.209,0.00587237,0.088361,20.9448,47.2812,-0.521031,0.0,0.0
8028,2006.75,49.116,52.2132,127.68,104.06,109.9,0.00593704,0.0883689,20.9445,47.2111,-0.493885,0.0,0.0
8046,2011.25,49.855,51.7536,127.022,104.072,109.947,0.00589243,0.08785,20.9445,47.2011,-0.496689,0.0,0.0
8064,2015.75,49.4477,52.0146,126.41,104.092,109.868,0.00621974,0.0877923,20.9447,47.2211,-0.48856,0.0,0.0
8082,2020.25,49.6471,51.7917,130.485,104.093,110.852,0.00600023,0.0881442,20.9445,47.111,-0.569077,0.0,0.0
8100,2024.75,49.7644,52.5869,131.23,104.106,109.98,0.00594285,0.0879504,20.9444,47.2211,-0.496471,0.0,0.0
8118,2029.25,49.9489,52.0861,131.132,104.096,109.607,0.00576479,0.0888632,20.9442,47.061,-0.466655,0.0,0.0
8136,2033.75,49.819,52.4385,126.06,104.095,111.269,0.00592004,0.0896821,20.9422,47.1611,-0.602919,0.0,0.0
8154,2038.25,50.1308,52.3166,126.885,104.08,110.372,0.00593576,0.0910098,20.9419,47.0309,-0.530946,0.0,0.0
8172,2042.75,49.6166,52.0692,131.574,104.08,110.767,0.00588394,0.0903179,20.9418,47.0009,-0.563258,0.0,0.0
8190,2047.25,49.9666,52.6986,130.102,104.087,110.649,0.00593495,0.0889077,20.9418,46.9609,-0.553005,0.0,0.0
8208,2051.75,49.6203,52.1739,125.607,104.041,111.034,0.00595499,0.0876301,20.9427,46.9108,-0.588407,0.0,0.0
8226,2056.25,50.1711,52.6735,129.591,104.026,110.637,0.00580916,0.0876222,20.9428,46.9809,-0.557305,0.0,0.0
8244,2060.75,49.6097,52.9236,127.928,104.001,109.738,0.00533854,0.0871464,20.9428,46.8708,-0.485754,0.0,0.0
8262,2065.25,49.8068,51.9884,129.578,103.974,110.049,0.00514897,0.0866054,20.944,46.9409,-0.513642,0.0,0.0
8280,2069.75,49.913,52.4275,125.705,103.959,110.418,,,,46.8007,-0.545273,0.0,0.0
8298,2074.25,49.83,52.479,124.607,103.95,109.407,,,,46.8808,-0.462754,0.0,0.0
8308,2076.75,49.8129,52.7582,129.287,103.932,110.097,,,,46.7407,-0.521225,0.0,0.0