File: 01_Data/Engineered_Flooring/Cone/Engineered_Flooring_Cone_HF50Scan_220524_R1.csv
Names,Time,Stack TC,Smoke TC,Exh Press,Smoke Comp,Smoke Meas,CO Meter,CO2 Meter,O2 Meter,Sample Mass,Ext Coeff,Start Test,Flame Verif
Chan Gain,,500,500,1,1,1,1,1,1,1,1,1.0,1.0
Offset,,0,0,0.13752,0,0,0,0,0,0,0,0.0,0.0
Gain,,1,1,25.011,13.8491,15.2622,1,1,1,1.00087,1.03118,1.0,1.0
Units,sec,C,C,Pa,%,%,%,%,%,g,/m,,
Baseline,,34.1391,35.1614,138.054,104.852,107.38,0.00047086,0.0461488,20.9902,-452.397,-0.215413,,
12,2.75,31.271,33.2383,137.084,103.86,107,0.000740001,0.0485363,20.9904,118.213,-0.269394,0.0,0.0
24,5.75,31.7749,33.407,138.305,103.778,105.663,0.000594928,0.0472477,20.9917,118.173,-0.162785,0.0,0.0
36,8.75,32.3983,33.5536,135.938,103.717,106.177,0.000354966,0.0461361,20.9923,118.113,-0.212077,0.0,0.0
48,11.75,32.5118,33.5991,137.42,103.654,105.77,0.000185456,0.0449567,20.9949,118.083,-0.182787,0.0,0.0
60,14.75,32.5063,33.8573,141.543,103.606,105.714,0.000344809,0.0440735,20.9978,118.023,-0.182209,0.0,0.0
72,17.75,32.4038,33.9208,136.151,103.545,106.009,0.000626512,0.0436456,21.0001,117.943,-0.212718,0.0,0.0
84,20.75,32.7775,33.9098,141.782,103.531,105.688,0.000599498,0.0437873,20.9996,117.903,-0.186474,0.0,0.0
96,23.75,33.399,34.1285,138.406,103.504,105.289,0.00061715,0.0452374,20.9965,117.873,-0.15469,0.0,0.0
108,26.75,32.6406,34.2355,130.681,103.489,108.225,0.00172268,0.0779727,20.9539,117.652,-0.404738,0.0,1.0
120,29.75,34.6625,34.7469,119.909,103.483,106.799,0.00335917,0.24598,20.7226,117.282,-0.285339,0.0,1.0
132,32.75,37.6573,35.9962,117.975,103.492,106.351,0.00452805,0.455857,20.4809,116.622,-0.246496,0.0,0.0
144,35.75,42.5894,39.6751,113.181,103.499,104.856,0.00498924,0.557231,20.3669,116.141,-0.117843,0.0,0.0
156,38.75,46.4312,42.8359,117.737,103.512,103.303,0.00515515,0.576267,20.3502,115.611,0.0182255,0.0,0.0
168,41.75,48.9407,46.5661,123.032,103.52,103.276,0.0054547,0.555791,20.3755,115.09,0.0213296,0.0,0.0
180,44.75,51.2146,48.1402,120.683,103.552,103.789,0.00584943,0.544501,20.3864,114.58,-0.0206267,0.0,0.0
192,47.75,52.9553,50.2409,119.462,103.57,103.009,0.00585679,0.548955,20.3844,114.049,0.0492102,0.0,0.0
204,50.75,55.8016,52.3464,119.607,103.599,105.678,0.00568959,0.571659,20.3536,113.479,-0.179693,0.0,0.0
216,53.75,57.9965,55.612,115.142,103.645,104.957,0.00575104,0.594992,20.33,112.868,-0.113783,0.0,0.0
228,56.75,60.75,57.6817,113.051,103.706,106.188,0.00565781,0.60114,20.321,112.288,-0.213988,0.0,0.0
240,59.75,62.31,59.8087,116.819,103.759,106.757,0.00545704,0.600017,20.3222,111.697,-0.257658,0.0,0.0
252,62.75,63.8159,61.4343,114.258,103.814,107.342,0.00520295,0.59236,20.3297,111.157,-0.302263,0.0,0.0
264,65.75,65.3948,63.83,120.575,103.878,108.012,0.00490393,0.572582,20.3565,110.596,-0.35301,0.0,0.0
276,68.75,66.5937,65.578,118.691,103.962,107.708,0.00458199,0.544291,20.3873,110.056,-0.320143,0.0,0.0
288,71.75,67.1962,66.1028,119.491,104.048,107.898,0.00432458,0.519589,20.4187,109.485,-0.328627,0.0,0.0
300,74.75,67.6362,67.0044,119.429,104.128,107.934,0.00410804,0.496608,20.4437,108.985,-0.324691,0.0,0.0
312,77.75,67.5851,68.0831,115.47,104.224,108.869,0.00401173,0.476197,20.4689,108.474,-0.394366,0.0,0.0
324,80.75,68.152,68.1932,117.658,104.299,110.046,0.00390211,0.455079,20.4922,108.014,-0.485142,0.0,0.0
336,83.75,67.9455,69.3774,115.763,104.392,108.487,0.00366361,0.441255,20.5058,107.544,-0.348102,0.0,0.0
348,86.75,68.149,69.7938,121.993,104.471,109.408,0.00365359,0.424095,20.5283,107.103,-0.417673,0.0,0.0
360,89.75,68.0935,69.8234,126.281,104.556,108.979,0.00361344,0.407354,20.5481,106.693,-0.374748,0.0,0.0
372,92.75,67.9011,70.1802,120.677,104.627,110.443,0.00320431,0.394368,20.5666,106.313,-0.489303,0.0,0.0
384,95.75,67.6077,70.781,123.215,104.69,111.104,0.00292491,0.380668,20.5835,105.902,-0.53787,0.0,0.0
396,98.75,67.1678,70.7011,125.24,104.741,109.793,0.00291041,0.368356,20.5981,105.492,-0.426109,0.0,0.0
408,101.75,67.254,70.2484,124.962,104.783,111.798,0.00287929,0.358708,20.6097,105.101,-0.586163,0.0,0.0
420,104.75,66.729,70.1218,125.755,104.818,110.938,0.00253517,0.34886,20.6178,104.671,-0.5133,0.0,0.0
432,107.75,66.2033,69.899,124.568,104.83,109.763,0.00237992,0.340748,20.6284,104.311,-0.415917,0.0,0.0
444,110.75,66.0022,70.0975,122.293,104.84,111.211,0.00261109,0.335055,20.6352,103.971,-0.533667,0.0,0.0
456,113.75,65.9512,70.1832,124.587,104.842,110.794,0.00275113,0.332021,20.6394,103.61,-0.49948,0.0,0.0
468,116.75,64.9381,69.6619,123.067,104.819,110.031,0.00273647,0.328455,20.6438,103.24,-0.438981,0.0,0.0
480,119.75,65.3504,69.6551,127.458,104.795,110.69,0.0026275,0.323956,20.6503,102.86,-0.495044,0.0,0.0
492,122.75,64.9683,69.2604,122.418,104.778,111.206,0.00264001,0.319662,20.6567,102.499,-0.538575,0.0,0.0
504,125.75,64.581,68.9969,124.639,104.779,111.023,0.00278134,0.316394,20.6595,102.129,-0.523566,0.0,0.0
516,128.75,64.3939,68.6427,125.981,104.764,111.261,0.0026834,0.312428,20.6665,101.729,-0.544288,0.0,0.0
528,131.75,63.9087,69.0585,128.026,104.746,111.272,0.00263844,0.310724,20.6687,101.408,-0.546728,0.0,0.0
540,134.75,63.8879,69.0731,130.388,104.729,111.224,0.00260076,0.31098,20.6686,100.998,-0.544287,0.0,0.0
552,137.75,63.3062,68.7964,120.58,104.738,110.788,0.0024524,0.310852,20.6686,100.648,-0.507958,0.0,0.0
564,140.75,64.0594,68.3895,125.217,104.727,110.196,0.00236171,0.309328,20.6698,100.307,-0.460445,0.0,0.0
576,143.75,63.388,67.9117,124.263,104.723,110.828,0.00228889,0.307964,20.6722,99.927,-0.512542,0.0,0.0
588,146.75,63.3229,68.1419,128.105,104.714,109.713,0.00237415,0.307795,20.6729,99.5166,-0.421843,0.0,0.0
600,149.75,63.0524,67.8219,125.476,104.716,110.646,0.00232131,0.308483,20.674,99.1763,-0.498214,0.0,0.0
612,152.75,63.4956,68.3215,122.028,104.739,110.827,0.0023518,0.309015,20.6734,98.806,-0.511079,0.0,0.0
624,155.75,63.1372,67.8977,121.499,104.724,110.696,0.00243501,0.310055,20.6716,98.4357,-0.501668,0.0,0.0
636,158.75,62.9282,67.7552,126.3,104.73,111.827,0.00248121,0.309695,20.6711,98.1054,-0.593097,0.0,0.0
648,161.75,63.0817,67.4618,126.554,104.73,109.516,0.00249208,0.310757,20.6709,97.7451,-0.404234,0.0,0.0
660,164.75,62.7596,67.672,121.355,104.755,109.758,0.00247907,0.311086,20.6709,97.3347,-0.422026,0.0,0.0
672,167.75,62.3399,67.7263,125.25,104.75,110.822,0.00228092,0.312191,20.6694,97.0044,-0.509712,0.0,0.0
684,170.75,62.5732,66.8997,124.362,104.771,110.239,0.00228034,0.312491,20.6696,96.6742,-0.460165,0.0,0.0
696,173.75,62.4574,67.8479,118.334,104.789,110.647,0.00243315,0.311406,20.6705,96.2938,-0.492013,0.0,0.0
708,176.75,62.5431,67.2063,127.734,104.782,110.194,0.00235938,0.311977,20.6712,95.9836,-0.455548,0.0,0.0
720,179.75,62.3746,67.3451,122.254,104.794,111.874,0.00216415,0.312656,20.6714,95.5532,-0.591318,0.0,0.0
732,182.75,63.0272,67.2414,126.921,104.802,110.59,0.00218824,0.312182,20.6707,95.2829,-0.486237,0.0,0.0
744,185.75,62.1974,67.5298,126.533,104.802,110.336,0.00228327,0.313377,20.6701,94.9426,-0.465412,0.0,0.0
756,188.75,62.7374,67.1123,124.496,104.796,111.417,0.00233277,0.313151,20.6711,94.6224,-0.554152,0.0,0.0
768,191.75,62.5384,66.996,124.383,104.787,110.404,0.00237004,0.31434,20.6714,94.2721,-0.472299,0.0,0.0
780,194.75,62.6047,67.1224,126.724,104.761,109.912,0.00227264,0.313679,20.6715,93.9118,-0.434174,0.0,0.0
792,197.75,62.4804,67.3421,125.3,104.745,109.541,0.00233705,0.313939,20.6734,93.5214,-0.404923,0.0,0.0
804,200.75,62.2477,66.9848,127.156,104.738,109.37,0.00240117,0.314741,20.6732,93.1711,-0.391417,0.0,0.0
816,203.75,62.4563,66.7698,120.56,104.711,109.721,0.00246787,0.315329,20.6729,92.8308,-0.422788,0.0,0.0
828,206.75,62.3337,66.5313,125.678,104.716,109.329,0.00263415,0.315274,20.6733,92.4805,-0.389963,0.0,0.0
840,209.75,62.0773,66.7016,123.651,104.695,110.407,0.00277089,0.31576,20.6736,92.1402,-0.480485,0.0,0.0
852,212.75,62.3454,66.5489,128.039,104.69,110.22,0.00276746,0.317235,20.6714,91.7599,-0.465607,0.0,0.0
864,215.75,62.1284,66.7114,125.916,104.696,109.068,0.00259972,0.316792,20.6733,91.3796,-0.370034,0.0,0.0
876,218.75,61.8735,66.7965,124.058,104.712,109.164,0.00243917,0.315042,20.6746,91.0393,-0.376601,0.0,0.0
888,221.75,61.6645,66.9539,121.89,104.742,110.186,0.00236905,0.315724,20.6741,90.6789,-0.458252,0.0,0.0
900,224.75,62.2775,66.3635,127.171,104.756,110.379,0.00246925,0.322721,20.6646,90.2886,-0.472939,0.0,0.0
912,227.75,61.8877,66.9958,122.667,104.775,109.289,0.00278295,0.326797,20.6597,89.9583,-0.381611,0.0,0.0
924,230.75,61.609,66.9911,121.685,104.797,109.402,0.00287438,0.327365,20.6583,89.588,-0.388964,0.0,0.0
936,233.75,62.5724,66.5331,120.748,104.801,110.231,0.00297598,0.327962,20.6579,89.2677,-0.456888,0.0,0.0
948,236.75,61.8413,67.0657,120.607,104.801,109.962,0.00298759,0.329712,20.6552,88.8373,-0.434845,0.0,0.0
960,239.75,61.7673,66.8228,126.553,104.802,108.542,0.00283323,0.333394,20.6507,88.5271,-0.317119,0.0,0.0
972,242.75,62.1292,66.7533,122.715,104.782,109.312,0.00281837,0.334814,20.6476,88.1267,-0.382841,0.0,0.0
984,245.75,62.9546,65.7977,121.924,104.76,109.864,0.00289399,0.338625,20.6445,87.8064,-0.43026,0.0,0.0
996,248.75,62.6284,66.786,124.192,104.734,108.827,0.00296592,0.340567,20.6423,87.4661,-0.346756,0.0,0.0
1008,251.75,62.8667,67.134,124.537,104.694,108.264,0.00284411,0.343375,20.6374,87.0958,-0.303259,0.0,0.0
1020,254.75,62.6998,67.4685,125.126,104.661,108.82,0.00273237,0.348565,20.6316,86.7856,-0.352529,0.0,0.0
1032,257.75,62.7667,67.8482,120.913,104.63,108.845,0.00278943,0.353204,20.6261,86.3652,-0.357287,0.0,0.0
1044,260.75,63.9261,67.0283,121.09,104.565,109.073,0.00301001,0.35697,20.6206,86.0549,-0.381823,0.0,0.0
1056,263.75,63.7285,67.3658,125.813,104.537,108.579,0.00332071,0.362579,20.6141,85.6646,-0.343085,0.0,0.0
1068,266.75,63.5237,68.4466,118.656,104.498,107.964,0.00358987,0.368006,20.607,85.3243,-0.295199,0.0,0.0
1080,269.75,64.6728,67.752,120.676,104.445,108.285,0.00365894,0.373074,20.6,84.9139,-0.326583,0.0,0.0
1092,272.75,64.6634,67.9703,117.808,104.387,108.306,0.00356568,0.377622,20.5936,84.5436,-0.333386,0.0,0.0
1104,275.75,64.6589,68.8559,124.043,104.344,107.713,0.00352896,0.38578,20.5829,84.1733,-0.287428,0.0,0.0
1116,278.75,65.5042,68.703,123.867,104.304,107.866,0.00369335,0.393371,20.5754,83.7629,-0.303808,0.0,0.0
1128,281.75,65.7337,68.6502,122.724,104.261,108.13,0.00383424,0.400308,20.5654,83.3626,-0.329591,0.0,0.0
1140,284.75,66.3192,69.6919,119.233,104.229,107.865,0.00380709,0.40761,20.5583,82.9322,-0.310144,0.0,0.0
1152,287.75,66.6245,70.2656,121.013,104.367,107.909,0.00380218,0.416821,20.5465,82.4918,-0.301941,0.0,0.0
1164,290.75,67.1795,70.4119,122.603,104.54,107.661,0.0039813,0.423617,20.5369,82.0714,-0.266138,0.0,0.0
1176,293.75,67.8055,70.9346,121.274,104.677,107.33,0.00422295,0.432075,20.5257,81.6311,-0.226396,0.0,0.0
1188,296.75,67.9578,71.6342,116.443,104.787,106.104,0.00447919,0.44312,20.5107,81.1707,-0.112994,0.0,0.0
1200,299.75,68.417,71.7715,122.738,104.89,106.148,0.00446451,0.454694,20.4968,80.7103,-0.107831,0.0,0.0
1212,302.75,68.688,72.3902,117.978,104.997,107.393,0.00451043,0.465059,20.4827,80.1998,-0.204051,0.0,0.0
1224,305.75,69.4163,72.9138,120.497,105.059,106.884,0.0047779,0.474439,20.4731,79.6694,-0.155793,0.0,0.0
1236,308.75,70.0068,73.187,121.633,105.098,105.893,0.00498731,0.484198,20.4608,79.209,-0.0681369,0.0,0.0
1248,311.75,70.8128,73.5597,122.434,105.129,106.152,0.00519145,0.495126,20.4489,78.7285,-0.0875788,0.0,0.0
1260,314.75,71.4933,74.0361,117.406,105.148,105.449,0.00553801,0.502892,20.4423,78.2281,-0.0258537,0.0,0.0
1272,317.75,72.0242,75.4335,114.943,105.158,105.397,0.0054096,0.511929,20.4325,77.7377,-0.0204646,0.0,0.0
1284,320.75,72.276,75.3904,120.485,105.163,106.806,0.0053575,0.521967,20.4198,77.2072,-0.140187,0.0,0.0
1296,323.75,73.2598,76.1905,121.332,105.146,105.33,0.00559773,0.531173,20.4071,76.6968,-0.0158774,0.0,0.0
1308,326.75,73.5985,77.0629,118.165,105.125,104.807,0.00578406,0.540927,20.3969,76.1863,0.0273755,0.0,0.0
1320,329.75,74.6582,77.1002,121.016,105.075,105.498,0.00596601,0.552602,20.3831,75.6459,-0.0363033,0.0,0.0
1332,332.75,74.4406,78.3211,117.43,105.033,103.334,0.00631126,0.563704,20.3708,75.1254,0.147525,0.0,0.0
1344,335.75,75.388,78.6627,108.825,104.971,103.255,0.00655899,0.57775,20.3577,74.5649,0.149066,0.0,0.0
1356,338.75,76.5699,79.708,113.332,104.892,103.706,0.0068543,0.595294,20.3382,73.9944,0.102883,0.0,0.0
1368,341.75,77.241,80.1415,118.348,104.831,103.145,0.00707626,0.603081,20.327,73.4139,0.146678,0.0,0.0
1380,344.75,77.4121,81.0355,115.429,104.745,103.311,0.00750296,0.624152,20.2974,72.8234,0.124706,0.0,0.0
1392,347.75,79.0219,82.1879,113.087,104.671,104.591,0.0078315,0.647906,20.27,72.2029,0.00690068,0.0,0.0
1404,350.75,80.0976,82.7724,107.69,104.645,103.605,0.00803156,0.673372,20.2367,71.6023,0.0903524,0.0,0.0
1416,353.75,81.1592,84.4121,106.984,104.663,101.272,0.00803623,0.700591,20.2035,70.9117,0.297867,0.0,0.0
1428,356.75,82.9349,85.157,114.908,104.697,104.033,0.0081294,0.727487,20.1683,70.2812,0.0575136,0.0,0.0
1440,359.75,84.0168,86.6148,112.01,104.737,100.486,0.0082605,0.744496,20.1492,69.6106,0.374712,0.0,0.0
1452,362.75,84.616,87.791,108.744,104.756,100.489,0.0080817,0.761081,20.1278,68.92,0.37614,0.0,0.0
1464,365.75,85.9592,89.2994,108.669,104.802,99.588,0.00801339,0.772547,20.1111,68.2494,0.461608,0.0,0.0
1476,368.75,86.6412,90.2005,108.481,104.857,101.526,0.00812917,0.765216,20.1129,67.6289,0.292015,0.0,0.0
1488,371.75,87.8626,90.9089,111.691,104.916,101.22,0.00790297,0.736596,20.1453,66.9783,0.32434,0.0,0.0
1500,374.75,87.6365,91.3612,112.424,104.958,103.232,0.00735232,0.688611,20.1981,66.3978,0.149941,0.0,0.0
1512,377.75,87.4992,91.9127,117.969,105.045,103.164,0.00684227,0.630891,20.2678,65.9574,0.163478,0.0,0.0
1524,380.75,86.2699,91.434,118.532,105.132,103.646,0.00647802,0.573059,20.3285,65.507,0.128763,0.0,0.0
1536,383.75,85.1526,90.0763,119.415,105.205,103.254,0.0054676,0.533188,20.3736,65.0967,0.169302,0.0,0.0
1548,386.75,84.2753,90.0658,119.948,105.279,104.232,0.00477399,0.498694,20.4195,64.7163,0.0904165,0.0,0.0
1560,389.75,82.8633,89.1589,119.92,105.36,106.516,0.00425569,0.472652,20.4502,64.336,-0.0987295,0.0,0.0
1572,392.75,82.6528,88.6077,121.645,105.411,107.648,0.00387122,0.447956,20.4861,64.0257,-0.189984,0.0,0.0
1584,395.75,81.1779,88.0385,122.428,105.454,107.971,0.00371483,0.412132,20.5272,63.7355,-0.213369,0.0,0.0
1596,398.75,80.7461,86.5441,121.987,105.488,108.371,0.00360217,0.373257,20.5799,63.4652,-0.24389,0.0,0.0
1608,401.75,78.3158,86.4555,122.595,105.512,109.03,0.00322964,0.334708,20.6272,63.195,-0.296629,0.0,0.0
1620,404.75,76.934,85.2755,125.356,105.519,110.965,0.00275846,0.298914,20.6652,63.0048,-0.455233,0.0,0.0
1632,407.75,75.1222,83.8683,126.007,105.5,111.169,0.00249353,0.267338,20.706,62.8147,-0.47344,0.0,0.0
1644,410.75,74.1342,81.8818,126.581,105.469,111.201,0.00205376,0.2371,20.7445,62.6946,-0.478774,0.0,0.0
1656,413.75,72.3568,80.5598,129.706,105.414,110.523,0.00200666,0.209963,20.7825,62.5845,-0.428044,0.0,0.0
1668,416.75,70.5323,79.1327,129.77,105.341,111.434,0.00216565,0.187853,20.8063,62.4444,-0.508577,0.0,0.0
1680,419.75,68.9178,77.2461,130.689,105.237,110.04,0.00209796,0.169044,20.8301,62.3743,-0.403675,0.0,0.0
1692,422.75,67.5454,76.1003,128.396,105.106,110.339,0.00172021,0.151984,20.849,62.3142,-0.43949,0.0,0.0
1704,425.75,65.919,74.5343,132.176,104.952,110.806,0.00171258,0.138551,20.8656,62.2242,-0.491029,0.0,0.0
1716,428.75,65.2375,72.8494,133.029,104.784,110.292,0.00188657,0.128702,20.8762,62.1741,-0.463391,0.0,0.0
1728,431.75,63.1507,71.5015,130.406,104.602,109.188,0.00200351,0.122362,20.884,62.054,-0.388178,0.0,0.0
1740,434.75,61.837,70.1064,135.513,104.427,109.124,0.00230451,0.11777,20.8895,62.034,-0.397995,0.0,0.0
1752,437.75,60.4728,68.8903,130.125,104.241,110.283,0.00260632,0.114408,20.8941,61.9439,-0.509669,0.0,0.0
1764,440.75,59.6634,67.2522,131.694,104.056,109.417,0.00272886,0.112297,20.8972,61.8839,-0.454409,0.0,0.0
1776,443.75,58.6647,66.5146,134.393,103.891,108.99,0.0026972,0.111054,20.8996,61.8038,-0.433448,0.0,0.0
1788,446.75,57.5308,65.1009,131.366,103.77,109.326,0.00280388,0.10939,20.9024,61.7237,-0.471804,0.0,0.0
1800,449.75,56.5885,64.1063,131.079,103.638,109.341,0.00292031,0.108423,20.9031,61.6737,-0.484541,0.0,0.0
1812,452.75,55.6675,63.1552,134.748,103.566,107.266,0.00305237,0.107381,20.9048,61.5936,-0.317468,0.0,0.0
1824,455.75,55.314,62.1082,132.847,103.525,109.306,0.00310798,0.106175,20.9061,61.5536,-0.491467,0.0,0.0
1836,458.75,54.3973,61.235,129.738,103.495,108.175,0.00304802,0.105105,20.9088,61.5336,-0.400093,0.0,0.0
1848,461.75,54.1127,60.3312,132.321,103.513,109.094,0.00327282,0.104992,20.9097,61.4835,-0.475059,0.0,0.0
1860,464.75,53.4516,59.7996,134.569,103.553,108.56,0.00322129,0.104309,20.91,61.4335,-0.42711,0.0,0.0
1872,467.75,52.6847,58.67,131.945,103.632,108.331,0.00326938,0.103443,20.9116,61.4135,-0.40117,0.0,0.0
1884,470.75,52.4985,58.0728,132.55,103.704,109.139,0.00344604,0.102672,20.9131,61.3434,-0.462014,0.0,0.0
1896,473.75,51.6479,57.6078,134.689,103.802,109.834,0.0035109,0.102327,20.9146,61.3434,-0.510916,0.0,0.0
1908,476.75,51.1622,56.9171,133.234,103.91,109.147,0.00352111,0.101891,20.9156,61.3734,-0.444771,0.0,0.0
1920,479.75,50.991,56.2048,130.769,103.971,108.565,0.00357625,0.101393,20.916,61.3234,-0.391096,0.0,0.0
1932,482.75,50.0644,55.4646,134.39,104.034,108.855,0.00370978,0.102309,20.9149,61.2934,-0.409727,0.0,0.0
1944,485.75,50.3138,54.6356,130.887,104.122,109.128,0.0036409,0.102645,20.9151,61.3034,-0.424775,0.0,0.0
1956,488.75,49.6888,54.2683,136.789,104.19,108.743,0.00362627,0.101843,20.9163,61.2934,-0.386808,0.0,0.0
1968,491.75,49.3933,54.2208,135.001,104.253,108.917,0.00363469,0.100911,20.9179,61.2433,-0.395821,0.0,0.0
1980,494.75,49.2499,53.4166,132.227,104.32,109.254,0.00375112,0.100821,20.9188,61.1432,-0.418029,0.0,0.0
1992,497.75,48.935,53.1721,132.772,104.373,109.548,0.0038068,0.10031,20.9166,61.1232,-0.437748,0.0,0.0
2004,500.75,49.1215,52.5958,133.368,104.424,109.34,0.00402807,0.100664,20.9154,61.1232,-0.416148,0.0,0.0
2016,503.75,48.7187,51.6367,133.242,104.487,109.406,0.00407968,0.100474,20.916,61.0532,-0.416128,0.0,0.0
2028,506.75,48.0032,51.7235,130.553,104.495,108.98,0.00406019,0.0999397,20.9163,61.0331,-0.380127,0.0,0.0
2040,509.75,47.7512,51.6945,132.72,104.524,108.933,0.0040285,0.0999766,20.917,61.0131,-0.373661,0.0,0.0
2052,512.75,47.4918,50.8262,133.407,104.545,108.857,0.00413226,0.100187,20.9166,60.9931,-0.365565,0.0,0.0
2064,515.75,47.1521,50.5765,132.313,104.565,109.829,0.00399562,0.0997083,20.918,60.913,-0.44426,0.0,0.0
2076,518.75,47.0612,50.5645,131.581,104.576,109.6,0.00394893,0.0995487,20.9185,60.833,-0.424378,0.0,0.0
2088,521.75,46.8198,49.76,128.134,104.575,109.542,0.00412567,0.100345,20.9186,60.7929,-0.419758,0.0,0.0
2100,524.75,47.086,49.6976,130.138,104.593,109.601,0.00450445,0.100296,20.9186,60.7729,-0.423106,0.0,0.0
2112,527.75,46.3624,49.2844,135.948,104.608,109.543,0.00446047,0.100704,20.9171,60.7229,-0.41691,0.0,0.0
2124,530.75,46.3078,49.4363,132.955,104.62,109.961,0.00419268,0.0999958,20.918,60.7028,-0.450356,0.0,0.0
2136,533.75,46.1936,49.0894,134.805,104.618,108.973,0.00428273,0.0999418,20.9185,60.6928,-0.368945,0.0,0.0
2148,536.75,46.0904,48.673,131.282,104.623,109.711,0.00456722,0.100732,20.9183,60.6228,-0.429542,0.0,0.0
2160,539.75,46.3307,48.5134,130.783,104.603,108.975,0.00471644,0.100129,20.9185,60.5727,-0.370381,0.0,0.0
2172,542.75,45.6593,48.317,133.225,104.58,108.574,0.00492238,0.0998292,20.92,60.5928,-0.339044,0.0,0.0
2184,545.75,45.8503,48.0858,133.802,104.558,110.103,0.00512537,0.100002,20.9215,60.5427,-0.467445,0.0,0.0
2196,548.75,45.5764,47.9106,134.097,104.56,109.246,0.00512628,0.0999034,20.9219,60.5127,-0.39658,0.0,0.0
2208,551.75,45.5565,47.3599,135.769,104.515,109.218,0.0050347,0.0998693,20.9225,60.5227,-0.398104,0.0,0.0
2220,554.75,45.5044,47.0759,131.94,104.483,109.505,0.00519347,0.0989946,20.9238,60.5427,-0.424693,0.0,0.0
2232,557.75,44.8318,46.8133,135.751,104.459,108.213,0.00536399,0.098913,20.9234,60.4827,-0.319304,0.0,0.0
2244,560.75,44.5698,47.2167,133.792,104.43,108.362,0.00544887,0.0999042,20.9225,60.4426,-0.334316,0.0,0.0
2256,563.75,44.9805,46.9633,132.774,104.384,108.204,0.00556814,0.100598,20.9222,60.4726,-0.325044,0.0,0.0
2268,566.75,45.3363,46.5302,143.337,104.318,109.345,0.00553142,0.100503,20.9201,60.3926,-0.425729,0.0,0.0
2280,569.75,45.065,46.1207,134.339,104.269,109.104,0.00554156,0.0995882,20.92,60.3926,-0.409999,0.0,0.0
2292,572.75,45.3811,46.3459,132.954,104.203,108.941,0.00549298,0.0999864,20.9199,60.3325,-0.402233,0.0,0.0
2304,575.75,44.8077,46.0631,132.972,104.125,109.142,0.00575514,0.0998532,20.9183,60.2725,-0.425603,0.0,0.0
2316,578.75,44.2567,46.117,130.617,104.069,108.059,0.00613972,0.100252,20.9172,60.2925,-0.340329,0.0,0.0
2328,581.75,44.5828,46.0216,132.475,104.02,107.684,0.00588086,0.0996911,20.9177,60.2625,-0.313148,0.0,0.0
2340,584.75,44.8629,45.8727,138.474,103.978,108.455,0.00565295,0.0987951,20.9189,60.2124,-0.381346,0.0,0.0
2352,587.75,44.3126,45.6936,132.888,103.958,107.893,0.0057376,0.0999259,20.9202,60.1624,-0.336029,0.0,0.0
2364,590.75,44.3047,45.452,134.487,103.93,108.035,0.00603499,0.100941,20.9212,60.1223,-0.350432,0.0,0.0
2376,593.75,44.3895,45.7034,137.075,103.914,108.425,0.00621245,0.101573,20.9217,60.0723,-0.384338,0.0,0.0
2388,596.75,44.232,45.5744,132.797,103.918,107.37,0.0061673,0.101331,20.9221,60.0423,-0.295641,0.0,0.0
2400,599.75,44.336,45.6516,133.363,103.923,108.335,0.00608126,0.100561,20.9222,59.9722,-0.376175,0.0,0.0
2412,602.75,44.1678,44.837,133.291,103.933,107.576,0.00613989,0.100346,20.9222,59.9422,-0.31168,0.0,0.0
2424,605.75,44.24,45.1386,133.834,103.961,107.943,0.00609121,0.099656,20.9222,59.8921,-0.339988,0.0,0.0
2436,608.75,44.0447,45.3591,137.718,103.983,107.562,0.00606671,0.0992388,20.9232,59.8321,-0.306127,0.0,0.0
2448,611.75,44.0246,45.0769,133.317,104.02,107.867,0.00629459,0.0990528,20.9235,59.8021,-0.328514,0.0,0.0
2460,614.75,43.67,44.8507,131.232,104.049,108.829,0.00650585,0.0990185,20.9244,59.752,-0.406311,0.0,0.0
2472,617.75,43.6484,45.0452,132.133,104.095,108.601,0.00660816,0.0984337,20.925,59.742,-0.383281,0.0,0.0
2484,620.75,43.5611,44.6422,135.867,104.127,108.378,0.00665844,0.0985276,20.9236,59.712,-0.362002,0.0,0.0
2496,623.75,43.1479,44.8225,134.866,104.166,109.048,0.00659183,0.0981731,20.9231,59.6719,-0.414352,0.0,0.0
2508,626.75,43.3996,44.4464,133.971,104.198,108.721,0.00661273,0.0979652,20.9246,59.702,-0.384365,0.0,0.0
2520,629.75,43.1794,44.2249,133.162,104.233,109.009,0.00680639,0.0976667,20.9244,59.692,-0.405198,0.0,0.0
2532,632.75,43.3054,44.0169,134.453,104.27,108.98,0.00702293,0.0980184,20.9243,59.712,-0.399687,0.0,0.0
2544,635.75,43.1613,44.6257,133.876,104.302,108.334,0.00705769,0.0978342,20.9238,59.702,-0.343121,0.0,0.0
2556,638.75,43.0548,44.4047,131.927,104.327,108.217,0.0072721,0.0974405,20.9247,59.6519,-0.331119,0.0,0.0
2568,641.75,42.8505,44.3512,133.874,104.37,108.788,0.00746734,0.0972747,20.9261,59.6419,-0.375023,0.0,0.0
2580,644.75,42.8174,43.9499,135.241,104.401,108.028,0.00736283,0.0976053,20.9257,59.6119,-0.308888,0.0,0.0
2592,647.75,43.1061,44.1936,135.392,104.446,108.307,0.00722384,0.0981137,20.9248,59.5618,-0.328339,0.0,0.0
2604,650.75,42.6125,43.9733,136.779,104.482,108.055,0.00716213,0.0982222,20.9245,59.5018,-0.304156,0.0,0.0
2616,653.75,42.9766,43.8807,135.301,104.516,108.785,0.00702106,0.0976305,20.9244,59.5218,-0.362087,0.0,0.0
2628,656.75,42.8637,43.7695,133.509,104.542,108.779,0.00700868,0.097215,20.9261,59.4918,-0.359391,0.0,0.0
2640,659.75,42.6575,43.9139,134.612,104.588,110.147,0.00741942,0.0971983,20.9268,59.4518,-0.468448,0.0,0.0
2652,662.75,42.8154,44.0523,135.212,104.607,108.67,0.00762631,0.0972228,20.927,59.4618,-0.344692,0.0,0.0
2664,665.75,43,44.1204,136.848,104.623,109.056,0.00765617,0.0970876,20.9271,59.3917,-0.375386,0.0,0.0
2676,668.75,42.8588,43.8614,135.917,104.653,108.859,0.00769011,0.0967853,20.9255,59.3417,-0.356399,0.0,0.0
2688,671.75,42.9519,43.6607,132.907,104.683,109.349,0.0077846,0.0973621,20.9245,59.3216,-0.394428,0.0,0.0
2700,674.75,42.4472,43.8188,131.391,104.71,109.195,0.00764869,0.0972512,20.9254,59.2015,-0.37933,0.0,0.0
2712,677.75,42.7337,44.0333,135.334,104.737,108.781,0.00752678,0.0969506,20.926,59.2015,-0.342667,0.0,0.0
2724,680.75,42.7784,44.0885,134.401,104.765,109.978,0.00747752,0.0968687,20.9266,59.1615,-0.43925,0.0,0.0
2736,683.75,42.3643,44.134,133.183,104.778,108.798,0.00739711,0.0969849,20.9286,59.1615,-0.340558,0.0,0.0
2748,686.75,43.0507,42.9208,134.34,104.807,108.987,0.00747292,0.0963249,20.9292,59.1215,-0.353747,0.0,0.0
2760,689.75,42.0328,43.7031,132.078,104.808,110.456,0.00757069,0.0966322,20.9308,59.0714,-0.474821,0.0,0.0
2772,692.75,42.7877,42.8698,132.18,104.812,108.624,0.0076579,0.0961468,20.9318,59.0714,-0.323145,0.0,0.0
2784,695.75,42.7793,43.2241,133.687,104.807,108.561,0.00786094,0.0959633,20.9309,59.0214,-0.318309,0.0,0.0
2796,698.75,42.2366,43.3845,138.949,104.802,110.049,0.00794053,0.0963611,20.9304,59.0014,-0.441972,0.0,0.0
2808,701.75,42.8142,43.3575,133.897,104.774,109.1,0.00782542,0.0960139,20.9303,59.0214,-0.365981,0.0,0.0
2820,704.75,42.3188,42.931,133.188,104.748,109.345,0.00786966,0.0960501,20.9299,59.0014,-0.388499,0.0,0.0
2832,707.75,42.3139,43.3842,132.921,104.699,109.123,0.00792836,0.0960209,20.9298,59.0414,-0.374334,0.0,0.0
2844,710.75,41.9584,43.3977,133.836,104.656,107.829,0.00803095,0.0956747,20.9297,58.9914,-0.270202,0.0,0.0
2856,713.75,41.715,43.0978,134.568,104.603,108.822,0.00804093,0.0959228,20.9301,58.9713,-0.357687,0.0,0.0
2868,716.75,41.8613,43.7975,132.014,104.541,107.844,0.00797513,0.0964259,20.9304,58.9213,-0.281319,0.0,0.0
2880,719.75,42.0112,43.3012,135.598,104.494,109.321,0.00792071,0.0965391,20.9305,58.9513,-0.40853,0.0,0.0
2892,722.75,42.0183,43.0008,130.817,104.435,109.054,0.00816722,0.0969271,20.929,58.8913,-0.391469,0.0,0.0
2904,725.75,41.8831,43.0403,134.568,104.404,108.29,0.00832116,0.0984905,20.9266,58.8813,-0.33056,0.0,0.0
2916,728.75,42.0382,43.2595,131.972,104.348,108.55,0.00825508,0.0990025,20.9251,58.8212,-0.357078,0.0,0.0
2928,731.75,42.0819,43.3628,135.725,104.334,108.787,0.00816456,0.0984183,20.926,58.8012,-0.37806,0.0,0.0
2940,734.75,42.1541,42.9096,134.239,104.261,107.908,0.00825366,0.0975904,20.9266,58.7912,-0.31095,0.0,0.0
2952,737.75,41.7627,43.126,134.032,104.229,108.376,0.00822765,0.0968648,20.9267,58.8012,-0.352891,0.0,0.0
2964,740.75,41.7017,42.7129,132.657,104.189,108.489,0.00819053,0.0962092,20.9267,58.7411,-0.365778,0.0,0.0
2976,743.75,41.8582,43.0513,138.71,104.284,108.721,0.00818326,0.0958971,20.9265,58.7011,-0.37692,0.0,0.0
2988,746.75,41.4265,43.0739,134.179,104.48,108.565,0.00818721,0.0960375,20.9261,58.581,-0.346896,0.0,0.0
3000,749.75,41.7518,43.051,133.185,104.648,109.164,0.00823427,0.0969628,20.9258,58.561,-0.382114,0.0,0.0
3012,752.75,41.6406,43.0204,138.159,104.783,108.335,0.00820269,0.0976615,20.9251,58.551,-0.301471,0.0,0.0
3024,755.75,41.5765,42.9221,130.95,104.914,109.917,0.00833586,0.0974266,20.9263,58.5109,-0.421356,0.0,0.0
3036,758.75,41.4229,42.7642,134.132,105.012,109.843,0.00839524,0.0980279,20.9253,58.4709,-0.406846,0.0,0.0
3048,761.75,42.0299,43.3288,132.766,105.065,109.444,0.00832791,0.0969811,20.9271,58.4409,-0.369368,0.0,0.0
3060,764.75,41.861,42.7332,135.009,105.088,108.902,0.00830087,0.0959673,20.9287,58.4209,-0.322448,0.0,0.0
3072,767.75,41.5181,43.0385,138.601,105.071,109.714,0.00836431,0.096207,20.9284,58.4209,-0.391159,0.0,0.0
3084,770.75,41.7431,42.7781,133.826,105.015,109.458,0.00841196,0.096623,20.9278,58.3808,-0.374782,0.0,0.0
3096,773.75,41.4787,43.2498,133.407,104.898,110.451,0.00839583,0.0970884,20.9265,58.3908,-0.466674,0.0,0.0
3108,776.75,41.6377,42.7056,130.573,104.759,108.864,0.00857337,0.0973517,20.9268,58.3408,-0.347697,0.0,0.0
3120,779.75,41.5818,42.5915,135.544,104.646,109.521,0.00876166,0.0963088,20.9277,58.3608,-0.411925,0.0,0.0
3132,782.75,41.6166,43.0443,131.648,104.559,108.571,0.00897078,0.0959614,20.928,58.3408,-0.340524,0.0,0.0
3144,785.75,41.6083,43.2255,133.271,104.587,108.732,0.00907123,0.096486,20.9288,58.3208,-0.351564,0.0,0.0
3156,788.75,41.8104,42.5229,137.401,104.643,108.773,0.00899116,0.0962977,20.9299,58.3708,-0.350189,0.0,0.0
3168,791.75,41.6671,42.4602,134.648,104.663,109.927,0.00880626,0.0965278,20.9295,58.3708,-0.443871,0.0,0.0
3180,794.75,41.3021,42.9137,130.402,104.706,109.313,0.00840902,0.0957697,20.9301,58.3208,-0.389527,0.0,0.0
3192,797.75,41.8622,42.3999,132.769,104.72,109.305,0.00828451,0.0955418,20.9303,58.3208,-0.387629,0.0,0.0
3204,800.75,41.8448,42.6243,132.893,104.748,108.913,0.00846177,0.0956678,20.9303,58.2807,-0.352783,0.0,0.0
3216,803.75,41.8333,42.6905,135.548,104.78,108.884,0.00838336,0.0961731,20.9303,58.2607,-0.347534,0.0,0.0
3228,806.75,41.8079,42.9905,133.601,104.806,107.875,0.00839289,0.0960611,20.9301,58.2007,-0.261111,0.0,0.0
3240,809.75,41.2613,42.7312,135.841,104.826,108.901,0.00862424,0.095473,20.9308,58.1806,-0.344992,0.0,0.0
3252,812.75,41.3014,43.0399,133.861,104.83,109.365,0.00885737,0.095453,20.9302,58.1806,-0.383113,0.0,0.0
3264,815.75,41.6983,42.7587,136.172,104.83,109.322,0.00877881,0.0957576,20.9297,58.1606,-0.379456,0.0,0.0
3276,818.75,41.748,42.4963,132.156,104.842,109.482,0.00856223,0.0961981,20.9288,58.1006,-0.391682,0.0,0.0
3288,821.75,41.9068,42.7849,133.751,104.839,107.991,0.0087371,0.0956258,20.9304,58.0205,-0.267986,0.0,0.0
3300,824.75,41.4324,42.8392,134.803,104.857,108.519,0.00883904,0.0954007,20.933,58.0005,-0.310513,0.0,0.0
3312,827.75,41.0171,42.523,130.692,104.819,109.459,0.00860199,0.0955913,20.9328,57.9505,-0.391839,0.0,0.0
3324,830.75,41.2819,42.5919,133.162,104.804,109.326,0.00828638,0.0959165,20.9314,57.9304,-0.382102,0.0,0.0
3336,833.75,41.3753,42.3075,134.403,104.769,109.058,0.0084704,0.096712,20.9296,57.9004,-0.362908,0.0,0.0
3348,836.75,41.5078,41.9217,136.423,104.768,109.374,0.00881019,0.0973147,20.9291,57.8504,-0.38917,0.0,0.0
3360,839.75,41.917,42.1859,135.628,104.769,109.822,0.00889374,0.0979917,20.9292,57.8504,-0.426043,0.0,0.0
3372,842.75,41.0576,42.5486,134.915,104.779,109.659,0.00873889,0.0980896,20.9291,57.8003,-0.411767,0.0,0.0
3384,845.75,41.5789,42.2198,137.364,104.835,109.527,0.00848366,0.0977708,20.9288,57.8103,-0.396071,0.0,0.0
3396,848.75,40.8158,43.1222,134.215,104.833,109.944,0.00851489,0.0974468,20.9298,57.7403,-0.43058,0.0,0.0
3408,851.75,41.1617,42.2673,135.643,104.816,110.496,0.00871424,0.0975079,20.9298,57.7503,-0.477296,0.0,0.0
3420,854.75,41.2567,42.2907,134.19,104.783,109.247,0.0090049,0.0973558,20.9284,57.7803,-0.377371,0.0,0.0
3432,857.75,40.5245,42.7583,135.525,104.763,109.24,0.00905001,0.0964204,20.9297,57.7202,-0.378509,0.0,0.0
3444,860.75,41.2349,41.8072,133.03,104.747,108.73,0.00899599,0.0960635,20.93,57.6702,-0.337528,0.0,0.0
3456,863.75,40.9405,42.1956,133.626,104.731,108.604,0.00899477,0.0965728,20.9299,57.7202,-0.328483,0.0,0.0
3468,866.75,40.7054,42.2745,140.806,104.727,108.191,0.0089865,0.0981445,20.9296,57.6502,-0.2943,0.0,0.0
3480,869.75,41.0236,42.1802,132.092,104.697,109.182,0.0089105,0.0982859,20.9292,57.6802,-0.379418,0.0,0.0
3492,872.75,41.2407,42.6254,133.637,104.68,108.28,0.00903698,0.0986311,20.9295,57.5901,-0.305788,0.0,0.0
3504,875.75,40.939,42.2554,134.018,104.67,108.731,0.00909252,0.0986043,20.9305,57.6001,-0.344325,0.0,0.0
3516,878.75,41.4988,41.7543,134.877,104.629,107.58,0.00890652,0.0976602,20.9315,57.5701,-0.251653,0.0,0.0
3528,881.75,40.089,42.5193,142.981,104.628,108.185,0.00897871,0.0979311,20.9313,57.5401,-0.302379,0.0,0.0
3540,884.75,41.2107,42.4193,135.32,104.617,108.85,0.00907357,0.101155,20.9279,57.5301,-0.358806,0.0,0.0
3552,887.75,40.9403,41.6518,131.967,104.618,108.556,0.00908331,0.102385,20.9279,57.49,-0.334202,0.0,0.0
3564,890.75,41.2358,42.1532,134.543,104.626,109.03,0.00887578,0.100439,20.9282,57.41,-0.373005,0.0,0.0
3576,893.75,40.849,41.9802,131,104.637,108.994,0.0089617,0.0993615,20.9287,57.3399,-0.368966,0.0,0.0
3588,896.75,40.9404,41.7325,136.19,104.661,108.618,0.00896913,0.097223,20.9304,57.3499,-0.335711,0.0,0.0
3600,899.75,40.275,41.8477,132.755,104.688,108.696,0.00896145,0.0963362,20.9326,57.2598,-0.339812,0.0,0.0
3612,902.75,40.9375,41.5115,137.586,104.711,109.102,0.00911229,0.0967752,20.9325,57.2598,-0.371613,0.0,0.0
3624,905.75,40.4399,41.975,133.171,104.756,108.601,0.00910969,0.0961552,20.9316,57.2498,-0.326058,0.0,0.0
3636,908.75,40.4831,42.1196,137.26,104.801,109.684,0.00921272,0.0962683,20.9313,57.2098,-0.411942,0.0,0.0
3648,911.75,40.4008,42.3556,133.234,104.861,108.791,0.00921466,0.0972287,20.9293,57.1698,-0.332792,0.0,0.0
3660,914.75,40.6793,41.884,132.998,104.925,109.721,0.00911696,0.0974094,20.9269,57.1397,-0.404258,0.0,0.0
3672,917.75,40.2888,42.4872,133.462,104.976,108.918,0.0088985,0.0961207,20.9276,57.0997,-0.333445,0.0,0.0
3684,920.75,40.3165,42.1923,134.809,105.024,108.693,0.00898674,0.0961246,20.9278,57.0997,-0.31063,0.0,0.0
3696,923.75,39.9324,42.26,131.857,105.077,109.934,0.00902768,0.0971281,20.9282,57.0697,-0.408682,0.0,0.0
3708,926.75,40.0276,42.4519,140.804,105.108,109.223,0.00890053,0.0968501,20.9286,57.0597,-0.347429,0.0,0.0
3720,929.75,40.6335,42.0861,135.637,105.166,109.194,0.00877667,0.096191,20.9302,57.0597,-0.339982,0.0,0.0
3732,932.75,39.8636,42.2311,133.694,105.209,109.696,0.00887075,0.095904,20.9308,57.0296,-0.377696,0.0,0.0
3744,935.75,40.1527,41.7387,136.299,105.267,109.087,0.00895438,0.0962087,20.9312,57.0196,-0.322493,0.0,0.0
3756,938.75,41.0999,40.7486,135.446,105.297,109.325,0.00905509,0.0961892,20.9304,56.9396,-0.33959,0.0,0.0
3768,941.75,40.2455,41.5803,131.575,105.335,110.151,0.00901077,0.0969807,20.9294,56.9696,-0.404431,0.0,0.0
3780,944.75,40.6919,42.1622,132.393,105.377,108.052,0.00914034,0.0964153,20.93,56.9195,-0.226793,0.0,0.0
3792,947.75,40.8946,41.9555,134.681,105.418,109.613,0.00914969,0.0952871,20.9316,56.8995,-0.352999,0.0,0.0
3804,950.75,40.3644,42.1727,130.847,105.426,109.05,0.00900232,0.0951509,20.932,56.8795,-0.30576,0.0,0.0
3816,953.75,40.779,41.2708,133.744,105.442,109.72,0.00884766,0.0949292,20.9322,56.8295,-0.359694,0.0,0.0
3828,956.75,40.1248,41.5765,132.859,105.454,110.507,0.00885558,0.0951361,20.9321,56.8495,-0.423378,0.0,0.0
3840,959.75,40.3555,41.5126,137.112,105.465,109.206,0.00906487,0.0954548,20.9308,56.8295,-0.315281,0.0,0.0
3852,962.75,40.883,41.702,132.938,105.469,109.625,0.00912635,0.0954512,20.9298,56.7994,-0.349575,0.0,0.0
3864,965.75,40.4057,41.6702,133.579,105.452,109.608,0.00909205,0.0948499,20.931,56.7394,-0.349639,0.0,0.0
3876,968.75,40.5484,41.8188,133.308,105.432,109.307,0.00896681,0.0949298,20.9315,56.6894,-0.326515,0.0,0.0
3888,971.75,39.8033,41.7007,134.445,105.436,109.861,0.00896055,0.0954413,20.9316,56.6493,-0.371828,0.0,0.0
3900,974.75,39.8456,41.8593,135.396,105.42,109.83,0.00892574,0.0947405,20.9316,56.6193,-0.370675,0.0,0.0
3912,977.75,40.6622,41.6352,133.04,105.406,109.285,0.00888278,0.0944979,20.9316,56.5893,-0.32684,0.0,0.0
3924,980.75,40.1875,41.8512,131.904,105.393,110.188,0.00899059,0.0946496,20.9312,56.5893,-0.402409,0.0,0.0
3936,983.75,40.1685,41.0987,136.502,105.377,108.811,0.00919157,0.0946513,20.9308,56.5692,-0.29009,0.0,0.0
3948,986.75,40.6648,41.2792,132.784,105.364,110.044,0.00921508,0.0952525,20.9319,56.5392,-0.393125,0.0,0.0
3960,989.75,40.1797,41.4131,135.039,105.345,109.792,0.00924164,0.0946159,20.9327,56.4992,-0.374061,0.0,0.0
3972,992.75,40.266,41.3709,131.574,105.34,109.278,0.00906809,0.0938416,20.9329,56.4792,-0.331922,0.0,0.0
3984,995.75,39.971,42.0578,131.6,105.296,109.131,0.00906127,0.0938002,20.933,56.4591,-0.323581,0.0,0.0
3996,998.75,40.3179,41.859,134.062,105.279,109.01,0.00923907,0.0945618,20.933,56.4591,-0.31499,0.0,0.0
4008,1001.75,40.3448,41.5288,133.804,105.242,109.376,0.00933801,0.0940168,20.933,56.4792,-0.348438,0.0,0.0
4020,1004.75,40.1627,41.6173,137.369,105.183,110.155,0.00926212,0.0943333,20.9334,56.4591,-0.41774,0.0,0.0
4032,1007.75,40.3209,41.6946,133.443,105.122,108.828,0.00927746,0.0950125,20.9334,56.4591,-0.313423,0.0,0.0
4044,1010.75,40.4871,41.9159,133.406,105.034,109.451,0.0091263,0.0949344,20.933,56.4391,-0.372604,0.0,0.0
4056,1013.75,40.8221,41.904,133.87,104.959,109.465,0.00889077,0.0947135,20.9322,56.4091,-0.38024,0.0,0.0
4068,1016.75,40.2121,42.0327,134.177,104.851,109.45,0.008851,0.0945825,20.931,56.339,-0.388336,0.0,0.0
4080,1019.75,40.9761,42.367,138.853,104.742,108.527,0.00896426,0.0939542,20.9321,56.319,-0.321097,0.0,0.0
4092,1022.75,40.4894,41.6883,131.647,104.628,108.142,0.00901245,0.093752,20.9332,56.309,-0.298756,0.0,0.0
4104,1025.75,40.8062,41.921,136.195,104.501,108.714,0.00899809,0.094102,20.9335,56.329,-0.357477,0.0,0.0
4116,1028.75,40.196,42.0449,129.728,104.379,109.129,0.00897203,0.0943291,20.9341,56.279,-0.402595,0.0,0.0
4128,1031.75,40.3114,42.2379,133.062,104.256,109.485,0.0091058,0.0942903,20.9342,56.259,-0.442672,0.0,0.0
4140,1034.75,40.1399,41.7022,134.603,104.156,108.341,0.00931891,0.0942842,20.9343,56.239,-0.356322,0.0,0.0
4152,1037.75,40.7422,42.0527,135.602,104.02,108.275,0.00930223,0.0942707,20.9343,56.2089,-0.362664,0.0,0.0
4164,1040.75,40.5095,42.0429,133.423,103.915,107.793,0.0091858,0.0941248,20.9343,56.1389,-0.33142,0.0,0.0
4176,1043.75,40.9389,41.8803,134.377,103.823,107.017,0.00911883,0.0939201,20.9343,56.0588,-0.274054,0.0,0.0
4188,1046.75,40.2585,41.8086,133.838,103.742,107.655,0.00895514,0.0940265,20.9343,55.9787,-0.334901,0.0,0.0
4200,1049.75,40.4263,42.0045,139.704,103.679,108.639,0.0088185,0.094904,20.933,55.9887,-0.422747,0.0,0.0
4212,1052.75,40.7467,41.89,134.762,103.616,107.911,0.00884806,0.0971668,20.9308,55.9787,-0.367349,0.0,0.0
4224,1055.75,40.0297,41.7327,132.016,103.57,107.676,0.00901343,0.0968116,20.9305,55.9487,-0.351673,0.0,0.0
4236,1058.75,40.0811,42.1215,134.548,103.545,108.112,0.00907216,0.096018,20.9318,55.8987,-0.3904,0.0,0.0
4248,1061.75,40.5289,42.0862,133.279,103.515,106.69,0.00909075,0.0954932,20.9317,55.8386,-0.273335,0.0,0.0
4260,1064.75,40.6543,41.7319,134.345,103.509,107.543,0.00916989,0.094935,20.9315,55.8486,-0.345792,0.0,0.0
4272,1067.75,40.2134,41.8592,132.386,103.497,107.21,0.00913365,0.0944028,20.9315,55.8286,-0.318849,0.0,0.0
4284,1070.75,40.4604,41.7384,131.962,103.538,107.806,0.00902248,0.0944466,20.9315,55.7986,-0.36539,0.0,0.0
4296,1073.75,40.2863,41.7871,134.745,103.554,107.617,0.00902094,0.0947127,20.9316,55.8186,-0.348105,0.0,0.0
4308,1076.75,40.2714,41.7484,135.697,103.624,107.268,0.00901779,0.0943595,20.9324,55.7986,-0.312646,0.0,0.0
4320,1079.75,40.7639,42.1686,135.486,103.701,107.26,0.00908883,0.0936265,20.9335,55.8286,-0.305266,0.0,0.0
4332,1082.75,40.5488,42.2568,135.361,103.753,108.636,0.00909947,0.0935913,20.9338,55.7986,-0.416063,0.0,0.0
4344,1085.75,40.913,41.7335,131.94,103.845,108.474,0.0091762,0.0936369,20.9339,55.7585,-0.394489,0.0,0.0
4356,1088.75,40.5758,41.5475,133.513,103.943,108.227,0.00919689,0.0945847,20.9327,55.7485,-0.365346,0.0,0.0
4368,1091.75,40.7055,42.055,130.891,104.03,107.797,0.00906179,0.0945451,20.932,55.7185,-0.321768,0.0,0.0
4380,1094.75,40.1619,41.5373,134.616,104.136,108.29,0.00882407,0.0942196,20.9317,55.6985,-0.353808,0.0,0.0
4392,1097.75,40.4999,41.7362,135.576,104.221,109.179,0.0086259,0.094098,20.9321,55.6885,-0.42036,0.0,0.0
4404,1100.75,40.9313,41.5457,137.598,104.3,108.253,0.00883797,0.093804,20.9336,55.6885,-0.336535,0.0,0.0
4416,1103.75,40.0054,42.0026,133.494,104.355,109.165,0.00905544,0.0939834,20.9339,55.6284,-0.407542,0.0,0.0
4428,1106.75,40.252,42.2383,132.209,104.374,109.549,0.00929723,0.0941897,20.9328,55.6084,-0.437718,0.0,0.0
4440,1109.75,40.0522,41.7207,136.905,104.411,108.916,0.00947975,0.095393,20.9324,55.6184,-0.382114,0.0,0.0
4452,1112.75,40.9992,42.1572,134.197,104.444,109.129,0.00951898,0.0953783,20.9311,55.6184,-0.396956,0.0,0.0
4464,1115.75,40.742,41.4192,136.715,104.479,109.294,0.00928397,0.0951905,20.9311,55.5584,-0.407575,0.0,0.0
4476,1118.75,40.9284,42.1328,134.732,104.494,109.421,0.00921034,0.0951914,20.932,55.5183,-0.4167,0.0,0.0
4488,1121.75,40.6884,42.1559,134.232,104.493,109.679,0.00924993,0.0947412,20.9322,55.4783,-0.438191,0.0,0.0
4500,1124.75,40.7105,41.6895,135.566,104.491,108.53,0.00901883,0.0943271,20.9323,55.4483,-0.343034,0.0,0.0
4512,1127.75,40.501,41.7252,134.619,104.482,108.649,0.00872949,0.0936323,20.9323,55.4182,-0.35381,0.0,0.0
4524,1130.75,40.6637,41.7308,134.184,104.458,108.472,0.00885793,0.0938252,20.9323,55.3682,-0.341148,0.0,0.0
4536,1133.75,40.0477,42.0566,132.465,104.427,107.832,0.00894314,0.094255,20.9323,55.3382,-0.290297,0.0,0.0
4548,1136.75,40.9183,41.4609,135.44,104.411,108.884,0.00916306,0.0944657,20.9329,55.2981,-0.379445,0.0,0.0
4560,1139.75,40.503,41.787,134.749,104.355,107.91,0.00927262,0.0949315,20.9331,55.2881,-0.303006,0.0,0.0
4572,1142.75,40.208,41.7671,132.523,104.34,109.967,0.0092109,0.0950801,20.9335,55.2681,-0.475116,0.0,0.0
4584,1145.75,40.8001,41.8925,134.221,104.292,108.807,0.00924225,0.0947586,20.9338,55.2081,-0.383314,0.0,0.0
4596,1148.75,40.4403,41.9617,131.218,104.275,109.179,0.00921842,0.0950418,20.9339,55.2281,-0.415703,0.0,0.0
4608,1151.75,40.7425,41.5854,130.543,104.225,108.679,0.00910152,0.0947901,20.9339,55.2281,-0.378527,0.0,0.0
4620,1154.75,41.0331,41.483,137.425,104.19,108.618,0.0091537,0.0951122,20.9339,55.2581,-0.376492,0.0,0.0
4632,1157.75,40.258,41.9755,131.78,104.174,108.186,0.00919537,0.0949733,20.9333,55.2481,-0.341785,0.0,0.0
4644,1160.75,40.5079,41.6006,134.132,104.136,108.541,0.00913533,0.0947489,20.9332,55.1981,-0.374753,0.0,0.0
4656,1163.75,40.4593,42.0943,137.947,104.108,108.588,0.00906396,0.0945611,20.9331,55.148,-0.381057,0.0,0.0
4668,1166.75,40.2402,41.9502,136.278,104.078,107.818,0.00900971,0.0942557,20.9329,55.148,-0.319375,0.0,0.0
4680,1169.75,40.0664,41.8512,134.635,104.031,106.994,0.00911023,0.0944773,20.9331,55.128,-0.254024,0.0,0.0
4692,1172.75,40.5722,41.9801,132.439,104.006,108.386,0.00919707,0.0951135,20.9331,55.098,-0.373132,0.0,0.0
4704,1175.75,40.2977,41.4862,136.249,103.983,108.865,0.00900022,0.0955538,20.9321,55.0079,-0.414989,0.0,0.0
4716,1178.75,40.4455,41.6502,137.994,103.943,108.501,0.00885331,0.0955783,20.9308,55.0179,-0.388168,0.0,0.0
4728,1181.75,39.8497,41.2106,133.019,103.889,107.764,0.00888278,0.094577,20.9302,55.0179,-0.331315,0.0,0.0
4740,1184.75,39.8427,41.8491,129.915,103.841,108.32,0.00889386,0.0947966,20.9301,54.9879,-0.382032,0.0,0.0
4752,1187.75,40.0772,41.7501,135.337,103.794,107.5,0.00886349,0.0946558,20.9304,54.9879,-0.317367,0.0,0.0
4764,1190.75,40.3374,41.8515,137.712,103.74,107.685,0.00894651,0.0945595,20.933,54.9779,-0.337592,0.0,0.0
4776,1193.75,39.8809,41.5241,135.162,103.694,107.942,0.00895969,0.0948382,20.9337,54.8878,-0.363141,0.0,0.0
4788,1196.75,40.241,41.319,133.712,103.666,108.598,0.00901911,0.0948859,20.9336,54.8077,-0.42044,0.0,0.0
4800,1199.75,40.156,41.8079,134.88,103.622,108.471,0.00903126,0.0954262,20.9322,54.7777,-0.413603,0.0,0.0
4812,1202.75,39.6402,41.4317,133.732,103.619,108.187,0.00899694,0.0951934,20.9318,54.7377,-0.390215,0.0,0.0
4824,1205.75,39.395,41.6471,131.855,103.617,108.287,0.00910808,0.0962907,20.9317,54.7076,-0.398727,0.0,0.0
4836,1208.75,39.9588,41.4226,134.2,103.616,107.471,0.00924337,0.0963775,20.9317,54.6576,-0.330457,0.0,0.0
4848,1211.75,40.1263,41.4824,135.288,103.58,107.794,0.00925796,0.0960131,20.9312,54.6676,-0.360718,0.0,0.0
4860,1214.75,40.1642,41.1301,132.475,103.571,107.351,0.00931967,0.0960682,20.9308,54.6476,-0.324249,0.0,0.0
4872,1217.75,40.2882,41.4737,137.329,103.571,107.591,0.00941543,0.0962086,20.9301,54.6276,-0.344438,0.0,0.0
4884,1220.75,40.0029,41.4397,132.274,103.57,107.9,0.00950862,0.0969465,20.9293,54.5775,-0.370512,0.0,0.0
4896,1223.75,40.0073,41.5129,137.386,103.578,108.522,0.00977093,0.0991992,20.927,54.5775,-0.421751,0.0,0.0
4908,1226.75,40.0937,41.4961,136.11,103.588,107.109,0.00957871,0.0997409,20.9263,54.5775,-0.302379,0.0,0.0
4920,1229.75,40.0213,41.5225,132.769,103.615,107.757,0.00936833,0.0981568,20.9279,54.5375,-0.354606,0.0,0.0
4932,1232.75,39.5888,42.2843,135.616,103.606,107.519,0.00924603,0.0967143,20.9299,54.5175,-0.335416,0.0,0.0
4944,1235.75,40.0581,41.5949,136.218,103.618,107.622,0.00906762,0.095546,20.9304,54.5275,-0.343002,0.0,0.0
4956,1238.75,40.0186,41.6377,131.585,103.626,107.286,0.00894449,0.0952204,20.9306,54.4874,-0.313993,0.0,0.0
4968,1241.75,39.8355,41.5834,133.081,103.647,107.136,0.00917589,0.0946104,20.9306,54.4474,-0.299455,0.0,0.0
4980,1244.75,40.423,41.4993,132.595,103.644,107.182,0.00928704,0.0950771,20.9306,54.4074,-0.303608,0.0,0.0
4992,1247.75,40.3311,41.6287,133.987,103.654,106.985,0.00897515,0.0954835,20.9306,54.4274,-0.286154,0.0,0.0
5004,1250.75,40.0998,41.8966,127.537,103.664,107.455,0.00897797,0.0952298,20.9306,54.4174,-0.324841,0.0,0.0
5016,1253.75,40.2678,41.7283,135.198,103.676,108.157,0.00902089,0.0944908,20.9319,54.3873,-0.382739,0.0,0.0
5028,1256.75,40.1681,41.3838,136.877,103.683,107.98,0.00899466,0.0938527,20.9343,54.3673,-0.367336,0.0,0.0
5040,1259.75,40.1622,41.9097,129.051,103.685,107.723,0.0090733,0.0941342,20.9354,54.3373,-0.345513,0.0,0.0
5052,1262.75,40.2371,42.0488,132.608,103.687,107.587,0.00891129,0.0941681,20.9358,54.3573,-0.333975,0.0,0.0
5064,1265.75,40.2252,41.6575,133.449,103.701,107.305,0.00873215,0.093454,20.9359,54.2973,-0.308962,0.0,0.0
5076,1268.75,40.3394,41.9761,135.112,103.708,107.518,0.00879774,0.093184,20.9359,54.1672,-0.326335,0.0,0.0
5088,1271.75,39.6482,41.3501,135.686,103.705,106.6,0.00879029,0.0933483,20.9353,54.2172,-0.249067,0.0,0.0
5100,1274.75,39.5197,41.5865,133.078,103.707,106.801,0.00870816,0.0954623,20.932,53.8969,-0.265977,0.0,0.0
5112,1277.75,39.9968,41.4308,138.824,103.717,108.13,0.00860289,0.0983133,20.9281,54.1471,-0.376941,0.0,0.0
5124,1280.75,38.0842,40.3524,132.975,103.71,107.417,0.00860811,0.102298,20.9228,54.0971,-0.317758,0.0,0.0
5136,1283.75,38.2218,39.819,135.042,103.724,107.327,0.00864386,0.10755,20.9179,54.0571,-0.308893,0.0,0.0
5148,1286.75,37.9828,40.2109,135.827,103.734,107.267,0.00885664,0.109789,20.9155,54.037,-0.302982,0.0,0.0
5160,1289.75,38.7694,40.2776,133.449,103.741,107.717,0.00905359,0.108429,20.917,54.027,-0.340215,0.0,0.0
5172,1292.75,38.426,40.2052,133.597,103.782,107.707,0.00888797,0.104664,20.9221,53.997,-0.335819,0.0,0.0
5184,1295.75,38.7408,40.6509,134.642,103.788,109.238,0.00876605,0.100254,20.9268,53.967,-0.462973,0.0,0.0
5196,1298.75,39.0277,40.3848,130.068,103.801,108.534,0.00901814,0.0991357,20.9282,53.947,-0.403291,0.0,0.0
5208,1301.75,38.5959,40.2478,129.534,103.799,107.468,0.00921725,0.0978304,20.93,53.957,-0.314258,0.0,0.0
5220,1304.75,38.8453,40.1383,134.79,103.808,108.24,0.00912662,0.0970386,20.9306,53.967,-0.378173,0.0,0.0
5232,1307.75,39.2021,40.5559,135.783,103.814,108.101,0.00890952,0.0959172,20.9313,53.957,-0.365977,0.0,0.0
5244,1310.75,38.8919,40.3237,134.398,103.804,107.339,0.00898578,0.095418,20.9315,53.9169,-0.302874,0.0,0.0
5256,1313.75,38.8995,40.4449,132.378,103.824,108.348,0.00906857,0.0949347,20.9325,53.9069,-0.385725,0.0,0.0
5268,1316.75,38.8682,40.654,135.848,103.847,107.767,0.00896149,0.0943713,20.9335,53.8969,-0.335154,0.0,0.0
5280,1319.75,39.0199,40.2201,134.462,103.838,107.913,0.00898517,0.0940425,20.9338,53.8669,-0.348196,0.0,0.0
5292,1322.75,38.7665,40.3001,134.818,103.823,107.056,0.00882779,0.0939534,20.9339,53.8369,-0.277397,0.0,0.0
5304,1325.75,38.8024,40.6391,131.517,103.835,107.713,0.00858945,0.0945606,20.9338,53.8469,-0.331612,0.0,0.0
5316,1328.75,38.6444,40.4949,134.852,103.833,108.87,0.00859238,0.0944686,20.9337,53.7868,-0.428475,0.0,0.0
5328,1331.75,38.9263,40.4985,130.507,103.822,107.621,0.00862965,0.094178,20.9336,53.7768,-0.325079,0.0,0.0
5340,1334.75,38.5883,39.5394,132.83,103.824,107.41,0.00866626,0.0940211,20.9336,53.7268,-0.307107,0.0,0.0
5352,1337.75,38.453,40.6145,133.837,103.813,108.072,0.00867854,0.0943753,20.9336,53.7068,-0.363706,0.0,0.0
5364,1340.75,38.8342,40.1496,137.099,103.811,107.75,0.00869417,0.0944491,20.933,53.6867,-0.336951,0.0,0.0
5376,1343.75,38.584,40.5257,135.924,103.812,109.338,0.00862098,0.0949764,20.9334,53.6767,-0.469123,0.0,0.0
5388,1346.75,39.2021,40.0093,137.251,103.8,108.226,0.00850204,0.094223,20.9335,53.6067,-0.377745,0.0,0.0
5400,1349.75,38.6658,40.21,139.075,103.808,107.505,0.00845589,0.0944076,20.9338,53.5366,-0.316507,0.0,0.0
5412,1352.75,38.2528,40.1621,132.016,103.803,108.016,0.00851017,0.0948453,20.9318,53.5466,-0.359838,0.0,0.0
5424,1355.75,38.4263,40.8043,133.768,103.811,108.045,0.00863021,0.0942959,20.9327,53.5166,-0.361593,0.0,0.0
5436,1358.75,38.8939,40.3406,137.518,103.84,107.667,0.00867218,0.0944822,20.9328,53.5066,-0.327335,0.0,0.0
5448,1361.75,38.6112,40.3318,131.824,103.836,107.918,0.00869493,0.0941085,20.9325,53.4265,-0.348809,0.0,0.0
5460,1364.75,38.8207,40.3049,134.3,103.862,107.87,0.00876603,0.0944247,20.9324,53.4165,-0.342501,0.0,0.0
5472,1367.75,38.4488,40.576,131.999,103.898,106.903,0.00889008,0.0945274,20.9324,53.3665,-0.257852,0.0,0.0
5484,1370.75,38.4123,40.2632,130.555,103.919,107.868,0.00877011,0.0944893,20.9324,53.3765,-0.337417,0.0,0.0
5496,1373.75,38.8737,40.3297,133.321,103.94,107.895,0.00846924,0.0942704,20.9325,53.3965,-0.337766,0.0,0.0
5508,1376.75,39.144,39.742,135.515,103.984,108.089,0.00824737,0.0933998,20.9334,53.3164,-0.350247,0.0,0.0
5520,1379.75,38.6947,40.0776,135.159,103.997,108.191,0.00827793,0.0930413,20.9345,53.3564,-0.357601,0.0,0.0
5532,1382.75,38.9906,39.9907,134.894,104.034,109.12,0.00835472,0.093331,20.9334,53.3264,-0.431759,0.0,0.0
5544,1385.75,38.8565,40.6649,134.997,104.065,108.421,0.00868833,0.0935787,20.934,53.3064,-0.37094,0.0,0.0
5556,1388.75,38.8053,39.9056,133.462,104.092,108.54,,0.0940174,,53.3064,-0.378492,0.0,0.0
5568,1391.75,38.799,40.3237,133.611,104.141,107.844,,,,53.2564,-0.316018,0.0,0.0
5580,1394.75,38.3183,40.1021,133.275,104.2,107.958,,,,53.2363,-0.320481,0.0,0.0
5592,1397.75,38.577,40.5307,136.621,104.25,108.529,,,,53.1963,-0.363799,0.0,0.0
5593,1398,39.0374,40.5514,133.542,104.245,108.713,,,,53.1463,-0.379632,0.0,0.0